SpectraSuite Data File
++++++++++++++++++++++++++++++++++++
Date: Thu May 05 14:41:53 CEST 2016
User: root
Dark Spectrum Present: No
Reference Spectrum Present: No
Number of Sampled Component Spectra: 1
Spectrometers: USB4C02835
Integration Time (usec): 100000 (USB4C02835)
Spectra Averaged: 1 (USB4C02835)
Boxcar Smoothing: 0 (USB4C02835)
Correct for Electrical Dark: No (USB4C02835)
Strobe/Lamp Enabled: No (USB4C02835)
Correct for Detector Non-linearity: No (USB4C02835)
Correct for Stray Light: No (USB4C02835)
Number of Pixels in Processed Spectrum: 3648
>>>>>Begin Processed Spectral Data<<<<<
177.47	1869.80
177.69	1869.80
177.91	1869.80
178.13	1873.89
178.36	1896.42
178.58	2318.30
178.80	2467.80
179.02	2342.88
179.24	2349.02
179.46	2322.40
179.68	2375.64
179.90	2447.32
180.13	2502.62
180.35	2252.77
180.57	2328.54
180.79	2590.68
181.01	2498.52
181.23	2371.55
181.45	2508.76
181.67	2539.48
181.90	2521.05
182.12	2291.68
182.34	2179.04
182.56	2600.92
182.78	2543.58
183.00	2318.30
183.22	2363.36
183.44	2215.90
183.66	2811.86
183.89	2463.71
184.11	2375.64
184.33	2572.25
184.55	2615.26
184.77	2400.22
184.99	2330.59
185.21	2449.37
185.43	2791.38
185.65	2373.60
185.87	2330.59
186.10	2731.99
186.32	2766.81
186.54	2389.98
186.76	2435.03
186.98	2645.98
187.20	2424.80
187.42	2351.07
187.64	2340.83
187.86	2473.95
188.08	2562.01
188.30	2232.29
188.52	2400.22
188.75	2684.89
188.97	2623.45
189.19	2363.36
189.41	2363.36
189.63	2611.16
189.85	2453.47
190.07	2244.57
190.29	2160.61
190.51	2457.56
190.73	2349.02
190.95	2475.99
191.17	2375.64
191.39	2263.01
191.61	2465.75
191.84	2314.20
192.06	2533.34
192.28	2334.68
192.50	2848.72
192.72	2394.08
192.94	2361.31
193.16	2562.01
193.38	2523.10
193.60	2252.77
193.82	2297.82
194.04	2654.17
194.26	2473.95
194.48	2361.31
194.70	2324.44
194.92	2408.41
195.14	2521.05
195.36	2314.20
195.58	2439.13
195.80	2398.17
196.02	2426.84
196.24	2359.26
196.46	2482.14
196.69	2449.37
196.91	2850.77
197.13	2379.74
197.35	2349.02
197.57	2625.50
197.79	2537.43
198.01	2471.90
198.23	2398.17
198.45	2508.76
198.67	2420.70
198.89	2244.57
199.11	2449.37
199.33	2422.75
199.55	2209.76
199.77	2351.07
199.99	2473.95
200.21	2523.10
200.43	2553.82
200.65	2226.14
200.87	2162.66
201.09	2523.10
201.31	2432.99
201.53	2428.89
201.75	2416.60
201.97	2465.75
202.19	2482.14
202.41	2408.41
202.63	2449.37
202.85	2568.15
203.07	2592.73
203.29	2346.97
203.51	2318.30
203.73	2457.56
203.95	2828.24
204.17	2289.63
204.39	2412.51
204.61	2435.03
204.83	2406.36
205.05	2424.80
205.27	2383.84
205.49	2715.61
205.71	2461.66
205.93	2172.89
206.15	2297.82
206.37	2478.04
206.59	2428.89
206.81	2232.29
207.03	2205.66
207.25	2244.57
207.47	2586.58
207.69	2379.74
207.91	2535.39
208.13	2656.22
208.34	2449.37
208.56	2351.07
208.78	2371.55
209.00	2422.75
209.22	2412.51
209.44	2387.93
209.66	2342.88
209.88	2461.66
210.10	2404.32
210.32	2324.44
210.54	2449.37
210.76	2473.95
210.98	2566.10
211.20	2158.56
211.42	2475.99
211.64	2645.98
211.86	2580.44
212.08	2344.92
212.30	2418.65
212.52	2412.51
212.74	2535.39
212.96	2432.99
213.17	2437.08
213.39	2562.01
213.61	2703.32
213.83	2342.88
214.05	2363.36
214.27	2559.96
214.49	2332.64
214.71	2346.97
214.93	2498.52
215.15	2521.05
215.37	2527.19
215.59	2252.77
215.81	2367.45
216.03	2586.58
216.24	2500.57
216.46	2340.83
216.68	2432.99
216.90	2596.82
217.12	2617.30
217.34	2385.88
217.56	2529.24
217.78	2652.12
218.00	2590.68
218.22	2422.75
218.44	2396.12
218.66	2523.10
218.87	2717.65
219.09	2312.16
219.31	2400.22
219.53	2551.77
219.75	2435.03
219.97	2367.45
220.19	2381.79
220.41	2449.37
220.63	2684.89
220.85	2330.59
221.06	2330.59
221.28	2572.25
221.50	2555.86
221.72	2387.93
221.94	2318.30
222.16	2533.34
222.38	2621.40
222.60	2322.40
222.82	2389.98
223.03	2533.34
223.25	2389.98
223.47	2367.45
223.69	2529.24
223.91	2596.82
224.13	2539.48
224.35	2203.61
224.57	2486.23
224.78	2547.67
225.00	2357.21
225.22	2424.80
225.44	2281.44
225.66	2637.78
225.88	2414.56
226.10	2441.18
226.32	2381.79
226.53	2652.12
226.75	2379.74
226.97	2389.98
227.19	2428.89
227.41	2398.17
227.63	2332.64
227.85	2166.75
228.06	2367.45
228.28	2408.41
228.50	2529.24
228.72	2215.90
228.94	2318.30
229.16	2299.87
229.37	2363.36
229.59	2222.05
229.81	2541.53
230.03	2447.32
230.25	2375.64
230.47	2179.04
230.69	2273.25
230.90	2543.58
231.12	2334.68
231.34	2441.18
231.56	2396.12
231.78	2371.55
232.00	2539.48
232.21	2367.45
232.43	2310.11
232.65	2273.25
232.87	2531.29
233.09	2256.86
233.30	2318.30
233.52	2633.69
233.74	2461.66
233.96	2295.77
234.18	2373.60
234.40	2525.15
234.61	2719.70
234.83	2301.92
235.05	2230.24
235.27	2777.05
235.49	2602.97
235.70	2236.38
235.92	2377.69
236.14	2588.63
236.36	2815.96
236.58	2217.95
236.79	2428.89
237.01	2422.75
237.23	2453.47
237.45	2572.25
237.67	2250.72
237.88	2549.72
238.10	2691.03
238.32	2228.19
238.54	2357.21
238.76	2439.13
238.97	2402.27
239.19	2242.53
239.41	2428.89
239.63	2592.73
239.85	2469.85
240.06	2398.17
240.28	2340.83
240.50	2580.44
240.72	2453.47
240.93	2265.05
241.15	2463.71
241.37	2529.24
241.59	2648.02
241.81	2342.88
242.02	2410.46
242.24	2488.28
242.46	2539.48
242.68	2203.61
242.89	2320.35
243.11	2580.44
243.33	2455.51
243.55	2435.03
243.76	2363.36
243.98	2355.16
244.20	2500.57
244.42	2387.93
244.64	2349.02
244.85	2248.67
245.07	2375.64
245.29	2418.65
245.51	2365.40
245.72	2482.14
245.94	2531.29
246.16	2381.79
246.38	2406.36
246.59	2389.98
246.81	2414.56
247.03	2291.68
247.24	2252.77
247.46	2408.41
247.68	2502.62
247.90	2277.34
248.11	2353.12
248.33	2572.25
248.55	2426.84
248.77	2398.17
248.98	2437.08
249.20	2756.57
249.42	2357.21
249.64	2324.44
249.85	2435.03
250.07	2367.45
250.29	2564.06
250.50	2392.03
250.72	2183.13
250.94	2531.29
251.16	2748.37
251.37	2389.98
251.59	2441.18
251.81	2521.05
252.02	2688.98
252.24	2326.49
252.46	2443.23
252.68	2359.26
252.89	2394.08
253.11	2193.37
253.33	2473.95
253.54	2625.50
253.76	2289.63
253.98	2344.92
254.20	2316.25
254.41	2357.21
254.63	2430.94
254.85	2265.05
255.06	2394.08
255.28	2514.91
255.50	2441.18
255.71	2349.02
255.93	2275.29
256.15	2439.13
256.36	2527.19
256.58	2287.58
256.80	2379.74
257.02	2455.51
257.23	2457.56
257.45	2371.55
257.67	2406.36
257.88	2461.66
258.10	2512.86
258.32	2308.06
258.53	2367.45
258.75	2721.75
258.97	2387.93
259.18	2283.49
259.40	2215.90
259.62	2676.70
259.83	2695.13
260.05	2387.93
260.27	2867.16
260.48	2519.00
260.70	2389.98
260.92	2291.68
261.13	2363.36
261.35	2551.77
261.57	2576.34
261.78	2185.18
262.00	2369.50
262.22	2506.71
262.43	2406.36
262.65	2392.03
262.86	2369.50
263.08	2785.24
263.30	2516.95
263.51	2170.85
263.73	2260.96
263.95	2701.27
264.16	2361.31
264.38	2246.62
264.60	2299.87
264.81	2432.99
265.03	2543.58
265.25	2502.62
265.46	2326.49
265.68	2645.98
265.89	2594.78
266.11	2340.83
266.33	2310.11
266.54	2590.68
266.76	2541.53
266.98	2514.91
267.19	2576.34
267.41	2615.26
267.62	2441.18
267.84	2162.66
268.06	2408.41
268.27	2510.81
268.49	2635.74
268.70	2418.65
268.92	2439.13
269.14	2398.17
269.35	2256.86
269.57	2322.40
269.79	2426.84
270.00	2392.03
270.22	2682.84
270.43	2269.15
270.65	2199.52
270.87	2473.95
271.08	2631.64
271.30	2385.88
271.51	2400.22
271.73	2551.77
271.95	2658.26
272.16	2342.88
272.38	2392.03
272.59	2412.51
272.81	2527.19
273.02	2392.03
273.24	2400.22
273.46	2613.21
273.67	2361.31
273.89	2281.44
274.10	2359.26
274.32	2611.16
274.54	2512.86
274.75	2351.07
274.97	2471.90
275.18	2570.20
275.40	2486.23
275.61	2406.36
275.83	2463.71
276.05	2291.68
276.26	2473.95
276.48	2418.65
276.69	2396.12
276.91	2432.99
277.12	2650.07
277.34	2467.80
277.55	2580.44
277.77	2471.90
277.99	2404.32
278.20	2396.12
278.42	2318.30
278.63	2342.88
278.85	2404.32
279.06	2398.17
279.28	2471.90
279.49	2580.44
279.71	2564.06
279.93	2447.32
280.14	2389.98
280.36	2400.22
280.57	2654.17
280.79	2494.43
281.00	2443.23
281.22	2441.18
281.43	2574.30
281.65	2220.00
281.86	2316.25
282.08	2551.77
282.29	2768.85
282.51	2332.64
282.73	2328.54
282.94	2349.02
283.16	2555.86
283.37	2545.63
283.59	2422.75
283.80	2519.00
284.02	2453.47
284.23	2490.33
284.45	2437.08
284.66	2351.07
284.88	2430.94
285.09	2475.99
285.31	2447.32
285.52	2519.00
285.74	2244.57
285.95	2572.25
286.17	2426.84
286.38	2629.59
286.60	2394.08
286.81	2379.74
287.03	2379.74
287.24	2512.86
287.46	2568.15
287.67	2490.33
287.89	2650.07
288.10	2412.51
288.32	2463.71
288.53	2580.44
288.75	2422.75
288.96	2580.44
289.18	2447.32
289.39	2365.40
289.61	2478.04
289.82	2645.98
290.04	2686.94
290.25	2265.05
290.47	2478.04
290.68	2424.80
290.90	2656.22
291.11	2314.20
291.33	2500.57
291.54	2357.21
291.76	2402.27
291.97	2445.27
292.18	2559.96
292.40	2482.14
292.61	2402.27
292.83	2684.89
293.04	2490.33
293.26	2494.43
293.47	2490.33
293.69	2369.50
293.90	2301.92
294.12	2609.11
294.33	2496.47
294.55	2459.61
294.76	2521.05
294.97	2613.21
295.19	2717.65
295.40	2465.75
295.62	2473.95
295.83	2590.68
296.05	2344.92
296.26	2562.01
296.48	2369.50
296.69	2465.75
296.90	2453.47
297.12	2537.43
297.33	2549.72
297.55	2514.91
297.76	2490.33
297.98	2504.67
298.19	2441.18
298.41	2414.56
298.62	2349.02
298.83	2555.86
299.05	2535.39
299.26	2418.65
299.48	2346.97
299.69	2523.10
299.90	2408.41
300.12	2316.25
300.33	2529.24
300.55	2379.74
300.76	2488.28
300.98	2324.44
301.19	2615.26
301.40	2408.41
301.62	2435.03
301.83	2457.56
302.05	2461.66
302.26	2367.45
302.47	2449.37
302.69	2373.60
302.90	2488.28
303.12	2228.19
303.33	2437.08
303.54	2789.33
303.76	2449.37
303.97	2480.09
304.19	2596.82
304.40	2402.27
304.61	2592.73
304.83	2625.50
305.04	2551.77
305.26	2643.93
305.47	2475.99
305.68	2389.98
305.90	2312.16
306.11	2660.31
306.33	2482.14
306.54	2318.30
306.75	2359.26
306.97	2353.12
307.18	2500.57
307.39	2357.21
307.61	2478.04
307.82	2449.37
308.04	2502.62
308.25	2359.26
308.46	2498.52
308.68	2457.56
308.89	2533.34
309.10	2510.81
309.32	2490.33
309.53	2506.71
309.74	2547.67
309.96	2359.26
310.17	2582.49
310.39	2469.85
310.60	2508.76
310.81	2449.37
311.03	2295.77
311.24	2592.73
311.45	2465.75
311.67	2633.69
311.88	2539.48
312.09	2494.43
312.31	2439.13
312.52	2400.22
312.73	2432.99
312.95	2322.40
313.16	2420.70
313.37	2539.48
313.59	2471.90
313.80	2611.16
314.01	2578.39
314.23	2365.40
314.44	2404.32
314.65	2367.45
314.87	2385.88
315.08	2371.55
315.29	2357.21
315.51	2351.07
315.72	2312.16
315.93	2586.58
316.15	2543.58
316.36	2394.08
316.57	2527.19
316.79	2398.17
317.00	2418.65
317.21	2547.67
317.43	2465.75
317.64	2398.17
317.85	2387.93
318.07	2355.16
318.28	2426.84
318.49	2531.29
318.70	2752.47
318.92	2688.98
319.13	2664.41
319.34	2621.40
319.56	2598.87
319.77	2615.26
319.98	2572.25
320.20	2648.02
320.41	2553.82
320.62	2588.63
320.83	2392.03
321.05	2639.83
321.26	2484.19
321.47	2539.48
321.69	2617.30
321.90	2228.19
322.11	2381.79
322.32	2506.71
322.54	2672.60
322.75	2334.68
322.96	2838.48
323.18	2357.21
323.39	2263.01
323.60	2285.53
323.81	2504.67
324.03	2482.14
324.24	2402.27
324.45	2422.75
324.66	2359.26
324.88	2594.78
325.09	2643.93
325.30	2396.12
325.52	2389.98
325.73	2486.23
325.94	2326.49
326.15	2297.82
326.37	2318.30
326.58	2576.34
326.79	2684.89
327.00	2473.95
327.22	2451.42
327.43	2383.84
327.64	2381.79
327.85	2469.85
328.07	2422.75
328.28	2727.89
328.49	2439.13
328.70	2373.60
328.92	2379.74
329.13	2486.23
329.34	2521.05
329.55	2580.44
329.76	2519.00
329.98	2408.41
330.19	2631.64
330.40	2467.80
330.61	2426.84
330.83	2564.06
331.04	2389.98
331.25	2406.36
331.46	2502.62
331.68	2326.49
331.89	2592.73
332.10	2437.08
332.31	2242.53
332.52	2471.90
332.74	2623.45
332.95	2267.10
333.16	2400.22
333.37	2555.86
333.58	2463.71
333.80	2414.56
334.01	2250.72
334.22	2412.51
334.43	2437.08
334.64	2402.27
334.86	2293.72
335.07	2363.36
335.28	2621.40
335.49	2318.30
335.70	2535.39
335.92	2633.69
336.13	2715.61
336.34	2514.91
336.55	2469.85
336.76	2529.24
336.98	2369.50
337.19	2455.51
337.40	2572.25
337.61	2789.33
337.82	2437.08
338.04	2570.20
338.25	2334.68
338.46	2471.90
338.67	2346.97
338.88	2383.84
339.09	2293.72
339.31	2432.99
339.52	2375.64
339.73	2252.77
339.94	2426.84
340.15	2500.57
340.36	2375.64
340.58	2529.24
340.79	2330.59
341.00	2639.83
341.21	2385.88
341.42	2588.63
341.63	2389.98
341.85	2562.01
342.06	2508.76
342.27	2349.02
342.48	2473.95
342.69	2277.34
342.90	2486.23
343.12	2588.63
343.33	2355.16
343.54	2613.21
343.75	2594.78
343.96	2432.99
344.17	2377.69
344.38	2523.10
344.60	2349.02
344.81	2396.12
345.02	2475.99
345.23	2658.26
345.44	2723.80
345.65	2516.95
345.86	2549.72
346.07	2521.05
346.29	2422.75
346.50	2545.63
346.71	2541.53
346.92	2611.16
347.13	2781.14
347.34	2480.09
347.55	2342.88
347.76	2504.67
347.98	2265.05
348.19	2467.80
348.40	2533.34
348.61	2475.99
348.82	2760.66
349.03	2480.09
349.24	2330.59
349.45	2760.66
349.66	2185.18
349.88	2414.56
350.09	2404.32
350.30	2625.50
350.51	2588.63
350.72	2455.51
350.93	2430.94
351.14	2416.60
351.35	2564.06
351.56	2398.17
351.77	2480.09
351.99	2555.86
352.20	2664.41
352.41	2484.19
352.62	2312.16
352.83	2424.80
353.04	2475.99
353.25	2363.36
353.46	2469.85
353.67	2566.10
353.88	2242.53
354.09	2441.18
354.30	2387.93
354.52	2547.67
354.73	2484.19
354.94	2416.60
355.15	2445.27
355.36	2709.46
355.57	2373.60
355.78	2480.09
355.99	2422.75
356.20	2482.14
356.41	2629.59
356.62	2529.24
356.83	2467.80
357.04	2654.17
357.25	2340.83
357.46	2449.37
357.68	2287.58
357.89	2387.93
358.10	2473.95
358.31	2396.12
358.52	2334.68
358.73	2420.70
358.94	2340.83
359.15	2416.60
359.36	2570.20
359.57	2521.05
359.78	2504.67
359.99	2500.57
360.20	2344.92
360.41	2439.13
360.62	2588.63
360.83	2475.99
361.04	2471.90
361.25	2555.86
361.46	2629.59
361.67	2512.86
361.88	2435.03
362.09	2592.73
362.30	2559.96
362.51	2375.64
362.72	2406.36
362.93	2670.55
363.14	2555.86
363.35	2426.84
363.56	2383.84
363.78	2607.06
363.99	2586.58
364.20	2424.80
364.41	2490.33
364.62	2650.07
364.83	2523.10
365.04	2412.51
365.25	2432.99
365.46	2723.80
365.67	2361.31
365.88	2482.14
366.09	2396.12
366.30	2508.76
366.51	2498.52
366.72	2320.35
366.93	2371.55
367.14	2559.96
367.35	2594.78
367.56	2447.32
367.77	2523.10
367.98	2490.33
368.18	2523.10
368.39	2572.25
368.60	2306.01
368.81	2605.02
369.02	2588.63
369.23	2422.75
369.44	2314.20
369.65	2410.46
369.86	2551.77
370.07	2486.23
370.28	2422.75
370.49	2596.82
370.70	2555.86
370.91	2267.10
371.12	2301.92
371.33	2643.93
371.54	2437.08
371.75	2588.63
371.96	2152.42
372.17	2512.86
372.38	2437.08
372.59	2506.71
372.80	2408.41
373.01	2387.93
373.22	2459.61
373.43	2441.18
373.64	2322.40
373.85	2539.48
374.06	2637.78
374.26	2596.82
374.47	2482.14
374.68	2641.88
374.89	2514.91
375.10	2447.32
375.31	2543.58
375.52	2535.39
375.73	2514.91
375.94	2324.44
376.15	2543.58
376.36	2314.20
376.57	2404.32
376.78	2463.71
376.99	2437.08
377.20	2643.93
377.40	2394.08
377.61	2662.36
377.82	2301.92
378.03	2727.89
378.24	2572.25
378.45	2498.52
378.66	2490.33
378.87	2291.68
379.08	2330.59
379.29	2437.08
379.50	2514.91
379.71	2383.84
379.91	2541.53
380.12	2420.70
380.33	2416.60
380.54	2504.67
380.75	2439.13
380.96	2453.47
381.17	2521.05
381.38	2451.42
381.59	2576.34
381.80	2424.80
382.00	2699.22
382.21	2553.82
382.42	2729.94
382.63	2801.62
382.84	2531.29
383.05	2625.50
383.26	2674.65
383.47	2441.18
383.68	2529.24
383.88	2574.30
384.09	2496.47
384.30	2588.63
384.51	2514.91
384.72	2326.49
384.93	2367.45
385.14	2478.04
385.35	2514.91
385.55	2334.68
385.76	2592.73
385.97	2469.85
386.18	2334.68
386.39	2369.50
386.60	2392.03
386.81	2371.55
387.02	2377.69
387.22	2416.60
387.43	2605.02
387.64	2506.71
387.85	2619.35
388.06	2582.49
388.27	4034.50
388.48	8195.97
388.68	12037.96
388.89	14421.80
389.10	15544.08
389.31	14634.78
389.52	11485.01
389.73	9906.02
389.93	9170.80
390.14	8273.79
390.35	7387.02
390.56	6651.80
390.77	5486.51
390.98	4091.84
391.18	3442.64
391.39	3008.47
391.60	2568.15
391.81	2699.22
392.02	2443.23
392.23	2815.96
392.43	2482.14
392.64	2645.98
392.85	2443.23
393.06	2713.56
393.27	2465.75
393.47	2404.32
393.68	2404.32
393.89	2463.71
394.10	2705.37
394.31	2383.84
394.52	2402.27
394.72	2424.80
394.93	2717.65
395.14	2414.56
395.35	2545.63
395.56	2451.42
395.76	2516.95
395.97	2480.09
396.18	2594.78
396.39	2605.02
396.60	3006.42
396.80	2725.85
397.01	2721.75
397.22	2699.22
397.43	2723.80
397.64	2392.03
397.84	2566.10
398.05	2768.85
398.26	2564.06
398.47	2531.29
398.67	2613.21
398.88	2455.51
399.09	2607.06
399.30	2461.66
399.51	2496.47
399.71	2336.73
399.92	2500.57
400.13	2432.99
400.34	2381.79
400.54	2547.67
400.75	2729.94
400.96	2463.71
401.17	2631.64
401.37	2559.96
401.58	2473.95
401.79	2457.56
402.00	2635.74
402.21	2826.20
402.41	2770.90
402.62	2785.24
402.83	2856.92
403.04	2961.36
403.24	3104.72
403.45	2602.97
403.66	2836.44
403.87	2707.41
404.07	2828.24
404.28	2731.99
404.49	2719.70
404.70	2562.01
404.90	2637.78
405.11	2432.99
405.32	2625.50
405.52	2453.47
405.73	2449.37
405.94	2414.56
406.15	2443.23
406.35	2596.82
406.56	2564.06
406.77	2490.33
406.98	2553.82
407.18	2385.88
407.39	2711.51
407.60	2439.13
407.80	2533.34
408.01	2408.41
408.22	2496.47
408.43	2359.26
408.63	2506.71
408.84	2559.96
409.05	2588.63
409.25	2340.83
409.46	2412.51
409.67	2461.66
409.88	2420.70
410.08	2510.81
410.29	2465.75
410.50	2590.68
410.70	2541.53
410.91	2291.68
411.12	2486.23
411.32	2506.71
411.53	2432.99
411.74	2568.15
411.95	2555.86
412.15	2586.58
412.36	2617.30
412.57	2568.15
412.77	2654.17
412.98	2519.00
413.19	2457.56
413.39	2457.56
413.60	2467.80
413.81	2678.74
414.01	2408.41
414.22	2490.33
414.43	2539.48
414.63	2439.13
414.84	2662.36
415.05	2494.43
415.25	2318.30
415.46	2547.67
415.67	2447.32
415.87	2514.91
416.08	2486.23
416.29	2447.32
416.49	2578.39
416.70	2428.89
416.91	2432.99
417.11	2492.38
417.32	2662.36
417.53	2568.15
417.73	2539.48
417.94	2543.58
418.15	2465.75
418.35	2428.89
418.56	2428.89
418.77	2770.90
418.97	2514.91
419.18	2455.51
419.38	2213.85
419.59	2494.43
419.80	2617.30
420.00	2482.14
420.21	2336.73
420.42	2662.36
420.62	2570.20
420.83	2349.02
421.04	2473.95
421.24	2404.32
421.45	2594.78
421.65	2453.47
421.86	2369.50
422.07	2553.82
422.27	2525.15
422.48	2408.41
422.69	2371.55
422.89	2451.42
423.10	2410.46
423.30	2367.45
423.51	2461.66
423.72	2588.63
423.92	2586.58
424.13	2318.30
424.33	2541.53
424.54	2609.11
424.75	2443.23
424.95	2695.13
425.16	2400.22
425.36	2475.99
425.57	2701.27
425.78	2512.86
425.98	2519.00
426.19	2508.76
426.39	2449.37
426.60	2428.89
426.81	2639.83
427.01	2572.25
427.22	2400.22
427.42	2318.30
427.63	2408.41
427.83	2553.82
428.04	2619.35
428.25	2506.71
428.45	2600.92
428.66	2584.54
428.86	2559.96
429.07	2449.37
429.28	2426.84
429.48	2553.82
429.69	2402.27
429.89	2527.19
430.10	2318.30
430.30	2461.66
430.51	2635.74
430.71	2316.25
430.92	2439.13
431.13	2486.23
431.33	2531.29
431.54	2441.18
431.74	2551.77
431.95	2764.76
432.15	2353.12
432.36	2441.18
432.56	2445.27
432.77	2754.52
432.98	2670.55
433.18	2465.75
433.39	2453.47
433.59	2453.47
433.80	2746.33
434.00	2611.16
434.21	2461.66
434.41	2385.88
434.62	2717.65
434.82	2367.45
435.03	2346.97
435.23	2568.15
435.44	2236.38
435.64	2480.09
435.85	2500.57
436.06	2619.35
436.26	2629.59
436.47	2416.60
436.67	2398.17
436.88	2432.99
437.08	2570.20
437.29	2627.54
437.49	2555.86
437.70	2637.78
437.90	2541.53
438.11	2627.54
438.31	2508.76
438.52	2645.98
438.72	2672.60
438.93	2760.66
439.13	2469.85
439.34	2742.23
439.54	2559.96
439.75	2627.54
439.95	2570.20
440.16	2457.56
440.36	2525.15
440.57	2465.75
440.77	2463.71
440.98	2516.95
441.18	2523.10
441.39	2398.17
441.59	2422.75
441.80	2711.51
442.00	2473.95
442.21	2559.96
442.41	2289.63
442.62	2590.68
442.82	2396.12
443.02	2490.33
443.23	2414.56
443.43	2447.32
443.64	2686.94
443.84	2392.03
444.05	2570.20
444.25	2527.19
444.46	2559.96
444.66	2392.03
444.87	2686.94
445.07	2375.64
445.28	2523.10
445.48	2578.39
445.69	2611.16
445.89	2795.48
446.09	2541.53
446.30	2727.89
446.50	2918.36
446.71	4472.76
446.91	5724.07
447.12	6590.36
447.32	7040.92
447.53	6633.37
447.73	5492.65
447.93	4739.00
448.14	4413.37
448.34	4358.08
448.55	3805.13
448.75	3833.80
448.96	3559.37
449.16	3235.79
449.36	3010.51
449.57	2758.61
449.77	2572.25
449.98	2340.83
450.18	2512.86
450.39	2557.91
450.59	2529.24
450.79	2551.77
451.00	2422.75
451.20	2605.02
451.41	2412.51
451.61	2512.86
451.81	2551.77
452.02	2432.99
452.22	2439.13
452.43	2410.46
452.63	2412.51
452.84	2400.22
453.04	2396.12
453.24	2506.71
453.45	2449.37
453.65	2453.47
453.86	2463.71
454.06	2607.06
454.26	2465.75
454.47	2383.84
454.67	2641.88
454.87	2535.39
455.08	2445.27
455.28	2596.82
455.49	2500.57
455.69	2416.60
455.89	2686.94
456.10	2619.35
456.30	2473.95
456.51	2670.55
456.71	2506.71
456.91	2514.91
457.12	2432.99
457.32	2562.01
457.52	2404.32
457.73	2605.02
457.93	2537.43
458.14	2383.84
458.34	2308.06
458.54	2482.14
458.75	2394.08
458.95	2584.54
459.15	2605.02
459.36	2510.81
459.56	2469.85
459.76	2744.28
459.97	2463.71
460.17	2432.99
460.37	2527.19
460.58	2523.10
460.78	2637.78
460.99	2453.47
461.19	2471.90
461.39	2379.74
461.60	2471.90
461.80	2529.24
462.00	2373.60
462.21	2449.37
462.41	2375.64
462.61	2367.45
462.82	2324.44
463.02	2611.16
463.22	2523.10
463.43	2580.44
463.63	2478.04
463.83	2707.41
464.04	2424.80
464.24	2457.56
464.44	2308.06
464.64	2473.95
464.85	2578.39
465.05	2607.06
465.25	2428.89
465.46	2351.07
465.66	2578.39
465.86	2543.58
466.07	2471.90
466.27	2406.36
466.47	2293.72
466.68	2330.59
466.88	2609.11
467.08	2637.78
467.29	2545.63
467.49	2471.90
467.69	2570.20
467.89	2572.25
468.10	2408.41
468.30	2453.47
468.50	2625.50
468.71	2654.17
468.91	2396.12
469.11	2664.41
469.31	2486.23
469.52	2441.18
469.72	2668.50
469.92	2695.13
470.13	2422.75
470.33	2453.47
470.53	2631.64
470.73	2938.84
470.94	3309.52
471.14	3461.07
471.34	3866.56
471.54	3823.56
471.75	3364.81
471.95	3074.00
472.15	2994.13
472.36	3051.47
472.56	2965.46
472.76	3047.38
472.96	2928.60
473.17	2742.23
473.37	2686.94
473.57	2539.48
473.77	2617.30
473.98	2572.25
474.18	2363.36
474.38	2867.16
474.58	2367.45
474.79	2410.46
474.99	2584.54
475.19	2629.59
475.39	2369.50
475.60	2488.28
475.80	2471.90
476.00	2523.10
476.20	2353.12
476.41	2465.75
476.61	2539.48
476.81	2637.78
477.01	2396.12
477.21	2664.41
477.42	2551.77
477.62	2369.50
477.82	2645.98
478.02	2420.70
478.23	2529.24
478.43	2357.21
478.63	2494.43
478.83	2449.37
479.03	2539.48
479.24	2678.74
479.44	2705.37
479.64	2371.55
479.84	2297.82
480.04	2449.37
480.25	2580.44
480.45	2402.27
480.65	2457.56
480.85	2740.18
481.06	2430.94
481.26	2514.91
481.46	2469.85
481.66	2547.67
481.86	2408.41
482.06	2592.73
482.27	2555.86
482.47	2514.91
482.67	2531.29
482.87	2441.18
483.07	2490.33
483.28	2449.37
483.48	2359.26
483.68	2461.66
483.88	2334.68
484.08	2258.91
484.29	2363.36
484.49	2531.29
484.69	2267.10
484.89	2635.74
485.09	2629.59
485.29	2523.10
485.50	2529.24
485.70	2404.32
485.90	2637.78
486.10	2521.05
486.30	2494.43
486.50	2643.93
486.71	2568.15
486.91	2578.39
487.11	2549.72
487.31	2389.98
487.51	2531.29
487.71	2430.94
487.91	2359.26
488.12	2406.36
488.32	2236.38
488.52	2432.99
488.72	2295.77
488.92	2594.78
489.12	2664.41
489.32	2568.15
489.53	2508.76
489.73	2351.07
489.93	2652.12
490.13	2416.60
490.33	2367.45
490.53	2529.24
490.73	2635.74
490.94	2334.68
491.14	2605.02
491.34	2637.78
491.54	2678.74
491.74	3424.20
491.94	3936.20
492.14	4294.59
492.34	4419.52
492.54	4095.94
492.75	3391.44
492.95	3473.36
493.15	3223.50
493.35	3112.91
493.55	3071.95
493.75	2856.92
493.95	2981.84
494.15	2760.66
494.35	2543.58
494.56	2482.14
494.76	2400.22
494.96	2490.33
495.16	2600.92
495.36	2510.81
495.56	2623.45
495.76	2465.75
495.96	2447.32
496.16	2447.32
496.36	2815.96
496.56	2422.75
496.77	2467.80
496.97	2428.89
497.17	2674.65
497.37	2299.87
497.57	2527.19
497.77	2437.08
497.97	2435.03
498.17	2455.51
498.37	2404.32
498.57	2568.15
498.77	2473.95
498.97	2609.11
499.17	2637.78
499.38	2488.28
499.58	2564.06
499.78	2572.25
499.98	2566.10
500.18	2447.32
500.38	2486.23
500.58	2645.98
500.78	3074.00
500.98	5363.63
501.18	7225.23
501.38	9138.04
501.58	10180.45
501.78	9727.85
501.98	7950.21
502.18	6592.41
502.38	5849.00
502.58	5437.36
502.78	5033.91
502.98	4622.27
503.18	4489.15
503.38	4018.11
503.59	3493.83
503.79	3373.00
503.99	3092.43
504.19	3139.54
504.39	3100.62
504.59	3022.80
504.79	3090.38
504.99	3080.14
505.19	2820.05
505.39	2752.47
505.59	2912.21
505.79	2799.57
505.99	2650.07
506.19	2617.30
506.39	2668.50
506.59	2498.52
506.79	2408.41
506.99	2551.77
507.19	2480.09
507.39	2519.00
507.59	2404.32
507.79	2402.27
507.99	2435.03
508.19	2543.58
508.39	2439.13
508.59	2428.89
508.79	2584.54
508.99	2760.66
509.19	2426.84
509.39	2510.81
509.59	2451.42
509.79	2471.90
509.99	2547.67
510.19	2537.43
510.39	2621.40
510.59	2527.19
510.79	2432.99
510.99	2351.07
511.19	2441.18
511.39	2695.13
511.59	2580.44
511.79	2564.06
511.99	2475.99
512.19	2699.22
512.38	2514.91
512.58	2404.32
512.78	2443.23
512.98	2637.78
513.18	2664.41
513.38	2330.59
513.58	2527.19
513.78	2490.33
513.98	2516.95
514.18	2437.08
514.38	2426.84
514.58	2512.86
514.78	2447.32
514.98	2430.94
515.18	2496.47
515.38	2383.84
515.58	2750.42
515.78	2416.60
515.98	2461.66
516.18	2594.78
516.38	2420.70
516.57	2422.75
516.77	2424.80
516.97	2572.25
517.17	2344.92
517.37	2232.29
517.57	2514.91
517.77	2545.63
517.97	2398.17
518.17	2514.91
518.37	2336.73
518.57	2412.51
518.77	2488.28
518.97	2424.80
519.16	2531.29
519.36	2664.41
519.56	2367.45
519.76	2412.51
519.96	2478.04
520.16	2715.61
520.36	2379.74
520.56	2572.25
520.76	2432.99
520.96	2531.29
521.16	2586.58
521.35	2600.92
521.55	2631.64
521.75	2504.67
521.95	2455.51
522.15	2349.02
522.35	2281.44
522.55	2359.26
522.75	2580.44
522.95	2400.22
523.14	2404.32
523.34	2478.04
523.54	2467.80
523.74	2545.63
523.94	2498.52
524.14	2285.53
524.34	2504.67
524.54	2629.59
524.73	2482.14
524.93	2654.17
525.13	2482.14
525.33	2375.64
525.53	2715.61
525.73	2654.17
525.93	2480.09
526.13	2439.13
526.32	2437.08
526.52	2680.79
526.72	2582.49
526.92	2420.70
527.12	2422.75
527.32	2351.07
527.52	2480.09
527.71	2469.85
527.91	2451.42
528.11	2379.74
528.31	2551.77
528.51	2324.44
528.71	2572.25
528.90	2596.82
529.10	2570.20
529.30	2557.91
529.50	2258.91
529.70	2576.34
529.90	2449.37
530.09	2486.23
530.29	2387.93
530.49	2365.40
530.69	2844.63
530.89	2529.24
531.09	2564.06
531.28	2410.46
531.48	2564.06
531.68	2531.29
531.88	2455.51
532.08	2619.35
532.28	2455.51
532.47	2537.43
532.67	2594.78
532.87	2539.48
533.07	2373.60
533.27	2514.91
533.46	2480.09
533.66	2568.15
533.86	2504.67
534.06	2392.03
534.26	2555.86
534.45	2545.63
534.65	2572.25
534.85	2496.47
535.05	2453.47
535.25	2605.02
535.44	2326.49
535.64	2580.44
535.84	2453.47
536.04	2457.56
536.24	2400.22
536.43	2435.03
536.63	2541.53
536.83	2502.62
537.03	2514.91
537.22	2232.29
537.42	2213.85
537.62	2496.47
537.82	2398.17
538.02	2670.55
538.21	2588.63
538.41	2875.35
538.61	2600.92
538.81	2494.43
539.00	2596.82
539.20	2316.25
539.40	2402.27
539.60	2482.14
539.79	2512.86
539.99	2500.57
540.19	2451.42
540.39	2510.81
540.58	2609.11
540.78	2578.39
540.98	2510.81
541.18	2555.86
541.37	2553.82
541.57	2490.33
541.77	2508.76
541.97	2301.92
542.16	2295.77
542.36	2435.03
542.56	2447.32
542.76	2605.02
542.95	2519.00
543.15	2531.29
543.35	2658.26
543.54	2340.83
543.74	2435.03
543.94	2654.17
544.14	2459.61
544.33	2566.10
544.53	2455.51
544.73	2463.71
544.93	2453.47
545.12	2449.37
545.32	2480.09
545.52	2465.75
545.71	2351.07
545.91	2459.61
546.11	2451.42
546.30	2324.44
546.50	2525.15
546.70	2504.67
546.90	2437.08
547.09	2310.11
547.29	2461.66
547.49	2596.82
547.68	2455.51
547.88	2389.98
548.08	2545.63
548.27	2971.60
548.47	2424.80
548.67	2371.55
548.87	2535.39
549.06	2426.84
549.26	2455.51
549.46	2557.91
549.65	2449.37
549.85	2506.71
550.05	2453.47
550.24	2367.45
550.44	2484.19
550.64	2539.48
550.83	2428.89
551.03	2645.98
551.23	2568.15
551.42	2498.52
551.62	2453.47
551.82	2488.28
552.01	2447.32
552.21	2627.54
552.41	2543.58
552.60	2615.26
552.80	2523.10
553.00	2383.84
553.19	2473.95
553.39	2717.65
553.59	2346.97
553.78	2455.51
553.98	2471.90
554.17	2363.36
554.37	2600.92
554.57	2488.28
554.76	2318.30
554.96	2455.51
555.16	2537.43
555.35	2480.09
555.55	2527.19
555.75	2555.86
555.94	2527.19
556.14	2303.96
556.33	2484.19
556.53	2443.23
556.73	2572.25
556.92	2484.19
557.12	2525.15
557.32	2736.09
557.51	2648.02
557.71	2529.24
557.90	2676.70
558.10	2643.93
558.30	2379.74
558.49	2379.74
558.69	2414.56
558.88	2578.39
559.08	2445.27
559.28	2523.10
559.47	2519.00
559.67	2572.25
559.86	2705.37
560.06	2445.27
560.26	2514.91
560.45	2609.11
560.65	2459.61
560.84	2531.29
561.04	2334.68
561.24	2586.58
561.43	2299.87
561.63	2693.08
561.82	2480.09
562.02	2527.19
562.22	2328.54
562.41	2363.36
562.61	2422.75
562.80	2400.22
563.00	2734.04
563.19	2529.24
563.39	2482.14
563.59	2570.20
563.78	2381.79
563.98	2228.19
564.17	2465.75
564.37	2275.29
564.56	2490.33
564.76	2361.31
564.96	2543.58
565.15	2519.00
565.35	2719.70
565.54	2480.09
565.74	2531.29
565.93	2633.69
566.13	2457.56
566.32	2539.48
566.52	2541.53
566.71	2500.57
566.91	2582.49
567.11	2494.43
567.30	2371.55
567.50	2568.15
567.69	2541.53
567.89	2451.42
568.08	2285.53
568.28	2547.67
568.47	2455.51
568.67	2525.15
568.86	2461.66
569.06	2635.74
569.25	2443.23
569.45	2318.30
569.64	2375.64
569.84	2449.37
570.04	2543.58
570.23	2435.03
570.43	2400.22
570.62	2531.29
570.82	2691.03
571.01	2437.08
571.21	2408.41
571.40	2418.65
571.60	2748.37
571.79	2521.05
571.99	2469.85
572.18	2389.98
572.38	2519.00
572.57	2457.56
572.77	2625.50
572.96	2805.72
573.16	2623.45
573.35	2361.31
573.55	2594.78
573.74	2521.05
573.94	2441.18
574.13	2363.36
574.33	2609.11
574.52	2645.98
574.71	2496.47
574.91	2564.06
575.10	2289.63
575.30	2504.67
575.49	2453.47
575.69	2387.93
575.88	2564.06
576.08	2475.99
576.27	2684.89
576.47	2533.34
576.66	2678.74
576.86	2666.46
577.05	2506.71
577.25	2580.44
577.44	2768.85
577.64	2432.99
577.83	2652.12
578.02	2422.75
578.22	2670.55
578.41	2752.47
578.61	2471.90
578.80	2285.53
579.00	2506.71
579.19	2574.30
579.39	2652.12
579.58	2598.87
579.77	2408.41
579.97	2654.17
580.16	2658.26
580.36	2574.30
580.55	2650.07
580.75	2586.58
580.94	2516.95
581.13	2641.88
581.33	2729.94
581.52	2469.85
581.72	2674.65
581.91	2693.08
582.11	2482.14
582.30	2514.91
582.49	2605.02
582.69	2674.65
582.88	2576.34
583.08	2553.82
583.27	2719.70
583.47	2498.52
583.66	2439.13
583.85	2512.86
584.05	2473.95
584.24	2590.68
584.44	2486.23
584.63	2660.31
584.82	2795.48
585.02	2695.13
585.21	2699.22
585.41	2592.73
585.60	2664.41
585.79	2850.77
585.99	2770.90
586.18	2596.82
586.37	3252.17
586.57	5046.20
586.76	15044.38
586.96	34305.52
587.15	47414.57
587.34	56267.94
587.54	61394.01
587.73	55526.58
587.93	39314.86
588.12	29699.64
588.31	24159.89
588.51	21010.11
588.70	19222.23
588.89	17207.03
589.09	14870.30
589.28	12758.85
589.47	10084.20
589.67	7964.55
589.86	6070.18
590.06	4564.92
590.25	3813.32
590.44	3319.76
590.64	3022.80
590.83	2854.87
591.02	2840.53
591.22	2559.96
591.41	2586.58
591.60	2578.39
591.80	2858.96
591.99	2328.54
592.18	2453.47
592.38	2709.46
592.57	2498.52
592.76	2473.95
592.96	2580.44
593.15	2533.34
593.34	2654.17
593.54	2394.08
593.73	2527.19
593.92	2619.35
594.12	2588.63
594.31	2523.10
594.50	2670.55
594.70	2559.96
594.89	2887.64
595.08	2443.23
595.28	2596.82
595.47	2889.68
595.66	2684.89
595.86	2416.60
596.05	2465.75
596.24	2355.16
596.43	2701.27
596.63	2641.88
596.82	2572.25
597.01	2588.63
597.21	2764.76
597.40	2562.01
597.59	2523.10
597.79	2600.92
597.98	2588.63
598.17	2527.19
598.36	2588.63
598.56	2629.59
598.75	2392.03
598.94	2506.71
599.14	2557.91
599.33	2496.47
599.52	2625.50
599.71	2504.67
599.91	2625.50
600.10	2547.67
600.29	2529.24
600.48	2570.20
600.68	2480.09
600.87	2588.63
601.06	2475.99
601.26	2510.81
601.45	2570.20
601.64	2496.47
601.83	2721.75
602.03	2396.12
602.22	2369.50
602.41	2635.74
602.60	2871.25
602.80	2547.67
602.99	2568.15
603.18	2465.75
603.37	2527.19
603.57	2488.28
603.76	2547.67
603.95	2703.32
604.14	2453.47
604.34	2414.56
604.53	2480.09
604.72	2564.06
604.91	2609.11
605.10	2492.38
605.30	2330.59
605.49	2813.91
605.68	2586.58
605.87	2416.60
606.07	2365.40
606.26	2443.23
606.45	2570.20
606.64	2506.71
606.84	2443.23
607.03	2564.06
607.22	2602.97
607.41	2463.71
607.60	2510.81
607.80	2719.70
607.99	2428.89
608.18	2594.78
608.37	2422.75
608.56	2396.12
608.76	2670.55
608.95	2691.03
609.14	2564.06
609.33	2775.00
609.52	2777.05
609.72	2574.30
609.91	2572.25
610.10	2553.82
610.29	2631.64
610.48	2637.78
610.68	2514.91
610.87	2439.13
611.06	2615.26
611.25	2490.33
611.44	2615.26
611.63	2514.91
611.83	2697.17
612.02	2338.78
612.21	2523.10
612.40	2271.20
612.59	2369.50
612.79	2379.74
612.98	2480.09
613.17	2684.89
613.36	2523.10
613.55	2695.13
613.74	2574.30
613.93	2717.65
614.13	2770.90
614.32	2740.18
614.51	2652.12
614.70	2615.26
614.89	2592.73
615.08	2559.96
615.28	2916.31
615.47	2365.40
615.66	2531.29
615.85	2555.86
616.04	2705.37
616.23	2559.96
616.42	2523.10
616.62	2449.37
616.81	2492.38
617.00	2478.04
617.19	2609.11
617.38	2453.47
617.57	2486.23
617.76	2619.35
617.95	2611.16
618.15	2582.49
618.34	2682.84
618.53	2293.72
618.72	2572.25
618.91	2602.97
619.10	2605.02
619.29	2457.56
619.48	2543.58
619.68	2367.45
619.87	2369.50
620.06	2277.34
620.25	2539.48
620.44	2502.62
620.63	2490.33
620.82	2480.09
621.01	2506.71
621.20	2492.38
621.39	2519.00
621.59	2549.72
621.78	2475.99
621.97	2500.57
622.16	2535.39
622.35	2523.10
622.54	2609.11
622.73	2512.86
622.92	2310.11
623.11	2529.24
623.30	2521.05
623.49	2613.21
623.68	2375.64
623.88	2658.26
624.07	2445.27
624.26	2422.75
624.45	2406.36
624.64	2523.10
624.83	2473.95
625.02	2455.51
625.21	2535.39
625.40	2523.10
625.59	2658.26
625.78	2580.44
625.97	2637.78
626.16	2695.13
626.35	2576.34
626.54	2519.00
626.74	2682.84
626.93	2562.01
627.12	2506.71
627.31	2645.98
627.50	2537.43
627.69	2695.13
627.88	2379.74
628.07	2383.84
628.26	2324.44
628.45	2482.14
628.64	2346.97
628.83	2521.05
629.02	2420.70
629.21	2531.29
629.40	2457.56
629.59	2426.84
629.78	2451.42
629.97	2533.34
630.16	2506.71
630.35	2383.84
630.54	2496.47
630.73	2449.37
630.92	2531.29
631.11	2387.93
631.30	2490.33
631.49	2559.96
631.68	2521.05
631.87	2447.32
632.06	2336.73
632.25	2770.90
632.44	2469.85
632.63	2568.15
632.82	2553.82
633.01	2469.85
633.20	2682.84
633.39	2506.71
633.58	2435.03
633.77	2641.88
633.96	2605.02
634.15	2662.36
634.34	2486.23
634.53	2557.91
634.72	2447.32
634.91	2277.34
635.10	2385.88
635.29	2588.63
635.48	2478.04
635.67	2404.32
635.86	2322.40
636.05	2652.12
636.24	2504.67
636.43	2490.33
636.62	2465.75
636.81	2250.72
637.00	2473.95
637.19	2455.51
637.38	2496.47
637.57	2463.71
637.76	2605.02
637.95	2559.96
638.14	2557.91
638.33	2609.11
638.52	2586.58
638.71	2389.98
638.89	2334.68
639.08	2887.64
639.27	2715.61
639.46	2727.89
639.65	3055.57
639.84	3053.52
640.03	3358.67
640.22	3153.87
640.41	3092.43
640.60	2744.28
640.79	2850.77
640.98	2719.70
641.17	2779.09
641.36	2775.00
641.55	2668.50
641.74	2463.71
641.92	2437.08
642.11	2457.56
642.30	2566.10
642.49	2342.88
642.68	2424.80
642.87	2527.19
643.06	2574.30
643.25	2392.03
643.44	2394.08
643.63	2375.64
643.82	2557.91
644.00	2365.40
644.19	2441.18
644.38	2351.07
644.57	2531.29
644.76	2480.09
644.95	2471.90
645.14	2547.67
645.33	2480.09
645.52	2471.90
645.71	2351.07
645.89	2365.40
646.08	2510.81
646.27	2424.80
646.46	2668.50
646.65	2316.25
646.84	2478.04
647.03	2363.36
647.22	2564.06
647.40	2506.71
647.59	2523.10
647.78	2314.20
647.97	2408.41
648.16	2365.40
648.35	2570.20
648.54	2613.21
648.73	2381.79
648.91	2570.20
649.10	2553.82
649.29	2441.18
649.48	2389.98
649.67	2486.23
649.86	2486.23
650.05	2521.05
650.23	2744.28
650.42	2605.02
650.61	2869.20
650.80	2676.70
650.99	2752.47
651.18	2654.17
651.36	2686.94
651.55	2432.99
651.74	2539.48
651.93	2420.70
652.12	2502.62
652.31	2531.29
652.49	2490.33
652.68	2521.05
652.87	2723.80
653.06	2465.75
653.25	2678.74
653.44	2430.94
653.62	2748.37
653.81	2500.57
654.00	2519.00
654.19	2541.53
654.38	2801.62
654.56	2531.29
654.75	2359.26
654.94	2539.48
655.13	2500.57
655.32	2465.75
655.51	2564.06
655.69	2400.22
655.88	2611.16
656.07	2299.87
656.26	2488.28
656.45	2441.18
656.63	2512.86
656.82	2469.85
657.01	2549.72
657.20	2416.60
657.38	2643.93
657.57	2482.14
657.76	2291.68
657.95	2547.67
658.14	2502.62
658.32	2473.95
658.51	2414.56
658.70	2529.24
658.89	2545.63
659.08	2519.00
659.26	2699.22
659.45	2482.14
659.64	2588.63
659.83	2412.51
660.01	2863.06
660.20	2621.40
660.39	2686.94
660.58	2252.77
660.76	2592.73
660.95	2297.82
661.14	2535.39
661.33	2291.68
661.51	2457.56
661.70	2432.99
661.89	2596.82
662.08	2416.60
662.26	2365.40
662.45	2359.26
662.64	2711.51
662.83	2596.82
663.01	2285.53
663.20	2504.67
663.39	2686.94
663.58	2514.91
663.76	2379.74
663.95	2535.39
664.14	2346.97
664.32	2490.33
664.51	2412.51
664.70	2226.14
664.89	2557.91
665.07	2326.49
665.26	2531.29
665.45	2408.41
665.64	2588.63
665.82	2412.51
666.01	2547.67
666.20	2367.45
666.38	2590.68
666.57	2662.36
666.76	3848.13
666.95	9473.90
667.13	17561.33
667.32	22351.53
667.51	25685.62
667.69	27096.67
667.88	24350.35
668.07	17233.66
668.25	14231.33
668.44	12017.48
668.63	10110.82
668.81	8925.05
669.00	7954.31
669.19	7073.68
669.38	6176.67
669.56	5218.22
669.75	4452.28
669.94	3866.56
670.12	3223.50
670.31	2932.69
670.50	2795.48
670.68	2672.60
670.87	2635.74
671.06	2457.56
671.24	2578.39
671.43	2686.94
671.62	2529.24
671.80	2539.48
671.99	2580.44
672.18	2529.24
672.36	2617.30
672.55	2521.05
672.74	2508.76
672.92	2447.32
673.11	2572.25
673.29	2310.11
673.48	2553.82
673.67	2453.47
673.85	2615.26
674.04	2392.03
674.23	2490.33
674.41	2684.89
674.60	2338.78
674.79	2240.48
674.97	2330.59
675.16	2596.82
675.34	2566.10
675.53	2367.45
675.72	2525.15
675.90	2666.46
676.09	2488.28
676.28	2482.14
676.46	2297.82
676.65	2510.81
676.83	2461.66
677.02	2459.61
677.21	2473.95
677.39	2490.33
677.58	2353.12
677.77	2375.64
677.95	2377.69
678.14	2408.41
678.32	2441.18
678.51	2492.38
678.70	2711.51
678.88	2432.99
679.07	2457.56
679.25	2478.04
679.44	2457.56
679.63	2381.79
679.81	2490.33
680.00	2648.02
680.18	2559.96
680.37	2588.63
680.55	2605.02
680.74	2322.40
680.93	2310.11
681.11	2572.25
681.30	2451.42
681.48	2455.51
681.67	2412.51
681.85	2490.33
682.04	2422.75
682.23	2555.86
682.41	2465.75
682.60	2402.27
682.78	2490.33
682.97	2359.26
683.15	2486.23
683.34	2531.29
683.53	2699.22
683.71	2281.44
683.90	2572.25
684.08	2686.94
684.27	2463.71
684.45	2512.86
684.64	2643.93
684.82	2519.00
685.01	2484.19
685.19	2514.91
685.38	2650.07
685.57	2500.57
685.75	2365.40
685.94	2449.37
686.12	2353.12
686.31	2359.26
686.49	2662.36
686.68	2250.72
686.86	2486.23
687.05	2596.82
687.23	2643.93
687.42	2381.79
687.60	2346.97
687.79	2635.74
687.97	2703.32
688.16	2637.78
688.34	2498.52
688.53	2328.54
688.71	2480.09
688.90	2656.22
689.08	2443.23
689.27	2351.07
689.45	2582.49
689.64	2494.43
689.82	2465.75
690.01	2539.48
690.19	2592.73
690.38	2500.57
690.56	2645.98
690.75	2414.56
690.93	2484.19
691.12	2385.88
691.30	2445.27
691.49	2473.95
691.67	2482.14
691.86	2719.70
692.04	2451.42
692.23	2422.75
692.41	2514.91
692.60	2750.42
692.78	2617.30
692.97	2463.71
693.15	2605.02
693.34	2748.37
693.52	2553.82
693.71	2473.95
693.89	2469.85
694.08	2273.25
694.26	2537.43
694.44	2551.77
694.63	2588.63
694.81	2338.78
695.00	2490.33
695.18	2619.35
695.37	2787.29
695.55	2490.33
695.74	2387.93
695.92	2441.18
696.10	2686.94
696.29	2334.68
696.47	2379.74
696.66	2465.75
696.84	2381.79
697.03	2516.95
697.21	2705.37
697.40	3639.24
697.58	2592.73
697.76	2389.98
697.95	2389.98
698.13	2316.25
698.32	2406.36
698.50	2519.00
698.68	2488.28
698.87	2570.20
699.05	2631.64
699.24	2424.80
699.42	2320.35
699.61	2529.24
699.79	2486.23
699.97	2496.47
700.16	2344.92
700.34	2312.16
700.53	2537.43
700.71	2637.78
700.89	2637.78
701.08	2428.89
701.26	2473.95
701.45	3004.37
701.63	2406.36
701.81	2359.26
702.00	2412.51
702.18	2572.25
702.37	2459.61
702.55	2686.94
702.73	2662.36
702.92	2584.54
703.10	2834.39
703.28	2785.24
703.47	2566.10
703.65	2752.47
703.84	2631.64
704.02	2531.29
704.20	2666.46
704.39	2486.23
704.57	2406.36
704.75	2619.35
704.94	2625.50
705.12	2549.72
705.30	2881.49
705.49	5472.17
705.67	12578.62
705.86	20788.93
706.04	24096.40
706.22	27256.42
706.41	27682.39
706.59	22675.11
706.77	16404.23
706.96	13774.64
707.14	12046.15
707.32	10440.54
707.51	9205.62
707.69	7440.27
707.87	6053.80
708.06	4902.84
708.24	4067.27
708.42	3456.97
708.61	3299.28
708.79	2627.54
708.97	2676.70
709.16	2676.70
709.34	2611.16
709.52	2461.66
709.71	2340.83
709.89	2592.73
710.07	2400.22
710.26	2332.64
710.44	2422.75
710.62	2621.40
710.80	2572.25
710.99	2545.63
711.17	2506.71
711.35	2467.80
711.54	2430.94
711.72	2576.34
711.90	2592.73
712.09	2484.19
712.27	2428.89
712.45	2469.85
712.63	2400.22
712.82	2506.71
713.00	2514.91
713.18	2547.67
713.37	2545.63
713.55	2580.44
713.73	2473.95
713.91	2498.52
714.10	2414.56
714.28	2486.23
714.46	2523.10
714.65	2523.10
714.83	2506.71
715.01	2473.95
715.19	2572.25
715.38	2330.59
715.56	2510.81
715.74	2412.51
715.92	2465.75
716.11	2625.50
716.29	2244.57
716.47	2525.15
716.65	2465.75
716.84	2330.59
717.02	2545.63
717.20	2185.18
717.38	2320.35
717.57	2488.28
717.75	2469.85
717.93	2422.75
718.11	2537.43
718.30	2383.84
718.48	2410.46
718.66	2668.50
718.84	2623.45
719.03	2519.00
719.21	2342.88
719.39	2670.55
719.57	2637.78
719.75	2574.30
719.94	2410.46
720.12	2424.80
720.30	2498.52
720.48	2570.20
720.67	2432.99
720.85	2369.50
721.03	2375.64
721.21	2381.79
721.39	2553.82
721.58	2547.67
721.76	2555.86
721.94	2539.48
722.12	2529.24
722.30	2629.59
722.49	2435.03
722.67	2529.24
722.85	2486.23
723.03	2299.87
723.21	2465.75
723.40	2437.08
723.58	2613.21
723.76	2553.82
723.94	2662.36
724.12	2568.15
724.30	2678.74
724.49	2668.50
724.67	2418.65
724.85	2662.36
725.03	2389.98
725.21	2605.02
725.40	2584.54
725.58	2367.45
725.76	2633.69
725.94	2512.86
726.12	2428.89
726.30	2510.81
726.49	2459.61
726.67	2523.10
726.85	2516.95
727.03	2879.44
727.21	4300.73
727.39	5752.74
727.57	6670.23
727.76	7141.27
727.94	7561.10
728.12	6901.65
728.30	5476.27
728.48	4966.32
728.66	4497.34
728.84	4018.11
729.03	3526.60
729.21	3200.98
729.39	2953.17
729.57	2760.66
729.75	2621.40
729.93	2590.68
730.11	2500.57
730.30	2459.61
730.48	2529.24
730.66	2627.54
730.84	2559.96
731.02	2430.94
731.20	2420.70
731.38	2465.75
731.56	2330.59
731.74	2330.59
731.93	2473.95
732.11	2535.39
732.29	2357.21
732.47	2539.48
732.65	2424.80
732.83	2633.69
733.01	2512.86
733.19	2349.02
733.37	2521.05
733.56	2475.99
733.74	2432.99
733.92	2666.46
734.10	2392.03
734.28	2508.76
734.46	2293.72
734.64	2543.58
734.82	2527.19
735.00	2455.51
735.18	2392.03
735.36	2449.37
735.54	2471.90
735.73	2447.32
735.91	2394.08
736.09	2582.49
736.27	2453.47
736.45	2600.92
736.63	2256.86
736.81	2496.47
736.99	2627.54
737.17	2605.02
737.35	2400.22
737.53	2506.71
737.71	2420.70
737.89	2678.74
738.07	2396.12
738.25	2346.97
738.43	2256.86
738.61	2396.12
738.80	2363.36
738.98	2297.82
739.16	2482.14
739.34	2392.03
739.52	2711.51
739.70	2451.42
739.88	2516.95
740.06	2475.99
740.24	2246.62
740.42	2605.02
740.60	2215.90
740.78	2457.56
740.96	2263.01
741.14	2459.61
741.32	2531.29
741.50	2359.26
741.68	2674.65
741.86	2627.54
742.04	2426.84
742.22	2402.27
742.40	2498.52
742.58	2514.91
742.76	2432.99
742.94	2594.78
743.12	2293.72
743.30	2498.52
743.48	2490.33
743.66	2353.12
743.84	2469.85
744.02	2506.71
744.20	2482.14
744.38	2389.98
744.56	2389.98
744.74	2764.76
744.92	2576.34
745.10	2586.58
745.28	2475.99
745.46	2746.33
745.64	2430.94
745.82	2504.67
746.00	2383.84
746.18	2639.83
746.36	2414.56
746.54	2543.58
746.72	2478.04
746.90	2441.18
747.08	2619.35
747.26	2396.12
747.44	2510.81
747.62	2541.53
747.80	2480.09
747.98	2488.28
748.15	2467.80
748.33	2695.13
748.51	2486.23
748.69	2555.86
748.87	2330.59
749.05	2480.09
749.23	2475.99
749.41	2496.47
749.59	2449.37
749.77	2633.69
749.95	2461.66
750.13	2400.22
750.31	2482.14
750.49	2449.37
750.67	2529.24
750.85	2584.54
751.03	2494.43
751.20	2738.13
751.38	2555.86
751.56	2385.88
751.74	2455.51
751.92	2506.71
752.10	2414.56
752.28	2539.48
752.46	2379.74
752.64	2482.14
752.82	2535.39
753.00	2596.82
753.18	2525.15
753.35	2437.08
753.53	2449.37
753.71	2426.84
753.89	2467.80
754.07	2519.00
754.25	2633.69
754.43	2510.81
754.61	2369.50
754.79	2502.62
754.97	2396.12
755.14	2586.58
755.32	2332.64
755.50	2523.10
755.68	2486.23
755.86	2312.16
756.04	2461.66
756.22	2207.71
756.40	2586.58
756.57	2678.74
756.75	2400.22
756.93	2611.16
757.11	2654.17
757.29	2346.97
757.47	2322.40
757.65	2285.53
757.82	2301.92
758.00	2371.55
758.18	2342.88
758.36	2469.85
758.54	2715.61
758.72	2260.96
758.90	2539.48
759.07	2500.57
759.25	2365.40
759.43	2461.66
759.61	2283.49
759.79	3526.60
759.97	2621.40
760.15	2355.16
760.32	2385.88
760.50	2439.13
760.68	2654.17
760.86	2297.82
761.04	2602.97
761.22	2521.05
761.39	2478.04
761.57	2498.52
761.75	2488.28
761.93	2545.63
762.11	2396.12
762.28	2496.47
762.46	2351.07
762.64	2617.30
762.82	2367.45
763.00	2402.27
763.18	2568.15
763.35	2318.30
763.53	2568.15
763.71	2449.37
763.89	2453.47
764.07	2508.76
764.24	2537.43
764.42	2568.15
764.60	2428.89
764.78	2498.52
764.96	2605.02
765.13	2588.63
765.31	2379.74
765.49	2480.09
765.67	2398.17
765.84	2367.45
766.02	2383.84
766.20	2389.98
766.38	2525.15
766.56	2523.10
766.73	2607.06
766.91	2486.23
767.09	2557.91
767.27	2572.25
767.44	2269.15
767.62	2494.43
767.80	2547.67
767.98	2482.14
768.15	2430.94
768.33	2531.29
768.51	2506.71
768.69	2498.52
768.87	2473.95
769.04	2465.75
769.22	2861.01
769.40	2645.98
769.58	2643.93
769.75	2531.29
769.93	2627.54
770.11	2424.80
770.28	2334.68
770.46	2498.52
770.64	2473.95
770.82	2457.56
770.99	2473.95
771.17	2457.56
771.35	2422.75
771.53	2449.37
771.70	2490.33
771.88	2574.30
772.06	2449.37
772.23	2439.13
772.41	2504.67
772.59	2447.32
772.77	2392.03
772.94	2488.28
773.12	2506.71
773.30	2398.17
773.47	2523.10
773.65	2416.60
773.83	2562.01
774.01	2424.80
774.18	2271.20
774.36	2424.80
774.54	2396.12
774.71	2535.39
774.89	2252.77
775.07	2432.99
775.24	2437.08
775.42	2437.08
775.60	2686.94
775.78	2310.11
775.95	2316.25
776.13	2301.92
776.31	2238.43
776.48	2541.53
776.66	2654.17
776.84	2496.47
777.01	2392.03
777.19	2410.46
777.37	2363.36
777.54	2580.44
777.72	2738.13
777.90	2455.51
778.07	2422.75
778.25	2883.54
778.43	2605.02
778.60	2367.45
778.78	2574.30
778.96	2627.54
779.13	2387.93
779.31	2578.39
779.49	2465.75
779.66	2559.96
779.84	2553.82
780.01	2432.99
780.19	2361.31
780.37	2652.12
780.54	2570.20
780.72	2379.74
780.90	2435.03
781.07	2473.95
781.25	2379.74
781.43	2502.62
781.60	2482.14
781.78	2619.35
781.95	2435.03
782.13	2381.79
782.31	2475.99
782.48	2199.52
782.66	2439.13
782.83	2711.51
783.01	2496.47
783.19	2545.63
783.36	2502.62
783.54	2379.74
783.72	2498.52
783.89	2416.60
784.07	2531.29
784.24	2490.33
784.42	2652.12
784.60	2469.85
784.77	2521.05
784.95	2267.10
785.12	2357.21
785.30	2502.62
785.47	2445.27
785.65	2342.88
785.83	2389.98
786.00	2420.70
786.18	2498.52
786.35	2326.49
786.53	2453.47
786.71	2598.87
786.88	2537.43
787.06	2420.70
787.23	2432.99
787.41	2314.20
787.58	2441.18
787.76	2398.17
787.94	2437.08
788.11	2459.61
788.29	2326.49
788.46	2430.94
788.64	2258.91
788.81	2424.80
788.99	2359.26
789.16	2379.74
789.34	2488.28
789.52	2373.60
789.69	2387.93
789.87	2228.19
790.04	2424.80
790.22	2475.99
790.39	2768.85
790.57	2334.68
790.74	2383.84
790.92	2588.63
791.09	2285.53
791.27	2447.32
791.44	2596.82
791.62	2506.71
791.79	2596.82
791.97	2523.10
792.15	2785.24
792.32	2568.15
792.50	2488.28
792.67	2625.50
792.85	2635.74
793.02	2457.56
793.20	2449.37
793.37	2334.68
793.55	2465.75
793.72	2267.10
793.90	2529.24
794.07	2310.11
794.25	2367.45
794.42	2482.14
794.60	2418.65
794.77	2498.52
794.95	2543.58
795.12	2555.86
795.30	2389.98
795.47	2248.67
795.65	2678.74
795.82	2430.94
796.00	2367.45
796.17	2437.08
796.34	2365.40
796.52	2535.39
796.69	2516.95
796.87	2459.61
797.04	2535.39
797.22	2578.39
797.39	2461.66
797.57	2543.58
797.74	2504.67
797.92	2480.09
798.09	2361.31
798.27	2594.78
798.44	2351.07
798.62	2408.41
798.79	2549.72
798.96	2486.23
799.14	2555.86
799.31	2834.39
799.49	2439.13
799.66	2432.99
799.84	2553.82
800.01	2299.87
800.19	2475.99
800.36	2285.53
800.53	2531.29
800.71	2533.34
800.88	2707.41
801.06	2371.55
801.23	2379.74
801.41	2424.80
801.58	2396.12
801.75	2416.60
801.93	2373.60
802.10	2570.20
802.28	2338.78
802.45	2406.36
802.63	2506.71
802.80	2701.27
802.97	2441.18
803.15	2430.94
803.32	2406.36
803.50	2394.08
803.67	2432.99
803.84	2318.30
804.02	2418.65
804.19	2498.52
804.37	2283.49
804.54	2367.45
804.71	2408.41
804.89	2432.99
805.06	2342.88
805.24	2291.68
805.41	2371.55
805.58	2412.51
805.76	2738.13
805.93	2584.54
806.10	2559.96
806.28	2508.76
806.45	2457.56
806.63	2555.86
806.80	2504.67
806.97	2496.47
807.15	2465.75
807.32	2480.09
807.49	2482.14
807.67	2349.02
807.84	2471.90
808.01	2336.73
808.19	2703.32
808.36	2811.86
808.54	2486.23
808.71	2373.60
808.88	2398.17
809.06	2633.69
809.23	2707.41
809.40	2334.68
809.58	2496.47
809.75	2387.93
809.92	2316.25
810.10	2654.17
810.27	2461.66
810.44	2506.71
810.62	2570.20
810.79	2502.62
810.96	2428.89
811.14	2340.83
811.31	2531.29
811.48	2527.19
811.66	2447.32
811.83	2639.83
812.00	2455.51
812.18	2562.01
812.35	2695.13
812.52	2396.12
812.69	2439.13
812.87	2392.03
813.04	2441.18
813.21	2416.60
813.39	2408.41
813.56	2342.88
813.73	2572.25
813.91	2271.20
814.08	2516.95
814.25	2482.14
814.42	2306.01
814.60	2457.56
814.77	2396.12
814.94	2408.41
815.12	2465.75
815.29	2611.16
815.46	2357.21
815.63	2441.18
815.81	2424.80
815.98	2445.27
816.15	2463.71
816.33	2383.84
816.50	2394.08
816.67	2471.90
816.84	2432.99
817.02	2353.12
817.19	2453.47
817.36	2506.71
817.53	2521.05
817.71	2312.16
817.88	2531.29
818.05	2480.09
818.22	2451.42
818.40	2668.50
818.57	2357.21
818.74	2439.13
818.91	2443.23
819.09	2506.71
819.26	2562.01
819.43	2375.64
819.60	2351.07
819.78	2508.76
819.95	2596.82
820.12	2389.98
820.29	2654.17
820.47	2574.30
820.64	2402.27
820.81	2375.64
820.98	2346.97
821.15	2439.13
821.33	2502.62
821.50	2318.30
821.67	2539.48
821.84	2332.64
822.02	2467.80
822.19	2568.15
822.36	2383.84
822.53	2402.27
822.70	2265.05
822.88	2437.08
823.05	2621.40
823.22	2504.67
823.39	2482.14
823.56	2437.08
823.74	2736.09
823.91	2383.84
824.08	2224.09
824.25	2453.47
824.42	2641.88
824.60	2293.72
824.77	2510.81
824.94	2414.56
825.11	2572.25
825.28	2289.63
825.45	2514.91
825.63	2463.71
825.80	2359.26
825.97	2531.29
826.14	2529.24
826.31	2306.01
826.48	2480.09
826.66	2375.64
826.83	2392.03
827.00	2379.74
827.17	2336.73
827.34	2473.95
827.51	2365.40
827.69	2426.84
827.86	2351.07
828.03	2385.88
828.20	2449.37
828.37	2328.54
828.54	2484.19
828.71	2375.64
828.89	2588.63
829.06	2500.57
829.23	2783.19
829.40	2353.12
829.57	2383.84
829.74	2541.53
829.91	2471.90
830.09	2310.11
830.26	2570.20
830.43	2672.60
830.60	2439.13
830.77	2576.34
830.94	2676.70
831.11	2566.10
831.28	2416.60
831.46	2531.29
831.63	2334.68
831.80	2551.77
831.97	2400.22
832.14	2414.56
832.31	2475.99
832.48	2529.24
832.65	2631.64
832.82	2480.09
832.99	2457.56
833.17	2310.11
833.34	2678.74
833.51	2435.03
833.68	2301.92
833.85	2543.58
834.02	2338.78
834.19	2357.21
834.36	2346.97
834.53	2508.76
834.70	2510.81
834.87	2519.00
835.04	2318.30
835.22	2336.73
835.39	2408.41
835.56	2334.68
835.73	2330.59
835.90	2564.06
836.07	2383.84
836.24	2498.52
836.41	2367.45
836.58	2389.98
836.75	2590.68
836.92	2498.52
837.09	2334.68
837.26	2627.54
837.43	2559.96
837.60	2473.95
837.77	2359.26
837.94	2570.20
838.12	2678.74
838.29	2375.64
838.46	2174.94
838.63	2287.58
838.80	2695.13
838.97	2482.14
839.14	2314.20
839.31	2439.13
839.48	2545.63
839.65	2310.11
839.82	2453.47
839.99	2389.98
840.16	2424.80
840.33	2365.40
840.50	2408.41
840.67	2334.68
840.84	2299.87
841.01	2342.88
841.18	2320.35
841.35	2363.36
841.52	2523.10
841.69	2613.21
841.86	2412.51
842.03	2512.86
842.20	2584.54
842.37	2385.88
842.54	2420.70
842.71	2432.99
842.88	2338.78
843.05	2385.88
843.22	2334.68
843.39	2555.86
843.56	2471.90
843.73	2336.73
843.90	2355.16
844.07	2394.08
844.24	2498.52
844.41	2498.52
844.58	2418.65
844.75	2490.33
844.92	2471.90
845.09	2375.64
845.26	2355.16
845.43	2613.21
845.60	2447.32
845.77	2488.28
845.94	2396.12
846.10	2576.34
846.27	2242.53
846.44	2236.38
846.61	2359.26
846.78	2570.20
846.95	2588.63
847.12	2342.88
847.29	2359.26
847.46	2408.41
847.63	2658.26
847.80	2334.68
847.97	2394.08
848.14	2682.84
848.31	2514.91
848.48	2363.36
848.65	2523.10
848.82	2324.44
848.98	2684.89
849.15	2484.19
849.32	2559.96
849.49	2629.59
849.66	2437.08
849.83	2389.98
850.00	2260.96
850.17	2596.82
850.34	2432.99
850.51	2306.01
850.68	2385.88
850.85	2678.74
851.01	2482.14
851.18	2385.88
851.35	2377.69
851.52	2572.25
851.69	2621.40
851.86	2244.57
852.03	2306.01
852.20	2480.09
852.37	2455.51
852.53	2254.81
852.70	2363.36
852.87	2455.51
853.04	2580.44
853.21	2414.56
853.38	2529.24
853.55	2621.40
853.72	2662.36
853.89	2297.82
854.05	2318.30
854.22	2422.75
854.39	2445.27
854.56	2430.94
854.73	2568.15
854.90	2469.85
855.07	2490.33
855.23	2277.34
855.40	2334.68
855.57	2486.23
855.74	2236.38
855.91	2586.58
856.08	2295.77
856.25	2342.88
856.41	2406.36
856.58	2412.51
856.75	2406.36
856.92	2371.55
857.09	2637.78
857.26	2275.29
857.42	2400.22
857.59	2523.10
857.76	2414.56
857.93	2387.93
858.10	2430.94
858.27	2322.40
858.43	2459.61
858.60	2342.88
858.77	2199.52
858.94	2365.40
859.11	2574.30
859.27	2344.92
859.44	2336.73
859.61	2682.84
859.78	2570.20
859.95	2420.70
860.12	2377.69
860.28	2670.55
860.45	2801.62
860.62	2381.79
860.79	2414.56
860.95	2416.60
861.12	2334.68
861.29	2297.82
861.46	2408.41
861.63	2506.71
861.79	2404.32
861.96	2289.63
862.13	2367.45
862.30	2727.89
862.47	2355.16
862.63	2334.68
862.80	2435.03
862.97	2562.01
863.14	2572.25
863.30	2414.56
863.47	2349.02
863.64	2566.10
863.81	2553.82
863.97	2346.97
864.14	2494.43
864.31	2357.21
864.48	2478.04
864.65	2375.64
864.81	2502.62
864.98	2566.10
865.15	2523.10
865.32	2496.47
865.48	2535.39
865.65	2680.79
865.82	2412.51
865.98	2519.00
866.15	2418.65
866.32	2465.75
866.49	2412.51
866.65	2619.35
866.82	2355.16
866.99	2461.66
867.16	2404.32
867.32	2385.88
867.49	2332.64
867.66	2482.14
867.83	2449.37
867.99	2344.92
868.16	2449.37
868.33	2236.38
868.49	2482.14
868.66	2355.16
868.83	2389.98
868.99	2449.37
869.16	2482.14
869.33	2547.67
869.50	2508.76
869.66	2441.18
869.83	2435.03
870.00	2318.30
870.16	2455.51
870.33	2422.75
870.50	2627.54
870.66	2389.98
870.83	2416.60
871.00	2482.14
871.17	2490.33
871.33	2480.09
871.50	2400.22
871.67	2467.80
871.83	2351.07
872.00	2488.28
872.17	2492.38
872.33	2703.32
872.50	2525.15
872.67	2455.51
872.83	2373.60
873.00	2506.71
873.17	2467.80
873.33	2455.51
873.50	2400.22
873.67	2457.56
873.83	2416.60
874.00	2375.64
874.16	2453.47
874.33	2504.67
874.50	2385.88
874.66	2394.08
874.83	2351.07
875.00	2580.44
875.16	2664.41
875.33	2449.37
875.50	2138.08
875.66	2422.75
875.83	2480.09
875.99	2430.94
876.16	2392.03
876.33	2357.21
876.49	2469.85
876.66	2457.56
876.83	2416.60
876.99	2365.40
877.16	2457.56
877.32	2367.45
877.49	2383.84
877.66	2502.62
877.82	2584.54
877.99	2488.28
878.15	2439.13
878.32	2488.28
878.49	2455.51
878.65	2457.56
878.82	2523.10
878.98	2396.12
879.15	2619.35
879.32	2473.95
879.48	2430.94
879.65	2506.71
879.81	2404.32
879.98	2377.69
880.15	2293.72
880.31	2576.34
880.48	2389.98
880.64	2490.33
880.81	2500.57
880.97	2670.55
881.14	2602.97
881.31	2306.01
881.47	2537.43
881.64	2506.71
881.80	2320.35
881.97	2506.71
882.13	2432.99
882.30	2326.49
882.47	2404.32
882.63	2316.25
882.80	2424.80
882.96	2404.32
883.13	2602.97
883.29	2365.40
883.46	2412.51
883.62	2793.43
883.79	2502.62
883.95	2490.33
884.12	2308.06
884.29	2605.02
884.45	2508.76
884.62	2414.56
884.78	2287.58
884.95	2629.59
885.11	2301.92
885.28	2441.18
885.44	2453.47
885.61	2562.01
885.77	2484.19
885.94	2502.62
886.10	2414.56
886.27	2471.90
886.43	2682.84
886.60	2568.15
886.76	2342.88
886.93	2359.26
887.09	2553.82
887.26	2254.81
887.42	2439.13
887.59	2654.17
887.75	2754.52
887.92	2533.34
888.08	2498.52
888.25	2670.55
888.41	2574.30
888.58	2396.12
888.74	2346.97
888.91	2408.41
>>>>>End Processed Spectral Data<<<<<
