SpectraSuite Data File
++++++++++++++++++++++++++++++++++++
Date: Thu May 05 14:41:40 CEST 2016
User: root
Dark Spectrum Present: No
Reference Spectrum Present: No
Number of Sampled Component Spectra: 1
Spectrometers: USB4C02835
Integration Time (usec): 100000 (USB4C02835)
Spectra Averaged: 1 (USB4C02835)
Boxcar Smoothing: 0 (USB4C02835)
Correct for Electrical Dark: No (USB4C02835)
Strobe/Lamp Enabled: No (USB4C02835)
Correct for Detector Non-linearity: No (USB4C02835)
Correct for Stray Light: No (USB4C02835)
Number of Pixels in Processed Spectrum: 3648
>>>>>Begin Processed Spectral Data<<<<<
177.47	1908.71
177.69	1908.71
177.91	1908.71
178.13	1947.62
178.36	1916.90
178.58	2404.32
178.80	2500.57
179.02	2398.17
179.24	2289.63
179.46	2303.96
179.68	2379.74
179.90	2471.90
180.13	2486.23
180.35	2240.48
180.57	2314.20
180.79	2621.40
181.01	2422.75
181.23	2371.55
181.45	2414.56
181.67	2504.67
181.90	2627.54
182.12	2314.20
182.34	2310.11
182.56	2490.33
182.78	2525.15
183.00	2318.30
183.22	2308.06
183.44	2220.00
183.66	2852.82
183.89	2500.57
184.11	2344.92
184.33	2555.86
184.55	2617.30
184.77	2463.71
184.99	2353.12
185.21	2377.69
185.43	2768.85
185.65	2322.40
185.87	2303.96
186.10	2760.66
186.32	2697.17
186.54	2406.36
186.76	2432.99
186.98	2564.06
187.20	2490.33
187.42	2340.83
187.64	2355.16
187.86	2510.81
188.08	2666.46
188.30	2277.34
188.52	2379.74
188.75	2576.34
188.97	2598.87
189.19	2252.77
189.41	2369.50
189.63	2519.00
189.85	2441.18
190.07	2209.76
190.29	2191.33
190.51	2547.67
190.73	2289.63
190.95	2555.86
191.17	2398.17
191.39	2312.16
191.61	2471.90
191.84	2340.83
192.06	2428.89
192.28	2285.53
192.50	2881.49
192.72	2412.51
192.94	2353.12
193.16	2586.58
193.38	2519.00
193.60	2269.15
193.82	2318.30
194.04	2580.44
194.26	2486.23
194.48	2412.51
194.70	2308.06
194.92	2469.85
195.14	2568.15
195.36	2324.44
195.58	2445.27
195.80	2463.71
196.02	2392.03
196.24	2338.78
196.46	2392.03
196.69	2310.11
196.91	2793.43
197.13	2330.59
197.35	2365.40
197.57	2699.22
197.79	2592.73
198.01	2465.75
198.23	2424.80
198.45	2525.15
198.67	2281.44
198.89	2357.21
199.11	2363.36
199.33	2349.02
199.55	2211.81
199.77	2269.15
199.99	2486.23
200.21	2445.27
200.43	2461.66
200.65	2236.38
200.87	2256.86
201.09	2457.56
201.31	2457.56
201.53	2398.17
201.75	2430.94
201.97	2521.05
202.19	2404.32
202.41	2385.88
202.63	2543.58
202.85	2486.23
203.07	2469.85
203.29	2422.75
203.51	2236.38
203.73	2449.37
203.95	2850.77
204.17	2367.45
204.39	2516.95
204.61	2494.43
204.83	2471.90
205.05	2473.95
205.27	2385.88
205.49	2838.48
205.71	2451.42
205.93	2267.10
206.15	2394.08
206.37	2480.09
206.59	2486.23
206.81	2258.91
207.03	2244.57
207.25	2359.26
207.47	2600.92
207.69	2371.55
207.91	2482.14
208.13	2695.13
208.34	2402.27
208.56	2183.13
208.78	2299.87
209.00	2422.75
209.22	2437.08
209.44	2357.21
209.66	2414.56
209.88	2535.39
210.10	2480.09
210.32	2306.01
210.54	2494.43
210.76	2490.33
210.98	2621.40
211.20	2234.33
211.42	2406.36
211.64	2744.28
211.86	2559.96
212.08	2369.50
212.30	2361.31
212.52	2451.42
212.74	2547.67
212.96	2414.56
213.17	2342.88
213.39	2574.30
213.61	2709.46
213.83	2269.15
214.05	2359.26
214.27	2627.54
214.49	2351.07
214.71	2267.10
214.93	2457.56
215.15	2562.01
215.37	2605.02
215.59	2271.20
215.81	2398.17
216.03	2619.35
216.24	2455.51
216.46	2381.79
216.68	2441.18
216.90	2553.82
217.12	2605.02
217.34	2291.68
217.56	2469.85
217.78	2617.30
218.00	2609.11
218.22	2389.98
218.44	2383.84
218.66	2449.37
218.87	2680.79
219.09	2355.16
219.31	2389.98
219.53	2529.24
219.75	2424.80
219.97	2416.60
220.19	2369.50
220.41	2463.71
220.63	2637.78
220.85	2342.88
221.06	2342.88
221.28	2625.50
221.50	2629.59
221.72	2412.51
221.94	2402.27
222.16	2543.58
222.38	2678.74
222.60	2365.40
222.82	2301.92
223.03	2496.47
223.25	2336.73
223.47	2346.97
223.69	2566.10
223.91	2547.67
224.13	2537.43
224.35	2265.05
224.57	2498.52
224.78	2570.20
225.00	2398.17
225.22	2406.36
225.44	2349.02
225.66	2619.35
225.88	2381.79
226.10	2340.83
226.32	2406.36
226.53	2588.63
226.75	2469.85
226.97	2418.65
227.19	2338.78
227.41	2308.06
227.63	2404.32
227.85	2228.19
228.06	2326.49
228.28	2574.30
228.50	2543.58
228.72	2267.10
228.94	2316.25
229.16	2318.30
229.37	2355.16
229.59	2275.29
229.81	2533.34
230.03	2455.51
230.25	2314.20
230.47	2277.34
230.69	2316.25
230.90	2584.54
231.12	2351.07
231.34	2367.45
231.56	2453.47
231.78	2357.21
232.00	2473.95
232.21	2359.26
232.43	2385.88
232.65	2215.90
232.87	2559.96
233.09	2224.09
233.30	2310.11
233.52	2576.34
233.74	2492.38
233.96	2301.92
234.18	2416.60
234.40	2465.75
234.61	2678.74
234.83	2340.83
235.05	2299.87
235.27	2793.43
235.49	2621.40
235.70	2289.63
235.92	2506.71
236.14	2578.39
236.36	2772.95
236.58	2281.44
236.79	2351.07
237.01	2439.13
237.23	2473.95
237.45	2602.97
237.67	2312.16
237.88	2615.26
238.10	2752.47
238.32	2220.00
238.54	2349.02
238.76	2437.08
238.97	2455.51
239.19	2299.87
239.41	2424.80
239.63	2531.29
239.85	2355.16
240.06	2291.68
240.28	2301.92
240.50	2537.43
240.72	2473.95
240.93	2277.34
241.15	2455.51
241.37	2531.29
241.59	2605.02
241.81	2291.68
242.02	2400.22
242.24	2496.47
242.46	2580.44
242.68	2293.72
242.89	2306.01
243.11	2594.78
243.33	2418.65
243.55	2375.64
243.76	2322.40
243.98	2392.03
244.20	2539.48
244.42	2299.87
244.64	2402.27
244.85	2289.63
245.07	2334.68
245.29	2457.56
245.51	2361.31
245.72	2496.47
245.94	2613.21
246.16	2365.40
246.38	2412.51
246.59	2303.96
246.81	2402.27
247.03	2318.30
247.24	2242.53
247.46	2490.33
247.68	2510.81
247.90	2277.34
248.11	2355.16
248.33	2557.91
248.55	2422.75
248.77	2359.26
248.98	2467.80
249.20	2674.65
249.42	2549.72
249.64	2318.30
249.85	2342.88
250.07	2443.23
250.29	2627.54
250.50	2385.88
250.72	2240.48
250.94	2498.52
251.16	2760.66
251.37	2357.21
251.59	2441.18
251.81	2547.67
252.02	2602.97
252.24	2340.83
252.46	2461.66
252.68	2351.07
252.89	2394.08
253.11	2236.38
253.33	2480.09
253.54	2639.83
253.76	2240.48
253.98	2373.60
254.20	2322.40
254.41	2281.44
254.63	2465.75
254.85	2265.05
255.06	2375.64
255.28	2519.00
255.50	2394.08
255.71	2228.19
255.93	2275.29
256.15	2469.85
256.36	2586.58
256.58	2277.34
256.80	2404.32
257.02	2465.75
257.23	2402.27
257.45	2375.64
257.67	2398.17
257.88	2383.84
258.10	2557.91
258.32	2385.88
258.53	2441.18
258.75	2611.16
258.97	2379.74
259.18	2320.35
259.40	2355.16
259.62	2760.66
259.83	2688.98
260.05	2398.17
260.27	2928.60
260.48	2566.10
260.70	2396.12
260.92	2267.10
261.13	2351.07
261.35	2482.14
261.57	2537.43
261.78	2273.25
262.00	2330.59
262.22	2516.95
262.43	2371.55
262.65	2334.68
262.86	2326.49
263.08	2844.63
263.30	2445.27
263.51	2236.38
263.73	2351.07
263.95	2693.08
264.16	2406.36
264.38	2269.15
264.60	2265.05
264.81	2514.91
265.03	2652.12
265.25	2596.82
265.46	2338.78
265.68	2619.35
265.89	2471.90
266.11	2263.01
266.33	2443.23
266.54	2564.06
266.76	2602.97
266.98	2414.56
267.19	2473.95
267.41	2711.51
267.62	2541.53
267.84	2211.81
268.06	2475.99
268.27	2519.00
268.49	2555.86
268.70	2422.75
268.92	2432.99
269.14	2289.63
269.35	2328.54
269.57	2344.92
269.79	2424.80
270.00	2375.64
270.22	2615.26
270.43	2301.92
270.65	2181.09
270.87	2535.39
271.08	2621.40
271.30	2449.37
271.51	2306.01
271.73	2559.96
271.95	2559.96
272.16	2375.64
272.38	2432.99
272.59	2441.18
272.81	2471.90
273.02	2334.68
273.24	2375.64
273.46	2613.21
273.67	2342.88
273.89	2281.44
274.10	2291.68
274.32	2645.98
274.54	2531.29
274.75	2428.89
274.97	2338.78
275.18	2684.89
275.40	2574.30
275.61	2357.21
275.83	2523.10
276.05	2349.02
276.26	2498.52
276.48	2371.55
276.69	2437.08
276.91	2398.17
277.12	2629.59
277.34	2506.71
277.55	2553.82
277.77	2521.05
277.99	2406.36
278.20	2375.64
278.42	2314.20
278.63	2297.82
278.85	2398.17
279.06	2363.36
279.28	2463.71
279.49	2648.02
279.71	2582.49
279.93	2398.17
280.14	2383.84
280.36	2408.41
280.57	2551.77
280.79	2504.67
281.00	2338.78
281.22	2383.84
281.43	2637.78
281.65	2308.06
281.86	2406.36
282.08	2590.68
282.29	2688.98
282.51	2326.49
282.73	2330.59
282.94	2320.35
283.16	2545.63
283.37	2512.86
283.59	2387.93
283.80	2559.96
284.02	2371.55
284.23	2473.95
284.45	2410.46
284.66	2416.60
284.88	2389.98
285.09	2432.99
285.31	2594.78
285.52	2521.05
285.74	2277.34
285.95	2500.57
286.17	2514.91
286.38	2574.30
286.60	2314.20
286.81	2432.99
287.03	2359.26
287.24	2428.89
287.46	2537.43
287.67	2432.99
287.89	2660.31
288.10	2523.10
288.32	2541.53
288.53	2658.26
288.75	2379.74
288.96	2519.00
289.18	2473.95
289.39	2367.45
289.61	2519.00
289.82	2764.76
290.04	2652.12
290.25	2291.68
290.47	2406.36
290.68	2473.95
290.90	2629.59
291.11	2254.81
291.33	2590.68
291.54	2334.68
291.76	2461.66
291.97	2510.81
292.18	2478.04
292.40	2408.41
292.61	2402.27
292.83	2699.22
293.04	2504.67
293.26	2533.34
293.47	2416.60
293.69	2375.64
293.90	2373.60
294.12	2590.68
294.33	2392.03
294.55	2424.80
294.76	2535.39
294.97	2615.26
295.19	2744.28
295.40	2416.60
295.62	2449.37
295.83	2654.17
296.05	2475.99
296.26	2541.53
296.48	2367.45
296.69	2465.75
296.90	2451.42
297.12	2539.48
297.33	2523.10
297.55	2516.95
297.76	2594.78
297.98	2473.95
298.19	2600.92
298.41	2486.23
298.62	2412.51
298.83	2633.69
299.05	2410.46
299.26	2394.08
299.48	2310.11
299.69	2500.57
299.90	2422.75
300.12	2373.60
300.33	2592.73
300.55	2486.23
300.76	2482.14
300.98	2389.98
301.19	2586.58
301.40	2367.45
301.62	2351.07
301.83	2557.91
302.05	2478.04
302.26	2324.44
302.47	2492.38
302.69	2453.47
302.90	2467.80
303.12	2207.71
303.33	2467.80
303.54	2789.33
303.76	2486.23
303.97	2471.90
304.19	2578.39
304.40	2336.73
304.61	2588.63
304.83	2480.09
305.04	2531.29
305.26	2527.19
305.47	2478.04
305.68	2453.47
305.90	2377.69
306.11	2551.77
306.33	2443.23
306.54	2396.12
306.75	2392.03
306.97	2322.40
307.18	2379.74
307.39	2387.93
307.61	2447.32
307.82	2453.47
308.04	2580.44
308.25	2314.20
308.46	2543.58
308.68	2349.02
308.89	2537.43
309.10	2557.91
309.32	2523.10
309.53	2508.76
309.74	2625.50
309.96	2365.40
310.17	2502.62
310.39	2400.22
310.60	2467.80
310.81	2482.14
311.03	2322.40
311.24	2580.44
311.45	2435.03
311.67	2576.34
311.88	2566.10
312.09	2441.18
312.31	2414.56
312.52	2422.75
312.73	2371.55
312.95	2277.34
313.16	2375.64
313.37	2586.58
313.59	2473.95
313.80	2596.82
314.01	2723.80
314.23	2394.08
314.44	2361.31
314.65	2258.91
314.87	2439.13
315.08	2355.16
315.29	2410.46
315.51	2320.35
315.72	2301.92
315.93	2537.43
316.15	2437.08
316.36	2400.22
316.57	2453.47
316.79	2496.47
317.00	2342.88
317.21	2457.56
317.43	2437.08
317.64	2469.85
317.85	2353.12
318.07	2439.13
318.28	2408.41
318.49	2582.49
318.70	2633.69
318.92	2691.03
319.13	2697.17
319.34	2605.02
319.56	2478.04
319.77	2568.15
319.98	2594.78
320.20	2586.58
320.41	2562.01
320.62	2543.58
320.83	2301.92
321.05	2629.59
321.26	2420.70
321.47	2467.80
321.69	2625.50
321.90	2338.78
322.11	2408.41
322.32	2506.71
322.54	2707.41
322.75	2441.18
322.96	2867.16
323.18	2297.82
323.39	2263.01
323.60	2349.02
323.81	2521.05
324.03	2461.66
324.24	2527.19
324.45	2461.66
324.66	2375.64
324.88	2605.02
325.09	2719.70
325.30	2490.33
325.52	2400.22
325.73	2553.82
325.94	2369.50
326.15	2287.58
326.37	2402.27
326.58	2568.15
326.79	2731.99
327.00	2375.64
327.22	2398.17
327.43	2473.95
327.64	2310.11
327.85	2490.33
328.07	2359.26
328.28	2701.27
328.49	2451.42
328.70	2424.80
328.92	2416.60
329.13	2471.90
329.34	2523.10
329.55	2617.30
329.76	2551.77
329.98	2447.32
330.19	2537.43
330.40	2492.38
330.61	2490.33
330.83	2572.25
331.04	2420.70
331.25	2379.74
331.46	2387.93
331.68	2342.88
331.89	2629.59
332.10	2457.56
332.31	2363.36
332.52	2486.23
332.74	2615.26
332.95	2273.25
333.16	2457.56
333.37	2543.58
333.58	2471.90
333.80	2365.40
334.01	2301.92
334.22	2469.85
334.43	2412.51
334.64	2383.84
334.86	2310.11
335.07	2383.84
335.28	2664.41
335.49	2176.99
335.70	2473.95
335.92	2643.93
336.13	2744.28
336.34	2525.15
336.55	2457.56
336.76	2437.08
336.98	2283.49
337.19	2408.41
337.40	2623.45
337.61	2766.81
337.82	2371.55
338.04	2514.91
338.25	2324.44
338.46	2418.65
338.67	2449.37
338.88	2359.26
339.09	2285.53
339.31	2435.03
339.52	2381.79
339.73	2293.72
339.94	2432.99
340.15	2582.49
340.36	2414.56
340.58	2420.70
340.79	2355.16
341.00	2564.06
341.21	2332.64
341.42	2586.58
341.63	2379.74
341.85	2541.53
342.06	2496.47
342.27	2340.83
342.48	2533.34
342.69	2277.34
342.90	2580.44
343.12	2619.35
343.33	2392.03
343.54	2621.40
343.75	2613.21
343.96	2400.22
344.17	2408.41
344.38	2494.43
344.60	2418.65
344.81	2291.68
345.02	2416.60
345.23	2652.12
345.44	2781.14
345.65	2490.33
345.86	2475.99
346.07	2469.85
346.29	2398.17
346.50	2514.91
346.71	2541.53
346.92	2562.01
347.13	2768.85
347.34	2367.45
347.55	2349.02
347.76	2537.43
347.98	2289.63
348.19	2344.92
348.40	2611.16
348.61	2473.95
348.82	2723.80
349.03	2480.09
349.24	2367.45
349.45	2736.09
349.66	2265.05
349.88	2435.03
350.09	2381.79
350.30	2588.63
350.51	2635.74
350.72	2490.33
350.93	2430.94
351.14	2461.66
351.35	2596.82
351.56	2488.28
351.77	2441.18
351.99	2574.30
352.20	2697.17
352.41	2498.52
352.62	2215.90
352.83	2490.33
353.04	2514.91
353.25	2396.12
353.46	2488.28
353.67	2572.25
353.88	2277.34
354.09	2367.45
354.30	2432.99
354.52	2578.39
354.73	2498.52
354.94	2379.74
355.15	2514.91
355.36	2709.46
355.57	2389.98
355.78	2387.93
355.99	2346.97
356.20	2457.56
356.41	2574.30
356.62	2553.82
356.83	2461.66
357.04	2600.92
357.25	2301.92
357.46	2408.41
357.68	2285.53
357.89	2396.12
358.10	2461.66
358.31	2392.03
358.52	2510.81
358.73	2351.07
358.94	2398.17
359.15	2412.51
359.36	2439.13
359.57	2582.49
359.78	2529.24
359.99	2453.47
360.20	2336.73
360.41	2428.89
360.62	2537.43
360.83	2451.42
361.04	2480.09
361.25	2535.39
361.46	2709.46
361.67	2490.33
361.88	2490.33
362.09	2621.40
362.30	2519.00
362.51	2439.13
362.72	2480.09
362.93	2605.02
363.14	2531.29
363.35	2461.66
363.56	2338.78
363.78	2574.30
363.99	2613.21
364.20	2416.60
364.41	2514.91
364.62	2609.11
364.83	2519.00
365.04	2410.46
365.25	2500.57
365.46	2725.85
365.67	2392.03
365.88	2443.23
366.09	2410.46
366.30	2406.36
366.51	2437.08
366.72	2355.16
366.93	2463.71
367.14	2478.04
367.35	2703.32
367.56	2375.64
367.77	2504.67
367.98	2424.80
368.18	2609.11
368.39	2514.91
368.60	2404.32
368.81	2627.54
369.02	2555.86
369.23	2389.98
369.44	2283.49
369.65	2514.91
369.86	2588.63
370.07	2523.10
370.28	2357.21
370.49	2553.82
370.70	2506.71
370.91	2256.86
371.12	2346.97
371.33	2666.46
371.54	2467.80
371.75	2611.16
371.96	2248.67
372.17	2478.04
372.38	2410.46
372.59	2457.56
372.80	2363.36
373.01	2453.47
373.22	2475.99
373.43	2406.36
373.64	2256.86
373.85	2637.78
374.06	2715.61
374.26	2574.30
374.47	2539.48
374.68	2674.65
374.89	2514.91
375.10	2408.41
375.31	2572.25
375.52	2535.39
375.73	2508.76
375.94	2267.10
376.15	2596.82
376.36	2381.79
376.57	2441.18
376.78	2400.22
376.99	2459.61
377.20	2605.02
377.40	2402.27
377.61	2588.63
377.82	2383.84
378.03	2752.47
378.24	2537.43
378.45	2506.71
378.66	2478.04
378.87	2285.53
379.08	2351.07
379.29	2432.99
379.50	2594.78
379.71	2486.23
379.91	2543.58
380.12	2416.60
380.33	2383.84
380.54	2406.36
380.75	2412.51
380.96	2473.95
381.17	2449.37
381.38	2475.99
381.59	2504.67
381.80	2465.75
382.00	2637.78
382.21	2555.86
382.42	2678.74
382.63	2701.27
382.84	2523.10
383.05	2582.49
383.26	2686.94
383.47	2568.15
383.68	2482.14
383.88	2572.25
384.09	2422.75
384.30	2660.31
384.51	2457.56
384.72	2365.40
384.93	2414.56
385.14	2451.42
385.35	2576.34
385.55	2285.53
385.76	2676.70
385.97	2424.80
386.18	2291.68
386.39	2359.26
386.60	2420.70
386.81	2461.66
387.02	2295.77
387.22	2377.69
387.43	2531.29
387.64	2568.15
387.85	2621.40
388.06	2707.41
388.27	4044.74
388.48	8263.55
388.68	11984.71
388.89	14354.21
389.10	15890.19
389.31	14896.92
389.52	11587.41
389.73	10078.05
389.93	9097.08
390.14	8281.99
390.35	7405.46
390.56	6780.82
390.77	5377.97
390.98	4091.84
391.18	3373.00
391.39	3022.80
391.60	2514.91
391.81	2668.50
392.02	2441.18
392.23	2785.24
392.43	2496.47
392.64	2588.63
392.85	2457.56
393.06	2768.85
393.27	2455.51
393.47	2449.37
393.68	2465.75
393.89	2453.47
394.10	2584.54
394.31	2480.09
394.52	2373.60
394.72	2383.84
394.93	2641.88
395.14	2340.83
395.35	2535.39
395.56	2387.93
395.76	2527.19
395.97	2400.22
396.18	2596.82
396.39	2658.26
396.60	3037.14
396.80	2701.27
397.01	2609.11
397.22	2672.60
397.43	2688.98
397.64	2457.56
397.84	2592.73
398.05	2725.85
398.26	2580.44
398.47	2559.96
398.67	2578.39
398.88	2463.71
399.09	2551.77
399.30	2310.11
399.51	2430.94
399.71	2363.36
399.92	2488.28
400.13	2531.29
400.34	2455.51
400.54	2521.05
400.75	2625.50
400.96	2465.75
401.17	2699.22
401.37	2498.52
401.58	2527.19
401.79	2451.42
402.00	2605.02
402.21	2883.54
402.41	2770.90
402.62	2813.91
402.83	2951.12
403.04	2844.63
403.24	3194.83
403.45	2592.73
403.66	2758.61
403.87	2703.32
404.07	2775.00
404.28	2656.22
404.49	2672.60
404.70	2602.97
404.90	2623.45
405.11	2523.10
405.32	2457.56
405.52	2441.18
405.73	2447.32
405.94	2326.49
406.15	2465.75
406.35	2486.23
406.56	2580.44
406.77	2498.52
406.98	2490.33
407.18	2410.46
407.39	2648.02
407.60	2398.17
407.80	2449.37
408.01	2562.01
408.22	2525.15
408.43	2404.32
408.63	2564.06
408.84	2580.44
409.05	2570.20
409.25	2375.64
409.46	2355.16
409.67	2432.99
409.88	2400.22
410.08	2516.95
410.29	2426.84
410.50	2637.78
410.70	2537.43
410.91	2369.50
411.12	2555.86
411.32	2496.47
411.53	2394.08
411.74	2473.95
411.95	2514.91
412.15	2525.15
412.36	2639.83
412.57	2652.12
412.77	2695.13
412.98	2441.18
413.19	2398.17
413.39	2496.47
413.60	2482.14
413.81	2686.94
414.01	2340.83
414.22	2504.67
414.43	2547.67
414.63	2375.64
414.84	2555.86
415.05	2500.57
415.25	2258.91
415.46	2609.11
415.67	2412.51
415.87	2457.56
416.08	2471.90
416.29	2473.95
416.49	2545.63
416.70	2365.40
416.91	2342.88
417.11	2514.91
417.32	2607.06
417.53	2543.58
417.73	2486.23
417.94	2465.75
418.15	2465.75
418.35	2490.33
418.56	2453.47
418.77	2793.43
418.97	2535.39
419.18	2408.41
419.38	2220.00
419.59	2498.52
419.80	2723.80
420.00	2453.47
420.21	2482.14
420.42	2633.69
420.62	2508.76
420.83	2439.13
421.04	2406.36
421.24	2443.23
421.45	2494.43
421.65	2529.24
421.86	2435.03
422.07	2547.67
422.27	2498.52
422.48	2541.53
422.69	2373.60
422.89	2463.71
423.10	2412.51
423.30	2371.55
423.51	2512.86
423.72	2498.52
423.92	2555.86
424.13	2308.06
424.33	2529.24
424.54	2584.54
424.75	2584.54
424.95	2629.59
425.16	2449.37
425.36	2455.51
425.57	2559.96
425.78	2525.15
425.98	2537.43
426.19	2453.47
426.39	2346.97
426.60	2404.32
426.81	2564.06
427.01	2596.82
427.22	2422.75
427.42	2273.25
427.63	2303.96
427.83	2547.67
428.04	2731.99
428.25	2607.06
428.45	2588.63
428.66	2678.74
428.86	2426.84
429.07	2465.75
429.28	2420.70
429.48	2400.22
429.69	2430.94
429.89	2496.47
430.10	2353.12
430.30	2586.58
430.51	2633.69
430.71	2361.31
430.92	2410.46
431.13	2346.97
431.33	2607.06
431.54	2447.32
431.74	2598.87
431.95	2727.89
432.15	2424.80
432.36	2414.56
432.56	2506.71
432.77	2764.76
432.98	2670.55
433.18	2424.80
433.39	2359.26
433.59	2404.32
433.80	2705.37
434.00	2711.51
434.21	2379.74
434.41	2428.89
434.62	2789.33
434.82	2367.45
435.03	2310.11
435.23	2514.91
435.44	2279.39
435.64	2447.32
435.85	2510.81
436.06	2564.06
436.26	2662.36
436.47	2394.08
436.67	2422.75
436.88	2521.05
437.08	2607.06
437.29	2629.59
437.49	2504.67
437.70	2598.87
437.90	2400.22
438.11	2701.27
438.31	2504.67
438.52	2699.22
438.72	2670.55
438.93	2721.75
439.13	2521.05
439.34	2637.78
439.54	2566.10
439.75	2523.10
439.95	2447.32
440.16	2398.17
440.36	2459.61
440.57	2465.75
440.77	2475.99
440.98	2521.05
441.18	2506.71
441.39	2404.32
441.59	2387.93
441.80	2750.42
442.00	2455.51
442.21	2619.35
442.41	2314.20
442.62	2592.73
442.82	2428.89
443.02	2357.21
443.23	2445.27
443.43	2469.85
443.64	2783.19
443.84	2416.60
444.05	2627.54
444.25	2551.77
444.46	2514.91
444.66	2498.52
444.87	2686.94
445.07	2338.78
445.28	2537.43
445.48	2564.06
445.69	2527.19
445.89	2824.15
446.09	2488.28
446.30	2764.76
446.50	2979.79
446.71	4612.03
446.91	5861.29
447.12	6588.32
447.32	6963.09
447.53	6516.64
447.73	5484.46
447.93	4802.49
448.14	4480.96
448.34	4433.85
448.55	3811.27
448.75	3758.02
448.96	3549.13
449.16	3252.17
449.36	3086.29
449.57	2701.27
449.77	2543.58
449.98	2488.28
450.18	2566.10
450.39	2508.76
450.59	2615.26
450.79	2432.99
451.00	2437.08
451.20	2568.15
451.41	2408.41
451.61	2578.39
451.81	2543.58
452.02	2432.99
452.22	2432.99
452.43	2430.94
452.63	2445.27
452.84	2523.10
453.04	2432.99
453.24	2455.51
453.45	2387.93
453.65	2424.80
453.86	2408.41
454.06	2564.06
454.26	2523.10
454.47	2344.92
454.67	2627.54
454.87	2547.67
455.08	2439.13
455.28	2695.13
455.49	2537.43
455.69	2480.09
455.89	2699.22
456.10	2572.25
456.30	2455.51
456.51	2594.78
456.71	2582.49
456.91	2578.39
457.12	2420.70
457.32	2605.02
457.52	2340.83
457.73	2568.15
457.93	2482.14
458.14	2459.61
458.34	2334.68
458.54	2461.66
458.75	2435.03
458.95	2576.34
459.15	2475.99
459.36	2408.41
459.56	2553.82
459.76	2731.99
459.97	2537.43
460.17	2432.99
460.37	2521.05
460.58	2512.86
460.78	2557.91
460.99	2441.18
461.19	2475.99
461.39	2408.41
461.60	2498.52
461.80	2523.10
462.00	2353.12
462.21	2463.71
462.41	2426.84
462.61	2322.40
462.82	2301.92
463.02	2543.58
463.22	2449.37
463.43	2586.58
463.63	2506.71
463.83	2660.31
464.04	2545.63
464.24	2432.99
464.44	2379.74
464.64	2494.43
464.85	2568.15
465.05	2521.05
465.25	2361.31
465.46	2330.59
465.66	2512.86
465.86	2568.15
466.07	2426.84
466.27	2494.43
466.47	2338.78
466.68	2256.86
466.88	2635.74
467.08	2578.39
467.29	2670.55
467.49	2465.75
467.69	2529.24
467.89	2523.10
468.10	2426.84
468.30	2465.75
468.50	2617.30
468.71	2531.29
468.91	2299.87
469.11	2684.89
469.31	2449.37
469.52	2359.26
469.72	2713.56
469.92	2691.03
470.13	2435.03
470.33	2512.86
470.53	2627.54
470.73	2981.84
470.94	3248.08
471.14	3542.99
471.34	3960.77
471.54	3751.88
471.75	3354.57
471.95	3078.10
472.15	2987.99
472.36	2981.84
472.56	2957.27
472.76	3078.10
472.96	2801.62
473.17	2756.57
473.37	2654.17
473.57	2543.58
473.77	2645.98
473.98	2594.78
474.18	2351.07
474.38	2850.77
474.58	2457.56
474.79	2357.21
474.99	2478.04
475.19	2559.96
475.39	2371.55
475.60	2482.14
475.80	2506.71
476.00	2553.82
476.20	2510.81
476.41	2416.60
476.61	2621.40
476.81	2625.50
477.01	2392.03
477.21	2609.11
477.42	2580.44
477.62	2406.36
477.82	2588.63
478.02	2392.03
478.23	2514.91
478.43	2392.03
478.63	2435.03
478.83	2469.85
479.03	2381.79
479.24	2662.36
479.44	2797.53
479.64	2349.02
479.84	2297.82
480.04	2430.94
480.25	2633.69
480.45	2342.88
480.65	2461.66
480.85	2682.84
481.06	2484.19
481.26	2527.19
481.46	2535.39
481.66	2547.67
481.86	2326.49
482.06	2641.88
482.27	2494.43
482.47	2430.94
482.67	2488.28
482.87	2418.65
483.07	2582.49
483.28	2359.26
483.48	2330.59
483.68	2381.79
483.88	2400.22
484.08	2312.16
484.29	2373.60
484.49	2521.05
484.69	2392.03
484.89	2635.74
485.09	2654.17
485.29	2494.43
485.50	2539.48
485.70	2394.08
485.90	2641.88
486.10	2523.10
486.30	2445.27
486.50	2600.92
486.71	2584.54
486.91	2572.25
487.11	2547.67
487.31	2252.77
487.51	2547.67
487.71	2389.98
487.91	2396.12
488.12	2392.03
488.32	2217.95
488.52	2420.70
488.72	2238.43
488.92	2535.39
489.12	2580.44
489.32	2562.01
489.53	2562.01
489.73	2283.49
489.93	2695.13
490.13	2406.36
490.33	2250.72
490.53	2488.28
490.73	2584.54
490.94	2306.01
491.14	2537.43
491.34	2596.82
491.54	2736.09
491.74	3389.39
491.94	4034.50
492.14	4265.92
492.34	4284.35
492.54	4104.13
492.75	3514.31
492.95	3383.24
493.15	3282.89
493.35	3248.08
493.55	3162.06
493.75	2973.65
493.95	2990.03
494.15	2785.24
494.35	2523.10
494.56	2547.67
494.76	2453.47
494.96	2568.15
495.16	2441.18
495.36	2510.81
495.56	2531.29
495.76	2568.15
495.96	2353.12
496.16	2430.94
496.36	2809.81
496.56	2408.41
496.77	2531.29
496.97	2398.17
497.17	2713.56
497.37	2342.88
497.57	2578.39
497.77	2535.39
497.97	2396.12
498.17	2435.03
498.37	2414.56
498.57	2523.10
498.77	2441.18
498.97	2627.54
499.17	2633.69
499.38	2523.10
499.58	2578.39
499.78	2594.78
499.98	2602.97
500.18	2426.84
500.38	2469.85
500.58	2654.17
500.78	3074.00
500.98	5447.60
501.18	7634.83
501.38	9256.82
501.58	10102.63
501.78	10166.12
501.98	8093.57
502.18	6854.55
502.38	5949.35
502.58	5533.61
502.78	4925.36
502.98	4665.27
503.18	4429.76
503.38	4059.07
503.59	3487.69
503.79	3342.28
503.99	3131.34
504.19	3102.67
504.39	3096.53
504.59	3059.67
504.79	3112.91
504.99	3209.17
505.19	2834.39
505.39	2701.27
505.59	2916.31
505.79	2752.47
505.99	2697.17
506.19	2529.24
506.39	2777.05
506.59	2510.81
506.79	2605.02
506.99	2631.64
507.19	2473.95
507.39	2543.58
507.59	2424.80
507.79	2437.08
507.99	2422.75
508.19	2494.43
508.39	2459.61
508.59	2551.77
508.79	2615.26
508.99	2731.99
509.19	2394.08
509.39	2441.18
509.59	2402.27
509.79	2428.89
509.99	2572.25
510.19	2588.63
510.39	2564.06
510.59	2539.48
510.79	2473.95
510.99	2314.20
511.19	2475.99
511.39	2664.41
511.59	2652.12
511.79	2611.16
511.99	2541.53
512.19	2705.37
512.38	2486.23
512.58	2412.51
512.78	2336.73
512.98	2621.40
513.18	2699.22
513.38	2318.30
513.58	2521.05
513.78	2490.33
513.98	2430.94
514.18	2490.33
514.38	2441.18
514.58	2496.47
514.78	2406.36
514.98	2408.41
515.18	2473.95
515.38	2424.80
515.58	2713.56
515.78	2379.74
515.98	2490.33
516.18	2629.59
516.38	2504.67
516.57	2414.56
516.77	2375.64
516.97	2602.97
517.17	2414.56
517.37	2310.11
517.57	2605.02
517.77	2586.58
517.97	2408.41
518.17	2535.39
518.37	2359.26
518.57	2492.38
518.77	2480.09
518.97	2430.94
519.16	2525.15
519.36	2656.22
519.56	2443.23
519.76	2465.75
519.96	2404.32
520.16	2731.99
520.36	2445.27
520.56	2586.58
520.76	2420.70
520.96	2449.37
521.16	2645.98
521.35	2553.82
521.55	2645.98
521.75	2473.95
521.95	2422.75
522.15	2379.74
522.35	2306.01
522.55	2508.76
522.75	2553.82
522.95	2435.03
523.14	2338.78
523.34	2523.10
523.54	2447.32
523.74	2537.43
523.94	2463.71
524.14	2285.53
524.34	2588.63
524.54	2551.77
524.73	2461.66
524.93	2533.34
525.13	2529.24
525.33	2310.11
525.53	2645.98
525.73	2691.03
525.93	2492.38
526.13	2447.32
526.32	2555.86
526.52	2629.59
526.72	2555.86
526.92	2432.99
527.12	2383.84
527.32	2351.07
527.52	2598.87
527.71	2519.00
527.91	2496.47
528.11	2439.13
528.31	2430.94
528.51	2408.41
528.71	2498.52
528.90	2588.63
529.10	2660.31
529.30	2555.86
529.50	2244.57
529.70	2510.81
529.90	2492.38
530.09	2475.99
530.29	2346.97
530.49	2449.37
530.69	2830.29
530.89	2494.43
531.09	2529.24
531.28	2471.90
531.48	2686.94
531.68	2514.91
531.88	2369.50
532.08	2652.12
532.28	2422.75
532.47	2525.15
532.67	2521.05
532.87	2596.82
533.07	2342.88
533.27	2523.10
533.46	2596.82
533.66	2572.25
533.86	2494.43
534.06	2498.52
534.26	2480.09
534.45	2471.90
534.65	2672.60
534.85	2586.58
535.05	2383.84
535.25	2600.92
535.44	2432.99
535.64	2576.34
535.84	2471.90
536.04	2475.99
536.24	2412.51
536.43	2394.08
536.63	2537.43
536.83	2469.85
537.03	2471.90
537.22	2320.35
537.42	2254.81
537.62	2478.04
537.82	2404.32
538.02	2633.69
538.21	2584.54
538.41	2772.95
538.61	2490.33
538.81	2488.28
539.00	2572.25
539.20	2303.96
539.40	2432.99
539.60	2502.62
539.79	2547.67
539.99	2430.94
540.19	2330.59
540.39	2443.23
540.58	2506.71
540.78	2600.92
540.98	2484.19
541.18	2660.31
541.37	2557.91
541.57	2514.91
541.77	2541.53
541.97	2389.98
542.16	2308.06
542.36	2424.80
542.56	2455.51
542.76	2656.22
542.95	2611.16
543.15	2521.05
543.35	2580.44
543.54	2379.74
543.74	2375.64
543.94	2736.09
544.14	2414.56
544.33	2510.81
544.53	2404.32
544.73	2410.46
544.93	2443.23
545.12	2420.70
545.32	2482.14
545.52	2516.95
545.71	2424.80
545.91	2459.61
546.11	2432.99
546.30	2381.79
546.50	2521.05
546.70	2621.40
546.90	2473.95
547.09	2318.30
547.29	2482.14
547.49	2547.67
547.68	2504.67
547.88	2467.80
548.08	2600.92
548.27	2934.74
548.47	2334.68
548.67	2424.80
548.87	2498.52
549.06	2379.74
549.26	2414.56
549.46	2457.56
549.65	2486.23
549.85	2494.43
550.05	2617.30
550.24	2297.82
550.44	2529.24
550.64	2455.51
550.83	2496.47
551.03	2688.98
551.23	2615.26
551.42	2519.00
551.62	2424.80
551.82	2514.91
552.01	2488.28
552.21	2590.68
552.41	2461.66
552.60	2691.03
552.80	2539.48
553.00	2404.32
553.19	2541.53
553.39	2721.75
553.59	2306.01
553.78	2506.71
553.98	2559.96
554.17	2293.72
554.37	2480.09
554.57	2496.47
554.76	2455.51
554.96	2408.41
555.16	2555.86
555.35	2486.23
555.55	2523.10
555.75	2508.76
555.94	2555.86
556.14	2330.59
556.33	2512.86
556.53	2478.04
556.73	2496.47
556.92	2572.25
557.12	2564.06
557.32	2744.28
557.51	2662.36
557.71	2537.43
557.90	2662.36
558.10	2674.65
558.30	2490.33
558.49	2435.03
558.69	2416.60
558.88	2541.53
559.08	2490.33
559.28	2418.65
559.47	2465.75
559.67	2605.02
559.86	2848.72
560.06	2402.27
560.26	2506.71
560.45	2596.82
560.65	2416.60
560.84	2676.70
561.04	2428.89
561.24	2564.06
561.43	2412.51
561.63	2742.23
561.82	2588.63
562.02	2578.39
562.22	2418.65
562.41	2408.41
562.61	2473.95
562.80	2342.88
563.00	2703.32
563.19	2576.34
563.39	2486.23
563.59	2547.67
563.78	2412.51
563.98	2342.88
564.17	2387.93
564.37	2252.77
564.56	2432.99
564.76	2279.39
564.96	2615.26
565.15	2514.91
565.35	2793.43
565.54	2349.02
565.74	2547.67
565.93	2566.10
566.13	2482.14
566.32	2523.10
566.52	2537.43
566.71	2535.39
566.91	2686.94
567.11	2625.50
567.30	2473.95
567.50	2553.82
567.69	2566.10
567.89	2473.95
568.08	2367.45
568.28	2506.71
568.47	2369.50
568.67	2514.91
568.86	2432.99
569.06	2654.17
569.25	2416.60
569.45	2322.40
569.64	2457.56
569.84	2494.43
570.04	2557.91
570.23	2342.88
570.43	2445.27
570.62	2543.58
570.82	2617.30
571.01	2363.36
571.21	2408.41
571.40	2441.18
571.60	2596.82
571.79	2496.47
571.99	2416.60
572.18	2375.64
572.38	2512.86
572.57	2389.98
572.77	2502.62
572.96	2785.24
573.16	2508.76
573.35	2418.65
573.55	2596.82
573.74	2527.19
573.94	2432.99
574.13	2490.33
574.33	2639.83
574.52	2746.33
574.71	2490.33
574.91	2559.96
575.10	2330.59
575.30	2420.70
575.49	2340.83
575.69	2389.98
575.88	2578.39
576.08	2557.91
576.27	2676.70
576.47	2478.04
576.66	2676.70
576.86	2686.94
577.05	2531.29
577.25	2596.82
577.44	2693.08
577.64	2416.60
577.83	2621.40
578.02	2406.36
578.22	2619.35
578.41	2750.42
578.61	2457.56
578.80	2359.26
579.00	2500.57
579.19	2506.71
579.39	2555.86
579.58	2559.96
579.77	2498.52
579.97	2662.36
580.16	2576.34
580.36	2637.78
580.55	2578.39
580.75	2504.67
580.94	2521.05
581.13	2627.54
581.33	2619.35
581.52	2555.86
581.72	2852.82
581.91	2678.74
582.11	2457.56
582.30	2664.41
582.49	2523.10
582.69	2691.03
582.88	2547.67
583.08	2562.01
583.27	2592.73
583.47	2506.71
583.66	2367.45
583.85	2463.71
584.05	2525.15
584.24	2555.86
584.44	2570.20
584.63	2699.22
584.82	2691.03
585.02	2686.94
585.21	2635.74
585.41	2648.02
585.60	2555.86
585.79	2768.85
585.99	2793.43
586.18	2580.44
586.37	3246.03
586.57	4906.93
586.76	14704.42
586.96	34444.79
587.15	47793.45
587.34	56706.21
587.54	61729.87
587.73	55878.83
587.93	39200.17
588.12	29820.47
588.31	23959.19
588.51	20977.34
588.70	19320.54
588.89	17315.58
589.09	14929.69
589.28	12752.70
589.47	10116.97
589.67	8060.80
589.86	6207.39
590.06	4640.70
590.25	3870.66
590.44	3280.85
590.64	2963.41
590.83	2854.87
591.02	2772.95
591.22	2607.06
591.41	2602.97
591.60	2478.04
591.80	2877.40
591.99	2420.70
592.18	2453.47
592.38	2674.65
592.57	2437.08
592.76	2521.05
592.96	2551.77
593.15	2482.14
593.34	2686.94
593.54	2486.23
593.73	2553.82
593.92	2570.20
594.12	2709.46
594.31	2594.78
594.50	2605.02
594.70	2629.59
594.89	2856.92
595.08	2375.64
595.28	2521.05
595.47	2875.35
595.66	2580.44
595.86	2432.99
596.05	2447.32
596.24	2543.58
596.43	2691.03
596.63	2629.59
596.82	2557.91
597.01	2609.11
597.21	2707.41
597.40	2502.62
597.59	2465.75
597.79	2635.74
597.98	2627.54
598.17	2490.33
598.36	2414.56
598.56	2590.68
598.75	2447.32
598.94	2463.71
599.14	2473.95
599.33	2379.74
599.52	2549.72
599.71	2580.44
599.91	2516.95
600.10	2596.82
600.29	2498.52
600.48	2553.82
600.68	2582.49
600.87	2527.19
601.06	2426.84
601.26	2469.85
601.45	2516.95
601.64	2541.53
601.83	2641.88
602.03	2439.13
602.22	2396.12
602.41	2570.20
602.60	2756.57
602.80	2553.82
602.99	2514.91
603.18	2473.95
603.37	2531.29
603.57	2465.75
603.76	2510.81
603.95	2609.11
604.14	2371.55
604.34	2389.98
604.53	2482.14
604.72	2607.06
604.91	2551.77
605.10	2449.37
605.30	2344.92
605.49	2744.28
605.68	2576.34
605.87	2531.29
606.07	2373.60
606.26	2549.72
606.45	2588.63
606.64	2441.18
606.84	2361.31
607.03	2473.95
607.22	2596.82
607.41	2539.48
607.60	2414.56
607.80	2703.32
607.99	2551.77
608.18	2471.90
608.37	2568.15
608.56	2480.09
608.76	2625.50
608.95	2701.27
609.14	2557.91
609.33	2711.51
609.52	2697.17
609.72	2574.30
609.91	2666.46
610.10	2533.34
610.29	2637.78
610.48	2537.43
610.68	2539.48
610.87	2486.23
611.06	2629.59
611.25	2435.03
611.44	2545.63
611.63	2473.95
611.83	2699.22
612.02	2377.69
612.21	2605.02
612.40	2310.11
612.59	2445.27
612.79	2426.84
612.98	2381.79
613.17	2701.27
613.36	2539.48
613.55	2719.70
613.74	2596.82
613.93	2686.94
614.13	2729.94
614.32	2713.56
614.51	2688.98
614.70	2654.17
614.89	2529.24
615.08	2578.39
615.28	3020.75
615.47	2457.56
615.66	2494.43
615.85	2539.48
616.04	2615.26
616.23	2478.04
616.42	2525.15
616.62	2543.58
616.81	2537.43
617.00	2572.25
617.19	2654.17
617.38	2441.18
617.57	2533.34
617.76	2598.87
617.95	2645.98
618.15	2439.13
618.34	2678.74
618.53	2379.74
618.72	2613.21
618.91	2600.92
619.10	2600.92
619.29	2467.80
619.48	2514.91
619.68	2303.96
619.87	2494.43
620.06	2353.12
620.25	2576.34
620.44	2430.94
620.63	2453.47
620.82	2611.16
621.01	2494.43
621.20	2463.71
621.39	2523.10
621.59	2539.48
621.78	2539.48
621.97	2422.75
622.16	2555.86
622.35	2547.67
622.54	2557.91
622.73	2512.86
622.92	2308.06
623.11	2654.17
623.30	2492.38
623.49	2570.20
623.68	2365.40
623.88	2654.17
624.07	2469.85
624.26	2428.89
624.45	2441.18
624.64	2545.63
624.83	2531.29
625.02	2400.22
625.21	2363.36
625.40	2555.86
625.59	2592.73
625.78	2445.27
625.97	2584.54
626.16	2654.17
626.35	2658.26
626.54	2643.93
626.74	2734.04
626.93	2514.91
627.12	2469.85
627.31	2613.21
627.50	2506.71
627.69	2613.21
627.88	2406.36
628.07	2484.19
628.26	2289.63
628.45	2408.41
628.64	2430.94
628.83	2441.18
629.02	2357.21
629.21	2584.54
629.40	2537.43
629.59	2439.13
629.78	2445.27
629.97	2463.71
630.16	2545.63
630.35	2463.71
630.54	2416.60
630.73	2408.41
630.92	2539.48
631.11	2422.75
631.30	2435.03
631.49	2557.91
631.68	2478.04
631.87	2559.96
632.06	2416.60
632.25	2793.43
632.44	2549.72
632.63	2605.02
632.82	2504.67
633.01	2486.23
633.20	2625.50
633.39	2496.47
633.58	2318.30
633.77	2619.35
633.96	2584.54
634.15	2559.96
634.34	2557.91
634.53	2539.48
634.72	2443.23
634.91	2326.49
635.10	2465.75
635.29	2578.39
635.48	2555.86
635.67	2375.64
635.86	2318.30
636.05	2717.65
636.24	2439.13
636.43	2465.75
636.62	2543.58
636.81	2211.81
637.00	2572.25
637.19	2490.33
637.38	2432.99
637.57	2490.33
637.76	2521.05
637.95	2611.16
638.14	2512.86
638.33	2578.39
638.52	2590.68
638.71	2432.99
638.89	2424.80
639.08	2846.68
639.27	2684.89
639.46	2781.14
639.65	3119.06
639.84	3215.31
640.03	3260.37
640.22	3100.62
640.41	3223.50
640.60	2789.33
640.79	2832.34
640.98	2660.31
641.17	2725.85
641.36	2660.31
641.55	2691.03
641.74	2439.13
641.92	2342.88
642.11	2441.18
642.30	2496.47
642.49	2422.75
642.68	2459.61
642.87	2564.06
643.06	2551.77
643.25	2381.79
643.44	2342.88
643.63	2449.37
643.82	2521.05
644.00	2383.84
644.19	2387.93
644.38	2334.68
644.57	2578.39
644.76	2519.00
644.95	2465.75
645.14	2539.48
645.33	2504.67
645.52	2531.29
645.71	2256.86
645.89	2373.60
646.08	2500.57
646.27	2426.84
646.46	2656.22
646.65	2404.32
646.84	2508.76
647.03	2389.98
647.22	2582.49
647.40	2482.14
647.59	2465.75
647.78	2265.05
647.97	2457.56
648.16	2363.36
648.35	2578.39
648.54	2580.44
648.73	2498.52
648.91	2537.43
649.10	2592.73
649.29	2428.89
649.48	2451.42
649.67	2527.19
649.86	2600.92
650.05	2441.18
650.23	2709.46
650.42	2557.91
650.61	2766.81
650.80	2736.09
650.99	2742.23
651.18	2645.98
651.36	2607.06
651.55	2453.47
651.74	2670.55
651.93	2449.37
652.12	2480.09
652.31	2494.43
652.49	2492.38
652.68	2432.99
652.87	2699.22
653.06	2519.00
653.25	2611.16
653.44	2467.80
653.62	2686.94
653.81	2455.51
654.00	2428.89
654.19	2639.83
654.38	2858.96
654.56	2480.09
654.75	2445.27
654.94	2588.63
655.13	2516.95
655.32	2449.37
655.51	2539.48
655.69	2486.23
655.88	2527.19
656.07	2314.20
656.26	2551.77
656.45	2420.70
656.63	2420.70
656.82	2441.18
657.01	2631.64
657.20	2371.55
657.38	2684.89
657.57	2383.84
657.76	2310.11
657.95	2568.15
658.14	2398.17
658.32	2471.90
658.51	2260.96
658.70	2547.67
658.89	2539.48
659.08	2478.04
659.26	2719.70
659.45	2445.27
659.64	2678.74
659.83	2525.15
660.01	2873.30
660.20	2572.25
660.39	2756.57
660.58	2299.87
660.76	2574.30
660.95	2330.59
661.14	2555.86
661.33	2334.68
661.51	2394.08
661.70	2392.03
661.89	2562.01
662.08	2473.95
662.26	2291.68
662.45	2373.60
662.64	2680.79
662.83	2535.39
663.01	2297.82
663.20	2465.75
663.39	2709.46
663.58	2443.23
663.76	2416.60
663.95	2510.81
664.14	2420.70
664.32	2412.51
664.51	2273.25
664.70	2297.82
664.89	2519.00
665.07	2299.87
665.26	2547.67
665.45	2361.31
665.64	2545.63
665.82	2428.89
666.01	2439.13
666.20	2316.25
666.38	2568.15
666.57	2695.13
666.76	3942.34
666.95	9445.23
667.13	17950.45
667.32	22761.12
667.51	26003.06
667.69	27938.39
667.88	24510.09
668.07	17385.21
668.25	14237.48
668.44	11734.86
668.63	10327.91
668.81	9170.80
669.00	7964.55
669.19	7120.79
669.38	6139.81
669.56	5195.70
669.75	4392.89
669.94	3864.52
670.12	3184.59
670.31	2969.55
670.50	2781.14
670.68	2666.46
670.87	2654.17
671.06	2539.48
671.24	2592.73
671.43	2799.57
671.62	2551.77
671.80	2502.62
671.99	2514.91
672.18	2623.45
672.36	2619.35
672.55	2521.05
672.74	2500.57
672.92	2439.13
673.11	2490.33
673.29	2334.68
673.48	2598.87
673.67	2490.33
673.85	2631.64
674.04	2408.41
674.23	2502.62
674.41	2775.00
674.60	2396.12
674.79	2332.64
674.97	2371.55
675.16	2623.45
675.34	2578.39
675.53	2447.32
675.72	2510.81
675.90	2695.13
676.09	2375.64
676.28	2498.52
676.46	2326.49
676.65	2527.19
676.83	2383.84
677.02	2418.65
677.21	2430.94
677.39	2471.90
677.58	2379.74
677.77	2375.64
677.95	2342.88
678.14	2496.47
678.32	2424.80
678.51	2422.75
678.70	2719.70
678.88	2404.32
679.07	2519.00
679.25	2432.99
679.44	2437.08
679.63	2351.07
679.81	2602.97
680.00	2609.11
680.18	2461.66
680.37	2576.34
680.55	2531.29
680.74	2310.11
680.93	2306.01
681.11	2504.67
681.30	2488.28
681.48	2545.63
681.67	2426.84
681.85	2553.82
682.04	2357.21
682.23	2447.32
682.41	2490.33
682.60	2435.03
682.78	2400.22
682.97	2428.89
683.15	2484.19
683.34	2449.37
683.53	2607.06
683.71	2293.72
683.90	2535.39
684.08	2678.74
684.27	2441.18
684.45	2512.86
684.64	2629.59
684.82	2502.62
685.01	2555.86
685.19	2449.37
685.38	2648.02
685.57	2459.61
685.75	2441.18
685.94	2396.12
686.12	2420.70
686.31	2367.45
686.49	2645.98
686.68	2299.87
686.86	2535.39
687.05	2463.71
687.23	2623.45
687.42	2439.13
687.60	2324.44
687.79	2582.49
687.97	2635.74
688.16	2539.48
688.34	2580.44
688.53	2308.06
688.71	2592.73
688.90	2588.63
689.08	2445.27
689.27	2258.91
689.45	2596.82
689.64	2580.44
689.82	2519.00
690.01	2500.57
690.19	2562.01
690.38	2514.91
690.56	2531.29
690.75	2324.44
690.93	2377.69
691.12	2443.23
691.30	2424.80
691.49	2473.95
691.67	2535.39
691.86	2705.37
692.04	2443.23
692.23	2498.52
692.41	2478.04
692.60	2805.72
692.78	2564.06
692.97	2504.67
693.15	2580.44
693.34	2725.85
693.52	2660.31
693.71	2392.03
693.89	2508.76
694.08	2342.88
694.26	2600.92
694.44	2596.82
694.63	2588.63
694.81	2432.99
695.00	2416.60
695.18	2576.34
695.37	2752.47
695.55	2473.95
695.74	2441.18
695.92	2383.84
696.10	2682.84
696.29	2269.15
696.47	2355.16
696.66	2404.32
696.84	2326.49
697.03	2478.04
697.21	2703.32
697.40	3760.07
697.58	2596.82
697.76	2416.60
697.95	2480.09
698.13	2394.08
698.32	2422.75
698.50	2445.27
698.68	2478.04
698.87	2439.13
699.05	2637.78
699.24	2424.80
699.42	2351.07
699.61	2580.44
699.79	2523.10
699.97	2459.61
700.16	2330.59
700.34	2326.49
700.53	2455.51
700.71	2633.69
700.89	2523.10
701.08	2455.51
701.26	2484.19
701.45	2924.50
701.63	2379.74
701.81	2437.08
702.00	2437.08
702.18	2562.01
702.37	2453.47
702.55	2818.00
702.73	2703.32
702.92	2590.68
703.10	2891.73
703.28	2768.85
703.47	2437.08
703.65	2734.04
703.84	2668.50
704.02	2496.47
704.20	2832.34
704.39	2416.60
704.57	2465.75
704.75	2660.31
704.94	2523.10
705.12	2625.50
705.30	2891.73
705.49	5545.90
705.67	12885.82
705.86	20854.47
706.04	24436.36
706.22	28026.45
706.41	28128.85
706.59	22924.96
706.77	16543.49
706.96	14124.84
707.14	12306.24
707.32	10565.47
707.51	9404.27
707.69	7640.97
707.87	6195.11
708.06	4970.42
708.24	4214.72
708.42	3346.38
708.61	3209.17
708.79	2734.04
708.97	2580.44
709.16	2605.02
709.34	2580.44
709.52	2463.71
709.71	2389.98
709.89	2600.92
710.07	2457.56
710.26	2373.60
710.44	2492.38
710.62	2578.39
710.80	2441.18
710.99	2564.06
711.17	2572.25
711.35	2432.99
711.54	2469.85
711.72	2555.86
711.90	2463.71
712.09	2572.25
712.27	2498.52
712.45	2525.15
712.63	2414.56
712.82	2553.82
713.00	2510.81
713.18	2602.97
713.37	2562.01
713.55	2496.47
713.73	2553.82
713.91	2506.71
714.10	2432.99
714.28	2508.76
714.46	2553.82
714.65	2572.25
714.83	2469.85
715.01	2533.34
715.19	2486.23
715.38	2316.25
715.56	2553.82
715.74	2439.13
715.92	2359.26
716.11	2623.45
716.29	2211.81
716.47	2508.76
716.65	2406.36
716.84	2377.69
717.02	2607.06
717.20	2338.78
717.38	2424.80
717.57	2504.67
717.75	2502.62
717.93	2527.19
718.11	2592.73
718.30	2320.35
718.48	2543.58
718.66	2613.21
718.84	2600.92
719.03	2463.71
719.21	2394.08
719.39	2764.76
719.57	2551.77
719.75	2553.82
719.94	2398.17
720.12	2465.75
720.30	2475.99
720.48	2535.39
720.67	2377.69
720.85	2369.50
721.03	2457.56
721.21	2383.84
721.39	2529.24
721.58	2535.39
721.76	2498.52
721.94	2555.86
722.12	2461.66
722.30	2734.04
722.49	2437.08
722.67	2494.43
722.85	2473.95
723.03	2299.87
723.21	2443.23
723.40	2488.28
723.58	2621.40
723.76	2543.58
723.94	2709.46
724.12	2564.06
724.30	2695.13
724.49	2627.54
724.67	2441.18
724.85	2676.70
725.03	2449.37
725.21	2574.30
725.40	2650.07
725.58	2377.69
725.76	2666.46
725.94	2615.26
726.12	2297.82
726.30	2502.62
726.49	2478.04
726.67	2400.22
726.85	2572.25
727.03	2869.20
727.21	4210.62
727.39	5865.38
727.57	6832.02
727.76	7350.16
727.94	7561.10
728.12	6895.51
728.30	5545.90
728.48	4939.70
728.66	4511.68
728.84	4220.86
729.03	3577.80
729.21	3117.01
729.39	2965.46
729.57	2711.51
729.75	2645.98
729.93	2635.74
730.11	2453.47
730.30	2471.90
730.48	2455.51
730.66	2641.88
730.84	2602.97
731.02	2457.56
731.20	2428.89
731.38	2461.66
731.56	2332.64
731.74	2426.84
731.93	2531.29
732.11	2445.27
732.29	2383.84
732.47	2637.78
732.65	2523.10
732.83	2576.34
733.01	2605.02
733.19	2424.80
733.37	2555.86
733.56	2408.41
733.74	2344.92
733.92	2613.21
734.10	2490.33
734.28	2580.44
734.46	2279.39
734.64	2428.89
734.82	2519.00
735.00	2412.51
735.18	2396.12
735.36	2461.66
735.54	2447.32
735.73	2502.62
735.91	2582.49
736.09	2621.40
736.27	2461.66
736.45	2551.77
736.63	2252.77
736.81	2439.13
736.99	2529.24
737.17	2674.65
737.35	2385.88
737.53	2582.49
737.71	2482.14
737.89	2531.29
738.07	2416.60
738.25	2473.95
738.43	2279.39
738.61	2424.80
738.80	2269.15
738.98	2324.44
739.16	2357.21
739.34	2437.08
739.52	2664.41
739.70	2447.32
739.88	2482.14
740.06	2611.16
740.24	2244.57
740.42	2602.97
740.60	2310.11
740.78	2361.31
740.96	2250.72
741.14	2387.93
741.32	2480.09
741.50	2340.83
741.68	2691.03
741.86	2684.89
742.04	2346.97
742.22	2381.79
742.40	2480.09
742.58	2547.67
742.76	2363.36
742.94	2580.44
743.12	2289.63
743.30	2478.04
743.48	2580.44
743.66	2375.64
743.84	2512.86
744.02	2457.56
744.20	2533.34
744.38	2314.20
744.56	2351.07
744.74	2731.99
744.92	2605.02
745.10	2559.96
745.28	2457.56
745.46	2645.98
745.64	2467.80
745.82	2516.95
746.00	2441.18
746.18	2521.05
746.36	2424.80
746.54	2529.24
746.72	2396.12
746.90	2283.49
747.08	2643.93
747.26	2328.54
747.44	2449.37
747.62	2525.15
747.80	2521.05
747.98	2578.39
748.15	2400.22
748.33	2729.94
748.51	2469.85
748.69	2547.67
748.87	2359.26
749.05	2465.75
749.23	2457.56
749.41	2424.80
749.59	2424.80
749.77	2619.35
749.95	2453.47
750.13	2400.22
750.31	2480.09
750.49	2541.53
750.67	2564.06
750.85	2637.78
751.03	2475.99
751.20	2736.09
751.38	2428.89
751.56	2365.40
751.74	2443.23
751.92	2398.17
752.10	2244.57
752.28	2629.59
752.46	2369.50
752.64	2490.33
752.82	2504.67
753.00	2643.93
753.18	2392.03
753.35	2457.56
753.53	2504.67
753.71	2349.02
753.89	2574.30
754.07	2494.43
754.25	2607.06
754.43	2451.42
754.61	2373.60
754.79	2596.82
754.97	2457.56
755.14	2564.06
755.32	2289.63
755.50	2572.25
755.68	2539.48
755.86	2346.97
756.04	2435.03
756.22	2301.92
756.40	2658.26
756.57	2715.61
756.75	2359.26
756.93	2564.06
757.11	2629.59
757.29	2287.58
757.47	2394.08
757.65	2314.20
757.82	2217.95
758.00	2383.84
758.18	2414.56
758.36	2424.80
758.54	2617.30
758.72	2332.64
758.90	2586.58
759.07	2551.77
759.25	2394.08
759.43	2555.86
759.61	2340.83
759.79	3561.42
759.97	2623.45
760.15	2359.26
760.32	2404.32
760.50	2480.09
760.68	2725.85
760.86	2336.73
761.04	2574.30
761.22	2572.25
761.39	2590.68
761.57	2514.91
761.75	2447.32
761.93	2578.39
762.11	2351.07
762.28	2473.95
762.46	2340.83
762.64	2629.59
762.82	2291.68
763.00	2381.79
763.18	2641.88
763.35	2312.16
763.53	2502.62
763.71	2488.28
763.89	2463.71
764.07	2441.18
764.24	2467.80
764.42	2559.96
764.60	2471.90
764.78	2588.63
764.96	2527.19
765.13	2631.64
765.31	2377.69
765.49	2521.05
765.67	2287.58
765.84	2359.26
766.02	2301.92
766.20	2357.21
766.38	2609.11
766.56	2531.29
766.73	2482.14
766.91	2428.89
767.09	2506.71
767.27	2545.63
767.44	2363.36
767.62	2496.47
767.80	2451.42
767.98	2412.51
768.15	2383.84
768.33	2541.53
768.51	2645.98
768.69	2549.72
768.87	2449.37
769.04	2521.05
769.22	2772.95
769.40	2582.49
769.58	2717.65
769.75	2504.67
769.93	2654.17
770.11	2416.60
770.28	2416.60
770.46	2613.21
770.64	2494.43
770.82	2420.70
770.99	2383.84
771.17	2541.53
771.35	2406.36
771.53	2396.12
771.70	2443.23
771.88	2519.00
772.06	2471.90
772.23	2441.18
772.41	2441.18
772.59	2469.85
772.77	2318.30
772.94	2396.12
773.12	2488.28
773.30	2480.09
773.47	2445.27
773.65	2422.75
773.83	2641.88
774.01	2576.34
774.18	2248.67
774.36	2480.09
774.54	2293.72
774.71	2525.15
774.89	2351.07
775.07	2414.56
775.24	2400.22
775.42	2404.32
775.60	2717.65
775.78	2418.65
775.95	2381.79
776.13	2275.29
776.31	2275.29
776.48	2514.91
776.66	2637.78
776.84	2414.56
777.01	2346.97
777.19	2383.84
777.37	2412.51
777.54	2486.23
777.72	2766.81
777.90	2482.14
778.07	2392.03
778.25	2826.20
778.43	2664.41
778.60	2346.97
778.78	2564.06
778.96	2662.36
779.13	2412.51
779.31	2521.05
779.49	2480.09
779.66	2541.53
779.84	2432.99
780.01	2432.99
780.19	2375.64
780.37	2605.02
780.54	2570.20
780.72	2326.49
780.90	2418.65
781.07	2432.99
781.25	2432.99
781.43	2533.34
781.60	2389.98
781.78	2588.63
781.95	2553.82
782.13	2408.41
782.31	2432.99
782.48	2289.63
782.66	2439.13
782.83	2625.50
783.01	2529.24
783.19	2529.24
783.36	2437.08
783.54	2340.83
783.72	2564.06
783.89	2400.22
784.07	2484.19
784.24	2502.62
784.42	2615.26
784.60	2498.52
784.77	2666.46
784.95	2228.19
785.12	2432.99
785.30	2494.43
785.47	2389.98
785.65	2351.07
785.83	2469.85
786.00	2338.78
786.18	2564.06
786.35	2310.11
786.53	2359.26
786.71	2674.65
786.88	2555.86
787.06	2523.10
787.23	2463.71
787.41	2422.75
787.58	2400.22
787.76	2408.41
787.94	2437.08
788.11	2496.47
788.29	2328.54
788.46	2430.94
788.64	2320.35
788.81	2416.60
788.99	2375.64
789.16	2326.49
789.34	2471.90
789.52	2381.79
789.69	2469.85
789.87	2306.01
790.04	2428.89
790.22	2488.28
790.39	2699.22
790.57	2392.03
790.74	2379.74
790.92	2537.43
791.09	2387.93
791.27	2519.00
791.44	2605.02
791.62	2414.56
791.79	2605.02
791.97	2478.04
792.15	2756.57
792.32	2586.58
792.50	2545.63
792.67	2639.83
792.85	2605.02
793.02	2535.39
793.20	2465.75
793.37	2332.64
793.55	2365.40
793.72	2234.33
793.90	2553.82
794.07	2418.65
794.25	2357.21
794.42	2502.62
794.60	2463.71
794.77	2482.14
794.95	2559.96
795.12	2658.26
795.30	2455.51
795.47	2308.06
795.65	2830.29
795.82	2473.95
796.00	2398.17
796.17	2500.57
796.34	2324.44
796.52	2547.67
796.69	2637.78
796.87	2500.57
797.04	2537.43
797.22	2613.21
797.39	2543.58
797.57	2592.73
797.74	2453.47
797.92	2473.95
798.09	2389.98
798.27	2609.11
798.44	2428.89
798.62	2404.32
798.79	2523.10
798.96	2541.53
799.14	2496.47
799.31	2760.66
799.49	2469.85
799.66	2396.12
799.84	2494.43
800.01	2291.68
800.19	2459.61
800.36	2277.34
800.53	2492.38
800.71	2500.57
800.88	2781.14
801.06	2377.69
801.23	2365.40
801.41	2494.43
801.58	2406.36
801.75	2373.60
801.93	2465.75
802.10	2537.43
802.28	2461.66
802.45	2422.75
802.63	2609.11
802.80	2686.94
802.97	2420.70
803.15	2490.33
803.32	2465.75
803.50	2389.98
803.67	2416.60
803.84	2357.21
804.02	2512.86
804.19	2469.85
804.37	2226.14
804.54	2293.72
804.71	2408.41
804.89	2502.62
805.06	2379.74
805.24	2314.20
805.41	2373.60
805.58	2435.03
805.76	2693.08
805.93	2414.56
806.10	2621.40
806.28	2549.72
806.45	2566.10
806.63	2549.72
806.80	2527.19
806.97	2463.71
807.15	2500.57
807.32	2445.27
807.49	2469.85
807.67	2291.68
807.84	2484.19
808.01	2234.33
808.19	2686.94
808.36	2760.66
808.54	2408.41
808.71	2435.03
808.88	2437.08
809.06	2592.73
809.23	2662.36
809.40	2373.60
809.58	2541.53
809.75	2447.32
809.92	2355.16
810.10	2760.66
810.27	2406.36
810.44	2531.29
810.62	2570.20
810.79	2428.89
810.96	2398.17
811.14	2414.56
811.31	2521.05
811.48	2529.24
811.66	2428.89
811.83	2652.12
812.00	2535.39
812.18	2465.75
812.35	2650.07
812.52	2457.56
812.69	2344.92
812.87	2355.16
813.04	2299.87
813.21	2420.70
813.39	2353.12
813.56	2383.84
813.73	2572.25
813.91	2269.15
814.08	2494.43
814.25	2463.71
814.42	2336.73
814.60	2387.93
814.77	2461.66
814.94	2432.99
815.12	2457.56
815.29	2629.59
815.46	2414.56
815.63	2496.47
815.81	2428.89
815.98	2494.43
816.15	2461.66
816.33	2473.95
816.50	2420.70
816.67	2453.47
816.84	2498.52
817.02	2293.72
817.19	2420.70
817.36	2441.18
817.53	2572.25
817.71	2408.41
817.88	2535.39
818.05	2455.51
818.22	2506.71
818.40	2664.41
818.57	2498.52
818.74	2555.86
818.91	2523.10
819.09	2510.81
819.26	2551.77
819.43	2394.08
819.60	2402.27
819.78	2580.44
819.95	2627.54
820.12	2398.17
820.29	2691.03
820.47	2605.02
820.64	2359.26
820.81	2363.36
820.98	2299.87
821.15	2437.08
821.33	2519.00
821.50	2377.69
821.67	2559.96
821.84	2363.36
822.02	2543.58
822.19	2564.06
822.36	2416.60
822.53	2346.97
822.70	2267.10
822.88	2355.16
823.05	2662.36
823.22	2459.61
823.39	2478.04
823.56	2445.27
823.74	2686.94
823.91	2359.26
824.08	2377.69
824.25	2400.22
824.42	2672.60
824.60	2322.40
824.77	2398.17
824.94	2410.46
825.11	2576.34
825.28	2258.91
825.45	2412.51
825.63	2494.43
825.80	2404.32
825.97	2523.10
826.14	2473.95
826.31	2285.53
826.48	2576.34
826.66	2392.03
826.83	2361.31
827.00	2408.41
827.17	2385.88
827.34	2482.14
827.51	2404.32
827.69	2445.27
827.86	2254.81
828.03	2557.91
828.20	2416.60
828.37	2449.37
828.54	2572.25
828.71	2392.03
828.89	2523.10
829.06	2523.10
829.23	2645.98
829.40	2394.08
829.57	2383.84
829.74	2523.10
829.91	2426.84
830.09	2377.69
830.26	2555.86
830.43	2613.21
830.60	2475.99
830.77	2490.33
830.94	2582.49
831.11	2545.63
831.28	2504.67
831.46	2555.86
831.63	2400.22
831.80	2547.67
831.97	2396.12
832.14	2416.60
832.31	2539.48
832.48	2488.28
832.65	2551.77
832.82	2424.80
832.99	2533.34
833.17	2277.34
833.34	2660.31
833.51	2490.33
833.68	2281.44
833.85	2613.21
834.02	2330.59
834.19	2392.03
834.36	2416.60
834.53	2467.80
834.70	2635.74
834.87	2471.90
835.04	2369.50
835.22	2328.54
835.39	2344.92
835.56	2285.53
835.73	2361.31
835.90	2594.78
836.07	2367.45
836.24	2492.38
836.41	2338.78
836.58	2396.12
836.75	2611.16
836.92	2449.37
837.09	2320.35
837.26	2639.83
837.43	2496.47
837.60	2506.71
837.77	2396.12
837.94	2512.86
838.12	2600.92
838.29	2336.73
838.46	2349.02
838.63	2353.12
838.80	2723.80
838.97	2541.53
839.14	2318.30
839.31	2559.96
839.48	2605.02
839.65	2367.45
839.82	2459.61
839.99	2457.56
840.16	2461.66
840.33	2310.11
840.50	2465.75
840.67	2402.27
840.84	2207.71
841.01	2367.45
841.18	2332.64
841.35	2412.51
841.52	2475.99
841.69	2676.70
841.86	2412.51
842.03	2453.47
842.20	2594.78
842.37	2340.83
842.54	2402.27
842.71	2529.24
842.88	2308.06
843.05	2383.84
843.22	2322.40
843.39	2611.16
843.56	2420.70
843.73	2373.60
843.90	2428.89
844.07	2443.23
844.24	2539.48
844.41	2510.81
844.58	2373.60
844.75	2494.43
844.92	2494.43
845.09	2473.95
845.26	2297.82
845.43	2531.29
845.60	2508.76
845.77	2562.01
845.94	2418.65
846.10	2580.44
846.27	2338.78
846.44	2326.49
846.61	2234.33
846.78	2543.58
846.95	2652.12
847.12	2322.40
847.29	2400.22
847.46	2408.41
847.63	2547.67
847.80	2285.53
847.97	2428.89
848.14	2717.65
848.31	2484.19
848.48	2291.68
848.65	2461.66
848.82	2338.78
848.98	2809.81
849.15	2482.14
849.32	2514.91
849.49	2695.13
849.66	2449.37
849.83	2412.51
850.00	2254.81
850.17	2467.80
850.34	2396.12
850.51	2314.20
850.68	2420.70
850.85	2768.85
851.01	2572.25
851.18	2389.98
851.35	2389.98
851.52	2576.34
851.69	2635.74
851.86	2322.40
852.03	2330.59
852.20	2594.78
852.37	2529.24
852.53	2277.34
852.70	2363.36
852.87	2463.71
853.04	2539.48
853.21	2385.88
853.38	2516.95
853.55	2619.35
853.72	2672.60
853.89	2373.60
854.05	2373.60
854.22	2512.86
854.39	2428.89
854.56	2463.71
854.73	2551.77
854.90	2318.30
855.07	2435.03
855.23	2293.72
855.40	2346.97
855.57	2455.51
855.74	2303.96
855.91	2590.68
856.08	2254.81
856.25	2338.78
856.41	2377.69
856.58	2336.73
856.75	2383.84
856.92	2338.78
857.09	2584.54
857.26	2283.49
857.42	2377.69
857.59	2496.47
857.76	2369.50
857.93	2359.26
858.10	2398.17
858.27	2349.02
858.43	2508.76
858.60	2295.77
858.77	2326.49
858.94	2389.98
859.11	2627.54
859.27	2420.70
859.44	2365.40
859.61	2648.02
859.78	2557.91
859.95	2293.72
860.12	2306.01
860.28	2662.36
860.45	2787.29
860.62	2330.59
860.79	2461.66
860.95	2408.41
861.12	2371.55
861.29	2414.56
861.46	2330.59
861.63	2506.71
861.79	2490.33
861.96	2273.25
862.13	2375.64
862.30	2637.78
862.47	2396.12
862.63	2306.01
862.80	2535.39
862.97	2574.30
863.14	2592.73
863.30	2432.99
863.47	2365.40
863.64	2568.15
863.81	2488.28
863.97	2371.55
864.14	2449.37
864.31	2465.75
864.48	2541.53
864.65	2445.27
864.81	2449.37
864.98	2523.10
865.15	2514.91
865.32	2420.70
865.48	2443.23
865.65	2670.55
865.82	2389.98
865.98	2396.12
866.15	2422.75
866.32	2455.51
866.49	2422.75
866.65	2469.85
866.82	2357.21
866.99	2422.75
867.16	2404.32
867.32	2346.97
867.49	2299.87
867.66	2478.04
867.83	2437.08
867.99	2252.77
868.16	2430.94
868.33	2279.39
868.49	2447.32
868.66	2371.55
868.83	2424.80
868.99	2471.90
869.16	2445.27
869.33	2508.76
869.50	2353.12
869.66	2467.80
869.83	2537.43
870.00	2246.62
870.16	2432.99
870.33	2502.62
870.50	2600.92
870.66	2396.12
870.83	2465.75
871.00	2482.14
871.17	2551.77
871.33	2463.71
871.50	2324.44
871.67	2408.41
871.83	2256.86
872.00	2502.62
872.17	2338.78
872.33	2666.46
872.50	2619.35
872.67	2336.73
872.83	2332.64
873.00	2562.01
873.17	2408.41
873.33	2441.18
873.50	2392.03
873.67	2400.22
873.83	2408.41
874.00	2363.36
874.16	2404.32
874.33	2416.60
874.50	2353.12
874.66	2430.94
874.83	2387.93
875.00	2613.21
875.16	2578.39
875.33	2521.05
875.50	2250.72
875.66	2355.16
875.83	2539.48
875.99	2461.66
876.16	2439.13
876.33	2353.12
876.49	2428.89
876.66	2383.84
876.83	2422.75
876.99	2256.86
877.16	2543.58
877.32	2308.06
877.49	2357.21
877.66	2435.03
877.82	2662.36
877.99	2521.05
878.15	2555.86
878.32	2535.39
878.49	2465.75
878.65	2398.17
878.82	2617.30
878.98	2346.97
879.15	2605.02
879.32	2510.81
879.48	2441.18
879.65	2478.04
879.81	2420.70
879.98	2326.49
880.15	2402.27
880.31	2539.48
880.48	2275.29
880.64	2502.62
880.81	2486.23
880.97	2621.40
881.14	2619.35
881.31	2293.72
881.47	2570.20
881.64	2445.27
881.80	2250.72
881.97	2475.99
882.13	2377.69
882.30	2408.41
882.47	2383.84
882.63	2424.80
882.80	2330.59
882.96	2402.27
883.13	2611.16
883.29	2416.60
883.46	2430.94
883.62	2709.46
883.79	2486.23
883.95	2496.47
884.12	2400.22
884.29	2652.12
884.45	2439.13
884.62	2428.89
884.78	2359.26
884.95	2652.12
885.11	2383.84
885.28	2457.56
885.44	2422.75
885.61	2539.48
885.77	2625.50
885.94	2443.23
886.10	2437.08
886.27	2471.90
886.43	2707.41
886.60	2564.06
886.76	2322.40
886.93	2387.93
887.09	2498.52
887.26	2250.72
887.42	2340.83
887.59	2551.77
887.75	2744.28
887.92	2523.10
888.08	2527.19
888.25	2719.70
888.41	2611.16
888.58	2478.04
888.74	2226.14
888.91	2414.56
>>>>>End Processed Spectral Data<<<<<
