SpectraSuite Data File
++++++++++++++++++++++++++++++++++++
Date: Thu May 05 14:41:45 CEST 2016
User: root
Dark Spectrum Present: No
Reference Spectrum Present: No
Number of Sampled Component Spectra: 1
Spectrometers: USB4C02835
Integration Time (usec): 100000 (USB4C02835)
Spectra Averaged: 1 (USB4C02835)
Boxcar Smoothing: 0 (USB4C02835)
Correct for Electrical Dark: No (USB4C02835)
Strobe/Lamp Enabled: No (USB4C02835)
Correct for Detector Non-linearity: No (USB4C02835)
Correct for Stray Light: No (USB4C02835)
Number of Pixels in Processed Spectrum: 3648
>>>>>Begin Processed Spectral Data<<<<<
177.47	1931.23
177.69	1931.23
177.91	1931.23
178.13	1978.34
178.36	1925.09
178.58	2371.55
178.80	2461.66
179.02	2303.96
179.24	2392.03
179.46	2260.96
179.68	2396.12
179.90	2465.75
180.13	2473.95
180.35	2269.15
180.57	2408.41
180.79	2627.54
181.01	2488.28
181.23	2338.78
181.45	2533.34
181.67	2498.52
181.90	2568.15
182.12	2398.17
182.34	2193.37
182.56	2502.62
182.78	2545.63
183.00	2267.10
183.22	2398.17
183.44	2269.15
183.66	2832.34
183.89	2402.27
184.11	2312.16
184.33	2537.43
184.55	2605.02
184.77	2295.77
184.99	2420.70
185.21	2387.93
185.43	2762.71
185.65	2306.01
185.87	2289.63
186.10	2678.74
186.32	2805.72
186.54	2445.27
186.76	2506.71
186.98	2635.74
187.20	2455.51
187.42	2457.56
187.64	2365.40
187.86	2478.04
188.08	2613.21
188.30	2273.25
188.52	2387.93
188.75	2602.97
188.97	2564.06
189.19	2355.16
189.41	2357.21
189.63	2547.67
189.85	2346.97
190.07	2234.33
190.29	2205.66
190.51	2537.43
190.73	2326.49
190.95	2523.10
191.17	2412.51
191.39	2271.20
191.61	2443.23
191.84	2324.44
192.06	2447.32
192.28	2287.58
192.50	2801.62
192.72	2471.90
192.94	2422.75
193.16	2629.59
193.38	2494.43
193.60	2295.77
193.82	2447.32
194.04	2580.44
194.26	2525.15
194.48	2355.16
194.70	2355.16
194.92	2396.12
195.14	2543.58
195.36	2271.20
195.58	2463.71
195.80	2496.47
196.02	2527.19
196.24	2324.44
196.46	2375.64
196.69	2416.60
196.91	2775.00
197.13	2383.84
197.35	2408.41
197.57	2633.69
197.79	2547.67
198.01	2369.50
198.23	2398.17
198.45	2559.96
198.67	2398.17
198.89	2310.11
199.11	2439.13
199.33	2478.04
199.55	2252.77
199.77	2310.11
199.99	2383.84
200.21	2432.99
200.43	2568.15
200.65	2303.96
200.87	2224.09
201.09	2506.71
201.31	2488.28
201.53	2389.98
201.75	2463.71
201.97	2537.43
202.19	2392.03
202.41	2439.13
202.63	2576.34
202.85	2570.20
203.07	2471.90
203.29	2322.40
203.51	2293.72
203.73	2351.07
203.95	2811.86
204.17	2342.88
204.39	2457.56
204.61	2416.60
204.83	2416.60
205.05	2449.37
205.27	2389.98
205.49	2691.03
205.71	2482.14
205.93	2215.90
206.15	2256.86
206.37	2498.52
206.59	2392.03
206.81	2265.05
207.03	2277.34
207.25	2404.32
207.47	2531.29
207.69	2332.64
207.91	2559.96
208.13	2695.13
208.34	2461.66
208.56	2263.01
208.78	2328.54
209.00	2437.08
209.22	2441.18
209.44	2375.64
209.66	2344.92
209.88	2514.91
210.10	2482.14
210.32	2324.44
210.54	2392.03
210.76	2463.71
210.98	2527.19
211.20	2179.04
211.42	2449.37
211.64	2678.74
211.86	2627.54
212.08	2400.22
212.30	2340.83
212.52	2371.55
212.74	2457.56
212.96	2342.88
213.17	2428.89
213.39	2490.33
213.61	2756.57
213.83	2367.45
214.05	2435.03
214.27	2607.06
214.49	2308.06
214.71	2351.07
214.93	2455.51
215.15	2473.95
215.37	2631.64
215.59	2289.63
215.81	2432.99
216.03	2625.50
216.24	2406.36
216.46	2326.49
216.68	2445.27
216.90	2543.58
217.12	2555.86
217.34	2418.65
217.56	2416.60
217.78	2650.07
218.00	2529.24
218.22	2435.03
218.44	2418.65
218.66	2553.82
218.87	2697.17
219.09	2293.72
219.31	2379.74
219.53	2543.58
219.75	2408.41
219.97	2351.07
220.19	2420.70
220.41	2504.67
220.63	2650.07
220.85	2404.32
221.06	2326.49
221.28	2512.86
221.50	2549.72
221.72	2379.74
221.94	2330.59
222.16	2494.43
222.38	2605.02
222.60	2316.25
222.82	2389.98
223.03	2645.98
223.25	2379.74
223.47	2324.44
223.69	2504.67
223.91	2572.25
224.13	2441.18
224.35	2279.39
224.57	2453.47
224.78	2650.07
225.00	2256.86
225.22	2398.17
225.44	2306.01
225.66	2570.20
225.88	2432.99
226.10	2377.69
226.32	2408.41
226.53	2658.26
226.75	2449.37
226.97	2336.73
227.19	2330.59
227.41	2379.74
227.63	2408.41
227.85	2156.51
228.06	2420.70
228.28	2447.32
228.50	2598.87
228.72	2293.72
228.94	2394.08
229.16	2230.24
229.37	2316.25
229.59	2226.14
229.81	2496.47
230.03	2514.91
230.25	2332.64
230.47	2240.48
230.69	2265.05
230.90	2592.73
231.12	2332.64
231.34	2404.32
231.56	2396.12
231.78	2342.88
232.00	2455.51
232.21	2322.40
232.43	2383.84
232.65	2228.19
232.87	2516.95
233.09	2240.48
233.30	2248.67
233.52	2596.82
233.74	2439.13
233.96	2265.05
234.18	2394.08
234.40	2461.66
234.61	2695.13
234.83	2246.62
235.05	2232.29
235.27	2783.19
235.49	2613.21
235.70	2273.25
235.92	2459.61
236.14	2492.38
236.36	2760.66
236.58	2263.01
236.79	2428.89
237.01	2469.85
237.23	2500.57
237.45	2598.87
237.67	2324.44
237.88	2596.82
238.10	2666.46
238.32	2277.34
238.54	2306.01
238.76	2447.32
238.97	2469.85
239.19	2301.92
239.41	2408.41
239.63	2725.85
239.85	2406.36
240.06	2359.26
240.28	2375.64
240.50	2684.89
240.72	2492.38
240.93	2248.67
241.15	2410.46
241.37	2480.09
241.59	2568.15
241.81	2324.44
242.02	2383.84
242.24	2500.57
242.46	2549.72
242.68	2166.75
242.89	2346.97
243.11	2541.53
243.33	2439.13
243.55	2412.51
243.76	2363.36
243.98	2383.84
244.20	2447.32
244.42	2310.11
244.64	2340.83
244.85	2377.69
245.07	2445.27
245.29	2375.64
245.51	2420.70
245.72	2531.29
245.94	2639.83
246.16	2379.74
246.38	2424.80
246.59	2457.56
246.81	2432.99
247.03	2295.77
247.24	2170.85
247.46	2428.89
247.68	2529.24
247.90	2318.30
248.11	2289.63
248.33	2590.68
248.55	2490.33
248.77	2414.56
248.98	2420.70
249.20	2660.31
249.42	2471.90
249.64	2367.45
249.85	2299.87
250.07	2349.02
250.29	2514.91
250.50	2404.32
250.72	2258.91
250.94	2539.48
251.16	2799.57
251.37	2383.84
251.59	2441.18
251.81	2523.10
252.02	2639.83
252.24	2340.83
252.46	2443.23
252.68	2385.88
252.89	2428.89
253.11	2187.23
253.33	2443.23
253.54	2654.17
253.76	2326.49
253.98	2310.11
254.20	2389.98
254.41	2357.21
254.63	2492.38
254.85	2258.91
255.06	2463.71
255.28	2529.24
255.50	2422.75
255.71	2310.11
255.93	2248.67
256.15	2424.80
256.36	2605.02
256.58	2316.25
256.80	2355.16
257.02	2504.67
257.23	2432.99
257.45	2400.22
257.67	2369.50
257.88	2318.30
258.10	2553.82
258.32	2349.02
258.53	2490.33
258.75	2670.55
258.97	2467.80
259.18	2334.68
259.40	2355.16
259.62	2658.26
259.83	2613.21
260.05	2351.07
260.27	2875.35
260.48	2586.58
260.70	2316.25
260.92	2269.15
261.13	2402.27
261.35	2529.24
261.57	2582.49
261.78	2359.26
262.00	2310.11
262.22	2506.71
262.43	2379.74
262.65	2394.08
262.86	2416.60
263.08	2701.27
263.30	2492.38
263.51	2138.08
263.73	2314.20
263.95	2605.02
264.16	2439.13
264.38	2326.49
264.60	2346.97
264.81	2449.37
265.03	2570.20
265.25	2562.01
265.46	2381.79
265.68	2711.51
265.89	2557.91
266.11	2256.86
266.33	2326.49
266.54	2695.13
266.76	2629.59
266.98	2379.74
267.19	2463.71
267.41	2598.87
267.62	2432.99
267.84	2244.57
268.06	2473.95
268.27	2490.33
268.49	2596.82
268.70	2453.47
268.92	2314.20
269.14	2363.36
269.35	2230.24
269.57	2420.70
269.79	2461.66
270.00	2428.89
270.22	2709.46
270.43	2238.43
270.65	2199.52
270.87	2471.90
271.08	2586.58
271.30	2439.13
271.51	2269.15
271.73	2605.02
271.95	2623.45
272.16	2314.20
272.38	2459.61
272.59	2482.14
272.81	2551.77
273.02	2367.45
273.24	2394.08
273.46	2594.78
273.67	2367.45
273.89	2211.81
274.10	2318.30
274.32	2572.25
274.54	2623.45
274.75	2402.27
274.97	2361.31
275.18	2541.53
275.40	2609.11
275.61	2363.36
275.83	2496.47
276.05	2371.55
276.26	2490.33
276.48	2398.17
276.69	2353.12
276.91	2371.55
277.12	2697.17
277.34	2512.86
277.55	2457.56
277.77	2514.91
277.99	2547.67
278.20	2377.69
278.42	2303.96
278.63	2437.08
278.85	2414.56
279.06	2301.92
279.28	2555.86
279.49	2580.44
279.71	2594.78
279.93	2387.93
280.14	2473.95
280.36	2461.66
280.57	2615.26
280.79	2498.52
281.00	2369.50
281.22	2340.83
281.43	2629.59
281.65	2193.37
281.86	2342.88
282.08	2586.58
282.29	2750.42
282.51	2328.54
282.73	2303.96
282.94	2283.49
283.16	2549.72
283.37	2564.06
283.59	2439.13
283.80	2531.29
284.02	2461.66
284.23	2453.47
284.45	2435.03
284.66	2414.56
284.88	2394.08
285.09	2465.75
285.31	2541.53
285.52	2568.15
285.74	2351.07
285.95	2574.30
286.17	2523.10
286.38	2543.58
286.60	2387.93
286.81	2365.40
287.03	2435.03
287.24	2455.51
287.46	2557.91
287.67	2424.80
287.89	2668.50
288.10	2535.39
288.32	2478.04
288.53	2645.98
288.75	2416.60
288.96	2568.15
289.18	2400.22
289.39	2359.26
289.61	2504.67
289.82	2719.70
290.04	2764.76
290.25	2285.53
290.47	2400.22
290.68	2504.67
290.90	2580.44
291.11	2291.68
291.33	2543.58
291.54	2387.93
291.76	2410.46
291.97	2461.66
292.18	2486.23
292.40	2494.43
292.61	2369.50
292.83	2629.59
293.04	2541.53
293.26	2527.19
293.47	2408.41
293.69	2346.97
293.90	2379.74
294.12	2594.78
294.33	2475.99
294.55	2461.66
294.76	2555.86
294.97	2654.17
295.19	2691.03
295.40	2392.03
295.62	2428.89
295.83	2506.71
296.05	2394.08
296.26	2615.26
296.48	2379.74
296.69	2414.56
296.90	2486.23
297.12	2506.71
297.33	2545.63
297.55	2463.71
297.76	2600.92
297.98	2482.14
298.19	2480.09
298.41	2523.10
298.62	2428.89
298.83	2582.49
299.05	2516.95
299.26	2402.27
299.48	2396.12
299.69	2553.82
299.90	2400.22
300.12	2441.18
300.33	2621.40
300.55	2490.33
300.76	2471.90
300.98	2367.45
301.19	2555.86
301.40	2445.27
301.62	2455.51
301.83	2514.91
302.05	2512.86
302.26	2322.40
302.47	2471.90
302.69	2336.73
302.90	2553.82
303.12	2129.89
303.33	2512.86
303.54	2785.24
303.76	2404.32
303.97	2424.80
304.19	2586.58
304.40	2349.02
304.61	2566.10
304.83	2611.16
305.04	2527.19
305.26	2521.05
305.47	2514.91
305.68	2377.69
305.90	2228.19
306.11	2586.58
306.33	2463.71
306.54	2326.49
306.75	2420.70
306.97	2285.53
307.18	2398.17
307.39	2363.36
307.61	2490.33
307.82	2488.28
308.04	2555.86
308.25	2326.49
308.46	2514.91
308.68	2445.27
308.89	2506.71
309.10	2473.95
309.32	2414.56
309.53	2463.71
309.74	2551.77
309.96	2449.37
310.17	2596.82
310.39	2404.32
310.60	2559.96
310.81	2371.55
311.03	2326.49
311.24	2637.78
311.45	2441.18
311.67	2570.20
311.88	2461.66
312.09	2449.37
312.31	2375.64
312.52	2369.50
312.73	2435.03
312.95	2342.88
313.16	2377.69
313.37	2559.96
313.59	2566.10
313.80	2516.95
314.01	2682.84
314.23	2402.27
314.44	2375.64
314.65	2326.49
314.87	2389.98
315.08	2392.03
315.29	2396.12
315.51	2396.12
315.72	2301.92
315.93	2555.86
316.15	2406.36
316.36	2459.61
316.57	2428.89
316.79	2488.28
317.00	2340.83
317.21	2547.67
317.43	2412.51
317.64	2406.36
317.85	2308.06
318.07	2355.16
318.28	2521.05
318.49	2600.92
318.70	2686.94
318.92	2627.54
319.13	2625.50
319.34	2672.60
319.56	2564.06
319.77	2672.60
319.98	2652.12
320.20	2568.15
320.41	2564.06
320.62	2549.72
320.83	2424.80
321.05	2609.11
321.26	2506.71
321.47	2492.38
321.69	2656.22
321.90	2312.16
322.11	2357.21
322.32	2574.30
322.54	2729.94
322.75	2418.65
322.96	2875.35
323.18	2351.07
323.39	2201.57
323.60	2359.26
323.81	2480.09
324.03	2381.79
324.24	2478.04
324.45	2498.52
324.66	2416.60
324.88	2645.98
325.09	2635.74
325.30	2377.69
325.52	2377.69
325.73	2496.47
325.94	2310.11
326.15	2203.61
326.37	2318.30
326.58	2596.82
326.79	2576.34
327.00	2488.28
327.22	2402.27
327.43	2480.09
327.64	2430.94
327.85	2543.58
328.07	2379.74
328.28	2805.72
328.49	2383.84
328.70	2461.66
328.92	2365.40
329.13	2510.81
329.34	2537.43
329.55	2598.87
329.76	2486.23
329.98	2535.39
330.19	2559.96
330.40	2521.05
330.61	2498.52
330.83	2645.98
331.04	2349.02
331.25	2510.81
331.46	2373.60
331.68	2392.03
331.89	2586.58
332.10	2381.79
332.31	2326.49
332.52	2455.51
332.74	2654.17
332.95	2289.63
333.16	2344.92
333.37	2578.39
333.58	2408.41
333.80	2504.67
334.01	2248.67
334.22	2416.60
334.43	2449.37
334.64	2334.68
334.86	2344.92
335.07	2430.94
335.28	2678.74
335.49	2373.60
335.70	2506.71
335.92	2627.54
336.13	2777.05
336.34	2512.86
336.55	2478.04
336.76	2498.52
336.98	2265.05
337.19	2379.74
337.40	2629.59
337.61	2781.14
337.82	2408.41
338.04	2584.54
338.25	2260.96
338.46	2443.23
338.67	2426.84
338.88	2308.06
339.09	2351.07
339.31	2432.99
339.52	2314.20
339.73	2340.83
339.94	2459.61
340.15	2539.48
340.36	2430.94
340.58	2449.37
340.79	2346.97
341.00	2564.06
341.21	2353.12
341.42	2519.00
341.63	2402.27
341.85	2588.63
342.06	2482.14
342.27	2318.30
342.48	2473.95
342.69	2351.07
342.90	2535.39
343.12	2596.82
343.33	2387.93
343.54	2586.58
343.75	2703.32
343.96	2463.71
344.17	2379.74
344.38	2465.75
344.60	2441.18
344.81	2355.16
345.02	2351.07
345.23	2615.26
345.44	2865.11
345.65	2445.27
345.86	2484.19
346.07	2578.39
346.29	2400.22
346.50	2506.71
346.71	2545.63
346.92	2676.70
347.13	2715.61
347.34	2420.70
347.55	2414.56
347.76	2590.68
347.98	2299.87
348.19	2432.99
348.40	2602.97
348.61	2473.95
348.82	2639.83
349.03	2439.13
349.24	2400.22
349.45	2641.88
349.66	2240.48
349.88	2447.32
350.09	2308.06
350.30	2584.54
350.51	2627.54
350.72	2506.71
350.93	2441.18
351.14	2392.03
351.35	2539.48
351.56	2457.56
351.77	2465.75
351.99	2559.96
352.20	2621.40
352.41	2547.67
352.62	2193.37
352.83	2441.18
353.04	2426.84
353.25	2406.36
353.46	2531.29
353.67	2684.89
353.88	2228.19
354.09	2430.94
354.30	2490.33
354.52	2564.06
354.73	2461.66
354.94	2402.27
355.15	2478.04
355.36	2758.61
355.57	2400.22
355.78	2365.40
355.99	2389.98
356.20	2510.81
356.41	2578.39
356.62	2545.63
356.83	2383.84
357.04	2695.13
357.25	2248.67
357.46	2437.08
357.68	2306.01
357.89	2258.91
358.10	2473.95
358.31	2449.37
358.52	2428.89
358.73	2320.35
358.94	2301.92
359.15	2387.93
359.36	2529.24
359.57	2482.14
359.78	2445.27
359.99	2592.73
360.20	2402.27
360.41	2482.14
360.62	2562.01
360.83	2457.56
361.04	2514.91
361.25	2412.51
361.46	2654.17
361.67	2547.67
361.88	2475.99
362.09	2574.30
362.30	2449.37
362.51	2355.16
362.72	2404.32
362.93	2578.39
363.14	2559.96
363.35	2502.62
363.56	2326.49
363.78	2654.17
363.99	2588.63
364.20	2422.75
364.41	2514.91
364.62	2715.61
364.83	2572.25
365.04	2437.08
365.25	2351.07
365.46	2721.75
365.67	2349.02
365.88	2457.56
366.09	2351.07
366.30	2416.60
366.51	2492.38
366.72	2422.75
366.93	2432.99
367.14	2547.67
367.35	2686.94
367.56	2398.17
367.77	2576.34
367.98	2457.56
368.18	2500.57
368.39	2508.76
368.60	2330.59
368.81	2498.52
369.02	2494.43
369.23	2412.51
369.44	2254.81
369.65	2416.60
369.86	2516.95
370.07	2531.29
370.28	2404.32
370.49	2582.49
370.70	2516.95
370.91	2369.50
371.12	2330.59
371.33	2645.98
371.54	2457.56
371.75	2580.44
371.96	2201.57
372.17	2480.09
372.38	2445.27
372.59	2545.63
372.80	2410.46
373.01	2428.89
373.22	2502.62
373.43	2459.61
373.64	2301.92
373.85	2666.46
374.06	2760.66
374.26	2539.48
374.47	2525.15
374.68	2613.21
374.89	2523.10
375.10	2420.70
375.31	2502.62
375.52	2490.33
375.73	2568.15
375.94	2310.11
376.15	2547.67
376.36	2387.93
376.57	2404.32
376.78	2375.64
376.99	2480.09
377.20	2645.98
377.40	2531.29
377.61	2641.88
377.82	2371.55
378.03	2654.17
378.24	2547.67
378.45	2400.22
378.66	2496.47
378.87	2293.72
379.08	2355.16
379.29	2338.78
379.50	2559.96
379.71	2482.14
379.91	2549.72
380.12	2363.36
380.33	2351.07
380.54	2461.66
380.75	2426.84
380.96	2455.51
381.17	2508.76
381.38	2480.09
381.59	2529.24
381.80	2506.71
382.00	2707.41
382.21	2478.04
382.42	2633.69
382.63	2738.13
382.84	2465.75
383.05	2586.58
383.26	2637.78
383.47	2521.05
383.68	2494.43
383.88	2639.83
384.09	2447.32
384.30	2670.55
384.51	2521.05
384.72	2414.56
384.93	2277.34
385.14	2519.00
385.35	2582.49
385.55	2363.36
385.76	2682.84
385.97	2406.36
386.18	2324.44
386.39	2371.55
386.60	2332.64
386.81	2412.51
387.02	2320.35
387.22	2349.02
387.43	2559.96
387.64	2527.19
387.85	2625.50
388.06	2609.11
388.27	4059.07
388.48	8433.54
388.68	12164.93
388.89	14577.44
389.10	15879.95
389.31	14845.73
389.52	11892.55
389.73	10143.59
389.93	9260.91
390.14	8312.71
390.35	7630.73
390.56	6715.29
390.77	5406.64
390.98	4202.43
391.18	3407.82
391.39	2914.26
391.60	2529.24
391.81	2645.98
392.02	2445.27
392.23	2846.68
392.43	2539.48
392.64	2555.86
392.85	2488.28
393.06	2752.47
393.27	2557.91
393.47	2357.21
393.68	2414.56
393.89	2480.09
394.10	2586.58
394.31	2357.21
394.52	2334.68
394.72	2310.11
394.93	2662.36
395.14	2455.51
395.35	2475.99
395.56	2400.22
395.76	2408.41
395.97	2342.88
396.18	2523.10
396.39	2584.54
396.60	2977.75
396.80	2719.70
397.01	2654.17
397.22	2559.96
397.43	2711.51
397.64	2445.27
397.84	2582.49
398.05	2713.56
398.26	2551.77
398.47	2506.71
398.67	2645.98
398.88	2506.71
399.09	2549.72
399.30	2426.84
399.51	2574.30
399.71	2402.27
399.92	2527.19
400.13	2471.90
400.34	2484.19
400.54	2416.60
400.75	2662.36
400.96	2463.71
401.17	2703.32
401.37	2570.20
401.58	2432.99
401.79	2443.23
402.00	2574.30
402.21	2940.88
402.41	2709.46
402.62	2824.15
402.83	2975.70
403.04	2875.35
403.24	3104.72
403.45	2594.78
403.66	2805.72
403.87	2703.32
404.07	2777.05
404.28	2777.05
404.49	2688.98
404.70	2611.16
404.90	2572.25
405.11	2408.41
405.32	2566.10
405.52	2392.03
405.73	2383.84
405.94	2351.07
406.15	2441.18
406.35	2537.43
406.56	2572.25
406.77	2469.85
406.98	2533.34
407.18	2449.37
407.39	2609.11
407.60	2437.08
407.80	2441.18
408.01	2471.90
408.22	2543.58
408.43	2404.32
408.63	2488.28
408.84	2514.91
409.05	2668.50
409.25	2394.08
409.46	2389.98
409.67	2455.51
409.88	2367.45
410.08	2508.76
410.29	2365.40
410.50	2602.97
410.70	2594.78
410.91	2283.49
411.12	2484.19
411.32	2494.43
411.53	2453.47
411.74	2523.10
411.95	2605.02
412.15	2580.44
412.36	2584.54
412.57	2586.58
412.77	2504.67
412.98	2465.75
413.19	2400.22
413.39	2523.10
413.60	2492.38
413.81	2629.59
414.01	2488.28
414.22	2531.29
414.43	2574.30
414.63	2432.99
414.84	2658.26
415.05	2453.47
415.25	2332.64
415.46	2572.25
415.67	2408.41
415.87	2506.71
416.08	2461.66
416.29	2463.71
416.49	2613.21
416.70	2414.56
416.91	2410.46
417.11	2447.32
417.32	2654.17
417.53	2500.57
417.73	2555.86
417.94	2441.18
418.15	2490.33
418.35	2531.29
418.56	2457.56
418.77	2824.15
418.97	2504.67
419.18	2486.23
419.38	2209.76
419.59	2502.62
419.80	2676.70
420.00	2381.79
420.21	2375.64
420.42	2639.83
420.62	2498.52
420.83	2392.03
421.04	2480.09
421.24	2510.81
421.45	2504.67
421.65	2465.75
421.86	2371.55
422.07	2576.34
422.27	2543.58
422.48	2473.95
422.69	2318.30
422.89	2529.24
423.10	2449.37
423.30	2359.26
423.51	2408.41
423.72	2482.14
423.92	2600.92
424.13	2351.07
424.33	2439.13
424.54	2588.63
424.75	2504.67
424.95	2645.98
425.16	2430.94
425.36	2435.03
425.57	2531.29
425.78	2496.47
425.98	2519.00
426.19	2457.56
426.39	2367.45
426.60	2441.18
426.81	2574.30
427.01	2570.20
427.22	2349.02
427.42	2342.88
427.63	2338.78
427.83	2594.78
428.04	2736.09
428.25	2488.28
428.45	2523.10
428.66	2605.02
428.86	2490.33
429.07	2496.47
429.28	2465.75
429.48	2428.89
429.69	2416.60
429.89	2422.75
430.10	2328.54
430.30	2654.17
430.51	2662.36
430.71	2385.88
430.92	2430.94
431.13	2394.08
431.33	2514.91
431.54	2428.89
431.74	2576.34
431.95	2764.76
432.15	2322.40
432.36	2443.23
432.56	2482.14
432.77	2678.74
432.98	2709.46
433.18	2494.43
433.39	2420.70
433.59	2445.27
433.80	2686.94
434.00	2682.84
434.21	2441.18
434.41	2412.51
434.62	2820.05
434.82	2361.31
435.03	2367.45
435.23	2537.43
435.44	2301.92
435.64	2441.18
435.85	2539.48
436.06	2611.16
436.26	2664.41
436.47	2453.47
436.67	2353.12
436.88	2471.90
437.08	2609.11
437.29	2631.64
437.49	2568.15
437.70	2639.83
437.90	2453.47
438.11	2705.37
438.31	2519.00
438.52	2678.74
438.72	2625.50
438.93	2738.13
439.13	2609.11
439.34	2731.99
439.54	2480.09
439.75	2486.23
439.95	2498.52
440.16	2496.47
440.36	2478.04
440.57	2488.28
440.77	2494.43
440.98	2492.38
441.18	2557.91
441.39	2381.79
441.59	2412.51
441.80	2725.85
442.00	2412.51
442.21	2576.34
442.41	2346.97
442.62	2643.93
442.82	2412.51
443.02	2420.70
443.23	2531.29
443.43	2416.60
443.64	2668.50
443.84	2299.87
444.05	2553.82
444.25	2484.19
444.46	2514.91
444.66	2514.91
444.87	2617.30
445.07	2330.59
445.28	2529.24
445.48	2621.40
445.69	2562.01
445.89	2879.44
446.09	2484.19
446.30	2713.56
446.50	3047.38
446.71	4603.83
446.91	5824.42
447.12	6731.67
447.32	7036.82
447.53	6840.22
447.73	5371.82
447.93	4689.85
448.14	4480.96
448.34	4460.48
448.55	3815.37
448.75	3778.50
448.96	3583.95
449.16	3260.37
449.36	3155.92
449.57	2736.09
449.77	2512.86
449.98	2424.80
450.18	2588.63
450.39	2471.90
450.59	2545.63
450.79	2383.84
451.00	2521.05
451.20	2580.44
451.41	2424.80
451.61	2486.23
451.81	2609.11
452.02	2508.76
452.22	2430.94
452.43	2392.03
452.63	2365.40
452.84	2510.81
453.04	2412.51
453.24	2412.51
453.45	2486.23
453.65	2478.04
453.86	2465.75
454.06	2574.30
454.26	2570.20
454.47	2387.93
454.67	2686.94
454.87	2547.67
455.08	2439.13
455.28	2643.93
455.49	2533.34
455.69	2363.36
455.89	2740.18
456.10	2629.59
456.30	2430.94
456.51	2596.82
456.71	2512.86
456.91	2521.05
457.12	2469.85
457.32	2541.53
457.52	2449.37
457.73	2578.39
457.93	2645.98
458.14	2455.51
458.34	2340.83
458.54	2404.32
458.75	2455.51
458.95	2578.39
459.15	2607.06
459.36	2523.10
459.56	2475.99
459.76	2865.11
459.97	2488.28
460.17	2416.60
460.37	2592.73
460.58	2480.09
460.78	2615.26
460.99	2465.75
461.19	2432.99
461.39	2428.89
461.60	2516.95
461.80	2457.56
462.00	2402.27
462.21	2564.06
462.41	2420.70
462.61	2351.07
462.82	2244.57
463.02	2551.77
463.22	2502.62
463.43	2570.20
463.63	2389.98
463.83	2650.07
464.04	2572.25
464.24	2430.94
464.44	2439.13
464.64	2420.70
464.85	2537.43
465.05	2471.90
465.25	2408.41
465.46	2432.99
465.66	2686.94
465.86	2541.53
466.07	2553.82
466.27	2367.45
466.47	2328.54
466.68	2250.72
466.88	2668.50
467.08	2580.44
467.29	2555.86
467.49	2523.10
467.69	2492.38
467.89	2531.29
468.10	2512.86
468.30	2539.48
468.50	2641.88
468.71	2637.78
468.91	2445.27
469.11	2645.98
469.31	2535.39
469.52	2371.55
469.72	2727.89
469.92	2744.28
470.13	2506.71
470.33	2465.75
470.53	2641.88
470.73	2875.35
470.94	3325.90
471.14	3405.77
471.34	3913.67
471.54	3618.76
471.75	3434.44
471.95	3178.45
472.15	3078.10
472.36	2975.70
472.56	2918.36
472.76	2904.02
472.96	2930.64
473.17	2742.23
473.37	2734.04
473.57	2537.43
473.77	2576.34
473.98	2494.43
474.18	2402.27
474.38	2856.92
474.58	2449.37
474.79	2435.03
474.99	2557.91
475.19	2609.11
475.39	2308.06
475.60	2492.38
475.80	2482.14
476.00	2543.58
476.20	2473.95
476.41	2521.05
476.61	2543.58
476.81	2680.79
477.01	2420.70
477.21	2703.32
477.42	2619.35
477.62	2398.17
477.82	2637.78
478.02	2467.80
478.23	2553.82
478.43	2420.70
478.63	2455.51
478.83	2406.36
479.03	2457.56
479.24	2609.11
479.44	2752.47
479.64	2326.49
479.84	2256.86
480.04	2387.93
480.25	2662.36
480.45	2402.27
480.65	2445.27
480.85	2723.80
481.06	2426.84
481.26	2430.94
481.46	2514.91
481.66	2553.82
481.86	2400.22
482.06	2629.59
482.27	2455.51
482.47	2457.56
482.67	2578.39
482.87	2392.03
483.07	2613.21
483.28	2447.32
483.48	2312.16
483.68	2527.19
483.88	2375.64
484.08	2277.34
484.29	2359.26
484.49	2473.95
484.69	2283.49
484.89	2641.88
485.09	2631.64
485.29	2568.15
485.50	2500.57
485.70	2443.23
485.90	2625.50
486.10	2506.71
486.30	2514.91
486.50	2641.88
486.71	2514.91
486.91	2590.68
487.11	2625.50
487.31	2359.26
487.51	2555.86
487.71	2314.20
487.91	2295.77
488.12	2351.07
488.32	2289.63
488.52	2373.60
488.72	2179.04
488.92	2502.62
489.12	2643.93
489.32	2557.91
489.53	2523.10
489.73	2306.01
489.93	2717.65
490.13	2398.17
490.33	2314.20
490.53	2488.28
490.73	2619.35
490.94	2273.25
491.14	2602.97
491.34	2596.82
491.54	2731.99
491.74	3405.77
491.94	3956.68
492.14	4372.41
492.34	4380.61
492.54	4126.66
492.75	3522.51
492.95	3477.45
493.15	3293.13
493.35	3207.12
493.55	3049.43
493.75	2922.45
493.95	3020.75
494.15	2742.23
494.35	2596.82
494.56	2566.10
494.76	2480.09
494.96	2529.24
495.16	2381.79
495.36	2559.96
495.56	2469.85
495.76	2482.14
495.96	2453.47
496.16	2400.22
496.36	2762.71
496.56	2449.37
496.77	2588.63
496.97	2492.38
497.17	2650.07
497.37	2285.53
497.57	2514.91
497.77	2543.58
497.97	2306.01
498.17	2482.14
498.37	2402.27
498.57	2465.75
498.77	2426.84
498.97	2508.76
499.17	2738.13
499.38	2449.37
499.58	2602.97
499.78	2562.01
499.98	2645.98
500.18	2355.16
500.38	2488.28
500.58	2656.22
500.78	3182.54
500.98	5556.14
501.18	7387.02
501.38	9346.93
501.58	10254.18
501.78	10209.12
501.98	8103.81
502.18	6756.25
502.38	5894.05
502.58	5488.56
502.78	4843.45
502.98	4659.13
503.18	4558.78
503.38	4134.85
503.59	3674.06
503.79	3452.88
503.99	3196.88
504.19	3020.75
504.39	3051.47
504.59	3119.06
504.79	3104.72
504.99	3112.91
505.19	2830.29
505.39	2748.37
505.59	2797.53
505.79	2850.77
505.99	2594.78
506.19	2547.67
506.39	2719.70
506.59	2519.00
506.79	2498.52
506.99	2600.92
507.19	2512.86
507.39	2545.63
507.59	2392.03
507.79	2381.79
507.99	2392.03
508.19	2555.86
508.39	2457.56
508.59	2506.71
508.79	2486.23
508.99	2764.76
509.19	2394.08
509.39	2510.81
509.59	2408.41
509.79	2432.99
509.99	2498.52
510.19	2564.06
510.39	2508.76
510.59	2502.62
510.79	2432.99
510.99	2310.11
511.19	2461.66
511.39	2666.46
511.59	2586.58
511.79	2652.12
511.99	2404.32
512.19	2662.36
512.38	2418.65
512.58	2314.20
512.78	2439.13
512.98	2629.59
513.18	2693.08
513.38	2295.77
513.58	2547.67
513.78	2461.66
513.98	2508.76
514.18	2430.94
514.38	2457.56
514.58	2641.88
514.78	2439.13
514.98	2381.79
515.18	2519.00
515.38	2396.12
515.58	2750.42
515.78	2523.10
515.98	2340.83
516.18	2514.91
516.38	2570.20
516.57	2363.36
516.77	2455.51
516.97	2562.01
517.17	2504.67
517.37	2293.72
517.57	2531.29
517.77	2508.76
517.97	2484.19
518.17	2508.76
518.37	2355.16
518.57	2398.17
518.77	2463.71
518.97	2398.17
519.16	2482.14
519.36	2611.16
519.56	2404.32
519.76	2482.14
519.96	2490.33
520.16	2686.94
520.36	2361.31
520.56	2598.87
520.76	2424.80
520.96	2529.24
521.16	2600.92
521.35	2596.82
521.55	2516.95
521.75	2455.51
521.95	2449.37
522.15	2416.60
522.35	2336.73
522.55	2404.32
522.75	2611.16
522.95	2418.65
523.14	2396.12
523.34	2539.48
523.54	2455.51
523.74	2506.71
523.94	2498.52
524.14	2324.44
524.34	2559.96
524.54	2672.60
524.73	2406.36
524.93	2578.39
525.13	2588.63
525.33	2299.87
525.53	2678.74
525.73	2639.83
525.93	2578.39
526.13	2400.22
526.32	2482.14
526.52	2613.21
526.72	2648.02
526.92	2480.09
527.12	2424.80
527.32	2353.12
527.52	2521.05
527.71	2486.23
527.91	2500.57
528.11	2441.18
528.31	2557.91
528.51	2392.03
528.71	2533.34
528.90	2580.44
529.10	2621.40
529.30	2580.44
529.50	2217.95
529.70	2504.67
529.90	2445.27
530.09	2424.80
530.29	2371.55
530.49	2365.40
530.69	2838.48
530.89	2504.67
531.09	2582.49
531.28	2480.09
531.48	2594.78
531.68	2473.95
531.88	2502.62
532.08	2654.17
532.28	2408.41
532.47	2514.91
532.67	2568.15
532.87	2547.67
533.07	2412.51
533.27	2543.58
533.46	2514.91
533.66	2510.81
533.86	2506.71
534.06	2533.34
534.26	2457.56
534.45	2473.95
534.65	2641.88
534.85	2514.91
535.05	2373.60
535.25	2541.53
535.44	2387.93
535.64	2516.95
535.84	2463.71
536.04	2435.03
536.24	2416.60
536.43	2342.88
536.63	2494.43
536.83	2463.71
537.03	2521.05
537.22	2322.40
537.42	2228.19
537.62	2422.75
537.82	2340.83
538.02	2678.74
538.21	2555.86
538.41	2879.44
538.61	2602.97
538.81	2441.18
539.00	2572.25
539.20	2379.74
539.40	2461.66
539.60	2543.58
539.79	2564.06
539.99	2461.66
540.19	2334.68
540.39	2500.57
540.58	2523.10
540.78	2672.60
540.98	2508.76
541.18	2539.48
541.37	2537.43
541.57	2514.91
541.77	2578.39
541.97	2396.12
542.16	2303.96
542.36	2400.22
542.56	2502.62
542.76	2680.79
542.95	2535.39
543.15	2514.91
543.35	2537.43
543.54	2326.49
543.74	2330.59
543.94	2670.55
544.14	2424.80
544.33	2555.86
544.53	2432.99
544.73	2549.72
544.93	2453.47
545.12	2461.66
545.32	2508.76
545.52	2500.57
545.71	2291.68
545.91	2465.75
546.11	2498.52
546.30	2387.93
546.50	2461.66
546.70	2488.28
546.90	2457.56
547.09	2324.44
547.29	2527.19
547.49	2494.43
547.68	2539.48
547.88	2428.89
548.08	2504.67
548.27	2912.21
548.47	2392.03
548.67	2400.22
548.87	2541.53
549.06	2400.22
549.26	2484.19
549.46	2541.53
549.65	2445.27
549.85	2467.80
550.05	2525.15
550.24	2334.68
550.44	2525.15
550.64	2467.80
550.83	2457.56
551.03	2672.60
551.23	2633.69
551.42	2535.39
551.62	2420.70
551.82	2529.24
552.01	2406.36
552.21	2596.82
552.41	2461.66
552.60	2670.55
552.80	2400.22
553.00	2371.55
553.19	2480.09
553.39	2758.61
553.59	2396.12
553.78	2521.05
553.98	2424.80
554.17	2334.68
554.37	2514.91
554.57	2600.92
554.76	2369.50
554.96	2426.84
555.16	2582.49
555.35	2467.80
555.55	2572.25
555.75	2486.23
555.94	2490.33
556.14	2340.83
556.33	2432.99
556.53	2469.85
556.73	2527.19
556.92	2564.06
557.12	2570.20
557.32	2889.68
557.51	2645.98
557.71	2512.86
557.90	2643.93
558.10	2676.70
558.30	2539.48
558.49	2441.18
558.69	2469.85
558.88	2535.39
559.08	2533.34
559.28	2445.27
559.47	2445.27
559.67	2621.40
559.86	2682.84
560.06	2459.61
560.26	2432.99
560.45	2590.68
560.65	2447.32
560.84	2568.15
561.04	2369.50
561.24	2555.86
561.43	2373.60
561.63	2645.98
561.82	2621.40
562.02	2547.67
562.22	2473.95
562.41	2310.11
562.61	2355.16
562.80	2377.69
563.00	2729.94
563.19	2523.10
563.39	2504.67
563.59	2551.77
563.78	2342.88
563.98	2250.72
564.17	2349.02
564.37	2301.92
564.56	2469.85
564.76	2316.25
564.96	2686.94
565.15	2596.82
565.35	2770.90
565.54	2402.27
565.74	2453.47
565.93	2510.81
566.13	2594.78
566.32	2443.23
566.52	2521.05
566.71	2523.10
566.91	2621.40
567.11	2566.10
567.30	2349.02
567.50	2594.78
567.69	2473.95
567.89	2367.45
568.08	2418.65
568.28	2549.72
568.47	2369.50
568.67	2553.82
568.86	2432.99
569.06	2580.44
569.25	2523.10
569.45	2328.54
569.64	2430.94
569.84	2418.65
570.04	2531.29
570.23	2420.70
570.43	2396.12
570.62	2455.51
570.82	2711.51
571.01	2277.34
571.21	2465.75
571.40	2381.79
571.60	2570.20
571.79	2514.91
571.99	2529.24
572.18	2373.60
572.38	2496.47
572.57	2496.47
572.77	2527.19
572.96	2791.38
573.16	2523.10
573.35	2484.19
573.55	2635.74
573.74	2531.29
573.94	2533.34
574.13	2418.65
574.33	2586.58
574.52	2643.93
574.71	2447.32
574.91	2465.75
575.10	2351.07
575.30	2389.98
575.49	2424.80
575.69	2379.74
575.88	2490.33
576.08	2484.19
576.27	2588.63
576.47	2506.71
576.66	2648.02
576.86	2652.12
577.05	2465.75
577.25	2521.05
577.44	2660.31
577.64	2465.75
577.83	2637.78
578.02	2455.51
578.22	2619.35
578.41	2752.47
578.61	2555.86
578.80	2234.33
579.00	2484.19
579.19	2488.28
579.39	2629.59
579.58	2584.54
579.77	2396.12
579.97	2656.22
580.16	2602.97
580.36	2637.78
580.55	2523.10
580.75	2562.01
580.94	2482.14
581.13	2695.13
581.33	2674.65
581.52	2555.86
581.72	2772.95
581.91	2670.55
582.11	2492.38
582.30	2629.59
582.49	2580.44
582.69	2695.13
582.88	2527.19
583.08	2553.82
583.27	2691.03
583.47	2562.01
583.66	2373.60
583.85	2265.05
584.05	2516.95
584.24	2553.82
584.44	2592.73
584.63	2678.74
584.82	2693.08
585.02	2664.41
585.21	2662.36
585.41	2658.26
585.60	2637.78
585.79	2789.33
585.99	2785.24
586.18	2590.68
586.37	3168.21
586.57	5031.86
586.76	15118.11
586.96	34582.00
587.15	48401.69
587.34	57435.28
587.54	61918.29
587.73	56267.94
587.93	39759.27
588.12	30172.72
588.31	24075.92
588.51	21509.82
588.70	19689.17
588.89	17430.26
589.09	14919.45
589.28	12775.23
589.47	10243.94
589.67	8077.19
589.86	6199.20
590.06	4530.11
590.25	3921.86
590.44	3293.13
590.64	2969.55
590.83	2836.44
591.02	2803.67
591.22	2576.34
591.41	2652.12
591.60	2572.25
591.80	2795.48
591.99	2469.85
592.18	2432.99
592.38	2650.07
592.57	2449.37
592.76	2547.67
592.96	2480.09
593.15	2463.71
593.34	2588.63
593.54	2455.51
593.73	2582.49
593.92	2643.93
594.12	2611.16
594.31	2592.73
594.50	2631.64
594.70	2637.78
594.89	2832.34
595.08	2379.74
595.28	2580.44
595.47	2934.74
595.66	2654.17
595.86	2349.02
596.05	2381.79
596.24	2432.99
596.43	2740.18
596.63	2602.97
596.82	2627.54
597.01	2582.49
597.21	2699.22
597.40	2580.44
597.59	2555.86
597.79	2465.75
597.98	2617.30
598.17	2580.44
598.36	2531.29
598.56	2584.54
598.75	2408.41
598.94	2478.04
599.14	2514.91
599.33	2465.75
599.52	2529.24
599.71	2570.20
599.91	2531.29
600.10	2617.30
600.29	2584.54
600.48	2539.48
600.68	2541.53
600.87	2576.34
601.06	2332.64
601.26	2566.10
601.45	2473.95
601.64	2449.37
601.83	2676.70
602.03	2445.27
602.22	2408.41
602.41	2693.08
602.60	2797.53
602.80	2611.16
602.99	2605.02
603.18	2447.32
603.37	2519.00
603.57	2488.28
603.76	2584.54
603.95	2707.41
604.14	2510.81
604.34	2375.64
604.53	2504.67
604.72	2484.19
604.91	2521.05
605.10	2473.95
605.30	2293.72
605.49	2711.51
605.68	2547.67
605.87	2531.29
606.07	2371.55
606.26	2572.25
606.45	2576.34
606.64	2490.33
606.84	2437.08
607.03	2545.63
607.22	2736.09
607.41	2529.24
607.60	2504.67
607.80	2586.58
607.99	2502.62
608.18	2523.10
608.37	2469.85
608.56	2381.79
608.76	2574.30
608.95	2711.51
609.14	2531.29
609.33	2684.89
609.52	2787.29
609.72	2508.76
609.91	2631.64
610.10	2635.74
610.29	2691.03
610.48	2490.33
610.68	2625.50
610.87	2521.05
611.06	2627.54
611.25	2471.90
611.44	2609.11
611.63	2488.28
611.83	2631.64
612.02	2428.89
612.21	2598.87
612.40	2316.25
612.59	2430.94
612.79	2301.92
612.98	2447.32
613.17	2746.33
613.36	2490.33
613.55	2738.13
613.74	2492.38
613.93	2596.82
614.13	2830.29
614.32	2742.23
614.51	2691.03
614.70	2564.06
614.89	2457.56
615.08	2645.98
615.28	3057.62
615.47	2449.37
615.66	2547.67
615.85	2564.06
616.04	2613.21
616.23	2613.21
616.42	2574.30
616.62	2578.39
616.81	2547.67
617.00	2510.81
617.19	2469.85
617.38	2359.26
617.57	2447.32
617.76	2605.02
617.95	2682.84
618.15	2496.47
618.34	2586.58
618.53	2420.70
618.72	2727.89
618.91	2637.78
619.10	2621.40
619.29	2496.47
619.48	2504.67
619.68	2373.60
619.87	2463.71
620.06	2383.84
620.25	2594.78
620.44	2367.45
620.63	2457.56
620.82	2547.67
621.01	2555.86
621.20	2510.81
621.39	2562.01
621.59	2621.40
621.78	2482.14
621.97	2451.42
622.16	2531.29
622.35	2471.90
622.54	2584.54
622.73	2537.43
622.92	2351.07
623.11	2572.25
623.30	2469.85
623.49	2498.52
623.68	2449.37
623.88	2736.09
624.07	2564.06
624.26	2496.47
624.45	2486.23
624.64	2457.56
624.83	2527.19
625.02	2396.12
625.21	2506.71
625.40	2564.06
625.59	2701.27
625.78	2480.09
625.97	2611.16
626.16	2658.26
626.35	2701.27
626.54	2611.16
626.74	2703.32
626.93	2545.63
627.12	2490.33
627.31	2539.48
627.50	2463.71
627.69	2725.85
627.88	2430.94
628.07	2463.71
628.26	2310.11
628.45	2449.37
628.64	2379.74
628.83	2441.18
629.02	2416.60
629.21	2611.16
629.40	2582.49
629.59	2523.10
629.78	2398.17
629.97	2545.63
630.16	2488.28
630.35	2502.62
630.54	2529.24
630.73	2465.75
630.92	2490.33
631.11	2324.44
631.30	2449.37
631.49	2596.82
631.68	2463.71
631.87	2539.48
632.06	2349.02
632.25	2768.85
632.44	2555.86
632.63	2588.63
632.82	2535.39
633.01	2482.14
633.20	2600.92
633.39	2494.43
633.58	2408.41
633.77	2494.43
633.96	2625.50
634.15	2568.15
634.34	2512.86
634.53	2521.05
634.72	2463.71
634.91	2351.07
635.10	2443.23
635.29	2648.02
635.48	2506.71
635.67	2410.46
635.86	2316.25
636.05	2680.79
636.24	2504.67
636.43	2496.47
636.62	2465.75
636.81	2260.96
637.00	2537.43
637.19	2547.67
637.38	2453.47
637.57	2420.70
637.76	2629.59
637.95	2721.75
638.14	2570.20
638.33	2564.06
638.52	2543.58
638.71	2406.36
638.89	2428.89
639.08	2881.49
639.27	2656.22
639.46	2721.75
639.65	3180.50
639.84	3237.84
640.03	3364.81
640.22	3166.16
640.41	3182.54
640.60	2818.00
640.79	2795.48
640.98	2596.82
641.17	2760.66
641.36	2793.43
641.55	2686.94
641.74	2435.03
641.92	2469.85
642.11	2428.89
642.30	2510.81
642.49	2342.88
642.68	2437.08
642.87	2529.24
643.06	2584.54
643.25	2465.75
643.44	2389.98
643.63	2478.04
643.82	2613.21
644.00	2332.64
644.19	2457.56
644.38	2428.89
644.57	2539.48
644.76	2473.95
644.95	2459.61
645.14	2516.95
645.33	2504.67
645.52	2486.23
645.71	2349.02
645.89	2351.07
646.08	2432.99
646.27	2385.88
646.46	2695.13
646.65	2346.97
646.84	2521.05
647.03	2349.02
647.22	2525.15
647.40	2490.33
647.59	2490.33
647.78	2281.44
647.97	2402.27
648.16	2435.03
648.35	2635.74
648.54	2703.32
648.73	2449.37
648.91	2594.78
649.10	2461.66
649.29	2398.17
649.48	2455.51
649.67	2598.87
649.86	2537.43
650.05	2572.25
650.23	2703.32
650.42	2508.76
650.61	2719.70
650.80	2666.46
650.99	2723.80
651.18	2645.98
651.36	2572.25
651.55	2432.99
651.74	2592.73
651.93	2488.28
652.12	2467.80
652.31	2455.51
652.49	2568.15
652.68	2416.60
652.87	2643.93
653.06	2535.39
653.25	2693.08
653.44	2545.63
653.62	2672.60
653.81	2416.60
654.00	2400.22
654.19	2613.21
654.38	2824.15
654.56	2475.99
654.75	2512.86
654.94	2535.39
655.13	2539.48
655.32	2449.37
655.51	2629.59
655.69	2340.83
655.88	2596.82
656.07	2349.02
656.26	2447.32
656.45	2379.74
656.63	2455.51
656.82	2486.23
657.01	2521.05
657.20	2394.08
657.38	2658.26
657.57	2447.32
657.76	2326.49
657.95	2697.17
658.14	2377.69
658.32	2455.51
658.51	2314.20
658.70	2514.91
658.89	2617.30
659.08	2535.39
659.26	2623.45
659.45	2457.56
659.64	2674.65
659.83	2463.71
660.01	2818.00
660.20	2555.86
660.39	2754.52
660.58	2256.86
660.76	2502.62
660.95	2326.49
661.14	2543.58
661.33	2361.31
661.51	2447.32
661.70	2510.81
661.89	2551.77
662.08	2432.99
662.26	2349.02
662.45	2342.88
662.64	2674.65
662.83	2596.82
663.01	2383.84
663.20	2377.69
663.39	2725.85
663.58	2469.85
663.76	2387.93
663.95	2555.86
664.14	2463.71
664.32	2471.90
664.51	2383.84
664.70	2234.33
664.89	2516.95
665.07	2310.11
665.26	2633.69
665.45	2299.87
665.64	2568.15
665.82	2455.51
666.01	2533.34
666.20	2398.17
666.38	2547.67
666.57	2576.34
666.76	3936.20
666.95	9607.02
667.13	18015.98
667.32	22849.19
667.51	26506.86
667.69	28120.66
667.88	24737.41
668.07	17688.31
668.25	14524.19
668.44	12142.41
668.63	10432.35
668.81	9273.20
669.00	8040.33
669.19	7161.75
669.38	6240.16
669.56	5062.58
669.75	4378.56
669.94	3825.61
670.12	3252.17
670.31	2973.65
670.50	2736.09
670.68	2764.76
670.87	2627.54
671.06	2566.10
671.24	2523.10
671.43	2822.10
671.62	2519.00
671.80	2484.19
671.99	2529.24
672.18	2514.91
672.36	2637.78
672.55	2529.24
672.74	2439.13
672.92	2506.71
673.11	2605.02
673.29	2404.32
673.48	2592.73
673.67	2498.52
673.85	2547.67
674.04	2420.70
674.23	2555.86
674.41	2691.03
674.60	2342.88
674.79	2269.15
674.97	2361.31
675.16	2596.82
675.34	2658.26
675.53	2377.69
675.72	2531.29
675.90	2760.66
676.09	2461.66
676.28	2478.04
676.46	2365.40
676.65	2611.16
676.83	2387.93
677.02	2488.28
677.21	2459.61
677.39	2486.23
677.58	2449.37
677.77	2381.79
677.95	2351.07
678.14	2443.23
678.32	2387.93
678.51	2447.32
678.70	2715.61
678.88	2504.67
679.07	2527.19
679.25	2453.47
679.44	2422.75
679.63	2346.97
679.81	2531.29
680.00	2555.86
680.18	2566.10
680.37	2676.70
680.55	2519.00
680.74	2367.45
680.93	2263.01
681.11	2494.43
681.30	2512.86
681.48	2498.52
681.67	2408.41
681.85	2572.25
682.04	2432.99
682.23	2572.25
682.41	2432.99
682.60	2400.22
682.78	2430.94
682.97	2340.83
683.15	2416.60
683.34	2553.82
683.53	2707.41
683.71	2330.59
683.90	2707.41
684.08	2637.78
684.27	2424.80
684.45	2514.91
684.64	2664.41
684.82	2498.52
685.01	2555.86
685.19	2463.71
685.38	2680.79
685.57	2537.43
685.75	2375.64
685.94	2359.26
686.12	2398.17
686.31	2387.93
686.49	2678.74
686.68	2256.86
686.86	2508.76
687.05	2426.84
687.23	2621.40
687.42	2420.70
687.60	2297.82
687.79	2629.59
687.97	2639.83
688.16	2633.69
688.34	2621.40
688.53	2420.70
688.71	2592.73
688.90	2605.02
689.08	2396.12
689.27	2299.87
689.45	2584.54
689.64	2527.19
689.82	2449.37
690.01	2545.63
690.19	2512.86
690.38	2496.47
690.56	2598.87
690.75	2475.99
690.93	2414.56
691.12	2392.03
691.30	2512.86
691.49	2441.18
691.67	2545.63
691.86	2645.98
692.04	2408.41
692.23	2480.09
692.41	2605.02
692.60	2719.70
692.78	2637.78
692.97	2496.47
693.15	2555.86
693.34	2686.94
693.52	2582.49
693.71	2441.18
693.89	2439.13
694.08	2283.49
694.26	2553.82
694.44	2596.82
694.63	2613.21
694.81	2398.17
695.00	2351.07
695.18	2648.02
695.37	2783.19
695.55	2428.89
695.74	2367.45
695.92	2387.93
696.10	2678.74
696.29	2424.80
696.47	2437.08
696.66	2365.40
696.84	2426.84
697.03	2531.29
697.21	2660.31
697.40	3708.87
697.58	2633.69
697.76	2408.41
697.95	2375.64
698.13	2383.84
698.32	2453.47
698.50	2404.32
698.68	2519.00
698.87	2562.01
699.05	2662.36
699.24	2463.71
699.42	2342.88
699.61	2445.27
699.79	2488.28
699.97	2469.85
700.16	2297.82
700.34	2318.30
700.53	2512.86
700.71	2637.78
700.89	2594.78
701.08	2443.23
701.26	2449.37
701.45	3028.95
701.63	2402.27
701.81	2406.36
702.00	2408.41
702.18	2498.52
702.37	2449.37
702.55	2795.48
702.73	2693.08
702.92	2576.34
703.10	2904.02
703.28	2748.37
703.47	2502.62
703.65	2682.84
703.84	2793.43
704.02	2564.06
704.20	2684.89
704.39	2463.71
704.57	2451.42
704.75	2684.89
704.94	2584.54
705.12	2553.82
705.30	2938.84
705.49	5636.01
705.67	12994.36
705.86	21010.11
706.04	24778.37
706.22	27737.69
706.41	28603.98
706.59	22808.23
706.77	16574.21
706.96	14130.98
707.14	12492.61
707.32	10807.13
707.51	9494.38
707.69	7731.08
707.87	6174.63
708.06	4990.90
708.24	4052.93
708.42	3436.49
708.61	3264.46
708.79	2725.85
708.97	2635.74
709.16	2637.78
709.34	2576.34
709.52	2467.80
709.71	2496.47
709.89	2539.48
710.07	2473.95
710.26	2318.30
710.44	2455.51
710.62	2613.21
710.80	2463.71
710.99	2658.26
711.17	2596.82
711.35	2318.30
711.54	2379.74
711.72	2529.24
711.90	2533.34
712.09	2514.91
712.27	2445.27
712.45	2568.15
712.63	2422.75
712.82	2531.29
713.00	2492.38
713.18	2555.86
713.37	2576.34
713.55	2473.95
713.73	2519.00
713.91	2549.72
714.10	2412.51
714.28	2396.12
714.46	2564.06
714.65	2428.89
714.83	2484.19
715.01	2562.01
715.19	2537.43
715.38	2392.03
715.56	2490.33
715.74	2398.17
715.92	2396.12
716.11	2584.54
716.29	2258.91
716.47	2492.38
716.65	2457.56
716.84	2301.92
717.02	2562.01
717.20	2283.49
717.38	2355.16
717.57	2496.47
717.75	2422.75
717.93	2428.89
718.11	2621.40
718.30	2301.92
718.48	2441.18
718.66	2686.94
718.84	2594.78
719.03	2465.75
719.21	2396.12
719.39	2654.17
719.57	2523.10
719.75	2539.48
719.94	2346.97
720.12	2400.22
720.30	2512.86
720.48	2611.16
720.67	2420.70
720.85	2353.12
721.03	2404.32
721.21	2410.46
721.39	2609.11
721.58	2535.39
721.76	2457.56
721.94	2488.28
722.12	2494.43
722.30	2709.46
722.49	2441.18
722.67	2455.51
722.85	2443.23
723.03	2310.11
723.21	2441.18
723.40	2525.15
723.58	2652.12
723.76	2570.20
723.94	2787.29
724.12	2602.97
724.30	2762.71
724.49	2639.83
724.67	2410.46
724.85	2623.45
725.03	2398.17
725.21	2564.06
725.40	2549.72
725.58	2459.61
725.76	2660.31
725.94	2607.06
726.12	2351.07
726.30	2521.05
726.49	2473.95
726.67	2334.68
726.85	2584.54
727.03	2928.60
727.21	4157.38
727.39	5971.88
727.57	6502.30
727.76	7436.17
727.94	7579.53
728.12	7016.34
728.30	5552.04
728.48	4966.32
728.66	4575.16
728.84	4106.18
729.03	3542.99
729.21	3272.65
729.39	2977.75
729.57	2744.28
729.75	2688.98
729.93	2592.73
730.11	2482.14
730.30	2457.56
730.48	2502.62
730.66	2576.34
730.84	2525.15
731.02	2537.43
731.20	2424.80
731.38	2447.32
731.56	2412.51
731.74	2349.02
731.93	2498.52
732.11	2447.32
732.29	2463.71
732.47	2580.44
732.65	2605.02
732.83	2570.20
733.01	2525.15
733.19	2418.65
733.37	2525.15
733.56	2488.28
733.74	2428.89
733.92	2613.21
734.10	2449.37
734.28	2547.67
734.46	2275.29
734.64	2467.80
734.82	2432.99
735.00	2422.75
735.18	2424.80
735.36	2478.04
735.54	2521.05
735.73	2408.41
735.91	2523.10
736.09	2627.54
736.27	2469.85
736.45	2531.29
736.63	2318.30
736.81	2432.99
736.99	2645.98
737.17	2660.31
737.35	2328.54
737.53	2480.09
737.71	2449.37
737.89	2674.65
738.07	2441.18
738.25	2383.84
738.43	2236.38
738.61	2441.18
738.80	2375.64
738.98	2387.93
739.16	2469.85
739.34	2457.56
739.52	2600.92
739.70	2506.71
739.88	2594.78
740.06	2607.06
740.24	2203.61
740.42	2625.50
740.60	2269.15
740.78	2398.17
740.96	2336.73
741.14	2349.02
741.32	2482.14
741.50	2287.58
741.68	2678.74
741.86	2592.73
742.04	2387.93
742.22	2349.02
742.40	2486.23
742.58	2559.96
742.76	2383.84
742.94	2512.86
743.12	2324.44
743.30	2508.76
743.48	2519.00
743.66	2439.13
743.84	2441.18
744.02	2457.56
744.20	2486.23
744.38	2357.21
744.56	2363.36
744.74	2727.89
744.92	2600.92
745.10	2662.36
745.28	2609.11
745.46	2754.52
745.64	2471.90
745.82	2609.11
746.00	2453.47
746.18	2539.48
746.36	2344.92
746.54	2396.12
746.72	2439.13
746.90	2465.75
747.08	2684.89
747.26	2473.95
747.44	2562.01
747.62	2559.96
747.80	2523.10
747.98	2615.26
748.15	2453.47
748.33	2701.27
748.51	2514.91
748.69	2572.25
748.87	2363.36
749.05	2439.13
749.23	2463.71
749.41	2443.23
749.59	2365.40
749.77	2566.10
749.95	2435.03
750.13	2408.41
750.31	2490.33
750.49	2379.74
750.67	2609.11
750.85	2578.39
751.03	2408.41
751.20	2775.00
751.38	2525.15
751.56	2455.51
751.74	2510.81
751.92	2473.95
752.10	2314.20
752.28	2592.73
752.46	2373.60
752.64	2555.86
752.82	2359.26
753.00	2592.73
753.18	2412.51
753.35	2484.19
753.53	2504.67
753.71	2555.86
753.89	2533.34
754.07	2490.33
754.25	2590.68
754.43	2512.86
754.61	2365.40
754.79	2463.71
754.97	2473.95
755.14	2568.15
755.32	2332.64
755.50	2480.09
755.68	2478.04
755.86	2324.44
756.04	2340.83
756.22	2252.77
756.40	2641.88
756.57	2766.81
756.75	2355.16
756.93	2619.35
757.11	2580.44
757.29	2310.11
757.47	2353.12
757.65	2381.79
757.82	2176.99
758.00	2435.03
758.18	2387.93
758.36	2377.69
758.54	2707.41
758.72	2332.64
758.90	2564.06
759.07	2555.86
759.25	2383.84
759.43	2488.28
759.61	2281.44
759.79	3448.78
759.97	2559.96
760.15	2416.60
760.32	2443.23
760.50	2555.86
760.68	2607.06
760.86	2316.25
761.04	2564.06
761.22	2590.68
761.39	2420.70
761.57	2611.16
761.75	2418.65
761.93	2602.97
762.11	2463.71
762.28	2498.52
762.46	2424.80
762.64	2664.41
762.82	2289.63
763.00	2379.74
763.18	2621.40
763.35	2369.50
763.53	2535.39
763.71	2441.18
763.89	2506.71
764.07	2469.85
764.24	2519.00
764.42	2502.62
764.60	2420.70
764.78	2537.43
764.96	2547.67
765.13	2512.86
765.31	2480.09
765.49	2557.91
765.67	2349.02
765.84	2430.94
766.02	2355.16
766.20	2349.02
766.38	2463.71
766.56	2527.19
766.73	2547.67
766.91	2422.75
767.09	2498.52
767.27	2523.10
767.44	2320.35
767.62	2486.23
767.80	2564.06
767.98	2471.90
768.15	2412.51
768.33	2619.35
768.51	2578.39
768.69	2482.14
768.87	2478.04
769.04	2539.48
769.22	2727.89
769.40	2676.70
769.58	2664.41
769.75	2514.91
769.93	2680.79
770.11	2453.47
770.28	2351.07
770.46	2551.77
770.64	2498.52
770.82	2379.74
770.99	2349.02
771.17	2547.67
771.35	2482.14
771.53	2432.99
771.70	2406.36
771.88	2588.63
772.06	2453.47
772.23	2367.45
772.41	2420.70
772.59	2432.99
772.77	2342.88
772.94	2435.03
773.12	2473.95
773.30	2412.51
773.47	2488.28
773.65	2291.68
773.83	2645.98
774.01	2533.34
774.18	2232.29
774.36	2516.95
774.54	2330.59
774.71	2531.29
774.89	2232.29
775.07	2371.55
775.24	2392.03
775.42	2408.41
775.60	2809.81
775.78	2340.83
775.95	2330.59
776.13	2340.83
776.31	2306.01
776.48	2568.15
776.66	2551.77
776.84	2396.12
777.01	2349.02
777.19	2379.74
777.37	2428.89
777.54	2551.77
777.72	2748.37
777.90	2490.33
778.07	2373.60
778.25	2885.59
778.43	2674.65
778.60	2379.74
778.78	2510.81
778.96	2602.97
779.13	2383.84
779.31	2555.86
779.49	2385.88
779.66	2547.67
779.84	2482.14
780.01	2424.80
780.19	2359.26
780.37	2672.60
780.54	2607.06
780.72	2295.77
780.90	2402.27
781.07	2480.09
781.25	2424.80
781.43	2586.58
781.60	2418.65
781.78	2672.60
781.95	2539.48
782.13	2392.03
782.31	2445.27
782.48	2269.15
782.66	2478.04
782.83	2645.98
783.01	2508.76
783.19	2602.97
783.36	2467.80
783.54	2293.72
783.72	2619.35
783.89	2351.07
784.07	2510.81
784.24	2516.95
784.42	2586.58
784.60	2496.47
784.77	2492.38
784.95	2277.34
785.12	2346.97
785.30	2547.67
785.47	2416.60
785.65	2414.56
785.83	2445.27
786.00	2414.56
786.18	2453.47
786.35	2336.73
786.53	2367.45
786.71	2613.21
786.88	2584.54
787.06	2539.48
787.23	2332.64
787.41	2342.88
787.58	2508.76
787.76	2375.64
787.94	2473.95
788.11	2506.71
788.29	2363.36
788.46	2363.36
788.64	2277.34
788.81	2400.22
788.99	2471.90
789.16	2330.59
789.34	2363.36
789.52	2359.26
789.69	2420.70
789.87	2260.96
790.04	2414.56
790.22	2445.27
790.39	2738.13
790.57	2389.98
790.74	2422.75
790.92	2514.91
791.09	2283.49
791.27	2502.62
791.44	2557.91
791.62	2432.99
791.79	2602.97
791.97	2437.08
792.15	2721.75
792.32	2555.86
792.50	2576.34
792.67	2576.34
792.85	2605.02
793.02	2482.14
793.20	2420.70
793.37	2244.57
793.55	2432.99
793.72	2353.12
793.90	2461.66
794.07	2340.83
794.25	2424.80
794.42	2430.94
794.60	2471.90
794.77	2463.71
794.95	2586.58
795.12	2580.44
795.30	2519.00
795.47	2250.72
795.65	2781.14
795.82	2500.57
796.00	2351.07
796.17	2392.03
796.34	2398.17
796.52	2449.37
796.69	2547.67
796.87	2531.29
797.04	2514.91
797.22	2498.52
797.39	2578.39
797.57	2531.29
797.74	2562.01
797.92	2445.27
798.09	2430.94
798.27	2568.15
798.44	2441.18
798.62	2418.65
798.79	2562.01
798.96	2496.47
799.14	2406.36
799.31	2809.81
799.49	2521.05
799.66	2447.32
799.84	2478.04
800.01	2332.64
800.19	2494.43
800.36	2308.06
800.53	2406.36
800.71	2555.86
800.88	2691.03
801.06	2381.79
801.23	2371.55
801.41	2344.92
801.58	2482.14
801.75	2303.96
801.93	2521.05
802.10	2629.59
802.28	2480.09
802.45	2439.13
802.63	2533.34
802.80	2627.54
802.97	2412.51
803.15	2475.99
803.32	2473.95
803.50	2375.64
803.67	2361.31
803.84	2359.26
804.02	2533.34
804.19	2414.56
804.37	2222.05
804.54	2371.55
804.71	2400.22
804.89	2506.71
805.06	2297.82
805.24	2342.88
805.41	2285.53
805.58	2396.12
805.76	2756.57
805.93	2506.71
806.10	2572.25
806.28	2609.11
806.45	2484.19
806.63	2527.19
806.80	2453.47
806.97	2482.14
807.15	2494.43
807.32	2422.75
807.49	2406.36
807.67	2437.08
807.84	2576.34
808.01	2211.81
808.19	2637.78
808.36	2793.43
808.54	2496.47
808.71	2392.03
808.88	2432.99
809.06	2619.35
809.23	2619.35
809.40	2346.97
809.58	2461.66
809.75	2527.19
809.92	2408.41
810.10	2752.47
810.27	2426.84
810.44	2482.14
810.62	2559.96
810.79	2482.14
810.96	2346.97
811.14	2381.79
811.31	2559.96
811.48	2521.05
811.66	2478.04
811.83	2605.02
812.00	2580.44
812.18	2490.33
812.35	2623.45
812.52	2471.90
812.69	2338.78
812.87	2447.32
813.04	2365.40
813.21	2488.28
813.39	2342.88
813.56	2252.77
813.73	2619.35
813.91	2324.44
814.08	2471.90
814.25	2453.47
814.42	2363.36
814.60	2398.17
814.77	2455.51
814.94	2428.89
815.12	2533.34
815.29	2568.15
815.46	2471.90
815.63	2521.05
815.81	2539.48
815.98	2447.32
816.15	2457.56
816.33	2471.90
816.50	2437.08
816.67	2463.71
816.84	2369.50
817.02	2404.32
817.19	2389.98
817.36	2523.10
817.53	2527.19
817.71	2412.51
817.88	2539.48
818.05	2404.32
818.22	2392.03
818.40	2621.40
818.57	2400.22
818.74	2512.86
818.91	2463.71
819.09	2519.00
819.26	2543.58
819.43	2394.08
819.60	2381.79
819.78	2596.82
819.95	2551.77
820.12	2416.60
820.29	2594.78
820.47	2658.26
820.64	2432.99
820.81	2279.39
820.98	2277.34
821.15	2394.08
821.33	2529.24
821.50	2332.64
821.67	2525.15
821.84	2437.08
822.02	2471.90
822.19	2611.16
822.36	2473.95
822.53	2422.75
822.70	2314.20
822.88	2461.66
823.05	2684.89
823.22	2408.41
823.39	2500.57
823.56	2445.27
823.74	2674.65
823.91	2437.08
824.08	2293.72
824.25	2432.99
824.42	2666.46
824.60	2314.20
824.77	2482.14
824.94	2398.17
825.11	2582.49
825.28	2275.29
825.45	2455.51
825.63	2568.15
825.80	2289.63
825.97	2488.28
826.14	2432.99
826.31	2297.82
826.48	2500.57
826.66	2375.64
826.83	2369.50
827.00	2441.18
827.17	2439.13
827.34	2432.99
827.51	2295.77
827.69	2400.22
827.86	2285.53
828.03	2422.75
828.20	2432.99
828.37	2330.59
828.54	2463.71
828.71	2392.03
828.89	2545.63
829.06	2512.86
829.23	2627.54
829.40	2353.12
829.57	2408.41
829.74	2547.67
829.91	2412.51
830.09	2369.50
830.26	2557.91
830.43	2693.08
830.60	2473.95
830.77	2428.89
830.94	2592.73
831.11	2594.78
831.28	2443.23
831.46	2564.06
831.63	2412.51
831.80	2619.35
831.97	2410.46
832.14	2424.80
832.31	2504.67
832.48	2537.43
832.65	2582.49
832.82	2482.14
832.99	2547.67
833.17	2324.44
833.34	2705.37
833.51	2514.91
833.68	2187.23
833.85	2613.21
834.02	2279.39
834.19	2318.30
834.36	2392.03
834.53	2508.76
834.70	2607.06
834.87	2498.52
835.04	2418.65
835.22	2361.31
835.39	2473.95
835.56	2363.36
835.73	2412.51
835.90	2605.02
836.07	2328.54
836.24	2512.86
836.41	2346.97
836.58	2412.51
836.75	2521.05
836.92	2465.75
837.09	2355.16
837.26	2555.86
837.43	2437.08
837.60	2514.91
837.77	2332.64
837.94	2564.06
838.12	2625.50
838.29	2396.12
838.46	2267.10
838.63	2365.40
838.80	2686.94
838.97	2424.80
839.14	2381.79
839.31	2521.05
839.48	2586.58
839.65	2375.64
839.82	2506.71
839.99	2482.14
840.16	2500.57
840.33	2342.88
840.50	2365.40
840.67	2387.93
840.84	2138.08
841.01	2449.37
841.18	2346.97
841.35	2455.51
841.52	2572.25
841.69	2639.83
841.86	2445.27
842.03	2482.14
842.20	2598.87
842.37	2432.99
842.54	2351.07
842.71	2490.33
842.88	2277.34
843.05	2465.75
843.22	2381.79
843.39	2539.48
843.56	2400.22
843.73	2355.16
843.90	2379.74
844.07	2432.99
844.24	2607.06
844.41	2416.60
844.58	2400.22
844.75	2459.61
844.92	2478.04
845.09	2277.34
845.26	2332.64
845.43	2562.01
845.60	2469.85
845.77	2471.90
845.94	2437.08
846.10	2621.40
846.27	2330.59
846.44	2324.44
846.61	2371.55
846.78	2443.23
846.95	2627.54
847.12	2355.16
847.29	2449.37
847.46	2443.23
847.63	2510.81
847.80	2301.92
847.97	2508.76
848.14	2717.65
848.31	2453.47
848.48	2277.34
848.65	2422.75
848.82	2441.18
848.98	2748.37
849.15	2459.61
849.32	2490.33
849.49	2588.63
849.66	2473.95
849.83	2330.59
850.00	2310.11
850.17	2547.67
850.34	2523.10
850.51	2400.22
850.68	2404.32
850.85	2809.81
851.01	2564.06
851.18	2392.03
851.35	2400.22
851.52	2437.08
851.69	2717.65
851.86	2260.96
852.03	2334.68
852.20	2500.57
852.37	2482.14
852.53	2269.15
852.70	2381.79
852.87	2441.18
853.04	2592.73
853.21	2310.11
853.38	2494.43
853.55	2635.74
853.72	2596.82
853.89	2351.07
854.05	2287.58
854.22	2392.03
854.39	2453.47
854.56	2387.93
854.73	2471.90
854.90	2383.84
855.07	2506.71
855.23	2316.25
855.40	2369.50
855.57	2367.45
855.74	2254.81
855.91	2566.10
856.08	2228.19
856.25	2269.15
856.41	2381.79
856.58	2330.59
856.75	2412.51
856.92	2312.16
857.09	2625.50
857.26	2246.62
857.42	2404.32
857.59	2619.35
857.76	2459.61
857.93	2402.27
858.10	2344.92
858.27	2428.89
858.43	2418.65
858.60	2404.32
858.77	2146.27
858.94	2351.07
859.11	2547.67
859.27	2453.47
859.44	2346.97
859.61	2736.09
859.78	2619.35
859.95	2326.49
860.12	2381.79
860.28	2756.57
860.45	2746.33
860.62	2400.22
860.79	2459.61
860.95	2469.85
861.12	2408.41
861.29	2346.97
861.46	2322.40
861.63	2498.52
861.79	2494.43
861.96	2222.05
862.13	2336.73
862.30	2621.40
862.47	2346.97
862.63	2260.96
862.80	2498.52
862.97	2605.02
863.14	2514.91
863.30	2414.56
863.47	2342.88
863.64	2654.17
863.81	2492.38
863.97	2252.77
864.14	2455.51
864.31	2408.41
864.48	2453.47
864.65	2455.51
864.81	2494.43
864.98	2506.71
865.15	2566.10
865.32	2473.95
865.48	2486.23
865.65	2668.50
865.82	2410.46
865.98	2375.64
866.15	2529.24
866.32	2461.66
866.49	2344.92
866.65	2500.57
866.82	2248.67
866.99	2557.91
867.16	2424.80
867.32	2371.55
867.49	2293.72
867.66	2408.41
867.83	2332.64
867.99	2289.63
868.16	2334.68
868.33	2371.55
868.49	2430.94
868.66	2392.03
868.83	2490.33
868.99	2469.85
869.16	2486.23
869.33	2467.80
869.50	2463.71
869.66	2424.80
869.83	2398.17
870.00	2291.68
870.16	2430.94
870.33	2478.04
870.50	2535.39
870.66	2443.23
870.83	2453.47
871.00	2510.81
871.17	2469.85
871.33	2531.29
871.50	2408.41
871.67	2451.42
871.83	2275.29
872.00	2457.56
872.17	2392.03
872.33	2668.50
872.50	2594.78
872.67	2332.64
872.83	2392.03
873.00	2549.72
873.17	2506.71
873.33	2426.84
873.50	2437.08
873.67	2373.60
873.83	2449.37
874.00	2414.56
874.16	2453.47
874.33	2570.20
874.50	2326.49
874.66	2359.26
874.83	2424.80
875.00	2596.82
875.16	2519.00
875.33	2498.52
875.50	2183.13
875.66	2420.70
875.83	2482.14
875.99	2455.51
876.16	2371.55
876.33	2344.92
876.49	2523.10
876.66	2453.47
876.83	2441.18
876.99	2293.72
877.16	2430.94
877.32	2371.55
877.49	2330.59
877.66	2562.01
877.82	2662.36
877.99	2494.43
878.15	2584.54
878.32	2504.67
878.49	2492.38
878.65	2377.69
878.82	2535.39
878.98	2361.31
879.15	2486.23
879.32	2527.19
879.48	2473.95
879.65	2461.66
879.81	2465.75
879.98	2349.02
880.15	2334.68
880.31	2580.44
880.48	2349.02
880.64	2480.09
880.81	2455.51
880.97	2666.46
881.14	2637.78
881.31	2265.05
881.47	2490.33
881.64	2428.89
881.80	2240.48
881.97	2473.95
882.13	2412.51
882.30	2355.16
882.47	2473.95
882.63	2381.79
882.80	2336.73
882.96	2490.33
883.13	2600.92
883.29	2383.84
883.46	2396.12
883.62	2695.13
883.79	2400.22
883.95	2424.80
884.12	2328.54
884.29	2650.07
884.45	2486.23
884.62	2465.75
884.78	2359.26
884.95	2596.82
885.11	2342.88
885.28	2396.12
885.44	2383.84
885.61	2469.85
885.77	2619.35
885.94	2449.37
886.10	2381.79
886.27	2406.36
886.43	2648.02
886.60	2510.81
886.76	2355.16
886.93	2375.64
887.09	2469.85
887.26	2285.53
887.42	2381.79
887.59	2658.26
887.75	2772.95
887.92	2570.20
888.08	2482.14
888.25	2637.78
888.41	2529.24
888.58	2449.37
888.74	2252.77
888.91	2480.09
>>>>>End Processed Spectral Data<<<<<
