SpectraSuite Data File
++++++++++++++++++++++++++++++++++++
Date: Thu May 05 14:42:00 CEST 2016
User: root
Dark Spectrum Present: No
Reference Spectrum Present: No
Number of Sampled Component Spectra: 1
Spectrometers: USB4C02835
Integration Time (usec): 100000 (USB4C02835)
Spectra Averaged: 1 (USB4C02835)
Boxcar Smoothing: 0 (USB4C02835)
Correct for Electrical Dark: No (USB4C02835)
Strobe/Lamp Enabled: No (USB4C02835)
Correct for Detector Non-linearity: No (USB4C02835)
Correct for Stray Light: No (USB4C02835)
Number of Pixels in Processed Spectrum: 3648
>>>>>Begin Processed Spectral Data<<<<<
177.47	1947.62
177.69	1947.62
177.91	1947.62
178.13	1929.19
178.36	1871.84
178.58	2344.92
178.80	2516.95
179.02	2342.88
179.24	2338.78
179.46	2295.77
179.68	2381.79
179.90	2480.09
180.13	2523.10
180.35	2252.77
180.57	2303.96
180.79	2596.82
181.01	2514.91
181.23	2424.80
181.45	2400.22
181.67	2564.06
181.90	2480.09
182.12	2377.69
182.34	2224.09
182.56	2545.63
182.78	2500.57
183.00	2359.26
183.22	2287.58
183.44	2273.25
183.66	2830.29
183.89	2432.99
184.11	2379.74
184.33	2572.25
184.55	2607.06
184.77	2363.36
184.99	2342.88
185.21	2408.41
185.43	2758.61
185.65	2258.91
185.87	2310.11
186.10	2799.57
186.32	2721.75
186.54	2441.18
186.76	2424.80
186.98	2564.06
187.20	2400.22
187.42	2342.88
187.64	2351.07
187.86	2580.44
188.08	2551.77
188.30	2355.16
188.52	2367.45
188.75	2662.36
188.97	2742.23
189.19	2371.55
189.41	2361.31
189.63	2482.14
189.85	2426.84
190.07	2293.72
190.29	2220.00
190.51	2488.28
190.73	2338.78
190.95	2529.24
191.17	2437.08
191.39	2342.88
191.61	2469.85
191.84	2359.26
192.06	2404.32
192.28	2392.03
192.50	2813.91
192.72	2449.37
192.94	2432.99
193.16	2621.40
193.38	2457.56
193.60	2267.10
193.82	2402.27
194.04	2605.02
194.26	2480.09
194.48	2424.80
194.70	2346.97
194.92	2344.92
195.14	2514.91
195.36	2334.68
195.58	2410.46
195.80	2404.32
196.02	2375.64
196.24	2392.03
196.46	2387.93
196.69	2408.41
196.91	2795.48
197.13	2349.02
197.35	2402.27
197.57	2605.02
197.79	2521.05
198.01	2439.13
198.23	2314.20
198.45	2498.52
198.67	2357.21
198.89	2232.29
199.11	2375.64
199.33	2392.03
199.55	2215.90
199.77	2361.31
199.99	2408.41
200.21	2453.47
200.43	2523.10
200.65	2269.15
200.87	2263.01
201.09	2471.90
201.31	2424.80
201.53	2381.79
201.75	2406.36
201.97	2596.82
202.19	2441.18
202.41	2453.47
202.63	2580.44
202.85	2553.82
203.07	2557.91
203.29	2375.64
203.51	2256.86
203.73	2428.89
203.95	2822.10
204.17	2351.07
204.39	2416.60
204.61	2406.36
204.83	2533.34
205.05	2439.13
205.27	2473.95
205.49	2693.08
205.71	2478.04
205.93	2316.25
206.15	2228.19
206.37	2504.67
206.59	2514.91
206.81	2170.85
207.03	2279.39
207.25	2400.22
207.47	2543.58
207.69	2404.32
207.91	2613.21
208.13	2678.74
208.34	2355.16
208.56	2254.81
208.78	2336.73
209.00	2473.95
209.22	2408.41
209.44	2349.02
209.66	2289.63
209.88	2490.33
210.10	2527.19
210.32	2367.45
210.54	2408.41
210.76	2504.67
210.98	2572.25
211.20	2183.13
211.42	2420.70
211.64	2613.21
211.86	2502.62
212.08	2379.74
212.30	2383.84
212.52	2441.18
212.74	2576.34
212.96	2455.51
213.17	2428.89
213.39	2459.61
213.61	2670.55
213.83	2283.49
214.05	2432.99
214.27	2535.39
214.49	2342.88
214.71	2281.44
214.93	2459.61
215.15	2445.27
215.37	2529.24
215.59	2228.19
215.81	2396.12
216.03	2551.77
216.24	2514.91
216.46	2385.88
216.68	2359.26
216.90	2586.58
217.12	2605.02
217.34	2349.02
217.56	2478.04
217.78	2570.20
218.00	2645.98
218.22	2408.41
218.44	2445.27
218.66	2435.03
218.87	2654.17
219.09	2375.64
219.31	2334.68
219.53	2611.16
219.75	2377.69
219.97	2332.64
220.19	2340.83
220.41	2488.28
220.63	2600.92
220.85	2357.21
221.06	2334.68
221.28	2531.29
221.50	2553.82
221.72	2408.41
221.94	2324.44
222.16	2498.52
222.38	2676.70
222.60	2336.73
222.82	2396.12
223.03	2641.88
223.25	2365.40
223.47	2408.41
223.69	2580.44
223.91	2559.96
224.13	2529.24
224.35	2383.84
224.57	2539.48
224.78	2553.82
225.00	2355.16
225.22	2359.26
225.44	2267.10
225.66	2605.02
225.88	2457.56
226.10	2420.70
226.32	2318.30
226.53	2711.51
226.75	2475.99
226.97	2383.84
227.19	2392.03
227.41	2346.97
227.63	2365.40
227.85	2303.96
228.06	2318.30
228.28	2521.05
228.50	2559.96
228.72	2195.42
228.94	2289.63
229.16	2244.57
229.37	2320.35
229.59	2263.01
229.81	2508.76
230.03	2420.70
230.25	2281.44
230.47	2148.32
230.69	2310.11
230.90	2602.97
231.12	2363.36
231.34	2408.41
231.56	2404.32
231.78	2400.22
232.00	2539.48
232.21	2310.11
232.43	2430.94
232.65	2269.15
232.87	2613.21
233.09	2244.57
233.30	2375.64
233.52	2592.73
233.74	2531.29
233.96	2383.84
234.18	2346.97
234.40	2486.23
234.61	2758.61
234.83	2203.61
235.05	2342.88
235.27	2809.81
235.49	2637.78
235.70	2324.44
235.92	2463.71
236.14	2500.57
236.36	2719.70
236.58	2287.58
236.79	2451.42
237.01	2439.13
237.23	2494.43
237.45	2543.58
237.67	2308.06
237.88	2502.62
238.10	2670.55
238.32	2232.29
238.54	2359.26
238.76	2473.95
238.97	2373.60
239.19	2248.67
239.41	2351.07
239.63	2590.68
239.85	2412.51
240.06	2377.69
240.28	2291.68
240.50	2633.69
240.72	2494.43
240.93	2306.01
241.15	2420.70
241.37	2463.71
241.59	2639.83
241.81	2359.26
242.02	2355.16
242.24	2514.91
242.46	2553.82
242.68	2211.81
242.89	2377.69
243.11	2580.44
243.33	2445.27
243.55	2406.36
243.76	2406.36
243.98	2387.93
244.20	2430.94
244.42	2334.68
244.64	2336.73
244.85	2359.26
245.07	2402.27
245.29	2308.06
245.51	2285.53
245.72	2519.00
245.94	2654.17
246.16	2367.45
246.38	2396.12
246.59	2351.07
246.81	2332.64
247.03	2267.10
247.24	2226.14
247.46	2457.56
247.68	2486.23
247.90	2277.34
248.11	2326.49
248.33	2617.30
248.55	2432.99
248.77	2392.03
248.98	2398.17
249.20	2633.69
249.42	2535.39
249.64	2381.79
249.85	2369.50
250.07	2375.64
250.29	2523.10
250.50	2402.27
250.72	2285.53
250.94	2482.14
251.16	2742.23
251.37	2383.84
251.59	2357.21
251.81	2588.63
252.02	2734.04
252.24	2367.45
252.46	2486.23
252.68	2404.32
252.89	2400.22
253.11	2179.04
253.33	2430.94
253.54	2693.08
253.76	2303.96
253.98	2353.12
254.20	2314.20
254.41	2346.97
254.63	2398.17
254.85	2256.86
255.06	2461.66
255.28	2545.63
255.50	2463.71
255.71	2420.70
255.93	2289.63
256.15	2424.80
256.36	2525.15
256.58	2389.98
256.80	2334.68
257.02	2486.23
257.23	2414.56
257.45	2396.12
257.67	2471.90
257.88	2398.17
258.10	2465.75
258.32	2332.64
258.53	2310.11
258.75	2660.31
258.97	2412.51
259.18	2320.35
259.40	2240.48
259.62	2662.36
259.83	2654.17
260.05	2428.89
260.27	2944.98
260.48	2592.73
260.70	2375.64
260.92	2301.92
261.13	2383.84
261.35	2441.18
261.57	2543.58
261.78	2199.52
262.00	2289.63
262.22	2498.52
262.43	2428.89
262.65	2340.83
262.86	2371.55
263.08	2840.53
263.30	2527.19
263.51	2224.09
263.73	2326.49
263.95	2547.67
264.16	2355.16
264.38	2308.06
264.60	2361.31
264.81	2502.62
265.03	2711.51
265.25	2553.82
265.46	2334.68
265.68	2652.12
265.89	2496.47
266.11	2283.49
266.33	2424.80
266.54	2594.78
266.76	2572.25
266.98	2426.84
267.19	2412.51
267.41	2635.74
267.62	2457.56
267.84	2287.58
268.06	2531.29
268.27	2605.02
268.49	2619.35
268.70	2437.08
268.92	2441.18
269.14	2324.44
269.35	2355.16
269.57	2330.59
269.79	2369.50
270.00	2453.47
270.22	2701.27
270.43	2222.05
270.65	2191.33
270.87	2557.91
271.08	2600.92
271.30	2506.71
271.51	2322.40
271.73	2506.71
271.95	2621.40
272.16	2422.75
272.38	2449.37
272.59	2412.51
272.81	2527.19
273.02	2277.34
273.24	2428.89
273.46	2635.74
273.67	2322.40
273.89	2349.02
274.10	2277.34
274.32	2619.35
274.54	2510.81
274.75	2408.41
274.97	2371.55
275.18	2572.25
275.40	2564.06
275.61	2346.97
275.83	2412.51
276.05	2289.63
276.26	2527.19
276.48	2455.51
276.69	2375.64
276.91	2482.14
277.12	2635.74
277.34	2519.00
277.55	2576.34
277.77	2551.77
277.99	2478.04
278.20	2482.14
278.42	2320.35
278.63	2369.50
278.85	2369.50
279.06	2308.06
279.28	2482.14
279.49	2523.10
279.71	2562.01
279.93	2480.09
280.14	2439.13
280.36	2400.22
280.57	2570.20
280.79	2525.15
281.00	2420.70
281.22	2418.65
281.43	2613.21
281.65	2185.18
281.86	2285.53
282.08	2516.95
282.29	2703.32
282.51	2338.78
282.73	2224.09
282.94	2250.72
283.16	2559.96
283.37	2541.53
283.59	2465.75
283.80	2494.43
284.02	2514.91
284.23	2443.23
284.45	2402.27
284.66	2252.77
284.88	2426.84
285.09	2398.17
285.31	2510.81
285.52	2525.15
285.74	2269.15
285.95	2592.73
286.17	2449.37
286.38	2607.06
286.60	2465.75
286.81	2430.94
287.03	2461.66
287.24	2459.61
287.46	2580.44
287.67	2473.95
287.89	2676.70
288.10	2504.67
288.32	2480.09
288.53	2551.77
288.75	2357.21
288.96	2547.67
289.18	2396.12
289.39	2385.88
289.61	2504.67
289.82	2715.61
290.04	2635.74
290.25	2295.77
290.47	2449.37
290.68	2396.12
290.90	2637.78
291.11	2301.92
291.33	2482.14
291.54	2430.94
291.76	2484.19
291.97	2478.04
292.18	2473.95
292.40	2422.75
292.61	2373.60
292.83	2670.55
293.04	2414.56
293.26	2523.10
293.47	2445.27
293.69	2351.07
293.90	2353.12
294.12	2592.73
294.33	2432.99
294.55	2467.80
294.76	2566.10
294.97	2709.46
295.19	2781.14
295.40	2410.46
295.62	2506.71
295.83	2539.48
296.05	2406.36
296.26	2562.01
296.48	2346.97
296.69	2498.52
296.90	2387.93
297.12	2611.16
297.33	2566.10
297.55	2514.91
297.76	2490.33
297.98	2488.28
298.19	2441.18
298.41	2469.85
298.62	2385.88
298.83	2504.67
299.05	2519.00
299.26	2461.66
299.48	2383.84
299.69	2463.71
299.90	2494.43
300.12	2392.03
300.33	2559.96
300.55	2482.14
300.76	2502.62
300.98	2342.88
301.19	2535.39
301.40	2490.33
301.62	2381.79
301.83	2553.82
302.05	2400.22
302.26	2402.27
302.47	2408.41
302.69	2289.63
302.90	2502.62
303.12	2168.80
303.33	2519.00
303.54	2697.17
303.76	2428.89
303.97	2422.75
304.19	2559.96
304.40	2475.99
304.61	2543.58
304.83	2584.54
305.04	2535.39
305.26	2539.48
305.47	2478.04
305.68	2408.41
305.90	2332.64
306.11	2623.45
306.33	2408.41
306.54	2291.68
306.75	2447.32
306.97	2363.36
307.18	2430.94
307.39	2394.08
307.61	2555.86
307.82	2490.33
308.04	2543.58
308.25	2389.98
308.46	2435.03
308.68	2545.63
308.89	2506.71
309.10	2555.86
309.32	2519.00
309.53	2459.61
309.74	2523.10
309.96	2334.68
310.17	2623.45
310.39	2383.84
310.60	2584.54
310.81	2486.23
311.03	2269.15
311.24	2516.95
311.45	2465.75
311.67	2613.21
311.88	2559.96
312.09	2418.65
312.31	2389.98
312.52	2355.16
312.73	2346.97
312.95	2371.55
313.16	2412.51
313.37	2580.44
313.59	2521.05
313.80	2553.82
314.01	2635.74
314.23	2471.90
314.44	2373.60
314.65	2363.36
314.87	2312.16
315.08	2367.45
315.29	2435.03
315.51	2301.92
315.72	2340.83
315.93	2582.49
316.15	2512.86
316.36	2389.98
316.57	2498.52
316.79	2471.90
317.00	2342.88
317.21	2582.49
317.43	2357.21
317.64	2451.42
317.85	2398.17
318.07	2394.08
318.28	2473.95
318.49	2555.86
318.70	2719.70
318.92	2631.64
319.13	2662.36
319.34	2629.59
319.56	2527.19
319.77	2582.49
319.98	2580.44
320.20	2676.70
320.41	2543.58
320.62	2555.86
320.83	2342.88
321.05	2645.98
321.26	2424.80
321.47	2543.58
321.69	2650.07
321.90	2332.64
322.11	2416.60
322.32	2514.91
322.54	2670.55
322.75	2437.08
322.96	2875.35
323.18	2265.05
323.39	2254.81
323.60	2383.84
323.81	2484.19
324.03	2457.56
324.24	2484.19
324.45	2469.85
324.66	2449.37
324.88	2699.22
325.09	2643.93
325.30	2463.71
325.52	2457.56
325.73	2559.96
325.94	2381.79
326.15	2308.06
326.37	2351.07
326.58	2588.63
326.79	2662.36
327.00	2326.49
327.22	2441.18
327.43	2428.89
327.64	2328.54
327.85	2551.77
328.07	2480.09
328.28	2695.13
328.49	2402.27
328.70	2457.56
328.92	2449.37
329.13	2473.95
329.34	2543.58
329.55	2572.25
329.76	2521.05
329.98	2490.33
330.19	2645.98
330.40	2488.28
330.61	2519.00
330.83	2576.34
331.04	2359.26
331.25	2422.75
331.46	2447.32
331.68	2365.40
331.89	2506.71
332.10	2408.41
332.31	2263.01
332.52	2381.79
332.74	2654.17
332.95	2258.91
333.16	2494.43
333.37	2570.20
333.58	2416.60
333.80	2387.93
334.01	2220.00
334.22	2543.58
334.43	2514.91
334.64	2428.89
334.86	2316.25
335.07	2416.60
335.28	2613.21
335.49	2269.15
335.70	2496.47
335.92	2650.07
336.13	2748.37
336.34	2502.62
336.55	2387.93
336.76	2506.71
336.98	2371.55
337.19	2498.52
337.40	2578.39
337.61	2770.90
337.82	2566.10
338.04	2586.58
338.25	2355.16
338.46	2383.84
338.67	2410.46
338.88	2361.31
339.09	2363.36
339.31	2506.71
339.52	2346.97
339.73	2301.92
339.94	2400.22
340.15	2621.40
340.36	2414.56
340.58	2396.12
340.79	2414.56
341.00	2551.77
341.21	2328.54
341.42	2645.98
341.63	2328.54
341.85	2562.01
342.06	2453.47
342.27	2353.12
342.48	2613.21
342.69	2293.72
342.90	2498.52
343.12	2566.10
343.33	2359.26
343.54	2605.02
343.75	2600.92
343.96	2463.71
344.17	2351.07
344.38	2455.51
344.60	2367.45
344.81	2367.45
345.02	2406.36
345.23	2627.54
345.44	2840.53
345.65	2398.17
345.86	2375.64
346.07	2492.38
346.29	2412.51
346.50	2637.78
346.71	2500.57
346.92	2613.21
347.13	2723.80
347.34	2389.98
347.55	2367.45
347.76	2543.58
347.98	2301.92
348.19	2344.92
348.40	2539.48
348.61	2406.36
348.82	2682.84
349.03	2478.04
349.24	2334.68
349.45	2682.84
349.66	2203.61
349.88	2404.32
350.09	2303.96
350.30	2662.36
350.51	2568.15
350.72	2457.56
350.93	2490.33
351.14	2504.67
351.35	2461.66
351.56	2398.17
351.77	2437.08
351.99	2516.95
352.20	2674.65
352.41	2478.04
352.62	2289.63
352.83	2463.71
353.04	2463.71
353.25	2381.79
353.46	2457.56
353.67	2594.78
353.88	2232.29
354.09	2502.62
354.30	2412.51
354.52	2600.92
354.73	2408.41
354.94	2385.88
355.15	2420.70
355.36	2691.03
355.57	2381.79
355.78	2408.41
355.99	2340.83
356.20	2430.94
356.41	2676.70
356.62	2488.28
356.83	2463.71
357.04	2631.64
357.25	2301.92
357.46	2371.55
357.68	2248.67
357.89	2389.98
358.10	2506.71
358.31	2453.47
358.52	2439.13
358.73	2344.92
358.94	2357.21
359.15	2359.26
359.36	2488.28
359.57	2551.77
359.78	2416.60
359.99	2580.44
360.20	2404.32
360.41	2508.76
360.62	2572.25
360.83	2414.56
361.04	2519.00
361.25	2508.76
361.46	2656.22
361.67	2521.05
361.88	2490.33
362.09	2600.92
362.30	2529.24
362.51	2326.49
362.72	2400.22
362.93	2605.02
363.14	2584.54
363.35	2461.66
363.56	2346.97
363.78	2637.78
363.99	2568.15
364.20	2344.92
364.41	2461.66
364.62	2719.70
364.83	2514.91
365.04	2418.65
365.25	2428.89
365.46	2744.28
365.67	2324.44
365.88	2482.14
366.09	2400.22
366.30	2418.65
366.51	2543.58
366.72	2301.92
366.93	2449.37
367.14	2523.10
367.35	2643.93
367.56	2383.84
367.77	2531.29
367.98	2406.36
368.18	2502.62
368.39	2457.56
368.60	2379.74
368.81	2592.73
369.02	2572.25
369.23	2441.18
369.44	2312.16
369.65	2461.66
369.86	2463.71
370.07	2525.15
370.28	2334.68
370.49	2539.48
370.70	2500.57
370.91	2295.77
371.12	2256.86
371.33	2645.98
371.54	2449.37
371.75	2578.39
371.96	2201.57
372.17	2586.58
372.38	2482.14
372.59	2482.14
372.80	2416.60
373.01	2473.95
373.22	2570.20
373.43	2406.36
373.64	2336.73
373.85	2629.59
374.06	2713.56
374.26	2543.58
374.47	2441.18
374.68	2750.42
374.89	2506.71
375.10	2467.80
375.31	2469.85
375.52	2400.22
375.73	2510.81
375.94	2371.55
376.15	2607.06
376.36	2365.40
376.57	2426.84
376.78	2422.75
376.99	2408.41
377.20	2652.12
377.40	2361.31
377.61	2588.63
377.82	2394.08
378.03	2654.17
378.24	2566.10
378.45	2437.08
378.66	2504.67
378.87	2236.38
379.08	2349.02
379.29	2473.95
379.50	2549.72
379.71	2402.27
379.91	2623.45
380.12	2461.66
380.33	2432.99
380.54	2531.29
380.75	2435.03
380.96	2400.22
381.17	2490.33
381.38	2494.43
381.59	2559.96
381.80	2504.67
382.00	2670.55
382.21	2609.11
382.42	2623.45
382.63	2756.57
382.84	2488.28
383.05	2695.13
383.26	2697.17
383.47	2508.76
383.68	2475.99
383.88	2535.39
384.09	2486.23
384.30	2637.78
384.51	2463.71
384.72	2430.94
384.93	2353.12
385.14	2494.43
385.35	2562.01
385.55	2396.12
385.76	2664.41
385.97	2383.84
386.18	2279.39
386.39	2437.08
386.60	2428.89
386.81	2430.94
387.02	2355.16
387.22	2371.55
387.43	2629.59
387.64	2570.20
387.85	2658.26
388.06	2695.13
388.27	4069.31
388.48	8404.86
388.68	12091.21
388.89	14716.70
389.10	15961.87
389.31	14958.36
389.52	11800.40
389.73	10182.50
389.93	9201.52
390.14	8400.77
390.35	7454.61
390.56	6764.44
390.77	5574.57
390.98	4048.83
391.18	3502.03
391.39	2973.65
391.60	2666.46
391.81	2594.78
392.02	2367.45
392.23	2734.04
392.43	2531.29
392.64	2559.96
392.85	2449.37
393.06	2643.93
393.27	2508.76
393.47	2408.41
393.68	2498.52
393.89	2496.47
394.10	2625.50
394.31	2396.12
394.52	2402.27
394.72	2437.08
394.93	2725.85
395.14	2383.84
395.35	2523.10
395.56	2461.66
395.76	2435.03
395.97	2439.13
396.18	2559.96
396.39	2602.97
396.60	2975.70
396.80	2770.90
397.01	2656.22
397.22	2580.44
397.43	2691.03
397.64	2453.47
397.84	2586.58
398.05	2813.91
398.26	2562.01
398.47	2592.73
398.67	2611.16
398.88	2562.01
399.09	2617.30
399.30	2469.85
399.51	2473.95
399.71	2383.84
399.92	2422.75
400.13	2473.95
400.34	2416.60
400.54	2484.19
400.75	2682.84
400.96	2531.29
401.17	2701.27
401.37	2492.38
401.58	2555.86
401.79	2533.34
402.00	2568.15
402.21	2996.18
402.41	2750.42
402.62	2797.53
402.83	2777.05
403.04	2985.94
403.24	3125.20
403.45	2559.96
403.66	2775.00
403.87	2684.89
404.07	2777.05
404.28	2705.37
404.49	2779.09
404.70	2598.87
404.90	2639.83
405.11	2502.62
405.32	2545.63
405.52	2359.26
405.73	2365.40
405.94	2365.40
406.15	2473.95
406.35	2670.55
406.56	2641.88
406.77	2455.51
406.98	2510.81
407.18	2408.41
407.39	2619.35
407.60	2398.17
407.80	2506.71
408.01	2402.27
408.22	2555.86
408.43	2351.07
408.63	2457.56
408.84	2555.86
409.05	2631.64
409.25	2359.26
409.46	2326.49
409.67	2500.57
409.88	2281.44
410.08	2441.18
410.29	2398.17
410.50	2521.05
410.70	2553.82
410.91	2404.32
411.12	2543.58
411.32	2465.75
411.53	2404.32
411.74	2555.86
411.95	2686.94
412.15	2586.58
412.36	2668.50
412.57	2559.96
412.77	2666.46
412.98	2469.85
413.19	2424.80
413.39	2435.03
413.60	2535.39
413.81	2670.55
414.01	2357.21
414.22	2471.90
414.43	2473.95
414.63	2480.09
414.84	2711.51
415.05	2531.29
415.25	2334.68
415.46	2602.97
415.67	2398.17
415.87	2461.66
416.08	2457.56
416.29	2412.51
416.49	2488.28
416.70	2400.22
416.91	2457.56
417.11	2498.52
417.32	2607.06
417.53	2523.10
417.73	2447.32
417.94	2473.95
418.15	2592.73
418.35	2461.66
418.56	2545.63
418.77	2758.61
418.97	2535.39
419.18	2449.37
419.38	2220.00
419.59	2500.57
419.80	2705.37
420.00	2359.26
420.21	2498.52
420.42	2684.89
420.62	2590.68
420.83	2437.08
421.04	2539.48
421.24	2414.56
421.45	2551.77
421.65	2539.48
421.86	2420.70
422.07	2572.25
422.27	2504.67
422.48	2396.12
422.69	2351.07
422.89	2506.71
423.10	2473.95
423.30	2342.88
423.51	2478.04
423.72	2516.95
423.92	2580.44
424.13	2357.21
424.33	2533.34
424.54	2607.06
424.75	2549.72
424.95	2672.60
425.16	2480.09
425.36	2406.36
425.57	2658.26
425.78	2430.94
425.98	2516.95
426.19	2486.23
426.39	2359.26
426.60	2527.19
426.81	2607.06
427.01	2535.39
427.22	2338.78
427.42	2297.82
427.63	2375.64
427.83	2645.98
428.04	2629.59
428.25	2572.25
428.45	2461.66
428.66	2617.30
428.86	2502.62
429.07	2428.89
429.28	2490.33
429.48	2467.80
429.69	2451.42
429.89	2406.36
430.10	2344.92
430.30	2654.17
430.51	2584.54
430.71	2392.03
430.92	2449.37
431.13	2441.18
431.33	2547.67
431.54	2506.71
431.74	2570.20
431.95	2731.99
432.15	2420.70
432.36	2424.80
432.56	2512.86
432.77	2744.28
432.98	2607.06
433.18	2506.71
433.39	2363.36
433.59	2424.80
433.80	2801.62
434.00	2652.12
434.21	2506.71
434.41	2424.80
434.62	2744.28
434.82	2396.12
435.03	2314.20
435.23	2570.20
435.44	2287.58
435.64	2422.75
435.85	2453.47
436.06	2533.34
436.26	2641.88
436.47	2465.75
436.67	2457.56
436.88	2523.10
437.08	2678.74
437.29	2635.74
437.49	2564.06
437.70	2562.01
437.90	2461.66
438.11	2643.93
438.31	2555.86
438.52	2695.13
438.72	2785.24
438.93	2711.51
439.13	2635.74
439.34	2623.45
439.54	2439.13
439.75	2549.72
439.95	2547.67
440.16	2461.66
440.36	2570.20
440.57	2519.00
440.77	2539.48
440.98	2545.63
441.18	2551.77
441.39	2439.13
441.59	2437.08
441.80	2832.34
442.00	2516.95
442.21	2582.49
442.41	2271.20
442.62	2582.49
442.82	2387.93
443.02	2416.60
443.23	2473.95
443.43	2486.23
443.64	2719.70
443.84	2340.83
444.05	2633.69
444.25	2547.67
444.46	2496.47
444.66	2535.39
444.87	2559.96
445.07	2299.87
445.28	2510.81
445.48	2596.82
445.69	2478.04
445.89	2797.53
446.09	2459.61
446.30	2793.43
446.50	2981.84
446.71	4644.79
446.91	5832.62
447.12	6635.42
447.32	7038.87
447.53	6676.38
447.73	5431.21
447.93	4816.82
448.14	4571.07
448.34	4423.61
448.55	3878.85
448.75	3719.11
448.96	3579.85
449.16	3323.85
449.36	3094.48
449.57	2686.94
449.77	2559.96
449.98	2480.09
450.18	2641.88
450.39	2465.75
450.59	2574.30
450.79	2498.52
451.00	2443.23
451.20	2512.86
451.41	2516.95
451.61	2514.91
451.81	2482.14
452.02	2420.70
452.22	2408.41
452.43	2500.57
452.63	2299.87
452.84	2531.29
453.04	2422.75
453.24	2545.63
453.45	2426.84
453.65	2539.48
453.86	2465.75
454.06	2502.62
454.26	2514.91
454.47	2437.08
454.67	2621.40
454.87	2551.77
455.08	2443.23
455.28	2590.68
455.49	2488.28
455.69	2432.99
455.89	2838.48
456.10	2551.77
456.30	2443.23
456.51	2576.34
456.71	2559.96
456.91	2461.66
457.12	2510.81
457.32	2453.47
457.52	2326.49
457.73	2557.91
457.93	2600.92
458.14	2373.60
458.34	2326.49
458.54	2420.70
458.75	2424.80
458.95	2553.82
459.15	2441.18
459.36	2498.52
459.56	2531.29
459.76	2725.85
459.97	2502.62
460.17	2453.47
460.37	2617.30
460.58	2443.23
460.78	2555.86
460.99	2416.60
461.19	2463.71
461.39	2430.94
461.60	2361.31
461.80	2500.57
462.00	2351.07
462.21	2543.58
462.41	2383.84
462.61	2349.02
462.82	2240.48
463.02	2535.39
463.22	2490.33
463.43	2619.35
463.63	2473.95
463.83	2662.36
464.04	2486.23
464.24	2428.89
464.44	2328.54
464.64	2506.71
464.85	2559.96
465.05	2545.63
465.25	2367.45
465.46	2367.45
465.66	2580.44
465.86	2510.81
466.07	2451.42
466.27	2506.71
466.47	2375.64
466.68	2310.11
466.88	2537.43
467.08	2576.34
467.29	2559.96
467.49	2473.95
467.69	2576.34
467.89	2473.95
468.10	2375.64
468.30	2463.71
468.50	2541.53
468.71	2617.30
468.91	2283.49
469.11	2652.12
469.31	2490.33
469.52	2457.56
469.72	2717.65
469.92	2678.74
470.13	2461.66
470.33	2535.39
470.53	2543.58
470.73	2858.96
470.94	3243.98
471.14	3502.03
471.34	3911.62
471.54	3833.80
471.75	3317.71
471.95	3131.34
472.15	3012.56
472.36	3065.81
472.56	2879.44
472.76	3008.47
472.96	2953.17
473.17	2695.13
473.37	2660.31
473.57	2564.06
473.77	2504.67
473.98	2473.95
474.18	2357.21
474.38	2904.02
474.58	2441.18
474.79	2383.84
474.99	2527.19
475.19	2564.06
475.39	2412.51
475.60	2531.29
475.80	2502.62
476.00	2480.09
476.20	2535.39
476.41	2475.99
476.61	2555.86
476.81	2641.88
477.01	2398.17
477.21	2680.79
477.42	2605.02
477.62	2416.60
477.82	2652.12
478.02	2432.99
478.23	2478.04
478.43	2363.36
478.63	2428.89
478.83	2473.95
479.03	2449.37
479.24	2691.03
479.44	2699.22
479.64	2404.32
479.84	2232.29
480.04	2441.18
480.25	2553.82
480.45	2375.64
480.65	2432.99
480.85	2713.56
481.06	2537.43
481.26	2473.95
481.46	2502.62
481.66	2570.20
481.86	2453.47
482.06	2531.29
482.27	2543.58
482.47	2451.42
482.67	2533.34
482.87	2439.13
483.07	2498.52
483.28	2383.84
483.48	2379.74
483.68	2461.66
483.88	2353.12
484.08	2207.71
484.29	2377.69
484.49	2527.19
484.69	2371.55
484.89	2629.59
485.09	2668.50
485.29	2555.86
485.50	2510.81
485.70	2426.84
485.90	2664.41
486.10	2562.01
486.30	2512.86
486.50	2621.40
486.71	2555.86
486.91	2465.75
487.11	2596.82
487.31	2267.10
487.51	2523.10
487.71	2367.45
487.91	2392.03
488.12	2410.46
488.32	2199.52
488.52	2412.51
488.72	2326.49
488.92	2521.05
489.12	2664.41
489.32	2555.86
489.53	2498.52
489.73	2310.11
489.93	2711.51
490.13	2420.70
490.33	2285.53
490.53	2521.05
490.73	2617.30
490.94	2316.25
491.14	2525.15
491.34	2641.88
491.54	2779.09
491.74	3366.86
491.94	4018.11
492.14	4333.50
492.34	4405.18
492.54	4116.42
492.75	3440.59
492.95	3471.31
493.15	3284.94
493.35	3203.02
493.55	2983.89
493.75	2926.55
493.95	3098.58
494.15	2781.14
494.35	2613.21
494.56	2527.19
494.76	2486.23
494.96	2543.58
495.16	2437.08
495.36	2416.60
495.56	2576.34
495.76	2451.42
495.96	2475.99
496.16	2422.75
496.36	2787.29
496.56	2494.43
496.77	2512.86
496.97	2484.19
497.17	2707.41
497.37	2291.68
497.57	2514.91
497.77	2523.10
497.97	2365.40
498.17	2496.47
498.37	2441.18
498.57	2523.10
498.77	2412.51
498.97	2521.05
499.17	2637.78
499.38	2459.61
499.58	2625.50
499.78	2539.48
499.98	2609.11
500.18	2523.10
500.38	2416.60
500.58	2693.08
500.78	3149.78
500.98	5511.08
501.18	7628.68
501.38	9260.91
501.58	10262.37
501.78	9936.74
501.98	7987.08
502.18	6811.54
502.38	5828.52
502.58	5523.37
502.78	4911.03
502.98	4652.98
503.18	4519.87
503.38	4079.55
503.59	3600.33
503.79	3440.59
503.99	3207.12
504.19	3018.71
504.39	3162.06
504.59	2998.23
504.79	3039.19
504.99	3043.28
505.19	2861.01
505.39	2682.84
505.59	2822.10
505.79	2826.20
505.99	2699.22
506.19	2527.19
506.39	2760.66
506.59	2453.47
506.79	2490.33
506.99	2596.82
507.19	2457.56
507.39	2568.15
507.59	2326.49
507.79	2400.22
507.99	2432.99
508.19	2539.48
508.39	2445.27
508.59	2435.03
508.79	2564.06
508.99	2797.53
509.19	2486.23
509.39	2531.29
509.59	2367.45
509.79	2439.13
509.99	2555.86
510.19	2609.11
510.39	2510.81
510.59	2471.90
510.79	2463.71
510.99	2357.21
511.19	2506.71
511.39	2678.74
511.59	2637.78
511.79	2564.06
511.99	2449.37
512.19	2717.65
512.38	2537.43
512.58	2441.18
512.78	2447.32
512.98	2703.32
513.18	2742.23
513.38	2332.64
513.58	2514.91
513.78	2537.43
513.98	2410.46
514.18	2424.80
514.38	2441.18
514.58	2510.81
514.78	2355.16
514.98	2379.74
515.18	2482.14
515.38	2377.69
515.58	2764.76
515.78	2559.96
515.98	2389.98
516.18	2545.63
516.38	2473.95
516.57	2408.41
516.77	2420.70
516.97	2498.52
517.17	2428.89
517.37	2263.01
517.57	2486.23
517.77	2525.15
517.97	2465.75
518.17	2506.71
518.37	2392.03
518.57	2443.23
518.77	2435.03
518.97	2437.08
519.16	2547.67
519.36	2631.64
519.56	2480.09
519.76	2441.18
519.96	2490.33
520.16	2625.50
520.36	2441.18
520.56	2602.97
520.76	2447.32
520.96	2488.28
521.16	2650.07
521.35	2627.54
521.55	2588.63
521.75	2512.86
521.95	2447.32
522.15	2379.74
522.35	2338.78
522.55	2365.40
522.75	2605.02
522.95	2447.32
523.14	2344.92
523.34	2502.62
523.54	2428.89
523.74	2508.76
523.94	2514.91
524.14	2353.12
524.34	2537.43
524.54	2680.79
524.73	2394.08
524.93	2519.00
525.13	2547.67
525.33	2299.87
525.53	2645.98
525.73	2580.44
525.93	2453.47
526.13	2467.80
526.32	2408.41
526.52	2605.02
526.72	2551.77
526.92	2367.45
527.12	2437.08
527.32	2406.36
527.52	2531.29
527.71	2490.33
527.91	2504.67
528.11	2455.51
528.31	2482.14
528.51	2342.88
528.71	2588.63
528.90	2580.44
529.10	2654.17
529.30	2623.45
529.50	2234.33
529.70	2516.95
529.90	2428.89
530.09	2441.18
530.29	2357.21
530.49	2301.92
530.69	2822.10
530.89	2535.39
531.09	2486.23
531.28	2455.51
531.48	2613.21
531.68	2414.56
531.88	2463.71
532.08	2645.98
532.28	2455.51
532.47	2480.09
532.67	2617.30
532.87	2580.44
533.07	2453.47
533.27	2637.78
533.46	2576.34
533.66	2547.67
533.86	2459.61
534.06	2490.33
534.26	2486.23
534.45	2547.67
534.65	2633.69
534.85	2545.63
535.05	2469.85
535.25	2564.06
535.44	2353.12
535.64	2557.91
535.84	2439.13
536.04	2467.80
536.24	2492.38
536.43	2404.32
536.63	2449.37
536.83	2488.28
537.03	2449.37
537.22	2236.38
537.42	2334.68
537.62	2459.61
537.82	2424.80
538.02	2555.86
538.21	2596.82
538.41	2881.49
538.61	2564.06
538.81	2449.37
539.00	2527.19
539.20	2299.87
539.40	2422.75
539.60	2525.15
539.79	2605.02
539.99	2455.51
540.19	2314.20
540.39	2449.37
540.58	2525.15
540.78	2627.54
540.98	2562.01
541.18	2551.77
541.37	2514.91
541.57	2465.75
541.77	2463.71
541.97	2398.17
542.16	2351.07
542.36	2453.47
542.56	2449.37
542.76	2602.97
542.95	2467.80
543.15	2537.43
543.35	2584.54
543.54	2301.92
543.74	2416.60
543.94	2592.73
544.14	2467.80
544.33	2605.02
544.53	2420.70
544.73	2443.23
544.93	2463.71
545.12	2430.94
545.32	2484.19
545.52	2424.80
545.71	2342.88
545.91	2406.36
546.11	2482.14
546.30	2355.16
546.50	2490.33
546.70	2504.67
546.90	2455.51
547.09	2252.77
547.29	2512.86
547.49	2535.39
547.68	2445.27
547.88	2375.64
548.08	2580.44
548.27	2875.35
548.47	2383.84
548.67	2449.37
548.87	2564.06
549.06	2428.89
549.26	2551.77
549.46	2514.91
549.65	2426.84
549.85	2523.10
550.05	2492.38
550.24	2400.22
550.44	2529.24
550.64	2488.28
550.83	2412.51
551.03	2703.32
551.23	2656.22
551.42	2504.67
551.62	2383.84
551.82	2453.47
552.01	2414.56
552.21	2643.93
552.41	2473.95
552.60	2736.09
552.80	2519.00
553.00	2410.46
553.19	2432.99
553.39	2629.59
553.59	2297.82
553.78	2529.24
553.98	2465.75
554.17	2312.16
554.37	2519.00
554.57	2555.86
554.76	2324.44
554.96	2428.89
555.16	2578.39
555.35	2488.28
555.55	2553.82
555.75	2547.67
555.94	2621.40
556.14	2318.30
556.33	2519.00
556.53	2500.57
556.73	2426.84
556.92	2537.43
557.12	2570.20
557.32	2746.33
557.51	2668.50
557.71	2502.62
557.90	2637.78
558.10	2641.88
558.30	2441.18
558.49	2482.14
558.69	2396.12
558.88	2553.82
559.08	2512.86
559.28	2480.09
559.47	2445.27
559.67	2590.68
559.86	2658.26
560.06	2435.03
560.26	2459.61
560.45	2605.02
560.65	2435.03
560.84	2633.69
561.04	2357.21
561.24	2533.34
561.43	2334.68
561.63	2662.36
561.82	2551.77
562.02	2547.67
562.22	2381.79
562.41	2349.02
562.61	2404.32
562.80	2453.47
563.00	2693.08
563.19	2422.75
563.39	2463.71
563.59	2519.00
563.78	2392.03
563.98	2185.18
564.17	2400.22
564.37	2256.86
564.56	2496.47
564.76	2306.01
564.96	2662.36
565.15	2562.01
565.35	2820.05
565.54	2381.79
565.74	2568.15
565.93	2514.91
566.13	2551.77
566.32	2527.19
566.52	2445.27
566.71	2502.62
566.91	2602.97
567.11	2555.86
567.30	2453.47
567.50	2590.68
567.69	2572.25
567.89	2396.12
568.08	2330.59
568.28	2480.09
568.47	2340.83
568.67	2445.27
568.86	2457.56
569.06	2555.86
569.25	2437.08
569.45	2410.46
569.64	2375.64
569.84	2471.90
570.04	2527.19
570.23	2404.32
570.43	2455.51
570.62	2519.00
570.82	2725.85
571.01	2330.59
571.21	2402.27
571.40	2375.64
571.60	2600.92
571.79	2547.67
571.99	2435.03
572.18	2398.17
572.38	2553.82
572.57	2406.36
572.77	2580.44
572.96	2777.05
573.16	2598.87
573.35	2455.51
573.55	2650.07
573.74	2512.86
573.94	2455.51
574.13	2471.90
574.33	2578.39
574.52	2709.46
574.71	2533.34
574.91	2514.91
575.10	2367.45
575.30	2496.47
575.49	2398.17
575.69	2453.47
575.88	2570.20
576.08	2484.19
576.27	2652.12
576.47	2478.04
576.66	2658.26
576.86	2715.61
577.05	2578.39
577.25	2533.34
577.44	2725.85
577.64	2500.57
577.83	2627.54
578.02	2475.99
578.22	2596.82
578.41	2709.46
578.61	2418.65
578.80	2389.98
579.00	2455.51
579.19	2514.91
579.39	2535.39
579.58	2635.74
579.77	2504.67
579.97	2617.30
580.16	2674.65
580.36	2621.40
580.55	2557.91
580.75	2535.39
580.94	2498.52
581.13	2662.36
581.33	2670.55
581.52	2467.80
581.72	2752.47
581.91	2695.13
582.11	2498.52
582.30	2639.83
582.49	2508.76
582.69	2668.50
582.88	2541.53
583.08	2621.40
583.27	2656.22
583.47	2629.59
583.66	2459.61
583.85	2344.92
584.05	2588.63
584.24	2600.92
584.44	2535.39
584.63	2609.11
584.82	2736.09
585.02	2670.55
585.21	2688.98
585.41	2695.13
585.60	2580.44
585.79	2775.00
585.99	2736.09
586.18	2658.26
586.37	3225.55
586.57	5066.67
586.76	15148.82
586.96	34541.04
587.15	48530.72
587.34	58004.62
587.54	62112.84
587.73	56497.31
587.93	39871.90
588.12	30006.84
588.31	24184.46
588.51	21292.73
588.70	19674.84
588.89	17698.55
589.09	15040.28
589.28	12873.53
589.47	10385.25
589.67	8173.44
589.86	6229.92
590.06	4665.27
590.25	3915.72
590.44	3420.11
590.64	2979.79
590.83	2818.00
591.02	2826.20
591.22	2572.25
591.41	2617.30
591.60	2553.82
591.80	2824.15
591.99	2389.98
592.18	2432.99
592.38	2584.54
592.57	2473.95
592.76	2508.76
592.96	2592.73
593.15	2457.56
593.34	2562.01
593.54	2463.71
593.73	2539.48
593.92	2547.67
594.12	2648.02
594.31	2576.34
594.50	2627.54
594.70	2555.86
594.89	2858.96
595.08	2379.74
595.28	2627.54
595.47	2883.54
595.66	2617.30
595.86	2400.22
596.05	2418.65
596.24	2441.18
596.43	2813.91
596.63	2584.54
596.82	2523.10
597.01	2543.58
597.21	2703.32
597.40	2473.95
597.59	2455.51
597.79	2576.34
597.98	2549.72
598.17	2502.62
598.36	2494.43
598.56	2643.93
598.75	2439.13
598.94	2490.33
599.14	2537.43
599.33	2512.86
599.52	2594.78
599.71	2572.25
599.91	2535.39
600.10	2568.15
600.29	2588.63
600.48	2547.67
600.68	2564.06
600.87	2547.67
601.06	2500.57
601.26	2514.91
601.45	2525.15
601.64	2392.03
601.83	2641.88
602.03	2351.07
602.22	2322.40
602.41	2600.92
602.60	2805.72
602.80	2527.19
602.99	2502.62
603.18	2469.85
603.37	2545.63
603.57	2471.90
603.76	2572.25
603.95	2580.44
604.14	2389.98
604.34	2455.51
604.53	2459.61
604.72	2572.25
604.91	2555.86
605.10	2514.91
605.30	2336.73
605.49	2805.72
605.68	2564.06
605.87	2510.81
606.07	2349.02
606.26	2492.38
606.45	2592.73
606.64	2502.62
606.84	2504.67
607.03	2492.38
607.22	2639.83
607.41	2512.86
607.60	2437.08
607.80	2629.59
607.99	2523.10
608.18	2486.23
608.37	2435.03
608.56	2492.38
608.76	2719.70
608.95	2613.21
609.14	2510.81
609.33	2660.31
609.52	2676.70
609.72	2582.49
609.91	2688.98
610.10	2541.53
610.29	2729.94
610.48	2555.86
610.68	2605.02
610.87	2535.39
611.06	2607.06
611.25	2439.13
611.44	2643.93
611.63	2480.09
611.83	2723.80
612.02	2373.60
612.21	2654.17
612.40	2244.57
612.59	2349.02
612.79	2365.40
612.98	2488.28
613.17	2711.51
613.36	2500.57
613.55	2703.32
613.74	2586.58
613.93	2658.26
614.13	2701.27
614.32	2742.23
614.51	2594.78
614.70	2555.86
614.89	2523.10
615.08	2629.59
615.28	2990.03
615.47	2463.71
615.66	2619.35
615.85	2555.86
616.04	2645.98
616.23	2568.15
616.42	2555.86
616.62	2531.29
616.81	2596.82
617.00	2519.00
617.19	2590.68
617.38	2387.93
617.57	2572.25
617.76	2570.20
617.95	2600.92
618.15	2637.78
618.34	2654.17
618.53	2269.15
618.72	2637.78
618.91	2551.77
619.10	2658.26
619.29	2455.51
619.48	2541.53
619.68	2379.74
619.87	2455.51
620.06	2326.49
620.25	2545.63
620.44	2426.84
620.63	2426.84
620.82	2596.82
621.01	2547.67
621.20	2467.80
621.39	2459.61
621.59	2594.78
621.78	2555.86
621.97	2439.13
622.16	2600.92
622.35	2625.50
622.54	2580.44
622.73	2545.63
622.92	2316.25
623.11	2645.98
623.30	2441.18
623.49	2445.27
623.68	2340.83
623.88	2625.50
624.07	2502.62
624.26	2523.10
624.45	2455.51
624.64	2375.64
624.83	2424.80
625.02	2473.95
625.21	2514.91
625.40	2519.00
625.59	2695.13
625.78	2457.56
625.97	2613.21
626.16	2725.85
626.35	2682.84
626.54	2535.39
626.74	2625.50
626.93	2519.00
627.12	2500.57
627.31	2523.10
627.50	2539.48
627.69	2588.63
627.88	2402.27
628.07	2426.84
628.26	2263.01
628.45	2494.43
628.64	2430.94
628.83	2424.80
629.02	2340.83
629.21	2510.81
629.40	2523.10
629.59	2443.23
629.78	2424.80
629.97	2484.19
630.16	2475.99
630.35	2463.71
630.54	2533.34
630.73	2469.85
630.92	2535.39
631.11	2424.80
631.30	2523.10
631.49	2613.21
631.68	2461.66
631.87	2519.00
632.06	2349.02
632.25	2801.62
632.44	2572.25
632.63	2537.43
632.82	2437.08
633.01	2473.95
633.20	2547.67
633.39	2469.85
633.58	2373.60
633.77	2631.64
633.96	2723.80
634.15	2543.58
634.34	2545.63
634.53	2547.67
634.72	2453.47
634.91	2252.77
635.10	2514.91
635.29	2535.39
635.48	2600.92
635.67	2439.13
635.86	2283.49
636.05	2629.59
636.24	2473.95
636.43	2478.04
636.62	2525.15
636.81	2230.24
637.00	2512.86
637.19	2551.77
637.38	2523.10
637.57	2414.56
637.76	2637.78
637.95	2719.70
638.14	2537.43
638.33	2678.74
638.52	2541.53
638.71	2392.03
638.89	2398.17
639.08	2842.58
639.27	2707.41
639.46	2729.94
639.65	3125.20
639.84	3211.22
640.03	3311.57
640.22	3045.33
640.41	3143.63
640.60	2785.24
640.79	2772.95
640.98	2650.07
641.17	2764.76
641.36	2727.89
641.55	2760.66
641.74	2482.14
641.92	2461.66
642.11	2514.91
642.30	2459.61
642.49	2371.55
642.68	2392.03
642.87	2543.58
643.06	2531.29
643.25	2424.80
643.44	2326.49
643.63	2498.52
643.82	2590.68
644.00	2338.78
644.19	2451.42
644.38	2355.16
644.57	2564.06
644.76	2514.91
644.95	2387.93
645.14	2547.67
645.33	2473.95
645.52	2506.71
645.71	2322.40
645.89	2404.32
646.08	2465.75
646.27	2480.09
646.46	2719.70
646.65	2404.32
646.84	2449.37
647.03	2293.72
647.22	2588.63
647.40	2551.77
647.59	2392.03
647.78	2310.11
647.97	2441.18
648.16	2412.51
648.35	2662.36
648.54	2592.73
648.73	2392.03
648.91	2559.96
649.10	2492.38
649.29	2406.36
649.48	2455.51
649.67	2512.86
649.86	2514.91
650.05	2498.52
650.23	2768.85
650.42	2484.19
650.61	2764.76
650.80	2576.34
650.99	2813.91
651.18	2717.65
651.36	2688.98
651.55	2412.51
651.74	2578.39
651.93	2506.71
652.12	2449.37
652.31	2484.19
652.49	2437.08
652.68	2492.38
652.87	2713.56
653.06	2547.67
653.25	2709.46
653.44	2555.86
653.62	2695.13
653.81	2504.67
654.00	2400.22
654.19	2586.58
654.38	2861.01
654.56	2480.09
654.75	2410.46
654.94	2555.86
655.13	2551.77
655.32	2422.75
655.51	2578.39
655.69	2480.09
655.88	2543.58
656.07	2375.64
656.26	2473.95
656.45	2346.97
656.63	2531.29
656.82	2492.38
657.01	2519.00
657.20	2475.99
657.38	2688.98
657.57	2377.69
657.76	2275.29
657.95	2588.63
658.14	2383.84
658.32	2449.37
658.51	2334.68
658.70	2514.91
658.89	2496.47
659.08	2533.34
659.26	2664.41
659.45	2445.27
659.64	2592.73
659.83	2547.67
660.01	2852.82
660.20	2590.68
660.39	2740.18
660.58	2250.72
660.76	2521.05
660.95	2371.55
661.14	2572.25
661.33	2400.22
661.51	2457.56
661.70	2478.04
661.89	2531.29
662.08	2463.71
662.26	2293.72
662.45	2373.60
662.64	2711.51
662.83	2529.24
663.01	2336.73
663.20	2387.93
663.39	2668.50
663.58	2482.14
663.76	2451.42
663.95	2553.82
664.14	2420.70
664.32	2432.99
664.51	2400.22
664.70	2275.29
664.89	2551.77
665.07	2346.97
665.26	2559.96
665.45	2342.88
665.64	2510.81
665.82	2504.67
666.01	2463.71
666.20	2351.07
666.38	2562.01
666.57	2693.08
666.76	3950.53
666.95	9641.84
667.13	18253.55
667.32	22920.87
667.51	26590.83
667.69	27981.40
667.88	24977.03
668.07	17643.25
668.25	14341.93
668.44	12078.92
668.63	10530.66
668.81	9066.36
669.00	7952.26
669.19	7088.02
669.38	6199.20
669.56	5222.32
669.75	4415.42
669.94	3848.13
670.12	3182.54
670.31	2895.83
670.50	2805.72
670.68	2824.15
670.87	2668.50
671.06	2471.90
671.24	2547.67
671.43	2779.09
671.62	2498.52
671.80	2521.05
671.99	2512.86
672.18	2435.03
672.36	2543.58
672.55	2570.20
672.74	2547.67
672.92	2482.14
673.11	2564.06
673.29	2301.92
673.48	2627.54
673.67	2498.52
673.85	2564.06
674.04	2361.31
674.23	2521.05
674.41	2721.75
674.60	2361.31
674.79	2211.81
674.97	2281.44
675.16	2566.10
675.34	2553.82
675.53	2418.65
675.72	2543.58
675.90	2725.85
676.09	2404.32
676.28	2504.67
676.46	2285.53
676.65	2498.52
676.83	2400.22
677.02	2551.77
677.21	2508.76
677.39	2584.54
677.58	2373.60
677.77	2416.60
677.95	2375.64
678.14	2449.37
678.32	2424.80
678.51	2428.89
678.70	2707.41
678.88	2508.76
679.07	2484.19
679.25	2463.71
679.44	2506.71
679.63	2324.44
679.81	2506.71
680.00	2562.01
680.18	2512.86
680.37	2652.12
680.55	2451.42
680.74	2324.44
680.93	2252.77
681.11	2525.15
681.30	2447.32
681.48	2457.56
681.67	2375.64
681.85	2531.29
682.04	2357.21
682.23	2535.39
682.41	2502.62
682.60	2469.85
682.78	2471.90
682.97	2301.92
683.15	2346.97
683.34	2494.43
683.53	2670.55
683.71	2271.20
683.90	2629.59
684.08	2633.69
684.27	2506.71
684.45	2432.99
684.64	2584.54
684.82	2494.43
685.01	2586.58
685.19	2455.51
685.38	2572.25
685.57	2467.80
685.75	2351.07
685.94	2412.51
686.12	2340.83
686.31	2441.18
686.49	2711.51
686.68	2306.01
686.86	2539.48
687.05	2398.17
687.23	2711.51
687.42	2396.12
687.60	2232.29
687.79	2574.30
687.97	2645.98
688.16	2643.93
688.34	2621.40
688.53	2326.49
688.71	2545.63
688.90	2760.66
689.08	2451.42
689.27	2344.92
689.45	2635.74
689.64	2527.19
689.82	2494.43
690.01	2529.24
690.19	2527.19
690.38	2443.23
690.56	2600.92
690.75	2361.31
690.93	2455.51
691.12	2340.83
691.30	2519.00
691.49	2383.84
691.67	2443.23
691.86	2734.04
692.04	2486.23
692.23	2480.09
692.41	2559.96
692.60	2768.85
692.78	2605.02
692.97	2588.63
693.15	2551.77
693.34	2645.98
693.52	2666.46
693.71	2469.85
693.89	2402.27
694.08	2285.53
694.26	2562.01
694.44	2633.69
694.63	2609.11
694.81	2389.98
695.00	2406.36
695.18	2633.69
695.37	2838.48
695.55	2545.63
695.74	2465.75
695.92	2326.49
696.10	2637.78
696.29	2318.30
696.47	2375.64
696.66	2269.15
696.84	2363.36
697.03	2457.56
697.21	2637.78
697.40	3731.40
697.58	2578.39
697.76	2396.12
697.95	2392.03
698.13	2314.20
698.32	2410.46
698.50	2527.19
698.68	2553.82
698.87	2506.71
699.05	2699.22
699.24	2467.80
699.42	2344.92
699.61	2439.13
699.79	2490.33
699.97	2461.66
700.16	2351.07
700.34	2387.93
700.53	2486.23
700.71	2703.32
700.89	2527.19
701.08	2392.03
701.26	2478.04
701.45	2934.74
701.63	2334.68
701.81	2398.17
702.00	2455.51
702.18	2412.51
702.37	2461.66
702.55	2762.71
702.73	2648.02
702.92	2535.39
703.10	2811.86
703.28	2660.31
703.47	2506.71
703.65	2686.94
703.84	2662.36
704.02	2525.15
704.20	2658.26
704.39	2457.56
704.57	2521.05
704.75	2643.93
704.94	2572.25
705.12	2512.86
705.30	2922.45
705.49	5414.83
705.67	12898.11
705.86	20811.46
706.04	24428.17
706.22	27721.30
706.41	28339.79
706.59	22951.59
706.77	16715.52
706.96	14104.36
707.14	12443.46
707.32	10717.02
707.51	9568.11
707.69	7776.14
707.87	6260.64
708.06	5015.48
708.24	4085.70
708.42	3432.40
708.61	3215.31
708.79	2654.17
708.97	2727.89
709.16	2707.41
709.34	2572.25
709.52	2488.28
709.71	2492.38
709.89	2574.30
710.07	2480.09
710.26	2490.33
710.44	2453.47
710.62	2633.69
710.80	2416.60
710.99	2586.58
711.17	2543.58
711.35	2349.02
711.54	2437.08
711.72	2648.02
711.90	2543.58
712.09	2506.71
712.27	2478.04
712.45	2484.19
712.63	2422.75
712.82	2539.48
713.00	2441.18
713.18	2539.48
713.37	2559.96
713.55	2596.82
713.73	2547.67
713.91	2451.42
714.10	2455.51
714.28	2512.86
714.46	2486.23
714.65	2486.23
714.83	2547.67
715.01	2586.58
715.19	2490.33
715.38	2389.98
715.56	2478.04
715.74	2351.07
715.92	2351.07
716.11	2654.17
716.29	2293.72
716.47	2445.27
716.65	2478.04
716.84	2342.88
717.02	2547.67
717.20	2260.96
717.38	2392.03
717.57	2523.10
717.75	2488.28
717.93	2387.93
718.11	2568.15
718.30	2320.35
718.48	2537.43
718.66	2596.82
718.84	2666.46
719.03	2449.37
719.21	2355.16
719.39	2652.12
719.57	2584.54
719.75	2594.78
719.94	2441.18
720.12	2439.13
720.30	2537.43
720.48	2621.40
720.67	2389.98
720.85	2373.60
721.03	2435.03
721.21	2316.25
721.39	2588.63
721.58	2607.06
721.76	2435.03
721.94	2498.52
722.12	2443.23
722.30	2723.80
722.49	2490.33
722.67	2539.48
722.85	2508.76
723.03	2289.63
723.21	2373.60
723.40	2451.42
723.58	2572.25
723.76	2639.83
723.94	2711.51
724.12	2627.54
724.30	2662.36
724.49	2752.47
724.67	2408.41
724.85	2600.92
725.03	2387.93
725.21	2619.35
725.40	2682.84
725.58	2432.99
725.76	2572.25
725.94	2609.11
726.12	2375.64
726.30	2480.09
726.49	2510.81
726.67	2389.98
726.85	2514.91
727.03	2990.03
727.21	4194.24
727.39	5894.05
727.57	6733.72
727.76	7397.26
727.94	7782.28
728.12	7004.05
728.30	5621.67
728.48	4962.23
728.66	4523.96
728.84	4132.80
729.03	3600.33
729.21	3295.18
729.39	3043.28
729.57	2818.00
729.75	2588.63
729.93	2619.35
730.11	2473.95
730.30	2396.12
730.48	2441.18
730.66	2670.55
730.84	2572.25
731.02	2512.86
731.20	2488.28
731.38	2488.28
731.56	2340.83
731.74	2326.49
731.93	2533.34
732.11	2443.23
732.29	2469.85
732.47	2566.10
732.65	2512.86
732.83	2613.21
733.01	2529.24
733.19	2471.90
733.37	2510.81
733.56	2490.33
733.74	2430.94
733.92	2645.98
734.10	2406.36
734.28	2609.11
734.46	2285.53
734.64	2414.56
734.82	2519.00
735.00	2394.08
735.18	2414.56
735.36	2406.36
735.54	2475.99
735.73	2453.47
735.91	2562.01
736.09	2617.30
736.27	2482.14
736.45	2523.10
736.63	2269.15
736.81	2383.84
736.99	2666.46
737.17	2662.36
737.35	2414.56
737.53	2533.34
737.71	2437.08
737.89	2607.06
738.07	2351.07
738.25	2355.16
738.43	2326.49
738.61	2394.08
738.80	2402.27
738.98	2381.79
739.16	2498.52
739.34	2383.84
739.52	2537.43
739.70	2424.80
739.88	2504.67
740.06	2590.68
740.24	2263.01
740.42	2594.78
740.60	2213.85
740.78	2480.09
740.96	2244.57
741.14	2402.27
741.32	2453.47
741.50	2371.55
741.68	2678.74
741.86	2652.12
742.04	2330.59
742.22	2340.83
742.40	2443.23
742.58	2490.33
742.76	2402.27
742.94	2553.82
743.12	2328.54
743.30	2519.00
743.48	2547.67
743.66	2334.68
743.84	2557.91
744.02	2455.51
744.20	2516.95
744.38	2355.16
744.56	2383.84
744.74	2666.46
744.92	2621.40
745.10	2629.59
745.28	2463.71
745.46	2639.83
745.64	2398.17
745.82	2607.06
746.00	2412.51
746.18	2514.91
746.36	2383.84
746.54	2590.68
746.72	2473.95
746.90	2308.06
747.08	2697.17
747.26	2392.03
747.44	2664.41
747.62	2514.91
747.80	2514.91
747.98	2514.91
748.15	2447.32
748.33	2783.19
748.51	2467.80
748.69	2514.91
748.87	2396.12
749.05	2396.12
749.23	2543.58
749.41	2549.72
749.59	2529.24
749.77	2609.11
749.95	2375.64
750.13	2387.93
750.31	2478.04
750.49	2506.71
750.67	2523.10
750.85	2684.89
751.03	2449.37
751.20	2693.08
751.38	2502.62
751.56	2519.00
751.74	2504.67
751.92	2437.08
752.10	2400.22
752.28	2615.26
752.46	2281.44
752.64	2478.04
752.82	2441.18
753.00	2615.26
753.18	2371.55
753.35	2455.51
753.53	2461.66
753.71	2414.56
753.89	2519.00
754.07	2525.15
754.25	2629.59
754.43	2514.91
754.61	2392.03
754.79	2529.24
754.97	2455.51
755.14	2613.21
755.32	2381.79
755.50	2441.18
755.68	2486.23
755.86	2273.25
756.04	2322.40
756.22	2342.88
756.40	2600.92
756.57	2643.93
756.75	2414.56
756.93	2725.85
757.11	2588.63
757.29	2414.56
757.47	2351.07
757.65	2301.92
757.82	2242.53
758.00	2330.59
758.18	2439.13
758.36	2338.78
758.54	2703.32
758.72	2269.15
758.90	2568.15
759.07	2463.71
759.25	2359.26
759.43	2498.52
759.61	2295.77
759.79	3536.84
759.97	2613.21
760.15	2379.74
760.32	2494.43
760.50	2580.44
760.68	2727.89
760.86	2260.96
761.04	2564.06
761.22	2553.82
761.39	2414.56
761.57	2586.58
761.75	2416.60
761.93	2531.29
762.11	2451.42
762.28	2486.23
762.46	2385.88
762.64	2545.63
762.82	2293.72
763.00	2449.37
763.18	2650.07
763.35	2324.44
763.53	2537.43
763.71	2494.43
763.89	2457.56
764.07	2533.34
764.24	2506.71
764.42	2594.78
764.60	2361.31
764.78	2539.48
764.96	2629.59
765.13	2664.41
765.31	2465.75
765.49	2576.34
765.67	2430.94
765.84	2310.11
766.02	2402.27
766.20	2310.11
766.38	2469.85
766.56	2559.96
766.73	2547.67
766.91	2564.06
767.09	2570.20
767.27	2516.95
767.44	2367.45
767.62	2514.91
767.80	2527.19
767.98	2453.47
768.15	2420.70
768.33	2637.78
768.51	2641.88
768.69	2500.57
768.87	2447.32
769.04	2494.43
769.22	2748.37
769.40	2633.69
769.58	2670.55
769.75	2500.57
769.93	2625.50
770.11	2463.71
770.28	2392.03
770.46	2576.34
770.64	2551.77
770.82	2422.75
770.99	2449.37
771.17	2498.52
771.35	2408.41
771.53	2385.88
771.70	2426.84
771.88	2533.34
772.06	2484.19
772.23	2375.64
772.41	2480.09
772.59	2394.08
772.77	2238.43
772.94	2471.90
773.12	2566.10
773.30	2400.22
773.47	2527.19
773.65	2398.17
773.83	2539.48
774.01	2457.56
774.18	2301.92
774.36	2406.36
774.54	2256.86
774.71	2633.69
774.89	2330.59
775.07	2430.94
775.24	2398.17
775.42	2392.03
775.60	2701.27
775.78	2359.26
775.95	2277.34
776.13	2303.96
776.31	2244.57
776.48	2430.94
776.66	2568.15
776.84	2406.36
777.01	2279.39
777.19	2316.25
777.37	2357.21
777.54	2570.20
777.72	2727.89
777.90	2521.05
778.07	2353.12
778.25	2858.96
778.43	2670.55
778.60	2394.08
778.78	2539.48
778.96	2635.74
779.13	2310.11
779.31	2580.44
779.49	2430.94
779.66	2535.39
779.84	2531.29
780.01	2367.45
780.19	2346.97
780.37	2557.91
780.54	2547.67
780.72	2365.40
780.90	2392.03
781.07	2402.27
781.25	2377.69
781.43	2602.97
781.60	2387.93
781.78	2600.92
781.95	2498.52
782.13	2342.88
782.31	2471.90
782.48	2213.85
782.66	2496.47
782.83	2666.46
783.01	2564.06
783.19	2621.40
783.36	2441.18
783.54	2324.44
783.72	2582.49
783.89	2457.56
784.07	2463.71
784.24	2502.62
784.42	2539.48
784.60	2527.19
784.77	2504.67
784.95	2283.49
785.12	2439.13
785.30	2514.91
785.47	2418.65
785.65	2322.40
785.83	2447.32
786.00	2400.22
786.18	2469.85
786.35	2365.40
786.53	2387.93
786.71	2564.06
786.88	2525.15
787.06	2490.33
787.23	2445.27
787.41	2373.60
787.58	2404.32
787.76	2383.84
787.94	2451.42
788.11	2539.48
788.29	2318.30
788.46	2342.88
788.64	2363.36
788.81	2426.84
788.99	2404.32
789.16	2285.53
789.34	2381.79
789.52	2463.71
789.69	2334.68
789.87	2260.96
790.04	2400.22
790.22	2473.95
790.39	2768.85
790.57	2367.45
790.74	2383.84
790.92	2555.86
791.09	2314.20
791.27	2502.62
791.44	2510.81
791.62	2502.62
791.79	2551.77
791.97	2510.81
792.15	2797.53
792.32	2512.86
792.50	2555.86
792.67	2600.92
792.85	2678.74
793.02	2480.09
793.20	2381.79
793.37	2316.25
793.55	2439.13
793.72	2355.16
793.90	2633.69
794.07	2404.32
794.25	2453.47
794.42	2490.33
794.60	2406.36
794.77	2502.62
794.95	2447.32
795.12	2592.73
795.30	2504.67
795.47	2252.77
795.65	2719.70
795.82	2559.96
796.00	2400.22
796.17	2435.03
796.34	2375.64
796.52	2551.77
796.69	2609.11
796.87	2510.81
797.04	2498.52
797.22	2514.91
797.39	2496.47
797.57	2516.95
797.74	2482.14
797.92	2543.58
798.09	2400.22
798.27	2553.82
798.44	2404.32
798.62	2301.92
798.79	2514.91
798.96	2469.85
799.14	2396.12
799.31	2783.19
799.49	2455.51
799.66	2488.28
799.84	2435.03
800.01	2363.36
800.19	2568.15
800.36	2310.11
800.53	2379.74
800.71	2547.67
800.88	2652.12
801.06	2342.88
801.23	2398.17
801.41	2449.37
801.58	2473.95
801.75	2457.56
801.93	2488.28
802.10	2432.99
802.28	2457.56
802.45	2486.23
802.63	2551.77
802.80	2621.40
802.97	2387.93
803.15	2488.28
803.32	2316.25
803.50	2420.70
803.67	2441.18
803.84	2359.26
804.02	2441.18
804.19	2379.74
804.37	2285.53
804.54	2328.54
804.71	2428.89
804.89	2484.19
805.06	2338.78
805.24	2326.49
805.41	2359.26
805.58	2334.68
805.76	2838.48
805.93	2480.09
806.10	2566.10
806.28	2547.67
806.45	2564.06
806.63	2459.61
806.80	2506.71
806.97	2521.05
807.15	2525.15
807.32	2510.81
807.49	2424.80
807.67	2267.10
807.84	2510.81
808.01	2371.55
808.19	2598.87
808.36	2791.38
808.54	2439.13
808.71	2394.08
808.88	2389.98
809.06	2596.82
809.23	2686.94
809.40	2449.37
809.58	2537.43
809.75	2531.29
809.92	2359.26
810.10	2705.37
810.27	2424.80
810.44	2570.20
810.62	2600.92
810.79	2453.47
810.96	2361.31
811.14	2389.98
811.31	2564.06
811.48	2529.24
811.66	2512.86
811.83	2564.06
812.00	2621.40
812.18	2490.33
812.35	2641.88
812.52	2416.60
812.69	2420.70
812.87	2441.18
813.04	2359.26
813.21	2516.95
813.39	2396.12
813.56	2349.02
813.73	2637.78
813.91	2383.84
814.08	2451.42
814.25	2498.52
814.42	2234.33
814.60	2463.71
814.77	2496.47
814.94	2533.34
815.12	2502.62
815.29	2658.26
815.46	2383.84
815.63	2512.86
815.81	2406.36
815.98	2471.90
816.15	2484.19
816.33	2439.13
816.50	2443.23
816.67	2496.47
816.84	2447.32
817.02	2318.30
817.19	2490.33
817.36	2551.77
817.53	2549.72
817.71	2381.79
817.88	2465.75
818.05	2432.99
818.22	2453.47
818.40	2637.78
818.57	2412.51
818.74	2568.15
818.91	2480.09
819.09	2547.67
819.26	2600.92
819.43	2406.36
819.60	2432.99
819.78	2516.95
819.95	2555.86
820.12	2389.98
820.29	2680.79
820.47	2682.84
820.64	2365.40
820.81	2359.26
820.98	2318.30
821.15	2400.22
821.33	2484.19
821.50	2277.34
821.67	2555.86
821.84	2422.75
822.02	2510.81
822.19	2545.63
822.36	2400.22
822.53	2400.22
822.70	2371.55
822.88	2367.45
823.05	2600.92
823.22	2387.93
823.39	2439.13
823.56	2547.67
823.74	2719.70
823.91	2389.98
824.08	2334.68
824.25	2357.21
824.42	2717.65
824.60	2285.53
824.77	2475.99
824.94	2478.04
825.11	2555.86
825.28	2283.49
825.45	2498.52
825.63	2498.52
825.80	2402.27
825.97	2559.96
826.14	2506.71
826.31	2260.96
826.48	2547.67
826.66	2324.44
826.83	2320.35
827.00	2498.52
827.17	2367.45
827.34	2412.51
827.51	2408.41
827.69	2463.71
827.86	2277.34
828.03	2459.61
828.20	2418.65
828.37	2394.08
828.54	2475.99
828.71	2422.75
828.89	2580.44
829.06	2480.09
829.23	2686.94
829.40	2330.59
829.57	2408.41
829.74	2547.67
829.91	2365.40
830.09	2465.75
830.26	2582.49
830.43	2613.21
830.60	2432.99
830.77	2504.67
830.94	2592.73
831.11	2572.25
831.28	2471.90
831.46	2521.05
831.63	2424.80
831.80	2629.59
831.97	2437.08
832.14	2527.19
832.31	2519.00
832.48	2580.44
832.65	2629.59
832.82	2572.25
832.99	2510.81
833.17	2363.36
833.34	2545.63
833.51	2457.56
833.68	2250.72
833.85	2588.63
834.02	2394.08
834.19	2363.36
834.36	2396.12
834.53	2467.80
834.70	2527.19
834.87	2512.86
835.04	2443.23
835.22	2400.22
835.39	2398.17
835.56	2318.30
835.73	2373.60
835.90	2643.93
836.07	2355.16
836.24	2535.39
836.41	2406.36
836.58	2310.11
836.75	2596.82
836.92	2441.18
837.09	2351.07
837.26	2504.67
837.43	2461.66
837.60	2471.90
837.77	2389.98
837.94	2602.97
838.12	2625.50
838.29	2275.29
838.46	2281.44
838.63	2426.84
838.80	2701.27
838.97	2484.19
839.14	2346.97
839.31	2465.75
839.48	2676.70
839.65	2383.84
839.82	2461.66
839.99	2539.48
840.16	2437.08
840.33	2326.49
840.50	2346.97
840.67	2416.60
840.84	2211.81
841.01	2398.17
841.18	2318.30
841.35	2432.99
841.52	2547.67
841.69	2617.30
841.86	2398.17
842.03	2465.75
842.20	2537.43
842.37	2408.41
842.54	2365.40
842.71	2506.71
842.88	2277.34
843.05	2510.81
843.22	2398.17
843.39	2580.44
843.56	2418.65
843.73	2424.80
843.90	2463.71
844.07	2529.24
844.24	2553.82
844.41	2373.60
844.58	2490.33
844.75	2430.94
844.92	2527.19
845.09	2398.17
845.26	2301.92
845.43	2541.53
845.60	2400.22
845.77	2428.89
845.94	2492.38
846.10	2553.82
846.27	2265.05
846.44	2299.87
846.61	2283.49
846.78	2523.10
846.95	2551.77
847.12	2330.59
847.29	2355.16
847.46	2365.40
847.63	2586.58
847.80	2285.53
847.97	2404.32
848.14	2682.84
848.31	2357.21
848.48	2318.30
848.65	2428.89
848.82	2355.16
848.98	2762.71
849.15	2514.91
849.32	2533.34
849.49	2535.39
849.66	2531.29
849.83	2430.94
850.00	2310.11
850.17	2523.10
850.34	2410.46
850.51	2328.54
850.68	2383.84
850.85	2744.28
851.01	2547.67
851.18	2406.36
851.35	2467.80
851.52	2461.66
851.69	2643.93
851.86	2187.23
852.03	2318.30
852.20	2469.85
852.37	2506.71
852.53	2277.34
852.70	2281.44
852.87	2469.85
853.04	2510.81
853.21	2410.46
853.38	2547.67
853.55	2613.21
853.72	2654.17
853.89	2269.15
854.05	2410.46
854.22	2432.99
854.39	2453.47
854.56	2519.00
854.73	2435.03
854.90	2416.60
855.07	2494.43
855.23	2293.72
855.40	2416.60
855.57	2465.75
855.74	2285.53
855.91	2582.49
856.08	2275.29
856.25	2349.02
856.41	2449.37
856.58	2365.40
856.75	2357.21
856.92	2349.02
857.09	2605.02
857.26	2299.87
857.42	2486.23
857.59	2543.58
857.76	2494.43
857.93	2322.40
858.10	2441.18
858.27	2299.87
858.43	2459.61
858.60	2373.60
858.77	2234.33
858.94	2379.74
859.11	2629.59
859.27	2375.64
859.44	2392.03
859.61	2684.89
859.78	2617.30
859.95	2420.70
860.12	2383.84
860.28	2764.76
860.45	2680.79
860.62	2430.94
860.79	2453.47
860.95	2412.51
861.12	2422.75
861.29	2308.06
861.46	2344.92
861.63	2510.81
861.79	2496.47
861.96	2228.19
862.13	2357.21
862.30	2609.11
862.47	2396.12
862.63	2328.54
862.80	2359.26
862.97	2617.30
863.14	2578.39
863.30	2387.93
863.47	2334.68
863.64	2686.94
863.81	2488.28
863.97	2404.32
864.14	2377.69
864.31	2459.61
864.48	2600.92
864.65	2439.13
864.81	2510.81
864.98	2449.37
865.15	2590.68
865.32	2471.90
865.48	2412.51
865.65	2641.88
865.82	2363.36
865.98	2367.45
866.15	2512.86
866.32	2453.47
866.49	2408.41
866.65	2553.82
866.82	2291.68
866.99	2455.51
867.16	2420.70
867.32	2367.45
867.49	2322.40
867.66	2428.89
867.83	2412.51
867.99	2277.34
868.16	2375.64
868.33	2398.17
868.49	2498.52
868.66	2373.60
868.83	2455.51
868.99	2449.37
869.16	2457.56
869.33	2551.77
869.50	2463.71
869.66	2424.80
869.83	2484.19
870.00	2291.68
870.16	2506.71
870.33	2439.13
870.50	2588.63
870.66	2400.22
870.83	2447.32
871.00	2469.85
871.17	2547.67
871.33	2430.94
871.50	2324.44
871.67	2502.62
871.83	2420.70
872.00	2504.67
872.17	2260.96
872.33	2617.30
872.50	2611.16
872.67	2351.07
872.83	2445.27
873.00	2592.73
873.17	2488.28
873.33	2463.71
873.50	2463.71
873.67	2351.07
873.83	2398.17
874.00	2349.02
874.16	2480.09
874.33	2600.92
874.50	2398.17
874.66	2369.50
874.83	2418.65
875.00	2617.30
875.16	2496.47
875.33	2445.27
875.50	2226.14
875.66	2404.32
875.83	2527.19
875.99	2488.28
876.16	2432.99
876.33	2324.44
876.49	2402.27
876.66	2410.46
876.83	2426.84
876.99	2201.57
877.16	2488.28
877.32	2400.22
877.49	2400.22
877.66	2539.48
877.82	2635.74
877.99	2469.85
878.15	2588.63
878.32	2478.04
878.49	2490.33
878.65	2404.32
878.82	2529.24
878.98	2422.75
879.15	2660.31
879.32	2473.95
879.48	2457.56
879.65	2471.90
879.81	2455.51
879.98	2336.73
880.15	2359.26
880.31	2525.15
880.48	2371.55
880.64	2432.99
880.81	2475.99
880.97	2721.75
881.14	2654.17
881.31	2340.83
881.47	2607.06
881.64	2385.88
881.80	2203.61
881.97	2461.66
882.13	2383.84
882.30	2387.93
882.47	2422.75
882.63	2310.11
882.80	2308.06
882.96	2463.71
883.13	2711.51
883.29	2349.02
883.46	2445.27
883.62	2699.22
883.79	2502.62
883.95	2500.57
884.12	2373.60
884.29	2645.98
884.45	2484.19
884.62	2463.71
884.78	2410.46
884.95	2656.22
885.11	2367.45
885.28	2512.86
885.44	2332.64
885.61	2621.40
885.77	2682.84
885.94	2435.03
886.10	2422.75
886.27	2439.13
886.43	2635.74
886.60	2611.16
886.76	2439.13
886.93	2367.45
887.09	2414.56
887.26	2289.63
887.42	2451.42
887.59	2588.63
887.75	2781.14
887.92	2588.63
888.08	2473.95
888.25	2699.22
888.41	2523.10
888.58	2504.67
888.74	2346.97
888.91	2387.93
>>>>>End Processed Spectral Data<<<<<
