SpectraSuite Data File
++++++++++++++++++++++++++++++++++++
Date: Thu May 05 14:41:59 CEST 2016
User: root
Dark Spectrum Present: No
Reference Spectrum Present: No
Number of Sampled Component Spectra: 1
Spectrometers: USB4C02835
Integration Time (usec): 100000 (USB4C02835)
Spectra Averaged: 1 (USB4C02835)
Boxcar Smoothing: 0 (USB4C02835)
Correct for Electrical Dark: No (USB4C02835)
Strobe/Lamp Enabled: No (USB4C02835)
Correct for Detector Non-linearity: No (USB4C02835)
Correct for Stray Light: No (USB4C02835)
Number of Pixels in Processed Spectrum: 3648
>>>>>Begin Processed Spectral Data<<<<<
177.47	1900.52
177.69	1900.52
177.91	1900.52
178.13	1875.94
178.36	1884.13
178.58	2371.55
178.80	2428.89
179.02	2303.96
179.24	2389.98
179.46	2252.77
179.68	2363.36
179.90	2432.99
180.13	2461.66
180.35	2238.43
180.57	2359.26
180.79	2580.44
181.01	2478.04
181.23	2392.03
181.45	2426.84
181.67	2592.73
181.90	2598.87
182.12	2392.03
182.34	2191.33
182.56	2537.43
182.78	2564.06
183.00	2330.59
183.22	2441.18
183.44	2306.01
183.66	2791.38
183.89	2592.73
184.11	2357.21
184.33	2596.82
184.55	2592.73
184.77	2310.11
184.99	2410.46
185.21	2463.71
185.43	2711.51
185.65	2330.59
185.87	2318.30
186.10	2777.05
186.32	2822.10
186.54	2359.26
186.76	2480.09
186.98	2564.06
187.20	2480.09
187.42	2418.65
187.64	2361.31
187.86	2521.05
188.08	2521.05
188.30	2349.02
188.52	2349.02
188.75	2611.16
188.97	2641.88
189.19	2324.44
189.41	2295.77
189.63	2535.39
189.85	2365.40
190.07	2254.81
190.29	2238.43
190.51	2521.05
190.73	2365.40
190.95	2441.18
191.17	2344.92
191.39	2371.55
191.61	2367.45
191.84	2328.54
192.06	2428.89
192.28	2326.49
192.50	2850.77
192.72	2447.32
192.94	2369.50
193.16	2586.58
193.38	2490.33
193.60	2250.72
193.82	2494.43
194.04	2588.63
194.26	2592.73
194.48	2416.60
194.70	2359.26
194.92	2408.41
195.14	2506.71
195.36	2324.44
195.58	2377.69
195.80	2457.56
196.02	2441.18
196.24	2269.15
196.46	2478.04
196.69	2385.88
196.91	2854.87
197.13	2459.61
197.35	2260.96
197.57	2656.22
197.79	2512.86
198.01	2342.88
198.23	2445.27
198.45	2572.25
198.67	2291.68
198.89	2244.57
199.11	2439.13
199.33	2439.13
199.55	2236.38
199.77	2353.12
199.99	2539.48
200.21	2389.98
200.43	2475.99
200.65	2285.53
200.87	2191.33
201.09	2441.18
201.31	2426.84
201.53	2467.80
201.75	2402.27
201.97	2473.95
202.19	2498.52
202.41	2389.98
202.63	2512.86
202.85	2469.85
203.07	2547.67
203.29	2349.02
203.51	2318.30
203.73	2371.55
203.95	2781.14
204.17	2373.60
204.39	2445.27
204.61	2441.18
204.83	2408.41
205.05	2449.37
205.27	2342.88
205.49	2717.65
205.71	2496.47
205.93	2277.34
206.15	2275.29
206.37	2506.71
206.59	2453.47
206.81	2277.34
207.03	2256.86
207.25	2330.59
207.47	2582.49
207.69	2451.42
207.91	2521.05
208.13	2645.98
208.34	2451.42
208.56	2316.25
208.78	2387.93
209.00	2424.80
209.22	2465.75
209.44	2338.78
209.66	2269.15
209.88	2469.85
210.10	2398.17
210.32	2326.49
210.54	2488.28
210.76	2459.61
210.98	2656.22
211.20	2160.61
211.42	2455.51
211.64	2721.75
211.86	2574.30
212.08	2357.21
212.30	2355.16
212.52	2504.67
212.74	2539.48
212.96	2406.36
213.17	2394.08
213.39	2598.87
213.61	2662.36
213.83	2310.11
214.05	2455.51
214.27	2680.79
214.49	2346.97
214.71	2258.91
214.93	2437.08
215.15	2461.66
215.37	2650.07
215.59	2291.68
215.81	2447.32
216.03	2688.98
216.24	2543.58
216.46	2367.45
216.68	2445.27
216.90	2559.96
217.12	2572.25
217.34	2252.77
217.56	2490.33
217.78	2613.21
218.00	2525.15
218.22	2437.08
218.44	2478.04
218.66	2480.09
218.87	2758.61
219.09	2334.68
219.31	2357.21
219.53	2469.85
219.75	2465.75
219.97	2375.64
220.19	2361.31
220.41	2482.14
220.63	2650.07
220.85	2371.55
221.06	2328.54
221.28	2701.27
221.50	2588.63
221.72	2398.17
221.94	2252.77
222.16	2426.84
222.38	2559.96
222.60	2379.74
222.82	2340.83
223.03	2609.11
223.25	2334.68
223.47	2375.64
223.69	2521.05
223.91	2531.29
224.13	2441.18
224.35	2232.29
224.57	2510.81
224.78	2607.06
225.00	2355.16
225.22	2314.20
225.44	2326.49
225.66	2637.78
225.88	2414.56
226.10	2367.45
226.32	2353.12
226.53	2635.74
226.75	2408.41
226.97	2389.98
227.19	2312.16
227.41	2402.27
227.63	2473.95
227.85	2211.81
228.06	2402.27
228.28	2490.33
228.50	2506.71
228.72	2215.90
228.94	2355.16
229.16	2351.07
229.37	2402.27
229.59	2351.07
229.81	2568.15
230.03	2367.45
230.25	2375.64
230.47	2228.19
230.69	2287.58
230.90	2625.50
231.12	2326.49
231.34	2457.56
231.56	2473.95
231.78	2340.83
232.00	2506.71
232.21	2338.78
232.43	2338.78
232.65	2285.53
232.87	2564.06
233.09	2226.14
233.30	2351.07
233.52	2605.02
233.74	2504.67
233.96	2334.68
234.18	2439.13
234.40	2473.95
234.61	2711.51
234.83	2281.44
235.05	2285.53
235.27	2762.71
235.49	2572.25
235.70	2285.53
235.92	2406.36
236.14	2519.00
236.36	2758.61
236.58	2265.05
236.79	2400.22
237.01	2488.28
237.23	2453.47
237.45	2514.91
237.67	2322.40
237.88	2498.52
238.10	2680.79
238.32	2248.67
238.54	2355.16
238.76	2482.14
238.97	2328.54
239.19	2283.49
239.41	2432.99
239.63	2631.64
239.85	2383.84
240.06	2301.92
240.28	2224.09
240.50	2588.63
240.72	2484.19
240.93	2269.15
241.15	2424.80
241.37	2441.18
241.59	2605.02
241.81	2301.92
242.02	2283.49
242.24	2500.57
242.46	2652.12
242.68	2226.14
242.89	2318.30
243.11	2654.17
243.33	2408.41
243.55	2375.64
243.76	2400.22
243.98	2363.36
244.20	2516.95
244.42	2365.40
244.64	2412.51
244.85	2283.49
245.07	2369.50
245.29	2363.36
245.51	2338.78
245.72	2506.71
245.94	2568.15
246.16	2359.26
246.38	2453.47
246.59	2447.32
246.81	2346.97
247.03	2351.07
247.24	2187.23
247.46	2326.49
247.68	2439.13
247.90	2277.34
248.11	2346.97
248.33	2611.16
248.55	2492.38
248.77	2400.22
248.98	2396.12
249.20	2705.37
249.42	2547.67
249.64	2367.45
249.85	2301.92
250.07	2486.23
250.29	2531.29
250.50	2410.46
250.72	2281.44
250.94	2453.47
251.16	2744.28
251.37	2416.60
251.59	2508.76
251.81	2514.91
252.02	2697.17
252.24	2289.63
252.46	2451.42
252.68	2342.88
252.89	2369.50
253.11	2236.38
253.33	2424.80
253.54	2631.64
253.76	2328.54
253.98	2310.11
254.20	2291.68
254.41	2234.33
254.63	2451.42
254.85	2222.05
255.06	2363.36
255.28	2498.52
255.50	2394.08
255.71	2373.60
255.93	2195.42
256.15	2463.71
256.36	2541.53
256.58	2275.29
256.80	2342.88
257.02	2412.51
257.23	2363.36
257.45	2377.69
257.67	2453.47
257.88	2455.51
258.10	2562.01
258.32	2410.46
258.53	2385.88
258.75	2676.70
258.97	2445.27
259.18	2293.72
259.40	2326.49
259.62	2652.12
259.83	2686.94
260.05	2367.45
260.27	2879.44
260.48	2596.82
260.70	2340.83
260.92	2297.82
261.13	2387.93
261.35	2521.05
261.57	2525.15
261.78	2265.05
262.00	2277.34
262.22	2531.29
262.43	2396.12
262.65	2383.84
262.86	2408.41
263.08	2805.72
263.30	2430.94
263.51	2228.19
263.73	2316.25
263.95	2717.65
264.16	2410.46
264.38	2263.01
264.60	2310.11
264.81	2480.09
265.03	2682.84
265.25	2609.11
265.46	2228.19
265.68	2664.41
265.89	2555.86
266.11	2260.96
266.33	2365.40
266.54	2633.69
266.76	2519.00
266.98	2469.85
267.19	2449.37
267.41	2615.26
267.62	2475.99
267.84	2285.53
268.06	2408.41
268.27	2531.29
268.49	2621.40
268.70	2416.60
268.92	2375.64
269.14	2375.64
269.35	2363.36
269.57	2344.92
269.79	2418.65
270.00	2396.12
270.22	2652.12
270.43	2222.05
270.65	2220.00
270.87	2547.67
271.08	2580.44
271.30	2406.36
271.51	2361.31
271.73	2457.56
271.95	2691.03
272.16	2293.72
272.38	2424.80
272.59	2469.85
272.81	2645.98
273.02	2338.78
273.24	2420.70
273.46	2588.63
273.67	2334.68
273.89	2236.38
274.10	2412.51
274.32	2582.49
274.54	2490.33
274.75	2361.31
274.97	2369.50
275.18	2557.91
275.40	2510.81
275.61	2416.60
275.83	2349.02
276.05	2342.88
276.26	2494.43
276.48	2349.02
276.69	2439.13
276.91	2406.36
277.12	2557.91
277.34	2621.40
277.55	2582.49
277.77	2531.29
277.99	2475.99
278.20	2432.99
278.42	2346.97
278.63	2422.75
278.85	2375.64
279.06	2269.15
279.28	2512.86
279.49	2621.40
279.71	2623.45
279.93	2494.43
280.14	2412.51
280.36	2314.20
280.57	2547.67
280.79	2555.86
281.00	2357.21
281.22	2420.70
281.43	2711.51
281.65	2334.68
281.86	2336.73
282.08	2588.63
282.29	2686.94
282.51	2310.11
282.73	2285.53
282.94	2291.68
283.16	2586.58
283.37	2512.86
283.59	2449.37
283.80	2527.19
284.02	2488.28
284.23	2422.75
284.45	2371.55
284.66	2353.12
284.88	2424.80
285.09	2396.12
285.31	2482.14
285.52	2531.29
285.74	2326.49
285.95	2498.52
286.17	2402.27
286.38	2574.30
286.60	2375.64
286.81	2361.31
287.03	2351.07
287.24	2510.81
287.46	2582.49
287.67	2453.47
287.89	2674.65
288.10	2494.43
288.32	2582.49
288.53	2586.58
288.75	2514.91
288.96	2551.77
289.18	2471.90
289.39	2416.60
289.61	2498.52
289.82	2789.33
290.04	2734.04
290.25	2363.36
290.47	2471.90
290.68	2514.91
290.90	2555.86
291.11	2291.68
291.33	2588.63
291.54	2357.21
291.76	2453.47
291.97	2432.99
292.18	2469.85
292.40	2471.90
292.61	2437.08
292.83	2631.64
293.04	2422.75
293.26	2447.32
293.47	2478.04
293.69	2357.21
293.90	2412.51
294.12	2711.51
294.33	2512.86
294.55	2422.75
294.76	2533.34
294.97	2564.06
295.19	2813.91
295.40	2367.45
295.62	2473.95
295.83	2566.10
296.05	2310.11
296.26	2590.68
296.48	2281.44
296.69	2426.84
296.90	2506.71
297.12	2574.30
297.33	2478.04
297.55	2484.19
297.76	2566.10
297.98	2488.28
298.19	2521.05
298.41	2502.62
298.62	2346.97
298.83	2529.24
299.05	2457.56
299.26	2435.03
299.48	2332.64
299.69	2430.94
299.90	2404.32
300.12	2381.79
300.33	2590.68
300.55	2414.56
300.76	2449.37
300.98	2392.03
301.19	2547.67
301.40	2396.12
301.62	2447.32
301.83	2570.20
302.05	2461.66
302.26	2406.36
302.47	2453.47
302.69	2383.84
302.90	2537.43
303.12	2246.62
303.33	2465.75
303.54	2727.89
303.76	2504.67
303.97	2396.12
304.19	2521.05
304.40	2353.12
304.61	2555.86
304.83	2512.86
305.04	2588.63
305.26	2547.67
305.47	2451.42
305.68	2383.84
305.90	2277.34
306.11	2609.11
306.33	2480.09
306.54	2410.46
306.75	2367.45
306.97	2273.25
307.18	2289.63
307.39	2367.45
307.61	2531.29
307.82	2451.42
308.04	2576.34
308.25	2357.21
308.46	2465.75
308.68	2535.39
308.89	2424.80
309.10	2510.81
309.32	2412.51
309.53	2471.90
309.74	2633.69
309.96	2404.32
310.17	2547.67
310.39	2428.89
310.60	2559.96
310.81	2457.56
311.03	2191.33
311.24	2623.45
311.45	2428.89
311.67	2562.01
311.88	2457.56
312.09	2465.75
312.31	2439.13
312.52	2349.02
312.73	2295.77
312.95	2283.49
313.16	2410.46
313.37	2531.29
313.59	2473.95
313.80	2568.15
314.01	2641.88
314.23	2351.07
314.44	2316.25
314.65	2326.49
314.87	2381.79
315.08	2426.84
315.29	2414.56
315.51	2406.36
315.72	2367.45
315.93	2555.86
316.15	2537.43
316.36	2392.03
316.57	2469.85
316.79	2502.62
317.00	2394.08
317.21	2564.06
317.43	2346.97
317.64	2381.79
317.85	2365.40
318.07	2447.32
318.28	2449.37
318.49	2660.31
318.70	2691.03
318.92	2547.67
319.13	2566.10
319.34	2637.78
319.56	2545.63
319.77	2674.65
319.98	2680.79
320.20	2590.68
320.41	2465.75
320.62	2562.01
320.83	2299.87
321.05	2539.48
321.26	2383.84
321.47	2463.71
321.69	2555.86
321.90	2373.60
322.11	2387.93
322.32	2547.67
322.54	2688.98
322.75	2342.88
322.96	2840.53
323.18	2260.96
323.39	2201.57
323.60	2375.64
323.81	2537.43
324.03	2383.84
324.24	2490.33
324.45	2424.80
324.66	2445.27
324.88	2666.46
325.09	2615.26
325.30	2482.14
325.52	2435.03
325.73	2531.29
325.94	2422.75
326.15	2330.59
326.37	2428.89
326.58	2613.21
326.79	2590.68
327.00	2330.59
327.22	2406.36
327.43	2432.99
327.64	2426.84
327.85	2482.14
328.07	2439.13
328.28	2734.04
328.49	2471.90
328.70	2424.80
328.92	2375.64
329.13	2510.81
329.34	2584.54
329.55	2639.83
329.76	2494.43
329.98	2482.14
330.19	2709.46
330.40	2451.42
330.61	2404.32
330.83	2549.72
331.04	2349.02
331.25	2486.23
331.46	2392.03
331.68	2365.40
331.89	2588.63
332.10	2447.32
332.31	2250.72
332.52	2400.22
332.74	2629.59
332.95	2273.25
333.16	2420.70
333.37	2578.39
333.58	2490.33
333.80	2478.04
334.01	2236.38
334.22	2432.99
334.43	2414.56
334.64	2371.55
334.86	2303.96
335.07	2406.36
335.28	2701.27
335.49	2338.78
335.70	2512.86
335.92	2588.63
336.13	2752.47
336.34	2562.01
336.55	2508.76
336.76	2484.19
336.98	2267.10
337.19	2449.37
337.40	2553.82
337.61	2832.34
337.82	2473.95
338.04	2494.43
338.25	2310.11
338.46	2437.08
338.67	2424.80
338.88	2392.03
339.09	2377.69
339.31	2283.49
339.52	2373.60
339.73	2295.77
339.94	2449.37
340.15	2531.29
340.36	2342.88
340.58	2439.13
340.79	2303.96
341.00	2506.71
341.21	2183.13
341.42	2570.20
341.63	2387.93
341.85	2553.82
342.06	2514.91
342.27	2369.50
342.48	2559.96
342.69	2355.16
342.90	2473.95
343.12	2596.82
343.33	2363.36
343.54	2475.99
343.75	2539.48
343.96	2449.37
344.17	2363.36
344.38	2539.48
344.60	2379.74
344.81	2324.44
345.02	2402.27
345.23	2662.36
345.44	2748.37
345.65	2535.39
345.86	2455.51
346.07	2488.28
346.29	2396.12
346.50	2504.67
346.71	2541.53
346.92	2662.36
347.13	2701.27
347.34	2443.23
347.55	2351.07
347.76	2525.15
347.98	2318.30
348.19	2445.27
348.40	2533.34
348.61	2432.99
348.82	2734.04
349.03	2523.10
349.24	2416.60
349.45	2682.84
349.66	2228.19
349.88	2424.80
350.09	2361.31
350.30	2572.25
350.51	2656.22
350.72	2504.67
350.93	2502.62
351.14	2381.79
351.35	2559.96
351.56	2480.09
351.77	2416.60
351.99	2592.73
352.20	2648.02
352.41	2519.00
352.62	2211.81
352.83	2510.81
353.04	2437.08
353.25	2375.64
353.46	2406.36
353.67	2539.48
353.88	2232.29
354.09	2416.60
354.30	2490.33
354.52	2578.39
354.73	2506.71
354.94	2385.88
355.15	2441.18
355.36	2676.70
355.57	2420.70
355.78	2482.14
355.99	2416.60
356.20	2375.64
356.41	2596.82
356.62	2514.91
356.83	2461.66
357.04	2688.98
357.25	2379.74
357.46	2414.56
357.68	2269.15
357.89	2400.22
358.10	2414.56
358.31	2375.64
358.52	2424.80
358.73	2332.64
358.94	2383.84
359.15	2435.03
359.36	2400.22
359.57	2480.09
359.78	2484.19
359.99	2535.39
360.20	2342.88
360.41	2455.51
360.62	2478.04
360.83	2416.60
361.04	2392.03
361.25	2529.24
361.46	2734.04
361.67	2564.06
361.88	2473.95
362.09	2580.44
362.30	2574.30
362.51	2355.16
362.72	2467.80
362.93	2490.33
363.14	2519.00
363.35	2410.46
363.56	2320.35
363.78	2654.17
363.99	2545.63
364.20	2404.32
364.41	2451.42
364.62	2703.32
364.83	2559.96
365.04	2471.90
365.25	2420.70
365.46	2854.87
365.67	2375.64
365.88	2482.14
366.09	2351.07
366.30	2428.89
366.51	2525.15
366.72	2357.21
366.93	2387.93
367.14	2498.52
367.35	2680.79
367.56	2349.02
367.77	2535.39
367.98	2389.98
368.18	2516.95
368.39	2471.90
368.60	2306.01
368.81	2641.88
369.02	2516.95
369.23	2447.32
369.44	2306.01
369.65	2355.16
369.86	2621.40
370.07	2535.39
370.28	2322.40
370.49	2586.58
370.70	2492.38
370.91	2381.79
371.12	2263.01
371.33	2588.63
371.54	2465.75
371.75	2586.58
371.96	2217.95
372.17	2545.63
372.38	2457.56
372.59	2514.91
372.80	2408.41
373.01	2492.38
373.22	2580.44
373.43	2385.88
373.64	2289.63
373.85	2617.30
374.06	2676.70
374.26	2551.77
374.47	2498.52
374.68	2760.66
374.89	2478.04
375.10	2392.03
375.31	2572.25
375.52	2422.75
375.73	2557.91
375.94	2322.40
376.15	2549.72
376.36	2449.37
376.57	2400.22
376.78	2383.84
376.99	2527.19
377.20	2643.93
377.40	2408.41
377.61	2635.74
377.82	2289.63
378.03	2688.98
378.24	2555.86
378.45	2494.43
378.66	2463.71
378.87	2318.30
379.08	2287.58
379.29	2383.84
379.50	2521.05
379.71	2441.18
379.91	2535.39
380.12	2451.42
380.33	2416.60
380.54	2418.65
380.75	2406.36
380.96	2408.41
381.17	2480.09
381.38	2523.10
381.59	2494.43
381.80	2480.09
382.00	2611.16
382.21	2535.39
382.42	2725.85
382.63	2758.61
382.84	2537.43
383.05	2686.94
383.26	2723.80
383.47	2488.28
383.68	2473.95
383.88	2633.69
384.09	2461.66
384.30	2670.55
384.51	2602.97
384.72	2437.08
384.93	2457.56
385.14	2484.19
385.35	2547.67
385.55	2281.44
385.76	2666.46
385.97	2441.18
386.18	2281.44
386.39	2414.56
386.60	2441.18
386.81	2410.46
387.02	2367.45
387.22	2371.55
387.43	2674.65
387.64	2506.71
387.85	2605.02
388.06	2676.70
388.27	4091.84
388.48	8312.71
388.68	12242.76
388.89	14595.87
389.10	15937.29
389.31	14712.61
389.52	11775.82
389.73	10008.42
389.93	9125.75
390.14	8306.56
390.35	7511.95
390.56	6688.67
390.77	5449.64
390.98	4087.75
391.18	3346.38
391.39	2858.96
391.60	2596.82
391.81	2592.73
392.02	2387.93
392.23	2781.14
392.43	2600.92
392.64	2586.58
392.85	2449.37
393.06	2727.89
393.27	2461.66
393.47	2308.06
393.68	2432.99
393.89	2447.32
394.10	2682.84
394.31	2324.44
394.52	2416.60
394.72	2394.08
394.93	2650.07
395.14	2365.40
395.35	2533.34
395.56	2373.60
395.76	2590.68
395.97	2441.18
396.18	2629.59
396.39	2662.36
396.60	3057.62
396.80	2744.28
397.01	2654.17
397.22	2695.13
397.43	2674.65
397.64	2402.27
397.84	2557.91
398.05	2764.76
398.26	2465.75
398.47	2547.67
398.67	2555.86
398.88	2519.00
399.09	2609.11
399.30	2404.32
399.51	2533.34
399.71	2389.98
399.92	2484.19
400.13	2506.71
400.34	2400.22
400.54	2465.75
400.75	2674.65
400.96	2471.90
401.17	2609.11
401.37	2502.62
401.58	2453.47
401.79	2455.51
402.00	2566.10
402.21	2879.44
402.41	2752.47
402.62	2815.96
402.83	2924.50
403.04	2965.46
403.24	3076.05
403.45	2588.63
403.66	2770.90
403.87	2697.17
404.07	2809.81
404.28	2703.32
404.49	2717.65
404.70	2562.01
404.90	2506.71
405.11	2514.91
405.32	2514.91
405.52	2396.12
405.73	2381.79
405.94	2318.30
406.15	2432.99
406.35	2621.40
406.56	2502.62
406.77	2498.52
406.98	2465.75
407.18	2359.26
407.39	2662.36
407.60	2392.03
407.80	2529.24
408.01	2392.03
408.22	2621.40
408.43	2392.03
408.63	2539.48
408.84	2568.15
409.05	2584.54
409.25	2400.22
409.46	2402.27
409.67	2412.51
409.88	2437.08
410.08	2504.67
410.29	2373.60
410.50	2617.30
410.70	2543.58
410.91	2318.30
411.12	2500.57
411.32	2449.37
411.53	2373.60
411.74	2559.96
411.95	2523.10
412.15	2543.58
412.36	2705.37
412.57	2584.54
412.77	2611.16
412.98	2496.47
413.19	2443.23
413.39	2531.29
413.60	2512.86
413.81	2703.32
414.01	2396.12
414.22	2506.71
414.43	2531.29
414.63	2478.04
414.84	2627.54
415.05	2408.41
415.25	2344.92
415.46	2543.58
415.67	2467.80
415.87	2453.47
416.08	2418.65
416.29	2422.75
416.49	2555.86
416.70	2432.99
416.91	2416.60
417.11	2488.28
417.32	2576.34
417.53	2570.20
417.73	2449.37
417.94	2437.08
418.15	2500.57
418.35	2465.75
418.56	2494.43
418.77	2736.09
418.97	2531.29
419.18	2424.80
419.38	2240.48
419.59	2449.37
419.80	2723.80
420.00	2432.99
420.21	2545.63
420.42	2746.33
420.62	2555.86
420.83	2310.11
421.04	2449.37
421.24	2473.95
421.45	2523.10
421.65	2441.18
421.86	2400.22
422.07	2549.72
422.27	2562.01
422.48	2426.84
422.69	2359.26
422.89	2457.56
423.10	2496.47
423.30	2297.82
423.51	2504.67
423.72	2562.01
423.92	2605.02
424.13	2379.74
424.33	2457.56
424.54	2510.81
424.75	2500.57
424.95	2619.35
425.16	2428.89
425.36	2562.01
425.57	2582.49
425.78	2527.19
425.98	2559.96
426.19	2461.66
426.39	2340.83
426.60	2519.00
426.81	2582.49
427.01	2535.39
427.22	2416.60
427.42	2297.82
427.63	2332.64
427.83	2596.82
428.04	2701.27
428.25	2537.43
428.45	2566.10
428.66	2514.91
428.86	2435.03
429.07	2478.04
429.28	2465.75
429.48	2504.67
429.69	2316.25
429.89	2549.72
430.10	2267.10
430.30	2598.87
430.51	2652.12
430.71	2293.72
430.92	2521.05
431.13	2418.65
431.33	2543.58
431.54	2512.86
431.74	2656.22
431.95	2746.33
432.15	2398.17
432.36	2412.51
432.56	2455.51
432.77	2731.99
432.98	2793.43
433.18	2437.08
433.39	2400.22
433.59	2432.99
433.80	2748.37
434.00	2668.50
434.21	2357.21
434.41	2494.43
434.62	2736.09
434.82	2351.07
435.03	2248.67
435.23	2568.15
435.44	2373.60
435.64	2373.60
435.85	2488.28
436.06	2605.02
436.26	2602.97
436.47	2426.84
436.67	2326.49
436.88	2445.27
437.08	2645.98
437.29	2623.45
437.49	2426.84
437.70	2668.50
437.90	2428.89
438.11	2703.32
438.31	2572.25
438.52	2676.70
438.72	2693.08
438.93	2703.32
439.13	2611.16
439.34	2617.30
439.54	2422.75
439.75	2643.93
439.95	2572.25
440.16	2514.91
440.36	2494.43
440.57	2535.39
440.77	2428.89
440.98	2461.66
441.18	2617.30
441.39	2369.50
441.59	2344.92
441.80	2779.09
442.00	2510.81
442.21	2527.19
442.41	2346.97
442.62	2613.21
442.82	2428.89
443.02	2371.55
443.23	2432.99
443.43	2478.04
443.64	2668.50
443.84	2414.56
444.05	2500.57
444.25	2463.71
444.46	2494.43
444.66	2400.22
444.87	2590.68
445.07	2299.87
445.28	2498.52
445.48	2562.01
445.69	2531.29
445.89	2731.99
446.09	2469.85
446.30	2766.81
446.50	3055.57
446.71	4603.83
446.91	5779.37
447.12	6729.63
447.32	7063.44
447.53	6588.32
447.73	5459.88
447.93	4753.34
448.14	4394.94
448.34	4405.18
448.55	3899.33
448.75	3772.36
448.96	3522.51
449.16	3166.16
449.36	3096.53
449.57	2727.89
449.77	2633.69
449.98	2422.75
450.18	2592.73
450.39	2461.66
450.59	2576.34
450.79	2539.48
451.00	2451.42
451.20	2570.20
451.41	2453.47
451.61	2523.10
451.81	2490.33
452.02	2439.13
452.22	2463.71
452.43	2437.08
452.63	2394.08
452.84	2457.56
453.04	2398.17
453.24	2562.01
453.45	2379.74
453.65	2484.19
453.86	2533.34
454.06	2572.25
454.26	2473.95
454.47	2328.54
454.67	2611.16
454.87	2559.96
455.08	2469.85
455.28	2586.58
455.49	2496.47
455.69	2367.45
455.89	2820.05
456.10	2619.35
456.30	2435.03
456.51	2623.45
456.71	2521.05
456.91	2541.53
457.12	2426.84
457.32	2523.10
457.52	2437.08
457.73	2586.58
457.93	2551.77
458.14	2404.32
458.34	2234.33
458.54	2375.64
458.75	2398.17
458.95	2584.54
459.15	2514.91
459.36	2494.43
459.56	2568.15
459.76	2744.28
459.97	2514.91
460.17	2521.05
460.37	2553.82
460.58	2424.80
460.78	2562.01
460.99	2371.55
461.19	2414.56
461.39	2398.17
461.60	2412.51
461.80	2488.28
462.00	2353.12
462.21	2531.29
462.41	2402.27
462.61	2334.68
462.82	2365.40
463.02	2568.15
463.22	2504.67
463.43	2594.78
463.63	2480.09
463.83	2709.46
464.04	2541.53
464.24	2459.61
464.44	2404.32
464.64	2553.82
464.85	2617.30
465.05	2578.39
465.25	2490.33
465.46	2389.98
465.66	2576.34
465.86	2559.96
466.07	2414.56
466.27	2457.56
466.47	2371.55
466.68	2379.74
466.88	2580.44
467.08	2547.67
467.29	2609.11
467.49	2555.86
467.69	2441.18
467.89	2568.15
468.10	2555.86
468.30	2523.10
468.50	2578.39
468.71	2566.10
468.91	2357.21
469.11	2650.07
469.31	2473.95
469.52	2389.98
469.72	2674.65
469.92	2654.17
470.13	2439.13
470.33	2469.85
470.53	2553.82
470.73	2908.12
470.94	3284.94
471.14	3444.68
471.34	3862.47
471.54	3776.45
471.75	3334.09
471.95	3174.35
472.15	2992.08
472.36	3055.57
472.56	2969.55
472.76	3028.95
472.96	2916.31
473.17	2797.53
473.37	2721.75
473.57	2506.71
473.77	2543.58
473.98	2459.61
474.18	2357.21
474.38	2883.54
474.58	2484.19
474.79	2422.75
474.99	2537.43
475.19	2494.43
475.39	2447.32
475.60	2539.48
475.80	2437.08
476.00	2471.90
476.20	2521.05
476.41	2492.38
476.61	2555.86
476.81	2662.36
477.01	2361.31
477.21	2691.03
477.42	2629.59
477.62	2469.85
477.82	2484.19
478.02	2371.55
478.23	2473.95
478.43	2408.41
478.63	2469.85
478.83	2377.69
479.03	2392.03
479.24	2652.12
479.44	2760.66
479.64	2361.31
479.84	2267.10
480.04	2402.27
480.25	2592.73
480.45	2379.74
480.65	2420.70
480.85	2635.74
481.06	2410.46
481.26	2514.91
481.46	2590.68
481.66	2543.58
481.86	2420.70
482.06	2539.48
482.27	2424.80
482.47	2406.36
482.67	2486.23
482.87	2432.99
483.07	2588.63
483.28	2488.28
483.48	2332.64
483.68	2500.57
483.88	2355.16
484.08	2267.10
484.29	2326.49
484.49	2486.23
484.69	2289.63
484.89	2615.26
485.09	2635.74
485.29	2480.09
485.50	2473.95
485.70	2465.75
485.90	2641.88
486.10	2463.71
486.30	2510.81
486.50	2705.37
486.71	2465.75
486.91	2586.58
487.11	2475.99
487.31	2359.26
487.51	2486.23
487.71	2396.12
487.91	2400.22
488.12	2338.78
488.32	2205.66
488.52	2449.37
488.72	2209.76
488.92	2512.86
489.12	2609.11
489.32	2594.78
489.53	2471.90
489.73	2312.16
489.93	2670.55
490.13	2449.37
490.33	2371.55
490.53	2439.13
490.73	2643.93
490.94	2322.40
491.14	2617.30
491.34	2621.40
491.54	2684.89
491.74	3411.92
491.94	4046.79
492.14	4306.88
492.34	4437.95
492.54	4036.55
492.75	3510.22
492.95	3307.47
493.15	3209.17
493.35	3211.22
493.55	3045.33
493.75	2953.17
493.95	2936.79
494.15	2719.70
494.35	2523.10
494.56	2568.15
494.76	2531.29
494.96	2564.06
495.16	2469.85
495.36	2459.61
495.56	2519.00
495.76	2478.04
495.96	2455.51
496.16	2387.93
496.36	2775.00
496.56	2449.37
496.77	2547.67
496.97	2492.38
497.17	2670.55
497.37	2299.87
497.57	2607.06
497.77	2490.33
497.97	2357.21
498.17	2480.09
498.37	2443.23
498.57	2553.82
498.77	2459.61
498.97	2564.06
499.17	2641.88
499.38	2471.90
499.58	2643.93
499.78	2635.74
499.98	2578.39
500.18	2406.36
500.38	2457.56
500.58	2619.35
500.78	3104.72
500.98	5468.08
501.18	7600.01
501.38	9365.36
501.58	10225.51
501.78	9969.51
501.98	8064.90
502.18	6659.99
502.38	5726.12
502.58	5345.20
502.78	4829.11
502.98	4745.14
503.18	4515.77
503.38	4100.03
503.59	3592.14
503.79	3454.92
503.99	3178.45
504.19	3084.24
504.39	3145.68
504.59	3006.42
504.79	3088.34
504.99	3061.71
505.19	2856.92
505.39	2664.41
505.59	2869.20
505.79	2840.53
505.99	2719.70
506.19	2529.24
506.39	2695.13
506.59	2508.76
506.79	2463.71
506.99	2588.63
507.19	2502.62
507.39	2502.62
507.59	2351.07
507.79	2396.12
507.99	2414.56
508.19	2430.94
508.39	2463.71
508.59	2494.43
508.79	2654.17
508.99	2891.73
509.19	2435.03
509.39	2564.06
509.59	2371.55
509.79	2402.27
509.99	2531.29
510.19	2580.44
510.39	2547.67
510.59	2549.72
510.79	2406.36
510.99	2367.45
511.19	2541.53
511.39	2680.79
511.59	2672.60
511.79	2670.55
511.99	2459.61
512.19	2721.75
512.38	2504.67
512.58	2424.80
512.78	2357.21
512.98	2674.65
513.18	2731.99
513.38	2346.97
513.58	2564.06
513.78	2482.14
513.98	2445.27
514.18	2484.19
514.38	2377.69
514.58	2572.25
514.78	2416.60
514.98	2351.07
515.18	2424.80
515.38	2359.26
515.58	2697.17
515.78	2437.08
515.98	2555.86
516.18	2594.78
516.38	2519.00
516.57	2320.35
516.77	2365.40
516.97	2680.79
517.17	2494.43
517.37	2248.67
517.57	2480.09
517.77	2498.52
517.97	2418.65
518.17	2527.19
518.37	2400.22
518.57	2463.71
518.77	2445.27
518.97	2467.80
519.16	2486.23
519.36	2666.46
519.56	2455.51
519.76	2437.08
519.96	2506.71
520.16	2643.93
520.36	2445.27
520.56	2578.39
520.76	2408.41
520.96	2428.89
521.16	2607.06
521.35	2613.21
521.55	2613.21
521.75	2543.58
521.95	2480.09
522.15	2359.26
522.35	2359.26
522.55	2377.69
522.75	2613.21
522.95	2426.84
523.14	2342.88
523.34	2488.28
523.54	2383.84
523.74	2537.43
523.94	2582.49
524.14	2318.30
524.34	2535.39
524.54	2691.03
524.73	2527.19
524.93	2564.06
525.13	2521.05
525.33	2281.44
525.53	2701.27
525.73	2619.35
525.93	2494.43
526.13	2441.18
526.32	2488.28
526.52	2592.73
526.72	2590.68
526.92	2443.23
527.12	2418.65
527.32	2310.11
527.52	2623.45
527.71	2443.23
527.91	2424.80
528.11	2441.18
528.31	2414.56
528.51	2367.45
528.71	2506.71
528.90	2592.73
529.10	2645.98
529.30	2598.87
529.50	2342.88
529.70	2506.71
529.90	2430.94
530.09	2473.95
530.29	2355.16
530.49	2365.40
530.69	2815.96
530.89	2512.86
531.09	2514.91
531.28	2435.03
531.48	2693.08
531.68	2389.98
531.88	2512.86
532.08	2605.02
532.28	2383.84
532.47	2521.05
532.67	2572.25
532.87	2557.91
533.07	2404.32
533.27	2568.15
533.46	2453.47
533.66	2502.62
533.86	2486.23
534.06	2424.80
534.26	2523.10
534.45	2488.28
534.65	2607.06
534.85	2584.54
535.05	2363.36
535.25	2674.65
535.44	2318.30
535.64	2549.72
535.84	2422.75
536.04	2461.66
536.24	2402.27
536.43	2375.64
536.63	2418.65
536.83	2484.19
537.03	2549.72
537.22	2291.68
537.42	2322.40
537.62	2523.10
537.82	2406.36
538.02	2623.45
538.21	2607.06
538.41	2856.92
538.61	2519.00
538.81	2457.56
539.00	2609.11
539.20	2293.72
539.40	2510.81
539.60	2504.67
539.79	2594.78
539.99	2506.71
540.19	2306.01
540.39	2377.69
540.58	2445.27
540.78	2684.89
540.98	2523.10
541.18	2650.07
541.37	2580.44
541.57	2537.43
541.77	2490.33
541.97	2385.88
542.16	2281.44
542.36	2437.08
542.56	2412.51
542.76	2645.98
542.95	2527.19
543.15	2564.06
543.35	2596.82
543.54	2398.17
543.74	2428.89
543.94	2686.94
544.14	2449.37
544.33	2457.56
544.53	2379.74
544.73	2480.09
544.93	2473.95
545.12	2465.75
545.32	2473.95
545.52	2451.42
545.71	2379.74
545.91	2402.27
546.11	2408.41
546.30	2398.17
546.50	2445.27
546.70	2437.08
546.90	2439.13
547.09	2318.30
547.29	2506.71
547.49	2545.63
547.68	2443.23
547.88	2430.94
548.08	2584.54
548.27	2957.27
548.47	2430.94
548.67	2400.22
548.87	2516.95
549.06	2418.65
549.26	2467.80
549.46	2580.44
549.65	2432.99
549.85	2473.95
550.05	2512.86
550.24	2383.84
550.44	2525.15
550.64	2473.95
550.83	2447.32
551.03	2594.78
551.23	2654.17
551.42	2570.20
551.62	2539.48
551.82	2502.62
552.01	2488.28
552.21	2631.64
552.41	2449.37
552.60	2684.89
552.80	2545.63
553.00	2367.45
553.19	2488.28
553.39	2703.32
553.59	2310.11
553.78	2457.56
553.98	2475.99
554.17	2297.82
554.37	2549.72
554.57	2557.91
554.76	2334.68
554.96	2484.19
555.16	2535.39
555.35	2428.89
555.55	2578.39
555.75	2523.10
555.94	2658.26
556.14	2297.82
556.33	2473.95
556.53	2535.39
556.73	2492.38
556.92	2521.05
557.12	2500.57
557.32	2731.99
557.51	2666.46
557.71	2650.07
557.90	2570.20
558.10	2637.78
558.30	2437.08
558.49	2441.18
558.69	2447.32
558.88	2613.21
559.08	2437.08
559.28	2539.48
559.47	2392.03
559.67	2623.45
559.86	2682.84
560.06	2527.19
560.26	2502.62
560.45	2521.05
560.65	2539.48
560.84	2648.02
561.04	2387.93
561.24	2607.06
561.43	2359.26
561.63	2670.55
561.82	2453.47
562.02	2641.88
562.22	2402.27
562.41	2437.08
562.61	2377.69
562.80	2379.74
563.00	2822.10
563.19	2533.34
563.39	2475.99
563.59	2635.74
563.78	2400.22
563.98	2209.76
564.17	2437.08
564.37	2281.44
564.56	2416.60
564.76	2392.03
564.96	2625.50
565.15	2574.30
565.35	2770.90
565.54	2430.94
565.74	2486.23
565.93	2627.54
566.13	2514.91
566.32	2480.09
566.52	2564.06
566.71	2508.76
566.91	2547.67
567.11	2519.00
567.30	2375.64
567.50	2584.54
567.69	2580.44
567.89	2428.89
568.08	2353.12
568.28	2539.48
568.47	2355.16
568.67	2527.19
568.86	2432.99
569.06	2582.49
569.25	2531.29
569.45	2400.22
569.64	2377.69
569.84	2494.43
570.04	2506.71
570.23	2408.41
570.43	2529.24
570.62	2494.43
570.82	2734.04
571.01	2351.07
571.21	2324.44
571.40	2394.08
571.60	2596.82
571.79	2461.66
571.99	2484.19
572.18	2430.94
572.38	2504.67
572.57	2432.99
572.77	2498.52
572.96	2793.43
573.16	2488.28
573.35	2412.51
573.55	2645.98
573.74	2463.71
573.94	2490.33
574.13	2455.51
574.33	2500.57
574.52	2623.45
574.71	2547.67
574.91	2480.09
575.10	2316.25
575.30	2408.41
575.49	2437.08
575.69	2408.41
575.88	2572.25
576.08	2512.86
576.27	2832.34
576.47	2447.32
576.66	2678.74
576.86	2752.47
577.05	2590.68
577.25	2519.00
577.44	2731.99
577.64	2475.99
577.83	2590.68
578.02	2461.66
578.22	2666.46
578.41	2758.61
578.61	2512.86
578.80	2349.02
579.00	2467.80
579.19	2494.43
579.39	2566.10
579.58	2607.06
579.77	2480.09
579.97	2660.31
580.16	2654.17
580.36	2621.40
580.55	2535.39
580.75	2625.50
580.94	2541.53
581.13	2631.64
581.33	2654.17
581.52	2529.24
581.72	2738.13
581.91	2643.93
582.11	2461.66
582.30	2643.93
582.49	2527.19
582.69	2678.74
582.88	2529.24
583.08	2545.63
583.27	2633.69
583.47	2482.14
583.66	2432.99
583.85	2463.71
584.05	2529.24
584.24	2668.50
584.44	2521.05
584.63	2631.64
584.82	2691.03
585.02	2740.18
585.21	2701.27
585.41	2684.89
585.60	2727.89
585.79	2813.91
585.99	2742.23
586.18	2666.46
586.37	3231.69
586.57	5044.15
586.76	14929.69
586.96	34442.74
587.15	47910.18
587.34	57197.72
587.54	61754.45
587.73	55907.50
587.93	39407.01
588.12	29863.48
588.31	24133.26
588.51	20907.71
588.70	19353.30
588.89	17540.85
589.09	15216.41
589.28	12939.07
589.47	10076.01
589.67	8028.04
589.86	6197.15
590.06	4648.89
590.25	3878.85
590.44	3346.38
590.64	3006.42
590.83	2793.43
591.02	2850.77
591.22	2609.11
591.41	2586.58
591.60	2514.91
591.80	2760.66
591.99	2400.22
592.18	2494.43
592.38	2686.94
592.57	2441.18
592.76	2512.86
592.96	2512.86
593.15	2514.91
593.34	2588.63
593.54	2510.81
593.73	2566.10
593.92	2578.39
594.12	2562.01
594.31	2541.53
594.50	2656.22
594.70	2641.88
594.89	2887.64
595.08	2428.89
595.28	2594.78
595.47	2842.58
595.66	2645.98
595.86	2422.75
596.05	2467.80
596.24	2463.71
596.43	2701.27
596.63	2629.59
596.82	2543.58
597.01	2652.12
597.21	2777.05
597.40	2496.47
597.59	2490.33
597.79	2588.63
597.98	2592.73
598.17	2537.43
598.36	2527.19
598.56	2580.44
598.75	2469.85
598.94	2478.04
599.14	2473.95
599.33	2408.41
599.52	2668.50
599.71	2514.91
599.91	2559.96
600.10	2535.39
600.29	2498.52
600.48	2519.00
600.68	2490.33
600.87	2451.42
601.06	2432.99
601.26	2463.71
601.45	2510.81
601.64	2519.00
601.83	2723.80
602.03	2469.85
602.22	2363.36
602.41	2670.55
602.60	2846.68
602.80	2523.10
602.99	2531.29
603.18	2437.08
603.37	2519.00
603.57	2514.91
603.76	2494.43
603.95	2619.35
604.14	2519.00
604.34	2387.93
604.53	2506.71
604.72	2490.33
604.91	2637.78
605.10	2478.04
605.30	2322.40
605.49	2740.18
605.68	2516.95
605.87	2645.98
606.07	2396.12
606.26	2539.48
606.45	2596.82
606.64	2469.85
606.84	2424.80
607.03	2564.06
607.22	2625.50
607.41	2465.75
607.60	2430.94
607.80	2629.59
607.99	2492.38
608.18	2432.99
608.37	2383.84
608.56	2412.51
608.76	2627.54
608.95	2652.12
609.14	2568.15
609.33	2695.13
609.52	2711.51
609.72	2506.71
609.91	2602.97
610.10	2643.93
610.29	2768.85
610.48	2502.62
610.68	2580.44
610.87	2482.14
611.06	2602.97
611.25	2432.99
611.44	2643.93
611.63	2461.66
611.83	2654.17
612.02	2365.40
612.21	2570.20
612.40	2324.44
612.59	2285.53
612.79	2291.68
612.98	2398.17
613.17	2715.61
613.36	2447.32
613.55	2605.02
613.74	2510.81
613.93	2578.39
614.13	2666.46
614.32	2777.05
614.51	2695.13
614.70	2531.29
614.89	2598.87
615.08	2555.86
615.28	2924.50
615.47	2449.37
615.66	2523.10
615.85	2504.67
616.04	2688.98
616.23	2543.58
616.42	2541.53
616.62	2547.67
616.81	2543.58
617.00	2562.01
617.19	2568.15
617.38	2484.19
617.57	2486.23
617.76	2668.50
617.95	2637.78
618.15	2494.43
618.34	2652.12
618.53	2389.98
618.72	2596.82
618.91	2564.06
619.10	2564.06
619.29	2432.99
619.48	2547.67
619.68	2400.22
619.87	2447.32
620.06	2383.84
620.25	2568.15
620.44	2394.08
620.63	2367.45
620.82	2547.67
621.01	2508.76
621.20	2488.28
621.39	2609.11
621.59	2680.79
621.78	2572.25
621.97	2596.82
622.16	2553.82
622.35	2504.67
622.54	2639.83
622.73	2574.30
622.92	2277.34
623.11	2633.69
623.30	2510.81
623.49	2543.58
623.68	2471.90
623.88	2670.55
624.07	2484.19
624.26	2473.95
624.45	2502.62
624.64	2424.80
624.83	2527.19
625.02	2342.88
625.21	2467.80
625.40	2422.75
625.59	2648.02
625.78	2531.29
625.97	2656.22
626.16	2611.16
626.35	2719.70
626.54	2521.05
626.74	2756.57
626.93	2521.05
627.12	2525.15
627.31	2594.78
627.50	2533.34
627.69	2564.06
627.88	2400.22
628.07	2441.18
628.26	2256.86
628.45	2392.03
628.64	2383.84
628.83	2478.04
629.02	2383.84
629.21	2494.43
629.40	2568.15
629.59	2398.17
629.78	2463.71
629.97	2496.47
630.16	2510.81
630.35	2441.18
630.54	2516.95
630.73	2514.91
630.92	2529.24
631.11	2349.02
631.30	2531.29
631.49	2543.58
631.68	2441.18
631.87	2555.86
632.06	2414.56
632.25	2820.05
632.44	2516.95
632.63	2549.72
632.82	2430.94
633.01	2441.18
633.20	2613.21
633.39	2504.67
633.58	2383.84
633.77	2607.06
633.96	2633.69
634.15	2566.10
634.34	2555.86
634.53	2529.24
634.72	2455.51
634.91	2363.36
635.10	2504.67
635.29	2547.67
635.48	2557.91
635.67	2359.26
635.86	2398.17
636.05	2666.46
636.24	2486.23
636.43	2482.14
636.62	2568.15
636.81	2234.33
637.00	2394.08
637.19	2506.71
637.38	2482.14
637.57	2488.28
637.76	2578.39
637.95	2621.40
638.14	2568.15
638.33	2613.21
638.52	2613.21
638.71	2439.13
638.89	2400.22
639.08	2830.29
639.27	2656.22
639.46	2709.46
639.65	3114.96
639.84	3157.97
640.03	3332.05
640.22	3145.68
640.41	3221.45
640.60	2758.61
640.79	2752.47
640.98	2717.65
641.17	2623.45
641.36	2686.94
641.55	2764.76
641.74	2375.64
641.92	2453.47
642.11	2486.23
642.30	2539.48
642.49	2430.94
642.68	2498.52
642.87	2586.58
643.06	2516.95
643.25	2416.60
643.44	2312.16
643.63	2459.61
643.82	2586.58
644.00	2375.64
644.19	2435.03
644.38	2365.40
644.57	2568.15
644.76	2482.14
644.95	2521.05
645.14	2502.62
645.33	2437.08
645.52	2459.61
645.71	2371.55
645.89	2392.03
646.08	2445.27
646.27	2449.37
646.46	2678.74
646.65	2279.39
646.84	2496.47
647.03	2365.40
647.22	2566.10
647.40	2465.75
647.59	2453.47
647.78	2326.49
647.97	2469.85
648.16	2342.88
648.35	2621.40
648.54	2631.64
648.73	2463.71
648.91	2611.16
649.10	2453.47
649.29	2463.71
649.48	2498.52
649.67	2596.82
649.86	2531.29
650.05	2514.91
650.23	2742.23
650.42	2562.01
650.61	2752.47
650.80	2670.55
650.99	2719.70
651.18	2586.58
651.36	2613.21
651.55	2430.94
651.74	2570.20
651.93	2465.75
652.12	2506.71
652.31	2478.04
652.49	2512.86
652.68	2398.17
652.87	2615.26
653.06	2641.88
653.25	2758.61
653.44	2498.52
653.62	2701.27
653.81	2488.28
654.00	2514.91
654.19	2566.10
654.38	2850.77
654.56	2543.58
654.75	2412.51
654.94	2609.11
655.13	2494.43
655.32	2480.09
655.51	2521.05
655.69	2416.60
655.88	2617.30
656.07	2320.35
656.26	2541.53
656.45	2351.07
656.63	2473.95
656.82	2537.43
657.01	2572.25
657.20	2469.85
657.38	2670.55
657.57	2488.28
657.76	2285.53
657.95	2582.49
658.14	2432.99
658.32	2480.09
658.51	2252.77
658.70	2537.43
658.89	2504.67
659.08	2463.71
659.26	2666.46
659.45	2490.33
659.64	2609.11
659.83	2422.75
660.01	2879.44
660.20	2516.95
660.39	2697.17
660.58	2244.57
660.76	2559.96
660.95	2389.98
661.14	2596.82
661.33	2277.34
661.51	2439.13
661.70	2420.70
661.89	2598.87
662.08	2480.09
662.26	2338.78
662.45	2404.32
662.64	2721.75
662.83	2576.34
663.01	2367.45
663.20	2338.78
663.39	2623.45
663.58	2308.06
663.76	2396.12
663.95	2600.92
664.14	2428.89
664.32	2437.08
664.51	2365.40
664.70	2316.25
664.89	2490.33
665.07	2351.07
665.26	2557.91
665.45	2301.92
665.64	2492.38
665.82	2498.52
666.01	2504.67
666.20	2383.84
666.38	2586.58
666.57	2693.08
666.76	3899.33
666.95	9463.66
667.13	17649.39
667.32	22929.06
667.51	26111.60
667.69	27926.10
667.88	24510.09
668.07	17254.14
668.25	14247.72
668.44	11919.18
668.63	10364.77
668.81	9133.94
669.00	8032.13
669.19	7141.27
669.38	6201.25
669.56	5253.04
669.75	4347.84
669.94	3739.59
670.12	3129.30
670.31	2940.88
670.50	2815.96
670.68	2666.46
670.87	2516.95
671.06	2512.86
671.24	2584.54
671.43	2775.00
671.62	2512.86
671.80	2432.99
671.99	2545.63
672.18	2531.29
672.36	2557.91
672.55	2514.91
672.74	2469.85
672.92	2404.32
673.11	2584.54
673.29	2363.36
673.48	2557.91
673.67	2424.80
673.85	2600.92
674.04	2392.03
674.23	2529.24
674.41	2719.70
674.60	2392.03
674.79	2265.05
674.97	2387.93
675.16	2598.87
675.34	2609.11
675.53	2375.64
675.72	2506.71
675.90	2727.89
676.09	2455.51
676.28	2547.67
676.46	2322.40
676.65	2592.73
676.83	2336.73
677.02	2424.80
677.21	2502.62
677.39	2473.95
677.58	2392.03
677.77	2392.03
677.95	2439.13
678.14	2389.98
678.32	2504.67
678.51	2453.47
678.70	2672.60
678.88	2519.00
679.07	2506.71
679.25	2420.70
679.44	2439.13
679.63	2426.84
679.81	2453.47
680.00	2588.63
680.18	2535.39
680.37	2598.87
680.55	2424.80
680.74	2275.29
680.93	2240.48
681.11	2588.63
681.30	2537.43
681.48	2506.71
681.67	2484.19
681.85	2514.91
682.04	2398.17
682.23	2623.45
682.41	2519.00
682.60	2467.80
682.78	2465.75
682.97	2306.01
683.15	2545.63
683.34	2531.29
683.53	2637.78
683.71	2355.16
683.90	2619.35
684.08	2672.60
684.27	2428.89
684.45	2506.71
684.64	2572.25
684.82	2498.52
685.01	2602.97
685.19	2453.47
685.38	2670.55
685.57	2594.78
685.75	2439.13
685.94	2351.07
686.12	2342.88
686.31	2441.18
686.49	2594.78
686.68	2242.53
686.86	2531.29
687.05	2482.14
687.23	2727.89
687.42	2392.03
687.60	2271.20
687.79	2605.02
687.97	2705.37
688.16	2465.75
688.34	2619.35
688.53	2285.53
688.71	2637.78
688.90	2623.45
689.08	2480.09
689.27	2256.86
689.45	2555.86
689.64	2543.58
689.82	2584.54
690.01	2480.09
690.19	2519.00
690.38	2547.67
690.56	2586.58
690.75	2473.95
690.93	2461.66
691.12	2408.41
691.30	2467.80
691.49	2400.22
691.67	2451.42
691.86	2678.74
692.04	2369.50
692.23	2523.10
692.41	2543.58
692.60	2779.09
692.78	2654.17
692.97	2512.86
693.15	2654.17
693.34	2715.61
693.52	2652.12
693.71	2465.75
693.89	2484.19
694.08	2220.00
694.26	2514.91
694.44	2525.15
694.63	2506.71
694.81	2375.64
695.00	2332.64
695.18	2555.86
695.37	2770.90
695.55	2445.27
695.74	2447.32
695.92	2389.98
696.10	2631.64
696.29	2330.59
696.47	2361.31
696.66	2293.72
696.84	2316.25
697.03	2455.51
697.21	2672.60
697.40	3721.16
697.58	2629.59
697.76	2471.90
697.95	2404.32
698.13	2439.13
698.32	2435.03
698.50	2527.19
698.68	2504.67
698.87	2537.43
699.05	2596.82
699.24	2500.57
699.42	2371.55
699.61	2439.13
699.79	2441.18
699.97	2408.41
700.16	2320.35
700.34	2328.54
700.53	2570.20
700.71	2602.97
700.89	2613.21
701.08	2439.13
701.26	2488.28
701.45	3065.81
701.63	2422.75
701.81	2480.09
702.00	2445.27
702.18	2455.51
702.37	2459.61
702.55	2695.13
702.73	2658.26
702.92	2670.55
703.10	2818.00
703.28	2777.05
703.47	2519.00
703.65	2736.09
703.84	2666.46
704.02	2539.48
704.20	2643.93
704.39	2367.45
704.57	2471.90
704.75	2590.68
704.94	2643.93
705.12	2639.83
705.30	2891.73
705.49	5605.29
705.67	12779.32
705.86	20821.70
706.04	24721.03
706.22	27524.70
706.41	28012.12
706.59	22783.65
706.77	16264.97
706.96	13926.19
707.14	12384.07
707.32	10612.57
707.51	9305.97
707.69	7667.60
707.87	6156.19
708.06	4933.56
708.24	3973.06
708.42	3289.04
708.61	3317.71
708.79	2723.80
708.97	2629.59
709.16	2670.55
709.34	2572.25
709.52	2508.76
709.71	2412.51
709.89	2582.49
710.07	2379.74
710.26	2463.71
710.44	2387.93
710.62	2641.88
710.80	2494.43
710.99	2598.87
711.17	2492.38
711.35	2465.75
711.54	2455.51
711.72	2547.67
711.90	2510.81
712.09	2531.29
712.27	2473.95
712.45	2502.62
712.63	2469.85
712.82	2551.77
713.00	2502.62
713.18	2598.87
713.37	2594.78
713.55	2506.71
713.73	2551.77
713.91	2519.00
714.10	2435.03
714.28	2482.14
714.46	2527.19
714.65	2496.47
714.83	2562.01
715.01	2453.47
715.19	2555.86
715.38	2410.46
715.56	2484.19
715.74	2457.56
715.92	2392.03
716.11	2670.55
716.29	2205.66
716.47	2422.75
716.65	2475.99
716.84	2377.69
717.02	2596.82
717.20	2275.29
717.38	2410.46
717.57	2482.14
717.75	2471.90
717.93	2396.12
718.11	2545.63
718.30	2363.36
718.48	2525.15
718.66	2570.20
718.84	2551.77
719.03	2432.99
719.21	2297.82
719.39	2668.50
719.57	2592.73
719.75	2562.01
719.94	2363.36
720.12	2459.61
720.30	2488.28
720.48	2551.77
720.67	2342.88
720.85	2410.46
721.03	2443.23
721.21	2383.84
721.39	2551.77
721.58	2467.80
721.76	2490.33
721.94	2494.43
722.12	2519.00
722.30	2697.17
722.49	2416.60
722.67	2488.28
722.85	2453.47
723.03	2324.44
723.21	2387.93
723.40	2482.14
723.58	2574.30
723.76	2637.78
723.94	2695.13
724.12	2645.98
724.30	2678.74
724.49	2605.02
724.67	2396.12
724.85	2633.69
725.03	2283.49
725.21	2545.63
725.40	2586.58
725.58	2383.84
725.76	2662.36
725.94	2562.01
726.12	2355.16
726.30	2457.56
726.49	2416.60
726.67	2473.95
726.85	2541.53
727.03	2858.96
727.21	4169.66
727.39	5945.25
727.57	6707.10
727.76	7438.22
727.94	7376.78
728.12	6881.18
728.30	5605.29
728.48	4913.08
728.66	4511.68
728.84	4112.32
729.03	3588.04
729.21	3256.27
729.39	2949.08
729.57	2652.12
729.75	2705.37
729.93	2531.29
730.11	2414.56
730.30	2412.51
730.48	2469.85
730.66	2600.92
730.84	2512.86
731.02	2506.71
731.20	2445.27
731.38	2549.72
731.56	2291.68
731.74	2351.07
731.93	2529.24
732.11	2457.56
732.29	2400.22
732.47	2576.34
732.65	2486.23
732.83	2588.63
733.01	2498.52
733.19	2428.89
733.37	2562.01
733.56	2547.67
733.74	2441.18
733.92	2605.02
734.10	2400.22
734.28	2519.00
734.46	2220.00
734.64	2443.23
734.82	2559.96
735.00	2414.56
735.18	2412.51
735.36	2502.62
735.54	2367.45
735.73	2492.38
735.91	2529.24
736.09	2492.38
736.27	2475.99
736.45	2529.24
736.63	2299.87
736.81	2432.99
736.99	2613.21
737.17	2543.58
737.35	2412.51
737.53	2492.38
737.71	2537.43
737.89	2572.25
738.07	2426.84
738.25	2385.88
738.43	2346.97
738.61	2385.88
738.80	2371.55
738.98	2402.27
739.16	2389.98
739.34	2455.51
739.52	2592.73
739.70	2445.27
739.88	2539.48
740.06	2519.00
740.24	2277.34
740.42	2609.11
740.60	2236.38
740.78	2389.98
740.96	2236.38
741.14	2371.55
741.32	2494.43
741.50	2330.59
741.68	2736.09
741.86	2629.59
742.04	2408.41
742.22	2363.36
742.40	2465.75
742.58	2600.92
742.76	2387.93
742.94	2596.82
743.12	2344.92
743.30	2473.95
743.48	2457.56
743.66	2414.56
743.84	2596.82
744.02	2494.43
744.20	2437.08
744.38	2432.99
744.56	2363.36
744.74	2641.88
744.92	2578.39
745.10	2658.26
745.28	2572.25
745.46	2658.26
745.64	2467.80
745.82	2502.62
746.00	2465.75
746.18	2437.08
746.36	2346.97
746.54	2424.80
746.72	2504.67
746.90	2314.20
747.08	2684.89
747.26	2449.37
747.44	2635.74
747.62	2539.48
747.80	2447.32
747.98	2527.19
748.15	2492.38
748.33	2715.61
748.51	2473.95
748.69	2549.72
748.87	2406.36
749.05	2455.51
749.23	2445.27
749.41	2432.99
749.59	2449.37
749.77	2562.01
749.95	2375.64
750.13	2283.49
750.31	2523.10
750.49	2502.62
750.67	2584.54
750.85	2629.59
751.03	2428.89
751.20	2719.70
751.38	2512.86
751.56	2457.56
751.74	2387.93
751.92	2488.28
752.10	2377.69
752.28	2623.45
752.46	2426.84
752.64	2410.46
752.82	2496.47
753.00	2600.92
753.18	2385.88
753.35	2453.47
753.53	2416.60
753.71	2408.41
753.89	2490.33
754.07	2484.19
754.25	2629.59
754.43	2596.82
754.61	2312.16
754.79	2545.63
754.97	2461.66
755.14	2617.30
755.32	2299.87
755.50	2480.09
755.68	2514.91
755.86	2371.55
756.04	2369.50
756.22	2314.20
756.40	2510.81
756.57	2635.74
756.75	2445.27
756.93	2637.78
757.11	2527.19
757.29	2383.84
757.47	2392.03
757.65	2324.44
757.82	2215.90
758.00	2365.40
758.18	2435.03
758.36	2383.84
758.54	2549.72
758.72	2289.63
758.90	2570.20
759.07	2516.95
759.25	2445.27
759.43	2549.72
759.61	2289.63
759.79	3526.60
759.97	2617.30
760.15	2398.17
760.32	2486.23
760.50	2562.01
760.68	2760.66
760.86	2334.68
761.04	2639.83
761.22	2512.86
761.39	2482.14
761.57	2510.81
761.75	2430.94
761.93	2514.91
762.11	2435.03
762.28	2547.67
762.46	2367.45
762.64	2592.73
762.82	2349.02
763.00	2430.94
763.18	2600.92
763.35	2285.53
763.53	2531.29
763.71	2473.95
763.89	2420.70
764.07	2521.05
764.24	2469.85
764.42	2529.24
764.60	2465.75
764.78	2527.19
764.96	2473.95
765.13	2602.97
765.31	2346.97
765.49	2586.58
765.67	2367.45
765.84	2293.72
766.02	2346.97
766.20	2346.97
766.38	2506.71
766.56	2523.10
766.73	2537.43
766.91	2494.43
767.09	2484.19
767.27	2559.96
767.44	2273.25
767.62	2588.63
767.80	2490.33
767.98	2396.12
768.15	2465.75
768.33	2572.25
768.51	2619.35
768.69	2545.63
768.87	2510.81
769.04	2480.09
769.22	2752.47
769.40	2633.69
769.58	2670.55
769.75	2506.71
769.93	2621.40
770.11	2396.12
770.28	2383.84
770.46	2514.91
770.64	2535.39
770.82	2494.43
770.99	2344.92
771.17	2512.86
771.35	2467.80
771.53	2451.42
771.70	2461.66
771.88	2613.21
772.06	2420.70
772.23	2400.22
772.41	2514.91
772.59	2510.81
772.77	2338.78
772.94	2465.75
773.12	2547.67
773.30	2432.99
773.47	2576.34
773.65	2439.13
773.83	2631.64
774.01	2424.80
774.18	2246.62
774.36	2381.79
774.54	2295.77
774.71	2535.39
774.89	2295.77
775.07	2361.31
775.24	2385.88
775.42	2330.59
775.60	2693.08
775.78	2373.60
775.95	2308.06
776.13	2379.74
776.31	2295.77
776.48	2537.43
776.66	2625.50
776.84	2412.51
777.01	2326.49
777.19	2373.60
777.37	2369.50
777.54	2602.97
777.72	2734.04
777.90	2428.89
778.07	2318.30
778.25	2899.92
778.43	2547.67
778.60	2392.03
778.78	2521.05
778.96	2615.26
779.13	2342.88
779.31	2621.40
779.49	2484.19
779.66	2535.39
779.84	2467.80
780.01	2463.71
780.19	2283.49
780.37	2654.17
780.54	2521.05
780.72	2383.84
780.90	2449.37
781.07	2449.37
781.25	2340.83
781.43	2557.91
781.60	2457.56
781.78	2609.11
781.95	2451.42
782.13	2383.84
782.31	2330.59
782.48	2242.53
782.66	2455.51
782.83	2613.21
783.01	2512.86
783.19	2605.02
783.36	2432.99
783.54	2389.98
783.72	2605.02
783.89	2457.56
784.07	2529.24
784.24	2469.85
784.42	2578.39
784.60	2506.71
784.77	2576.34
784.95	2220.00
785.12	2416.60
785.30	2463.71
785.47	2418.65
785.65	2424.80
785.83	2457.56
786.00	2492.38
786.18	2465.75
786.35	2342.88
786.53	2371.55
786.71	2572.25
786.88	2502.62
787.06	2523.10
787.23	2480.09
787.41	2301.92
787.58	2451.42
787.76	2404.32
787.94	2418.65
788.11	2660.31
788.29	2351.07
788.46	2332.64
788.64	2281.44
788.81	2441.18
788.99	2344.92
789.16	2346.97
789.34	2490.33
789.52	2416.60
789.69	2443.23
789.87	2299.87
790.04	2408.41
790.22	2461.66
790.39	2846.68
790.57	2277.34
790.74	2365.40
790.92	2588.63
791.09	2306.01
791.27	2568.15
791.44	2475.99
791.62	2502.62
791.79	2609.11
791.97	2465.75
792.15	2756.57
792.32	2490.33
792.50	2523.10
792.67	2609.11
792.85	2609.11
793.02	2463.71
793.20	2510.81
793.37	2353.12
793.55	2351.07
793.72	2355.16
793.90	2572.25
794.07	2330.59
794.25	2445.27
794.42	2488.28
794.60	2449.37
794.77	2480.09
794.95	2531.29
795.12	2543.58
795.30	2506.71
795.47	2267.10
795.65	2754.52
795.82	2512.86
796.00	2349.02
796.17	2455.51
796.34	2353.12
796.52	2498.52
796.69	2516.95
796.87	2557.91
797.04	2465.75
797.22	2521.05
797.39	2539.48
797.57	2572.25
797.74	2428.89
797.92	2531.29
798.09	2482.14
798.27	2613.21
798.44	2441.18
798.62	2406.36
798.79	2469.85
798.96	2537.43
799.14	2373.60
799.31	2793.43
799.49	2486.23
799.66	2422.75
799.84	2478.04
800.01	2318.30
800.19	2535.39
800.36	2238.43
800.53	2471.90
800.71	2537.43
800.88	2650.07
801.06	2351.07
801.23	2428.89
801.41	2500.57
801.58	2424.80
801.75	2379.74
801.93	2396.12
802.10	2617.30
802.28	2519.00
802.45	2408.41
802.63	2635.74
802.80	2672.60
802.97	2394.08
803.15	2396.12
803.32	2365.40
803.50	2490.33
803.67	2430.94
803.84	2367.45
804.02	2422.75
804.19	2416.60
804.37	2183.13
804.54	2316.25
804.71	2408.41
804.89	2508.76
805.06	2351.07
805.24	2328.54
805.41	2365.40
805.58	2471.90
805.76	2744.28
805.93	2394.08
806.10	2566.10
806.28	2527.19
806.45	2451.42
806.63	2465.75
806.80	2525.15
806.97	2467.80
807.15	2457.56
807.32	2492.38
807.49	2508.76
807.67	2306.01
807.84	2488.28
808.01	2273.25
808.19	2650.07
808.36	2699.22
808.54	2406.36
808.71	2359.26
808.88	2441.18
809.06	2613.21
809.23	2701.27
809.40	2400.22
809.58	2502.62
809.75	2465.75
809.92	2441.18
810.10	2682.84
810.27	2392.03
810.44	2519.00
810.62	2529.24
810.79	2469.85
810.96	2371.55
811.14	2449.37
811.31	2519.00
811.48	2510.81
811.66	2420.70
811.83	2562.01
812.00	2508.76
812.18	2480.09
812.35	2629.59
812.52	2469.85
812.69	2457.56
812.87	2459.61
813.04	2342.88
813.21	2496.47
813.39	2465.75
813.56	2375.64
813.73	2635.74
813.91	2324.44
814.08	2455.51
814.25	2463.71
814.42	2260.96
814.60	2375.64
814.77	2443.23
814.94	2389.98
815.12	2471.90
815.29	2672.60
815.46	2361.31
815.63	2504.67
815.81	2422.75
815.98	2389.98
816.15	2498.52
816.33	2437.08
816.50	2408.41
816.67	2566.10
816.84	2400.22
817.02	2344.92
817.19	2416.60
817.36	2461.66
817.53	2521.05
817.71	2385.88
817.88	2529.24
818.05	2439.13
818.22	2428.89
818.40	2627.54
818.57	2338.78
818.74	2586.58
818.91	2523.10
819.09	2576.34
819.26	2547.67
819.43	2375.64
819.60	2412.51
819.78	2492.38
819.95	2551.77
820.12	2375.64
820.29	2674.65
820.47	2660.31
820.64	2428.89
820.81	2359.26
820.98	2383.84
821.15	2369.50
821.33	2553.82
821.50	2244.57
821.67	2564.06
821.84	2441.18
822.02	2482.14
822.19	2584.54
822.36	2377.69
822.53	2408.41
822.70	2332.64
822.88	2408.41
823.05	2635.74
823.22	2457.56
823.39	2412.51
823.56	2439.13
823.74	2703.32
823.91	2301.92
824.08	2291.68
824.25	2318.30
824.42	2672.60
824.60	2289.63
824.77	2473.95
824.94	2457.56
825.11	2551.77
825.28	2265.05
825.45	2514.91
825.63	2545.63
825.80	2422.75
825.97	2490.33
826.14	2418.65
826.31	2365.40
826.48	2572.25
826.66	2396.12
826.83	2373.60
827.00	2441.18
827.17	2467.80
827.34	2377.69
827.51	2408.41
827.69	2516.95
827.86	2301.92
828.03	2533.34
828.20	2426.84
828.37	2437.08
828.54	2568.15
828.71	2349.02
828.89	2529.24
829.06	2553.82
829.23	2594.78
829.40	2400.22
829.57	2387.93
829.74	2551.77
829.91	2416.60
830.09	2412.51
830.26	2531.29
830.43	2654.17
830.60	2424.80
830.77	2551.77
830.94	2637.78
831.11	2576.34
831.28	2342.88
831.46	2539.48
831.63	2342.88
831.80	2598.87
831.97	2383.84
832.14	2375.64
832.31	2525.15
832.48	2580.44
832.65	2564.06
832.82	2500.57
832.99	2543.58
833.17	2318.30
833.34	2559.96
833.51	2471.90
833.68	2246.62
833.85	2596.82
834.02	2332.64
834.19	2291.68
834.36	2398.17
834.53	2521.05
834.70	2674.65
834.87	2488.28
835.04	2306.01
835.22	2318.30
835.39	2392.03
835.56	2387.93
835.73	2455.51
835.90	2519.00
836.07	2342.88
836.24	2432.99
836.41	2332.64
836.58	2351.07
836.75	2605.02
836.92	2488.28
837.09	2375.64
837.26	2578.39
837.43	2443.23
837.60	2473.95
837.77	2351.07
837.94	2609.11
838.12	2715.61
838.29	2363.36
838.46	2271.20
838.63	2385.88
838.80	2637.78
838.97	2455.51
839.14	2402.27
839.31	2498.52
839.48	2529.24
839.65	2346.97
839.82	2482.14
839.99	2465.75
840.16	2439.13
840.33	2392.03
840.50	2420.70
840.67	2252.77
840.84	2215.90
841.01	2396.12
841.18	2340.83
841.35	2486.23
841.52	2605.02
841.69	2602.97
841.86	2506.71
842.03	2490.33
842.20	2523.10
842.37	2332.64
842.54	2351.07
842.71	2478.04
842.88	2353.12
843.05	2381.79
843.22	2379.74
843.39	2564.06
843.56	2387.93
843.73	2422.75
843.90	2418.65
844.07	2424.80
844.24	2611.16
844.41	2422.75
844.58	2420.70
844.75	2482.14
844.92	2490.33
845.09	2469.85
845.26	2344.92
845.43	2527.19
845.60	2449.37
845.77	2523.10
845.94	2455.51
846.10	2637.78
846.27	2324.44
846.44	2351.07
846.61	2342.88
846.78	2514.91
846.95	2551.77
847.12	2349.02
847.29	2367.45
847.46	2398.17
847.63	2514.91
847.80	2381.79
847.97	2392.03
848.14	2731.99
848.31	2449.37
848.48	2277.34
848.65	2408.41
848.82	2400.22
848.98	2834.39
849.15	2465.75
849.32	2465.75
849.49	2562.01
849.66	2500.57
849.83	2408.41
850.00	2201.57
850.17	2582.49
850.34	2426.84
850.51	2299.87
850.68	2318.30
850.85	2764.76
851.01	2533.34
851.18	2449.37
851.35	2492.38
851.52	2514.91
851.69	2549.72
851.86	2260.96
852.03	2353.12
852.20	2588.63
852.37	2482.14
852.53	2285.53
852.70	2377.69
852.87	2473.95
853.04	2553.82
853.21	2410.46
853.38	2549.72
853.55	2684.89
853.72	2598.87
853.89	2398.17
854.05	2330.59
854.22	2457.56
854.39	2514.91
854.56	2416.60
854.73	2555.86
854.90	2383.84
855.07	2445.27
855.23	2359.26
855.40	2389.98
855.57	2451.42
855.74	2199.52
855.91	2602.97
856.08	2254.81
856.25	2355.16
856.41	2383.84
856.58	2322.40
856.75	2400.22
856.92	2324.44
857.09	2598.87
857.26	2232.29
857.42	2437.08
857.59	2551.77
857.76	2447.32
857.93	2322.40
858.10	2443.23
858.27	2344.92
858.43	2416.60
858.60	2355.16
858.77	2269.15
858.94	2418.65
859.11	2521.05
859.27	2443.23
859.44	2385.88
859.61	2701.27
859.78	2547.67
859.95	2351.07
860.12	2371.55
860.28	2768.85
860.45	2680.79
860.62	2408.41
860.79	2383.84
860.95	2443.23
861.12	2432.99
861.29	2244.57
861.46	2279.39
861.63	2432.99
861.79	2457.56
861.96	2369.50
862.13	2389.98
862.30	2688.98
862.47	2383.84
862.63	2332.64
862.80	2445.27
862.97	2555.86
863.14	2445.27
863.30	2349.02
863.47	2303.96
863.64	2691.03
863.81	2502.62
863.97	2342.88
864.14	2455.51
864.31	2506.71
864.48	2490.33
864.65	2334.68
864.81	2445.27
864.98	2613.21
865.15	2609.11
865.32	2461.66
865.48	2531.29
865.65	2668.50
865.82	2299.87
865.98	2416.60
866.15	2482.14
866.32	2455.51
866.49	2455.51
866.65	2430.94
866.82	2238.43
866.99	2482.14
867.16	2443.23
867.32	2412.51
867.49	2355.16
867.66	2369.50
867.83	2426.84
867.99	2301.92
868.16	2371.55
868.33	2293.72
868.49	2502.62
868.66	2367.45
868.83	2437.08
868.99	2539.48
869.16	2475.99
869.33	2506.71
869.50	2512.86
869.66	2471.90
869.83	2506.71
870.00	2353.12
870.16	2539.48
870.33	2473.95
870.50	2543.58
870.66	2416.60
870.83	2498.52
871.00	2449.37
871.17	2641.88
871.33	2428.89
871.50	2381.79
871.67	2478.04
871.83	2402.27
872.00	2535.39
872.17	2367.45
872.33	2635.74
872.50	2637.78
872.67	2365.40
872.83	2424.80
873.00	2627.54
873.17	2447.32
873.33	2457.56
873.50	2435.03
873.67	2373.60
873.83	2355.16
874.00	2449.37
874.16	2420.70
874.33	2494.43
874.50	2396.12
874.66	2437.08
874.83	2400.22
875.00	2562.01
875.16	2617.30
875.33	2408.41
875.50	2265.05
875.66	2400.22
875.83	2482.14
875.99	2531.29
876.16	2408.41
876.33	2398.17
876.49	2426.84
876.66	2424.80
876.83	2443.23
876.99	2260.96
877.16	2523.10
877.32	2332.64
877.49	2416.60
877.66	2473.95
877.82	2656.22
877.99	2422.75
878.15	2562.01
878.32	2521.05
878.49	2533.34
878.65	2381.79
878.82	2547.67
878.98	2422.75
879.15	2619.35
879.32	2428.89
879.48	2441.18
879.65	2383.84
879.81	2414.56
879.98	2346.97
880.15	2385.88
880.31	2611.16
880.48	2414.56
880.64	2570.20
880.81	2441.18
880.97	2699.22
881.14	2514.91
881.31	2310.11
881.47	2537.43
881.64	2478.04
881.80	2381.79
881.97	2432.99
882.13	2381.79
882.30	2324.44
882.47	2420.70
882.63	2291.68
882.80	2408.41
882.96	2420.70
883.13	2719.70
883.29	2404.32
883.46	2367.45
883.62	2772.95
883.79	2398.17
883.95	2519.00
884.12	2437.08
884.29	2510.81
884.45	2473.95
884.62	2447.32
884.78	2365.40
884.95	2617.30
885.11	2422.75
885.28	2428.89
885.44	2439.13
885.61	2619.35
885.77	2643.93
885.94	2467.80
886.10	2457.56
886.27	2523.10
886.43	2654.17
886.60	2580.44
886.76	2414.56
886.93	2383.84
887.09	2562.01
887.26	2269.15
887.42	2410.46
887.59	2562.01
887.75	2686.94
887.92	2580.44
888.08	2504.67
888.25	2701.27
888.41	2590.68
888.58	2394.08
888.74	2271.20
888.91	2455.51
>>>>>End Processed Spectral Data<<<<<
