SpectraSuite Data File
++++++++++++++++++++++++++++++++++++
Date: Thu May 05 14:41:54 CEST 2016
User: root
Dark Spectrum Present: No
Reference Spectrum Present: No
Number of Sampled Component Spectra: 1
Spectrometers: USB4C02835
Integration Time (usec): 100000 (USB4C02835)
Spectra Averaged: 1 (USB4C02835)
Boxcar Smoothing: 0 (USB4C02835)
Correct for Electrical Dark: No (USB4C02835)
Strobe/Lamp Enabled: No (USB4C02835)
Correct for Detector Non-linearity: No (USB4C02835)
Correct for Stray Light: No (USB4C02835)
Number of Pixels in Processed Spectrum: 3648
>>>>>Begin Processed Spectral Data<<<<<
177.47	1873.89
177.69	1873.89
177.91	1873.89
178.13	1972.19
178.36	1896.42
178.58	2432.99
178.80	2457.56
179.02	2316.25
179.24	2344.92
179.46	2301.92
179.68	2351.07
179.90	2416.60
180.13	2482.14
180.35	2195.42
180.57	2293.72
180.79	2588.63
181.01	2424.80
181.23	2363.36
181.45	2461.66
181.67	2584.54
181.90	2629.59
182.12	2349.02
182.34	2203.61
182.56	2633.69
182.78	2588.63
183.00	2328.54
183.22	2453.47
183.44	2279.39
183.66	2750.42
183.89	2449.37
184.11	2326.49
184.33	2615.26
184.55	2588.63
184.77	2267.10
184.99	2338.78
185.21	2410.46
185.43	2768.85
185.65	2367.45
185.87	2252.77
186.10	2752.47
186.32	2721.75
186.54	2369.50
186.76	2432.99
186.98	2645.98
187.20	2455.51
187.42	2346.97
187.64	2447.32
187.86	2514.91
188.08	2592.73
188.30	2228.19
188.52	2404.32
188.75	2588.63
188.97	2609.11
189.19	2293.72
189.41	2402.27
189.63	2555.86
189.85	2435.03
190.07	2310.11
190.29	2197.47
190.51	2510.81
190.73	2328.54
190.95	2416.60
191.17	2424.80
191.39	2254.81
191.61	2463.71
191.84	2357.21
192.06	2392.03
192.28	2299.87
192.50	2801.62
192.72	2424.80
192.94	2293.72
193.16	2605.02
193.38	2500.57
193.60	2295.77
193.82	2392.03
194.04	2678.74
194.26	2473.95
194.48	2275.29
194.70	2293.72
194.92	2381.79
195.14	2572.25
195.36	2269.15
195.58	2330.59
195.80	2572.25
196.02	2408.41
196.24	2324.44
196.46	2449.37
196.69	2412.51
196.91	2781.14
197.13	2426.84
197.35	2334.68
197.57	2693.08
197.79	2516.95
198.01	2432.99
198.23	2404.32
198.45	2566.10
198.67	2359.26
198.89	2310.11
199.11	2486.23
199.33	2435.03
199.55	2254.81
199.77	2385.88
199.99	2418.65
200.21	2373.60
200.43	2486.23
200.65	2299.87
200.87	2203.61
201.09	2449.37
201.31	2455.51
201.53	2402.27
201.75	2430.94
201.97	2449.37
202.19	2486.23
202.41	2416.60
202.63	2525.15
202.85	2570.20
203.07	2551.77
203.29	2338.78
203.51	2308.06
203.73	2361.31
203.95	2834.39
204.17	2310.11
204.39	2478.04
204.61	2424.80
204.83	2449.37
205.05	2449.37
205.27	2428.89
205.49	2668.50
205.71	2498.52
205.93	2209.76
206.15	2353.12
206.37	2424.80
206.59	2420.70
206.81	2283.49
207.03	2310.11
207.25	2357.21
207.47	2555.86
207.69	2351.07
207.91	2490.33
208.13	2666.46
208.34	2402.27
208.56	2269.15
208.78	2443.23
209.00	2453.47
209.22	2412.51
209.44	2316.25
209.66	2351.07
209.88	2392.03
210.10	2424.80
210.32	2355.16
210.54	2488.28
210.76	2510.81
210.98	2564.06
211.20	2314.20
211.42	2402.27
211.64	2662.36
211.86	2559.96
212.08	2389.98
212.30	2371.55
212.52	2527.19
212.74	2471.90
212.96	2424.80
213.17	2400.22
213.39	2525.15
213.61	2668.50
213.83	2318.30
214.05	2324.44
214.27	2549.72
214.49	2336.73
214.71	2267.10
214.93	2502.62
215.15	2512.86
215.37	2519.00
215.59	2168.80
215.81	2291.68
216.03	2719.70
216.24	2441.18
216.46	2316.25
216.68	2406.36
216.90	2613.21
217.12	2580.44
217.34	2308.06
217.56	2482.14
217.78	2529.24
218.00	2613.21
218.22	2455.51
218.44	2392.03
218.66	2463.71
218.87	2752.47
219.09	2342.88
219.31	2332.64
219.53	2459.61
219.75	2387.93
219.97	2371.55
220.19	2373.60
220.41	2457.56
220.63	2635.74
220.85	2363.36
221.06	2258.91
221.28	2602.97
221.50	2514.91
221.72	2408.41
221.94	2201.57
222.16	2611.16
222.38	2570.20
222.60	2375.64
222.82	2363.36
223.03	2635.74
223.25	2322.40
223.47	2303.96
223.69	2564.06
223.91	2596.82
224.13	2510.81
224.35	2269.15
224.57	2529.24
224.78	2545.63
225.00	2377.69
225.22	2334.68
225.44	2381.79
225.66	2600.92
225.88	2383.84
226.10	2383.84
226.32	2353.12
226.53	2611.16
226.75	2449.37
226.97	2473.95
227.19	2326.49
227.41	2428.89
227.63	2416.60
227.85	2203.61
228.06	2293.72
228.28	2455.51
228.50	2551.77
228.72	2293.72
228.94	2400.22
229.16	2310.11
229.37	2318.30
229.59	2258.91
229.81	2502.62
230.03	2400.22
230.25	2365.40
230.47	2226.14
230.69	2267.10
230.90	2639.83
231.12	2306.01
231.34	2410.46
231.56	2449.37
231.78	2363.36
232.00	2553.82
232.21	2432.99
232.43	2392.03
232.65	2209.76
232.87	2549.72
233.09	2277.34
233.30	2314.20
233.52	2609.11
233.74	2516.95
233.96	2375.64
234.18	2435.03
234.40	2570.20
234.61	2723.80
234.83	2306.01
235.05	2260.96
235.27	2846.68
235.49	2615.26
235.70	2326.49
235.92	2443.23
236.14	2519.00
236.36	2813.91
236.58	2228.19
236.79	2465.75
237.01	2457.56
237.23	2496.47
237.45	2527.19
237.67	2369.50
237.88	2519.00
238.10	2660.31
238.32	2238.43
238.54	2351.07
238.76	2478.04
238.97	2340.83
239.19	2275.29
239.41	2426.84
239.63	2594.78
239.85	2447.32
240.06	2441.18
240.28	2320.35
240.50	2621.40
240.72	2506.71
240.93	2396.12
241.15	2465.75
241.37	2432.99
241.59	2676.70
241.81	2318.30
242.02	2334.68
242.24	2531.29
242.46	2588.63
242.68	2232.29
242.89	2330.59
243.11	2539.48
243.33	2482.14
243.55	2371.55
243.76	2363.36
243.98	2430.94
244.20	2369.50
244.42	2291.68
244.64	2330.59
244.85	2291.68
245.07	2310.11
245.29	2371.55
245.51	2381.79
245.72	2498.52
245.94	2602.97
246.16	2320.35
246.38	2375.64
246.59	2330.59
246.81	2398.17
247.03	2297.82
247.24	2226.14
247.46	2392.03
247.68	2514.91
247.90	2299.87
248.11	2334.68
248.33	2629.59
248.55	2502.62
248.77	2375.64
248.98	2410.46
249.20	2652.12
249.42	2492.38
249.64	2392.03
249.85	2263.01
250.07	2435.03
250.29	2594.78
250.50	2406.36
250.72	2252.77
250.94	2506.71
251.16	2783.19
251.37	2377.69
251.59	2363.36
251.81	2588.63
252.02	2576.34
252.24	2232.29
252.46	2523.10
252.68	2394.08
252.89	2373.60
253.11	2260.96
253.33	2506.71
253.54	2699.22
253.76	2334.68
253.98	2400.22
254.20	2375.64
254.41	2328.54
254.63	2461.66
254.85	2291.68
255.06	2346.97
255.28	2572.25
255.50	2375.64
255.71	2271.20
255.93	2281.44
256.15	2416.60
256.36	2580.44
256.58	2277.34
256.80	2351.07
257.02	2387.93
257.23	2453.47
257.45	2359.26
257.67	2461.66
257.88	2469.85
258.10	2473.95
258.32	2301.92
258.53	2392.03
258.75	2627.54
258.97	2383.84
259.18	2334.68
259.40	2367.45
259.62	2693.08
259.83	2588.63
260.05	2416.60
260.27	2889.68
260.48	2613.21
260.70	2371.55
260.92	2269.15
261.13	2293.72
261.35	2428.89
261.57	2482.14
261.78	2297.82
262.00	2293.72
262.22	2555.86
262.43	2361.31
262.65	2318.30
262.86	2340.83
263.08	2775.00
263.30	2494.43
263.51	2138.08
263.73	2281.44
263.95	2668.50
264.16	2373.60
264.38	2285.53
264.60	2363.36
264.81	2432.99
265.03	2654.17
265.25	2594.78
265.46	2312.16
265.68	2731.99
265.89	2582.49
266.11	2283.49
266.33	2392.03
266.54	2613.21
266.76	2598.87
266.98	2428.89
267.19	2467.80
267.41	2619.35
267.62	2461.66
267.84	2215.90
268.06	2394.08
268.27	2418.65
268.49	2582.49
268.70	2414.56
268.92	2342.88
269.14	2359.26
269.35	2240.48
269.57	2387.93
269.79	2424.80
270.00	2447.32
270.22	2697.17
270.43	2320.35
270.65	2117.60
270.87	2447.32
271.08	2605.02
271.30	2416.60
271.51	2387.93
271.73	2490.33
271.95	2641.88
272.16	2365.40
272.38	2441.18
272.59	2406.36
272.81	2519.00
273.02	2357.21
273.24	2416.60
273.46	2600.92
273.67	2349.02
273.89	2273.25
274.10	2367.45
274.32	2578.39
274.54	2578.39
274.75	2402.27
274.97	2293.72
275.18	2547.67
275.40	2525.15
275.61	2441.18
275.83	2527.19
276.05	2310.11
276.26	2482.14
276.48	2437.08
276.69	2418.65
276.91	2377.69
277.12	2654.17
277.34	2482.14
277.55	2455.51
277.77	2574.30
277.99	2400.22
278.20	2260.96
278.42	2326.49
278.63	2396.12
278.85	2455.51
279.06	2353.12
279.28	2521.05
279.49	2562.01
279.71	2586.58
279.93	2469.85
280.14	2420.70
280.36	2435.03
280.57	2557.91
280.79	2451.42
281.00	2349.02
281.22	2441.18
281.43	2555.86
281.65	2256.86
281.86	2285.53
282.08	2512.86
282.29	2775.00
282.51	2244.57
282.73	2269.15
282.94	2297.82
283.16	2598.87
283.37	2516.95
283.59	2537.43
283.80	2531.29
284.02	2435.03
284.23	2541.53
284.45	2447.32
284.66	2344.92
284.88	2351.07
285.09	2412.51
285.31	2484.19
285.52	2523.10
285.74	2258.91
285.95	2535.39
286.17	2500.57
286.38	2578.39
286.60	2519.00
286.81	2428.89
287.03	2396.12
287.24	2547.67
287.46	2605.02
287.67	2383.84
287.89	2723.80
288.10	2498.52
288.32	2449.37
288.53	2592.73
288.75	2410.46
288.96	2553.82
289.18	2455.51
289.39	2445.27
289.61	2465.75
289.82	2682.84
290.04	2787.29
290.25	2365.40
290.47	2502.62
290.68	2441.18
290.90	2652.12
291.11	2240.48
291.33	2545.63
291.54	2363.36
291.76	2426.84
291.97	2443.23
292.18	2457.56
292.40	2531.29
292.61	2463.71
292.83	2607.06
293.04	2465.75
293.26	2498.52
293.47	2457.56
293.69	2383.84
293.90	2375.64
294.12	2645.98
294.33	2506.71
294.55	2377.69
294.76	2539.48
294.97	2635.74
295.19	2777.05
295.40	2392.03
295.62	2478.04
295.83	2613.21
296.05	2375.64
296.26	2619.35
296.48	2402.27
296.69	2506.71
296.90	2467.80
297.12	2488.28
297.33	2580.44
297.55	2521.05
297.76	2502.62
297.98	2531.29
298.19	2416.60
298.41	2453.47
298.62	2521.05
298.83	2623.45
299.05	2529.24
299.26	2461.66
299.48	2441.18
299.69	2469.85
299.90	2449.37
300.12	2375.64
300.33	2488.28
300.55	2416.60
300.76	2482.14
300.98	2367.45
301.19	2596.82
301.40	2457.56
301.62	2383.84
301.83	2463.71
302.05	2449.37
302.26	2439.13
302.47	2367.45
302.69	2449.37
302.90	2494.43
303.12	2258.91
303.33	2551.77
303.54	2705.37
303.76	2451.42
303.97	2471.90
304.19	2592.73
304.40	2392.03
304.61	2572.25
304.83	2537.43
305.04	2506.71
305.26	2559.96
305.47	2467.80
305.68	2478.04
305.90	2332.64
306.11	2621.40
306.33	2414.56
306.54	2400.22
306.75	2400.22
306.97	2285.53
307.18	2338.78
307.39	2324.44
307.61	2521.05
307.82	2447.32
308.04	2482.14
308.25	2359.26
308.46	2465.75
308.68	2475.99
308.89	2537.43
309.10	2537.43
309.32	2432.99
309.53	2488.28
309.74	2576.34
309.96	2379.74
310.17	2549.72
310.39	2455.51
310.60	2576.34
310.81	2400.22
311.03	2303.96
311.24	2564.06
311.45	2465.75
311.67	2635.74
311.88	2480.09
312.09	2437.08
312.31	2353.12
312.52	2512.86
312.73	2367.45
312.95	2310.11
313.16	2328.54
313.37	2562.01
313.59	2504.67
313.80	2621.40
314.01	2703.32
314.23	2428.89
314.44	2324.44
314.65	2324.44
314.87	2392.03
315.08	2394.08
315.29	2420.70
315.51	2418.65
315.72	2385.88
315.93	2547.67
316.15	2437.08
316.36	2383.84
316.57	2492.38
316.79	2478.04
317.00	2342.88
317.21	2584.54
317.43	2408.41
317.64	2467.80
317.85	2363.36
318.07	2344.92
318.28	2392.03
318.49	2611.16
318.70	2686.94
318.92	2617.30
319.13	2625.50
319.34	2711.51
319.56	2580.44
319.77	2600.92
319.98	2652.12
320.20	2672.60
320.41	2516.95
320.62	2570.20
320.83	2357.21
321.05	2703.32
321.26	2441.18
321.47	2490.33
321.69	2652.12
321.90	2389.98
322.11	2404.32
322.32	2424.80
322.54	2635.74
322.75	2363.36
322.96	2883.54
323.18	2359.26
323.39	2205.66
323.60	2297.82
323.81	2506.71
324.03	2424.80
324.24	2443.23
324.45	2424.80
324.66	2410.46
324.88	2621.40
325.09	2731.99
325.30	2426.84
325.52	2443.23
325.73	2555.86
325.94	2332.64
326.15	2213.85
326.37	2359.26
326.58	2697.17
326.79	2717.65
327.00	2359.26
327.22	2484.19
327.43	2480.09
327.64	2328.54
327.85	2455.51
328.07	2467.80
328.28	2736.09
328.49	2449.37
328.70	2377.69
328.92	2430.94
329.13	2381.79
329.34	2586.58
329.55	2650.07
329.76	2512.86
329.98	2590.68
330.19	2662.36
330.40	2531.29
330.61	2500.57
330.83	2629.59
331.04	2359.26
331.25	2461.66
331.46	2439.13
331.68	2355.16
331.89	2631.64
332.10	2467.80
332.31	2306.01
332.52	2506.71
332.74	2592.73
332.95	2314.20
333.16	2394.08
333.37	2578.39
333.58	2455.51
333.80	2478.04
334.01	2297.82
334.22	2473.95
334.43	2400.22
334.64	2439.13
334.86	2326.49
335.07	2414.56
335.28	2635.74
335.49	2277.34
335.70	2521.05
335.92	2652.12
336.13	2815.96
336.34	2506.71
336.55	2494.43
336.76	2465.75
336.98	2242.53
337.19	2389.98
337.40	2543.58
337.61	2777.05
337.82	2426.84
338.04	2551.77
338.25	2353.12
338.46	2490.33
338.67	2486.23
338.88	2355.16
339.09	2330.59
339.31	2414.56
339.52	2383.84
339.73	2285.53
339.94	2445.27
340.15	2619.35
340.36	2490.33
340.58	2437.08
340.79	2332.64
341.00	2564.06
341.21	2330.59
341.42	2625.50
341.63	2502.62
341.85	2586.58
342.06	2619.35
342.27	2420.70
342.48	2514.91
342.69	2332.64
342.90	2545.63
343.12	2627.54
343.33	2428.89
343.54	2605.02
343.75	2648.02
343.96	2445.27
344.17	2408.41
344.38	2478.04
344.60	2453.47
344.81	2340.83
345.02	2443.23
345.23	2590.68
345.44	2766.81
345.65	2523.10
345.86	2527.19
346.07	2539.48
346.29	2408.41
346.50	2570.20
346.71	2471.90
346.92	2736.09
347.13	2897.88
347.34	2482.14
347.55	2389.98
347.76	2555.86
347.98	2314.20
348.19	2412.51
348.40	2555.86
348.61	2377.69
348.82	2654.17
349.03	2463.71
349.24	2363.36
349.45	2629.59
349.66	2211.81
349.88	2420.70
350.09	2340.83
350.30	2623.45
350.51	2611.16
350.72	2496.47
350.93	2398.17
351.14	2373.60
351.35	2473.95
351.56	2449.37
351.77	2389.98
351.99	2613.21
352.20	2629.59
352.41	2519.00
352.62	2265.05
352.83	2498.52
353.04	2441.18
353.25	2375.64
353.46	2588.63
353.67	2596.82
353.88	2285.53
354.09	2432.99
354.30	2445.27
354.52	2615.26
354.73	2449.37
354.94	2420.70
355.15	2449.37
355.36	2719.70
355.57	2422.75
355.78	2408.41
355.99	2367.45
356.20	2504.67
356.41	2635.74
356.62	2480.09
356.83	2381.79
357.04	2682.84
357.25	2244.57
357.46	2441.18
357.68	2244.57
357.89	2408.41
358.10	2496.47
358.31	2435.03
358.52	2383.84
358.73	2351.07
358.94	2410.46
359.15	2441.18
359.36	2539.48
359.57	2543.58
359.78	2449.37
359.99	2512.86
360.20	2332.64
360.41	2422.75
360.62	2473.95
360.83	2482.14
361.04	2500.57
361.25	2539.48
361.46	2746.33
361.67	2555.86
361.88	2512.86
362.09	2627.54
362.30	2592.73
362.51	2351.07
362.72	2437.08
362.93	2523.10
363.14	2562.01
363.35	2437.08
363.56	2379.74
363.78	2637.78
363.99	2572.25
364.20	2396.12
364.41	2473.95
364.62	2625.50
364.83	2496.47
365.04	2447.32
365.25	2400.22
365.46	2715.61
365.67	2432.99
365.88	2414.56
366.09	2330.59
366.30	2496.47
366.51	2486.23
366.72	2324.44
366.93	2418.65
367.14	2482.14
367.35	2547.67
367.56	2422.75
367.77	2600.92
367.98	2523.10
368.18	2510.81
368.39	2473.95
368.60	2418.65
368.81	2578.39
369.02	2512.86
369.23	2416.60
369.44	2176.99
369.65	2418.65
369.86	2543.58
370.07	2498.52
370.28	2334.68
370.49	2576.34
370.70	2611.16
370.91	2389.98
371.12	2295.77
371.33	2578.39
371.54	2387.93
371.75	2617.30
371.96	2248.67
372.17	2473.95
372.38	2414.56
372.59	2455.51
372.80	2428.89
373.01	2430.94
373.22	2508.76
373.43	2392.03
373.64	2326.49
373.85	2633.69
374.06	2717.65
374.26	2568.15
374.47	2504.67
374.68	2725.85
374.89	2496.47
375.10	2410.46
375.31	2506.71
375.52	2465.75
375.73	2504.67
375.94	2336.73
376.15	2543.58
376.36	2371.55
376.57	2338.78
376.78	2381.79
376.99	2461.66
377.20	2684.89
377.40	2396.12
377.61	2633.69
377.82	2346.97
378.03	2617.30
378.24	2635.74
378.45	2416.60
378.66	2492.38
378.87	2306.01
379.08	2330.59
379.29	2406.36
379.50	2527.19
379.71	2445.27
379.91	2490.33
380.12	2396.12
380.33	2478.04
380.54	2490.33
380.75	2453.47
380.96	2416.60
381.17	2541.53
381.38	2463.71
381.59	2469.85
381.80	2449.37
382.00	2609.11
382.21	2576.34
382.42	2650.07
382.63	2746.33
382.84	2498.52
383.05	2598.87
383.26	2666.46
383.47	2490.33
383.68	2519.00
383.88	2596.82
384.09	2527.19
384.30	2652.12
384.51	2461.66
384.72	2369.50
384.93	2312.16
385.14	2441.18
385.35	2531.29
385.55	2326.49
385.76	2629.59
385.97	2461.66
386.18	2351.07
386.39	2371.55
386.60	2516.95
386.81	2375.64
387.02	2326.49
387.22	2357.21
387.43	2557.91
387.64	2508.76
387.85	2621.40
388.06	2707.41
388.27	4091.84
388.48	8351.62
388.68	11833.16
388.89	14667.55
389.10	15634.19
389.31	14688.03
389.52	11435.86
389.73	10133.35
389.93	8953.72
390.14	8294.27
390.35	7462.80
390.56	6631.32
390.77	5406.64
390.98	4179.90
391.18	3428.30
391.39	2928.60
391.60	2562.01
391.81	2627.54
392.02	2404.32
392.23	2754.52
392.43	2488.28
392.64	2578.39
392.85	2414.56
393.06	2676.70
393.27	2469.85
393.47	2435.03
393.68	2484.19
393.89	2420.70
394.10	2625.50
394.31	2406.36
394.52	2465.75
394.72	2365.40
394.93	2641.88
395.14	2359.26
395.35	2498.52
395.56	2424.80
395.76	2457.56
395.97	2432.99
396.18	2580.44
396.39	2641.88
396.60	2957.27
396.80	2721.75
397.01	2605.02
397.22	2654.17
397.43	2686.94
397.64	2451.42
397.84	2535.39
398.05	2684.89
398.26	2455.51
398.47	2582.49
398.67	2578.39
398.88	2465.75
399.09	2555.86
399.30	2400.22
399.51	2521.05
399.71	2322.40
399.92	2463.71
400.13	2562.01
400.34	2496.47
400.54	2539.48
400.75	2705.37
400.96	2484.19
401.17	2639.83
401.37	2506.71
401.58	2363.36
401.79	2408.41
402.00	2559.96
402.21	2834.39
402.41	2775.00
402.62	2766.81
402.83	2934.74
403.04	2979.79
403.24	3074.00
403.45	2662.36
403.66	2764.76
403.87	2664.41
404.07	2721.75
404.28	2742.23
404.49	2725.85
404.70	2607.06
404.90	2572.25
405.11	2457.56
405.32	2521.05
405.52	2439.13
405.73	2426.84
405.94	2379.74
406.15	2459.61
406.35	2570.20
406.56	2588.63
406.77	2437.08
406.98	2494.43
407.18	2369.50
407.39	2598.87
407.60	2400.22
407.80	2580.44
408.01	2412.51
408.22	2527.19
408.43	2467.80
408.63	2527.19
408.84	2641.88
409.05	2580.44
409.25	2316.25
409.46	2394.08
409.67	2414.56
409.88	2432.99
410.08	2510.81
410.29	2420.70
410.50	2562.01
410.70	2596.82
410.91	2351.07
411.12	2465.75
411.32	2463.71
411.53	2432.99
411.74	2502.62
411.95	2486.23
412.15	2691.03
412.36	2615.26
412.57	2594.78
412.77	2578.39
412.98	2523.10
413.19	2424.80
413.39	2547.67
413.60	2504.67
413.81	2648.02
414.01	2389.98
414.22	2531.29
414.43	2525.15
414.63	2461.66
414.84	2570.20
415.05	2408.41
415.25	2295.77
415.46	2549.72
415.67	2428.89
415.87	2435.03
416.08	2430.94
416.29	2494.43
416.49	2537.43
416.70	2473.95
416.91	2437.08
417.11	2496.47
417.32	2602.97
417.53	2482.14
417.73	2490.33
417.94	2572.25
418.15	2482.14
418.35	2506.71
418.56	2475.99
418.77	2740.18
418.97	2463.71
419.18	2463.71
419.38	2170.85
419.59	2521.05
419.80	2635.74
420.00	2488.28
420.21	2473.95
420.42	2617.30
420.62	2523.10
420.83	2334.68
421.04	2432.99
421.24	2543.58
421.45	2557.91
421.65	2465.75
421.86	2473.95
422.07	2547.67
422.27	2578.39
422.48	2373.60
422.69	2277.34
422.89	2473.95
423.10	2410.46
423.30	2338.78
423.51	2424.80
423.72	2578.39
423.92	2650.07
424.13	2324.44
424.33	2482.14
424.54	2521.05
424.75	2482.14
424.95	2605.02
425.16	2498.52
425.36	2494.43
425.57	2564.06
425.78	2529.24
425.98	2516.95
426.19	2424.80
426.39	2389.98
426.60	2541.53
426.81	2588.63
427.01	2490.33
427.22	2379.74
427.42	2295.77
427.63	2426.84
427.83	2660.31
428.04	2746.33
428.25	2463.71
428.45	2592.73
428.66	2523.10
428.86	2408.41
429.07	2465.75
429.28	2527.19
429.48	2410.46
429.69	2285.53
429.89	2490.33
430.10	2385.88
430.30	2596.82
430.51	2570.20
430.71	2482.14
430.92	2449.37
431.13	2428.89
431.33	2539.48
431.54	2426.84
431.74	2650.07
431.95	2834.39
432.15	2379.74
432.36	2498.52
432.56	2473.95
432.77	2729.94
432.98	2699.22
433.18	2490.33
433.39	2334.68
433.59	2451.42
433.80	2723.80
434.00	2711.51
434.21	2473.95
434.41	2463.71
434.62	2764.76
434.82	2392.03
435.03	2340.83
435.23	2547.67
435.44	2260.96
435.64	2447.32
435.85	2529.24
436.06	2645.98
436.26	2580.44
436.47	2373.60
436.67	2297.82
436.88	2402.27
437.08	2600.92
437.29	2553.82
437.49	2498.52
437.70	2650.07
437.90	2422.75
438.11	2619.35
438.31	2559.96
438.52	2652.12
438.72	2754.52
438.93	2783.19
439.13	2623.45
439.34	2682.84
439.54	2461.66
439.75	2592.73
439.95	2502.62
440.16	2473.95
440.36	2510.81
440.57	2514.91
440.77	2414.56
440.98	2475.99
441.18	2537.43
441.39	2449.37
441.59	2320.35
441.80	2785.24
442.00	2547.67
442.21	2615.26
442.41	2355.16
442.62	2578.39
442.82	2441.18
443.02	2412.51
443.23	2504.67
443.43	2449.37
443.64	2705.37
443.84	2291.68
444.05	2488.28
444.25	2596.82
444.46	2494.43
444.66	2471.90
444.87	2686.94
445.07	2389.98
445.28	2471.90
445.48	2629.59
445.69	2531.29
445.89	2742.23
446.09	2547.67
446.30	2693.08
446.50	3014.61
446.71	4579.26
446.91	5685.16
447.12	6610.84
447.32	6932.37
447.53	6670.23
447.73	5341.10
447.93	4874.17
448.14	4513.72
448.34	4464.57
448.55	3739.59
448.75	3792.84
448.96	3684.30
449.16	3309.52
449.36	3133.39
449.57	2748.37
449.77	2553.82
449.98	2539.48
450.18	2621.40
450.39	2486.23
450.59	2553.82
450.79	2500.57
451.00	2439.13
451.20	2570.20
451.41	2379.74
451.61	2545.63
451.81	2539.48
452.02	2383.84
452.22	2478.04
452.43	2420.70
452.63	2418.65
452.84	2496.47
453.04	2432.99
453.24	2537.43
453.45	2349.02
453.65	2490.33
453.86	2492.38
454.06	2494.43
454.26	2441.18
454.47	2363.36
454.67	2533.34
454.87	2529.24
455.08	2402.27
455.28	2648.02
455.49	2545.63
455.69	2406.36
455.89	2748.37
456.10	2578.39
456.30	2373.60
456.51	2533.34
456.71	2543.58
456.91	2537.43
457.12	2449.37
457.32	2506.71
457.52	2355.16
457.73	2559.96
457.93	2508.76
458.14	2424.80
458.34	2297.82
458.54	2363.36
458.75	2383.84
458.95	2559.96
459.15	2486.23
459.36	2506.71
459.56	2500.57
459.76	2768.85
459.97	2564.06
460.17	2488.28
460.37	2654.17
460.58	2486.23
460.78	2588.63
460.99	2351.07
461.19	2521.05
461.39	2457.56
461.60	2453.47
461.80	2592.73
462.00	2369.50
462.21	2449.37
462.41	2398.17
462.61	2351.07
462.82	2232.29
463.02	2643.93
463.22	2482.14
463.43	2611.16
463.63	2437.08
463.83	2707.41
464.04	2635.74
464.24	2512.86
464.44	2408.41
464.64	2428.89
464.85	2654.17
465.05	2545.63
465.25	2414.56
465.46	2398.17
465.66	2590.68
465.86	2537.43
466.07	2435.03
466.27	2461.66
466.47	2306.01
466.68	2324.44
466.88	2602.97
467.08	2564.06
467.29	2627.54
467.49	2471.90
467.69	2461.66
467.89	2605.02
468.10	2490.33
468.30	2521.05
468.50	2594.78
468.71	2605.02
468.91	2383.84
469.11	2686.94
469.31	2502.62
469.52	2346.97
469.72	2762.71
469.92	2637.78
470.13	2424.80
470.33	2615.26
470.53	2588.63
470.73	2973.65
470.94	3235.79
471.14	3497.93
471.34	3868.61
471.54	3753.93
471.75	3405.77
471.95	3125.20
472.15	3026.90
472.36	3020.75
472.56	2953.17
472.76	3076.05
472.96	2928.60
473.17	2768.85
473.37	2609.11
473.57	2523.10
473.77	2590.68
473.98	2525.15
474.18	2408.41
474.38	2881.49
474.58	2361.31
474.79	2396.12
474.99	2582.49
475.19	2598.87
475.39	2375.64
475.60	2492.38
475.80	2428.89
476.00	2506.71
476.20	2439.13
476.41	2514.91
476.61	2637.78
476.81	2615.26
477.01	2443.23
477.21	2658.26
477.42	2564.06
477.62	2373.60
477.82	2564.06
478.02	2471.90
478.23	2424.80
478.43	2432.99
478.63	2494.43
478.83	2475.99
479.03	2506.71
479.24	2645.98
479.44	2740.18
479.64	2400.22
479.84	2277.34
480.04	2383.84
480.25	2539.48
480.45	2373.60
480.65	2387.93
480.85	2703.32
481.06	2430.94
481.26	2447.32
481.46	2426.84
481.66	2627.54
481.86	2406.36
482.06	2564.06
482.27	2459.61
482.47	2410.46
482.67	2514.91
482.87	2400.22
483.07	2543.58
483.28	2408.41
483.48	2426.84
483.68	2492.38
483.88	2291.68
484.08	2234.33
484.29	2359.26
484.49	2469.85
484.69	2318.30
484.89	2738.13
485.09	2590.68
485.29	2576.34
485.50	2475.99
485.70	2392.03
485.90	2592.73
486.10	2533.34
486.30	2484.19
486.50	2660.31
486.71	2543.58
486.91	2502.62
487.11	2617.30
487.31	2332.64
487.51	2555.86
487.71	2334.68
487.91	2430.94
488.12	2455.51
488.32	2265.05
488.52	2445.27
488.72	2269.15
488.92	2516.95
489.12	2686.94
489.32	2519.00
489.53	2539.48
489.73	2299.87
489.93	2744.28
490.13	2455.51
490.33	2359.26
490.53	2441.18
490.73	2531.29
490.94	2248.67
491.14	2527.19
491.34	2537.43
491.54	2803.67
491.74	3481.55
491.94	3958.72
492.14	4306.88
492.34	4399.04
492.54	3962.82
492.75	3471.31
492.95	3483.59
493.15	3153.87
493.35	3094.48
493.55	3055.57
493.75	2920.40
493.95	2996.18
494.15	2822.10
494.35	2482.14
494.56	2586.58
494.76	2488.28
494.96	2551.77
495.16	2514.91
495.36	2467.80
495.56	2514.91
495.76	2471.90
495.96	2447.32
496.16	2441.18
496.36	2754.52
496.56	2486.23
496.77	2535.39
496.97	2496.47
497.17	2621.40
497.37	2281.44
497.57	2549.72
497.77	2539.48
497.97	2314.20
498.17	2484.19
498.37	2344.92
498.57	2600.92
498.77	2498.52
498.97	2590.68
499.17	2662.36
499.38	2473.95
499.58	2564.06
499.78	2596.82
499.98	2635.74
500.18	2488.28
500.38	2428.89
500.58	2645.98
500.78	3047.38
500.98	5332.91
501.18	7456.65
501.38	9295.73
501.58	10168.16
501.78	10000.23
501.98	8122.24
502.18	6829.98
502.38	5730.22
502.58	5279.66
502.78	4859.83
502.98	4657.08
503.18	4405.18
503.38	4134.85
503.59	3520.46
503.79	3407.82
503.99	3284.94
504.19	3006.42
504.39	3112.91
504.59	3162.06
504.79	3166.16
504.99	3174.35
505.19	2856.92
505.39	2738.13
505.59	2863.06
505.79	2797.53
505.99	2754.52
506.19	2551.77
506.39	2760.66
506.59	2471.90
506.79	2514.91
506.99	2621.40
507.19	2510.81
507.39	2543.58
507.59	2275.29
507.79	2457.56
507.99	2387.93
508.19	2533.34
508.39	2412.51
508.59	2469.85
508.79	2588.63
508.99	2734.04
509.19	2400.22
509.39	2576.34
509.59	2351.07
509.79	2443.23
509.99	2557.91
510.19	2623.45
510.39	2514.91
510.59	2537.43
510.79	2437.08
510.99	2326.49
511.19	2392.03
511.39	2699.22
511.59	2588.63
511.79	2631.64
511.99	2480.09
512.19	2711.51
512.38	2508.76
512.58	2467.80
512.78	2428.89
512.98	2641.88
513.18	2641.88
513.38	2273.25
513.58	2502.62
513.78	2430.94
513.98	2498.52
514.18	2463.71
514.38	2389.98
514.58	2547.67
514.78	2461.66
514.98	2367.45
515.18	2475.99
515.38	2363.36
515.58	2746.33
515.78	2365.40
515.98	2482.14
516.18	2578.39
516.38	2543.58
516.57	2408.41
516.77	2369.50
516.97	2637.78
517.17	2394.08
517.37	2346.97
517.57	2488.28
517.77	2437.08
517.97	2441.18
518.17	2543.58
518.37	2420.70
518.57	2408.41
518.77	2484.19
518.97	2471.90
519.16	2473.95
519.36	2660.31
519.56	2461.66
519.76	2422.75
519.96	2455.51
520.16	2662.36
520.36	2467.80
520.56	2494.43
520.76	2488.28
520.96	2453.47
521.16	2654.17
521.35	2545.63
521.55	2625.50
521.75	2531.29
521.95	2473.95
522.15	2389.98
522.35	2234.33
522.55	2459.61
522.75	2605.02
522.95	2377.69
523.14	2301.92
523.34	2539.48
523.54	2371.55
523.74	2537.43
523.94	2461.66
524.14	2293.72
524.34	2521.05
524.54	2586.58
524.73	2412.51
524.93	2572.25
525.13	2486.23
525.33	2357.21
525.53	2709.46
525.73	2568.15
525.93	2498.52
526.13	2441.18
526.32	2373.60
526.52	2611.16
526.72	2570.20
526.92	2519.00
527.12	2424.80
527.32	2396.12
527.52	2455.51
527.71	2494.43
527.91	2521.05
528.11	2449.37
528.31	2457.56
528.51	2392.03
528.71	2508.76
528.90	2529.24
529.10	2658.26
529.30	2529.24
529.50	2260.96
529.70	2535.39
529.90	2506.71
530.09	2422.75
530.29	2342.88
530.49	2402.27
530.69	2797.53
530.89	2408.41
531.09	2551.77
531.28	2488.28
531.48	2600.92
531.68	2467.80
531.88	2406.36
532.08	2564.06
532.28	2441.18
532.47	2613.21
532.67	2637.78
532.87	2537.43
533.07	2330.59
533.27	2527.19
533.46	2516.95
533.66	2510.81
533.86	2498.52
534.06	2539.48
534.26	2461.66
534.45	2447.32
534.65	2596.82
534.85	2570.20
535.05	2314.20
535.25	2537.43
535.44	2289.63
535.64	2473.95
535.84	2478.04
536.04	2424.80
536.24	2490.33
536.43	2449.37
536.63	2471.90
536.83	2463.71
537.03	2514.91
537.22	2299.87
537.42	2297.82
537.62	2553.82
537.82	2357.21
538.02	2512.86
538.21	2600.92
538.41	2914.26
538.61	2592.73
538.81	2445.27
539.00	2576.34
539.20	2289.63
539.40	2480.09
539.60	2508.76
539.79	2592.73
539.99	2496.47
540.19	2389.98
540.39	2392.03
540.58	2480.09
540.78	2643.93
540.98	2527.19
541.18	2531.29
541.37	2445.27
541.57	2496.47
541.77	2635.74
541.97	2334.68
542.16	2326.49
542.36	2471.90
542.56	2357.21
542.76	2664.41
542.95	2543.58
543.15	2570.20
543.35	2555.86
543.54	2414.56
543.74	2467.80
543.94	2611.16
544.14	2435.03
544.33	2523.10
544.53	2400.22
544.73	2480.09
544.93	2424.80
545.12	2539.48
545.32	2475.99
545.52	2465.75
545.71	2449.37
545.91	2400.22
546.11	2449.37
546.30	2385.88
546.50	2473.95
546.70	2531.29
546.90	2424.80
547.09	2277.34
547.29	2490.33
547.49	2531.29
547.68	2437.08
547.88	2463.71
548.08	2637.78
548.27	2912.21
548.47	2443.23
548.67	2486.23
548.87	2547.67
549.06	2498.52
549.26	2510.81
549.46	2506.71
549.65	2406.36
549.85	2465.75
550.05	2504.67
550.24	2342.88
550.44	2443.23
550.64	2512.86
550.83	2519.00
551.03	2701.27
551.23	2586.58
551.42	2514.91
551.62	2432.99
551.82	2516.95
552.01	2432.99
552.21	2609.11
552.41	2441.18
552.60	2697.17
552.80	2529.24
553.00	2338.78
553.19	2492.38
553.39	2660.31
553.59	2318.30
553.78	2521.05
553.98	2508.76
554.17	2349.02
554.37	2650.07
554.57	2600.92
554.76	2357.21
554.96	2408.41
555.16	2457.56
555.35	2514.91
555.55	2551.77
555.75	2500.57
555.94	2572.25
556.14	2301.92
556.33	2428.89
556.53	2398.17
556.73	2465.75
556.92	2580.44
557.12	2531.29
557.32	2799.57
557.51	2674.65
557.71	2435.03
557.90	2600.92
558.10	2684.89
558.30	2400.22
558.49	2553.82
558.69	2465.75
558.88	2516.95
559.08	2586.58
559.28	2385.88
559.47	2482.14
559.67	2523.10
559.86	2727.89
560.06	2463.71
560.26	2494.43
560.45	2586.58
560.65	2537.43
560.84	2625.50
561.04	2340.83
561.24	2553.82
561.43	2363.36
561.63	2670.55
561.82	2568.15
562.02	2586.58
562.22	2420.70
562.41	2400.22
562.61	2449.37
562.80	2422.75
563.00	2758.61
563.19	2416.60
563.39	2486.23
563.59	2572.25
563.78	2381.79
563.98	2217.95
564.17	2318.30
564.37	2291.68
564.56	2555.86
564.76	2342.88
564.96	2615.26
565.15	2445.27
565.35	2824.15
565.54	2394.08
565.74	2537.43
565.93	2562.01
566.13	2404.32
566.32	2514.91
566.52	2422.75
566.71	2478.04
566.91	2592.73
567.11	2539.48
567.30	2408.41
567.50	2510.81
567.69	2586.58
567.89	2412.51
568.08	2322.40
568.28	2570.20
568.47	2349.02
568.67	2527.19
568.86	2441.18
569.06	2592.73
569.25	2420.70
569.45	2402.27
569.64	2396.12
569.84	2461.66
570.04	2611.16
570.23	2402.27
570.43	2363.36
570.62	2475.99
570.82	2742.23
571.01	2297.82
571.21	2394.08
571.40	2400.22
571.60	2623.45
571.79	2580.44
571.99	2498.52
572.18	2410.46
572.38	2588.63
572.57	2383.84
572.77	2498.52
572.96	2828.24
573.16	2508.76
573.35	2455.51
573.55	2551.77
573.74	2469.85
573.94	2428.89
574.13	2502.62
574.33	2543.58
574.52	2686.94
574.71	2494.43
574.91	2566.10
575.10	2394.08
575.30	2420.70
575.49	2414.56
575.69	2387.93
575.88	2580.44
576.08	2484.19
576.27	2717.65
576.47	2516.95
576.66	2668.50
576.86	2670.55
577.05	2559.96
577.25	2531.29
577.44	2637.78
577.64	2490.33
577.83	2617.30
578.02	2488.28
578.22	2590.68
578.41	2746.33
578.61	2504.67
578.80	2342.88
579.00	2508.76
579.19	2545.63
579.39	2568.15
579.58	2588.63
579.77	2435.03
579.97	2639.83
580.16	2662.36
580.36	2555.86
580.55	2564.06
580.75	2602.97
580.94	2578.39
581.13	2680.79
581.33	2695.13
581.52	2523.10
581.72	2822.10
581.91	2648.02
582.11	2392.03
582.30	2605.02
582.49	2572.25
582.69	2711.51
582.88	2523.10
583.08	2568.15
583.27	2748.37
583.47	2510.81
583.66	2406.36
583.85	2424.80
584.05	2453.47
584.24	2539.48
584.44	2584.54
584.63	2666.46
584.82	2725.85
585.02	2658.26
585.21	2627.54
585.41	2703.32
585.60	2678.74
585.79	2742.23
585.99	2777.05
586.18	2625.50
586.37	3149.78
586.57	5054.39
586.76	14862.11
586.96	34506.23
587.15	47830.31
587.34	57238.68
587.54	61385.82
587.73	55622.83
587.93	39335.34
588.12	29849.14
588.31	23973.52
588.51	20991.68
588.70	19422.94
588.89	17268.47
589.09	14833.44
589.28	12748.61
589.47	10094.44
589.67	8011.65
589.86	6322.08
590.06	4659.13
590.25	3891.14
590.44	3438.54
590.64	2897.88
590.83	2830.29
591.02	2752.47
591.22	2551.77
591.41	2645.98
591.60	2570.20
591.80	2787.29
591.99	2408.41
592.18	2463.71
592.38	2562.01
592.57	2418.65
592.76	2551.77
592.96	2478.04
593.15	2504.67
593.34	2574.30
593.54	2494.43
593.73	2674.65
593.92	2641.88
594.12	2713.56
594.31	2629.59
594.50	2709.46
594.70	2613.21
594.89	2854.87
595.08	2359.26
595.28	2619.35
595.47	2844.63
595.66	2729.94
595.86	2330.59
596.05	2394.08
596.24	2424.80
596.43	2793.43
596.63	2519.00
596.82	2553.82
597.01	2629.59
597.21	2715.61
597.40	2584.54
597.59	2494.43
597.79	2523.10
597.98	2613.21
598.17	2539.48
598.36	2461.66
598.56	2617.30
598.75	2406.36
598.94	2588.63
599.14	2559.96
599.33	2496.47
599.52	2645.98
599.71	2459.61
599.91	2547.67
600.10	2576.34
600.29	2562.01
600.48	2572.25
600.68	2510.81
600.87	2527.19
601.06	2480.09
601.26	2484.19
601.45	2525.15
601.64	2432.99
601.83	2650.07
602.03	2447.32
602.22	2383.84
602.41	2711.51
602.60	2822.10
602.80	2615.26
602.99	2562.01
603.18	2422.75
603.37	2525.15
603.57	2445.27
603.76	2508.76
603.95	2635.74
604.14	2453.47
604.34	2285.53
604.53	2392.03
604.72	2457.56
604.91	2578.39
605.10	2596.82
605.30	2283.49
605.49	2686.94
605.68	2519.00
605.87	2553.82
606.07	2435.03
606.26	2457.56
606.45	2578.39
606.64	2545.63
606.84	2439.13
607.03	2494.43
607.22	2674.65
607.41	2498.52
607.60	2521.05
607.80	2572.25
607.99	2490.33
608.18	2512.86
608.37	2547.67
608.56	2381.79
608.76	2678.74
608.95	2727.89
609.14	2447.32
609.33	2654.17
609.52	2711.51
609.72	2514.91
609.91	2617.30
610.10	2570.20
610.29	2713.56
610.48	2605.02
610.68	2555.86
610.87	2527.19
611.06	2672.60
611.25	2439.13
611.44	2607.06
611.63	2564.06
611.83	2605.02
612.02	2318.30
612.21	2578.39
612.40	2316.25
612.59	2400.22
612.79	2418.65
612.98	2527.19
613.17	2795.48
613.36	2523.10
613.55	2654.17
613.74	2572.25
613.93	2607.06
614.13	2635.74
614.32	2785.24
614.51	2715.61
614.70	2559.96
614.89	2564.06
615.08	2668.50
615.28	2961.36
615.47	2340.83
615.66	2596.82
615.85	2537.43
616.04	2703.32
616.23	2535.39
616.42	2490.33
616.62	2504.67
616.81	2549.72
617.00	2578.39
617.19	2553.82
617.38	2420.70
617.57	2424.80
617.76	2562.01
617.95	2592.73
618.15	2572.25
618.34	2672.60
618.53	2373.60
618.72	2668.50
618.91	2512.86
619.10	2598.87
619.29	2455.51
619.48	2455.51
619.68	2375.64
619.87	2437.08
620.06	2324.44
620.25	2498.52
620.44	2465.75
620.63	2449.37
620.82	2572.25
621.01	2535.39
621.20	2379.74
621.39	2519.00
621.59	2592.73
621.78	2480.09
621.97	2441.18
622.16	2568.15
622.35	2584.54
622.54	2564.06
622.73	2605.02
622.92	2308.06
623.11	2662.36
623.30	2486.23
623.49	2562.01
623.68	2400.22
623.88	2519.00
624.07	2439.13
624.26	2469.85
624.45	2420.70
624.64	2422.75
624.83	2600.92
625.02	2482.14
625.21	2443.23
625.40	2527.19
625.59	2637.78
625.78	2502.62
625.97	2670.55
626.16	2713.56
626.35	2619.35
626.54	2578.39
626.74	2684.89
626.93	2533.34
627.12	2498.52
627.31	2590.68
627.50	2551.77
627.69	2676.70
627.88	2447.32
628.07	2414.56
628.26	2258.91
628.45	2346.97
628.64	2334.68
628.83	2539.48
629.02	2301.92
629.21	2617.30
629.40	2531.29
629.59	2422.75
629.78	2400.22
629.97	2531.29
630.16	2447.32
630.35	2451.42
630.54	2519.00
630.73	2447.32
630.92	2547.67
631.11	2379.74
631.30	2551.77
631.49	2652.12
631.68	2480.09
631.87	2531.29
632.06	2326.49
632.25	2793.43
632.44	2531.29
632.63	2580.44
632.82	2512.86
633.01	2512.86
633.20	2564.06
633.39	2459.61
633.58	2377.69
633.77	2621.40
633.96	2596.82
634.15	2578.39
634.34	2572.25
634.53	2576.34
634.72	2541.53
634.91	2363.36
635.10	2480.09
635.29	2605.02
635.48	2512.86
635.67	2449.37
635.86	2334.68
636.05	2633.69
636.24	2504.67
636.43	2523.10
636.62	2512.86
636.81	2250.72
637.00	2521.05
637.19	2455.51
637.38	2502.62
637.57	2500.57
637.76	2531.29
637.95	2670.55
638.14	2533.34
638.33	2627.54
638.52	2535.39
638.71	2441.18
638.89	2414.56
639.08	2906.07
639.27	2691.03
639.46	2746.33
639.65	3133.39
639.84	3223.50
640.03	3377.10
640.22	3162.06
640.41	3092.43
640.60	2848.72
640.79	2789.33
640.98	2738.13
641.17	2760.66
641.36	2666.46
641.55	2658.26
641.74	2496.47
641.92	2396.12
642.11	2457.56
642.30	2506.71
642.49	2389.98
642.68	2359.26
642.87	2529.24
643.06	2553.82
643.25	2441.18
643.44	2383.84
643.63	2457.56
643.82	2590.68
644.00	2346.97
644.19	2406.36
644.38	2369.50
644.57	2547.67
644.76	2490.33
644.95	2459.61
645.14	2504.67
645.33	2527.19
645.52	2451.42
645.71	2299.87
645.89	2349.02
646.08	2469.85
646.27	2353.12
646.46	2627.54
646.65	2363.36
646.84	2478.04
647.03	2338.78
647.22	2572.25
647.40	2484.19
647.59	2441.18
647.78	2301.92
647.97	2363.36
648.16	2435.03
648.35	2672.60
648.54	2529.24
648.73	2471.90
648.91	2559.96
649.10	2418.65
649.29	2400.22
649.48	2500.57
649.67	2594.78
649.86	2523.10
650.05	2519.00
650.23	2697.17
650.42	2602.97
650.61	2826.20
650.80	2684.89
650.99	2793.43
651.18	2635.74
651.36	2684.89
651.55	2506.71
651.74	2627.54
651.93	2529.24
652.12	2494.43
652.31	2559.96
652.49	2549.72
652.68	2521.05
652.87	2691.03
653.06	2451.42
653.25	2777.05
653.44	2482.14
653.62	2781.14
653.81	2490.33
654.00	2449.37
654.19	2582.49
654.38	2795.48
654.56	2553.82
654.75	2488.28
654.94	2555.86
655.13	2543.58
655.32	2500.57
655.51	2521.05
655.69	2471.90
655.88	2623.45
656.07	2387.93
656.26	2555.86
656.45	2326.49
656.63	2414.56
656.82	2420.70
657.01	2596.82
657.20	2420.70
657.38	2719.70
657.57	2432.99
657.76	2256.86
657.95	2512.86
658.14	2400.22
658.32	2510.81
658.51	2306.01
658.70	2514.91
658.89	2523.10
659.08	2383.84
659.26	2766.81
659.45	2375.64
659.64	2570.20
659.83	2408.41
660.01	2871.25
660.20	2496.47
660.39	2746.33
660.58	2187.23
660.76	2512.86
660.95	2365.40
661.14	2459.61
661.33	2412.51
661.51	2373.60
661.70	2496.47
661.89	2490.33
662.08	2453.47
662.26	2342.88
662.45	2408.41
662.64	2686.94
662.83	2488.28
663.01	2351.07
663.20	2424.80
663.39	2643.93
663.58	2441.18
663.76	2453.47
663.95	2564.06
664.14	2482.14
664.32	2414.56
664.51	2357.21
664.70	2297.82
664.89	2506.71
665.07	2338.78
665.26	2615.26
665.45	2320.35
665.64	2533.34
665.82	2498.52
666.01	2592.73
666.20	2293.72
666.38	2574.30
666.57	2629.59
666.76	3899.33
666.95	9484.14
667.13	17661.68
667.32	22705.83
667.51	26127.99
667.69	27749.98
667.88	24735.37
668.07	17364.73
668.25	14253.86
668.44	11956.04
668.63	10340.19
668.81	9097.08
669.00	7755.66
669.19	7024.53
669.38	6070.18
669.56	5201.84
669.75	4431.80
669.94	3760.07
670.12	3229.65
670.31	2932.69
670.50	2768.85
670.68	2793.43
670.87	2564.06
671.06	2437.08
671.24	2574.30
671.43	2736.09
671.62	2461.66
671.80	2480.09
671.99	2547.67
672.18	2475.99
672.36	2627.54
672.55	2480.09
672.74	2539.48
672.92	2439.13
673.11	2533.34
673.29	2426.84
673.48	2568.15
673.67	2494.43
673.85	2602.97
674.04	2412.51
674.23	2498.52
674.41	2744.28
674.60	2363.36
674.79	2277.34
674.97	2297.82
675.16	2443.23
675.34	2650.07
675.53	2439.13
675.72	2426.84
675.90	2744.28
676.09	2410.46
676.28	2478.04
676.46	2277.34
676.65	2586.58
676.83	2353.12
677.02	2387.93
677.21	2488.28
677.39	2551.77
677.58	2414.56
677.77	2445.27
677.95	2375.64
678.14	2439.13
678.32	2545.63
678.51	2473.95
678.70	2664.41
678.88	2451.42
679.07	2428.89
679.25	2492.38
679.44	2471.90
679.63	2357.21
679.81	2510.81
680.00	2590.68
680.18	2574.30
680.37	2637.78
680.55	2572.25
680.74	2369.50
680.93	2277.34
681.11	2582.49
681.30	2502.62
681.48	2506.71
681.67	2449.37
681.85	2531.29
682.04	2351.07
682.23	2527.19
682.41	2445.27
682.60	2455.51
682.78	2424.80
682.97	2338.78
683.15	2435.03
683.34	2562.01
683.53	2639.83
683.71	2308.06
683.90	2580.44
684.08	2684.89
684.27	2488.28
684.45	2594.78
684.64	2596.82
684.82	2463.71
685.01	2605.02
685.19	2557.91
685.38	2594.78
685.57	2379.74
685.75	2412.51
685.94	2422.75
686.12	2359.26
686.31	2484.19
686.49	2676.70
686.68	2324.44
686.86	2617.30
687.05	2430.94
687.23	2711.51
687.42	2449.37
687.60	2324.44
687.79	2617.30
687.97	2760.66
688.16	2600.92
688.34	2633.69
688.53	2349.02
688.71	2602.97
688.90	2656.22
689.08	2408.41
689.27	2299.87
689.45	2648.02
689.64	2566.10
689.82	2482.14
690.01	2541.53
690.19	2496.47
690.38	2531.29
690.56	2602.97
690.75	2301.92
690.93	2461.66
691.12	2445.27
691.30	2498.52
691.49	2389.98
691.67	2451.42
691.86	2684.89
692.04	2435.03
692.23	2453.47
692.41	2447.32
692.60	2768.85
692.78	2684.89
692.97	2519.00
693.15	2510.81
693.34	2641.88
693.52	2578.39
693.71	2455.51
693.89	2432.99
694.08	2338.78
694.26	2566.10
694.44	2633.69
694.63	2635.74
694.81	2338.78
695.00	2432.99
695.18	2611.16
695.37	2764.76
695.55	2521.05
695.74	2418.65
695.92	2392.03
696.10	2598.87
696.29	2320.35
696.47	2416.60
696.66	2334.68
696.84	2349.02
697.03	2437.08
697.21	2742.23
697.40	3760.07
697.58	2533.34
697.76	2400.22
697.95	2367.45
698.13	2379.74
698.32	2400.22
698.50	2465.75
698.68	2478.04
698.87	2488.28
699.05	2629.59
699.24	2512.86
699.42	2365.40
699.61	2486.23
699.79	2559.96
699.97	2396.12
700.16	2351.07
700.34	2375.64
700.53	2490.33
700.71	2652.12
700.89	2637.78
701.08	2400.22
701.26	2459.61
701.45	2998.23
701.63	2422.75
701.81	2400.22
702.00	2398.17
702.18	2486.23
702.37	2449.37
702.55	2719.70
702.73	2711.51
702.92	2629.59
703.10	2852.82
703.28	2783.19
703.47	2486.23
703.65	2734.04
703.84	2607.06
704.02	2545.63
704.20	2760.66
704.39	2439.13
704.57	2453.47
704.75	2686.94
704.94	2519.00
705.12	2564.06
705.30	2883.54
705.49	5752.74
705.67	12681.02
705.86	20655.81
706.04	24217.23
706.22	27688.54
706.41	28198.48
706.59	22797.99
706.77	16359.17
706.96	13952.81
707.14	12349.25
707.32	10690.40
707.51	9326.45
707.69	7620.49
707.87	6107.04
708.06	4951.99
708.24	4034.50
708.42	3428.30
708.61	3327.95
708.79	2637.78
708.97	2660.31
709.16	2678.74
709.34	2514.91
709.52	2475.99
709.71	2396.12
709.89	2539.48
710.07	2377.69
710.26	2287.58
710.44	2496.47
710.62	2637.78
710.80	2486.23
710.99	2502.62
711.17	2600.92
711.35	2437.08
711.54	2473.95
711.72	2654.17
711.90	2529.24
712.09	2521.05
712.27	2443.23
712.45	2473.95
712.63	2396.12
712.82	2521.05
713.00	2519.00
713.18	2506.71
713.37	2506.71
713.55	2580.44
713.73	2564.06
713.91	2539.48
714.10	2461.66
714.28	2488.28
714.46	2537.43
714.65	2521.05
714.83	2430.94
715.01	2519.00
715.19	2574.30
715.38	2428.89
715.56	2459.61
715.74	2351.07
715.92	2430.94
716.11	2686.94
716.29	2310.11
716.47	2383.84
716.65	2402.27
716.84	2353.12
717.02	2564.06
717.20	2291.68
717.38	2355.16
717.57	2484.19
717.75	2412.51
717.93	2457.56
718.11	2578.39
718.30	2383.84
718.48	2529.24
718.66	2633.69
718.84	2611.16
719.03	2396.12
719.21	2383.84
719.39	2736.09
719.57	2541.53
719.75	2564.06
719.94	2398.17
720.12	2373.60
720.30	2402.27
720.48	2559.96
720.67	2387.93
720.85	2389.98
721.03	2461.66
721.21	2387.93
721.39	2586.58
721.58	2516.95
721.76	2432.99
721.94	2555.86
722.12	2557.91
722.30	2680.79
722.49	2330.59
722.67	2473.95
722.85	2451.42
723.03	2260.96
723.21	2389.98
723.40	2512.86
723.58	2535.39
723.76	2592.73
723.94	2623.45
724.12	2543.58
724.30	2674.65
724.49	2670.55
724.67	2471.90
724.85	2670.55
725.03	2416.60
725.21	2611.16
725.40	2645.98
725.58	2392.03
725.76	2672.60
725.94	2533.34
726.12	2412.51
726.30	2478.04
726.49	2422.75
726.67	2422.75
726.85	2562.01
727.03	3049.43
727.21	4270.01
727.39	5783.46
727.57	6741.91
727.76	7409.55
727.94	7550.86
728.12	7114.64
728.30	5611.43
728.48	5029.81
728.66	4589.50
728.84	4030.40
729.03	3551.18
729.21	3284.94
729.39	2961.36
729.57	2715.61
729.75	2645.98
729.93	2637.78
730.11	2490.33
730.30	2523.10
730.48	2494.43
730.66	2582.49
730.84	2484.19
731.02	2488.28
731.20	2519.00
731.38	2455.51
731.56	2332.64
731.74	2371.55
731.93	2562.01
732.11	2521.05
732.29	2441.18
732.47	2482.14
732.65	2478.04
732.83	2645.98
733.01	2510.81
733.19	2424.80
733.37	2490.33
733.56	2498.52
733.74	2383.84
733.92	2658.26
734.10	2408.41
734.28	2510.81
734.46	2363.36
734.64	2371.55
734.82	2441.18
735.00	2375.64
735.18	2365.40
735.36	2453.47
735.54	2510.81
735.73	2461.66
735.91	2488.28
736.09	2527.19
736.27	2467.80
736.45	2488.28
736.63	2332.64
736.81	2410.46
736.99	2574.30
737.17	2623.45
737.35	2422.75
737.53	2514.91
737.71	2461.66
737.89	2605.02
738.07	2320.35
738.25	2406.36
738.43	2355.16
738.61	2432.99
738.80	2344.92
738.98	2404.32
739.16	2490.33
739.34	2338.78
739.52	2672.60
739.70	2521.05
739.88	2639.83
740.06	2635.74
740.24	2281.44
740.42	2586.58
740.60	2246.62
740.78	2412.51
740.96	2301.92
741.14	2432.99
741.32	2486.23
741.50	2252.77
741.68	2752.47
741.86	2611.16
742.04	2422.75
742.22	2230.24
742.40	2465.75
742.58	2519.00
742.76	2473.95
742.94	2570.20
743.12	2297.82
743.30	2523.10
743.48	2576.34
743.66	2424.80
743.84	2482.14
744.02	2465.75
744.20	2473.95
744.38	2392.03
744.56	2324.44
744.74	2742.23
744.92	2533.34
745.10	2555.86
745.28	2559.96
745.46	2705.37
745.64	2457.56
745.82	2564.06
746.00	2418.65
746.18	2459.61
746.36	2414.56
746.54	2519.00
746.72	2441.18
746.90	2379.74
747.08	2674.65
747.26	2414.56
747.44	2525.15
747.62	2580.44
747.80	2498.52
747.98	2564.06
748.15	2449.37
748.33	2686.94
748.51	2486.23
748.69	2615.26
748.87	2363.36
749.05	2359.26
749.23	2459.61
749.41	2539.48
749.59	2435.03
749.77	2564.06
749.95	2451.42
750.13	2400.22
750.31	2492.38
750.49	2521.05
750.67	2504.67
750.85	2670.55
751.03	2465.75
751.20	2729.94
751.38	2414.56
751.56	2357.21
751.74	2547.67
751.92	2430.94
752.10	2342.88
752.28	2637.78
752.46	2361.31
752.64	2449.37
752.82	2478.04
753.00	2631.64
753.18	2375.64
753.35	2455.51
753.53	2467.80
753.71	2471.90
753.89	2502.62
754.07	2514.91
754.25	2621.40
754.43	2582.49
754.61	2371.55
754.79	2619.35
754.97	2398.17
755.14	2631.64
755.32	2326.49
755.50	2490.33
755.68	2482.14
755.86	2312.16
756.04	2314.20
756.22	2269.15
756.40	2576.34
756.57	2666.46
756.75	2432.99
756.93	2582.49
757.11	2541.53
757.29	2383.84
757.47	2379.74
757.65	2310.11
757.82	2285.53
758.00	2408.41
758.18	2424.80
758.36	2435.03
758.54	2775.00
758.72	2285.53
758.90	2557.91
759.07	2498.52
759.25	2402.27
759.43	2521.05
759.61	2426.84
759.79	3510.22
759.97	2602.97
760.15	2394.08
760.32	2357.21
760.50	2496.47
760.68	2645.98
760.86	2342.88
761.04	2674.65
761.22	2629.59
761.39	2392.03
761.57	2555.86
761.75	2416.60
761.93	2564.06
762.11	2432.99
762.28	2463.71
762.46	2357.21
762.64	2555.86
762.82	2398.17
763.00	2389.98
763.18	2600.92
763.35	2289.63
763.53	2588.63
763.71	2521.05
763.89	2467.80
764.07	2574.30
764.24	2506.71
764.42	2564.06
764.60	2416.60
764.78	2572.25
764.96	2539.48
765.13	2553.82
765.31	2457.56
765.49	2523.10
765.67	2269.15
765.84	2363.36
766.02	2389.98
766.20	2344.92
766.38	2482.14
766.56	2580.44
766.73	2539.48
766.91	2457.56
767.09	2539.48
767.27	2486.23
767.44	2359.26
767.62	2623.45
767.80	2545.63
767.98	2402.27
768.15	2418.65
768.33	2527.19
768.51	2578.39
768.69	2543.58
768.87	2506.71
769.04	2521.05
769.22	2793.43
769.40	2559.96
769.58	2734.04
769.75	2494.43
769.93	2656.22
770.11	2467.80
770.28	2383.84
770.46	2559.96
770.64	2482.14
770.82	2398.17
770.99	2418.65
771.17	2564.06
771.35	2408.41
771.53	2455.51
771.70	2394.08
771.88	2508.76
772.06	2521.05
772.23	2383.84
772.41	2533.34
772.59	2437.08
772.77	2486.23
772.94	2439.13
773.12	2445.27
773.30	2465.75
773.47	2586.58
773.65	2373.60
773.83	2637.78
774.01	2424.80
774.18	2250.72
774.36	2496.47
774.54	2303.96
774.71	2533.34
774.89	2275.29
775.07	2328.54
775.24	2416.60
775.42	2471.90
775.60	2670.55
775.78	2398.17
775.95	2279.39
776.13	2213.85
776.31	2260.96
776.48	2539.48
776.66	2596.82
776.84	2455.51
777.01	2406.36
777.19	2410.46
777.37	2412.51
777.54	2564.06
777.72	2783.19
777.90	2447.32
778.07	2371.55
778.25	2772.95
778.43	2627.54
778.60	2437.08
778.78	2432.99
778.96	2654.17
779.13	2324.44
779.31	2555.86
779.49	2410.46
779.66	2519.00
779.84	2396.12
780.01	2461.66
780.19	2303.96
780.37	2588.63
780.54	2564.06
780.72	2404.32
780.90	2406.36
781.07	2449.37
781.25	2414.56
781.43	2580.44
781.60	2404.32
781.78	2645.98
781.95	2543.58
782.13	2332.64
782.31	2338.78
782.48	2357.21
782.66	2426.84
782.83	2594.78
783.01	2570.20
783.19	2514.91
783.36	2371.55
783.54	2355.16
783.72	2498.52
783.89	2437.08
784.07	2514.91
784.24	2465.75
784.42	2750.42
784.60	2525.15
784.77	2516.95
784.95	2248.67
785.12	2400.22
785.30	2500.57
785.47	2457.56
785.65	2324.44
785.83	2408.41
786.00	2424.80
786.18	2568.15
786.35	2269.15
786.53	2340.83
786.71	2621.40
786.88	2541.53
787.06	2467.80
787.23	2432.99
787.41	2353.12
787.58	2457.56
787.76	2375.64
787.94	2449.37
788.11	2506.71
788.29	2392.03
788.46	2373.60
788.64	2322.40
788.81	2465.75
788.99	2387.93
789.16	2406.36
789.34	2459.61
789.52	2379.74
789.69	2453.47
789.87	2236.38
790.04	2387.93
790.22	2430.94
790.39	2725.85
790.57	2373.60
790.74	2336.73
790.92	2543.58
791.09	2289.63
791.27	2455.51
791.44	2578.39
791.62	2432.99
791.79	2535.39
791.97	2525.15
792.15	2699.22
792.32	2605.02
792.50	2568.15
792.67	2686.94
792.85	2547.67
793.02	2457.56
793.20	2514.91
793.37	2283.49
793.55	2451.42
793.72	2326.49
793.90	2559.96
794.07	2365.40
794.25	2293.72
794.42	2549.72
794.60	2389.98
794.77	2492.38
794.95	2521.05
795.12	2602.97
795.30	2402.27
795.47	2203.61
795.65	2756.57
795.82	2519.00
796.00	2418.65
796.17	2502.62
796.34	2387.93
796.52	2543.58
796.69	2559.96
796.87	2531.29
797.04	2508.76
797.22	2525.15
797.39	2557.91
797.57	2527.19
797.74	2535.39
797.92	2572.25
798.09	2359.26
798.27	2609.11
798.44	2437.08
798.62	2385.88
798.79	2508.76
798.96	2424.80
799.14	2408.41
799.31	2766.81
799.49	2453.47
799.66	2408.41
799.84	2494.43
800.01	2383.84
800.19	2523.10
800.36	2269.15
800.53	2486.23
800.71	2541.53
800.88	2625.50
801.06	2400.22
801.23	2375.64
801.41	2402.27
801.58	2408.41
801.75	2387.93
801.93	2545.63
802.10	2471.90
802.28	2519.00
802.45	2437.08
802.63	2500.57
802.80	2611.16
802.97	2463.71
803.15	2486.23
803.32	2426.84
803.50	2439.13
803.67	2357.21
803.84	2318.30
804.02	2516.95
804.19	2428.89
804.37	2238.43
804.54	2367.45
804.71	2406.36
804.89	2519.00
805.06	2383.84
805.24	2367.45
805.41	2355.16
805.58	2346.97
805.76	2731.99
805.93	2504.67
806.10	2605.02
806.28	2521.05
806.45	2418.65
806.63	2621.40
806.80	2504.67
806.97	2494.43
807.15	2543.58
807.32	2441.18
807.49	2414.56
807.67	2308.06
807.84	2570.20
808.01	2267.10
808.19	2658.26
808.36	2731.99
808.54	2439.13
808.71	2310.11
808.88	2484.19
809.06	2559.96
809.23	2627.54
809.40	2392.03
809.58	2463.71
809.75	2439.13
809.92	2340.83
810.10	2590.68
810.27	2478.04
810.44	2482.14
810.62	2611.16
810.79	2490.33
810.96	2463.71
811.14	2432.99
811.31	2502.62
811.48	2527.19
811.66	2441.18
811.83	2643.93
812.00	2525.15
812.18	2539.48
812.35	2680.79
812.52	2459.61
812.69	2420.70
812.87	2418.65
813.04	2418.65
813.21	2445.27
813.39	2408.41
813.56	2373.60
813.73	2568.15
813.91	2291.68
814.08	2506.71
814.25	2510.81
814.42	2291.68
814.60	2510.81
814.77	2471.90
814.94	2531.29
815.12	2473.95
815.29	2682.84
815.46	2430.94
815.63	2469.85
815.81	2428.89
815.98	2394.08
816.15	2435.03
816.33	2482.14
816.50	2449.37
816.67	2469.85
816.84	2379.74
817.02	2369.50
817.19	2377.69
817.36	2572.25
817.53	2564.06
817.71	2392.03
817.88	2457.56
818.05	2461.66
818.22	2539.48
818.40	2668.50
818.57	2428.89
818.74	2523.10
818.91	2420.70
819.09	2521.05
819.26	2572.25
819.43	2408.41
819.60	2435.03
819.78	2523.10
819.95	2543.58
820.12	2332.64
820.29	2639.83
820.47	2613.21
820.64	2389.98
820.81	2375.64
820.98	2461.66
821.15	2373.60
821.33	2504.67
821.50	2349.02
821.67	2600.92
821.84	2400.22
822.02	2512.86
822.19	2537.43
822.36	2381.79
822.53	2441.18
822.70	2387.93
822.88	2508.76
823.05	2678.74
823.22	2475.99
823.39	2543.58
823.56	2469.85
823.74	2717.65
823.91	2357.21
824.08	2273.25
824.25	2320.35
824.42	2686.94
824.60	2226.14
824.77	2478.04
824.94	2441.18
825.11	2566.10
825.28	2301.92
825.45	2514.91
825.63	2547.67
825.80	2375.64
825.97	2451.42
826.14	2426.84
826.31	2217.95
826.48	2592.73
826.66	2461.66
826.83	2334.68
827.00	2412.51
827.17	2443.23
827.34	2469.85
827.51	2447.32
827.69	2404.32
827.86	2301.92
828.03	2449.37
828.20	2547.67
828.37	2383.84
828.54	2480.09
828.71	2344.92
828.89	2617.30
829.06	2439.13
829.23	2643.93
829.40	2387.93
829.57	2369.50
829.74	2557.91
829.91	2324.44
830.09	2318.30
830.26	2572.25
830.43	2586.58
830.60	2394.08
830.77	2514.91
830.94	2555.86
831.11	2523.10
831.28	2459.61
831.46	2549.72
831.63	2387.93
831.80	2645.98
831.97	2389.98
832.14	2357.21
832.31	2568.15
832.48	2445.27
832.65	2584.54
832.82	2387.93
832.99	2543.58
833.17	2316.25
833.34	2674.65
833.51	2408.41
833.68	2220.00
833.85	2586.58
834.02	2387.93
834.19	2385.88
834.36	2342.88
834.53	2441.18
834.70	2605.02
834.87	2482.14
835.04	2361.31
835.22	2340.83
835.39	2410.46
835.56	2275.29
835.73	2449.37
835.90	2525.15
836.07	2412.51
836.24	2478.04
836.41	2336.73
836.58	2365.40
836.75	2633.69
836.92	2414.56
837.09	2318.30
837.26	2568.15
837.43	2551.77
837.60	2418.65
837.77	2351.07
837.94	2617.30
838.12	2650.07
838.29	2408.41
838.46	2279.39
838.63	2332.64
838.80	2625.50
838.97	2486.23
839.14	2381.79
839.31	2506.71
839.48	2627.54
839.65	2308.06
839.82	2500.57
839.99	2447.32
840.16	2545.63
840.33	2375.64
840.50	2344.92
840.67	2392.03
840.84	2174.94
841.01	2398.17
841.18	2381.79
841.35	2439.13
841.52	2623.45
841.69	2605.02
841.86	2396.12
842.03	2514.91
842.20	2547.67
842.37	2439.13
842.54	2359.26
842.71	2428.89
842.88	2351.07
843.05	2428.89
843.22	2394.08
843.39	2539.48
843.56	2430.94
843.73	2424.80
843.90	2392.03
844.07	2523.10
844.24	2613.21
844.41	2439.13
844.58	2392.03
844.75	2508.76
844.92	2613.21
845.09	2447.32
845.26	2328.54
845.43	2539.48
845.60	2418.65
845.77	2502.62
845.94	2480.09
846.10	2611.16
846.27	2310.11
846.44	2256.86
846.61	2318.30
846.78	2488.28
846.95	2625.50
847.12	2377.69
847.29	2398.17
847.46	2392.03
847.63	2473.95
847.80	2273.25
847.97	2406.36
848.14	2758.61
848.31	2486.23
848.48	2277.34
848.65	2455.51
848.82	2394.08
848.98	2770.90
849.15	2502.62
849.32	2504.67
849.49	2668.50
849.66	2441.18
849.83	2351.07
850.00	2392.03
850.17	2625.50
850.34	2471.90
850.51	2316.25
850.68	2365.40
850.85	2758.61
851.01	2512.86
851.18	2338.78
851.35	2383.84
851.52	2508.76
851.69	2574.30
851.86	2357.21
852.03	2332.64
852.20	2631.64
852.37	2504.67
852.53	2299.87
852.70	2361.31
852.87	2525.15
853.04	2562.01
853.21	2342.88
853.38	2514.91
853.55	2572.25
853.72	2658.26
853.89	2293.72
854.05	2383.84
854.22	2400.22
854.39	2435.03
854.56	2435.03
854.73	2525.15
854.90	2369.50
855.07	2373.60
855.23	2355.16
855.40	2310.11
855.57	2449.37
855.74	2254.81
855.91	2602.97
856.08	2330.59
856.25	2267.10
856.41	2451.42
856.58	2342.88
856.75	2465.75
856.92	2398.17
857.09	2600.92
857.26	2332.64
857.42	2330.59
857.59	2537.43
857.76	2461.66
857.93	2336.73
858.10	2424.80
858.27	2349.02
858.43	2494.43
858.60	2318.30
858.77	2246.62
858.94	2449.37
859.11	2580.44
859.27	2375.64
859.44	2285.53
859.61	2738.13
859.78	2482.14
859.95	2342.88
860.12	2398.17
860.28	2756.57
860.45	2721.75
860.62	2396.12
860.79	2457.56
860.95	2514.91
861.12	2402.27
861.29	2330.59
861.46	2318.30
861.63	2451.42
861.79	2510.81
861.96	2338.78
862.13	2392.03
862.30	2670.55
862.47	2428.89
862.63	2297.82
862.80	2467.80
862.97	2545.63
863.14	2498.52
863.30	2463.71
863.47	2277.34
863.64	2621.40
863.81	2414.56
863.97	2289.63
864.14	2375.64
864.31	2422.75
864.48	2500.57
864.65	2367.45
864.81	2508.76
864.98	2578.39
865.15	2516.95
865.32	2424.80
865.48	2527.19
865.65	2678.74
865.82	2406.36
865.98	2451.42
866.15	2439.13
866.32	2533.34
866.49	2342.88
866.65	2529.24
866.82	2291.68
866.99	2523.10
867.16	2471.90
867.32	2326.49
867.49	2301.92
867.66	2379.74
867.83	2404.32
867.99	2299.87
868.16	2490.33
868.33	2357.21
868.49	2449.37
868.66	2326.49
868.83	2498.52
868.99	2525.15
869.16	2504.67
869.33	2430.94
869.50	2475.99
869.66	2482.14
869.83	2498.52
870.00	2367.45
870.16	2449.37
870.33	2428.89
870.50	2578.39
870.66	2357.21
870.83	2455.51
871.00	2488.28
871.17	2533.34
871.33	2375.64
871.50	2308.06
871.67	2404.32
871.83	2291.68
872.00	2543.58
872.17	2367.45
872.33	2777.05
872.50	2543.58
872.67	2363.36
872.83	2326.49
873.00	2572.25
873.17	2455.51
873.33	2451.42
873.50	2457.56
873.67	2396.12
873.83	2443.23
874.00	2342.88
874.16	2496.47
874.33	2500.57
874.50	2301.92
874.66	2432.99
874.83	2445.27
875.00	2693.08
875.16	2607.06
875.33	2471.90
875.50	2269.15
875.66	2412.51
875.83	2424.80
875.99	2465.75
876.16	2420.70
876.33	2299.87
876.49	2373.60
876.66	2441.18
876.83	2383.84
876.99	2351.07
877.16	2453.47
877.32	2334.68
877.49	2473.95
877.66	2523.10
877.82	2627.54
877.99	2463.71
878.15	2547.67
878.32	2605.02
878.49	2435.03
878.65	2406.36
878.82	2586.58
878.98	2422.75
879.15	2555.86
879.32	2461.66
879.48	2467.80
879.65	2463.71
879.81	2375.64
879.98	2383.84
880.15	2439.13
880.31	2521.05
880.48	2312.16
880.64	2527.19
880.81	2504.67
880.97	2645.98
881.14	2516.95
881.31	2355.16
881.47	2658.26
881.64	2484.19
881.80	2324.44
881.97	2531.29
882.13	2478.04
882.30	2316.25
882.47	2428.89
882.63	2367.45
882.80	2373.60
882.96	2408.41
883.13	2627.54
883.29	2459.61
883.46	2387.93
883.62	2678.74
883.79	2496.47
883.95	2512.86
884.12	2381.79
884.29	2555.86
884.45	2412.51
884.62	2435.03
884.78	2310.11
884.95	2660.31
885.11	2342.88
885.28	2486.23
885.44	2363.36
885.61	2547.67
885.77	2598.87
885.94	2443.23
886.10	2502.62
886.27	2424.80
886.43	2662.36
886.60	2586.58
886.76	2420.70
886.93	2381.79
887.09	2449.37
887.26	2283.49
887.42	2392.03
887.59	2590.68
887.75	2631.64
887.92	2566.10
888.08	2463.71
888.25	2672.60
888.41	2596.82
888.58	2420.70
888.74	2371.55
888.91	2482.14
>>>>>End Processed Spectral Data<<<<<
