SpectraSuite Data File
++++++++++++++++++++++++++++++++++++
Date: Thu May 05 14:41:24 CEST 2016
User: root
Dark Spectrum Present: No
Reference Spectrum Present: No
Number of Sampled Component Spectra: 1
Spectrometers: USB4C02835
Integration Time (usec): 100000 (USB4C02835)
Spectra Averaged: 1 (USB4C02835)
Boxcar Smoothing: 0 (USB4C02835)
Correct for Electrical Dark: No (USB4C02835)
Strobe/Lamp Enabled: No (USB4C02835)
Correct for Detector Non-linearity: No (USB4C02835)
Correct for Stray Light: No (USB4C02835)
Number of Pixels in Processed Spectrum: 3648
>>>>>Begin Processed Spectral Data<<<<<
177.47	1912.80
177.69	1912.80
177.91	1912.80
178.13	2007.01
178.36	1933.28
178.58	2359.26
178.80	2494.43
179.02	2346.97
179.24	2289.63
179.46	2285.53
179.68	2379.74
179.90	2539.48
180.13	2473.95
180.35	2334.68
180.57	2334.68
180.79	2512.86
181.01	2531.29
181.23	2357.21
181.45	2443.23
181.67	2535.39
181.90	2514.91
182.12	2416.60
182.34	2197.47
182.56	2564.06
182.78	2529.24
183.00	2322.40
183.22	2359.26
183.44	2244.57
183.66	2801.62
183.89	2449.37
184.11	2301.92
184.33	2521.05
184.55	2643.93
184.77	2398.17
184.99	2330.59
185.21	2490.33
185.43	2801.62
185.65	2310.11
185.87	2330.59
186.10	2674.65
186.32	2707.41
186.54	2412.51
186.76	2404.32
186.98	2613.21
187.20	2533.34
187.42	2267.10
187.64	2334.68
187.86	2531.29
188.08	2617.30
188.30	2295.77
188.52	2361.31
188.75	2660.31
188.97	2637.78
189.19	2318.30
189.41	2420.70
189.63	2545.63
189.85	2480.09
190.07	2265.05
190.29	2230.24
190.51	2531.29
190.73	2322.40
190.95	2451.42
191.17	2375.64
191.39	2320.35
191.61	2484.19
191.84	2273.25
192.06	2428.89
192.28	2334.68
192.50	2873.30
192.72	2424.80
192.94	2400.22
193.16	2668.50
193.38	2590.68
193.60	2314.20
193.82	2338.78
194.04	2572.25
194.26	2453.47
194.48	2346.97
194.70	2359.26
194.92	2359.26
195.14	2600.92
195.36	2361.31
195.58	2394.08
195.80	2385.88
196.02	2463.71
196.24	2344.92
196.46	2416.60
196.69	2465.75
196.91	2834.39
197.13	2412.51
197.35	2273.25
197.57	2666.46
197.79	2457.56
198.01	2453.47
198.23	2463.71
198.45	2592.73
198.67	2363.36
198.89	2344.92
199.11	2465.75
199.33	2439.13
199.55	2258.91
199.77	2322.40
199.99	2506.71
200.21	2392.03
200.43	2439.13
200.65	2269.15
200.87	2228.19
201.09	2457.56
201.31	2394.08
201.53	2463.71
201.75	2435.03
201.97	2559.96
202.19	2473.95
202.41	2371.55
202.63	2490.33
202.85	2566.10
203.07	2531.29
203.29	2381.79
203.51	2324.44
203.73	2400.22
203.95	2815.96
204.17	2367.45
204.39	2371.55
204.61	2498.52
204.83	2467.80
205.05	2514.91
205.27	2422.75
205.49	2822.10
205.71	2435.03
205.93	2252.77
206.15	2273.25
206.37	2506.71
206.59	2459.61
206.81	2281.44
207.03	2222.05
207.25	2351.07
207.47	2531.29
207.69	2443.23
207.91	2570.20
208.13	2662.36
208.34	2432.99
208.56	2322.40
208.78	2398.17
209.00	2463.71
209.22	2359.26
209.44	2488.28
209.66	2334.68
209.88	2480.09
210.10	2389.98
210.32	2326.49
210.54	2484.19
210.76	2439.13
210.98	2543.58
211.20	2189.28
211.42	2406.36
211.64	2578.39
211.86	2504.67
212.08	2400.22
212.30	2400.22
212.52	2424.80
212.74	2551.77
212.96	2392.03
213.17	2439.13
213.39	2607.06
213.61	2652.12
213.83	2314.20
214.05	2400.22
214.27	2670.55
214.49	2398.17
214.71	2291.68
214.93	2473.95
215.15	2557.91
215.37	2596.82
215.59	2273.25
215.81	2426.84
216.03	2613.21
216.24	2498.52
216.46	2293.72
216.68	2428.89
216.90	2547.67
217.12	2617.30
217.34	2320.35
217.56	2394.08
217.78	2549.72
218.00	2531.29
218.22	2449.37
218.44	2400.22
218.66	2465.75
218.87	2748.37
219.09	2299.87
219.31	2402.27
219.53	2570.20
219.75	2414.56
219.97	2303.96
220.19	2363.36
220.41	2492.38
220.63	2662.36
220.85	2375.64
221.06	2424.80
221.28	2588.63
221.50	2547.67
221.72	2389.98
221.94	2271.20
222.16	2512.86
222.38	2584.54
222.60	2373.60
222.82	2404.32
223.03	2611.16
223.25	2379.74
223.47	2308.06
223.69	2551.77
223.91	2611.16
224.13	2500.57
224.35	2277.34
224.57	2502.62
224.78	2576.34
225.00	2357.21
225.22	2457.56
225.44	2326.49
225.66	2611.16
225.88	2473.95
226.10	2482.14
226.32	2414.56
226.53	2605.02
226.75	2392.03
226.97	2332.64
227.19	2396.12
227.41	2420.70
227.63	2363.36
227.85	2109.41
228.06	2392.03
228.28	2543.58
228.50	2629.59
228.72	2246.62
228.94	2369.50
229.16	2420.70
229.37	2357.21
229.59	2283.49
229.81	2469.85
230.03	2443.23
230.25	2334.68
230.47	2220.00
230.69	2308.06
230.90	2553.82
231.12	2451.42
231.34	2369.50
231.56	2412.51
231.78	2322.40
232.00	2465.75
232.21	2379.74
232.43	2316.25
232.65	2279.39
232.87	2539.48
233.09	2301.92
233.30	2308.06
233.52	2607.06
233.74	2439.13
233.96	2383.84
234.18	2408.41
234.40	2465.75
234.61	2723.80
234.83	2250.72
235.05	2246.62
235.27	2768.85
235.49	2572.25
235.70	2308.06
235.92	2416.60
236.14	2570.20
236.36	2807.77
236.58	2234.33
236.79	2389.98
237.01	2506.71
237.23	2519.00
237.45	2541.53
237.67	2408.41
237.88	2592.73
238.10	2699.22
238.32	2263.01
238.54	2365.40
238.76	2496.47
238.97	2396.12
239.19	2299.87
239.41	2437.08
239.63	2654.17
239.85	2367.45
240.06	2314.20
240.28	2285.53
240.50	2570.20
240.72	2420.70
240.93	2357.21
241.15	2453.47
241.37	2514.91
241.59	2596.82
241.81	2301.92
242.02	2342.88
242.24	2555.86
242.46	2613.21
242.68	2260.96
242.89	2385.88
243.11	2559.96
243.33	2467.80
243.55	2330.59
243.76	2410.46
243.98	2367.45
244.20	2482.14
244.42	2340.83
244.64	2351.07
244.85	2285.53
245.07	2330.59
245.29	2389.98
245.51	2392.03
245.72	2533.34
245.94	2623.45
246.16	2435.03
246.38	2424.80
246.59	2365.40
246.81	2318.30
247.03	2334.68
247.24	2242.53
247.46	2367.45
247.68	2488.28
247.90	2293.72
248.11	2308.06
248.33	2545.63
248.55	2523.10
248.77	2490.33
248.98	2398.17
249.20	2645.98
249.42	2420.70
249.64	2420.70
249.85	2367.45
250.07	2449.37
250.29	2527.19
250.50	2471.90
250.72	2308.06
250.94	2506.71
251.16	2658.26
251.37	2400.22
251.59	2402.27
251.81	2570.20
252.02	2660.31
252.24	2285.53
252.46	2461.66
252.68	2367.45
252.89	2396.12
253.11	2252.77
253.33	2504.67
253.54	2578.39
253.76	2340.83
253.98	2330.59
254.20	2338.78
254.41	2365.40
254.63	2523.10
254.85	2260.96
255.06	2412.51
255.28	2478.04
255.50	2414.56
255.71	2260.96
255.93	2297.82
256.15	2422.75
256.36	2527.19
256.58	2308.06
256.80	2279.39
257.02	2435.03
257.23	2432.99
257.45	2383.84
257.67	2402.27
257.88	2416.60
258.10	2531.29
258.32	2269.15
258.53	2389.98
258.75	2643.93
258.97	2316.25
259.18	2244.57
259.40	2287.58
259.62	2727.89
259.83	2617.30
260.05	2416.60
260.27	2891.73
260.48	2645.98
260.70	2377.69
260.92	2275.29
261.13	2322.40
261.35	2480.09
261.57	2437.08
261.78	2217.95
262.00	2279.39
262.22	2584.54
262.43	2353.12
262.65	2404.32
262.86	2351.07
263.08	2731.99
263.30	2412.51
263.51	2197.47
263.73	2318.30
263.95	2693.08
264.16	2344.92
264.38	2226.14
264.60	2344.92
264.81	2432.99
265.03	2543.58
265.25	2480.09
265.46	2330.59
265.68	2691.03
265.89	2525.15
266.11	2275.29
266.33	2389.98
266.54	2602.97
266.76	2568.15
266.98	2516.95
267.19	2437.08
267.41	2600.92
267.62	2461.66
267.84	2181.09
268.06	2402.27
268.27	2572.25
268.49	2588.63
268.70	2488.28
268.92	2330.59
269.14	2316.25
269.35	2312.16
269.57	2351.07
269.79	2441.18
270.00	2359.26
270.22	2605.02
270.43	2289.63
270.65	2185.18
270.87	2471.90
271.08	2623.45
271.30	2465.75
271.51	2371.55
271.73	2570.20
271.95	2617.30
272.16	2377.69
272.38	2461.66
272.59	2445.27
272.81	2500.57
273.02	2326.49
273.24	2445.27
273.46	2613.21
273.67	2361.31
273.89	2265.05
274.10	2332.64
274.32	2613.21
274.54	2500.57
274.75	2500.57
274.97	2420.70
275.18	2519.00
275.40	2600.92
275.61	2297.82
275.83	2539.48
276.05	2365.40
276.26	2469.85
276.48	2447.32
276.69	2473.95
276.91	2424.80
277.12	2670.55
277.34	2529.24
277.55	2475.99
277.77	2510.81
277.99	2449.37
278.20	2330.59
278.42	2310.11
278.63	2396.12
278.85	2355.16
279.06	2269.15
279.28	2482.14
279.49	2613.21
279.71	2553.82
279.93	2377.69
280.14	2353.12
280.36	2424.80
280.57	2525.15
280.79	2588.63
281.00	2379.74
281.22	2351.07
281.43	2621.40
281.65	2156.51
281.86	2404.32
282.08	2537.43
282.29	2678.74
282.51	2330.59
282.73	2244.57
282.94	2387.93
283.16	2588.63
283.37	2613.21
283.59	2377.69
283.80	2463.71
284.02	2449.37
284.23	2521.05
284.45	2379.74
284.66	2404.32
284.88	2373.60
285.09	2379.74
285.31	2551.77
285.52	2490.33
285.74	2326.49
285.95	2551.77
286.17	2455.51
286.38	2629.59
286.60	2340.83
286.81	2428.89
287.03	2353.12
287.24	2514.91
287.46	2592.73
287.67	2367.45
287.89	2613.21
288.10	2471.90
288.32	2457.56
288.53	2553.82
288.75	2445.27
288.96	2568.15
289.18	2394.08
289.39	2422.75
289.61	2469.85
289.82	2783.19
290.04	2695.13
290.25	2379.74
290.47	2428.89
290.68	2506.71
290.90	2523.10
291.11	2363.36
291.33	2533.34
291.54	2441.18
291.76	2293.72
291.97	2521.05
292.18	2471.90
292.40	2424.80
292.61	2451.42
292.83	2652.12
293.04	2514.91
293.26	2494.43
293.47	2441.18
293.69	2320.35
293.90	2361.31
294.12	2680.79
294.33	2486.23
294.55	2465.75
294.76	2467.80
294.97	2572.25
295.19	2752.47
295.40	2377.69
295.62	2441.18
295.83	2596.82
296.05	2455.51
296.26	2510.81
296.48	2328.54
296.69	2422.75
296.90	2430.94
297.12	2521.05
297.33	2519.00
297.55	2478.04
297.76	2547.67
297.98	2535.39
298.19	2467.80
298.41	2502.62
298.62	2289.63
298.83	2602.97
299.05	2488.28
299.26	2408.41
299.48	2349.02
299.69	2455.51
299.90	2381.79
300.12	2400.22
300.33	2607.06
300.55	2428.89
300.76	2426.84
300.98	2297.82
301.19	2508.76
301.40	2424.80
301.62	2408.41
301.83	2559.96
302.05	2496.47
302.26	2459.61
302.47	2449.37
302.69	2379.74
302.90	2514.91
303.12	2254.81
303.33	2482.14
303.54	2738.13
303.76	2435.03
303.97	2457.56
304.19	2578.39
304.40	2351.07
304.61	2521.05
304.83	2605.02
305.04	2482.14
305.26	2527.19
305.47	2449.37
305.68	2414.56
305.90	2349.02
306.11	2619.35
306.33	2420.70
306.54	2365.40
306.75	2273.25
306.97	2322.40
307.18	2349.02
307.39	2392.03
307.61	2519.00
307.82	2471.90
308.04	2533.34
308.25	2283.49
308.46	2512.86
308.68	2478.04
308.89	2447.32
309.10	2482.14
309.32	2451.42
309.53	2496.47
309.74	2598.87
309.96	2428.89
310.17	2580.44
310.39	2463.71
310.60	2576.34
310.81	2351.07
311.03	2314.20
311.24	2547.67
311.45	2441.18
311.67	2578.39
311.88	2471.90
312.09	2414.56
312.31	2385.88
312.52	2457.56
312.73	2387.93
312.95	2437.08
313.16	2428.89
313.37	2580.44
313.59	2498.52
313.80	2545.63
314.01	2684.89
314.23	2500.57
314.44	2342.88
314.65	2258.91
314.87	2437.08
315.08	2430.94
315.29	2430.94
315.51	2432.99
315.72	2306.01
315.93	2531.29
316.15	2447.32
316.36	2443.23
316.57	2449.37
316.79	2494.43
317.00	2398.17
317.21	2564.06
317.43	2392.03
317.64	2480.09
317.85	2371.55
318.07	2435.03
318.28	2412.51
318.49	2551.77
318.70	2731.99
318.92	2633.69
319.13	2650.07
319.34	2695.13
319.56	2504.67
319.77	2590.68
319.98	2709.46
320.20	2555.86
320.41	2459.61
320.62	2584.54
320.83	2375.64
321.05	2586.58
321.26	2441.18
321.47	2521.05
321.69	2611.16
321.90	2342.88
322.11	2371.55
322.32	2469.85
322.54	2707.41
322.75	2437.08
322.96	2803.67
323.18	2367.45
323.39	2256.86
323.60	2383.84
323.81	2553.82
324.03	2359.26
324.24	2480.09
324.45	2512.86
324.66	2404.32
324.88	2670.55
325.09	2662.36
325.30	2457.56
325.52	2463.71
325.73	2510.81
325.94	2301.92
326.15	2308.06
326.37	2412.51
326.58	2590.68
326.79	2742.23
327.00	2340.83
327.22	2383.84
327.43	2465.75
327.64	2308.06
327.85	2473.95
328.07	2414.56
328.28	2721.75
328.49	2506.71
328.70	2426.84
328.92	2437.08
329.13	2535.39
329.34	2514.91
329.55	2621.40
329.76	2510.81
329.98	2365.40
330.19	2695.13
330.40	2551.77
330.61	2521.05
330.83	2629.59
331.04	2306.01
331.25	2375.64
331.46	2441.18
331.68	2367.45
331.89	2584.54
332.10	2443.23
332.31	2246.62
332.52	2473.95
332.74	2621.40
332.95	2310.11
333.16	2367.45
333.37	2596.82
333.58	2414.56
333.80	2418.65
334.01	2303.96
334.22	2562.01
334.43	2537.43
334.64	2389.98
334.86	2326.49
335.07	2430.94
335.28	2600.92
335.49	2228.19
335.70	2527.19
335.92	2594.78
336.13	2764.76
336.34	2439.13
336.55	2512.86
336.76	2549.72
336.98	2250.72
337.19	2480.09
337.40	2613.21
337.61	2746.33
337.82	2392.03
338.04	2547.67
338.25	2301.92
338.46	2396.12
338.67	2455.51
338.88	2340.83
339.09	2355.16
339.31	2455.51
339.52	2357.21
339.73	2316.25
339.94	2322.40
340.15	2559.96
340.36	2371.55
340.58	2463.71
340.79	2324.44
341.00	2615.26
341.21	2236.38
341.42	2555.86
341.63	2414.56
341.85	2686.94
342.06	2527.19
342.27	2342.88
342.48	2572.25
342.69	2281.44
342.90	2478.04
343.12	2594.78
343.33	2383.84
343.54	2586.58
343.75	2633.69
343.96	2437.08
344.17	2287.58
344.38	2549.72
344.60	2416.60
344.81	2344.92
345.02	2447.32
345.23	2613.21
345.44	2818.00
345.65	2492.38
345.86	2447.32
346.07	2529.24
346.29	2500.57
346.50	2420.70
346.71	2508.76
346.92	2701.27
347.13	2703.32
347.34	2475.99
347.55	2316.25
347.76	2543.58
347.98	2338.78
348.19	2478.04
348.40	2596.82
348.61	2437.08
348.82	2711.51
349.03	2490.33
349.24	2359.26
349.45	2719.70
349.66	2252.77
349.88	2410.46
350.09	2369.50
350.30	2684.89
350.51	2666.46
350.72	2490.33
350.93	2457.56
351.14	2402.27
351.35	2533.34
351.56	2430.94
351.77	2465.75
351.99	2570.20
352.20	2670.55
352.41	2586.58
352.62	2252.77
352.83	2482.14
353.04	2539.48
353.25	2396.12
353.46	2467.80
353.67	2639.83
353.88	2318.30
354.09	2392.03
354.30	2430.94
354.52	2625.50
354.73	2512.86
354.94	2299.87
355.15	2453.47
355.36	2760.66
355.57	2445.27
355.78	2459.61
355.99	2346.97
356.20	2482.14
356.41	2613.21
356.62	2527.19
356.83	2459.61
357.04	2662.36
357.25	2254.81
357.46	2379.74
357.68	2222.05
357.89	2357.21
358.10	2461.66
358.31	2486.23
358.52	2428.89
358.73	2357.21
358.94	2340.83
359.15	2400.22
359.36	2447.32
359.57	2469.85
359.78	2482.14
359.99	2426.84
360.20	2336.73
360.41	2447.32
360.62	2531.29
360.83	2506.71
361.04	2373.60
361.25	2490.33
361.46	2629.59
361.67	2492.38
361.88	2408.41
362.09	2570.20
362.30	2510.81
362.51	2367.45
362.72	2478.04
362.93	2555.86
363.14	2492.38
363.35	2496.47
363.56	2297.82
363.78	2629.59
363.99	2539.48
364.20	2430.94
364.41	2414.56
364.62	2719.70
364.83	2582.49
365.04	2461.66
365.25	2469.85
365.46	2719.70
365.67	2402.27
365.88	2473.95
366.09	2406.36
366.30	2400.22
366.51	2543.58
366.72	2340.83
366.93	2432.99
367.14	2510.81
367.35	2695.13
367.56	2406.36
367.77	2512.86
367.98	2541.53
368.18	2541.53
368.39	2463.71
368.60	2340.83
368.81	2564.06
369.02	2486.23
369.23	2435.03
369.44	2291.68
369.65	2478.04
369.86	2508.76
370.07	2506.71
370.28	2365.40
370.49	2584.54
370.70	2633.69
370.91	2363.36
371.12	2340.83
371.33	2619.35
371.54	2394.08
371.75	2658.26
371.96	2244.57
372.17	2555.86
372.38	2426.84
372.59	2535.39
372.80	2338.78
373.01	2467.80
373.22	2475.99
373.43	2475.99
373.64	2275.29
373.85	2582.49
374.06	2701.27
374.26	2574.30
374.47	2490.33
374.68	2633.69
374.89	2478.04
375.10	2404.32
375.31	2500.57
375.52	2484.19
375.73	2490.33
375.94	2314.20
376.15	2494.43
376.36	2389.98
376.57	2400.22
376.78	2480.09
376.99	2416.60
377.20	2635.74
377.40	2379.74
377.61	2613.21
377.82	2338.78
378.03	2625.50
378.24	2486.23
378.45	2396.12
378.66	2463.71
378.87	2291.68
379.08	2330.59
379.29	2392.03
379.50	2586.58
379.71	2432.99
379.91	2516.95
380.12	2375.64
380.33	2457.56
380.54	2430.94
380.75	2551.77
380.96	2447.32
381.17	2541.53
381.38	2422.75
381.59	2514.91
381.80	2463.71
382.00	2592.73
382.21	2564.06
382.42	2688.98
382.63	2760.66
382.84	2484.19
383.05	2621.40
383.26	2744.28
383.47	2480.09
383.68	2416.60
383.88	2566.10
384.09	2494.43
384.30	2643.93
384.51	2449.37
384.72	2340.83
384.93	2291.68
385.14	2469.85
385.35	2566.10
385.55	2326.49
385.76	2670.55
385.97	2422.75
386.18	2326.49
386.39	2377.69
386.60	2355.16
386.81	2389.98
387.02	2412.51
387.22	2355.16
387.43	2602.97
387.64	2547.67
387.85	2648.02
388.06	2654.17
388.27	4063.17
388.48	8261.51
388.68	12046.15
388.89	14434.08
389.10	15970.06
389.31	14858.01
389.52	11792.20
389.73	10147.69
389.93	9039.73
390.14	8376.19
390.35	7536.52
390.56	6596.51
390.77	5607.34
390.98	4196.29
391.18	3422.16
391.39	3041.23
391.60	2615.26
391.81	2605.02
392.02	2369.50
392.23	2828.24
392.43	2512.86
392.64	2535.39
392.85	2467.80
393.06	2580.44
393.27	2502.62
393.47	2381.79
393.68	2537.43
393.89	2559.96
394.10	2648.02
394.31	2418.65
394.52	2428.89
394.72	2455.51
394.93	2719.70
395.14	2293.72
395.35	2480.09
395.56	2449.37
395.76	2416.60
395.97	2426.84
396.18	2502.62
396.39	2645.98
396.60	3063.76
396.80	2688.98
397.01	2678.74
397.22	2611.16
397.43	2643.93
397.64	2387.93
397.84	2547.67
398.05	2734.04
398.26	2463.71
398.47	2613.21
398.67	2508.76
398.88	2412.51
399.09	2553.82
399.30	2383.84
399.51	2519.00
399.71	2334.68
399.92	2465.75
400.13	2502.62
400.34	2473.95
400.54	2494.43
400.75	2639.83
400.96	2504.67
401.17	2686.94
401.37	2502.62
401.58	2428.89
401.79	2480.09
402.00	2629.59
402.21	2885.59
402.41	2781.14
402.62	2824.15
402.83	2885.59
403.04	3016.66
403.24	3092.43
403.45	2592.73
403.66	2709.46
403.87	2719.70
404.07	2758.61
404.28	2719.70
404.49	2762.71
404.70	2572.25
404.90	2594.78
405.11	2455.51
405.32	2545.63
405.52	2353.12
405.73	2355.16
405.94	2375.64
406.15	2465.75
406.35	2643.93
406.56	2535.39
406.77	2445.27
406.98	2447.32
407.18	2400.22
407.39	2645.98
407.60	2420.70
407.80	2514.91
408.01	2465.75
408.22	2510.81
408.43	2326.49
408.63	2502.62
408.84	2594.78
409.05	2576.34
409.25	2432.99
409.46	2381.79
409.67	2392.03
409.88	2387.93
410.08	2516.95
410.29	2443.23
410.50	2557.91
410.70	2529.24
410.91	2387.93
411.12	2592.73
411.32	2400.22
411.53	2371.55
411.74	2498.52
411.95	2541.53
412.15	2695.13
412.36	2596.82
412.57	2594.78
412.77	2611.16
412.98	2578.39
413.19	2441.18
413.39	2504.67
413.60	2502.62
413.81	2670.55
414.01	2400.22
414.22	2510.81
414.43	2547.67
414.63	2400.22
414.84	2602.97
415.05	2383.84
415.25	2324.44
415.46	2607.06
415.67	2379.74
415.87	2498.52
416.08	2455.51
416.29	2445.27
416.49	2451.42
416.70	2441.18
416.91	2416.60
417.11	2572.25
417.32	2607.06
417.53	2557.91
417.73	2512.86
417.94	2445.27
418.15	2584.54
418.35	2506.71
418.56	2414.56
418.77	2793.43
418.97	2486.23
419.18	2461.66
419.38	2258.91
419.59	2473.95
419.80	2607.06
420.00	2422.75
420.21	2510.81
420.42	2652.12
420.62	2547.67
420.83	2465.75
421.04	2437.08
421.24	2475.99
421.45	2555.86
421.65	2447.32
421.86	2461.66
422.07	2566.10
422.27	2545.63
422.48	2469.85
422.69	2351.07
422.89	2461.66
423.10	2465.75
423.30	2379.74
423.51	2451.42
423.72	2572.25
423.92	2533.34
424.13	2273.25
424.33	2455.51
424.54	2537.43
424.75	2543.58
424.95	2619.35
425.16	2449.37
425.36	2486.23
425.57	2619.35
425.78	2592.73
425.98	2611.16
426.19	2414.56
426.39	2420.70
426.60	2445.27
426.81	2590.68
427.01	2516.95
427.22	2404.32
427.42	2310.11
427.63	2334.68
427.83	2633.69
428.04	2703.32
428.25	2568.15
428.45	2562.01
428.66	2637.78
428.86	2441.18
429.07	2453.47
429.28	2514.91
429.48	2547.67
429.69	2435.03
429.89	2572.25
430.10	2316.25
430.30	2570.20
430.51	2545.63
430.71	2334.68
430.92	2459.61
431.13	2465.75
431.33	2519.00
431.54	2424.80
431.74	2639.83
431.95	2756.57
432.15	2265.05
432.36	2469.85
432.56	2506.71
432.77	2736.09
432.98	2721.75
433.18	2494.43
433.39	2439.13
433.59	2475.99
433.80	2795.48
434.00	2693.08
434.21	2420.70
434.41	2441.18
434.62	2756.57
434.82	2365.40
435.03	2398.17
435.23	2512.86
435.44	2179.04
435.64	2404.32
435.85	2379.74
436.06	2539.48
436.26	2662.36
436.47	2353.12
436.67	2318.30
436.88	2414.56
437.08	2668.50
437.29	2662.36
437.49	2494.43
437.70	2539.48
437.90	2512.86
438.11	2643.93
438.31	2523.10
438.52	2746.33
438.72	2756.57
438.93	2791.38
439.13	2514.91
439.34	2711.51
439.54	2512.86
439.75	2449.37
439.95	2525.15
440.16	2424.80
440.36	2535.39
440.57	2521.05
440.77	2469.85
440.98	2449.37
441.18	2557.91
441.39	2457.56
441.59	2379.74
441.80	2787.29
442.00	2482.14
442.21	2582.49
442.41	2324.44
442.62	2617.30
442.82	2418.65
443.02	2422.75
443.23	2529.24
443.43	2457.56
443.64	2709.46
443.84	2373.60
444.05	2602.97
444.25	2471.90
444.46	2498.52
444.66	2426.84
444.87	2605.02
445.07	2260.96
445.28	2375.64
445.48	2666.46
445.69	2605.02
445.89	2906.07
446.09	2547.67
446.30	2731.99
446.50	3018.71
446.71	4695.99
446.91	5810.09
447.12	6559.64
447.32	7049.11
447.53	6543.26
447.73	5568.43
447.93	4732.86
448.14	4448.19
448.34	4372.41
448.55	3715.02
448.75	3807.17
448.96	3579.85
449.16	3252.17
449.36	3041.23
449.57	2768.85
449.77	2490.33
449.98	2457.56
450.18	2645.98
450.39	2459.61
450.59	2568.15
450.79	2549.72
451.00	2498.52
451.20	2531.29
451.41	2435.03
451.61	2592.73
451.81	2428.89
452.02	2408.41
452.22	2465.75
452.43	2428.89
452.63	2510.81
452.84	2537.43
453.04	2422.75
453.24	2523.10
453.45	2389.98
453.65	2469.85
453.86	2498.52
454.06	2553.82
454.26	2572.25
454.47	2367.45
454.67	2633.69
454.87	2635.74
455.08	2551.77
455.28	2691.03
455.49	2547.67
455.69	2437.08
455.89	2736.09
456.10	2555.86
456.30	2418.65
456.51	2496.47
456.71	2459.61
456.91	2502.62
457.12	2506.71
457.32	2504.67
457.52	2400.22
457.73	2519.00
457.93	2533.34
458.14	2473.95
458.34	2314.20
458.54	2412.51
458.75	2342.88
458.95	2566.10
459.15	2455.51
459.36	2480.09
459.56	2508.76
459.76	2781.14
459.97	2445.27
460.17	2447.32
460.37	2623.45
460.58	2463.71
460.78	2557.91
460.99	2387.93
461.19	2361.31
461.39	2410.46
461.60	2478.04
461.80	2539.48
462.00	2320.35
462.21	2437.08
462.41	2463.71
462.61	2338.78
462.82	2252.77
463.02	2580.44
463.22	2494.43
463.43	2596.82
463.63	2510.81
463.83	2703.32
464.04	2459.61
464.24	2494.43
464.44	2324.44
464.64	2498.52
464.85	2549.72
465.05	2521.05
465.25	2441.18
465.46	2396.12
465.66	2596.82
465.86	2510.81
466.07	2490.33
466.27	2414.56
466.47	2379.74
466.68	2330.59
466.88	2613.21
467.08	2502.62
467.29	2551.77
467.49	2482.14
467.69	2488.28
467.89	2551.77
468.10	2496.47
468.30	2480.09
468.50	2551.77
468.71	2686.94
468.91	2365.40
469.11	2600.92
469.31	2521.05
469.52	2428.89
469.72	2729.94
469.92	2688.98
470.13	2461.66
470.33	2504.67
470.53	2531.29
470.73	2965.46
470.94	3248.08
471.14	3481.55
471.34	3893.19
471.54	3719.11
471.75	3356.62
471.95	3088.34
472.15	3055.57
472.36	3028.95
472.56	2926.55
472.76	2996.18
472.96	2873.30
473.17	2752.47
473.37	2648.02
473.57	2504.67
473.77	2588.63
473.98	2549.72
474.18	2355.16
474.38	2922.45
474.58	2461.66
474.79	2371.55
474.99	2562.01
475.19	2643.93
475.39	2392.03
475.60	2457.56
475.80	2461.66
476.00	2547.67
476.20	2381.79
476.41	2645.98
476.61	2539.48
476.81	2691.03
477.01	2437.08
477.21	2691.03
477.42	2611.16
477.62	2383.84
477.82	2594.78
478.02	2469.85
478.23	2453.47
478.43	2357.21
478.63	2426.84
478.83	2473.95
479.03	2455.51
479.24	2660.31
479.44	2844.63
479.64	2371.55
479.84	2338.78
480.04	2469.85
480.25	2639.83
480.45	2357.21
480.65	2416.60
480.85	2643.93
481.06	2394.08
481.26	2447.32
481.46	2432.99
481.66	2510.81
481.86	2310.11
482.06	2619.35
482.27	2514.91
482.47	2416.60
482.67	2516.95
482.87	2396.12
483.07	2521.05
483.28	2430.94
483.48	2375.64
483.68	2455.51
483.88	2371.55
484.08	2232.29
484.29	2295.77
484.49	2455.51
484.69	2353.12
484.89	2613.21
485.09	2592.73
485.29	2572.25
485.50	2566.10
485.70	2461.66
485.90	2621.40
486.10	2555.86
486.30	2488.28
486.50	2598.87
486.71	2467.80
486.91	2506.71
487.11	2519.00
487.31	2334.68
487.51	2564.06
487.71	2357.21
487.91	2314.20
488.12	2416.60
488.32	2228.19
488.52	2373.60
488.72	2269.15
488.92	2580.44
489.12	2588.63
489.32	2613.21
489.53	2519.00
489.73	2353.12
489.93	2703.32
490.13	2400.22
490.33	2281.44
490.53	2494.43
490.73	2564.06
490.94	2353.12
491.14	2631.64
491.34	2621.40
491.54	2805.72
491.74	3440.59
491.94	3966.92
492.14	4347.84
492.34	4394.94
492.54	4046.79
492.75	3504.07
492.95	3424.20
493.15	3135.44
493.35	3264.46
493.55	3014.61
493.75	2932.69
493.95	2953.17
494.15	2691.03
494.35	2609.11
494.56	2586.58
494.76	2400.22
494.96	2519.00
495.16	2545.63
495.36	2535.39
495.56	2488.28
495.76	2473.95
495.96	2404.32
496.16	2365.40
496.36	2703.32
496.56	2512.86
496.77	2519.00
496.97	2465.75
497.17	2635.74
497.37	2355.16
497.57	2566.10
497.77	2480.09
497.97	2359.26
498.17	2516.95
498.37	2371.55
498.57	2506.71
498.77	2422.75
498.97	2541.53
499.17	2678.74
499.38	2486.23
499.58	2574.30
499.78	2572.25
499.98	2559.96
500.18	2457.56
500.38	2408.41
500.58	2713.56
500.78	3147.73
500.98	5443.50
501.18	7643.02
501.38	9265.01
501.58	10309.47
501.78	9985.90
501.98	8101.76
502.18	6674.33
502.38	5808.04
502.58	5300.14
502.78	4960.18
502.98	4704.18
503.18	4333.50
503.38	4091.84
503.59	3588.04
503.79	3471.31
503.99	3243.98
504.19	3092.43
504.39	3108.82
504.59	3168.21
504.79	3055.57
504.99	3178.45
505.19	2854.87
505.39	2766.81
505.59	2865.11
505.79	2824.15
505.99	2678.74
506.19	2609.11
506.39	2729.94
506.59	2598.87
506.79	2465.75
506.99	2662.36
507.19	2529.24
507.39	2519.00
507.59	2383.84
507.79	2369.50
507.99	2363.36
508.19	2529.24
508.39	2463.71
508.59	2461.66
508.79	2570.20
508.99	2637.78
509.19	2404.32
509.39	2500.57
509.59	2324.44
509.79	2418.65
509.99	2523.10
510.19	2551.77
510.39	2506.71
510.59	2514.91
510.79	2488.28
510.99	2306.01
511.19	2461.66
511.39	2799.57
511.59	2547.67
511.79	2557.91
511.99	2484.19
512.19	2736.09
512.38	2492.38
512.58	2383.84
512.78	2432.99
512.98	2627.54
513.18	2707.41
513.38	2289.63
513.58	2461.66
513.78	2508.76
513.98	2527.19
514.18	2406.36
514.38	2441.18
514.58	2572.25
514.78	2318.30
514.98	2342.88
515.18	2453.47
515.38	2297.82
515.58	2691.03
515.78	2422.75
515.98	2498.52
516.18	2559.96
516.38	2484.19
516.57	2346.97
516.77	2437.08
516.97	2541.53
517.17	2402.27
517.37	2287.58
517.57	2586.58
517.77	2605.02
517.97	2396.12
518.17	2572.25
518.37	2398.17
518.57	2332.64
518.77	2420.70
518.97	2453.47
519.16	2523.10
519.36	2617.30
519.56	2519.00
519.76	2389.98
519.96	2494.43
520.16	2793.43
520.36	2359.26
520.56	2652.12
520.76	2457.56
520.96	2453.47
521.16	2617.30
521.35	2613.21
521.55	2576.34
521.75	2451.42
521.95	2471.90
522.15	2457.56
522.35	2252.77
522.55	2404.32
522.75	2629.59
522.95	2539.48
523.14	2412.51
523.34	2555.86
523.54	2478.04
523.74	2514.91
523.94	2510.81
524.14	2322.40
524.34	2531.29
524.54	2645.98
524.73	2441.18
524.93	2660.31
525.13	2521.05
525.33	2385.88
525.53	2643.93
525.73	2600.92
525.93	2498.52
526.13	2412.51
526.32	2389.98
526.52	2600.92
526.72	2619.35
526.92	2371.55
527.12	2428.89
527.32	2330.59
527.52	2600.92
527.71	2547.67
527.91	2457.56
528.11	2527.19
528.31	2533.34
528.51	2342.88
528.71	2535.39
528.90	2506.71
529.10	2629.59
529.30	2582.49
529.50	2189.28
529.70	2494.43
529.90	2443.23
530.09	2416.60
530.29	2389.98
530.49	2379.74
530.69	2953.17
530.89	2576.34
531.09	2514.91
531.28	2389.98
531.48	2652.12
531.68	2537.43
531.88	2465.75
532.08	2596.82
532.28	2506.71
532.47	2484.19
532.67	2545.63
532.87	2619.35
533.07	2396.12
533.27	2609.11
533.46	2519.00
533.66	2547.67
533.86	2537.43
534.06	2473.95
534.26	2545.63
534.45	2529.24
534.65	2564.06
534.85	2570.20
535.05	2359.26
535.25	2547.67
535.44	2308.06
535.64	2504.67
535.84	2439.13
536.04	2408.41
536.24	2404.32
536.43	2359.26
536.63	2580.44
536.83	2480.09
537.03	2551.77
537.22	2269.15
537.42	2228.19
537.62	2506.71
537.82	2449.37
538.02	2641.88
538.21	2609.11
538.41	2803.67
538.61	2555.86
538.81	2486.23
539.00	2607.06
539.20	2383.84
539.40	2420.70
539.60	2447.32
539.79	2531.29
539.99	2490.33
540.19	2482.14
540.39	2404.32
540.58	2553.82
540.78	2684.89
540.98	2428.89
541.18	2609.11
541.37	2465.75
541.57	2533.34
541.77	2500.57
541.97	2392.03
542.16	2334.68
542.36	2490.33
542.56	2414.56
542.76	2723.80
542.95	2555.86
543.15	2602.97
543.35	2512.86
543.54	2310.11
543.74	2383.84
543.94	2670.55
544.14	2406.36
544.33	2535.39
544.53	2441.18
544.73	2482.14
544.93	2469.85
545.12	2422.75
545.32	2488.28
545.52	2441.18
545.71	2334.68
545.91	2435.03
546.11	2512.86
546.30	2387.93
546.50	2473.95
546.70	2478.04
546.90	2400.22
547.09	2256.86
547.29	2500.57
547.49	2516.95
547.68	2480.09
547.88	2416.60
548.08	2537.43
548.27	2957.27
548.47	2400.22
548.67	2375.64
548.87	2631.64
549.06	2439.13
549.26	2457.56
549.46	2408.41
549.65	2404.32
549.85	2447.32
550.05	2531.29
550.24	2318.30
550.44	2488.28
550.64	2525.15
550.83	2416.60
551.03	2590.68
551.23	2641.88
551.42	2521.05
551.62	2430.94
551.82	2494.43
552.01	2453.47
552.21	2568.15
552.41	2459.61
552.60	2645.98
552.80	2418.65
553.00	2404.32
553.19	2512.86
553.39	2701.27
553.59	2357.21
553.78	2482.14
553.98	2463.71
554.17	2324.44
554.37	2514.91
554.57	2631.64
554.76	2357.21
554.96	2389.98
555.16	2443.23
555.35	2529.24
555.55	2543.58
555.75	2559.96
555.94	2631.64
556.14	2281.44
556.33	2553.82
556.53	2455.51
556.73	2492.38
556.92	2482.14
557.12	2519.00
557.32	2711.51
557.51	2697.17
557.71	2535.39
557.90	2588.63
558.10	2676.70
558.30	2426.84
558.49	2498.52
558.69	2432.99
558.88	2629.59
559.08	2523.10
559.28	2471.90
559.47	2463.71
559.67	2547.67
559.86	2764.76
560.06	2447.32
560.26	2465.75
560.45	2566.10
560.65	2457.56
560.84	2619.35
561.04	2408.41
561.24	2525.15
561.43	2324.44
561.63	2731.99
561.82	2498.52
562.02	2586.58
562.22	2414.56
562.41	2432.99
562.61	2473.95
562.80	2437.08
563.00	2781.14
563.19	2521.05
563.39	2551.77
563.59	2564.06
563.78	2349.02
563.98	2220.00
564.17	2416.60
564.37	2318.30
564.56	2430.94
564.76	2400.22
564.96	2635.74
565.15	2490.33
565.35	2883.54
565.54	2412.51
565.74	2580.44
565.93	2568.15
566.13	2504.67
566.32	2494.43
566.52	2514.91
566.71	2533.34
566.91	2600.92
567.11	2547.67
567.30	2369.50
567.50	2568.15
567.69	2621.40
567.89	2469.85
568.08	2394.08
568.28	2582.49
568.47	2332.64
568.67	2543.58
568.86	2367.45
569.06	2619.35
569.25	2473.95
569.45	2299.87
569.64	2322.40
569.84	2420.70
570.04	2580.44
570.23	2439.13
570.43	2463.71
570.62	2465.75
570.82	2621.40
571.01	2336.73
571.21	2408.41
571.40	2340.83
571.60	2588.63
571.79	2521.05
571.99	2457.56
572.18	2424.80
572.38	2543.58
572.57	2445.27
572.77	2582.49
572.96	2891.73
573.16	2506.71
573.35	2349.02
573.55	2600.92
573.74	2605.02
573.94	2459.61
574.13	2506.71
574.33	2635.74
574.52	2668.50
574.71	2498.52
574.91	2580.44
575.10	2326.49
575.30	2473.95
575.49	2508.76
575.69	2482.14
575.88	2578.39
576.08	2545.63
576.27	2654.17
576.47	2488.28
576.66	2643.93
576.86	2613.21
577.05	2643.93
577.25	2572.25
577.44	2721.75
577.64	2449.37
577.83	2660.31
578.02	2410.46
578.22	2613.21
578.41	2678.74
578.61	2439.13
578.80	2301.92
579.00	2562.01
579.19	2504.67
579.39	2549.72
579.58	2576.34
579.77	2473.95
579.97	2631.64
580.16	2684.89
580.36	2584.54
580.55	2584.54
580.75	2576.34
580.94	2504.67
581.13	2676.70
581.33	2627.54
581.52	2545.63
581.72	2797.53
581.91	2643.93
582.11	2437.08
582.30	2643.93
582.49	2535.39
582.69	2752.47
582.88	2498.52
583.08	2523.10
583.27	2633.69
583.47	2559.96
583.66	2478.04
583.85	2408.41
584.05	2514.91
584.24	2609.11
584.44	2580.44
584.63	2643.93
584.82	2723.80
585.02	2668.50
585.21	2695.13
585.41	2619.35
585.60	2660.31
585.79	2754.52
585.99	2801.62
586.18	2695.13
586.37	3252.17
586.57	5111.73
586.76	14980.89
586.96	34547.18
587.15	47803.69
587.34	56829.08
587.54	61238.36
587.73	55698.61
587.93	39069.10
588.12	29847.10
588.31	23950.99
588.51	21069.50
588.70	19416.79
588.89	17469.17
589.09	15120.15
589.28	12824.38
589.47	10076.01
589.67	8042.37
589.86	6143.91
590.06	4702.14
590.25	3774.41
590.44	3315.66
590.64	2983.89
590.83	2885.59
591.02	2809.81
591.22	2643.93
591.41	2564.06
591.60	2519.00
591.80	2840.53
591.99	2467.80
592.18	2392.03
592.38	2650.07
592.57	2447.32
592.76	2531.29
592.96	2549.72
593.15	2516.95
593.34	2555.86
593.54	2465.75
593.73	2641.88
593.92	2572.25
594.12	2592.73
594.31	2654.17
594.50	2705.37
594.70	2568.15
594.89	2897.88
595.08	2346.97
595.28	2586.58
595.47	2908.12
595.66	2658.26
595.86	2396.12
596.05	2484.19
596.24	2478.04
596.43	2721.75
596.63	2637.78
596.82	2596.82
597.01	2674.65
597.21	2770.90
597.40	2504.67
597.59	2471.90
597.79	2529.24
597.98	2613.21
598.17	2521.05
598.36	2502.62
598.56	2590.68
598.75	2447.32
598.94	2545.63
599.14	2473.95
599.33	2422.75
599.52	2564.06
599.71	2502.62
599.91	2510.81
600.10	2621.40
600.29	2545.63
600.48	2488.28
600.68	2555.86
600.87	2496.47
601.06	2424.80
601.26	2527.19
601.45	2469.85
601.64	2449.37
601.83	2678.74
602.03	2437.08
602.22	2349.02
602.41	2731.99
602.60	2785.24
602.80	2584.54
602.99	2502.62
603.18	2457.56
603.37	2521.05
603.57	2420.70
603.76	2549.72
603.95	2758.61
604.14	2545.63
604.34	2414.56
604.53	2471.90
604.72	2475.99
604.91	2523.10
605.10	2578.39
605.30	2299.87
605.49	2721.75
605.68	2592.73
605.87	2543.58
606.07	2383.84
606.26	2613.21
606.45	2523.10
606.64	2457.56
606.84	2529.24
607.03	2469.85
607.22	2619.35
607.41	2514.91
607.60	2396.12
607.80	2631.64
607.99	2523.10
608.18	2564.06
608.37	2469.85
608.56	2539.48
608.76	2654.17
608.95	2633.69
609.14	2566.10
609.33	2654.17
609.52	2768.85
609.72	2525.15
609.91	2670.55
610.10	2629.59
610.29	2727.89
610.48	2521.05
610.68	2506.71
610.87	2435.03
611.06	2541.53
611.25	2537.43
611.44	2568.15
611.63	2506.71
611.83	2711.51
612.02	2392.03
612.21	2592.73
612.40	2316.25
612.59	2359.26
612.79	2379.74
612.98	2500.57
613.17	2744.28
613.36	2439.13
613.55	2631.64
613.74	2602.97
613.93	2678.74
614.13	2770.90
614.32	2723.80
614.51	2629.59
614.70	2600.92
614.89	2490.33
615.08	2525.15
615.28	3002.32
615.47	2387.93
615.66	2621.40
615.85	2598.87
616.04	2594.78
616.23	2533.34
616.42	2533.34
616.62	2496.47
616.81	2490.33
617.00	2516.95
617.19	2568.15
617.38	2420.70
617.57	2510.81
617.76	2648.02
617.95	2572.25
618.15	2602.97
618.34	2625.50
618.53	2373.60
618.72	2613.21
618.91	2600.92
619.10	2504.67
619.29	2490.33
619.48	2539.48
619.68	2371.55
619.87	2471.90
620.06	2326.49
620.25	2514.91
620.44	2414.56
620.63	2482.14
620.82	2533.34
621.01	2486.23
621.20	2478.04
621.39	2553.82
621.59	2621.40
621.78	2449.37
621.97	2404.32
622.16	2615.26
622.35	2588.63
622.54	2670.55
622.73	2576.34
622.92	2281.44
623.11	2625.50
623.30	2480.09
623.49	2596.82
623.68	2494.43
623.88	2727.89
624.07	2449.37
624.26	2449.37
624.45	2512.86
624.64	2453.47
624.83	2471.90
625.02	2367.45
625.21	2519.00
625.40	2506.71
625.59	2602.97
625.78	2504.67
625.97	2596.82
626.16	2740.18
626.35	2660.31
626.54	2629.59
626.74	2725.85
626.93	2418.65
627.12	2592.73
627.31	2613.21
627.50	2549.72
627.69	2650.07
627.88	2400.22
628.07	2473.95
628.26	2334.68
628.45	2437.08
628.64	2328.54
628.83	2523.10
629.02	2301.92
629.21	2572.25
629.40	2494.43
629.59	2478.04
629.78	2424.80
629.97	2533.34
630.16	2535.39
630.35	2473.95
630.54	2490.33
630.73	2416.60
630.92	2473.95
631.11	2375.64
631.30	2525.15
631.49	2621.40
631.68	2500.57
631.87	2424.80
632.06	2342.88
632.25	2861.01
632.44	2527.19
632.63	2539.48
632.82	2564.06
633.01	2502.62
633.20	2731.99
633.39	2478.04
633.58	2349.02
633.77	2631.64
633.96	2662.36
634.15	2582.49
634.34	2613.21
634.53	2564.06
634.72	2527.19
634.91	2367.45
635.10	2414.56
635.29	2490.33
635.48	2562.01
635.67	2375.64
635.86	2283.49
636.05	2678.74
636.24	2510.81
636.43	2506.71
636.62	2467.80
636.81	2183.13
637.00	2564.06
637.19	2453.47
637.38	2535.39
637.57	2473.95
637.76	2514.91
637.95	2629.59
638.14	2537.43
638.33	2547.67
638.52	2580.44
638.71	2408.41
638.89	2422.75
639.08	2873.30
639.27	2779.09
639.46	2781.14
639.65	3162.06
639.84	3207.12
640.03	3373.00
640.22	3200.98
640.41	3160.02
640.60	2797.53
640.79	2785.24
640.98	2639.83
641.17	2686.94
641.36	2768.85
641.55	2686.94
641.74	2533.34
641.92	2445.27
642.11	2387.93
642.30	2527.19
642.49	2486.23
642.68	2383.84
642.87	2514.91
643.06	2609.11
643.25	2375.64
643.44	2351.07
643.63	2529.24
643.82	2584.54
644.00	2396.12
644.19	2432.99
644.38	2326.49
644.57	2654.17
644.76	2514.91
644.95	2451.42
645.14	2529.24
645.33	2457.56
645.52	2539.48
645.71	2320.35
645.89	2383.84
646.08	2482.14
646.27	2408.41
646.46	2709.46
646.65	2314.20
646.84	2527.19
647.03	2379.74
647.22	2631.64
647.40	2490.33
647.59	2492.38
647.78	2275.29
647.97	2430.94
648.16	2467.80
648.35	2568.15
648.54	2664.41
648.73	2447.32
648.91	2582.49
649.10	2494.43
649.29	2392.03
649.48	2377.69
649.67	2488.28
649.86	2547.67
650.05	2510.81
650.23	2654.17
650.42	2572.25
650.61	2818.00
650.80	2719.70
650.99	2799.57
651.18	2744.28
651.36	2758.61
651.55	2439.13
651.74	2570.20
651.93	2514.91
652.12	2494.43
652.31	2514.91
652.49	2439.13
652.68	2488.28
652.87	2662.36
653.06	2525.15
653.25	2668.50
653.44	2531.29
653.62	2666.46
653.81	2404.32
654.00	2449.37
654.19	2547.67
654.38	2777.05
654.56	2553.82
654.75	2500.57
654.94	2592.73
655.13	2531.29
655.32	2473.95
655.51	2525.15
655.69	2412.51
655.88	2562.01
656.07	2334.68
656.26	2498.52
656.45	2271.20
656.63	2459.61
656.82	2404.32
657.01	2545.63
657.20	2441.18
657.38	2596.82
657.57	2439.13
657.76	2310.11
657.95	2623.45
658.14	2508.76
658.32	2465.75
658.51	2394.08
658.70	2564.06
658.89	2457.56
659.08	2504.67
659.26	2731.99
659.45	2398.17
659.64	2568.15
659.83	2373.60
660.01	2899.92
660.20	2529.24
660.39	2666.46
660.58	2281.44
660.76	2572.25
660.95	2334.68
661.14	2547.67
661.33	2359.26
661.51	2394.08
661.70	2416.60
661.89	2519.00
662.08	2455.51
662.26	2361.31
662.45	2416.60
662.64	2795.48
662.83	2508.76
663.01	2387.93
663.20	2441.18
663.39	2703.32
663.58	2488.28
663.76	2412.51
663.95	2555.86
664.14	2346.97
664.32	2394.08
664.51	2342.88
664.70	2244.57
664.89	2535.39
665.07	2351.07
665.26	2605.02
665.45	2346.97
665.64	2592.73
665.82	2424.80
666.01	2557.91
666.20	2351.07
666.38	2707.41
666.57	2654.17
666.76	3907.52
666.95	9705.32
667.13	17846.00
667.32	22597.29
667.51	26283.63
667.69	27692.63
667.88	24723.08
668.07	17317.62
668.25	14253.86
668.44	11992.90
668.63	10284.90
668.81	9256.82
669.00	7929.74
669.19	7102.36
669.38	6080.42
669.56	5365.68
669.75	4399.04
669.94	3798.98
670.12	3221.45
670.31	3030.99
670.50	2822.10
670.68	2727.89
670.87	2621.40
671.06	2617.30
671.24	2615.26
671.43	2654.17
671.62	2609.11
671.80	2432.99
671.99	2611.16
672.18	2514.91
672.36	2623.45
672.55	2562.01
672.74	2416.60
672.92	2435.03
673.11	2557.91
673.29	2342.88
673.48	2539.48
673.67	2435.03
673.85	2557.91
674.04	2441.18
674.23	2547.67
674.41	2668.50
674.60	2355.16
674.79	2291.68
674.97	2316.25
675.16	2531.29
675.34	2605.02
675.53	2457.56
675.72	2457.56
675.90	2697.17
676.09	2482.14
676.28	2424.80
676.46	2326.49
676.65	2488.28
676.83	2375.64
677.02	2578.39
677.21	2496.47
677.39	2478.04
677.58	2375.64
677.77	2416.60
677.95	2334.68
678.14	2437.08
678.32	2461.66
678.51	2359.26
678.70	2766.81
678.88	2441.18
679.07	2523.10
679.25	2420.70
679.44	2430.94
679.63	2301.92
679.81	2562.01
680.00	2600.92
680.18	2572.25
680.37	2652.12
680.55	2482.14
680.74	2308.06
680.93	2263.01
681.11	2488.28
681.30	2416.60
681.48	2459.61
681.67	2392.03
681.85	2473.95
682.04	2375.64
682.23	2549.72
682.41	2586.58
682.60	2508.76
682.78	2500.57
682.97	2363.36
683.15	2508.76
683.34	2473.95
683.53	2654.17
683.71	2271.20
683.90	2629.59
684.08	2684.89
684.27	2383.84
684.45	2488.28
684.64	2605.02
684.82	2459.61
685.01	2551.77
685.19	2514.91
685.38	2629.59
685.57	2463.71
685.75	2408.41
685.94	2500.57
686.12	2322.40
686.31	2488.28
686.49	2617.30
686.68	2293.72
686.86	2529.24
687.05	2486.23
687.23	2662.36
687.42	2392.03
687.60	2332.64
687.79	2588.63
687.97	2676.70
688.16	2559.96
688.34	2688.98
688.53	2306.01
688.71	2547.67
688.90	2650.07
689.08	2418.65
689.27	2224.09
689.45	2625.50
689.64	2490.33
689.82	2516.95
690.01	2570.20
690.19	2430.94
690.38	2486.23
690.56	2584.54
690.75	2377.69
690.93	2394.08
691.12	2473.95
691.30	2455.51
691.49	2492.38
691.67	2494.43
691.86	2654.17
692.04	2428.89
692.23	2467.80
692.41	2494.43
692.60	2785.24
692.78	2711.51
692.97	2514.91
693.15	2619.35
693.34	2627.54
693.52	2592.73
693.71	2539.48
693.89	2480.09
694.08	2306.01
694.26	2535.39
694.44	2555.86
694.63	2594.78
694.81	2324.44
695.00	2416.60
695.18	2596.82
695.37	2775.00
695.55	2496.47
695.74	2471.90
695.92	2412.51
696.10	2621.40
696.29	2367.45
696.47	2471.90
696.66	2277.34
696.84	2408.41
697.03	2488.28
697.21	2662.36
697.40	3653.58
697.58	2609.11
697.76	2389.98
697.95	2410.46
698.13	2375.64
698.32	2351.07
698.50	2469.85
698.68	2539.48
698.87	2570.20
699.05	2711.51
699.24	2455.51
699.42	2301.92
699.61	2521.05
699.79	2547.67
699.97	2449.37
700.16	2328.54
700.34	2301.92
700.53	2471.90
700.71	2744.28
700.89	2570.20
701.08	2430.94
701.26	2445.27
701.45	3037.14
701.63	2398.17
701.81	2478.04
702.00	2451.42
702.18	2416.60
702.37	2445.27
702.55	2783.19
702.73	2734.04
702.92	2580.44
703.10	2805.72
703.28	2629.59
703.47	2406.36
703.65	2742.23
703.84	2678.74
704.02	2502.62
704.20	2637.78
704.39	2492.38
704.57	2467.80
704.75	2637.78
704.94	2555.86
705.12	2514.91
705.30	2926.55
705.49	5660.59
705.67	13018.94
705.86	20946.62
706.04	24813.19
706.22	28034.64
706.41	28350.03
706.59	23090.85
706.77	16527.11
706.96	14116.65
707.14	12377.92
707.32	10829.66
707.51	9424.75
707.69	7671.69
707.87	6217.63
708.06	4931.51
708.24	4165.57
708.42	3387.34
708.61	3262.41
708.79	2600.92
708.97	2670.55
709.16	2623.45
709.34	2596.82
709.52	2488.28
709.71	2471.90
709.89	2621.40
710.07	2389.98
710.26	2408.41
710.44	2506.71
710.62	2625.50
710.80	2457.56
710.99	2555.86
711.17	2584.54
711.35	2416.60
711.54	2408.41
711.72	2629.59
711.90	2535.39
712.09	2545.63
712.27	2383.84
712.45	2523.10
712.63	2355.16
712.82	2537.43
713.00	2424.80
713.18	2562.01
713.37	2648.02
713.55	2537.43
713.73	2566.10
713.91	2428.89
714.10	2379.74
714.28	2453.47
714.46	2516.95
714.65	2510.81
714.83	2541.53
715.01	2611.16
715.19	2500.57
715.38	2373.60
715.56	2521.05
715.74	2353.12
715.92	2330.59
716.11	2594.78
716.29	2250.72
716.47	2465.75
716.65	2531.29
716.84	2303.96
717.02	2562.01
717.20	2252.77
717.38	2422.75
717.57	2506.71
717.75	2496.47
717.93	2379.74
718.11	2568.15
718.30	2318.30
718.48	2521.05
718.66	2586.58
718.84	2629.59
719.03	2426.84
719.21	2318.30
719.39	2719.70
719.57	2605.02
719.75	2555.86
719.94	2396.12
720.12	2398.17
720.30	2535.39
720.48	2537.43
720.67	2420.70
720.85	2359.26
721.03	2488.28
721.21	2353.12
721.39	2541.53
721.58	2553.82
721.76	2527.19
721.94	2443.23
722.12	2553.82
722.30	2678.74
722.49	2363.36
722.67	2539.48
722.85	2482.14
723.03	2324.44
723.21	2424.80
723.40	2457.56
723.58	2592.73
723.76	2541.53
723.94	2703.32
724.12	2531.29
724.30	2691.03
724.49	2680.79
724.67	2449.37
724.85	2629.59
725.03	2340.83
725.21	2617.30
725.40	2607.06
725.58	2478.04
725.76	2584.54
725.94	2564.06
726.12	2379.74
726.30	2461.66
726.49	2420.70
726.67	2410.46
726.85	2572.25
727.03	2881.49
727.21	4175.81
727.39	5879.72
727.57	7020.44
727.76	7514.00
727.94	7602.06
728.12	7212.95
728.30	5550.00
728.48	4847.54
728.66	4579.26
728.84	4241.34
729.03	3497.93
729.21	3225.55
729.39	2983.89
729.57	2801.62
729.75	2738.13
729.93	2676.70
730.11	2457.56
730.30	2482.14
730.48	2498.52
730.66	2574.30
730.84	2539.48
731.02	2447.32
731.20	2484.19
731.38	2404.32
731.56	2414.56
731.74	2381.79
731.93	2564.06
732.11	2516.95
732.29	2471.90
732.47	2629.59
732.65	2531.29
732.83	2605.02
733.01	2498.52
733.19	2435.03
733.37	2590.68
733.56	2586.58
733.74	2488.28
733.92	2656.22
734.10	2420.70
734.28	2496.47
734.46	2316.25
734.64	2420.70
734.82	2490.33
735.00	2344.92
735.18	2365.40
735.36	2410.46
735.54	2408.41
735.73	2461.66
735.91	2455.51
736.09	2648.02
736.27	2396.12
736.45	2447.32
736.63	2217.95
736.81	2406.36
736.99	2613.21
737.17	2582.49
737.35	2371.55
737.53	2498.52
737.71	2463.71
737.89	2621.40
738.07	2338.78
738.25	2428.89
738.43	2334.68
738.61	2355.16
738.80	2379.74
738.98	2371.55
739.16	2394.08
739.34	2379.74
739.52	2664.41
739.70	2488.28
739.88	2568.15
740.06	2582.49
740.24	2256.86
740.42	2594.78
740.60	2252.77
740.78	2338.78
740.96	2326.49
741.14	2404.32
741.32	2531.29
741.50	2371.55
741.68	2691.03
741.86	2715.61
742.04	2330.59
742.22	2265.05
742.40	2369.50
742.58	2600.92
742.76	2359.26
742.94	2643.93
743.12	2279.39
743.30	2416.60
743.48	2625.50
743.66	2377.69
743.84	2467.80
744.02	2500.57
744.20	2422.75
744.38	2326.49
744.56	2357.21
744.74	2635.74
744.92	2582.49
745.10	2662.36
745.28	2555.86
745.46	2639.83
745.64	2492.38
745.82	2562.01
746.00	2488.28
746.18	2498.52
746.36	2306.01
746.54	2539.48
746.72	2539.48
746.90	2322.40
747.08	2613.21
747.26	2379.74
747.44	2498.52
747.62	2482.14
747.80	2543.58
747.98	2586.58
748.15	2408.41
748.33	2695.13
748.51	2531.29
748.69	2480.09
748.87	2355.16
749.05	2533.34
749.23	2490.33
749.41	2496.47
749.59	2408.41
749.77	2574.30
749.95	2469.85
750.13	2392.03
750.31	2537.43
750.49	2389.98
750.67	2602.97
750.85	2643.93
751.03	2471.90
751.20	2662.36
751.38	2494.43
751.56	2465.75
751.74	2441.18
751.92	2478.04
752.10	2308.06
752.28	2594.78
752.46	2408.41
752.64	2453.47
752.82	2465.75
753.00	2629.59
753.18	2500.57
753.35	2414.56
753.53	2461.66
753.71	2402.27
753.89	2533.34
754.07	2523.10
754.25	2584.54
754.43	2484.19
754.61	2414.56
754.79	2580.44
754.97	2416.60
755.14	2627.54
755.32	2361.31
755.50	2590.68
755.68	2490.33
755.86	2351.07
756.04	2424.80
756.22	2295.77
756.40	2537.43
756.57	2686.94
756.75	2432.99
756.93	2633.69
757.11	2605.02
757.29	2387.93
757.47	2281.44
757.65	2334.68
757.82	2209.76
758.00	2383.84
758.18	2408.41
758.36	2400.22
758.54	2641.88
758.72	2279.39
758.90	2619.35
759.07	2490.33
759.25	2412.51
759.43	2523.10
759.61	2314.20
759.79	3545.03
759.97	2609.11
760.15	2455.51
760.32	2435.03
760.50	2514.91
760.68	2631.64
760.86	2275.29
761.04	2531.29
761.22	2586.58
761.39	2496.47
761.57	2568.15
761.75	2500.57
761.93	2506.71
762.11	2506.71
762.28	2428.89
762.46	2371.55
762.64	2478.04
762.82	2287.58
763.00	2408.41
763.18	2625.50
763.35	2400.22
763.53	2562.01
763.71	2521.05
763.89	2553.82
764.07	2467.80
764.24	2469.85
764.42	2650.07
764.60	2396.12
764.78	2557.91
764.96	2555.86
765.13	2631.64
765.31	2404.32
765.49	2514.91
765.67	2340.83
765.84	2398.17
766.02	2385.88
766.20	2301.92
766.38	2502.62
766.56	2615.26
766.73	2543.58
766.91	2465.75
767.09	2494.43
767.27	2504.67
767.44	2320.35
767.62	2537.43
767.80	2514.91
767.98	2306.01
768.15	2367.45
768.33	2514.91
768.51	2557.91
768.69	2533.34
768.87	2539.48
769.04	2469.85
769.22	2842.58
769.40	2607.06
769.58	2660.31
769.75	2500.57
769.93	2680.79
770.11	2465.75
770.28	2281.44
770.46	2570.20
770.64	2494.43
770.82	2375.64
770.99	2349.02
771.17	2553.82
771.35	2445.27
771.53	2387.93
771.70	2459.61
771.88	2590.68
772.06	2461.66
772.23	2441.18
772.41	2480.09
772.59	2461.66
772.77	2394.08
772.94	2441.18
773.12	2539.48
773.30	2349.02
773.47	2432.99
773.65	2392.03
773.83	2621.40
774.01	2441.18
774.18	2191.33
774.36	2500.57
774.54	2320.35
774.71	2539.48
774.89	2332.64
775.07	2394.08
775.24	2416.60
775.42	2572.25
775.60	2652.12
775.78	2418.65
775.95	2367.45
776.13	2289.63
776.31	2232.29
776.48	2351.07
776.66	2512.86
776.84	2449.37
777.01	2349.02
777.19	2359.26
777.37	2394.08
777.54	2559.96
777.72	2688.98
777.90	2500.57
778.07	2445.27
778.25	2844.63
778.43	2600.92
778.60	2392.03
778.78	2492.38
778.96	2672.60
779.13	2342.88
779.31	2564.06
779.49	2416.60
779.66	2498.52
779.84	2500.57
780.01	2414.56
780.19	2355.16
780.37	2660.31
780.54	2625.50
780.72	2367.45
780.90	2418.65
781.07	2498.52
781.25	2383.84
781.43	2537.43
781.60	2359.26
781.78	2637.78
781.95	2525.15
782.13	2424.80
782.31	2441.18
782.48	2303.96
782.66	2455.51
782.83	2645.98
783.01	2529.24
783.19	2541.53
783.36	2498.52
783.54	2326.49
783.72	2549.72
783.89	2389.98
784.07	2482.14
784.24	2596.82
784.42	2545.63
784.60	2551.77
784.77	2525.15
784.95	2269.15
785.12	2459.61
785.30	2527.19
785.47	2303.96
785.65	2363.36
785.83	2416.60
786.00	2342.88
786.18	2512.86
786.35	2334.68
786.53	2375.64
786.71	2631.64
786.88	2564.06
787.06	2519.00
787.23	2432.99
787.41	2324.44
787.58	2486.23
787.76	2332.64
787.94	2451.42
788.11	2510.81
788.29	2392.03
788.46	2383.84
788.64	2297.82
788.81	2353.12
788.99	2373.60
789.16	2297.82
789.34	2506.71
789.52	2408.41
789.69	2338.78
789.87	2246.62
790.04	2408.41
790.22	2447.32
790.39	2781.14
790.57	2318.30
790.74	2316.25
790.92	2641.88
791.09	2263.01
791.27	2385.88
791.44	2611.16
791.62	2412.51
791.79	2605.02
791.97	2426.84
792.15	2764.76
792.32	2611.16
792.50	2519.00
792.67	2645.98
792.85	2590.68
793.02	2473.95
793.20	2514.91
793.37	2342.88
793.55	2428.89
793.72	2455.51
793.90	2572.25
794.07	2377.69
794.25	2351.07
794.42	2469.85
794.60	2541.53
794.77	2494.43
794.95	2551.77
795.12	2535.39
795.30	2514.91
795.47	2281.44
795.65	2846.68
795.82	2578.39
796.00	2322.40
796.17	2461.66
796.34	2349.02
796.52	2605.02
796.69	2541.53
796.87	2564.06
797.04	2543.58
797.22	2623.45
797.39	2480.09
797.57	2512.86
797.74	2475.99
797.92	2555.86
798.09	2383.84
798.27	2594.78
798.44	2420.70
798.62	2404.32
798.79	2475.99
798.96	2461.66
799.14	2412.51
799.31	2768.85
799.49	2469.85
799.66	2432.99
799.84	2441.18
800.01	2308.06
800.19	2555.86
800.36	2250.72
800.53	2514.91
800.71	2492.38
800.88	2656.22
801.06	2394.08
801.23	2435.03
801.41	2389.98
801.58	2482.14
801.75	2363.36
801.93	2592.73
802.10	2594.78
802.28	2430.94
802.45	2416.60
802.63	2432.99
802.80	2596.82
802.97	2418.65
803.15	2432.99
803.32	2430.94
803.50	2318.30
803.67	2467.80
803.84	2424.80
804.02	2414.56
804.19	2439.13
804.37	2332.64
804.54	2295.77
804.71	2412.51
804.89	2537.43
805.06	2324.44
805.24	2414.56
805.41	2306.01
805.58	2453.47
805.76	2742.23
805.93	2478.04
806.10	2631.64
806.28	2525.15
806.45	2494.43
806.63	2469.85
806.80	2521.05
806.97	2547.67
807.15	2512.86
807.32	2463.71
807.49	2488.28
807.67	2330.59
807.84	2543.58
808.01	2295.77
808.19	2693.08
808.36	2848.72
808.54	2461.66
808.71	2424.80
808.88	2432.99
809.06	2654.17
809.23	2645.98
809.40	2359.26
809.58	2510.81
809.75	2482.14
809.92	2342.88
810.10	2686.94
810.27	2408.41
810.44	2508.76
810.62	2543.58
810.79	2449.37
810.96	2400.22
811.14	2396.12
811.31	2543.58
811.48	2627.54
811.66	2482.14
811.83	2611.16
812.00	2559.96
812.18	2557.91
812.35	2670.55
812.52	2416.60
812.69	2402.27
812.87	2412.51
813.04	2363.36
813.21	2512.86
813.39	2435.03
813.56	2342.88
813.73	2578.39
813.91	2334.68
814.08	2504.67
814.25	2420.70
814.42	2236.38
814.60	2457.56
814.77	2392.03
814.94	2443.23
815.12	2441.18
815.29	2674.65
815.46	2398.17
815.63	2383.84
815.81	2490.33
815.98	2461.66
816.15	2471.90
816.33	2400.22
816.50	2357.21
816.67	2449.37
816.84	2488.28
817.02	2367.45
817.19	2424.80
817.36	2441.18
817.53	2613.21
817.71	2367.45
817.88	2547.67
818.05	2519.00
818.22	2461.66
818.40	2678.74
818.57	2435.03
818.74	2570.20
818.91	2383.84
819.09	2559.96
819.26	2598.87
819.43	2293.72
819.60	2453.47
819.78	2584.54
819.95	2578.39
820.12	2445.27
820.29	2547.67
820.47	2543.58
820.64	2430.94
820.81	2301.92
820.98	2340.83
821.15	2451.42
821.33	2490.33
821.50	2287.58
821.67	2547.67
821.84	2418.65
822.02	2449.37
822.19	2521.05
822.36	2365.40
822.53	2396.12
822.70	2310.11
822.88	2430.94
823.05	2682.84
823.22	2396.12
823.39	2504.67
823.56	2414.56
823.74	2699.22
823.91	2385.88
824.08	2338.78
824.25	2369.50
824.42	2602.97
824.60	2277.34
824.77	2465.75
824.94	2412.51
825.11	2545.63
825.28	2326.49
825.45	2537.43
825.63	2467.80
825.80	2383.84
825.97	2504.67
826.14	2580.44
826.31	2250.72
826.48	2500.57
826.66	2441.18
826.83	2428.89
827.00	2416.60
827.17	2363.36
827.34	2486.23
827.51	2441.18
827.69	2437.08
827.86	2250.72
828.03	2519.00
828.20	2400.22
828.37	2375.64
828.54	2523.10
828.71	2371.55
828.89	2605.02
829.06	2521.05
829.23	2740.18
829.40	2385.88
829.57	2363.36
829.74	2506.71
829.91	2426.84
830.09	2308.06
830.26	2537.43
830.43	2645.98
830.60	2475.99
830.77	2486.23
830.94	2551.77
831.11	2514.91
831.28	2494.43
831.46	2514.91
831.63	2324.44
831.80	2557.91
831.97	2410.46
832.14	2424.80
832.31	2523.10
832.48	2453.47
832.65	2547.67
832.82	2416.60
832.99	2500.57
833.17	2275.29
833.34	2609.11
833.51	2465.75
833.68	2191.33
833.85	2594.78
834.02	2361.31
834.19	2283.49
834.36	2314.20
834.53	2519.00
834.70	2588.63
834.87	2432.99
835.04	2338.78
835.22	2396.12
835.39	2330.59
835.56	2387.93
835.73	2394.08
835.90	2555.86
836.07	2406.36
836.24	2432.99
836.41	2308.06
836.58	2383.84
836.75	2531.29
836.92	2375.64
837.09	2326.49
837.26	2596.82
837.43	2547.67
837.60	2439.13
837.77	2422.75
837.94	2621.40
838.12	2605.02
838.29	2308.06
838.46	2301.92
838.63	2400.22
838.80	2688.98
838.97	2463.71
839.14	2383.84
839.31	2506.71
839.48	2617.30
839.65	2400.22
839.82	2449.37
839.99	2457.56
840.16	2506.71
840.33	2367.45
840.50	2439.13
840.67	2371.55
840.84	2187.23
841.01	2367.45
841.18	2367.45
841.35	2414.56
841.52	2527.19
841.69	2553.82
841.86	2412.51
842.03	2463.71
842.20	2566.10
842.37	2299.87
842.54	2408.41
842.71	2410.46
842.88	2244.57
843.05	2349.02
843.22	2392.03
843.39	2553.82
843.56	2412.51
843.73	2424.80
843.90	2453.47
844.07	2480.09
844.24	2502.62
844.41	2475.99
844.58	2428.89
844.75	2383.84
844.92	2549.72
845.09	2359.26
845.26	2303.96
845.43	2512.86
845.60	2457.56
845.77	2480.09
845.94	2473.95
846.10	2633.69
846.27	2320.35
846.44	2260.96
846.61	2301.92
846.78	2545.63
846.95	2555.86
847.12	2269.15
847.29	2432.99
847.46	2363.36
847.63	2572.25
847.80	2351.07
847.97	2408.41
848.14	2727.89
848.31	2457.56
848.48	2228.19
848.65	2424.80
848.82	2392.03
848.98	2764.76
849.15	2516.95
849.32	2500.57
849.49	2613.21
849.66	2480.09
849.83	2369.50
850.00	2324.44
850.17	2555.86
850.34	2490.33
850.51	2355.16
850.68	2318.30
850.85	2668.50
851.01	2590.68
851.18	2414.56
851.35	2389.98
851.52	2535.39
851.69	2715.61
851.86	2230.24
852.03	2449.37
852.20	2592.73
852.37	2510.81
852.53	2230.24
852.70	2351.07
852.87	2512.86
853.04	2553.82
853.21	2381.79
853.38	2533.34
853.55	2623.45
853.72	2666.46
853.89	2301.92
854.05	2271.20
854.22	2486.23
854.39	2441.18
854.56	2422.75
854.73	2576.34
854.90	2308.06
855.07	2478.04
855.23	2277.34
855.40	2326.49
855.57	2488.28
855.74	2170.85
855.91	2504.67
856.08	2283.49
856.25	2363.36
856.41	2424.80
856.58	2375.64
856.75	2392.03
856.92	2293.72
857.09	2582.49
857.26	2260.96
857.42	2445.27
857.59	2568.15
857.76	2428.89
857.93	2402.27
858.10	2504.67
858.27	2326.49
858.43	2457.56
858.60	2340.83
858.77	2183.13
858.94	2365.40
859.11	2572.25
859.27	2435.03
859.44	2381.79
859.61	2752.47
859.78	2555.86
859.95	2389.98
860.12	2297.82
860.28	2635.74
860.45	2691.03
860.62	2308.06
860.79	2471.90
860.95	2502.62
861.12	2420.70
861.29	2240.48
861.46	2379.74
861.63	2547.67
861.79	2539.48
861.96	2301.92
862.13	2392.03
862.30	2590.68
862.47	2402.27
862.63	2367.45
862.80	2473.95
862.97	2545.63
863.14	2510.81
863.30	2480.09
863.47	2299.87
863.64	2641.88
863.81	2432.99
863.97	2363.36
864.14	2371.55
864.31	2465.75
864.48	2539.48
864.65	2400.22
864.81	2473.95
864.98	2609.11
865.15	2531.29
865.32	2445.27
865.48	2482.14
865.65	2629.59
865.82	2379.74
865.98	2428.89
866.15	2506.71
866.32	2482.14
866.49	2465.75
866.65	2498.52
866.82	2240.48
866.99	2523.10
867.16	2455.51
867.32	2353.12
867.49	2308.06
867.66	2377.69
867.83	2441.18
867.99	2269.15
868.16	2342.88
868.33	2402.27
868.49	2457.56
868.66	2318.30
868.83	2414.56
868.99	2445.27
869.16	2502.62
869.33	2506.71
869.50	2519.00
869.66	2488.28
869.83	2473.95
870.00	2275.29
870.16	2375.64
870.33	2428.89
870.50	2527.19
870.66	2387.93
870.83	2525.15
871.00	2443.23
871.17	2545.63
871.33	2441.18
871.50	2377.69
871.67	2408.41
871.83	2318.30
872.00	2535.39
872.17	2398.17
872.33	2697.17
872.50	2637.78
872.67	2387.93
872.83	2420.70
873.00	2551.77
873.17	2414.56
873.33	2451.42
873.50	2443.23
873.67	2365.40
873.83	2387.93
874.00	2367.45
874.16	2498.52
874.33	2484.19
874.50	2281.44
874.66	2363.36
874.83	2416.60
875.00	2619.35
875.16	2471.90
875.33	2465.75
875.50	2138.08
875.66	2346.97
875.83	2457.56
875.99	2441.18
876.16	2467.80
876.33	2344.92
876.49	2392.03
876.66	2437.08
876.83	2439.13
876.99	2357.21
877.16	2506.71
877.32	2346.97
877.49	2332.64
877.66	2424.80
877.82	2670.55
877.99	2455.51
878.15	2572.25
878.32	2516.95
878.49	2539.48
878.65	2367.45
878.82	2480.09
878.98	2449.37
879.15	2506.71
879.32	2441.18
879.48	2465.75
879.65	2414.56
879.81	2478.04
879.98	2396.12
880.15	2351.07
880.31	2562.01
880.48	2408.41
880.64	2455.51
880.81	2441.18
880.97	2564.06
881.14	2611.16
881.31	2326.49
881.47	2578.39
881.64	2437.08
881.80	2295.77
881.97	2490.33
882.13	2367.45
882.30	2414.56
882.47	2357.21
882.63	2316.25
882.80	2334.68
882.96	2490.33
883.13	2574.30
883.29	2383.84
883.46	2449.37
883.62	2688.98
883.79	2453.47
883.95	2480.09
884.12	2383.84
884.29	2545.63
884.45	2406.36
884.62	2471.90
884.78	2277.34
884.95	2609.11
885.11	2428.89
885.28	2527.19
885.44	2308.06
885.61	2596.82
885.77	2637.78
885.94	2504.67
886.10	2381.79
886.27	2508.76
886.43	2615.26
886.60	2471.90
886.76	2342.88
886.93	2340.83
887.09	2471.90
887.26	2279.39
887.42	2351.07
887.59	2619.35
887.75	2736.09
887.92	2619.35
888.08	2514.91
888.25	2723.80
888.41	2607.06
888.58	2437.08
888.74	2314.20
888.91	2418.65
>>>>>End Processed Spectral Data<<<<<
