SpectraSuite Data File
++++++++++++++++++++++++++++++++++++
Date: Thu May 05 14:41:30 CEST 2016
User: root
Dark Spectrum Present: No
Reference Spectrum Present: No
Number of Sampled Component Spectra: 1
Spectrometers: USB4C02835
Integration Time (usec): 100000 (USB4C02835)
Spectra Averaged: 1 (USB4C02835)
Boxcar Smoothing: 0 (USB4C02835)
Correct for Electrical Dark: No (USB4C02835)
Strobe/Lamp Enabled: No (USB4C02835)
Correct for Detector Non-linearity: No (USB4C02835)
Correct for Stray Light: No (USB4C02835)
Number of Pixels in Processed Spectrum: 3648
>>>>>Begin Processed Spectral Data<<<<<
177.47	1888.23
177.69	1888.23
177.91	1888.23
178.13	1875.94
178.36	1908.71
178.58	2383.84
178.80	2467.80
179.02	2330.59
179.24	2340.83
179.46	2334.68
179.68	2414.56
179.90	2457.56
180.13	2475.99
180.35	2258.91
180.57	2295.77
180.79	2605.02
181.01	2400.22
181.23	2412.51
181.45	2455.51
181.67	2576.34
181.90	2564.06
182.12	2295.77
182.34	2232.29
182.56	2621.40
182.78	2459.61
183.00	2346.97
183.22	2408.41
183.44	2314.20
183.66	2852.82
183.89	2408.41
184.11	2371.55
184.33	2535.39
184.55	2641.88
184.77	2338.78
184.99	2349.02
185.21	2449.37
185.43	2756.57
185.65	2299.87
185.87	2363.36
186.10	2848.72
186.32	2756.57
186.54	2437.08
186.76	2473.95
186.98	2586.58
187.20	2424.80
187.42	2365.40
187.64	2381.79
187.86	2469.85
188.08	2592.73
188.30	2281.44
188.52	2363.36
188.75	2650.07
188.97	2586.58
189.19	2299.87
189.41	2308.06
189.63	2568.15
189.85	2449.37
190.07	2254.81
190.29	2289.63
190.51	2467.80
190.73	2291.68
190.95	2543.58
191.17	2346.97
191.39	2332.64
191.61	2486.23
191.84	2338.78
192.06	2387.93
192.28	2275.29
192.50	2818.00
192.72	2426.84
192.94	2375.64
193.16	2596.82
193.38	2547.67
193.60	2273.25
193.82	2363.36
194.04	2631.64
194.26	2537.43
194.48	2387.93
194.70	2396.12
194.92	2344.92
195.14	2486.23
195.36	2320.35
195.58	2412.51
195.80	2473.95
196.02	2381.79
196.24	2299.87
196.46	2437.08
196.69	2392.03
196.91	2777.05
197.13	2359.26
197.35	2328.54
197.57	2715.61
197.79	2494.43
198.01	2482.14
198.23	2416.60
198.45	2514.91
198.67	2310.11
198.89	2297.82
199.11	2392.03
199.33	2381.79
199.55	2277.34
199.77	2355.16
199.99	2447.32
200.21	2490.33
200.43	2494.43
200.65	2197.47
200.87	2183.13
201.09	2494.43
201.31	2459.61
201.53	2281.44
201.75	2428.89
201.97	2490.33
202.19	2467.80
202.41	2459.61
202.63	2512.86
202.85	2531.29
203.07	2531.29
203.29	2338.78
203.51	2275.29
203.73	2375.64
203.95	2842.58
204.17	2355.16
204.39	2414.56
204.61	2435.03
204.83	2412.51
205.05	2439.13
205.27	2443.23
205.49	2801.62
205.71	2488.28
205.93	2336.73
206.15	2365.40
206.37	2486.23
206.59	2449.37
206.81	2299.87
207.03	2289.63
207.25	2363.36
207.47	2512.86
207.69	2365.40
207.91	2580.44
208.13	2705.37
208.34	2437.08
208.56	2291.68
208.78	2389.98
209.00	2523.10
209.22	2443.23
209.44	2369.50
209.66	2342.88
209.88	2553.82
210.10	2441.18
210.32	2340.83
210.54	2432.99
210.76	2447.32
210.98	2506.71
211.20	2285.53
211.42	2445.27
211.64	2600.92
211.86	2547.67
212.08	2375.64
212.30	2308.06
212.52	2441.18
212.74	2447.32
212.96	2357.21
213.17	2400.22
213.39	2598.87
213.61	2574.30
213.83	2330.59
214.05	2385.88
214.27	2594.78
214.49	2387.93
214.71	2314.20
214.93	2435.03
215.15	2459.61
215.37	2537.43
215.59	2301.92
215.81	2424.80
216.03	2664.41
216.24	2490.33
216.46	2371.55
216.68	2432.99
216.90	2619.35
217.12	2633.69
217.34	2473.95
217.56	2478.04
217.78	2588.63
218.00	2568.15
218.22	2406.36
218.44	2502.62
218.66	2545.63
218.87	2711.51
219.09	2291.68
219.31	2346.97
219.53	2506.71
219.75	2414.56
219.97	2338.78
220.19	2359.26
220.41	2521.05
220.63	2643.93
220.85	2326.49
221.06	2342.88
221.28	2650.07
221.50	2578.39
221.72	2387.93
221.94	2320.35
222.16	2461.66
222.38	2551.77
222.60	2404.32
222.82	2357.21
223.03	2586.58
223.25	2328.54
223.47	2310.11
223.69	2496.47
223.91	2596.82
224.13	2439.13
224.35	2336.73
224.57	2453.47
224.78	2555.86
225.00	2396.12
225.22	2385.88
225.44	2408.41
225.66	2574.30
225.88	2449.37
226.10	2406.36
226.32	2396.12
226.53	2654.17
226.75	2420.70
226.97	2377.69
227.19	2344.92
227.41	2375.64
227.63	2406.36
227.85	2252.77
228.06	2297.82
228.28	2521.05
228.50	2602.97
228.72	2199.52
228.94	2226.14
229.16	2283.49
229.37	2396.12
229.59	2357.21
229.81	2527.19
230.03	2387.93
230.25	2277.34
230.47	2222.05
230.69	2201.57
230.90	2562.01
231.12	2422.75
231.34	2379.74
231.56	2471.90
231.78	2457.56
232.00	2439.13
232.21	2383.84
232.43	2375.64
232.65	2222.05
232.87	2482.14
233.09	2244.57
233.30	2244.57
233.52	2682.84
233.74	2494.43
233.96	2301.92
234.18	2428.89
234.40	2512.86
234.61	2791.38
234.83	2295.77
235.05	2269.15
235.27	2777.05
235.49	2611.16
235.70	2265.05
235.92	2449.37
236.14	2584.54
236.36	2750.42
236.58	2224.09
236.79	2357.21
237.01	2506.71
237.23	2336.73
237.45	2617.30
237.67	2445.27
237.88	2611.16
238.10	2641.88
238.32	2252.77
238.54	2371.55
238.76	2512.86
238.97	2408.41
239.19	2236.38
239.41	2478.04
239.63	2605.02
239.85	2428.89
240.06	2367.45
240.28	2320.35
240.50	2645.98
240.72	2422.75
240.93	2338.78
241.15	2449.37
241.37	2478.04
241.59	2600.92
241.81	2389.98
242.02	2351.07
242.24	2557.91
242.46	2564.06
242.68	2230.24
242.89	2324.44
243.11	2633.69
243.33	2465.75
243.55	2299.87
243.76	2367.45
243.98	2404.32
244.20	2385.88
244.42	2353.12
244.64	2412.51
244.85	2357.21
245.07	2297.82
245.29	2349.02
245.51	2400.22
245.72	2514.91
245.94	2598.87
246.16	2396.12
246.38	2396.12
246.59	2422.75
246.81	2469.85
247.03	2314.20
247.24	2275.29
247.46	2435.03
247.68	2461.66
247.90	2195.42
248.11	2369.50
248.33	2549.72
248.55	2439.13
248.77	2392.03
248.98	2402.27
249.20	2643.93
249.42	2539.48
249.64	2301.92
249.85	2400.22
250.07	2420.70
250.29	2609.11
250.50	2445.27
250.72	2252.77
250.94	2480.09
251.16	2775.00
251.37	2387.93
251.59	2314.20
251.81	2578.39
252.02	2717.65
252.24	2308.06
252.46	2396.12
252.68	2408.41
252.89	2371.55
253.11	2158.56
253.33	2457.56
253.54	2701.27
253.76	2344.92
253.98	2318.30
254.20	2306.01
254.41	2346.97
254.63	2473.95
254.85	2250.72
255.06	2334.68
255.28	2535.39
255.50	2445.27
255.71	2281.44
255.93	2242.53
256.15	2461.66
256.36	2539.48
256.58	2267.10
256.80	2414.56
257.02	2441.18
257.23	2320.35
257.45	2439.13
257.67	2406.36
257.88	2398.17
258.10	2488.28
258.32	2310.11
258.53	2412.51
258.75	2738.13
258.97	2320.35
259.18	2289.63
259.40	2285.53
259.62	2619.35
259.83	2666.46
260.05	2383.84
260.27	2846.68
260.48	2654.17
260.70	2312.16
260.92	2252.77
261.13	2308.06
261.35	2467.80
261.57	2492.38
261.78	2220.00
262.00	2320.35
262.22	2547.67
262.43	2408.41
262.65	2301.92
262.86	2357.21
263.08	2842.58
263.30	2531.29
263.51	2265.05
263.73	2363.36
263.95	2731.99
264.16	2344.92
264.38	2271.20
264.60	2263.01
264.81	2432.99
265.03	2535.39
265.25	2635.74
265.46	2308.06
265.68	2613.21
265.89	2617.30
266.11	2240.48
266.33	2402.27
266.54	2619.35
266.76	2531.29
266.98	2494.43
267.19	2465.75
267.41	2584.54
267.62	2447.32
267.84	2209.76
268.06	2453.47
268.27	2568.15
268.49	2543.58
268.70	2408.41
268.92	2387.93
269.14	2346.97
269.35	2269.15
269.57	2351.07
269.79	2373.60
270.00	2463.71
270.22	2629.59
270.43	2224.09
270.65	2164.70
270.87	2531.29
271.08	2547.67
271.30	2441.18
271.51	2316.25
271.73	2572.25
271.95	2707.41
272.16	2365.40
272.38	2336.73
272.59	2463.71
272.81	2564.06
273.02	2363.36
273.24	2351.07
273.46	2684.89
273.67	2287.58
273.89	2273.25
274.10	2322.40
274.32	2578.39
274.54	2586.58
274.75	2449.37
274.97	2478.04
275.18	2576.34
275.40	2547.67
275.61	2357.21
275.83	2453.47
276.05	2375.64
276.26	2490.33
276.48	2447.32
276.69	2332.64
276.91	2410.46
277.12	2660.31
277.34	2490.33
277.55	2521.05
277.77	2498.52
277.99	2498.52
278.20	2406.36
278.42	2392.03
278.63	2367.45
278.85	2473.95
279.06	2301.92
279.28	2531.29
279.49	2551.77
279.71	2598.87
279.93	2455.51
280.14	2435.03
280.36	2414.56
280.57	2576.34
280.79	2562.01
281.00	2279.39
281.22	2480.09
281.43	2578.39
281.65	2168.80
281.86	2308.06
282.08	2500.57
282.29	2826.20
282.51	2349.02
282.73	2324.44
282.94	2252.77
283.16	2572.25
283.37	2547.67
283.59	2435.03
283.80	2465.75
284.02	2447.32
284.23	2490.33
284.45	2387.93
284.66	2353.12
284.88	2359.26
285.09	2355.16
285.31	2449.37
285.52	2537.43
285.74	2312.16
285.95	2553.82
286.17	2420.70
286.38	2596.82
286.60	2447.32
286.81	2437.08
287.03	2373.60
287.24	2490.33
287.46	2521.05
287.67	2482.14
287.89	2695.13
288.10	2463.71
288.32	2523.10
288.53	2578.39
288.75	2392.03
288.96	2645.98
289.18	2371.55
289.39	2340.83
289.61	2539.48
289.82	2703.32
290.04	2723.80
290.25	2301.92
290.47	2473.95
290.68	2473.95
290.90	2623.45
291.11	2363.36
291.33	2521.05
291.54	2449.37
291.76	2349.02
291.97	2416.60
292.18	2428.89
292.40	2484.19
292.61	2408.41
292.83	2682.84
293.04	2502.62
293.26	2516.95
293.47	2461.66
293.69	2269.15
293.90	2355.16
294.12	2596.82
294.33	2424.80
294.55	2410.46
294.76	2537.43
294.97	2695.13
295.19	2742.23
295.40	2445.27
295.62	2449.37
295.83	2637.78
296.05	2342.88
296.26	2574.30
296.48	2361.31
296.69	2478.04
296.90	2340.83
297.12	2478.04
297.33	2525.15
297.55	2498.52
297.76	2559.96
297.98	2521.05
298.19	2502.62
298.41	2445.27
298.62	2338.78
298.83	2572.25
299.05	2551.77
299.26	2455.51
299.48	2383.84
299.69	2498.52
299.90	2482.14
300.12	2445.27
300.33	2557.91
300.55	2455.51
300.76	2445.27
300.98	2371.55
301.19	2562.01
301.40	2437.08
301.62	2412.51
301.83	2555.86
302.05	2553.82
302.26	2363.36
302.47	2465.75
302.69	2363.36
302.90	2592.73
303.12	2179.04
303.33	2508.76
303.54	2695.13
303.76	2357.21
303.97	2400.22
304.19	2539.48
304.40	2373.60
304.61	2547.67
304.83	2555.86
305.04	2566.10
305.26	2572.25
305.47	2451.42
305.68	2342.88
305.90	2303.96
306.11	2645.98
306.33	2510.81
306.54	2342.88
306.75	2428.89
306.97	2349.02
307.18	2375.64
307.39	2318.30
307.61	2484.19
307.82	2453.47
308.04	2488.28
308.25	2310.11
308.46	2508.76
308.68	2502.62
308.89	2437.08
309.10	2506.71
309.32	2516.95
309.53	2398.17
309.74	2590.68
309.96	2387.93
310.17	2588.63
310.39	2351.07
310.60	2574.30
310.81	2445.27
311.03	2316.25
311.24	2523.10
311.45	2480.09
311.67	2531.29
311.88	2455.51
312.09	2521.05
312.31	2453.47
312.52	2459.61
312.73	2418.65
312.95	2310.11
313.16	2322.40
313.37	2555.86
313.59	2564.06
313.80	2566.10
314.01	2676.70
314.23	2357.21
314.44	2441.18
314.65	2297.82
314.87	2432.99
315.08	2361.31
315.29	2432.99
315.51	2420.70
315.72	2248.67
315.93	2514.91
316.15	2494.43
316.36	2416.60
316.57	2467.80
316.79	2478.04
317.00	2389.98
317.21	2566.10
317.43	2357.21
317.64	2504.67
317.85	2387.93
318.07	2426.84
318.28	2428.89
318.49	2590.68
318.70	2727.89
318.92	2613.21
319.13	2605.02
319.34	2588.63
319.56	2504.67
319.77	2684.89
319.98	2672.60
320.20	2531.29
320.41	2586.58
320.62	2629.59
320.83	2473.95
321.05	2562.01
321.26	2455.51
321.47	2457.56
321.69	2639.83
321.90	2265.05
322.11	2398.17
322.32	2459.61
322.54	2586.58
322.75	2416.60
322.96	2897.88
323.18	2281.44
323.39	2301.92
323.60	2318.30
323.81	2551.77
324.03	2412.51
324.24	2539.48
324.45	2420.70
324.66	2400.22
324.88	2658.26
325.09	2643.93
325.30	2445.27
325.52	2371.55
325.73	2557.91
325.94	2326.49
326.15	2244.57
326.37	2351.07
326.58	2684.89
326.79	2695.13
327.00	2400.22
327.22	2414.56
327.43	2482.14
327.64	2406.36
327.85	2512.86
328.07	2373.60
328.28	2650.07
328.49	2432.99
328.70	2455.51
328.92	2379.74
329.13	2428.89
329.34	2578.39
329.55	2623.45
329.76	2506.71
329.98	2469.85
330.19	2605.02
330.40	2482.14
330.61	2461.66
330.83	2473.95
331.04	2406.36
331.25	2555.86
331.46	2398.17
331.68	2322.40
331.89	2641.88
332.10	2326.49
332.31	2244.57
332.52	2523.10
332.74	2621.40
332.95	2291.68
333.16	2432.99
333.37	2543.58
333.58	2453.47
333.80	2498.52
334.01	2303.96
334.22	2475.99
334.43	2402.27
334.64	2297.82
334.86	2363.36
335.07	2406.36
335.28	2650.07
335.49	2256.86
335.70	2455.51
335.92	2598.87
336.13	2822.10
336.34	2480.09
336.55	2375.64
336.76	2523.10
336.98	2211.81
337.19	2473.95
337.40	2533.34
337.61	2785.24
337.82	2443.23
338.04	2482.14
338.25	2256.86
338.46	2465.75
338.67	2592.73
338.88	2412.51
339.09	2340.83
339.31	2463.71
339.52	2365.40
339.73	2334.68
339.94	2398.17
340.15	2570.20
340.36	2424.80
340.58	2445.27
340.79	2375.64
341.00	2596.82
341.21	2420.70
341.42	2592.73
341.63	2297.82
341.85	2590.68
342.06	2465.75
342.27	2349.02
342.48	2502.62
342.69	2344.92
342.90	2506.71
343.12	2555.86
343.33	2353.12
343.54	2555.86
343.75	2621.40
343.96	2457.56
344.17	2316.25
344.38	2445.27
344.60	2396.12
344.81	2385.88
345.02	2379.74
345.23	2615.26
345.44	2785.24
345.65	2490.33
345.86	2457.56
346.07	2525.15
346.29	2394.08
346.50	2457.56
346.71	2531.29
346.92	2662.36
347.13	2750.42
347.34	2496.47
347.55	2361.31
347.76	2586.58
347.98	2355.16
348.19	2332.64
348.40	2559.96
348.61	2439.13
348.82	2701.27
349.03	2537.43
349.24	2314.20
349.45	2719.70
349.66	2279.39
349.88	2410.46
350.09	2351.07
350.30	2691.03
350.51	2617.30
350.72	2480.09
350.93	2428.89
351.14	2416.60
351.35	2523.10
351.56	2451.42
351.77	2447.32
351.99	2488.28
352.20	2738.13
352.41	2572.25
352.62	2271.20
352.83	2514.91
353.04	2424.80
353.25	2396.12
353.46	2578.39
353.67	2633.69
353.88	2213.85
354.09	2430.94
354.30	2441.18
354.52	2521.05
354.73	2447.32
354.94	2412.51
355.15	2490.33
355.36	2711.51
355.57	2486.23
355.78	2494.43
355.99	2392.03
356.20	2412.51
356.41	2693.08
356.62	2465.75
356.83	2527.19
357.04	2633.69
357.25	2385.88
357.46	2389.98
357.68	2308.06
357.89	2385.88
358.10	2512.86
358.31	2392.03
358.52	2422.75
358.73	2385.88
358.94	2367.45
359.15	2437.08
359.36	2469.85
359.57	2465.75
359.78	2432.99
359.99	2398.17
360.20	2326.49
360.41	2408.41
360.62	2543.58
360.83	2457.56
361.04	2443.23
361.25	2504.67
361.46	2719.70
361.67	2486.23
361.88	2494.43
362.09	2602.97
362.30	2463.71
362.51	2322.40
362.72	2504.67
362.93	2605.02
363.14	2527.19
363.35	2523.10
363.56	2312.16
363.78	2605.02
363.99	2621.40
364.20	2445.27
364.41	2504.67
364.62	2703.32
364.83	2500.57
365.04	2432.99
365.25	2441.18
365.46	2744.28
365.67	2369.50
365.88	2463.71
366.09	2326.49
366.30	2510.81
366.51	2459.61
366.72	2392.03
366.93	2461.66
367.14	2449.37
367.35	2625.50
367.56	2457.56
367.77	2602.97
367.98	2457.56
368.18	2566.10
368.39	2461.66
368.60	2316.25
368.81	2633.69
369.02	2508.76
369.23	2494.43
369.44	2308.06
369.65	2416.60
369.86	2539.48
370.07	2531.29
370.28	2322.40
370.49	2514.91
370.70	2531.29
370.91	2342.88
371.12	2342.88
371.33	2629.59
371.54	2435.03
371.75	2576.34
371.96	2197.47
372.17	2494.43
372.38	2441.18
372.59	2498.52
372.80	2365.40
373.01	2432.99
373.22	2490.33
373.43	2400.22
373.64	2340.83
373.85	2572.25
374.06	2654.17
374.26	2496.47
374.47	2473.95
374.68	2656.22
374.89	2451.42
375.10	2455.51
375.31	2531.29
375.52	2492.38
375.73	2490.33
375.94	2306.01
376.15	2602.97
376.36	2324.44
376.57	2400.22
376.78	2453.47
376.99	2508.76
377.20	2693.08
377.40	2478.04
377.61	2619.35
377.82	2430.94
378.03	2607.06
378.24	2592.73
378.45	2422.75
378.66	2469.85
378.87	2326.49
379.08	2295.77
379.29	2422.75
379.50	2559.96
379.71	2449.37
379.91	2621.40
380.12	2387.93
380.33	2445.27
380.54	2502.62
380.75	2512.86
380.96	2430.94
381.17	2488.28
381.38	2521.05
381.59	2527.19
381.80	2367.45
382.00	2750.42
382.21	2504.67
382.42	2703.32
382.63	2717.65
382.84	2488.28
383.05	2621.40
383.26	2678.74
383.47	2443.23
383.68	2418.65
383.88	2498.52
384.09	2426.84
384.30	2678.74
384.51	2486.23
384.72	2392.03
384.93	2373.60
385.14	2473.95
385.35	2564.06
385.55	2359.26
385.76	2635.74
385.97	2414.56
386.18	2273.25
386.39	2367.45
386.60	2416.60
386.81	2535.39
387.02	2338.78
387.22	2312.16
387.43	2545.63
387.64	2488.28
387.85	2637.78
388.06	2697.17
388.27	4063.17
388.48	8335.23
388.68	12056.39
388.89	14823.20
389.10	15861.52
389.31	14997.28
389.52	11650.89
389.73	10162.02
389.93	8918.90
390.14	8402.82
390.35	7382.93
390.56	6619.04
390.77	5509.04
390.98	4212.67
391.18	3416.01
391.39	2981.84
391.60	2609.11
391.81	2662.36
392.02	2428.89
392.23	2840.53
392.43	2475.99
392.64	2605.02
392.85	2406.36
393.06	2666.46
393.27	2461.66
393.47	2334.68
393.68	2428.89
393.89	2484.19
394.10	2654.17
394.31	2342.88
394.52	2340.83
394.72	2439.13
394.93	2719.70
395.14	2324.44
395.35	2559.96
395.56	2494.43
395.76	2449.37
395.97	2486.23
396.18	2551.77
396.39	2703.32
396.60	2992.08
396.80	2736.09
397.01	2676.70
397.22	2660.31
397.43	2633.69
397.64	2432.99
397.84	2498.52
398.05	2676.70
398.26	2471.90
398.47	2547.67
398.67	2568.15
398.88	2545.63
399.09	2613.21
399.30	2351.07
399.51	2553.82
399.71	2447.32
399.92	2523.10
400.13	2463.71
400.34	2379.74
400.54	2545.63
400.75	2699.22
400.96	2482.14
401.17	2625.50
401.37	2557.91
401.58	2445.27
401.79	2414.56
402.00	2564.06
402.21	2856.92
402.41	2746.33
402.62	2926.55
402.83	2944.98
403.04	2996.18
403.24	3137.49
403.45	2627.54
403.66	2797.53
403.87	2760.66
404.07	2766.81
404.28	2721.75
404.49	2736.09
404.70	2598.87
404.90	2568.15
405.11	2432.99
405.32	2492.38
405.52	2359.26
405.73	2414.56
405.94	2326.49
406.15	2422.75
406.35	2568.15
406.56	2566.10
406.77	2439.13
406.98	2445.27
407.18	2344.92
407.39	2691.03
407.60	2441.18
407.80	2430.94
408.01	2447.32
408.22	2553.82
408.43	2406.36
408.63	2510.81
408.84	2539.48
409.05	2609.11
409.25	2359.26
409.46	2416.60
409.67	2400.22
409.88	2377.69
410.08	2531.29
410.29	2396.12
410.50	2605.02
410.70	2461.66
410.91	2367.45
411.12	2490.33
411.32	2539.48
411.53	2373.60
411.74	2519.00
411.95	2545.63
412.15	2588.63
412.36	2707.41
412.57	2465.75
412.77	2684.89
412.98	2588.63
413.19	2439.13
413.39	2512.86
413.60	2457.56
413.81	2615.26
414.01	2363.36
414.22	2478.04
414.43	2596.82
414.63	2412.51
414.84	2611.16
415.05	2447.32
415.25	2279.39
415.46	2531.29
415.67	2457.56
415.87	2547.67
416.08	2418.65
416.29	2408.41
416.49	2514.91
416.70	2408.41
416.91	2451.42
417.11	2449.37
417.32	2588.63
417.53	2555.86
417.73	2473.95
417.94	2422.75
418.15	2514.91
418.35	2459.61
418.56	2447.32
418.77	2793.43
418.97	2527.19
419.18	2465.75
419.38	2187.23
419.59	2385.88
419.80	2631.64
420.00	2428.89
420.21	2529.24
420.42	2656.22
420.62	2457.56
420.83	2365.40
421.04	2363.36
421.24	2453.47
421.45	2576.34
421.65	2424.80
421.86	2537.43
422.07	2600.92
422.27	2488.28
422.48	2392.03
422.69	2373.60
422.89	2484.19
423.10	2432.99
423.30	2400.22
423.51	2506.71
423.72	2557.91
423.92	2594.78
424.13	2332.64
424.33	2484.19
424.54	2637.78
424.75	2482.14
424.95	2693.08
425.16	2422.75
425.36	2539.48
425.57	2633.69
425.78	2531.29
425.98	2602.97
426.19	2420.70
426.39	2371.55
426.60	2576.34
426.81	2633.69
427.01	2514.91
427.22	2430.94
427.42	2338.78
427.63	2404.32
427.83	2658.26
428.04	2605.02
428.25	2430.94
428.45	2600.92
428.66	2617.30
428.86	2445.27
429.07	2400.22
429.28	2486.23
429.48	2469.85
429.69	2469.85
429.89	2451.42
430.10	2326.49
430.30	2547.67
430.51	2641.88
430.71	2363.36
430.92	2426.84
431.13	2406.36
431.33	2490.33
431.54	2504.67
431.74	2602.97
431.95	2752.47
432.15	2308.06
432.36	2373.60
432.56	2564.06
432.77	2678.74
432.98	2738.13
433.18	2512.86
433.39	2367.45
433.59	2488.28
433.80	2691.03
434.00	2742.23
434.21	2482.14
434.41	2404.32
434.62	2736.09
434.82	2332.64
435.03	2371.55
435.23	2488.28
435.44	2326.49
435.64	2430.94
435.85	2490.33
436.06	2568.15
436.26	2568.15
436.47	2432.99
436.67	2340.83
436.88	2471.90
437.08	2576.34
437.29	2654.17
437.49	2553.82
437.70	2641.88
437.90	2422.75
438.11	2578.39
438.31	2506.71
438.52	2682.84
438.72	2723.80
438.93	2731.99
439.13	2471.90
439.34	2648.02
439.54	2475.99
439.75	2566.10
439.95	2525.15
440.16	2461.66
440.36	2543.58
440.57	2539.48
440.77	2541.53
440.98	2539.48
441.18	2555.86
441.39	2424.80
441.59	2412.51
441.80	2772.95
442.00	2455.51
442.21	2584.54
442.41	2318.30
442.62	2670.55
442.82	2437.08
443.02	2512.86
443.23	2512.86
443.43	2465.75
443.64	2715.61
443.84	2453.47
444.05	2621.40
444.25	2510.81
444.46	2502.62
444.66	2475.99
444.87	2627.54
445.07	2299.87
445.28	2469.85
445.48	2652.12
445.69	2590.68
445.89	2850.77
446.09	2478.04
446.30	2756.57
446.50	2965.46
446.71	4534.20
446.91	5775.27
447.12	6637.47
447.32	7059.35
447.53	6733.72
447.73	5406.64
447.93	4804.53
448.14	4464.57
448.34	4435.90
448.55	3764.17
448.75	3823.56
448.96	3542.99
449.16	3295.18
449.36	3129.30
449.57	2674.65
449.77	2600.92
449.98	2457.56
450.18	2594.78
450.39	2535.39
450.59	2482.14
450.79	2465.75
451.00	2469.85
451.20	2572.25
451.41	2402.27
451.61	2547.67
451.81	2449.37
452.02	2400.22
452.22	2504.67
452.43	2385.88
452.63	2420.70
452.84	2447.32
453.04	2387.93
453.24	2463.71
453.45	2478.04
453.65	2514.91
453.86	2457.56
454.06	2529.24
454.26	2586.58
454.47	2367.45
454.67	2543.58
454.87	2553.82
455.08	2492.38
455.28	2580.44
455.49	2494.43
455.69	2486.23
455.89	2775.00
456.10	2586.58
456.30	2414.56
456.51	2537.43
456.71	2506.71
456.91	2529.24
457.12	2379.74
457.32	2576.34
457.52	2385.88
457.73	2514.91
457.93	2607.06
458.14	2488.28
458.34	2310.11
458.54	2463.71
458.75	2523.10
458.95	2555.86
459.15	2512.86
459.36	2525.15
459.56	2453.47
459.76	2850.77
459.97	2549.72
460.17	2443.23
460.37	2457.56
460.58	2424.80
460.78	2531.29
460.99	2455.51
461.19	2496.47
461.39	2490.33
461.60	2463.71
461.80	2447.32
462.00	2334.68
462.21	2441.18
462.41	2473.95
462.61	2346.97
462.82	2365.40
463.02	2555.86
463.22	2461.66
463.43	2453.47
463.63	2412.51
463.83	2686.94
464.04	2600.92
464.24	2504.67
464.44	2355.16
464.64	2553.82
464.85	2588.63
465.05	2555.86
465.25	2420.70
465.46	2453.47
465.66	2588.63
465.86	2478.04
466.07	2459.61
466.27	2490.33
466.47	2396.12
466.68	2248.67
466.88	2699.22
467.08	2539.48
467.29	2514.91
467.49	2482.14
467.69	2484.19
467.89	2629.59
468.10	2463.71
468.30	2570.20
468.50	2588.63
468.71	2684.89
468.91	2342.88
469.11	2645.98
469.31	2486.23
469.52	2422.75
469.72	2727.89
469.92	2707.41
470.13	2459.61
470.33	2582.49
470.53	2580.44
470.73	2955.22
470.94	3313.61
471.14	3401.68
471.34	3932.10
471.54	3772.36
471.75	3368.91
471.95	3092.43
472.15	3024.85
472.36	3100.62
472.56	2881.49
472.76	3045.33
472.96	2883.54
473.17	2809.81
473.37	2697.17
473.57	2549.72
473.77	2645.98
473.98	2490.33
474.18	2400.22
474.38	2797.53
474.58	2441.18
474.79	2416.60
474.99	2568.15
475.19	2559.96
475.39	2420.70
475.60	2539.48
475.80	2441.18
476.00	2516.95
476.20	2504.67
476.41	2482.14
476.61	2502.62
476.81	2625.50
477.01	2394.08
477.21	2686.94
477.42	2684.89
477.62	2373.60
477.82	2555.86
478.02	2459.61
478.23	2457.56
478.43	2306.01
478.63	2475.99
478.83	2512.86
479.03	2445.27
479.24	2648.02
479.44	2680.79
479.64	2441.18
479.84	2263.01
480.04	2351.07
480.25	2582.49
480.45	2359.26
480.65	2422.75
480.85	2697.17
481.06	2402.27
481.26	2537.43
481.46	2514.91
481.66	2498.52
481.86	2389.98
482.06	2580.44
482.27	2432.99
482.47	2371.55
482.67	2441.18
482.87	2422.75
483.07	2570.20
483.28	2480.09
483.48	2412.51
483.68	2488.28
483.88	2342.88
484.08	2215.90
484.29	2359.26
484.49	2381.79
484.69	2346.97
484.89	2744.28
485.09	2555.86
485.29	2580.44
485.50	2578.39
485.70	2496.47
485.90	2744.28
486.10	2490.33
486.30	2480.09
486.50	2662.36
486.71	2555.86
486.91	2562.01
487.11	2559.96
487.31	2355.16
487.51	2580.44
487.71	2377.69
487.91	2389.98
488.12	2371.55
488.32	2201.57
488.52	2385.88
488.72	2203.61
488.92	2486.23
489.12	2699.22
489.32	2621.40
489.53	2510.81
489.73	2324.44
489.93	2672.60
490.13	2404.32
490.33	2324.44
490.53	2412.51
490.73	2637.78
490.94	2373.60
491.14	2519.00
491.34	2672.60
491.54	2756.57
491.74	3440.59
491.94	4026.31
492.14	4435.90
492.34	4421.56
492.54	4128.70
492.75	3446.73
492.95	3577.80
493.15	3268.56
493.35	3123.15
493.55	3063.76
493.75	2883.54
493.95	3022.80
494.15	2736.09
494.35	2623.45
494.56	2588.63
494.76	2383.84
494.96	2555.86
495.16	2441.18
495.36	2502.62
495.56	2490.33
495.76	2441.18
495.96	2457.56
496.16	2385.88
496.36	2748.37
496.56	2447.32
496.77	2486.23
496.97	2562.01
497.17	2734.04
497.37	2293.72
497.57	2588.63
497.77	2545.63
497.97	2338.78
498.17	2480.09
498.37	2379.74
498.57	2547.67
498.77	2435.03
498.97	2543.58
499.17	2699.22
499.38	2514.91
499.58	2564.06
499.78	2580.44
499.98	2584.54
500.18	2465.75
500.38	2398.17
500.58	2637.78
500.78	3104.72
500.98	5554.09
501.18	7526.29
501.38	9162.61
501.58	10162.02
501.78	9914.22
501.98	8130.44
502.18	6766.49
502.38	5853.09
502.58	5382.06
502.78	4878.26
502.98	4784.06
503.18	4476.86
503.38	4079.55
503.59	3381.20
503.79	3381.20
503.99	3162.06
504.19	3039.19
504.39	3094.48
504.59	3125.20
504.79	3069.91
504.99	3110.86
505.19	2775.00
505.39	2660.31
505.59	2944.98
505.79	2832.34
505.99	2760.66
506.19	2586.58
506.39	2715.61
506.59	2559.96
506.79	2467.80
506.99	2645.98
507.19	2494.43
507.39	2527.19
507.59	2324.44
507.79	2383.84
507.99	2381.79
508.19	2527.19
508.39	2392.03
508.59	2441.18
508.79	2605.02
508.99	2752.47
509.19	2396.12
509.39	2592.73
509.59	2383.84
509.79	2467.80
509.99	2484.19
510.19	2572.25
510.39	2625.50
510.59	2486.23
510.79	2484.19
510.99	2351.07
511.19	2478.04
511.39	2711.51
511.59	2650.07
511.79	2623.45
511.99	2449.37
512.19	2738.13
512.38	2502.62
512.58	2488.28
512.78	2389.98
512.98	2605.02
513.18	2652.12
513.38	2336.73
513.58	2555.86
513.78	2463.71
513.98	2473.95
514.18	2430.94
514.38	2473.95
514.58	2572.25
514.78	2408.41
514.98	2389.98
515.18	2473.95
515.38	2389.98
515.58	2662.36
515.78	2414.56
515.98	2502.62
516.18	2656.22
516.38	2371.55
516.57	2398.17
516.77	2392.03
516.97	2654.17
517.17	2428.89
517.37	2328.54
517.57	2519.00
517.77	2506.71
517.97	2406.36
518.17	2512.86
518.37	2324.44
518.57	2361.31
518.77	2420.70
518.97	2478.04
519.16	2490.33
519.36	2611.16
519.56	2480.09
519.76	2490.33
519.96	2525.15
520.16	2664.41
520.36	2398.17
520.56	2572.25
520.76	2392.03
520.96	2377.69
521.16	2621.40
521.35	2637.78
521.55	2566.10
521.75	2459.61
521.95	2492.38
522.15	2412.51
522.35	2289.63
522.55	2363.36
522.75	2615.26
522.95	2449.37
523.14	2334.68
523.34	2488.28
523.54	2424.80
523.74	2519.00
523.94	2506.71
524.14	2289.63
524.34	2613.21
524.54	2645.98
524.73	2428.89
524.93	2553.82
525.13	2435.03
525.33	2371.55
525.53	2711.51
525.73	2525.15
525.93	2500.57
526.13	2451.42
526.32	2416.60
526.52	2645.98
526.72	2553.82
526.92	2398.17
527.12	2465.75
527.32	2273.25
527.52	2494.43
527.71	2562.01
527.91	2506.71
528.11	2471.90
528.31	2494.43
528.51	2400.22
528.71	2535.39
528.90	2441.18
529.10	2617.30
529.30	2580.44
529.50	2172.89
529.70	2617.30
529.90	2537.43
530.09	2381.79
530.29	2322.40
530.49	2441.18
530.69	2766.81
530.89	2473.95
531.09	2551.77
531.28	2424.80
531.48	2613.21
531.68	2482.14
531.88	2539.48
532.08	2463.71
532.28	2523.10
532.47	2605.02
532.67	2600.92
532.87	2543.58
533.07	2463.71
533.27	2564.06
533.46	2504.67
533.66	2574.30
533.86	2588.63
534.06	2465.75
534.26	2445.27
534.45	2430.94
534.65	2654.17
534.85	2514.91
535.05	2349.02
535.25	2637.78
535.44	2289.63
535.64	2523.10
535.84	2453.47
536.04	2465.75
536.24	2371.55
536.43	2299.87
536.63	2484.19
536.83	2461.66
537.03	2459.61
537.22	2299.87
537.42	2375.64
537.62	2482.14
537.82	2465.75
538.02	2525.15
538.21	2629.59
538.41	2920.40
538.61	2541.53
538.81	2447.32
539.00	2613.21
539.20	2359.26
539.40	2482.14
539.60	2469.85
539.79	2490.33
539.99	2445.27
540.19	2349.02
540.39	2482.14
540.58	2480.09
540.78	2662.36
540.98	2523.10
541.18	2639.83
541.37	2576.34
541.57	2537.43
541.77	2514.91
541.97	2392.03
542.16	2324.44
542.36	2404.32
542.56	2465.75
542.76	2635.74
542.95	2553.82
543.15	2559.96
543.35	2539.48
543.54	2377.69
543.74	2449.37
543.94	2635.74
544.14	2424.80
544.33	2502.62
544.53	2422.75
544.73	2496.47
544.93	2506.71
545.12	2365.40
545.32	2457.56
545.52	2486.23
545.71	2328.54
545.91	2383.84
546.11	2424.80
546.30	2371.55
546.50	2570.20
546.70	2498.52
546.90	2605.02
547.09	2332.64
547.29	2484.19
547.49	2490.33
547.68	2408.41
547.88	2457.56
548.08	2621.40
548.27	2969.55
548.47	2392.03
548.67	2455.51
548.87	2500.57
549.06	2463.71
549.26	2510.81
549.46	2545.63
549.65	2465.75
549.85	2523.10
550.05	2494.43
550.24	2367.45
550.44	2541.53
550.64	2418.65
550.83	2504.67
551.03	2670.55
551.23	2613.21
551.42	2473.95
551.62	2461.66
551.82	2531.29
552.01	2473.95
552.21	2627.54
552.41	2502.62
552.60	2684.89
552.80	2506.71
553.00	2420.70
553.19	2541.53
553.39	2660.31
553.59	2383.84
553.78	2527.19
553.98	2426.84
554.17	2373.60
554.37	2486.23
554.57	2570.20
554.76	2334.68
554.96	2416.60
555.16	2562.01
555.35	2570.20
555.55	2576.34
555.75	2539.48
555.94	2680.79
556.14	2310.11
556.33	2443.23
556.53	2516.95
556.73	2492.38
556.92	2529.24
557.12	2473.95
557.32	2758.61
557.51	2602.97
557.71	2496.47
557.90	2594.78
558.10	2635.74
558.30	2449.37
558.49	2465.75
558.69	2449.37
558.88	2611.16
559.08	2580.44
559.28	2449.37
559.47	2494.43
559.67	2572.25
559.86	2664.41
560.06	2510.81
560.26	2465.75
560.45	2594.78
560.65	2459.61
560.84	2570.20
561.04	2387.93
561.24	2592.73
561.43	2398.17
561.63	2600.92
561.82	2521.05
562.02	2574.30
562.22	2418.65
562.41	2404.32
562.61	2404.32
562.80	2392.03
563.00	2834.39
563.19	2498.52
563.39	2555.86
563.59	2629.59
563.78	2256.86
563.98	2267.10
564.17	2402.27
564.37	2342.88
564.56	2457.56
564.76	2316.25
564.96	2613.21
565.15	2480.09
565.35	2801.62
565.54	2373.60
565.74	2455.51
565.93	2543.58
566.13	2562.01
566.32	2475.99
566.52	2557.91
566.71	2480.09
566.91	2629.59
567.11	2496.47
567.30	2416.60
567.50	2543.58
567.69	2529.24
567.89	2437.08
568.08	2371.55
568.28	2525.15
568.47	2492.38
568.67	2584.54
568.86	2439.13
569.06	2580.44
569.25	2502.62
569.45	2301.92
569.64	2373.60
569.84	2416.60
570.04	2537.43
570.23	2465.75
570.43	2488.28
570.62	2516.95
570.82	2637.78
571.01	2322.40
571.21	2371.55
571.40	2338.78
571.60	2551.77
571.79	2519.00
571.99	2512.86
572.18	2416.60
572.38	2471.90
572.57	2410.46
572.77	2562.01
572.96	2699.22
573.16	2537.43
573.35	2449.37
573.55	2684.89
573.74	2580.44
573.94	2465.75
574.13	2412.51
574.33	2613.21
574.52	2635.74
574.71	2572.25
574.91	2506.71
575.10	2371.55
575.30	2445.27
575.49	2326.49
575.69	2463.71
575.88	2543.58
576.08	2611.16
576.27	2639.83
576.47	2543.58
576.66	2641.88
576.86	2699.22
577.05	2547.67
577.25	2602.97
577.44	2686.94
577.64	2451.42
577.83	2662.36
578.02	2441.18
578.22	2621.40
578.41	2662.36
578.61	2498.52
578.80	2340.83
579.00	2486.23
579.19	2494.43
579.39	2465.75
579.58	2547.67
579.77	2523.10
579.97	2611.16
580.16	2613.21
580.36	2605.02
580.55	2578.39
580.75	2574.30
580.94	2600.92
581.13	2719.70
581.33	2641.88
581.52	2480.09
581.72	2758.61
581.91	2562.01
582.11	2449.37
582.30	2609.11
582.49	2486.23
582.69	2740.18
582.88	2570.20
583.08	2537.43
583.27	2672.60
583.47	2510.81
583.66	2400.22
583.85	2355.16
584.05	2490.33
584.24	2580.44
584.44	2584.54
584.63	2709.46
584.82	2615.26
585.02	2719.70
585.21	2654.17
585.41	2623.45
585.60	2650.07
585.79	2797.53
585.99	2736.09
586.18	2619.35
586.37	3264.46
586.57	5210.03
586.76	15042.33
586.96	34678.25
587.15	47557.93
587.34	56820.89
587.54	61645.91
587.73	55936.17
587.93	39419.30
588.12	29877.82
588.31	24096.40
588.51	21323.45
588.70	19281.63
588.89	17393.40
589.09	14870.30
589.28	12896.06
589.47	10393.44
589.67	8085.38
589.86	6274.98
590.06	4587.45
590.25	3913.67
590.44	3383.24
590.64	2949.08
590.83	2856.92
591.02	2768.85
591.22	2592.73
591.41	2519.00
591.60	2559.96
591.80	2846.68
591.99	2449.37
592.18	2478.04
592.38	2637.78
592.57	2506.71
592.76	2611.16
592.96	2553.82
593.15	2494.43
593.34	2648.02
593.54	2400.22
593.73	2572.25
593.92	2596.82
594.12	2662.36
594.31	2529.24
594.50	2719.70
594.70	2562.01
594.89	2914.26
595.08	2375.64
595.28	2537.43
595.47	2924.50
595.66	2609.11
595.86	2383.84
596.05	2447.32
596.24	2531.29
596.43	2736.09
596.63	2619.35
596.82	2502.62
597.01	2635.74
597.21	2707.41
597.40	2564.06
597.59	2508.76
597.79	2615.26
597.98	2568.15
598.17	2559.96
598.36	2475.99
598.56	2611.16
598.75	2451.42
598.94	2506.71
599.14	2498.52
599.33	2512.86
599.52	2654.17
599.71	2555.86
599.91	2490.33
600.10	2586.58
600.29	2504.67
600.48	2596.82
600.68	2519.00
600.87	2502.62
601.06	2490.33
601.26	2441.18
601.45	2437.08
601.64	2439.13
601.83	2672.60
602.03	2357.21
602.22	2326.49
602.41	2584.54
602.60	2842.58
602.80	2547.67
602.99	2621.40
603.18	2529.24
603.37	2553.82
603.57	2523.10
603.76	2562.01
603.95	2672.60
604.14	2383.84
604.34	2408.41
604.53	2400.22
604.72	2516.95
604.91	2566.10
605.10	2535.39
605.30	2361.31
605.49	2809.81
605.68	2576.34
605.87	2600.92
606.07	2373.60
606.26	2467.80
606.45	2572.25
606.64	2498.52
606.84	2445.27
607.03	2521.05
607.22	2553.82
607.41	2504.67
607.60	2519.00
607.80	2588.63
607.99	2531.29
608.18	2471.90
608.37	2516.95
608.56	2400.22
608.76	2602.97
608.95	2664.41
609.14	2514.91
609.33	2707.41
609.52	2775.00
609.72	2623.45
609.91	2711.51
610.10	2568.15
610.29	2662.36
610.48	2592.73
610.68	2516.95
610.87	2508.76
611.06	2627.54
611.25	2457.56
611.44	2650.07
611.63	2408.41
611.83	2629.59
612.02	2422.75
612.21	2582.49
612.40	2228.19
612.59	2330.59
612.79	2389.98
612.98	2539.48
613.17	2731.99
613.36	2498.52
613.55	2670.55
613.74	2578.39
613.93	2676.70
614.13	2764.76
614.32	2662.36
614.51	2701.27
614.70	2539.48
614.89	2527.19
615.08	2613.21
615.28	3006.42
615.47	2361.31
615.66	2564.06
615.85	2605.02
616.04	2748.37
616.23	2594.78
616.42	2559.96
616.62	2498.52
616.81	2504.67
617.00	2506.71
617.19	2588.63
617.38	2420.70
617.57	2519.00
617.76	2584.54
617.95	2607.06
618.15	2498.52
618.34	2580.44
618.53	2340.83
618.72	2654.17
618.91	2594.78
619.10	2592.73
619.29	2482.14
619.48	2478.04
619.68	2387.93
619.87	2475.99
620.06	2306.01
620.25	2631.64
620.44	2426.84
620.63	2408.41
620.82	2531.29
621.01	2498.52
621.20	2551.77
621.39	2598.87
621.59	2547.67
621.78	2412.51
621.97	2447.32
622.16	2539.48
622.35	2457.56
622.54	2580.44
622.73	2512.86
622.92	2351.07
623.11	2654.17
623.30	2482.14
623.49	2541.53
623.68	2410.46
623.88	2568.15
624.07	2457.56
624.26	2406.36
624.45	2570.20
624.64	2506.71
624.83	2473.95
625.02	2473.95
625.21	2508.76
625.40	2465.75
625.59	2691.03
625.78	2514.91
625.97	2609.11
626.16	2672.60
626.35	2701.27
626.54	2586.58
626.74	2699.22
626.93	2510.81
627.12	2432.99
627.31	2693.08
627.50	2541.53
627.69	2650.07
627.88	2424.80
628.07	2428.89
628.26	2324.44
628.45	2400.22
628.64	2385.88
628.83	2504.67
629.02	2392.03
629.21	2588.63
629.40	2568.15
629.59	2498.52
629.78	2410.46
629.97	2533.34
630.16	2498.52
630.35	2430.94
630.54	2441.18
630.73	2430.94
630.92	2471.90
631.11	2297.82
631.30	2539.48
631.49	2547.67
631.68	2529.24
631.87	2521.05
632.06	2330.59
632.25	2762.71
632.44	2508.76
632.63	2576.34
632.82	2463.71
633.01	2490.33
633.20	2547.67
633.39	2490.33
633.58	2359.26
633.77	2537.43
633.96	2564.06
634.15	2594.78
634.34	2564.06
634.53	2633.69
634.72	2467.80
634.91	2263.01
635.10	2519.00
635.29	2580.44
635.48	2469.85
635.67	2297.82
635.86	2326.49
636.05	2627.54
636.24	2504.67
636.43	2547.67
636.62	2496.47
636.81	2236.38
637.00	2406.36
637.19	2465.75
637.38	2504.67
637.57	2414.56
637.76	2596.82
637.95	2637.78
638.14	2637.78
638.33	2641.88
638.52	2539.48
638.71	2428.89
638.89	2373.60
639.08	2840.53
639.27	2680.79
639.46	2801.62
639.65	3131.34
639.84	3235.79
640.03	3387.34
640.22	3063.76
640.41	3162.06
640.60	2742.23
640.79	2799.57
640.98	2695.13
641.17	2666.46
641.36	2711.51
641.55	2688.98
641.74	2465.75
641.92	2398.17
642.11	2416.60
642.30	2494.43
642.49	2359.26
642.68	2389.98
642.87	2529.24
643.06	2547.67
643.25	2379.74
643.44	2402.27
643.63	2449.37
643.82	2600.92
644.00	2377.69
644.19	2459.61
644.38	2437.08
644.57	2572.25
644.76	2519.00
644.95	2471.90
645.14	2471.90
645.33	2392.03
645.52	2443.23
645.71	2228.19
645.89	2355.16
646.08	2484.19
646.27	2506.71
646.46	2617.30
646.65	2273.25
646.84	2545.63
647.03	2342.88
647.22	2557.91
647.40	2527.19
647.59	2449.37
647.78	2371.55
647.97	2383.84
648.16	2365.40
648.35	2611.16
648.54	2562.01
648.73	2412.51
648.91	2572.25
649.10	2547.67
649.29	2455.51
649.48	2361.31
649.67	2498.52
649.86	2516.95
650.05	2521.05
650.23	2799.57
650.42	2553.82
650.61	2826.20
650.80	2617.30
650.99	2795.48
651.18	2723.80
651.36	2662.36
651.55	2490.33
651.74	2539.48
651.93	2478.04
652.12	2559.96
652.31	2531.29
652.49	2504.67
652.68	2465.75
652.87	2637.78
653.06	2525.15
653.25	2686.94
653.44	2502.62
653.62	2699.22
653.81	2471.90
654.00	2447.32
654.19	2641.88
654.38	2834.39
654.56	2529.24
654.75	2406.36
654.94	2605.02
655.13	2547.67
655.32	2535.39
655.51	2539.48
655.69	2504.67
655.88	2584.54
656.07	2428.89
656.26	2543.58
656.45	2330.59
656.63	2582.49
656.82	2496.47
657.01	2516.95
657.20	2416.60
657.38	2670.55
657.57	2471.90
657.76	2383.84
657.95	2580.44
658.14	2355.16
658.32	2435.03
658.51	2273.25
658.70	2465.75
658.89	2596.82
659.08	2562.01
659.26	2691.03
659.45	2387.93
659.64	2660.31
659.83	2449.37
660.01	2818.00
660.20	2605.02
660.39	2623.45
660.58	2228.19
660.76	2545.63
660.95	2326.49
661.14	2539.48
661.33	2295.77
661.51	2506.71
661.70	2443.23
661.89	2465.75
662.08	2508.76
662.26	2332.64
662.45	2432.99
662.64	2746.33
662.83	2410.46
663.01	2414.56
663.20	2408.41
663.39	2645.98
663.58	2437.08
663.76	2439.13
663.95	2586.58
664.14	2461.66
664.32	2381.79
664.51	2371.55
664.70	2342.88
664.89	2572.25
665.07	2375.64
665.26	2588.63
665.45	2258.91
665.64	2523.10
665.82	2498.52
666.01	2562.01
666.20	2465.75
666.38	2648.02
666.57	2670.55
666.76	3839.94
666.95	9670.51
667.13	17684.21
667.32	22711.97
667.51	26330.73
667.69	28145.23
667.88	24874.63
668.07	17522.42
668.25	14311.21
668.44	11859.79
668.63	10401.63
668.81	9027.45
669.00	7954.31
669.19	7143.32
669.38	6107.04
669.56	5181.36
669.75	4351.93
669.94	3841.99
670.12	3207.12
670.31	2973.65
670.50	2789.33
670.68	2799.57
670.87	2621.40
671.06	2488.28
671.24	2570.20
671.43	2701.27
671.62	2555.86
671.80	2480.09
671.99	2641.88
672.18	2506.71
672.36	2529.24
672.55	2543.58
672.74	2502.62
672.92	2404.32
673.11	2586.58
673.29	2445.27
673.48	2574.30
673.67	2486.23
673.85	2643.93
674.04	2432.99
674.23	2535.39
674.41	2709.46
674.60	2340.83
674.79	2306.01
674.97	2287.58
675.16	2594.78
675.34	2609.11
675.53	2387.93
675.72	2531.29
675.90	2750.42
676.09	2445.27
676.28	2506.71
676.46	2314.20
676.65	2586.58
676.83	2426.84
677.02	2519.00
677.21	2469.85
677.39	2555.86
677.58	2351.07
677.77	2387.93
677.95	2314.20
678.14	2463.71
678.32	2435.03
678.51	2357.21
678.70	2713.56
678.88	2412.51
679.07	2521.05
679.25	2412.51
679.44	2469.85
679.63	2357.21
679.81	2488.28
680.00	2699.22
680.18	2441.18
680.37	2625.50
680.55	2504.67
680.74	2287.58
680.93	2183.13
681.11	2510.81
681.30	2449.37
681.48	2494.43
681.67	2416.60
681.85	2473.95
682.04	2449.37
682.23	2539.48
682.41	2480.09
682.60	2488.28
682.78	2478.04
682.97	2301.92
683.15	2424.80
683.34	2498.52
683.53	2709.46
683.71	2269.15
683.90	2506.71
684.08	2637.78
684.27	2469.85
684.45	2451.42
684.64	2602.97
684.82	2416.60
685.01	2596.82
685.19	2424.80
685.38	2670.55
685.57	2516.95
685.75	2402.27
685.94	2408.41
686.12	2447.32
686.31	2455.51
686.49	2594.78
686.68	2269.15
686.86	2490.33
687.05	2455.51
687.23	2652.12
687.42	2451.42
687.60	2355.16
687.79	2629.59
687.97	2584.54
688.16	2598.87
688.34	2652.12
688.53	2211.81
688.71	2519.00
688.90	2658.26
689.08	2406.36
689.27	2285.53
689.45	2559.96
689.64	2506.71
689.82	2555.86
690.01	2539.48
690.19	2473.95
690.38	2504.67
690.56	2564.06
690.75	2367.45
690.93	2447.32
691.12	2295.77
691.30	2404.32
691.49	2445.27
691.67	2490.33
691.86	2688.98
692.04	2422.75
692.23	2459.61
692.41	2519.00
692.60	2777.05
692.78	2617.30
692.97	2506.71
693.15	2600.92
693.34	2719.70
693.52	2600.92
693.71	2422.75
693.89	2437.08
694.08	2334.68
694.26	2580.44
694.44	2555.86
694.63	2607.06
694.81	2375.64
695.00	2404.32
695.18	2588.63
695.37	2713.56
695.55	2535.39
695.74	2537.43
695.92	2404.32
696.10	2654.17
696.29	2326.49
696.47	2389.98
696.66	2342.88
696.84	2381.79
697.03	2389.98
697.21	2645.98
697.40	3807.17
697.58	2588.63
697.76	2428.89
697.95	2359.26
698.13	2402.27
698.32	2414.56
698.50	2531.29
698.68	2512.86
698.87	2490.33
699.05	2705.37
699.24	2473.95
699.42	2404.32
699.61	2498.52
699.79	2484.19
699.97	2465.75
700.16	2308.06
700.34	2379.74
700.53	2420.70
700.71	2580.44
700.89	2533.34
701.08	2480.09
701.26	2441.18
701.45	2914.26
701.63	2416.60
701.81	2467.80
702.00	2420.70
702.18	2490.33
702.37	2441.18
702.55	2781.14
702.73	2740.18
702.92	2635.74
703.10	2824.15
703.28	2815.96
703.47	2559.96
703.65	2770.90
703.84	2670.55
704.02	2506.71
704.20	2711.51
704.39	2537.43
704.57	2480.09
704.75	2641.88
704.94	2625.50
705.12	2490.33
705.30	2842.58
705.49	5562.28
705.67	12783.42
705.86	21151.42
706.04	24608.39
706.22	28079.70
706.41	28587.60
706.59	23193.25
706.77	16699.14
706.96	14235.43
707.14	12566.34
707.32	10747.74
707.51	9598.83
707.69	7765.90
707.87	6268.83
708.06	5076.91
708.24	4161.47
708.42	3411.92
708.61	3350.48
708.79	2652.12
708.97	2736.09
709.16	2625.50
709.34	2578.39
709.52	2385.88
709.71	2519.00
709.89	2590.68
710.07	2449.37
710.26	2420.70
710.44	2449.37
710.62	2576.34
710.80	2535.39
710.99	2568.15
711.17	2545.63
711.35	2389.98
711.54	2406.36
711.72	2594.78
711.90	2576.34
712.09	2504.67
712.27	2373.60
712.45	2480.09
712.63	2416.60
712.82	2465.75
713.00	2490.33
713.18	2545.63
713.37	2498.52
713.55	2621.40
713.73	2592.73
713.91	2572.25
714.10	2463.71
714.28	2553.82
714.46	2582.49
714.65	2566.10
714.83	2471.90
715.01	2471.90
715.19	2480.09
715.38	2351.07
715.56	2545.63
715.74	2379.74
715.92	2400.22
716.11	2643.93
716.29	2230.24
716.47	2439.13
716.65	2406.36
716.84	2299.87
717.02	2576.34
717.20	2316.25
717.38	2428.89
717.57	2478.04
717.75	2439.13
717.93	2465.75
718.11	2590.68
718.30	2275.29
718.48	2555.86
718.66	2629.59
718.84	2613.21
719.03	2504.67
719.21	2334.68
719.39	2693.08
719.57	2566.10
719.75	2547.67
719.94	2322.40
720.12	2371.55
720.30	2562.01
720.48	2551.77
720.67	2422.75
720.85	2367.45
721.03	2381.79
721.21	2357.21
721.39	2586.58
721.58	2559.96
721.76	2473.95
721.94	2529.24
722.12	2496.47
722.30	2678.74
722.49	2432.99
722.67	2543.58
722.85	2432.99
723.03	2351.07
723.21	2463.71
723.40	2412.51
723.58	2564.06
723.76	2584.54
723.94	2615.26
724.12	2586.58
724.30	2711.51
724.49	2658.26
724.67	2535.39
724.85	2639.83
725.03	2449.37
725.21	2572.25
725.40	2607.06
725.58	2367.45
725.76	2605.02
725.94	2514.91
726.12	2365.40
726.30	2512.86
726.49	2420.70
726.67	2424.80
726.85	2514.91
727.03	2983.89
727.21	4353.98
727.39	5910.44
727.57	6799.26
727.76	7432.08
727.94	7847.82
728.12	7151.51
728.30	5550.00
728.48	4962.23
728.66	4556.73
728.84	4120.51
729.03	3571.66
729.21	3391.44
729.39	2906.07
729.57	2682.84
729.75	2654.17
729.93	2596.82
730.11	2443.23
730.30	2527.19
730.48	2428.89
730.66	2666.46
730.84	2547.67
731.02	2430.94
731.20	2383.84
731.38	2412.51
731.56	2324.44
731.74	2414.56
731.93	2471.90
732.11	2572.25
732.29	2379.74
732.47	2602.97
732.65	2519.00
732.83	2627.54
733.01	2514.91
733.19	2410.46
733.37	2519.00
733.56	2523.10
733.74	2424.80
733.92	2719.70
734.10	2451.42
734.28	2559.96
734.46	2301.92
734.64	2406.36
734.82	2455.51
735.00	2398.17
735.18	2383.84
735.36	2437.08
735.54	2447.32
735.73	2437.08
735.91	2494.43
736.09	2641.88
736.27	2496.47
736.45	2609.11
736.63	2191.33
736.81	2346.97
736.99	2654.17
737.17	2650.07
737.35	2430.94
737.53	2449.37
737.71	2416.60
737.89	2645.98
738.07	2363.36
738.25	2324.44
738.43	2383.84
738.61	2455.51
738.80	2408.41
738.98	2322.40
739.16	2402.27
739.34	2406.36
739.52	2684.89
739.70	2506.71
739.88	2529.24
740.06	2586.58
740.24	2199.52
740.42	2545.63
740.60	2250.72
740.78	2340.83
740.96	2281.44
741.14	2392.03
741.32	2609.11
741.50	2256.86
741.68	2756.57
741.86	2627.54
742.04	2389.98
742.22	2359.26
742.40	2467.80
742.58	2461.66
742.76	2441.18
742.94	2652.12
743.12	2359.26
743.30	2535.39
743.48	2539.48
743.66	2496.47
743.84	2562.01
744.02	2449.37
744.20	2475.99
744.38	2375.64
744.56	2396.12
744.74	2666.46
744.92	2648.02
745.10	2609.11
745.28	2543.58
745.46	2662.36
745.64	2527.19
745.82	2594.78
746.00	2494.43
746.18	2639.83
746.36	2349.02
746.54	2453.47
746.72	2537.43
746.90	2416.60
747.08	2680.79
747.26	2351.07
747.44	2504.67
747.62	2568.15
747.80	2473.95
747.98	2609.11
748.15	2457.56
748.33	2731.99
748.51	2494.43
748.69	2580.44
748.87	2330.59
749.05	2445.27
749.23	2459.61
749.41	2502.62
749.59	2392.03
749.77	2627.54
749.95	2398.17
750.13	2367.45
750.31	2523.10
750.49	2461.66
750.67	2594.78
750.85	2545.63
751.03	2373.60
751.20	2723.80
751.38	2506.71
751.56	2516.95
751.74	2486.23
751.92	2488.28
752.10	2303.96
752.28	2609.11
752.46	2400.22
752.64	2467.80
752.82	2482.14
753.00	2588.63
753.18	2371.55
753.35	2498.52
753.53	2502.62
753.71	2379.74
753.89	2572.25
754.07	2467.80
754.25	2564.06
754.43	2482.14
754.61	2238.43
754.79	2547.67
754.97	2498.52
755.14	2680.79
755.32	2351.07
755.50	2521.05
755.68	2510.81
755.86	2301.92
756.04	2367.45
756.22	2277.34
756.40	2592.73
756.57	2697.17
756.75	2418.65
756.93	2654.17
757.11	2527.19
757.29	2297.82
757.47	2383.84
757.65	2324.44
757.82	2203.61
758.00	2308.06
758.18	2451.42
758.36	2430.94
758.54	2596.82
758.72	2338.78
758.90	2539.48
759.07	2529.24
759.25	2408.41
759.43	2523.10
759.61	2310.11
759.79	3620.81
759.97	2541.53
760.15	2422.75
760.32	2332.64
760.50	2504.67
760.68	2717.65
760.86	2334.68
761.04	2602.97
761.22	2623.45
761.39	2527.19
761.57	2406.36
761.75	2486.23
761.93	2547.67
762.11	2447.32
762.28	2449.37
762.46	2289.63
762.64	2594.78
762.82	2334.68
763.00	2449.37
763.18	2627.54
763.35	2353.12
763.53	2541.53
763.71	2420.70
763.89	2463.71
764.07	2568.15
764.24	2377.69
764.42	2564.06
764.60	2467.80
764.78	2521.05
764.96	2643.93
765.13	2578.39
765.31	2361.31
765.49	2482.14
765.67	2301.92
765.84	2445.27
766.02	2351.07
766.20	2328.54
766.38	2572.25
766.56	2443.23
766.73	2541.53
766.91	2465.75
767.09	2428.89
767.27	2422.75
767.44	2334.68
767.62	2559.96
767.80	2504.67
767.98	2351.07
768.15	2457.56
768.33	2564.06
768.51	2559.96
768.69	2523.10
768.87	2539.48
769.04	2502.62
769.22	2815.96
769.40	2600.92
769.58	2668.50
769.75	2512.86
769.93	2562.01
770.11	2439.13
770.28	2367.45
770.46	2580.44
770.64	2500.57
770.82	2385.88
770.99	2443.23
771.17	2531.29
771.35	2435.03
771.53	2412.51
771.70	2416.60
771.88	2566.10
772.06	2451.42
772.23	2342.88
772.41	2502.62
772.59	2469.85
772.77	2342.88
772.94	2414.56
773.12	2508.76
773.30	2408.41
773.47	2551.77
773.65	2371.55
773.83	2623.45
774.01	2531.29
774.18	2248.67
774.36	2379.74
774.54	2330.59
774.71	2535.39
774.89	2334.68
775.07	2326.49
775.24	2394.08
775.42	2410.46
775.60	2674.65
775.78	2400.22
775.95	2277.34
776.13	2252.77
776.31	2285.53
776.48	2629.59
776.66	2617.30
776.84	2381.79
777.01	2306.01
777.19	2385.88
777.37	2330.59
777.54	2582.49
777.72	2697.17
777.90	2555.86
778.07	2406.36
778.25	2863.06
778.43	2609.11
778.60	2338.78
778.78	2488.28
778.96	2594.78
779.13	2389.98
779.31	2502.62
779.49	2480.09
779.66	2525.15
779.84	2441.18
780.01	2375.64
780.19	2334.68
780.37	2633.69
780.54	2672.60
780.72	2371.55
780.90	2420.70
781.07	2535.39
781.25	2441.18
781.43	2473.95
781.60	2418.65
781.78	2637.78
781.95	2482.14
782.13	2297.82
782.31	2512.86
782.48	2248.67
782.66	2496.47
782.83	2645.98
783.01	2455.51
783.19	2570.20
783.36	2467.80
783.54	2301.92
783.72	2619.35
783.89	2432.99
784.07	2482.14
784.24	2537.43
784.42	2645.98
784.60	2549.72
784.77	2531.29
784.95	2326.49
785.12	2322.40
785.30	2566.10
785.47	2322.40
785.65	2416.60
785.83	2506.71
786.00	2459.61
786.18	2549.72
786.35	2322.40
786.53	2357.21
786.71	2664.41
786.88	2523.10
787.06	2525.15
787.23	2400.22
787.41	2363.36
787.58	2496.47
787.76	2359.26
787.94	2469.85
788.11	2498.52
788.29	2342.88
788.46	2428.89
788.64	2355.16
788.81	2457.56
788.99	2310.11
789.16	2353.12
789.34	2449.37
789.52	2416.60
789.69	2416.60
789.87	2260.96
790.04	2381.79
790.22	2488.28
790.39	2834.39
790.57	2308.06
790.74	2396.12
790.92	2555.86
791.09	2328.54
791.27	2463.71
791.44	2502.62
791.62	2449.37
791.79	2531.29
791.97	2486.23
792.15	2709.46
792.32	2574.30
792.50	2527.19
792.67	2672.60
792.85	2596.82
793.02	2439.13
793.20	2424.80
793.37	2260.96
793.55	2396.12
793.72	2340.83
793.90	2564.06
794.07	2338.78
794.25	2351.07
794.42	2521.05
794.60	2383.84
794.77	2439.13
794.95	2570.20
795.12	2588.63
795.30	2480.09
795.47	2256.86
795.65	2801.62
795.82	2500.57
796.00	2340.83
796.17	2482.14
796.34	2402.27
796.52	2537.43
796.69	2629.59
796.87	2539.48
797.04	2578.39
797.22	2545.63
797.39	2510.81
797.57	2562.01
797.74	2492.38
797.92	2521.05
798.09	2408.41
798.27	2506.71
798.44	2361.31
798.62	2359.26
798.79	2478.04
798.96	2506.71
799.14	2439.13
799.31	2770.90
799.49	2504.67
799.66	2408.41
799.84	2389.98
800.01	2310.11
800.19	2482.14
800.36	2330.59
800.53	2475.99
800.71	2564.06
800.88	2662.36
801.06	2387.93
801.23	2484.19
801.41	2533.34
801.58	2432.99
801.75	2412.51
801.93	2480.09
802.10	2617.30
802.28	2439.13
802.45	2414.56
802.63	2533.34
802.80	2654.17
802.97	2473.95
803.15	2437.08
803.32	2404.32
803.50	2379.74
803.67	2351.07
803.84	2334.68
804.02	2469.85
804.19	2508.76
804.37	2199.52
804.54	2367.45
804.71	2400.22
804.89	2539.48
805.06	2416.60
805.24	2318.30
805.41	2293.72
805.58	2408.41
805.76	2826.20
805.93	2447.32
806.10	2570.20
806.28	2555.86
806.45	2494.43
806.63	2549.72
806.80	2564.06
806.97	2506.71
807.15	2559.96
807.32	2496.47
807.49	2486.23
807.67	2301.92
807.84	2559.96
808.01	2359.26
808.19	2619.35
808.36	2740.18
808.54	2408.41
808.71	2351.07
808.88	2467.80
809.06	2680.79
809.23	2752.47
809.40	2377.69
809.58	2572.25
809.75	2482.14
809.92	2267.10
810.10	2678.74
810.27	2379.74
810.44	2572.25
810.62	2572.25
810.79	2523.10
810.96	2365.40
811.14	2430.94
811.31	2490.33
811.48	2564.06
811.66	2443.23
811.83	2596.82
812.00	2543.58
812.18	2521.05
812.35	2707.41
812.52	2475.99
812.69	2422.75
812.87	2400.22
813.04	2383.84
813.21	2430.94
813.39	2432.99
813.56	2310.11
813.73	2613.21
813.91	2332.64
814.08	2445.27
814.25	2482.14
814.42	2258.91
814.60	2490.33
814.77	2451.42
814.94	2424.80
815.12	2430.94
815.29	2670.55
815.46	2365.40
815.63	2430.94
815.81	2443.23
815.98	2424.80
816.15	2447.32
816.33	2465.75
816.50	2416.60
816.67	2389.98
816.84	2359.26
817.02	2324.44
817.19	2414.56
817.36	2478.04
817.53	2557.91
817.71	2461.66
817.88	2572.25
818.05	2435.03
818.22	2381.79
818.40	2605.02
818.57	2408.41
818.74	2514.91
818.91	2447.32
819.09	2572.25
819.26	2502.62
819.43	2346.97
819.60	2342.88
819.78	2539.48
819.95	2578.39
820.12	2428.89
820.29	2688.98
820.47	2553.82
820.64	2480.09
820.81	2328.54
820.98	2426.84
821.15	2422.75
821.33	2553.82
821.50	2248.67
821.67	2580.44
821.84	2414.56
822.02	2478.04
822.19	2662.36
822.36	2322.40
822.53	2459.61
822.70	2254.81
822.88	2359.26
823.05	2672.60
823.22	2496.47
823.39	2502.62
823.56	2486.23
823.74	2717.65
823.91	2447.32
824.08	2365.40
824.25	2344.92
824.42	2605.02
824.60	2236.38
824.77	2510.81
824.94	2531.29
825.11	2559.96
825.28	2297.82
825.45	2549.72
825.63	2441.18
825.80	2373.60
825.97	2519.00
826.14	2490.33
826.31	2273.25
826.48	2498.52
826.66	2357.21
826.83	2398.17
827.00	2432.99
827.17	2346.97
827.34	2400.22
827.51	2349.02
827.69	2430.94
827.86	2291.68
828.03	2424.80
828.20	2463.71
828.37	2408.41
828.54	2449.37
828.71	2496.47
828.89	2559.96
829.06	2486.23
829.23	2607.06
829.40	2316.25
829.57	2369.50
829.74	2537.43
829.91	2451.42
830.09	2414.56
830.26	2441.18
830.43	2662.36
830.60	2375.64
830.77	2490.33
830.94	2691.03
831.11	2482.14
831.28	2416.60
831.46	2521.05
831.63	2422.75
831.80	2545.63
831.97	2492.38
832.14	2324.44
832.31	2539.48
832.48	2531.29
832.65	2564.06
832.82	2494.43
832.99	2549.72
833.17	2430.94
833.34	2707.41
833.51	2475.99
833.68	2240.48
833.85	2627.54
834.02	2342.88
834.19	2377.69
834.36	2443.23
834.53	2523.10
834.70	2660.31
834.87	2541.53
835.04	2396.12
835.22	2408.41
835.39	2379.74
835.56	2324.44
835.73	2277.34
835.90	2543.58
836.07	2320.35
836.24	2521.05
836.41	2351.07
836.58	2367.45
836.75	2617.30
836.92	2478.04
837.09	2316.25
837.26	2635.74
837.43	2533.34
837.60	2424.80
837.77	2439.13
837.94	2506.71
838.12	2658.26
838.29	2306.01
838.46	2226.14
838.63	2344.92
838.80	2635.74
838.97	2441.18
839.14	2334.68
839.31	2447.32
839.48	2535.39
839.65	2373.60
839.82	2455.51
839.99	2490.33
840.16	2506.71
840.33	2303.96
840.50	2457.56
840.67	2439.13
840.84	2064.35
841.01	2308.06
841.18	2375.64
841.35	2443.23
841.52	2572.25
841.69	2619.35
841.86	2416.60
842.03	2398.17
842.20	2514.91
842.37	2396.12
842.54	2324.44
842.71	2514.91
842.88	2320.35
843.05	2435.03
843.22	2357.21
843.39	2494.43
843.56	2449.37
843.73	2422.75
843.90	2443.23
844.07	2469.85
844.24	2570.20
844.41	2496.47
844.58	2449.37
844.75	2400.22
844.92	2531.29
845.09	2439.13
845.26	2326.49
845.43	2525.15
845.60	2461.66
845.77	2463.71
845.94	2461.66
846.10	2551.77
846.27	2332.64
846.44	2211.81
846.61	2318.30
846.78	2502.62
846.95	2703.32
847.12	2383.84
847.29	2408.41
847.46	2404.32
847.63	2592.73
847.80	2283.49
847.97	2396.12
848.14	2658.26
848.31	2383.84
848.48	2326.49
848.65	2404.32
848.82	2400.22
848.98	2734.04
849.15	2469.85
849.32	2514.91
849.49	2623.45
849.66	2441.18
849.83	2392.03
850.00	2254.81
850.17	2574.30
850.34	2420.70
850.51	2316.25
850.68	2408.41
850.85	2637.78
851.01	2445.27
851.18	2389.98
851.35	2363.36
851.52	2543.58
851.69	2682.84
851.86	2301.92
852.03	2322.40
852.20	2568.15
852.37	2480.09
852.53	2228.19
852.70	2367.45
852.87	2475.99
853.04	2506.71
853.21	2357.21
853.38	2463.71
853.55	2641.88
853.72	2639.83
853.89	2314.20
854.05	2230.24
854.22	2502.62
854.39	2453.47
854.56	2383.84
854.73	2557.91
854.90	2359.26
855.07	2432.99
855.23	2330.59
855.40	2363.36
855.57	2414.56
855.74	2277.34
855.91	2637.78
856.08	2310.11
856.25	2299.87
856.41	2428.89
856.58	2379.74
856.75	2426.84
856.92	2297.82
857.09	2562.01
857.26	2179.04
857.42	2375.64
857.59	2600.92
857.76	2418.65
857.93	2422.75
858.10	2465.75
858.27	2351.07
858.43	2555.86
858.60	2373.60
858.77	2199.52
858.94	2422.75
859.11	2598.87
859.27	2373.60
859.44	2367.45
859.61	2764.76
859.78	2562.01
859.95	2349.02
860.12	2365.40
860.28	2707.41
860.45	2731.99
860.62	2441.18
860.79	2432.99
860.95	2412.51
861.12	2369.50
861.29	2201.57
861.46	2344.92
861.63	2439.13
861.79	2551.77
861.96	2267.10
862.13	2430.94
862.30	2686.94
862.47	2412.51
862.63	2306.01
862.80	2506.71
862.97	2516.95
863.14	2541.53
863.30	2432.99
863.47	2353.12
863.64	2650.07
863.81	2514.91
863.97	2365.40
864.14	2398.17
864.31	2480.09
864.48	2529.24
864.65	2422.75
864.81	2449.37
864.98	2553.82
865.15	2580.44
865.32	2420.70
865.48	2588.63
865.65	2635.74
865.82	2435.03
865.98	2340.83
866.15	2418.65
866.32	2385.88
866.49	2373.60
866.65	2482.14
866.82	2293.72
866.99	2437.08
867.16	2387.93
867.32	2420.70
867.49	2250.72
867.66	2449.37
867.83	2330.59
867.99	2308.06
868.16	2387.93
868.33	2445.27
868.49	2559.96
868.66	2383.84
868.83	2404.32
868.99	2502.62
869.16	2463.71
869.33	2498.52
869.50	2402.27
869.66	2525.15
869.83	2473.95
870.00	2310.11
870.16	2432.99
870.33	2400.22
870.50	2615.26
870.66	2359.26
870.83	2455.51
871.00	2455.51
871.17	2488.28
871.33	2424.80
871.50	2385.88
871.67	2367.45
871.83	2359.26
872.00	2555.86
872.17	2449.37
872.33	2672.60
872.50	2613.21
872.67	2383.84
872.83	2346.97
873.00	2570.20
873.17	2465.75
873.33	2416.60
873.50	2414.56
873.67	2326.49
873.83	2349.02
874.00	2383.84
874.16	2539.48
874.33	2484.19
874.50	2381.79
874.66	2396.12
874.83	2521.05
875.00	2578.39
875.16	2656.22
875.33	2480.09
875.50	2187.23
875.66	2439.13
875.83	2541.53
875.99	2457.56
876.16	2371.55
876.33	2387.93
876.49	2428.89
876.66	2467.80
876.83	2426.84
876.99	2369.50
877.16	2449.37
877.32	2330.59
877.49	2371.55
877.66	2555.86
877.82	2584.54
877.99	2467.80
878.15	2553.82
878.32	2488.28
878.49	2457.56
878.65	2389.98
878.82	2623.45
878.98	2353.12
879.15	2564.06
879.32	2488.28
879.48	2500.57
879.65	2439.13
879.81	2373.60
879.98	2301.92
880.15	2351.07
880.31	2492.38
880.48	2336.73
880.64	2473.95
880.81	2459.61
880.97	2691.03
881.14	2578.39
881.31	2316.25
881.47	2605.02
881.64	2447.32
881.80	2250.72
881.97	2539.48
882.13	2445.27
882.30	2310.11
882.47	2338.78
882.63	2418.65
882.80	2359.26
882.96	2430.94
883.13	2555.86
883.29	2383.84
883.46	2410.46
883.62	2801.62
883.79	2496.47
883.95	2555.86
884.12	2451.42
884.29	2533.34
884.45	2473.95
884.62	2353.12
884.78	2332.64
884.95	2641.88
885.11	2473.95
885.28	2488.28
885.44	2365.40
885.61	2461.66
885.77	2594.78
885.94	2441.18
886.10	2424.80
886.27	2475.99
886.43	2699.22
886.60	2557.91
886.76	2408.41
886.93	2318.30
887.09	2516.95
887.26	2236.38
887.42	2437.08
887.59	2625.50
887.75	2701.27
887.92	2490.33
888.08	2502.62
888.25	2736.09
888.41	2576.34
888.58	2406.36
888.74	2289.63
888.91	2334.68
>>>>>End Processed Spectral Data<<<<<
