SpectraSuite Data File
++++++++++++++++++++++++++++++++++++
Date: Thu May 05 14:42:14 CEST 2016
User: root
Dark Spectrum Present: No
Reference Spectrum Present: No
Number of Sampled Component Spectra: 1
Spectrometers: USB4C02835
Integration Time (usec): 100000 (USB4C02835)
Spectra Averaged: 1 (USB4C02835)
Boxcar Smoothing: 0 (USB4C02835)
Correct for Electrical Dark: No (USB4C02835)
Strobe/Lamp Enabled: No (USB4C02835)
Correct for Detector Non-linearity: No (USB4C02835)
Correct for Stray Light: No (USB4C02835)
Number of Pixels in Processed Spectrum: 3648
>>>>>Begin Processed Spectral Data<<<<<
177.47	1933.28
177.69	1933.28
177.91	1933.28
178.13	1880.04
178.36	1953.76
178.58	2334.68
178.80	2514.91
179.02	2254.81
179.24	2316.25
179.46	2293.72
179.68	2389.98
179.90	2435.03
180.13	2523.10
180.35	2242.53
180.57	2351.07
180.79	2559.96
181.01	2465.75
181.23	2392.03
181.45	2543.58
181.67	2490.33
181.90	2613.21
182.12	2322.40
182.34	2263.01
182.56	2547.67
182.78	2539.48
183.00	2256.86
183.22	2346.97
183.44	2301.92
183.66	2850.77
183.89	2473.95
184.11	2383.84
184.33	2484.19
184.55	2654.17
184.77	2355.16
184.99	2326.49
185.21	2465.75
185.43	2725.85
185.65	2342.88
185.87	2295.77
186.10	2764.76
186.32	2736.09
186.54	2422.75
186.76	2357.21
186.98	2564.06
187.20	2502.62
187.42	2334.68
187.64	2310.11
187.86	2584.54
188.08	2643.93
188.30	2265.05
188.52	2359.26
188.75	2670.55
188.97	2613.21
189.19	2236.38
189.41	2383.84
189.63	2527.19
189.85	2432.99
190.07	2246.62
190.29	2215.90
190.51	2500.57
190.73	2342.88
190.95	2531.29
191.17	2324.44
191.39	2316.25
191.61	2496.47
191.84	2385.88
192.06	2441.18
192.28	2371.55
192.50	2824.15
192.72	2426.84
192.94	2383.84
193.16	2621.40
193.38	2592.73
193.60	2269.15
193.82	2435.03
194.04	2557.91
194.26	2537.43
194.48	2381.79
194.70	2236.38
194.92	2430.94
195.14	2537.43
195.36	2301.92
195.58	2346.97
195.80	2416.60
196.02	2367.45
196.24	2287.58
196.46	2375.64
196.69	2451.42
196.91	2770.90
197.13	2281.44
197.35	2310.11
197.57	2750.42
197.79	2519.00
198.01	2512.86
198.23	2373.60
198.45	2529.24
198.67	2344.92
198.89	2314.20
199.11	2439.13
199.33	2389.98
199.55	2250.72
199.77	2260.96
199.99	2473.95
200.21	2396.12
200.43	2543.58
200.65	2176.99
200.87	2275.29
201.09	2592.73
201.31	2473.95
201.53	2363.36
201.75	2416.60
201.97	2486.23
202.19	2496.47
202.41	2461.66
202.63	2496.47
202.85	2576.34
203.07	2510.81
203.29	2373.60
203.51	2316.25
203.73	2469.85
203.95	2826.20
204.17	2353.12
204.39	2490.33
204.61	2473.95
204.83	2359.26
205.05	2381.79
205.27	2392.03
205.49	2781.14
205.71	2439.13
205.93	2281.44
206.15	2277.34
206.37	2455.51
206.59	2437.08
206.81	2201.57
207.03	2375.64
207.25	2351.07
207.47	2545.63
207.69	2389.98
207.91	2514.91
208.13	2711.51
208.34	2412.51
208.56	2301.92
208.78	2258.91
209.00	2404.32
209.22	2482.14
209.44	2353.12
209.66	2318.30
209.88	2422.75
210.10	2385.88
210.32	2351.07
210.54	2502.62
210.76	2469.85
210.98	2605.02
211.20	2176.99
211.42	2430.94
211.64	2633.69
211.86	2557.91
212.08	2334.68
212.30	2449.37
212.52	2445.27
212.74	2535.39
212.96	2414.56
213.17	2430.94
213.39	2635.74
213.61	2740.18
213.83	2299.87
214.05	2412.51
214.27	2555.86
214.49	2308.06
214.71	2367.45
214.93	2408.41
215.15	2379.74
215.37	2574.30
215.59	2260.96
215.81	2406.36
216.03	2643.93
216.24	2523.10
216.46	2379.74
216.68	2316.25
216.90	2514.91
217.12	2621.40
217.34	2338.78
217.56	2461.66
217.78	2596.82
218.00	2498.52
218.22	2402.27
218.44	2455.51
218.66	2484.19
218.87	2736.09
219.09	2285.53
219.31	2398.17
219.53	2498.52
219.75	2389.98
219.97	2400.22
220.19	2455.51
220.41	2422.75
220.63	2693.08
220.85	2422.75
221.06	2432.99
221.28	2637.78
221.50	2568.15
221.72	2371.55
221.94	2359.26
222.16	2541.53
222.38	2537.43
222.60	2463.71
222.82	2383.84
223.03	2600.92
223.25	2310.11
223.47	2299.87
223.69	2519.00
223.91	2551.77
224.13	2475.99
224.35	2232.29
224.57	2580.44
224.78	2605.02
225.00	2373.60
225.22	2424.80
225.44	2308.06
225.66	2531.29
225.88	2463.71
226.10	2400.22
226.32	2375.64
226.53	2643.93
226.75	2375.64
226.97	2338.78
227.19	2332.64
227.41	2461.66
227.63	2377.69
227.85	2187.23
228.06	2330.59
228.28	2523.10
228.50	2547.67
228.72	2260.96
228.94	2353.12
229.16	2260.96
229.37	2260.96
229.59	2310.11
229.81	2494.43
230.03	2428.89
230.25	2273.25
230.47	2287.58
230.69	2265.05
230.90	2551.77
231.12	2392.03
231.34	2457.56
231.56	2447.32
231.78	2326.49
232.00	2484.19
232.21	2392.03
232.43	2369.50
232.65	2217.95
232.87	2584.54
233.09	2258.91
233.30	2306.01
233.52	2588.63
233.74	2471.90
233.96	2355.16
234.18	2432.99
234.40	2502.62
234.61	2777.05
234.83	2318.30
235.05	2269.15
235.27	2793.43
235.49	2691.03
235.70	2412.51
235.92	2455.51
236.14	2514.91
236.36	2768.85
236.58	2205.66
236.79	2441.18
237.01	2523.10
237.23	2461.66
237.45	2486.23
237.67	2344.92
237.88	2473.95
238.10	2703.32
238.32	2254.81
238.54	2389.98
238.76	2435.03
238.97	2412.51
239.19	2230.24
239.41	2406.36
239.63	2574.30
239.85	2432.99
240.06	2398.17
240.28	2365.40
240.50	2602.97
240.72	2549.72
240.93	2322.40
241.15	2412.51
241.37	2473.95
241.59	2615.26
241.81	2359.26
242.02	2332.64
242.24	2494.43
242.46	2543.58
242.68	2209.76
242.89	2349.02
243.11	2693.08
243.33	2469.85
243.55	2340.83
243.76	2351.07
243.98	2396.12
244.20	2467.80
244.42	2326.49
244.64	2398.17
244.85	2301.92
245.07	2373.60
245.29	2367.45
245.51	2367.45
245.72	2545.63
245.94	2588.63
246.16	2377.69
246.38	2451.42
246.59	2346.97
246.81	2396.12
247.03	2291.68
247.24	2125.79
247.46	2482.14
247.68	2514.91
247.90	2297.82
248.11	2383.84
248.33	2576.34
248.55	2506.71
248.77	2346.97
248.98	2447.32
249.20	2752.47
249.42	2510.81
249.64	2402.27
249.85	2324.44
250.07	2396.12
250.29	2576.34
250.50	2455.51
250.72	2242.53
250.94	2586.58
251.16	2768.85
251.37	2439.13
251.59	2420.70
251.81	2553.82
252.02	2621.40
252.24	2297.82
252.46	2437.08
252.68	2299.87
252.89	2443.23
253.11	2199.52
253.33	2541.53
253.54	2648.02
253.76	2367.45
253.98	2351.07
254.20	2320.35
254.41	2381.79
254.63	2447.32
254.85	2301.92
255.06	2369.50
255.28	2621.40
255.50	2416.60
255.71	2291.68
255.93	2220.00
256.15	2459.61
256.36	2531.29
256.58	2289.63
256.80	2383.84
257.02	2473.95
257.23	2455.51
257.45	2443.23
257.67	2469.85
257.88	2398.17
258.10	2553.82
258.32	2301.92
258.53	2432.99
258.75	2703.32
258.97	2426.84
259.18	2303.96
259.40	2269.15
259.62	2594.78
259.83	2613.21
260.05	2410.46
260.27	2987.99
260.48	2615.26
260.70	2373.60
260.92	2283.49
261.13	2355.16
261.35	2502.62
261.57	2521.05
261.78	2224.09
262.00	2338.78
262.22	2508.76
262.43	2420.70
262.65	2332.64
262.86	2396.12
263.08	2787.29
263.30	2533.34
263.51	2158.56
263.73	2299.87
263.95	2676.70
264.16	2359.26
264.38	2215.90
264.60	2281.44
264.81	2455.51
265.03	2586.58
265.25	2500.57
265.46	2375.64
265.68	2629.59
265.89	2465.75
266.11	2220.00
266.33	2330.59
266.54	2674.65
266.76	2514.91
266.98	2383.84
267.19	2457.56
267.41	2705.37
267.62	2523.10
267.84	2168.80
268.06	2416.60
268.27	2582.49
268.49	2576.34
268.70	2406.36
268.92	2377.69
269.14	2383.84
269.35	2340.83
269.57	2375.64
269.79	2463.71
270.00	2404.32
270.22	2658.26
270.43	2310.11
270.65	2252.77
270.87	2572.25
271.08	2596.82
271.30	2369.50
271.51	2306.01
271.73	2586.58
271.95	2682.84
272.16	2383.84
272.38	2469.85
272.59	2406.36
272.81	2566.10
273.02	2338.78
273.24	2365.40
273.46	2613.21
273.67	2392.03
273.89	2260.96
274.10	2355.16
274.32	2572.25
274.54	2512.86
274.75	2457.56
274.97	2408.41
275.18	2611.16
275.40	2580.44
275.61	2351.07
275.83	2355.16
276.05	2310.11
276.26	2437.08
276.48	2414.56
276.69	2435.03
276.91	2422.75
277.12	2650.07
277.34	2523.10
277.55	2490.33
277.77	2547.67
277.99	2443.23
278.20	2396.12
278.42	2201.57
278.63	2432.99
278.85	2432.99
279.06	2324.44
279.28	2428.89
279.49	2572.25
279.71	2555.86
279.93	2441.18
280.14	2441.18
280.36	2377.69
280.57	2559.96
280.79	2473.95
281.00	2334.68
281.22	2346.97
281.43	2598.87
281.65	2117.60
281.86	2310.11
282.08	2516.95
282.29	2674.65
282.51	2342.88
282.73	2287.58
282.94	2303.96
283.16	2680.79
283.37	2547.67
283.59	2406.36
283.80	2621.40
284.02	2488.28
284.23	2490.33
284.45	2400.22
284.66	2365.40
284.88	2392.03
285.09	2457.56
285.31	2562.01
285.52	2527.19
285.74	2328.54
285.95	2537.43
286.17	2422.75
286.38	2625.50
286.60	2420.70
286.81	2340.83
287.03	2381.79
287.24	2430.94
287.46	2557.91
287.67	2400.22
287.89	2654.17
288.10	2521.05
288.32	2475.99
288.53	2488.28
288.75	2443.23
288.96	2510.81
289.18	2392.03
289.39	2340.83
289.61	2514.91
289.82	2719.70
290.04	2602.97
290.25	2232.29
290.47	2439.13
290.68	2535.39
290.90	2623.45
291.11	2306.01
291.33	2539.48
291.54	2389.98
291.76	2416.60
291.97	2494.43
292.18	2539.48
292.40	2432.99
292.61	2441.18
292.83	2639.83
293.04	2478.04
293.26	2506.71
293.47	2383.84
293.69	2314.20
293.90	2351.07
294.12	2650.07
294.33	2475.99
294.55	2414.56
294.76	2588.63
294.97	2666.46
295.19	2695.13
295.40	2396.12
295.62	2490.33
295.83	2514.91
296.05	2404.32
296.26	2527.19
296.48	2396.12
296.69	2537.43
296.90	2514.91
297.12	2572.25
297.33	2529.24
297.55	2512.86
297.76	2611.16
297.98	2535.39
298.19	2449.37
298.41	2441.18
298.62	2342.88
298.83	2633.69
299.05	2537.43
299.26	2512.86
299.48	2330.59
299.69	2457.56
299.90	2512.86
300.12	2369.50
300.33	2564.06
300.55	2463.71
300.76	2480.09
300.98	2330.59
301.19	2551.77
301.40	2392.03
301.62	2424.80
301.83	2570.20
302.05	2496.47
302.26	2406.36
302.47	2498.52
302.69	2267.10
302.90	2467.80
303.12	2193.37
303.33	2506.71
303.54	2744.28
303.76	2455.51
303.97	2453.47
304.19	2584.54
304.40	2410.46
304.61	2592.73
304.83	2633.69
305.04	2473.95
305.26	2568.15
305.47	2457.56
305.68	2453.47
305.90	2287.58
306.11	2627.54
306.33	2426.84
306.54	2306.01
306.75	2332.64
306.97	2299.87
307.18	2330.59
307.39	2437.08
307.61	2547.67
307.82	2443.23
308.04	2609.11
308.25	2273.25
308.46	2465.75
308.68	2447.32
308.89	2453.47
309.10	2531.29
309.32	2463.71
309.53	2478.04
309.74	2523.10
309.96	2424.80
310.17	2631.64
310.39	2392.03
310.60	2523.10
310.81	2447.32
311.03	2328.54
311.24	2586.58
311.45	2424.80
311.67	2598.87
311.88	2473.95
312.09	2432.99
312.31	2424.80
312.52	2408.41
312.73	2428.89
312.95	2279.39
313.16	2357.21
313.37	2533.34
313.59	2441.18
313.80	2584.54
314.01	2668.50
314.23	2424.80
314.44	2359.26
314.65	2371.55
314.87	2326.49
315.08	2408.41
315.29	2473.95
315.51	2373.60
315.72	2308.06
315.93	2525.15
316.15	2457.56
316.36	2404.32
316.57	2465.75
316.79	2455.51
317.00	2432.99
317.21	2523.10
317.43	2402.27
317.64	2424.80
317.85	2326.49
318.07	2482.14
318.28	2492.38
318.49	2596.82
318.70	2744.28
318.92	2633.69
319.13	2627.54
319.34	2713.56
319.56	2535.39
319.77	2650.07
319.98	2637.78
320.20	2541.53
320.41	2490.33
320.62	2605.02
320.83	2363.36
321.05	2631.64
321.26	2449.37
321.47	2514.91
321.69	2637.78
321.90	2351.07
322.11	2357.21
322.32	2523.10
322.54	2750.42
322.75	2404.32
322.96	2826.20
323.18	2324.44
323.39	2215.90
323.60	2338.78
323.81	2512.86
324.03	2414.56
324.24	2586.58
324.45	2514.91
324.66	2455.51
324.88	2715.61
325.09	2662.36
325.30	2471.90
325.52	2410.46
325.73	2519.00
325.94	2371.55
326.15	2263.01
326.37	2336.73
326.58	2629.59
326.79	2711.51
327.00	2287.58
327.22	2445.27
327.43	2396.12
327.64	2375.64
327.85	2521.05
328.07	2416.60
328.28	2742.23
328.49	2416.60
328.70	2443.23
328.92	2406.36
329.13	2498.52
329.34	2592.73
329.55	2617.30
329.76	2510.81
329.98	2439.13
330.19	2713.56
330.40	2502.62
330.61	2469.85
330.83	2553.82
331.04	2441.18
331.25	2416.60
331.46	2443.23
331.68	2334.68
331.89	2670.55
332.10	2498.52
332.31	2277.34
332.52	2439.13
332.74	2621.40
332.95	2260.96
333.16	2404.32
333.37	2521.05
333.58	2432.99
333.80	2439.13
334.01	2238.43
334.22	2496.47
334.43	2406.36
334.64	2351.07
334.86	2295.77
335.07	2392.03
335.28	2600.92
335.49	2277.34
335.70	2529.24
335.92	2629.59
336.13	2834.39
336.34	2484.19
336.55	2469.85
336.76	2555.86
336.98	2242.53
337.19	2400.22
337.40	2473.95
337.61	2727.89
337.82	2445.27
338.04	2586.58
338.25	2220.00
338.46	2478.04
338.67	2385.88
338.88	2351.07
339.09	2375.64
339.31	2406.36
339.52	2340.83
339.73	2355.16
339.94	2443.23
340.15	2584.54
340.36	2453.47
340.58	2428.89
340.79	2363.36
341.00	2594.78
341.21	2355.16
341.42	2637.78
341.63	2349.02
341.85	2645.98
342.06	2490.33
342.27	2420.70
342.48	2519.00
342.69	2392.03
342.90	2463.71
343.12	2582.49
343.33	2392.03
343.54	2551.77
343.75	2650.07
343.96	2457.56
344.17	2359.26
344.38	2457.56
344.60	2406.36
344.81	2308.06
345.02	2445.27
345.23	2580.44
345.44	2842.58
345.65	2531.29
345.86	2523.10
346.07	2478.04
346.29	2439.13
346.50	2488.28
346.71	2521.05
346.92	2635.74
347.13	2772.95
347.34	2453.47
347.55	2441.18
347.76	2473.95
347.98	2271.20
348.19	2500.57
348.40	2551.77
348.61	2441.18
348.82	2693.08
349.03	2531.29
349.24	2363.36
349.45	2691.03
349.66	2269.15
349.88	2412.51
350.09	2422.75
350.30	2654.17
350.51	2635.74
350.72	2494.43
350.93	2367.45
351.14	2449.37
351.35	2514.91
351.56	2408.41
351.77	2408.41
351.99	2506.71
352.20	2731.99
352.41	2537.43
352.62	2297.82
352.83	2408.41
353.04	2498.52
353.25	2392.03
353.46	2473.95
353.67	2629.59
353.88	2312.16
354.09	2422.75
354.30	2498.52
354.52	2564.06
354.73	2490.33
354.94	2375.64
355.15	2392.03
355.36	2666.46
355.57	2445.27
355.78	2459.61
355.99	2404.32
356.20	2473.95
356.41	2699.22
356.62	2506.71
356.83	2435.03
357.04	2625.50
357.25	2273.25
357.46	2420.70
357.68	2365.40
357.89	2326.49
358.10	2461.66
358.31	2457.56
358.52	2486.23
358.73	2353.12
358.94	2322.40
359.15	2465.75
359.36	2492.38
359.57	2441.18
359.78	2457.56
359.99	2482.14
360.20	2332.64
360.41	2379.74
360.62	2582.49
360.83	2447.32
361.04	2457.56
361.25	2562.01
361.46	2662.36
361.67	2494.43
361.88	2482.14
362.09	2621.40
362.30	2504.67
362.51	2306.01
362.72	2420.70
362.93	2562.01
363.14	2609.11
363.35	2459.61
363.56	2387.93
363.78	2592.73
363.99	2570.20
364.20	2371.55
364.41	2500.57
364.62	2615.26
364.83	2588.63
365.04	2396.12
365.25	2469.85
365.46	2746.33
365.67	2357.21
365.88	2443.23
366.09	2383.84
366.30	2492.38
366.51	2498.52
366.72	2404.32
366.93	2373.60
367.14	2502.62
367.35	2625.50
367.56	2398.17
367.77	2619.35
367.98	2416.60
368.18	2566.10
368.39	2527.19
368.60	2336.73
368.81	2619.35
369.02	2541.53
369.23	2449.37
369.44	2242.53
369.65	2432.99
369.86	2512.86
370.07	2596.82
370.28	2334.68
370.49	2559.96
370.70	2535.39
370.91	2338.78
371.12	2353.12
371.33	2643.93
371.54	2375.64
371.75	2596.82
371.96	2224.09
372.17	2564.06
372.38	2473.95
372.59	2543.58
372.80	2428.89
373.01	2432.99
373.22	2473.95
373.43	2449.37
373.64	2322.40
373.85	2682.84
374.06	2672.60
374.26	2529.24
374.47	2523.10
374.68	2662.36
374.89	2465.75
375.10	2392.03
375.31	2535.39
375.52	2484.19
375.73	2582.49
375.94	2336.73
376.15	2615.26
376.36	2314.20
376.57	2420.70
376.78	2486.23
376.99	2494.43
377.20	2668.50
377.40	2428.89
377.61	2662.36
377.82	2371.55
378.03	2652.12
378.24	2502.62
378.45	2416.60
378.66	2469.85
378.87	2211.81
379.08	2385.88
379.29	2426.84
379.50	2586.58
379.71	2463.71
379.91	2574.30
380.12	2469.85
380.33	2441.18
380.54	2473.95
380.75	2443.23
380.96	2310.11
381.17	2512.86
381.38	2486.23
381.59	2482.14
381.80	2480.09
382.00	2584.54
382.21	2602.97
382.42	2748.37
382.63	2709.46
382.84	2566.10
383.05	2631.64
383.26	2688.98
383.47	2484.19
383.68	2432.99
383.88	2600.92
384.09	2447.32
384.30	2680.79
384.51	2543.58
384.72	2418.65
384.93	2346.97
385.14	2478.04
385.35	2559.96
385.55	2326.49
385.76	2605.02
385.97	2430.94
386.18	2293.72
386.39	2406.36
386.60	2412.51
386.81	2416.60
387.02	2392.03
387.22	2377.69
387.43	2516.95
387.64	2568.15
387.85	2678.74
388.06	2695.13
388.27	4157.38
388.48	8185.73
388.68	11878.22
388.89	14563.11
389.10	15386.39
389.31	14436.13
389.52	11587.41
389.73	9854.83
389.93	8931.19
390.14	8441.73
390.35	7432.08
390.56	6668.19
390.77	5388.21
390.98	4161.47
391.18	3391.44
391.39	3018.71
391.60	2543.58
391.81	2684.89
392.02	2430.94
392.23	2826.20
392.43	2519.00
392.64	2529.24
392.85	2482.14
393.06	2670.55
393.27	2525.15
393.47	2371.55
393.68	2430.94
393.89	2383.84
394.10	2570.20
394.31	2473.95
394.52	2381.79
394.72	2383.84
394.93	2697.17
395.14	2289.63
395.35	2473.95
395.56	2353.12
395.76	2498.52
395.97	2408.41
396.18	2617.30
396.39	2568.15
396.60	2971.60
396.80	2744.28
397.01	2549.72
397.22	2619.35
397.43	2772.95
397.64	2504.67
397.84	2514.91
398.05	2826.20
398.26	2494.43
398.47	2594.78
398.67	2590.68
398.88	2494.43
399.09	2484.19
399.30	2369.50
399.51	2529.24
399.71	2387.93
399.92	2449.37
400.13	2432.99
400.34	2396.12
400.54	2510.81
400.75	2670.55
400.96	2490.33
401.17	2660.31
401.37	2512.86
401.58	2469.85
401.79	2498.52
402.00	2572.25
402.21	2901.97
402.41	2789.33
402.62	2736.09
402.83	2914.26
403.04	2869.20
403.24	3141.58
403.45	2658.26
403.66	2711.51
403.87	2707.41
404.07	2701.27
404.28	2709.46
404.49	2641.88
404.70	2605.02
404.90	2570.20
405.11	2531.29
405.32	2535.39
405.52	2439.13
405.73	2408.41
405.94	2334.68
406.15	2383.84
406.35	2559.96
406.56	2547.67
406.77	2414.56
406.98	2576.34
407.18	2383.84
407.39	2678.74
407.60	2502.62
407.80	2645.98
408.01	2375.64
408.22	2602.97
408.43	2455.51
408.63	2461.66
408.84	2572.25
409.05	2596.82
409.25	2398.17
409.46	2340.83
409.67	2447.32
409.88	2402.27
410.08	2453.47
410.29	2478.04
410.50	2627.54
410.70	2555.86
410.91	2342.88
411.12	2408.41
411.32	2510.81
411.53	2373.60
411.74	2588.63
411.95	2609.11
412.15	2490.33
412.36	2602.97
412.57	2578.39
412.77	2711.51
412.98	2463.71
413.19	2519.00
413.39	2492.38
413.60	2498.52
413.81	2666.46
414.01	2373.60
414.22	2506.71
414.43	2512.86
414.63	2471.90
414.84	2613.21
415.05	2383.84
415.25	2238.43
415.46	2592.73
415.67	2373.60
415.87	2480.09
416.08	2387.93
416.29	2387.93
416.49	2588.63
416.70	2449.37
416.91	2383.84
417.11	2465.75
417.32	2633.69
417.53	2447.32
417.73	2461.66
417.94	2441.18
418.15	2535.39
418.35	2564.06
418.56	2416.60
418.77	2707.41
418.97	2519.00
419.18	2469.85
419.38	2195.42
419.59	2488.28
419.80	2719.70
420.00	2326.49
420.21	2426.84
420.42	2664.41
420.62	2443.23
420.83	2383.84
421.04	2435.03
421.24	2484.19
421.45	2580.44
421.65	2514.91
421.86	2475.99
422.07	2588.63
422.27	2576.34
422.48	2437.08
422.69	2398.17
422.89	2437.08
423.10	2435.03
423.30	2420.70
423.51	2559.96
423.72	2445.27
423.92	2625.50
424.13	2416.60
424.33	2465.75
424.54	2564.06
424.75	2494.43
424.95	2682.84
425.16	2580.44
425.36	2385.88
425.57	2600.92
425.78	2619.35
425.98	2576.34
426.19	2412.51
426.39	2338.78
426.60	2437.08
426.81	2633.69
427.01	2471.90
427.22	2285.53
427.42	2342.88
427.63	2367.45
427.83	2572.25
428.04	2662.36
428.25	2557.91
428.45	2658.26
428.66	2654.17
428.86	2465.75
429.07	2406.36
429.28	2435.03
429.48	2496.47
429.69	2353.12
429.89	2510.81
430.10	2342.88
430.30	2543.58
430.51	2535.39
430.71	2322.40
430.92	2484.19
431.13	2363.36
431.33	2613.21
431.54	2570.20
431.74	2658.26
431.95	2830.29
432.15	2316.25
432.36	2445.27
432.56	2516.95
432.77	2805.72
432.98	2721.75
433.18	2504.67
433.39	2392.03
433.59	2480.09
433.80	2695.13
434.00	2656.22
434.21	2422.75
434.41	2473.95
434.62	2871.25
434.82	2295.77
435.03	2445.27
435.23	2502.62
435.44	2355.16
435.64	2459.61
435.85	2475.99
436.06	2662.36
436.26	2562.01
436.47	2383.84
436.67	2377.69
436.88	2498.52
437.08	2592.73
437.29	2582.49
437.49	2459.61
437.70	2652.12
437.90	2441.18
438.11	2672.60
438.31	2502.62
438.52	2660.31
438.72	2740.18
438.93	2789.33
439.13	2625.50
439.34	2686.94
439.54	2512.86
439.75	2539.48
439.95	2523.10
440.16	2379.74
440.36	2543.58
440.57	2512.86
440.77	2453.47
440.98	2473.95
441.18	2619.35
441.39	2375.64
441.59	2301.92
441.80	2805.72
442.00	2547.67
442.21	2422.75
442.41	2363.36
442.62	2678.74
442.82	2361.31
443.02	2480.09
443.23	2519.00
443.43	2482.14
443.64	2713.56
443.84	2402.27
444.05	2668.50
444.25	2586.58
444.46	2506.71
444.66	2418.65
444.87	2594.78
445.07	2306.01
445.28	2488.28
445.48	2547.67
445.69	2547.67
445.89	2764.76
446.09	2457.56
446.30	2691.03
446.50	3047.38
446.71	4552.63
446.91	5613.48
447.12	6608.80
447.32	6791.06
447.53	6537.12
447.73	5433.26
447.93	4855.73
448.14	4499.39
448.34	4376.51
448.55	3776.45
448.75	3772.36
448.96	3559.37
449.16	3282.89
449.36	3002.32
449.57	2775.00
449.77	2535.39
449.98	2457.56
450.18	2486.23
450.39	2463.71
450.59	2627.54
450.79	2521.05
451.00	2387.93
451.20	2512.86
451.41	2424.80
451.61	2555.86
451.81	2445.27
452.02	2437.08
452.22	2498.52
452.43	2514.91
452.63	2480.09
452.84	2435.03
453.04	2402.27
453.24	2478.04
453.45	2371.55
453.65	2447.32
453.86	2510.81
454.06	2555.86
454.26	2545.63
454.47	2418.65
454.67	2707.41
454.87	2506.71
455.08	2580.44
455.28	2555.86
455.49	2484.19
455.69	2400.22
455.89	2742.23
456.10	2574.30
456.30	2424.80
456.51	2529.24
456.71	2521.05
456.91	2568.15
457.12	2549.72
457.32	2535.39
457.52	2340.83
457.73	2469.85
457.93	2523.10
458.14	2414.56
458.34	2234.33
458.54	2543.58
458.75	2432.99
458.95	2578.39
459.15	2570.20
459.36	2564.06
459.56	2426.84
459.76	2785.24
459.97	2527.19
460.17	2494.43
460.37	2555.86
460.58	2490.33
460.78	2539.48
460.99	2447.32
461.19	2432.99
461.39	2400.22
461.60	2498.52
461.80	2482.14
462.00	2359.26
462.21	2459.61
462.41	2398.17
462.61	2326.49
462.82	2318.30
463.02	2592.73
463.22	2490.33
463.43	2625.50
463.63	2359.26
463.83	2654.17
464.04	2516.95
464.24	2531.29
464.44	2396.12
464.64	2467.80
464.85	2547.67
465.05	2547.67
465.25	2426.84
465.46	2428.89
465.66	2572.25
465.86	2596.82
466.07	2383.84
466.27	2514.91
466.47	2293.72
466.68	2244.57
466.88	2654.17
467.08	2506.71
467.29	2543.58
467.49	2502.62
467.69	2471.90
467.89	2613.21
468.10	2428.89
468.30	2553.82
468.50	2551.77
468.71	2592.73
468.91	2437.08
469.11	2613.21
469.31	2510.81
469.52	2398.17
469.72	2680.79
469.92	2699.22
470.13	2428.89
470.33	2457.56
470.53	2545.63
470.73	2889.68
470.94	3233.74
471.14	3401.68
471.34	3948.48
471.54	3616.71
471.75	3332.05
471.95	3137.49
472.15	3026.90
472.36	3110.86
472.56	2893.78
472.76	2951.12
472.96	2914.26
473.17	2772.95
473.37	2721.75
473.57	2529.24
473.77	2572.25
473.98	2457.56
474.18	2340.83
474.38	2891.73
474.58	2408.41
474.79	2383.84
474.99	2510.81
475.19	2598.87
475.39	2385.88
475.60	2521.05
475.80	2498.52
476.00	2549.72
476.20	2416.60
476.41	2514.91
476.61	2568.15
476.81	2613.21
477.01	2389.98
477.21	2645.98
477.42	2580.44
477.62	2344.92
477.82	2502.62
478.02	2424.80
478.23	2514.91
478.43	2346.97
478.63	2453.47
478.83	2459.61
479.03	2490.33
479.24	2592.73
479.44	2752.47
479.64	2336.73
479.84	2213.85
480.04	2357.21
480.25	2582.49
480.45	2412.51
480.65	2351.07
480.85	2662.36
481.06	2426.84
481.26	2506.71
481.46	2486.23
481.66	2541.53
481.86	2396.12
482.06	2551.77
482.27	2465.75
482.47	2406.36
482.67	2568.15
482.87	2379.74
483.07	2512.86
483.28	2432.99
483.48	2400.22
483.68	2461.66
483.88	2445.27
484.08	2260.96
484.29	2361.31
484.49	2480.09
484.69	2328.54
484.89	2721.75
485.09	2600.92
485.29	2547.67
485.50	2611.16
485.70	2453.47
485.90	2617.30
486.10	2555.86
486.30	2504.67
486.50	2688.98
486.71	2486.23
486.91	2537.43
487.11	2578.39
487.31	2265.05
487.51	2635.74
487.71	2308.06
487.91	2346.97
488.12	2441.18
488.32	2267.10
488.52	2498.52
488.72	2299.87
488.92	2547.67
489.12	2641.88
489.32	2496.47
489.53	2498.52
489.73	2351.07
489.93	2678.74
490.13	2420.70
490.33	2301.92
490.53	2492.38
490.73	2660.31
490.94	2299.87
491.14	2617.30
491.34	2521.05
491.54	2699.22
491.74	3411.92
491.94	4054.98
492.14	4374.46
492.34	4415.42
492.54	4038.59
492.75	3416.01
492.95	3323.85
493.15	3160.02
493.35	3184.59
493.55	3057.62
493.75	2908.12
493.95	3028.95
494.15	2717.65
494.35	2555.86
494.56	2527.19
494.76	2443.23
494.96	2545.63
495.16	2451.42
495.36	2568.15
495.56	2500.57
495.76	2392.03
495.96	2426.84
496.16	2340.83
496.36	2764.76
496.56	2422.75
496.77	2490.33
496.97	2539.48
497.17	2686.94
497.37	2334.68
497.57	2623.45
497.77	2488.28
497.97	2338.78
498.17	2394.08
498.37	2486.23
498.57	2613.21
498.77	2467.80
498.97	2619.35
499.17	2617.30
499.38	2480.09
499.58	2596.82
499.78	2596.82
499.98	2666.46
500.18	2424.80
500.38	2424.80
500.58	2746.33
500.78	3088.34
500.98	5388.21
501.18	7466.89
501.38	9084.79
501.58	10106.73
501.78	10088.29
501.98	7868.30
502.18	6776.73
502.38	5754.79
502.58	5410.73
502.78	4790.20
502.98	4659.13
503.18	4423.61
503.38	4083.65
503.59	3571.66
503.79	3395.53
503.99	3176.40
504.19	3112.91
504.39	3141.58
504.59	3010.51
504.79	2992.08
504.99	3164.11
505.19	2846.68
505.39	2727.89
505.59	2854.87
505.79	2838.48
505.99	2684.89
506.19	2494.43
506.39	2719.70
506.59	2576.34
506.79	2512.86
506.99	2594.78
507.19	2508.76
507.39	2592.73
507.59	2330.59
507.79	2392.03
507.99	2381.79
508.19	2539.48
508.39	2482.14
508.59	2494.43
508.79	2602.97
508.99	2686.94
509.19	2373.60
509.39	2533.34
509.59	2357.21
509.79	2357.21
509.99	2443.23
510.19	2478.04
510.39	2588.63
510.59	2482.14
510.79	2412.51
510.99	2373.60
511.19	2531.29
511.39	2695.13
511.59	2613.21
511.79	2625.50
511.99	2432.99
512.19	2668.50
512.38	2428.89
512.58	2351.07
512.78	2430.94
512.98	2621.40
513.18	2703.32
513.38	2326.49
513.58	2539.48
513.78	2447.32
513.98	2514.91
514.18	2441.18
514.38	2492.38
514.58	2578.39
514.78	2486.23
514.98	2471.90
515.18	2473.95
515.38	2375.64
515.58	2744.28
515.78	2400.22
515.98	2420.70
516.18	2572.25
516.38	2455.51
516.57	2396.12
516.77	2428.89
516.97	2678.74
517.17	2473.95
517.37	2234.33
517.57	2480.09
517.77	2502.62
517.97	2523.10
518.17	2490.33
518.37	2308.06
518.57	2359.26
518.77	2428.89
518.97	2512.86
519.16	2516.95
519.36	2707.41
519.56	2488.28
519.76	2404.32
519.96	2467.80
520.16	2641.88
520.36	2379.74
520.56	2703.32
520.76	2441.18
520.96	2432.99
521.16	2586.58
521.35	2547.67
521.55	2607.06
521.75	2469.85
521.95	2459.61
522.15	2408.41
522.35	2254.81
522.55	2416.60
522.75	2564.06
522.95	2486.23
523.14	2375.64
523.34	2504.67
523.54	2394.08
523.74	2504.67
523.94	2508.76
524.14	2306.01
524.34	2584.54
524.54	2645.98
524.73	2424.80
524.93	2553.82
525.13	2473.95
525.33	2383.84
525.53	2744.28
525.73	2531.29
525.93	2463.71
526.13	2527.19
526.32	2355.16
526.52	2594.78
526.72	2639.83
526.92	2437.08
527.12	2490.33
527.32	2322.40
527.52	2594.78
527.71	2490.33
527.91	2447.32
528.11	2519.00
528.31	2496.47
528.51	2381.79
528.71	2537.43
528.90	2531.29
529.10	2617.30
529.30	2551.77
529.50	2230.24
529.70	2633.69
529.90	2455.51
530.09	2457.56
530.29	2258.91
530.49	2424.80
530.69	2901.97
530.89	2463.71
531.09	2594.78
531.28	2432.99
531.48	2605.02
531.68	2475.99
531.88	2527.19
532.08	2572.25
532.28	2461.66
532.47	2553.82
532.67	2611.16
532.87	2580.44
533.07	2330.59
533.27	2594.78
533.46	2557.91
533.66	2572.25
533.86	2490.33
534.06	2498.52
534.26	2486.23
534.45	2578.39
534.65	2678.74
534.85	2514.91
535.05	2355.16
535.25	2598.87
535.44	2373.60
535.64	2557.91
535.84	2461.66
536.04	2445.27
536.24	2531.29
536.43	2408.41
536.63	2449.37
536.83	2445.27
537.03	2445.27
537.22	2308.06
537.42	2291.68
537.62	2500.57
537.82	2414.56
538.02	2652.12
538.21	2617.30
538.41	2901.97
538.61	2592.73
538.81	2430.94
539.00	2543.58
539.20	2449.37
539.40	2455.51
539.60	2392.03
539.79	2605.02
539.99	2512.86
540.19	2428.89
540.39	2437.08
540.58	2586.58
540.78	2545.63
540.98	2533.34
541.18	2568.15
541.37	2545.63
541.57	2582.49
541.77	2451.42
541.97	2338.78
542.16	2332.64
542.36	2422.75
542.56	2402.27
542.76	2668.50
542.95	2559.96
543.15	2531.29
543.35	2555.86
543.54	2365.40
543.74	2365.40
543.94	2709.46
544.14	2408.41
544.33	2549.72
544.53	2484.19
544.73	2461.66
544.93	2445.27
545.12	2496.47
545.32	2435.03
545.52	2453.47
545.71	2346.97
545.91	2430.94
546.11	2471.90
546.30	2310.11
546.50	2514.91
546.70	2570.20
546.90	2506.71
547.09	2379.74
547.29	2531.29
547.49	2506.71
547.68	2471.90
547.88	2439.13
548.08	2668.50
548.27	2912.21
548.47	2463.71
548.67	2455.51
548.87	2512.86
549.06	2445.27
549.26	2451.42
549.46	2600.92
549.65	2424.80
549.85	2508.76
550.05	2594.78
550.24	2332.64
550.44	2449.37
550.64	2498.52
550.83	2504.67
551.03	2547.67
551.23	2531.29
551.42	2492.38
551.62	2455.51
551.82	2512.86
552.01	2539.48
552.21	2619.35
552.41	2523.10
552.60	2670.55
552.80	2539.48
553.00	2416.60
553.19	2531.29
553.39	2734.04
553.59	2381.79
553.78	2484.19
553.98	2531.29
554.17	2324.44
554.37	2582.49
554.57	2482.14
554.76	2267.10
554.96	2506.71
555.16	2519.00
555.35	2498.52
555.55	2469.85
555.75	2568.15
555.94	2547.67
556.14	2342.88
556.33	2498.52
556.53	2449.37
556.73	2441.18
556.92	2449.37
557.12	2557.91
557.32	2703.32
557.51	2650.07
557.71	2457.56
557.90	2729.94
558.10	2676.70
558.30	2465.75
558.49	2449.37
558.69	2451.42
558.88	2619.35
559.08	2516.95
559.28	2457.56
559.47	2504.67
559.67	2611.16
559.86	2834.39
560.06	2408.41
560.26	2475.99
560.45	2586.58
560.65	2471.90
560.84	2711.51
561.04	2422.75
561.24	2553.82
561.43	2365.40
561.63	2588.63
561.82	2504.67
562.02	2629.59
562.22	2353.12
562.41	2330.59
562.61	2387.93
562.80	2422.75
563.00	2746.33
563.19	2531.29
563.39	2449.37
563.59	2627.54
563.78	2441.18
563.98	2226.14
564.17	2389.98
564.37	2322.40
564.56	2592.73
564.76	2326.49
564.96	2570.20
565.15	2559.96
565.35	2815.96
565.54	2459.61
565.74	2439.13
565.93	2547.67
566.13	2447.32
566.32	2496.47
566.52	2486.23
566.71	2498.52
566.91	2627.54
567.11	2572.25
567.30	2430.94
567.50	2545.63
567.69	2516.95
567.89	2422.75
568.08	2416.60
568.28	2562.01
568.47	2359.26
568.67	2516.95
568.86	2441.18
569.06	2629.59
569.25	2379.74
569.45	2371.55
569.64	2441.18
569.84	2365.40
570.04	2539.48
570.23	2428.89
570.43	2529.24
570.62	2549.72
570.82	2709.46
571.01	2381.79
571.21	2367.45
571.40	2424.80
571.60	2637.78
571.79	2498.52
571.99	2521.05
572.18	2412.51
572.38	2570.20
572.57	2465.75
572.77	2541.53
572.96	2846.68
573.16	2564.06
573.35	2447.32
573.55	2605.02
573.74	2555.86
573.94	2473.95
574.13	2443.23
574.33	2541.53
574.52	2645.98
574.71	2514.91
574.91	2570.20
575.10	2375.64
575.30	2424.80
575.49	2332.64
575.69	2445.27
575.88	2480.09
576.08	2580.44
576.27	2654.17
576.47	2473.95
576.66	2641.88
576.86	2686.94
577.05	2582.49
577.25	2533.34
577.44	2598.87
577.64	2498.52
577.83	2527.19
578.02	2525.15
578.22	2645.98
578.41	2648.02
578.61	2443.23
578.80	2414.56
579.00	2527.19
579.19	2512.86
579.39	2533.34
579.58	2588.63
579.77	2506.71
579.97	2672.60
580.16	2713.56
580.36	2635.74
580.55	2650.07
580.75	2619.35
580.94	2492.38
581.13	2582.49
581.33	2660.31
581.52	2551.77
581.72	2750.42
581.91	2656.22
582.11	2465.75
582.30	2717.65
582.49	2592.73
582.69	2637.78
582.88	2572.25
583.08	2539.48
583.27	2605.02
583.47	2547.67
583.66	2439.13
583.85	2404.32
584.05	2494.43
584.24	2592.73
584.44	2611.16
584.63	2602.97
584.82	2697.17
585.02	2686.94
585.21	2715.61
585.41	2650.07
585.60	2654.17
585.79	2801.62
585.99	2818.00
586.18	2613.21
586.37	3254.22
586.57	4980.66
586.76	14702.37
586.96	33777.15
587.15	47537.45
587.34	56407.20
587.54	61041.76
587.73	55350.45
587.93	38915.50
588.12	29480.51
588.31	23903.89
588.51	20971.20
588.70	19312.35
588.89	17291.00
589.09	14905.12
589.28	12842.81
589.47	9998.18
589.67	7911.30
589.86	6139.81
590.06	4667.32
590.25	3854.28
590.44	3334.09
590.64	3006.42
590.83	2760.66
591.02	2752.47
591.22	2605.02
591.41	2519.00
591.60	2553.82
591.80	2889.68
591.99	2392.03
592.18	2455.51
592.38	2729.94
592.57	2449.37
592.76	2514.91
592.96	2541.53
593.15	2482.14
593.34	2588.63
593.54	2547.67
593.73	2525.15
593.92	2557.91
594.12	2656.22
594.31	2598.87
594.50	2678.74
594.70	2598.87
594.89	2846.68
595.08	2416.60
595.28	2586.58
595.47	2899.92
595.66	2617.30
595.86	2404.32
596.05	2478.04
596.24	2420.70
596.43	2701.27
596.63	2705.37
596.82	2541.53
597.01	2555.86
597.21	2824.15
597.40	2547.67
597.59	2502.62
597.79	2500.57
597.98	2572.25
598.17	2584.54
598.36	2519.00
598.56	2623.45
598.75	2441.18
598.94	2527.19
599.14	2519.00
599.33	2432.99
599.52	2662.36
599.71	2506.71
599.91	2537.43
600.10	2555.86
600.29	2494.43
600.48	2543.58
600.68	2516.95
600.87	2623.45
601.06	2443.23
601.26	2506.71
601.45	2502.62
601.64	2445.27
601.83	2654.17
602.03	2428.89
602.22	2334.68
602.41	2629.59
602.60	2840.53
602.80	2523.10
602.99	2568.15
603.18	2426.84
603.37	2580.44
603.57	2482.14
603.76	2592.73
603.95	2553.82
604.14	2529.24
604.34	2359.26
604.53	2469.85
604.72	2447.32
604.91	2645.98
605.10	2430.94
605.30	2334.68
605.49	2719.70
605.68	2670.55
605.87	2564.06
606.07	2400.22
606.26	2508.76
606.45	2641.88
606.64	2432.99
606.84	2441.18
607.03	2600.92
607.22	2699.22
607.41	2523.10
607.60	2512.86
607.80	2637.78
607.99	2523.10
608.18	2514.91
608.37	2453.47
608.56	2357.21
608.76	2568.15
608.95	2676.70
609.14	2568.15
609.33	2723.80
609.52	2754.52
609.72	2557.91
609.91	2633.69
610.10	2611.16
610.29	2713.56
610.48	2621.40
610.68	2598.87
610.87	2533.34
611.06	2576.34
611.25	2529.24
611.44	2615.26
611.63	2414.56
611.83	2674.65
612.02	2273.25
612.21	2588.63
612.40	2336.73
612.59	2324.44
612.79	2340.83
612.98	2486.23
613.17	2770.90
613.36	2564.06
613.55	2736.09
613.74	2527.19
613.93	2588.63
614.13	2678.74
614.32	2697.17
614.51	2670.55
614.70	2666.46
614.89	2576.34
615.08	2562.01
615.28	2965.46
615.47	2410.46
615.66	2576.34
615.85	2531.29
616.04	2684.89
616.23	2615.26
616.42	2514.91
616.62	2449.37
616.81	2512.86
617.00	2586.58
617.19	2584.54
617.38	2510.81
617.57	2455.51
617.76	2605.02
617.95	2654.17
618.15	2533.34
618.34	2654.17
618.53	2295.77
618.72	2670.55
618.91	2658.26
619.10	2594.78
619.29	2432.99
619.48	2473.95
619.68	2416.60
619.87	2451.42
620.06	2392.03
620.25	2598.87
620.44	2465.75
620.63	2457.56
620.82	2547.67
621.01	2473.95
621.20	2467.80
621.39	2492.38
621.59	2521.05
621.78	2523.10
621.97	2471.90
622.16	2494.43
622.35	2531.29
622.54	2559.96
622.73	2629.59
622.92	2295.77
623.11	2682.84
623.30	2467.80
623.49	2498.52
623.68	2418.65
623.88	2607.06
624.07	2473.95
624.26	2469.85
624.45	2535.39
624.64	2490.33
624.83	2473.95
625.02	2383.84
625.21	2441.18
625.40	2545.63
625.59	2660.31
625.78	2496.47
625.97	2555.86
626.16	2809.81
626.35	2664.41
626.54	2617.30
626.74	2727.89
626.93	2535.39
627.12	2523.10
627.31	2562.01
627.50	2539.48
627.69	2545.63
627.88	2383.84
628.07	2543.58
628.26	2228.19
628.45	2379.74
628.64	2353.12
628.83	2437.08
629.02	2326.49
629.21	2547.67
629.40	2594.78
629.59	2504.67
629.78	2482.14
629.97	2492.38
630.16	2484.19
630.35	2457.56
630.54	2539.48
630.73	2355.16
630.92	2519.00
631.11	2416.60
631.30	2586.58
631.49	2588.63
631.68	2449.37
631.87	2492.38
632.06	2389.98
632.25	2791.38
632.44	2535.39
632.63	2643.93
632.82	2469.85
633.01	2494.43
633.20	2590.68
633.39	2463.71
633.58	2373.60
633.77	2592.73
633.96	2602.97
634.15	2637.78
634.34	2602.97
634.53	2596.82
634.72	2424.80
634.91	2306.01
635.10	2488.28
635.29	2676.70
635.48	2478.04
635.67	2383.84
635.86	2418.65
636.05	2643.93
636.24	2551.77
636.43	2523.10
636.62	2488.28
636.81	2193.37
637.00	2496.47
637.19	2498.52
637.38	2535.39
637.57	2432.99
637.76	2553.82
637.95	2639.83
638.14	2555.86
638.33	2600.92
638.52	2475.99
638.71	2461.66
638.89	2318.30
639.08	2904.02
639.27	2754.52
639.46	2711.51
639.65	3145.68
639.84	3192.78
640.03	3416.01
640.22	3145.68
640.41	3182.54
640.60	2879.44
640.79	2725.85
640.98	2607.06
641.17	2725.85
641.36	2725.85
641.55	2621.40
641.74	2496.47
641.92	2457.56
642.11	2506.71
642.30	2519.00
642.49	2342.88
642.68	2383.84
642.87	2578.39
643.06	2588.63
643.25	2441.18
643.44	2375.64
643.63	2457.56
643.82	2693.08
644.00	2334.68
644.19	2449.37
644.38	2392.03
644.57	2566.10
644.76	2488.28
644.95	2469.85
645.14	2488.28
645.33	2480.09
645.52	2496.47
645.71	2256.86
645.89	2392.03
646.08	2514.91
646.27	2482.14
646.46	2670.55
646.65	2351.07
646.84	2469.85
647.03	2424.80
647.22	2553.82
647.40	2572.25
647.59	2471.90
647.78	2301.92
647.97	2357.21
648.16	2351.07
648.35	2666.46
648.54	2605.02
648.73	2465.75
648.91	2621.40
649.10	2500.57
649.29	2387.93
649.48	2412.51
649.67	2482.14
649.86	2566.10
650.05	2539.48
650.23	2731.99
650.42	2594.78
650.61	2748.37
650.80	2731.99
650.99	2822.10
651.18	2666.46
651.36	2674.65
651.55	2506.71
651.74	2670.55
651.93	2447.32
652.12	2512.86
652.31	2496.47
652.49	2484.19
652.68	2488.28
652.87	2641.88
653.06	2580.44
653.25	2760.66
653.44	2537.43
653.62	2744.28
653.81	2416.60
654.00	2461.66
654.19	2506.71
654.38	2777.05
654.56	2559.96
654.75	2412.51
654.94	2551.77
655.13	2455.51
655.32	2457.56
655.51	2504.67
655.69	2340.83
655.88	2496.47
656.07	2359.26
656.26	2449.37
656.45	2267.10
656.63	2510.81
656.82	2496.47
657.01	2635.74
657.20	2508.76
657.38	2617.30
657.57	2408.41
657.76	2269.15
657.95	2674.65
658.14	2381.79
658.32	2463.71
658.51	2432.99
658.70	2414.56
658.89	2566.10
659.08	2498.52
659.26	2691.03
659.45	2396.12
659.64	2605.02
659.83	2512.86
660.01	2912.21
660.20	2590.68
660.39	2723.80
660.58	2228.19
660.76	2506.71
660.95	2349.02
661.14	2441.18
661.33	2346.97
661.51	2453.47
661.70	2422.75
661.89	2502.62
662.08	2437.08
662.26	2320.35
662.45	2367.45
662.64	2721.75
662.83	2529.24
663.01	2324.44
663.20	2469.85
663.39	2678.74
663.58	2463.71
663.76	2406.36
663.95	2541.53
664.14	2402.27
664.32	2424.80
664.51	2353.12
664.70	2361.31
664.89	2574.30
665.07	2342.88
665.26	2553.82
665.45	2291.68
665.64	2494.43
665.82	2463.71
666.01	2533.34
666.20	2420.70
666.38	2715.61
666.57	2676.70
666.76	3938.24
666.95	9478.00
667.13	17483.51
667.32	22585.00
667.51	25972.34
667.69	27584.09
667.88	24356.49
668.07	17346.30
668.25	14346.02
668.44	11921.23
668.63	10293.09
668.81	8904.57
669.00	7708.55
669.19	7157.65
669.38	5982.12
669.56	5248.94
669.75	4370.37
669.94	3768.26
670.12	3233.74
670.31	2955.22
670.50	2781.14
670.68	2664.41
670.87	2555.86
671.06	2541.53
671.24	2615.26
671.43	2754.52
671.62	2535.39
671.80	2443.23
671.99	2553.82
672.18	2506.71
672.36	2648.02
672.55	2545.63
672.74	2424.80
672.92	2389.98
673.11	2541.53
673.29	2340.83
673.48	2514.91
673.67	2480.09
673.85	2600.92
674.04	2408.41
674.23	2596.82
674.41	2656.22
674.60	2408.41
674.79	2232.29
674.97	2338.78
675.16	2641.88
675.34	2670.55
675.53	2432.99
675.72	2545.63
675.90	2752.47
676.09	2465.75
676.28	2506.71
676.46	2334.68
676.65	2570.20
676.83	2351.07
677.02	2510.81
677.21	2514.91
677.39	2535.39
677.58	2402.27
677.77	2410.46
677.95	2357.21
678.14	2412.51
678.32	2383.84
678.51	2326.49
678.70	2729.94
678.88	2373.60
679.07	2445.27
679.25	2412.51
679.44	2414.56
679.63	2381.79
679.81	2514.91
680.00	2662.36
680.18	2541.53
680.37	2584.54
680.55	2510.81
680.74	2267.10
680.93	2314.20
681.11	2498.52
681.30	2537.43
681.48	2490.33
681.67	2449.37
681.85	2514.91
682.04	2389.98
682.23	2527.19
682.41	2533.34
682.60	2449.37
682.78	2457.56
682.97	2349.02
683.15	2490.33
683.34	2492.38
683.53	2654.17
683.71	2275.29
683.90	2596.82
684.08	2701.27
684.27	2447.32
684.45	2588.63
684.64	2594.78
684.82	2529.24
685.01	2568.15
685.19	2394.08
685.38	2643.93
685.57	2525.15
685.75	2353.12
685.94	2471.90
686.12	2383.84
686.31	2457.56
686.49	2705.37
686.68	2248.67
686.86	2465.75
687.05	2465.75
687.23	2678.74
687.42	2437.08
687.60	2260.96
687.79	2621.40
687.97	2611.16
688.16	2629.59
688.34	2592.73
688.53	2273.25
688.71	2545.63
688.90	2594.78
689.08	2451.42
689.27	2301.92
689.45	2645.98
689.64	2578.39
689.82	2588.63
690.01	2566.10
690.19	2496.47
690.38	2463.71
690.56	2633.69
690.75	2342.88
690.93	2400.22
691.12	2445.27
691.30	2453.47
691.49	2422.75
691.67	2492.38
691.86	2695.13
692.04	2555.86
692.23	2469.85
692.41	2508.76
692.60	2731.99
692.78	2623.45
692.97	2512.86
693.15	2629.59
693.34	2699.22
693.52	2633.69
693.71	2441.18
693.89	2363.36
694.08	2326.49
694.26	2531.29
694.44	2650.07
694.63	2553.82
694.81	2310.11
695.00	2473.95
695.18	2641.88
695.37	2846.68
695.55	2572.25
695.74	2547.67
695.92	2455.51
696.10	2596.82
696.29	2357.21
696.47	2488.28
696.66	2330.59
696.84	2365.40
697.03	2508.76
697.21	2693.08
697.40	3659.72
697.58	2572.25
697.76	2473.95
697.95	2379.74
698.13	2291.68
698.32	2385.88
698.50	2529.24
698.68	2500.57
698.87	2551.77
699.05	2711.51
699.24	2453.47
699.42	2383.84
699.61	2523.10
699.79	2519.00
699.97	2418.65
700.16	2357.21
700.34	2369.50
700.53	2572.25
700.71	2709.46
700.89	2607.06
701.08	2422.75
701.26	2527.19
701.45	2965.46
701.63	2428.89
701.81	2447.32
702.00	2461.66
702.18	2484.19
702.37	2453.47
702.55	2777.05
702.73	2645.98
702.92	2523.10
703.10	2744.28
703.28	2770.90
703.47	2443.23
703.65	2672.60
703.84	2607.06
704.02	2521.05
704.20	2793.43
704.39	2430.94
704.57	2404.32
704.75	2652.12
704.94	2621.40
705.12	2510.81
705.30	2924.50
705.49	5494.70
705.67	12693.31
705.86	20397.77
706.04	23869.08
706.22	27235.94
706.41	27631.19
706.59	22316.72
706.77	16262.92
706.96	13739.82
707.14	12271.43
707.32	10461.02
707.51	9236.34
707.69	7587.72
707.87	6139.81
708.06	4937.65
708.24	4059.07
708.42	3446.73
708.61	3217.36
708.79	2641.88
708.97	2562.01
709.16	2672.60
709.34	2523.10
709.52	2416.60
709.71	2570.20
709.89	2512.86
710.07	2430.94
710.26	2385.88
710.44	2488.28
710.62	2605.02
710.80	2469.85
710.99	2537.43
711.17	2519.00
711.35	2424.80
711.54	2447.32
711.72	2611.16
711.90	2531.29
712.09	2598.87
712.27	2432.99
712.45	2496.47
712.63	2389.98
712.82	2506.71
713.00	2490.33
713.18	2594.78
713.37	2590.68
713.55	2615.26
713.73	2557.91
713.91	2537.43
714.10	2357.21
714.28	2488.28
714.46	2549.72
714.65	2498.52
714.83	2428.89
715.01	2488.28
715.19	2494.43
715.38	2367.45
715.56	2506.71
715.74	2416.60
715.92	2439.13
716.11	2566.10
716.29	2246.62
716.47	2531.29
716.65	2406.36
716.84	2269.15
717.02	2613.21
717.20	2281.44
717.38	2387.93
717.57	2564.06
717.75	2443.23
717.93	2459.61
718.11	2547.67
718.30	2353.12
718.48	2439.13
718.66	2621.40
718.84	2555.86
719.03	2478.04
719.21	2279.39
719.39	2637.78
719.57	2519.00
719.75	2613.21
719.94	2385.88
720.12	2463.71
720.30	2494.43
720.48	2654.17
720.67	2359.26
720.85	2367.45
721.03	2400.22
721.21	2457.56
721.39	2570.20
721.58	2533.34
721.76	2537.43
721.94	2430.94
722.12	2504.67
722.30	2680.79
722.49	2400.22
722.67	2500.57
722.85	2428.89
723.03	2285.53
723.21	2365.40
723.40	2551.77
723.58	2600.92
723.76	2564.06
723.94	2678.74
724.12	2549.72
724.30	2699.22
724.49	2625.50
724.67	2445.27
724.85	2605.02
725.03	2416.60
725.21	2531.29
725.40	2611.16
725.58	2363.36
725.76	2527.19
725.94	2475.99
726.12	2353.12
726.30	2473.95
726.49	2447.32
726.67	2420.70
726.85	2607.06
727.03	2908.12
727.21	4224.96
727.39	5857.19
727.57	6633.37
727.76	7278.48
727.94	7530.38
728.12	6922.13
728.30	5412.78
728.48	4906.93
728.66	4351.93
728.84	4102.08
729.03	3493.83
729.21	3217.36
729.39	2957.27
729.57	2645.98
729.75	2648.02
729.93	2639.83
730.11	2480.09
730.30	2455.51
730.48	2545.63
730.66	2680.79
730.84	2531.29
731.02	2445.27
731.20	2484.19
731.38	2435.03
731.56	2324.44
731.74	2332.64
731.93	2389.98
732.11	2488.28
732.29	2428.89
732.47	2514.91
732.65	2570.20
732.83	2559.96
733.01	2459.61
733.19	2293.72
733.37	2523.10
733.56	2498.52
733.74	2416.60
733.92	2676.70
734.10	2445.27
734.28	2578.39
734.46	2263.01
734.64	2447.32
734.82	2449.37
735.00	2428.89
735.18	2416.60
735.36	2480.09
735.54	2461.66
735.73	2510.81
735.91	2521.05
736.09	2588.63
736.27	2471.90
736.45	2500.57
736.63	2228.19
736.81	2455.51
736.99	2629.59
737.17	2635.74
737.35	2373.60
737.53	2564.06
737.71	2428.89
737.89	2613.21
738.07	2359.26
738.25	2392.03
738.43	2314.20
738.61	2471.90
738.80	2406.36
738.98	2330.59
739.16	2402.27
739.34	2365.40
739.52	2635.74
739.70	2463.71
739.88	2592.73
740.06	2586.58
740.24	2236.38
740.42	2670.55
740.60	2252.77
740.78	2375.64
740.96	2281.44
741.14	2437.08
741.32	2500.57
741.50	2326.49
741.68	2756.57
741.86	2598.87
742.04	2430.94
742.22	2326.49
742.40	2463.71
742.58	2508.76
742.76	2424.80
742.94	2584.54
743.12	2273.25
743.30	2490.33
743.48	2543.58
743.66	2336.73
743.84	2488.28
744.02	2531.29
744.20	2469.85
744.38	2416.60
744.56	2367.45
744.74	2654.17
744.92	2516.95
745.10	2592.73
745.28	2494.43
745.46	2619.35
745.64	2439.13
745.82	2521.05
746.00	2488.28
746.18	2547.67
746.36	2394.08
746.54	2519.00
746.72	2408.41
746.90	2342.88
747.08	2539.48
747.26	2463.71
747.44	2586.58
747.62	2551.77
747.80	2512.86
747.98	2480.09
748.15	2543.58
748.33	2705.37
748.51	2496.47
748.69	2578.39
748.87	2414.56
749.05	2471.90
749.23	2379.74
749.41	2455.51
749.59	2375.64
749.77	2627.54
749.95	2502.62
750.13	2482.14
750.31	2514.91
750.49	2504.67
750.67	2633.69
750.85	2535.39
751.03	2498.52
751.20	2742.23
751.38	2494.43
751.56	2392.03
751.74	2412.51
751.92	2432.99
752.10	2336.73
752.28	2658.26
752.46	2332.64
752.64	2461.66
752.82	2486.23
753.00	2615.26
753.18	2359.26
753.35	2490.33
753.53	2488.28
753.71	2455.51
753.89	2527.19
754.07	2490.33
754.25	2615.26
754.43	2488.28
754.61	2363.36
754.79	2580.44
754.97	2482.14
755.14	2584.54
755.32	2381.79
755.50	2463.71
755.68	2500.57
755.86	2351.07
756.04	2428.89
756.22	2224.09
756.40	2576.34
756.57	2629.59
756.75	2414.56
756.93	2602.97
757.11	2572.25
757.29	2328.54
757.47	2381.79
757.65	2310.11
757.82	2260.96
758.00	2263.01
758.18	2430.94
758.36	2426.84
758.54	2580.44
758.72	2299.87
758.90	2645.98
759.07	2508.76
759.25	2416.60
759.43	2445.27
759.61	2275.29
759.79	3553.23
759.97	2564.06
760.15	2414.56
760.32	2463.71
760.50	2527.19
760.68	2648.02
760.86	2289.63
761.04	2559.96
761.22	2484.19
761.39	2430.94
761.57	2420.70
761.75	2459.61
761.93	2512.86
762.11	2473.95
762.28	2523.10
762.46	2361.31
762.64	2547.67
762.82	2314.20
763.00	2432.99
763.18	2707.41
763.35	2375.64
763.53	2578.39
763.71	2572.25
763.89	2475.99
764.07	2510.81
764.24	2471.90
764.42	2547.67
764.60	2394.08
764.78	2576.34
764.96	2469.85
765.13	2531.29
765.31	2410.46
765.49	2572.25
765.67	2344.92
765.84	2394.08
766.02	2447.32
766.20	2252.77
766.38	2480.09
766.56	2437.08
766.73	2586.58
766.91	2498.52
767.09	2545.63
767.27	2564.06
767.44	2330.59
767.62	2596.82
767.80	2504.67
767.98	2424.80
768.15	2469.85
768.33	2547.67
768.51	2539.48
768.69	2580.44
768.87	2500.57
769.04	2504.67
769.22	2795.48
769.40	2648.02
769.58	2643.93
769.75	2496.47
769.93	2654.17
770.11	2432.99
770.28	2445.27
770.46	2635.74
770.64	2547.67
770.82	2432.99
770.99	2406.36
771.17	2551.77
771.35	2445.27
771.53	2449.37
771.70	2441.18
771.88	2547.67
772.06	2465.75
772.23	2463.71
772.41	2498.52
772.59	2478.04
772.77	2367.45
772.94	2420.70
773.12	2525.15
773.30	2392.03
773.47	2475.99
773.65	2392.03
773.83	2594.78
774.01	2447.32
774.18	2263.01
774.36	2394.08
774.54	2273.25
774.71	2504.67
774.89	2322.40
775.07	2326.49
775.24	2455.51
775.42	2357.21
775.60	2666.46
775.78	2318.30
775.95	2322.40
776.13	2277.34
776.31	2244.57
776.48	2498.52
776.66	2623.45
776.84	2424.80
777.01	2359.26
777.19	2363.36
777.37	2475.99
777.54	2562.01
777.72	2670.55
777.90	2498.52
778.07	2439.13
778.25	2899.92
778.43	2609.11
778.60	2424.80
778.78	2512.86
778.96	2639.83
779.13	2363.36
779.31	2535.39
779.49	2475.99
779.66	2537.43
779.84	2445.27
780.01	2451.42
780.19	2334.68
780.37	2611.16
780.54	2492.38
780.72	2293.72
780.90	2394.08
781.07	2439.13
781.25	2398.17
781.43	2594.78
781.60	2478.04
781.78	2586.58
781.95	2490.33
782.13	2326.49
782.31	2424.80
782.48	2240.48
782.66	2568.15
782.83	2686.94
783.01	2504.67
783.19	2641.88
783.36	2439.13
783.54	2387.93
783.72	2580.44
783.89	2426.84
784.07	2553.82
784.24	2539.48
784.42	2633.69
784.60	2490.33
784.77	2490.33
784.95	2310.11
785.12	2392.03
785.30	2498.52
785.47	2351.07
785.65	2330.59
785.83	2473.95
786.00	2435.03
786.18	2531.29
786.35	2301.92
786.53	2424.80
786.71	2586.58
786.88	2531.29
787.06	2533.34
787.23	2455.51
787.41	2265.05
787.58	2396.12
787.76	2424.80
787.94	2432.99
788.11	2435.03
788.29	2306.01
788.46	2422.75
788.64	2349.02
788.81	2418.65
788.99	2346.97
789.16	2373.60
789.34	2426.84
789.52	2416.60
789.69	2463.71
789.87	2287.58
790.04	2365.40
790.22	2447.32
790.39	2715.61
790.57	2326.49
790.74	2392.03
790.92	2576.34
791.09	2404.32
791.27	2580.44
791.44	2580.44
791.62	2457.56
791.79	2574.30
791.97	2441.18
792.15	2809.81
792.32	2580.44
792.50	2545.63
792.67	2652.12
792.85	2672.60
793.02	2529.24
793.20	2457.56
793.37	2240.48
793.55	2400.22
793.72	2353.12
793.90	2562.01
794.07	2349.02
794.25	2281.44
794.42	2555.86
794.60	2418.65
794.77	2412.51
794.95	2576.34
795.12	2600.92
795.30	2461.66
795.47	2291.68
795.65	2852.82
795.82	2537.43
796.00	2353.12
796.17	2445.27
796.34	2424.80
796.52	2445.27
796.69	2637.78
796.87	2496.47
797.04	2584.54
797.22	2551.77
797.39	2453.47
797.57	2572.25
797.74	2488.28
797.92	2531.29
798.09	2471.90
798.27	2535.39
798.44	2463.71
798.62	2469.85
798.79	2465.75
798.96	2564.06
799.14	2437.08
799.31	2781.14
799.49	2361.31
799.66	2373.60
799.84	2432.99
800.01	2326.49
800.19	2473.95
800.36	2398.17
800.53	2490.33
800.71	2564.06
800.88	2682.84
801.06	2430.94
801.23	2455.51
801.41	2408.41
801.58	2418.65
801.75	2346.97
801.93	2478.04
802.10	2566.10
802.28	2508.76
802.45	2447.32
802.63	2572.25
802.80	2523.10
802.97	2389.98
803.15	2447.32
803.32	2363.36
803.50	2402.27
803.67	2310.11
803.84	2318.30
804.02	2500.57
804.19	2422.75
804.37	2279.39
804.54	2340.83
804.71	2392.03
804.89	2498.52
805.06	2365.40
805.24	2357.21
805.41	2281.44
805.58	2404.32
805.76	2818.00
805.93	2482.14
806.10	2627.54
806.28	2600.92
806.45	2467.80
806.63	2459.61
806.80	2488.28
806.97	2506.71
807.15	2514.91
807.32	2580.44
807.49	2451.42
807.67	2334.68
807.84	2512.86
808.01	2295.77
808.19	2578.39
808.36	2766.81
808.54	2445.27
808.71	2367.45
808.88	2482.14
809.06	2613.21
809.23	2693.08
809.40	2359.26
809.58	2537.43
809.75	2482.14
809.92	2277.34
810.10	2705.37
810.27	2478.04
810.44	2478.04
810.62	2553.82
810.79	2469.85
810.96	2408.41
811.14	2408.41
811.31	2490.33
811.48	2506.71
811.66	2498.52
811.83	2623.45
812.00	2543.58
812.18	2486.23
812.35	2772.95
812.52	2441.18
812.69	2408.41
812.87	2430.94
813.04	2379.74
813.21	2463.71
813.39	2400.22
813.56	2412.51
813.73	2590.68
813.91	2240.48
814.08	2394.08
814.25	2498.52
814.42	2293.72
814.60	2459.61
814.77	2420.70
814.94	2389.98
815.12	2482.14
815.29	2633.69
815.46	2342.88
815.63	2467.80
815.81	2410.46
815.98	2422.75
816.15	2373.60
816.33	2525.15
816.50	2387.93
816.67	2459.61
816.84	2428.89
817.02	2289.63
817.19	2447.32
817.36	2537.43
817.53	2506.71
817.71	2334.68
817.88	2506.71
818.05	2441.18
818.22	2451.42
818.40	2580.44
818.57	2400.22
818.74	2500.57
818.91	2494.43
819.09	2502.62
819.26	2564.06
819.43	2387.93
819.60	2404.32
819.78	2523.10
819.95	2535.39
820.12	2293.72
820.29	2664.41
820.47	2594.78
820.64	2379.74
820.81	2283.49
820.98	2373.60
821.15	2424.80
821.33	2496.47
821.50	2291.68
821.67	2531.29
821.84	2424.80
822.02	2545.63
822.19	2623.45
822.36	2453.47
822.53	2418.65
822.70	2289.63
822.88	2496.47
823.05	2613.21
823.22	2389.98
823.39	2465.75
823.56	2480.09
823.74	2662.36
823.91	2338.78
824.08	2326.49
824.25	2414.56
824.42	2699.22
824.60	2297.82
824.77	2529.24
824.94	2420.70
825.11	2521.05
825.28	2234.33
825.45	2531.29
825.63	2531.29
825.80	2346.97
825.97	2514.91
826.14	2465.75
826.31	2338.78
826.48	2437.08
826.66	2424.80
826.83	2473.95
827.00	2414.56
827.17	2396.12
827.34	2424.80
827.51	2387.93
827.69	2457.56
827.86	2357.21
828.03	2512.86
828.20	2529.24
828.37	2396.12
828.54	2465.75
828.71	2320.35
828.89	2598.87
829.06	2482.14
829.23	2691.03
829.40	2383.84
829.57	2400.22
829.74	2633.69
829.91	2387.93
830.09	2396.12
830.26	2506.71
830.43	2684.89
830.60	2410.46
830.77	2527.19
830.94	2578.39
831.11	2666.46
831.28	2430.94
831.46	2586.58
831.63	2449.37
831.80	2527.19
831.97	2426.84
832.14	2445.27
832.31	2461.66
832.48	2469.85
832.65	2559.96
832.82	2463.71
832.99	2506.71
833.17	2432.99
833.34	2631.64
833.51	2531.29
833.68	2312.16
833.85	2588.63
834.02	2338.78
834.19	2330.59
834.36	2320.35
834.53	2555.86
834.70	2598.87
834.87	2510.81
835.04	2369.50
835.22	2437.08
835.39	2383.84
835.56	2265.05
835.73	2361.31
835.90	2611.16
836.07	2402.27
836.24	2490.33
836.41	2346.97
836.58	2408.41
836.75	2527.19
836.92	2463.71
837.09	2373.60
837.26	2625.50
837.43	2510.81
837.60	2400.22
837.77	2369.50
837.94	2592.73
838.12	2576.34
838.29	2424.80
838.46	2310.11
838.63	2371.55
838.80	2658.26
838.97	2475.99
839.14	2385.88
839.31	2547.67
839.48	2555.86
839.65	2369.50
839.82	2430.94
839.99	2445.27
840.16	2461.66
840.33	2303.96
840.50	2375.64
840.67	2375.64
840.84	2226.14
841.01	2363.36
841.18	2338.78
841.35	2502.62
841.52	2607.06
841.69	2621.40
841.86	2342.88
842.03	2457.56
842.20	2535.39
842.37	2398.17
842.54	2367.45
842.71	2484.19
842.88	2297.82
843.05	2398.17
843.22	2371.55
843.39	2578.39
843.56	2389.98
843.73	2330.59
843.90	2424.80
844.07	2437.08
844.24	2514.91
844.41	2465.75
844.58	2416.60
844.75	2473.95
844.92	2498.52
845.09	2414.56
845.26	2346.97
845.43	2506.71
845.60	2430.94
845.77	2490.33
845.94	2430.94
846.10	2643.93
846.27	2273.25
846.44	2291.68
846.61	2217.95
846.78	2480.09
846.95	2580.44
847.12	2351.07
847.29	2318.30
847.46	2308.06
847.63	2551.77
847.80	2275.29
847.97	2316.25
848.14	2729.94
848.31	2457.56
848.48	2224.09
848.65	2410.46
848.82	2432.99
848.98	2754.52
849.15	2432.99
849.32	2539.48
849.49	2645.98
849.66	2547.67
849.83	2394.08
850.00	2228.19
850.17	2676.70
850.34	2498.52
850.51	2301.92
850.68	2324.44
850.85	2723.80
851.01	2529.24
851.18	2408.41
851.35	2357.21
851.52	2492.38
851.69	2645.98
851.86	2299.87
852.03	2414.56
852.20	2527.19
852.37	2437.08
852.53	2252.77
852.70	2342.88
852.87	2432.99
853.04	2506.71
853.21	2377.69
853.38	2586.58
853.55	2680.79
853.72	2650.07
853.89	2351.07
854.05	2334.68
854.22	2396.12
854.39	2367.45
854.56	2328.54
854.73	2471.90
854.90	2420.70
855.07	2408.41
855.23	2365.40
855.40	2408.41
855.57	2392.03
855.74	2215.90
855.91	2516.95
856.08	2260.96
856.25	2291.68
856.41	2457.56
856.58	2365.40
856.75	2406.36
856.92	2367.45
857.09	2512.86
857.26	2267.10
857.42	2383.84
857.59	2551.77
857.76	2406.36
857.93	2406.36
858.10	2408.41
858.27	2275.29
858.43	2420.70
858.60	2357.21
858.77	2265.05
858.94	2410.46
859.11	2605.02
859.27	2392.03
859.44	2330.59
859.61	2695.13
859.78	2551.77
859.95	2416.60
860.12	2351.07
860.28	2707.41
860.45	2758.61
860.62	2330.59
860.79	2449.37
860.95	2463.71
861.12	2332.64
861.29	2414.56
861.46	2328.54
861.63	2396.12
861.79	2537.43
861.96	2326.49
862.13	2346.97
862.30	2605.02
862.47	2328.54
862.63	2283.49
862.80	2478.04
862.97	2568.15
863.14	2494.43
863.30	2367.45
863.47	2318.30
863.64	2600.92
863.81	2529.24
863.97	2332.64
864.14	2439.13
864.31	2527.19
864.48	2451.42
864.65	2392.03
864.81	2471.90
864.98	2547.67
865.15	2596.82
865.32	2439.13
865.48	2545.63
865.65	2725.85
865.82	2432.99
865.98	2453.47
866.15	2510.81
866.32	2457.56
866.49	2439.13
866.65	2514.91
866.82	2381.79
866.99	2475.99
867.16	2445.27
867.32	2404.32
867.49	2330.59
867.66	2435.03
867.83	2451.42
867.99	2224.09
868.16	2367.45
868.33	2349.02
868.49	2379.74
868.66	2320.35
868.83	2564.06
868.99	2432.99
869.16	2414.56
869.33	2498.52
869.50	2420.70
869.66	2465.75
869.83	2508.76
870.00	2371.55
870.16	2480.09
870.33	2430.94
870.50	2576.34
870.66	2404.32
870.83	2453.47
871.00	2416.60
871.17	2514.91
871.33	2496.47
871.50	2353.12
871.67	2424.80
871.83	2406.36
872.00	2484.19
872.17	2414.56
872.33	2666.46
872.50	2611.16
872.67	2496.47
872.83	2359.26
873.00	2486.23
873.17	2498.52
873.33	2471.90
873.50	2475.99
873.67	2355.16
873.83	2351.07
874.00	2469.85
874.16	2449.37
874.33	2576.34
874.50	2342.88
874.66	2453.47
874.83	2420.70
875.00	2590.68
875.16	2658.26
875.33	2469.85
875.50	2144.22
875.66	2310.11
875.83	2420.70
875.99	2418.65
876.16	2502.62
876.33	2365.40
876.49	2428.89
876.66	2394.08
876.83	2344.92
876.99	2306.01
877.16	2490.33
877.32	2342.88
877.49	2387.93
877.66	2529.24
877.82	2717.65
877.99	2430.94
878.15	2582.49
878.32	2506.71
878.49	2531.29
878.65	2404.32
878.82	2455.51
878.98	2375.64
879.15	2652.12
879.32	2494.43
879.48	2521.05
879.65	2457.56
879.81	2443.23
879.98	2353.12
880.15	2344.92
880.31	2598.87
880.48	2375.64
880.64	2527.19
880.81	2473.95
880.97	2686.94
881.14	2637.78
881.31	2308.06
881.47	2570.20
881.64	2447.32
881.80	2236.38
881.97	2523.10
882.13	2414.56
882.30	2377.69
882.47	2326.49
882.63	2322.40
882.80	2346.97
882.96	2457.56
883.13	2594.78
883.29	2406.36
883.46	2387.93
883.62	2686.94
883.79	2496.47
883.95	2514.91
884.12	2392.03
884.29	2551.77
884.45	2525.15
884.62	2537.43
884.78	2318.30
884.95	2637.78
885.11	2443.23
885.28	2465.75
885.44	2392.03
885.61	2498.52
885.77	2703.32
885.94	2471.90
886.10	2447.32
886.27	2611.16
886.43	2719.70
886.60	2531.29
886.76	2363.36
886.93	2351.07
887.09	2441.18
887.26	2398.17
887.42	2320.35
887.59	2592.73
887.75	2701.27
887.92	2578.39
888.08	2496.47
888.25	2693.08
888.41	2666.46
888.58	2467.80
888.74	2342.88
888.91	2375.64
>>>>>End Processed Spectral Data<<<<<
