SpectraSuite Data File
++++++++++++++++++++++++++++++++++++
Date: Thu May 05 14:41:48 CEST 2016
User: root
Dark Spectrum Present: No
Reference Spectrum Present: No
Number of Sampled Component Spectra: 1
Spectrometers: USB4C02835
Integration Time (usec): 100000 (USB4C02835)
Spectra Averaged: 1 (USB4C02835)
Boxcar Smoothing: 0 (USB4C02835)
Correct for Electrical Dark: No (USB4C02835)
Strobe/Lamp Enabled: No (USB4C02835)
Correct for Detector Non-linearity: No (USB4C02835)
Correct for Stray Light: No (USB4C02835)
Number of Pixels in Processed Spectrum: 3648
>>>>>Begin Processed Spectral Data<<<<<
177.47	1990.63
177.69	1990.63
177.91	1990.63
178.13	1873.89
178.36	1884.13
178.58	2383.84
178.80	2514.91
179.02	2375.64
179.24	2449.37
179.46	2351.07
179.68	2369.50
179.90	2406.36
180.13	2586.58
180.35	2254.81
180.57	2332.64
180.79	2568.15
181.01	2441.18
181.23	2373.60
181.45	2514.91
181.67	2506.71
181.90	2523.10
182.12	2381.79
182.34	2285.53
182.56	2572.25
182.78	2535.39
183.00	2385.88
183.22	2389.98
183.44	2285.53
183.66	2768.85
183.89	2441.18
184.11	2308.06
184.33	2551.77
184.55	2668.50
184.77	2392.03
184.99	2414.56
185.21	2385.88
185.43	2824.15
185.65	2334.68
185.87	2342.88
186.10	2764.76
186.32	2807.77
186.54	2383.84
186.76	2422.75
186.98	2611.16
187.20	2535.39
187.42	2369.50
187.64	2381.79
187.86	2525.15
188.08	2568.15
188.30	2349.02
188.52	2385.88
188.75	2578.39
188.97	2641.88
189.19	2349.02
189.41	2336.73
189.63	2557.91
189.85	2435.03
190.07	2207.71
190.29	2215.90
190.51	2432.99
190.73	2316.25
190.95	2473.95
191.17	2363.36
191.39	2248.67
191.61	2426.84
191.84	2375.64
192.06	2373.60
192.28	2349.02
192.50	2904.02
192.72	2424.80
192.94	2422.75
193.16	2619.35
193.38	2441.18
193.60	2318.30
193.82	2457.56
194.04	2654.17
194.26	2605.02
194.48	2320.35
194.70	2293.72
194.92	2432.99
195.14	2590.68
195.36	2338.78
195.58	2342.88
195.80	2410.46
196.02	2445.27
196.24	2217.95
196.46	2359.26
196.69	2383.84
196.91	2766.81
197.13	2357.21
197.35	2303.96
197.57	2619.35
197.79	2570.20
198.01	2385.88
198.23	2353.12
198.45	2498.52
198.67	2410.46
198.89	2269.15
199.11	2392.03
199.33	2342.88
199.55	2363.36
199.77	2326.49
199.99	2514.91
200.21	2308.06
200.43	2510.81
200.65	2291.68
200.87	2232.29
201.09	2455.51
201.31	2422.75
201.53	2318.30
201.75	2420.70
201.97	2570.20
202.19	2510.81
202.41	2408.41
202.63	2527.19
202.85	2562.01
203.07	2545.63
203.29	2271.20
203.51	2285.53
203.73	2365.40
203.95	2768.85
204.17	2324.44
204.39	2408.41
204.61	2496.47
204.83	2410.46
205.05	2437.08
205.27	2389.98
205.49	2697.17
205.71	2486.23
205.93	2215.90
206.15	2351.07
206.37	2502.62
206.59	2486.23
206.81	2220.00
207.03	2217.95
207.25	2379.74
207.47	2502.62
207.69	2367.45
207.91	2535.39
208.13	2695.13
208.34	2416.60
208.56	2242.53
208.78	2398.17
209.00	2441.18
209.22	2490.33
209.44	2351.07
209.66	2260.96
209.88	2473.95
210.10	2486.23
210.32	2320.35
210.54	2519.00
210.76	2486.23
210.98	2516.95
211.20	2195.42
211.42	2346.97
211.64	2615.26
211.86	2602.97
212.08	2326.49
212.30	2375.64
212.52	2484.19
212.74	2482.14
212.96	2404.32
213.17	2416.60
213.39	2529.24
213.61	2715.61
213.83	2293.72
214.05	2406.36
214.27	2660.31
214.49	2416.60
214.71	2267.10
214.93	2373.60
215.15	2506.71
215.37	2535.39
215.59	2230.24
215.81	2453.47
216.03	2629.59
216.24	2521.05
216.46	2326.49
216.68	2353.12
216.90	2494.43
217.12	2709.46
217.34	2359.26
217.56	2396.12
217.78	2584.54
218.00	2545.63
218.22	2383.84
218.44	2412.51
218.66	2543.58
218.87	2686.94
219.09	2308.06
219.31	2420.70
219.53	2463.71
219.75	2422.75
219.97	2326.49
220.19	2355.16
220.41	2463.71
220.63	2686.94
220.85	2351.07
221.06	2344.92
221.28	2629.59
221.50	2502.62
221.72	2308.06
221.94	2248.67
222.16	2514.91
222.38	2611.16
222.60	2320.35
222.82	2416.60
223.03	2613.21
223.25	2269.15
223.47	2326.49
223.69	2631.64
223.91	2510.81
224.13	2467.80
224.35	2252.77
224.57	2482.14
224.78	2543.58
225.00	2363.36
225.22	2371.55
225.44	2310.11
225.66	2543.58
225.88	2349.02
226.10	2387.93
226.32	2389.98
226.53	2674.65
226.75	2498.52
226.97	2318.30
227.19	2322.40
227.41	2318.30
227.63	2408.41
227.85	2242.53
228.06	2383.84
228.28	2473.95
228.50	2594.78
228.72	2297.82
228.94	2410.46
229.16	2297.82
229.37	2351.07
229.59	2244.57
229.81	2516.95
230.03	2408.41
230.25	2349.02
230.47	2303.96
230.69	2336.73
230.90	2594.78
231.12	2359.26
231.34	2449.37
231.56	2488.28
231.78	2412.51
232.00	2469.85
232.21	2293.72
232.43	2377.69
232.65	2217.95
232.87	2596.82
233.09	2256.86
233.30	2205.66
233.52	2576.34
233.74	2412.51
233.96	2349.02
234.18	2453.47
234.40	2432.99
234.61	2691.03
234.83	2250.72
235.05	2297.82
235.27	2760.66
235.49	2568.15
235.70	2301.92
235.92	2416.60
236.14	2504.67
236.36	2836.44
236.58	2220.00
236.79	2498.52
237.01	2490.33
237.23	2486.23
237.45	2492.38
237.67	2375.64
237.88	2543.58
238.10	2660.31
238.32	2320.35
238.54	2422.75
238.76	2490.33
238.97	2308.06
239.19	2312.16
239.41	2459.61
239.63	2611.16
239.85	2406.36
240.06	2359.26
240.28	2355.16
240.50	2609.11
240.72	2443.23
240.93	2320.35
241.15	2414.56
241.37	2512.86
241.59	2678.74
241.81	2295.77
242.02	2402.27
242.24	2498.52
242.46	2555.86
242.68	2170.85
242.89	2324.44
243.11	2650.07
243.33	2443.23
243.55	2412.51
243.76	2408.41
243.98	2445.27
244.20	2498.52
244.42	2285.53
244.64	2414.56
244.85	2287.58
245.07	2389.98
245.29	2396.12
245.51	2318.30
245.72	2564.06
245.94	2578.39
246.16	2373.60
246.38	2369.50
246.59	2430.94
246.81	2381.79
247.03	2326.49
247.24	2273.25
247.46	2453.47
247.68	2463.71
247.90	2242.53
248.11	2392.03
248.33	2627.54
248.55	2486.23
248.77	2430.94
248.98	2387.93
249.20	2549.72
249.42	2453.47
249.64	2387.93
249.85	2299.87
250.07	2410.46
250.29	2588.63
250.50	2484.19
250.72	2260.96
250.94	2586.58
251.16	2775.00
251.37	2398.17
251.59	2441.18
251.81	2531.29
252.02	2600.92
252.24	2256.86
252.46	2404.32
252.68	2336.73
252.89	2381.79
253.11	2334.68
253.33	2459.61
253.54	2629.59
253.76	2332.64
253.98	2389.98
254.20	2306.01
254.41	2351.07
254.63	2418.65
254.85	2271.20
255.06	2392.03
255.28	2541.53
255.50	2412.51
255.71	2363.36
255.93	2265.05
256.15	2445.27
256.36	2576.34
256.58	2242.53
256.80	2334.68
257.02	2504.67
257.23	2480.09
257.45	2326.49
257.67	2416.60
257.88	2408.41
258.10	2523.10
258.32	2365.40
258.53	2383.84
258.75	2768.85
258.97	2398.17
259.18	2310.11
259.40	2320.35
259.62	2619.35
259.83	2672.60
260.05	2430.94
260.27	2973.65
260.48	2545.63
260.70	2398.17
260.92	2318.30
261.13	2406.36
261.35	2465.75
261.57	2553.82
261.78	2365.40
262.00	2256.86
262.22	2539.48
262.43	2277.34
262.65	2359.26
262.86	2406.36
263.08	2818.00
263.30	2428.89
263.51	2224.09
263.73	2277.34
263.95	2719.70
264.16	2416.60
264.38	2263.01
264.60	2412.51
264.81	2451.42
265.03	2602.97
265.25	2578.39
265.46	2303.96
265.68	2598.87
265.89	2527.19
266.11	2236.38
266.33	2457.56
266.54	2619.35
266.76	2508.76
266.98	2459.61
267.19	2478.04
267.41	2625.50
267.62	2443.23
267.84	2199.52
268.06	2406.36
268.27	2430.94
268.49	2684.89
268.70	2443.23
268.92	2322.40
269.14	2363.36
269.35	2260.96
269.57	2410.46
269.79	2416.60
270.00	2408.41
270.22	2670.55
270.43	2258.91
270.65	2240.48
270.87	2504.67
271.08	2555.86
271.30	2449.37
271.51	2318.30
271.73	2559.96
271.95	2592.73
272.16	2349.02
272.38	2478.04
272.59	2531.29
272.81	2498.52
273.02	2381.79
273.24	2473.95
273.46	2670.55
273.67	2379.74
273.89	2193.37
274.10	2367.45
274.32	2670.55
274.54	2504.67
274.75	2463.71
274.97	2435.03
275.18	2619.35
275.40	2570.20
275.61	2396.12
275.83	2482.14
276.05	2359.26
276.26	2484.19
276.48	2418.65
276.69	2361.31
276.91	2357.21
277.12	2715.61
277.34	2432.99
277.55	2482.14
277.77	2457.56
277.99	2467.80
278.20	2306.01
278.42	2351.07
278.63	2381.79
278.85	2349.02
279.06	2236.38
279.28	2543.58
279.49	2578.39
279.71	2533.34
279.93	2467.80
280.14	2381.79
280.36	2375.64
280.57	2541.53
280.79	2539.48
281.00	2301.92
281.22	2424.80
281.43	2584.54
281.65	2220.00
281.86	2351.07
282.08	2482.14
282.29	2656.22
282.51	2285.53
282.73	2326.49
282.94	2308.06
283.16	2635.74
283.37	2684.89
283.59	2406.36
283.80	2549.72
284.02	2521.05
284.23	2459.61
284.45	2375.64
284.66	2404.32
284.88	2445.27
285.09	2523.10
285.31	2529.24
285.52	2514.91
285.74	2320.35
285.95	2490.33
286.17	2430.94
286.38	2668.50
286.60	2400.22
286.81	2381.79
287.03	2373.60
287.24	2451.42
287.46	2582.49
287.67	2424.80
287.89	2674.65
288.10	2490.33
288.32	2402.27
288.53	2541.53
288.75	2414.56
288.96	2578.39
289.18	2383.84
289.39	2363.36
289.61	2537.43
289.82	2768.85
290.04	2684.89
290.25	2414.56
290.47	2441.18
290.68	2463.71
290.90	2609.11
291.11	2228.19
291.33	2504.67
291.54	2396.12
291.76	2449.37
291.97	2451.42
292.18	2490.33
292.40	2344.92
292.61	2432.99
292.83	2645.98
293.04	2469.85
293.26	2494.43
293.47	2463.71
293.69	2326.49
293.90	2365.40
294.12	2691.03
294.33	2473.95
294.55	2387.93
294.76	2475.99
294.97	2652.12
295.19	2785.24
295.40	2426.84
295.62	2453.47
295.83	2643.93
296.05	2414.56
296.26	2562.01
296.48	2336.73
296.69	2445.27
296.90	2461.66
297.12	2465.75
297.33	2615.26
297.55	2457.56
297.76	2553.82
297.98	2486.23
298.19	2465.75
298.41	2443.23
298.62	2310.11
298.83	2490.33
299.05	2506.71
299.26	2375.64
299.48	2412.51
299.69	2428.89
299.90	2490.33
300.12	2424.80
300.33	2576.34
300.55	2424.80
300.76	2455.51
300.98	2369.50
301.19	2611.16
301.40	2389.98
301.62	2381.79
301.83	2547.67
302.05	2498.52
302.26	2367.45
302.47	2408.41
302.69	2408.41
302.90	2453.47
303.12	2238.43
303.33	2453.47
303.54	2707.41
303.76	2432.99
303.97	2484.19
304.19	2547.67
304.40	2416.60
304.61	2568.15
304.83	2598.87
305.04	2559.96
305.26	2553.82
305.47	2496.47
305.68	2455.51
305.90	2310.11
306.11	2611.16
306.33	2428.89
306.54	2410.46
306.75	2420.70
306.97	2363.36
307.18	2359.26
307.39	2338.78
307.61	2412.51
307.82	2467.80
308.04	2566.10
308.25	2297.82
308.46	2521.05
308.68	2463.71
308.89	2469.85
309.10	2547.67
309.32	2492.38
309.53	2416.60
309.74	2582.49
309.96	2457.56
310.17	2549.72
310.39	2412.51
310.60	2555.86
310.81	2463.71
311.03	2342.88
311.24	2512.86
311.45	2465.75
311.67	2602.97
311.88	2416.60
312.09	2420.70
312.31	2484.19
312.52	2428.89
312.73	2332.64
312.95	2363.36
313.16	2344.92
313.37	2576.34
313.59	2514.91
313.80	2553.82
314.01	2658.26
314.23	2422.75
314.44	2371.55
314.65	2387.93
314.87	2404.32
315.08	2406.36
315.29	2404.32
315.51	2367.45
315.72	2332.64
315.93	2490.33
316.15	2504.67
316.36	2437.08
316.57	2430.94
316.79	2559.96
317.00	2373.60
317.21	2627.54
317.43	2394.08
317.64	2428.89
317.85	2289.63
318.07	2346.97
318.28	2473.95
318.49	2570.20
318.70	2695.13
318.92	2611.16
319.13	2566.10
319.34	2682.84
319.56	2506.71
319.77	2654.17
319.98	2584.54
320.20	2596.82
320.41	2498.52
320.62	2562.01
320.83	2398.17
321.05	2568.15
321.26	2496.47
321.47	2453.47
321.69	2709.46
321.90	2301.92
322.11	2383.84
322.32	2535.39
322.54	2713.56
322.75	2367.45
322.96	2912.21
323.18	2349.02
323.39	2244.57
323.60	2377.69
323.81	2531.29
324.03	2455.51
324.24	2490.33
324.45	2494.43
324.66	2383.84
324.88	2605.02
325.09	2695.13
325.30	2463.71
325.52	2459.61
325.73	2543.58
325.94	2367.45
326.15	2277.34
326.37	2353.12
326.58	2570.20
326.79	2631.64
327.00	2324.44
327.22	2461.66
327.43	2424.80
327.64	2340.83
327.85	2490.33
328.07	2455.51
328.28	2711.51
328.49	2398.17
328.70	2336.73
328.92	2383.84
329.13	2445.27
329.34	2480.09
329.55	2629.59
329.76	2498.52
329.98	2488.28
330.19	2660.31
330.40	2488.28
330.61	2502.62
330.83	2543.58
331.04	2387.93
331.25	2428.89
331.46	2402.27
331.68	2322.40
331.89	2613.21
332.10	2408.41
332.31	2310.11
332.52	2455.51
332.74	2619.35
332.95	2295.77
333.16	2375.64
333.37	2609.11
333.58	2422.75
333.80	2435.03
334.01	2222.05
334.22	2424.80
334.43	2432.99
334.64	2371.55
334.86	2314.20
335.07	2293.72
335.28	2611.16
335.49	2334.68
335.70	2547.67
335.92	2643.93
336.13	2822.10
336.34	2461.66
336.55	2537.43
336.76	2533.34
336.98	2207.71
337.19	2463.71
337.40	2555.86
337.61	2785.24
337.82	2463.71
338.04	2482.14
338.25	2291.68
338.46	2389.98
338.67	2457.56
338.88	2359.26
339.09	2263.01
339.31	2404.32
339.52	2338.78
339.73	2334.68
339.94	2490.33
340.15	2627.54
340.36	2408.41
340.58	2539.48
340.79	2340.83
341.00	2514.91
341.21	2299.87
341.42	2633.69
341.63	2363.36
341.85	2545.63
342.06	2559.96
342.27	2293.72
342.48	2523.10
342.69	2273.25
342.90	2435.03
343.12	2594.78
343.33	2416.60
343.54	2668.50
343.75	2582.49
343.96	2428.89
344.17	2351.07
344.38	2418.65
344.60	2471.90
344.81	2328.54
345.02	2453.47
345.23	2539.48
345.44	2824.15
345.65	2461.66
345.86	2519.00
346.07	2506.71
346.29	2432.99
346.50	2553.82
346.71	2555.86
346.92	2658.26
347.13	2750.42
347.34	2457.56
347.55	2359.26
347.76	2519.00
347.98	2306.01
348.19	2404.32
348.40	2566.10
348.61	2451.42
348.82	2537.43
349.03	2482.14
349.24	2420.70
349.45	2731.99
349.66	2260.96
349.88	2422.75
350.09	2293.72
350.30	2621.40
350.51	2643.93
350.72	2471.90
350.93	2471.90
351.14	2373.60
351.35	2523.10
351.56	2494.43
351.77	2422.75
351.99	2674.65
352.20	2662.36
352.41	2535.39
352.62	2252.77
352.83	2496.47
353.04	2428.89
353.25	2404.32
353.46	2510.81
353.67	2621.40
353.88	2250.72
354.09	2406.36
354.30	2406.36
354.52	2514.91
354.73	2572.25
354.94	2375.64
355.15	2441.18
355.36	2693.08
355.57	2418.65
355.78	2416.60
355.99	2404.32
356.20	2453.47
356.41	2572.25
356.62	2531.29
356.83	2463.71
357.04	2641.88
357.25	2277.34
357.46	2392.03
357.68	2301.92
357.89	2346.97
358.10	2441.18
358.31	2410.46
358.52	2365.40
358.73	2303.96
358.94	2316.25
359.15	2418.65
359.36	2514.91
359.57	2516.95
359.78	2426.84
359.99	2553.82
360.20	2338.78
360.41	2457.56
360.62	2523.10
360.83	2467.80
361.04	2478.04
361.25	2529.24
361.46	2711.51
361.67	2494.43
361.88	2473.95
362.09	2596.82
362.30	2586.58
362.51	2371.55
362.72	2473.95
362.93	2580.44
363.14	2502.62
363.35	2568.15
363.56	2389.98
363.78	2615.26
363.99	2648.02
364.20	2412.51
364.41	2443.23
364.62	2799.57
364.83	2570.20
365.04	2361.31
365.25	2432.99
365.46	2815.96
365.67	2394.08
365.88	2467.80
366.09	2375.64
366.30	2432.99
366.51	2494.43
366.72	2389.98
366.93	2469.85
367.14	2539.48
367.35	2547.67
367.56	2338.78
367.77	2537.43
367.98	2496.47
368.18	2609.11
368.39	2527.19
368.60	2367.45
368.81	2555.86
369.02	2551.77
369.23	2330.59
369.44	2228.19
369.65	2494.43
369.86	2541.53
370.07	2547.67
370.28	2322.40
370.49	2494.43
370.70	2461.66
370.91	2357.21
371.12	2326.49
371.33	2621.40
371.54	2392.03
371.75	2633.69
371.96	2195.42
372.17	2475.99
372.38	2482.14
372.59	2455.51
372.80	2416.60
373.01	2490.33
373.22	2455.51
373.43	2459.61
373.64	2260.96
373.85	2672.60
374.06	2664.41
374.26	2576.34
374.47	2498.52
374.68	2639.83
374.89	2496.47
375.10	2441.18
375.31	2504.67
375.52	2422.75
375.73	2553.82
375.94	2279.39
376.15	2600.92
376.36	2389.98
376.57	2453.47
376.78	2426.84
376.99	2478.04
377.20	2727.89
377.40	2443.23
377.61	2662.36
377.82	2381.79
378.03	2545.63
378.24	2576.34
378.45	2424.80
378.66	2486.23
378.87	2301.92
379.08	2301.92
379.29	2506.71
379.50	2572.25
379.71	2437.08
379.91	2568.15
380.12	2449.37
380.33	2424.80
380.54	2461.66
380.75	2537.43
380.96	2455.51
381.17	2451.42
381.38	2473.95
381.59	2531.29
381.80	2490.33
382.00	2711.51
382.21	2615.26
382.42	2695.13
382.63	2688.98
382.84	2521.05
383.05	2551.77
383.26	2686.94
383.47	2490.33
383.68	2506.71
383.88	2588.63
384.09	2564.06
384.30	2613.21
384.51	2469.85
384.72	2418.65
384.93	2396.12
385.14	2473.95
385.35	2596.82
385.55	2357.21
385.76	2570.20
385.97	2457.56
386.18	2322.40
386.39	2396.12
386.60	2473.95
386.81	2465.75
387.02	2394.08
387.22	2332.64
387.43	2541.53
387.64	2572.25
387.85	2660.31
388.06	2674.65
388.27	4063.17
388.48	8406.91
388.68	12371.78
388.89	14630.69
389.10	15802.13
389.31	14868.25
389.52	11669.33
389.73	10028.90
389.93	9256.82
390.14	8572.80
390.35	7493.52
390.56	6713.24
390.77	5470.12
390.98	4147.14
391.18	3340.24
391.39	2965.46
391.60	2645.98
391.81	2621.40
392.02	2355.16
392.23	2719.70
392.43	2432.99
392.64	2562.01
392.85	2504.67
393.06	2758.61
393.27	2543.58
393.47	2424.80
393.68	2430.94
393.89	2467.80
394.10	2564.06
394.31	2371.55
394.52	2424.80
394.72	2512.86
394.93	2701.27
395.14	2416.60
395.35	2555.86
395.56	2400.22
395.76	2478.04
395.97	2486.23
396.18	2637.78
396.39	2586.58
396.60	2940.88
396.80	2729.94
397.01	2592.73
397.22	2707.41
397.43	2672.60
397.64	2385.88
397.84	2537.43
398.05	2807.77
398.26	2473.95
398.47	2611.16
398.67	2600.92
398.88	2506.71
399.09	2512.86
399.30	2408.41
399.51	2359.26
399.71	2392.03
399.92	2369.50
400.13	2512.86
400.34	2432.99
400.54	2385.88
400.75	2643.93
400.96	2443.23
401.17	2654.17
401.37	2490.33
401.58	2439.13
401.79	2449.37
402.00	2637.78
402.21	2938.84
402.41	2715.61
402.62	2760.66
402.83	2854.87
403.04	2947.03
403.24	3104.72
403.45	2506.71
403.66	2740.18
403.87	2662.36
404.07	2691.03
404.28	2703.32
404.49	2750.42
404.70	2652.12
404.90	2592.73
405.11	2539.48
405.32	2514.91
405.52	2449.37
405.73	2502.62
405.94	2330.59
406.15	2482.14
406.35	2584.54
406.56	2615.26
406.77	2482.14
406.98	2453.47
407.18	2383.84
407.39	2705.37
407.60	2424.80
407.80	2525.15
408.01	2531.29
408.22	2494.43
408.43	2375.64
408.63	2551.77
408.84	2557.91
409.05	2584.54
409.25	2392.03
409.46	2389.98
409.67	2482.14
409.88	2441.18
410.08	2475.99
410.29	2365.40
410.50	2611.16
410.70	2486.23
410.91	2332.64
411.12	2490.33
411.32	2502.62
411.53	2396.12
411.74	2588.63
411.95	2559.96
412.15	2652.12
412.36	2658.26
412.57	2559.96
412.77	2686.94
412.98	2500.57
413.19	2441.18
413.39	2529.24
413.60	2541.53
413.81	2586.58
414.01	2400.22
414.22	2506.71
414.43	2592.73
414.63	2414.56
414.84	2678.74
415.05	2437.08
415.25	2322.40
415.46	2553.82
415.67	2449.37
415.87	2480.09
416.08	2447.32
416.29	2416.60
416.49	2514.91
416.70	2414.56
416.91	2412.51
417.11	2463.71
417.32	2553.82
417.53	2562.01
417.73	2512.86
417.94	2478.04
418.15	2541.53
418.35	2521.05
418.56	2402.27
418.77	2813.91
418.97	2523.10
419.18	2523.10
419.38	2273.25
419.59	2473.95
419.80	2605.02
420.00	2355.16
420.21	2512.86
420.42	2621.40
420.62	2531.29
420.83	2330.59
421.04	2416.60
421.24	2512.86
421.45	2602.97
421.65	2545.63
421.86	2373.60
422.07	2660.31
422.27	2543.58
422.48	2441.18
422.69	2355.16
422.89	2531.29
423.10	2445.27
423.30	2383.84
423.51	2467.80
423.72	2566.10
423.92	2586.58
424.13	2351.07
424.33	2471.90
424.54	2586.58
424.75	2519.00
424.95	2643.93
425.16	2465.75
425.36	2492.38
425.57	2600.92
425.78	2506.71
425.98	2475.99
426.19	2435.03
426.39	2320.35
426.60	2471.90
426.81	2580.44
427.01	2514.91
427.22	2418.65
427.42	2273.25
427.63	2383.84
427.83	2562.01
428.04	2676.70
428.25	2586.58
428.45	2514.91
428.66	2674.65
428.86	2519.00
429.07	2416.60
429.28	2437.08
429.48	2447.32
429.69	2426.84
429.89	2584.54
430.10	2361.31
430.30	2578.39
430.51	2666.46
430.71	2373.60
430.92	2447.32
431.13	2467.80
431.33	2469.85
431.54	2559.96
431.74	2678.74
431.95	2762.71
432.15	2383.84
432.36	2504.67
432.56	2572.25
432.77	2688.98
432.98	2731.99
433.18	2447.32
433.39	2318.30
433.59	2455.51
433.80	2758.61
434.00	2660.31
434.21	2375.64
434.41	2379.74
434.62	2744.28
434.82	2359.26
435.03	2330.59
435.23	2469.85
435.44	2308.06
435.64	2498.52
435.85	2498.52
436.06	2629.59
436.26	2539.48
436.47	2424.80
436.67	2392.03
436.88	2490.33
437.08	2588.63
437.29	2629.59
437.49	2531.29
437.70	2613.21
437.90	2471.90
438.11	2643.93
438.31	2559.96
438.52	2693.08
438.72	2637.78
438.93	2740.18
439.13	2521.05
439.34	2660.31
439.54	2492.38
439.75	2533.34
439.95	2480.09
440.16	2412.51
440.36	2549.72
440.57	2588.63
440.77	2490.33
440.98	2553.82
441.18	2469.85
441.39	2441.18
441.59	2285.53
441.80	2785.24
442.00	2498.52
442.21	2559.96
442.41	2328.54
442.62	2613.21
442.82	2439.13
443.02	2406.36
443.23	2441.18
443.43	2490.33
443.64	2678.74
443.84	2308.06
444.05	2623.45
444.25	2562.01
444.46	2432.99
444.66	2453.47
444.87	2514.91
445.07	2291.68
445.28	2408.41
445.48	2621.40
445.69	2570.20
445.89	2803.67
446.09	2482.14
446.30	2838.48
446.50	3008.47
446.71	4497.34
446.91	5791.66
447.12	6795.16
447.32	7061.40
447.53	6651.80
447.73	5478.32
447.93	4810.68
448.14	4433.85
448.34	4440.00
448.55	3831.75
448.75	3774.41
448.96	3540.94
449.16	3387.34
449.36	3092.43
449.57	2752.47
449.77	2553.82
449.98	2488.28
450.18	2551.77
450.39	2545.63
450.59	2613.21
450.79	2488.28
451.00	2373.60
451.20	2533.34
451.41	2463.71
451.61	2590.68
451.81	2547.67
452.02	2404.32
452.22	2365.40
452.43	2465.75
452.63	2449.37
452.84	2439.13
453.04	2428.89
453.24	2516.95
453.45	2416.60
453.65	2475.99
453.86	2488.28
454.06	2531.29
454.26	2455.51
454.47	2355.16
454.67	2523.10
454.87	2559.96
455.08	2465.75
455.28	2607.06
455.49	2455.51
455.69	2392.03
455.89	2703.32
456.10	2555.86
456.30	2482.14
456.51	2594.78
456.71	2572.25
456.91	2510.81
457.12	2549.72
457.32	2500.57
457.52	2338.78
457.73	2549.72
457.93	2584.54
458.14	2387.93
458.34	2355.16
458.54	2430.94
458.75	2406.36
458.95	2598.87
459.15	2467.80
459.36	2541.53
459.56	2514.91
459.76	2850.77
459.97	2496.47
460.17	2441.18
460.37	2482.14
460.58	2469.85
460.78	2486.23
460.99	2437.08
461.19	2387.93
461.39	2443.23
461.60	2453.47
461.80	2525.15
462.00	2310.11
462.21	2510.81
462.41	2355.16
462.61	2375.64
462.82	2279.39
463.02	2465.75
463.22	2506.71
463.43	2564.06
463.63	2514.91
463.83	2729.94
464.04	2535.39
464.24	2484.19
464.44	2344.92
464.64	2498.52
464.85	2633.69
465.05	2519.00
465.25	2408.41
465.46	2457.56
465.66	2574.30
465.86	2535.39
466.07	2453.47
466.27	2506.71
466.47	2371.55
466.68	2338.78
466.88	2562.01
467.08	2527.19
467.29	2619.35
467.49	2471.90
467.69	2467.80
467.89	2539.48
468.10	2478.04
468.30	2506.71
468.50	2664.41
468.71	2555.86
468.91	2398.17
469.11	2555.86
469.31	2469.85
469.52	2340.83
469.72	2719.70
469.92	2654.17
470.13	2424.80
470.33	2521.05
470.53	2594.78
470.73	2990.03
470.94	3301.33
471.14	3444.68
471.34	3819.46
471.54	3721.16
471.75	3321.81
471.95	3129.30
472.15	2965.46
472.36	2987.99
472.56	2889.68
472.76	3033.04
472.96	2924.50
473.17	2795.48
473.37	2602.97
473.57	2531.29
473.77	2576.34
473.98	2527.19
474.18	2365.40
474.38	2836.44
474.58	2445.27
474.79	2396.12
474.99	2490.33
475.19	2541.53
475.39	2349.02
475.60	2488.28
475.80	2506.71
476.00	2547.67
476.20	2424.80
476.41	2418.65
476.61	2564.06
476.81	2695.13
477.01	2400.22
477.21	2600.92
477.42	2570.20
477.62	2346.97
477.82	2613.21
478.02	2392.03
478.23	2516.95
478.43	2392.03
478.63	2404.32
478.83	2478.04
479.03	2443.23
479.24	2596.82
479.44	2791.38
479.64	2394.08
479.84	2256.86
480.04	2383.84
480.25	2682.84
480.45	2392.03
480.65	2416.60
480.85	2719.70
481.06	2467.80
481.26	2547.67
481.46	2527.19
481.66	2572.25
481.86	2375.64
482.06	2639.83
482.27	2381.79
482.47	2389.98
482.67	2568.15
482.87	2394.08
483.07	2584.54
483.28	2461.66
483.48	2332.64
483.68	2428.89
483.88	2367.45
484.08	2291.68
484.29	2383.84
484.49	2496.47
484.69	2301.92
484.89	2709.46
485.09	2652.12
485.29	2531.29
485.50	2555.86
485.70	2463.71
485.90	2527.19
486.10	2510.81
486.30	2523.10
486.50	2615.26
486.71	2619.35
486.91	2578.39
487.11	2514.91
487.31	2359.26
487.51	2572.25
487.71	2394.08
487.91	2342.88
488.12	2404.32
488.32	2265.05
488.52	2371.55
488.72	2242.53
488.92	2480.09
489.12	2592.73
489.32	2586.58
489.53	2539.48
489.73	2297.82
489.93	2725.85
490.13	2332.64
490.33	2256.86
490.53	2439.13
490.73	2734.04
490.94	2326.49
491.14	2564.06
491.34	2613.21
491.54	2699.22
491.74	3387.34
491.94	3958.72
492.14	4435.90
492.34	4333.50
492.54	4079.55
492.75	3479.50
492.95	3645.38
493.15	3231.69
493.35	3184.59
493.55	3071.95
493.75	2932.69
493.95	3002.32
494.15	2705.37
494.35	2588.63
494.56	2619.35
494.76	2439.13
494.96	2572.25
495.16	2420.70
495.36	2590.68
495.56	2559.96
495.76	2471.90
495.96	2375.64
496.16	2437.08
496.36	2707.41
496.56	2482.14
496.77	2570.20
496.97	2418.65
497.17	2643.93
497.37	2367.45
497.57	2615.26
497.77	2504.67
497.97	2258.91
498.17	2469.85
498.37	2426.84
498.57	2527.19
498.77	2482.14
498.97	2580.44
499.17	2781.14
499.38	2527.19
499.58	2535.39
499.78	2559.96
499.98	2553.82
500.18	2488.28
500.38	2455.51
500.58	2596.82
500.78	3219.41
500.98	5369.77
501.18	7575.44
501.38	9181.04
501.58	10268.52
501.78	9901.93
501.98	8060.80
502.18	6852.50
502.38	5699.50
502.58	5545.90
502.78	4874.17
502.98	4648.89
503.18	4493.24
503.38	3989.44
503.59	3563.47
503.79	3356.62
503.99	3157.97
504.19	3022.80
504.39	3104.72
504.59	3114.96
504.79	3088.34
504.99	3096.53
505.19	2809.81
505.39	2750.42
505.59	2838.48
505.79	2801.62
505.99	2705.37
506.19	2551.77
506.39	2707.41
506.59	2521.05
506.79	2430.94
506.99	2555.86
507.19	2488.28
507.39	2559.96
507.59	2385.88
507.79	2371.55
507.99	2394.08
508.19	2512.86
508.39	2439.13
508.59	2400.22
508.79	2533.34
508.99	2844.63
509.19	2416.60
509.39	2576.34
509.59	2406.36
509.79	2422.75
509.99	2480.09
510.19	2598.87
510.39	2506.71
510.59	2506.71
510.79	2424.80
510.99	2265.05
511.19	2523.10
511.39	2643.93
511.59	2596.82
511.79	2625.50
511.99	2375.64
512.19	2686.94
512.38	2543.58
512.58	2408.41
512.78	2412.51
512.98	2707.41
513.18	2617.30
513.38	2291.68
513.58	2506.71
513.78	2457.56
513.98	2422.75
514.18	2367.45
514.38	2449.37
514.58	2539.48
514.78	2514.91
514.98	2314.20
515.18	2473.95
515.38	2324.44
515.58	2723.80
515.78	2355.16
515.98	2457.56
516.18	2521.05
516.38	2516.95
516.57	2408.41
516.77	2398.17
516.97	2576.34
517.17	2441.18
517.37	2260.96
517.57	2523.10
517.77	2539.48
517.97	2385.88
518.17	2568.15
518.37	2346.97
518.57	2422.75
518.77	2441.18
518.97	2412.51
519.16	2480.09
519.36	2674.65
519.56	2359.26
519.76	2449.37
519.96	2531.29
520.16	2703.32
520.36	2432.99
520.56	2684.89
520.76	2406.36
520.96	2482.14
521.16	2641.88
521.35	2598.87
521.55	2590.68
521.75	2506.71
521.95	2430.94
522.15	2394.08
522.35	2316.25
522.55	2449.37
522.75	2559.96
522.95	2398.17
523.14	2398.17
523.34	2572.25
523.54	2369.50
523.74	2557.91
523.94	2412.51
524.14	2346.97
524.34	2537.43
524.54	2613.21
524.73	2469.85
524.93	2588.63
525.13	2504.67
525.33	2285.53
525.53	2670.55
525.73	2623.45
525.93	2564.06
526.13	2422.75
526.32	2424.80
526.52	2637.78
526.72	2486.23
526.92	2457.56
527.12	2451.42
527.32	2435.03
527.52	2441.18
527.71	2502.62
527.91	2404.32
528.11	2471.90
528.31	2435.03
528.51	2416.60
528.71	2574.30
528.90	2529.24
529.10	2555.86
529.30	2588.63
529.50	2244.57
529.70	2473.95
529.90	2447.32
530.09	2441.18
530.29	2322.40
530.49	2371.55
530.69	2799.57
530.89	2555.86
531.09	2547.67
531.28	2430.94
531.48	2674.65
531.68	2447.32
531.88	2482.14
532.08	2639.83
532.28	2492.38
532.47	2553.82
532.67	2564.06
532.87	2596.82
533.07	2420.70
533.27	2531.29
533.46	2543.58
533.66	2484.19
533.86	2484.19
534.06	2543.58
534.26	2570.20
534.45	2463.71
534.65	2551.77
534.85	2547.67
535.05	2443.23
535.25	2643.93
535.44	2316.25
535.64	2502.62
535.84	2471.90
536.04	2426.84
536.24	2473.95
536.43	2387.93
536.63	2492.38
536.83	2498.52
537.03	2512.86
537.22	2234.33
537.42	2250.72
537.62	2439.13
537.82	2432.99
538.02	2605.02
538.21	2592.73
538.41	2807.77
538.61	2482.14
538.81	2541.53
539.00	2557.91
539.20	2324.44
539.40	2473.95
539.60	2492.38
539.79	2592.73
539.99	2408.41
540.19	2457.56
540.39	2449.37
540.58	2428.89
540.78	2539.48
540.98	2478.04
541.18	2498.52
541.37	2494.43
541.57	2404.32
541.77	2537.43
541.97	2342.88
542.16	2285.53
542.36	2457.56
542.56	2416.60
542.76	2623.45
542.95	2531.29
543.15	2584.54
543.35	2588.63
543.54	2310.11
543.74	2439.13
543.94	2572.25
544.14	2514.91
544.33	2555.86
544.53	2465.75
544.73	2537.43
544.93	2447.32
545.12	2424.80
545.32	2439.13
545.52	2414.56
545.71	2334.68
545.91	2424.80
546.11	2404.32
546.30	2408.41
546.50	2443.23
546.70	2627.54
546.90	2396.12
547.09	2373.60
547.29	2463.71
547.49	2506.71
547.68	2500.57
547.88	2381.79
548.08	2523.10
548.27	2908.12
548.47	2377.69
548.67	2432.99
548.87	2572.25
549.06	2459.61
549.26	2383.84
549.46	2535.39
549.65	2392.03
549.85	2465.75
550.05	2566.10
550.24	2340.83
550.44	2447.32
550.64	2510.81
550.83	2400.22
551.03	2643.93
551.23	2609.11
551.42	2523.10
551.62	2424.80
551.82	2490.33
552.01	2432.99
552.21	2621.40
552.41	2463.71
552.60	2744.28
552.80	2539.48
553.00	2392.03
553.19	2521.05
553.39	2695.13
553.59	2392.03
553.78	2494.43
553.98	2514.91
554.17	2301.92
554.37	2512.86
554.57	2594.78
554.76	2349.02
554.96	2406.36
555.16	2504.67
555.35	2545.63
555.55	2512.86
555.75	2551.77
555.94	2514.91
556.14	2258.91
556.33	2557.91
556.53	2512.86
556.73	2457.56
556.92	2549.72
557.12	2510.81
557.32	2740.18
557.51	2650.07
557.71	2531.29
557.90	2678.74
558.10	2662.36
558.30	2521.05
558.49	2443.23
558.69	2441.18
558.88	2602.97
559.08	2492.38
559.28	2457.56
559.47	2586.58
559.67	2537.43
559.86	2719.70
560.06	2455.51
560.26	2445.27
560.45	2584.54
560.65	2437.08
560.84	2674.65
561.04	2406.36
561.24	2594.78
561.43	2439.13
561.63	2678.74
561.82	2471.90
562.02	2547.67
562.22	2385.88
562.41	2351.07
562.61	2457.56
562.80	2342.88
563.00	2783.19
563.19	2545.63
563.39	2471.90
563.59	2557.91
563.78	2340.83
563.98	2244.57
564.17	2338.78
564.37	2207.71
564.56	2519.00
564.76	2379.74
564.96	2617.30
565.15	2605.02
565.35	2762.71
565.54	2402.27
565.74	2586.58
565.93	2535.39
566.13	2502.62
566.32	2596.82
566.52	2453.47
566.71	2551.77
566.91	2615.26
567.11	2523.10
567.30	2381.79
567.50	2592.73
567.69	2523.10
567.89	2424.80
568.08	2410.46
568.28	2537.43
568.47	2338.78
568.67	2435.03
568.86	2371.55
569.06	2582.49
569.25	2496.47
569.45	2392.03
569.64	2365.40
569.84	2471.90
570.04	2531.29
570.23	2445.27
570.43	2416.60
570.62	2568.15
570.82	2633.69
571.01	2379.74
571.21	2461.66
571.40	2435.03
571.60	2596.82
571.79	2502.62
571.99	2586.58
572.18	2357.21
572.38	2510.81
572.57	2416.60
572.77	2596.82
572.96	2760.66
573.16	2605.02
573.35	2428.89
573.55	2684.89
573.74	2416.60
573.94	2529.24
574.13	2463.71
574.33	2527.19
574.52	2725.85
574.71	2469.85
574.91	2480.09
575.10	2375.64
575.30	2457.56
575.49	2396.12
575.69	2308.06
575.88	2562.01
576.08	2439.13
576.27	2621.40
576.47	2545.63
576.66	2598.87
576.86	2725.85
577.05	2621.40
577.25	2615.26
577.44	2764.76
577.64	2502.62
577.83	2598.87
578.02	2482.14
578.22	2629.59
578.41	2693.08
578.61	2490.33
578.80	2355.16
579.00	2490.33
579.19	2502.62
579.39	2504.67
579.58	2525.15
579.77	2420.70
579.97	2641.88
580.16	2633.69
580.36	2531.29
580.55	2553.82
580.75	2543.58
580.94	2592.73
581.13	2691.03
581.33	2697.17
581.52	2498.52
581.72	2756.57
581.91	2684.89
582.11	2416.60
582.30	2684.89
582.49	2576.34
582.69	2744.28
582.88	2521.05
583.08	2537.43
583.27	2672.60
583.47	2506.71
583.66	2430.94
583.85	2432.99
584.05	2465.75
584.24	2564.06
584.44	2559.96
584.63	2641.88
584.82	2736.09
585.02	2719.70
585.21	2688.98
585.41	2711.51
585.60	2611.16
585.79	2754.52
585.99	2779.09
586.18	2717.65
586.37	3252.17
586.57	5099.44
586.76	14917.40
586.96	34371.06
587.15	48215.33
587.34	57099.42
587.54	61504.60
587.73	56067.24
587.93	39462.31
588.12	30006.84
588.31	24069.78
588.51	21143.23
588.70	19289.82
588.89	17327.86
589.09	14878.49
589.28	12666.69
589.47	10350.43
589.67	7933.83
589.86	6236.06
590.06	4587.45
590.25	3932.10
590.44	3381.20
590.64	2965.46
590.83	2762.71
591.02	2748.37
591.22	2576.34
591.41	2547.67
591.60	2424.80
591.80	2803.67
591.99	2387.93
592.18	2469.85
592.38	2658.26
592.57	2482.14
592.76	2582.49
592.96	2600.92
593.15	2486.23
593.34	2621.40
593.54	2471.90
593.73	2596.82
593.92	2645.98
594.12	2650.07
594.31	2562.01
594.50	2654.17
594.70	2635.74
594.89	2785.24
595.08	2414.56
595.28	2635.74
595.47	2942.93
595.66	2680.79
595.86	2400.22
596.05	2473.95
596.24	2488.28
596.43	2721.75
596.63	2652.12
596.82	2525.15
597.01	2607.06
597.21	2858.96
597.40	2531.29
597.59	2453.47
597.79	2451.42
597.98	2576.34
598.17	2545.63
598.36	2519.00
598.56	2648.02
598.75	2441.18
598.94	2553.82
599.14	2531.29
599.33	2373.60
599.52	2605.02
599.71	2465.75
599.91	2549.72
600.10	2637.78
600.29	2449.37
600.48	2500.57
600.68	2521.05
600.87	2521.05
601.06	2449.37
601.26	2539.48
601.45	2557.91
601.64	2432.99
601.83	2748.37
602.03	2416.60
602.22	2267.10
602.41	2654.17
602.60	2881.49
602.80	2537.43
602.99	2486.23
603.18	2430.94
603.37	2531.29
603.57	2449.37
603.76	2473.95
603.95	2621.40
604.14	2500.57
604.34	2342.88
604.53	2406.36
604.72	2480.09
604.91	2588.63
605.10	2488.28
605.30	2408.41
605.49	2740.18
605.68	2609.11
605.87	2531.29
606.07	2435.03
606.26	2617.30
606.45	2609.11
606.64	2580.44
606.84	2449.37
607.03	2441.18
607.22	2652.12
607.41	2451.42
607.60	2543.58
607.80	2699.22
607.99	2512.86
608.18	2498.52
608.37	2486.23
608.56	2422.75
608.76	2701.27
608.95	2717.65
609.14	2611.16
609.33	2717.65
609.52	2662.36
609.72	2572.25
609.91	2609.11
610.10	2521.05
610.29	2723.80
610.48	2572.25
610.68	2576.34
610.87	2490.33
611.06	2625.50
611.25	2469.85
611.44	2590.68
611.63	2392.03
611.83	2701.27
612.02	2383.84
612.21	2596.82
612.40	2217.95
612.59	2336.73
612.79	2385.88
612.98	2510.81
613.17	2711.51
613.36	2539.48
613.55	2719.70
613.74	2531.29
613.93	2641.88
614.13	2672.60
614.32	2736.09
614.51	2613.21
614.70	2580.44
614.89	2510.81
615.08	2529.24
615.28	3043.28
615.47	2443.23
615.66	2568.15
615.85	2455.51
616.04	2643.93
616.23	2662.36
616.42	2506.71
616.62	2537.43
616.81	2559.96
617.00	2566.10
617.19	2621.40
617.38	2480.09
617.57	2521.05
617.76	2656.22
617.95	2564.06
618.15	2605.02
618.34	2580.44
618.53	2293.72
618.72	2684.89
618.91	2578.39
619.10	2570.20
619.29	2529.24
619.48	2471.90
619.68	2400.22
619.87	2424.80
620.06	2369.50
620.25	2611.16
620.44	2498.52
620.63	2449.37
620.82	2562.01
621.01	2539.48
621.20	2562.01
621.39	2549.72
621.59	2541.53
621.78	2521.05
621.97	2473.95
622.16	2553.82
622.35	2531.29
622.54	2545.63
622.73	2613.21
622.92	2281.44
623.11	2582.49
623.30	2543.58
623.49	2488.28
623.68	2398.17
623.88	2731.99
624.07	2514.91
624.26	2473.95
624.45	2459.61
624.64	2414.56
624.83	2519.00
625.02	2441.18
625.21	2504.67
625.40	2467.80
625.59	2731.99
625.78	2490.33
625.97	2641.88
626.16	2598.87
626.35	2613.21
626.54	2576.34
626.74	2691.03
626.93	2455.51
627.12	2533.34
627.31	2596.82
627.50	2535.39
627.69	2514.91
627.88	2437.08
628.07	2349.02
628.26	2369.50
628.45	2471.90
628.64	2375.64
628.83	2416.60
629.02	2349.02
629.21	2498.52
629.40	2592.73
629.59	2410.46
629.78	2387.93
629.97	2471.90
630.16	2574.30
630.35	2471.90
630.54	2473.95
630.73	2449.37
630.92	2498.52
631.11	2375.64
631.30	2488.28
631.49	2514.91
631.68	2410.46
631.87	2539.48
632.06	2326.49
632.25	2807.77
632.44	2504.67
632.63	2535.39
632.82	2510.81
633.01	2410.46
633.20	2592.73
633.39	2580.44
633.58	2443.23
633.77	2580.44
633.96	2537.43
634.15	2543.58
634.34	2609.11
634.53	2627.54
634.72	2555.86
634.91	2349.02
635.10	2443.23
635.29	2564.06
635.48	2500.57
635.67	2426.84
635.86	2314.20
636.05	2656.22
636.24	2496.47
636.43	2551.77
636.62	2535.39
636.81	2187.23
637.00	2453.47
637.19	2506.71
637.38	2430.94
637.57	2482.14
637.76	2566.10
637.95	2650.07
638.14	2551.77
638.33	2590.68
638.52	2588.63
638.71	2392.03
638.89	2402.27
639.08	2867.16
639.27	2748.37
639.46	2727.89
639.65	3108.82
639.84	3252.17
640.03	3366.86
640.22	3137.49
640.41	3123.15
640.60	2842.58
640.79	2803.67
640.98	2662.36
641.17	2717.65
641.36	2707.41
641.55	2619.35
641.74	2420.70
641.92	2396.12
642.11	2467.80
642.30	2506.71
642.49	2402.27
642.68	2420.70
642.87	2453.47
643.06	2512.86
643.25	2410.46
643.44	2435.03
643.63	2465.75
643.82	2533.34
644.00	2312.16
644.19	2486.23
644.38	2389.98
644.57	2588.63
644.76	2469.85
644.95	2398.17
645.14	2514.91
645.33	2416.60
645.52	2547.67
645.71	2357.21
645.89	2344.92
646.08	2602.97
646.27	2490.33
646.46	2666.46
646.65	2330.59
646.84	2498.52
647.03	2371.55
647.22	2504.67
647.40	2465.75
647.59	2535.39
647.78	2293.72
647.97	2445.27
648.16	2291.68
648.35	2637.78
648.54	2545.63
648.73	2428.89
648.91	2527.19
649.10	2478.04
649.29	2402.27
649.48	2502.62
649.67	2482.14
649.86	2541.53
650.05	2539.48
650.23	2789.33
650.42	2531.29
650.61	2779.09
650.80	2670.55
650.99	2799.57
651.18	2703.32
651.36	2578.39
651.55	2514.91
651.74	2580.44
651.93	2420.70
652.12	2527.19
652.31	2592.73
652.49	2420.70
652.68	2596.82
652.87	2703.32
653.06	2637.78
653.25	2729.94
653.44	2559.96
653.62	2670.55
653.81	2531.29
654.00	2473.95
654.19	2566.10
654.38	2834.39
654.56	2551.77
654.75	2496.47
654.94	2605.02
655.13	2482.14
655.32	2471.90
655.51	2502.62
655.69	2416.60
655.88	2619.35
656.07	2324.44
656.26	2453.47
656.45	2377.69
656.63	2490.33
656.82	2455.51
657.01	2576.34
657.20	2432.99
657.38	2637.78
657.57	2465.75
657.76	2240.48
657.95	2594.78
658.14	2349.02
658.32	2492.38
658.51	2428.89
658.70	2502.62
658.89	2549.72
659.08	2480.09
659.26	2699.22
659.45	2422.75
659.64	2527.19
659.83	2449.37
660.01	2951.12
660.20	2514.91
660.39	2672.60
660.58	2260.96
660.76	2461.66
660.95	2349.02
661.14	2539.48
661.33	2367.45
661.51	2416.60
661.70	2473.95
661.89	2510.81
662.08	2482.14
662.26	2346.97
662.45	2379.74
662.64	2703.32
662.83	2543.58
663.01	2312.16
663.20	2465.75
663.39	2678.74
663.58	2367.45
663.76	2371.55
663.95	2543.58
664.14	2439.13
664.32	2308.06
664.51	2322.40
664.70	2275.29
664.89	2512.86
665.07	2367.45
665.26	2562.01
665.45	2330.59
665.64	2580.44
665.82	2473.95
666.01	2572.25
666.20	2396.12
666.38	2592.73
666.57	2707.41
666.76	3993.54
666.95	9613.17
667.13	17608.44
667.32	22656.68
667.51	26388.08
667.69	27838.04
667.88	24641.16
668.07	17286.90
668.25	14372.64
668.44	11900.75
668.63	10428.26
668.81	9154.42
669.00	7972.74
669.19	7090.07
669.38	6328.22
669.56	5160.88
669.75	4392.89
669.94	3760.07
670.12	3266.51
670.31	2928.60
670.50	2852.82
670.68	2752.47
670.87	2607.06
671.06	2500.57
671.24	2580.44
671.43	2750.42
671.62	2541.53
671.80	2482.14
671.99	2564.06
672.18	2539.48
672.36	2488.28
672.55	2551.77
672.74	2420.70
672.92	2465.75
673.11	2654.17
673.29	2365.40
673.48	2605.02
673.67	2484.19
673.85	2607.06
674.04	2392.03
674.23	2447.32
674.41	2738.13
674.60	2445.27
674.79	2252.77
674.97	2398.17
675.16	2596.82
675.34	2625.50
675.53	2410.46
675.72	2527.19
675.90	2682.84
676.09	2463.71
676.28	2418.65
676.46	2342.88
676.65	2537.43
676.83	2406.36
677.02	2471.90
677.21	2449.37
677.39	2498.52
677.58	2338.78
677.77	2414.56
677.95	2480.09
678.14	2502.62
678.32	2488.28
678.51	2402.27
678.70	2678.74
678.88	2375.64
679.07	2539.48
679.25	2498.52
679.44	2404.32
679.63	2404.32
679.81	2510.81
680.00	2572.25
680.18	2521.05
680.37	2684.89
680.55	2449.37
680.74	2336.73
680.93	2254.81
681.11	2467.80
681.30	2457.56
681.48	2381.79
681.67	2484.19
681.85	2506.71
682.04	2441.18
682.23	2578.39
682.41	2543.58
682.60	2420.70
682.78	2455.51
682.97	2357.21
683.15	2416.60
683.34	2500.57
683.53	2580.44
683.71	2351.07
683.90	2543.58
684.08	2619.35
684.27	2428.89
684.45	2475.99
684.64	2553.82
684.82	2457.56
685.01	2568.15
685.19	2490.33
685.38	2660.31
685.57	2506.71
685.75	2469.85
685.94	2402.27
686.12	2369.50
686.31	2441.18
686.49	2670.55
686.68	2297.82
686.86	2500.57
687.05	2398.17
687.23	2645.98
687.42	2455.51
687.60	2275.29
687.79	2674.65
687.97	2613.21
688.16	2555.86
688.34	2580.44
688.53	2246.62
688.71	2650.07
688.90	2676.70
689.08	2410.46
689.27	2318.30
689.45	2553.82
689.64	2539.48
689.82	2543.58
690.01	2510.81
690.19	2553.82
690.38	2478.04
690.56	2592.73
690.75	2420.70
690.93	2379.74
691.12	2451.42
691.30	2461.66
691.49	2473.95
691.67	2576.34
691.86	2791.38
692.04	2488.28
692.23	2506.71
692.41	2500.57
692.60	2809.81
692.78	2688.98
692.97	2506.71
693.15	2682.84
693.34	2717.65
693.52	2564.06
693.71	2490.33
693.89	2514.91
694.08	2326.49
694.26	2531.29
694.44	2471.90
694.63	2605.02
694.81	2389.98
695.00	2400.22
695.18	2596.82
695.37	2772.95
695.55	2496.47
695.74	2432.99
695.92	2375.64
696.10	2664.41
696.29	2299.87
696.47	2473.95
696.66	2318.30
696.84	2396.12
697.03	2465.75
697.21	2719.70
697.40	3760.07
697.58	2619.35
697.76	2422.75
697.95	2383.84
698.13	2371.55
698.32	2334.68
698.50	2424.80
698.68	2482.14
698.87	2439.13
699.05	2670.55
699.24	2445.27
699.42	2301.92
699.61	2572.25
699.79	2574.30
699.97	2473.95
700.16	2340.83
700.34	2344.92
700.53	2533.34
700.71	2719.70
700.89	2588.63
701.08	2482.14
701.26	2475.99
701.45	3020.75
701.63	2375.64
701.81	2428.89
702.00	2420.70
702.18	2469.85
702.37	2435.03
702.55	2795.48
702.73	2695.13
702.92	2596.82
703.10	2858.96
703.28	2731.99
703.47	2443.23
703.65	2680.79
703.84	2555.86
704.02	2478.04
704.20	2715.61
704.39	2531.29
704.57	2519.00
704.75	2613.21
704.94	2580.44
705.12	2570.20
705.30	2918.36
705.49	5758.89
705.67	12853.05
705.86	20811.46
706.04	24563.34
706.22	27852.38
706.41	28460.62
706.59	23035.55
706.77	16416.52
706.96	14204.71
707.14	12482.37
707.32	10739.55
707.51	9486.19
707.69	7821.19
707.87	6195.11
708.06	4882.36
708.24	3971.01
708.42	3416.01
708.61	3348.43
708.79	2660.31
708.97	2676.70
709.16	2682.84
709.34	2584.54
709.52	2428.89
709.71	2512.86
709.89	2580.44
710.07	2457.56
710.26	2318.30
710.44	2500.57
710.62	2637.78
710.80	2527.19
710.99	2527.19
711.17	2570.20
711.35	2480.09
711.54	2357.21
711.72	2584.54
711.90	2523.10
712.09	2465.75
712.27	2408.41
712.45	2592.73
712.63	2420.70
712.82	2490.33
713.00	2420.70
713.18	2580.44
713.37	2512.86
713.55	2566.10
713.73	2607.06
713.91	2590.68
714.10	2478.04
714.28	2531.29
714.46	2504.67
714.65	2426.84
714.83	2432.99
715.01	2500.57
715.19	2512.86
715.38	2338.78
715.56	2510.81
715.74	2445.27
715.92	2408.41
716.11	2643.93
716.29	2301.92
716.47	2504.67
716.65	2473.95
716.84	2330.59
717.02	2596.82
717.20	2260.96
717.38	2428.89
717.57	2527.19
717.75	2500.57
717.93	2461.66
718.11	2559.96
718.30	2365.40
718.48	2482.14
718.66	2654.17
718.84	2549.72
719.03	2461.66
719.21	2334.68
719.39	2713.56
719.57	2537.43
719.75	2555.86
719.94	2392.03
720.12	2451.42
720.30	2523.10
720.48	2590.68
720.67	2375.64
720.85	2408.41
721.03	2463.71
721.21	2346.97
721.39	2545.63
721.58	2643.93
721.76	2496.47
721.94	2543.58
722.12	2557.91
722.30	2695.13
722.49	2447.32
722.67	2400.22
722.85	2519.00
723.03	2310.11
723.21	2371.55
723.40	2545.63
723.58	2590.68
723.76	2627.54
723.94	2693.08
724.12	2615.26
724.30	2699.22
724.49	2654.17
724.67	2334.68
724.85	2621.40
725.03	2351.07
725.21	2574.30
725.40	2627.54
725.58	2377.69
725.76	2602.97
725.94	2553.82
726.12	2383.84
726.30	2478.04
726.49	2516.95
726.67	2486.23
726.85	2529.24
727.03	2932.69
727.21	4249.54
727.39	6031.27
727.57	6655.90
727.76	7460.75
727.94	7669.64
728.12	7016.34
728.30	5574.57
728.48	5025.72
728.66	4466.62
728.84	4128.70
729.03	3635.14
729.21	3266.51
729.39	2947.03
729.57	2785.24
729.75	2598.87
729.93	2527.19
730.11	2482.14
730.30	2469.85
730.48	2484.19
730.66	2662.36
730.84	2461.66
731.02	2514.91
731.20	2490.33
731.38	2506.71
731.56	2248.67
731.74	2299.87
731.93	2527.19
732.11	2473.95
732.29	2422.75
732.47	2555.86
732.65	2519.00
732.83	2629.59
733.01	2551.77
733.19	2375.64
733.37	2498.52
733.56	2527.19
733.74	2426.84
733.92	2682.84
734.10	2500.57
734.28	2512.86
734.46	2306.01
734.64	2471.90
734.82	2453.47
735.00	2293.72
735.18	2349.02
735.36	2549.72
735.54	2504.67
735.73	2445.27
735.91	2564.06
736.09	2580.44
736.27	2430.94
736.45	2482.14
736.63	2254.81
736.81	2396.12
736.99	2602.97
737.17	2596.82
737.35	2392.03
737.53	2480.09
737.71	2418.65
737.89	2580.44
738.07	2416.60
738.25	2349.02
738.43	2232.29
738.61	2381.79
738.80	2306.01
738.98	2369.50
739.16	2441.18
739.34	2396.12
739.52	2668.50
739.70	2432.99
739.88	2510.81
740.06	2559.96
740.24	2285.53
740.42	2623.45
740.60	2287.58
740.78	2412.51
740.96	2199.52
741.14	2496.47
741.32	2504.67
741.50	2310.11
741.68	2688.98
741.86	2605.02
742.04	2363.36
742.22	2322.40
742.40	2359.26
742.58	2537.43
742.76	2357.21
742.94	2588.63
743.12	2283.49
743.30	2523.10
743.48	2500.57
743.66	2422.75
743.84	2418.65
744.02	2465.75
744.20	2492.38
744.38	2371.55
744.56	2346.97
744.74	2742.23
744.92	2535.39
745.10	2662.36
745.28	2582.49
745.46	2668.50
745.64	2498.52
745.82	2553.82
746.00	2469.85
746.18	2514.91
746.36	2383.84
746.54	2510.81
746.72	2553.82
746.90	2365.40
747.08	2621.40
747.26	2365.40
747.44	2482.14
747.62	2570.20
747.80	2570.20
747.98	2543.58
748.15	2453.47
748.33	2670.55
748.51	2430.94
748.69	2512.86
748.87	2408.41
749.05	2531.29
749.23	2488.28
749.41	2416.60
749.59	2445.27
749.77	2621.40
749.95	2443.23
750.13	2359.26
750.31	2490.33
750.49	2512.86
750.67	2605.02
750.85	2625.50
751.03	2578.39
751.20	2662.36
751.38	2553.82
751.56	2445.27
751.74	2435.03
751.92	2471.90
752.10	2342.88
752.28	2584.54
752.46	2373.60
752.64	2469.85
752.82	2506.71
753.00	2613.21
753.18	2412.51
753.35	2461.66
753.53	2519.00
753.71	2447.32
753.89	2508.76
754.07	2465.75
754.25	2562.01
754.43	2445.27
754.61	2326.49
754.79	2578.39
754.97	2482.14
755.14	2629.59
755.32	2359.26
755.50	2449.37
755.68	2523.10
755.86	2375.64
756.04	2359.26
756.22	2359.26
756.40	2514.91
756.57	2664.41
756.75	2457.56
756.93	2631.64
757.11	2582.49
757.29	2310.11
757.47	2375.64
757.65	2267.10
757.82	2144.22
758.00	2299.87
758.18	2371.55
758.36	2398.17
758.54	2719.70
758.72	2248.67
758.90	2539.48
759.07	2525.15
759.25	2422.75
759.43	2588.63
759.61	2295.77
759.79	3594.19
759.97	2521.05
760.15	2445.27
760.32	2404.32
760.50	2488.28
760.68	2703.32
760.86	2301.92
761.04	2619.35
761.22	2498.52
761.39	2504.67
761.57	2545.63
761.75	2478.04
761.93	2580.44
762.11	2453.47
762.28	2498.52
762.46	2310.11
762.64	2664.41
762.82	2316.25
763.00	2441.18
763.18	2662.36
763.35	2389.98
763.53	2533.34
763.71	2408.41
763.89	2392.03
764.07	2621.40
764.24	2463.71
764.42	2529.24
764.60	2461.66
764.78	2539.48
764.96	2592.73
765.13	2574.30
765.31	2457.56
765.49	2553.82
765.67	2363.36
765.84	2385.88
766.02	2342.88
766.20	2322.40
766.38	2500.57
766.56	2504.67
766.73	2469.85
766.91	2488.28
767.09	2457.56
767.27	2480.09
767.44	2406.36
767.62	2506.71
767.80	2527.19
767.98	2363.36
768.15	2357.21
768.33	2594.78
768.51	2508.76
768.69	2539.48
768.87	2441.18
769.04	2596.82
769.22	2727.89
769.40	2670.55
769.58	2672.60
769.75	2506.71
769.93	2664.41
770.11	2480.09
770.28	2346.97
770.46	2588.63
770.64	2498.52
770.82	2402.27
770.99	2412.51
771.17	2486.23
771.35	2482.14
771.53	2432.99
771.70	2406.36
771.88	2586.58
772.06	2398.17
772.23	2432.99
772.41	2475.99
772.59	2525.15
772.77	2340.83
772.94	2420.70
773.12	2445.27
773.30	2418.65
773.47	2488.28
773.65	2383.84
773.83	2695.13
774.01	2473.95
774.18	2211.81
774.36	2471.90
774.54	2365.40
774.71	2541.53
774.89	2250.72
775.07	2312.16
775.24	2428.89
775.42	2428.89
775.60	2703.32
775.78	2322.40
775.95	2291.68
776.13	2293.72
776.31	2236.38
776.48	2514.91
776.66	2562.01
776.84	2516.95
777.01	2322.40
777.19	2375.64
777.37	2478.04
777.54	2480.09
777.72	2711.51
777.90	2553.82
778.07	2416.60
778.25	2858.96
778.43	2592.73
778.60	2332.64
778.78	2539.48
778.96	2686.94
779.13	2381.79
779.31	2463.71
779.49	2453.47
779.66	2482.14
779.84	2486.23
780.01	2414.56
780.19	2377.69
780.37	2602.97
780.54	2547.67
780.72	2334.68
780.90	2445.27
781.07	2469.85
781.25	2430.94
781.43	2549.72
781.60	2459.61
781.78	2596.82
781.95	2480.09
782.13	2416.60
782.31	2488.28
782.48	2291.68
782.66	2525.15
782.83	2768.85
783.01	2564.06
783.19	2566.10
783.36	2424.80
783.54	2299.87
783.72	2523.10
783.89	2394.08
784.07	2555.86
784.24	2564.06
784.42	2566.10
784.60	2457.56
784.77	2553.82
784.95	2244.57
785.12	2346.97
785.30	2559.96
785.47	2349.02
785.65	2400.22
785.83	2441.18
786.00	2455.51
786.18	2492.38
786.35	2342.88
786.53	2375.64
786.71	2543.58
786.88	2549.72
787.06	2521.05
787.23	2422.75
787.41	2353.12
787.58	2396.12
787.76	2414.56
787.94	2533.34
788.11	2539.48
788.29	2336.73
788.46	2445.27
788.64	2346.97
788.81	2355.16
788.99	2482.14
789.16	2285.53
789.34	2490.33
789.52	2404.32
789.69	2359.26
789.87	2281.44
790.04	2441.18
790.22	2545.63
790.39	2701.27
790.57	2340.83
790.74	2359.26
790.92	2545.63
791.09	2301.92
791.27	2469.85
791.44	2543.58
791.62	2428.89
791.79	2660.31
791.97	2484.19
792.15	2719.70
792.32	2547.67
792.50	2652.12
792.67	2613.21
792.85	2572.25
793.02	2482.14
793.20	2363.36
793.37	2357.21
793.55	2430.94
793.72	2273.25
793.90	2529.24
794.07	2351.07
794.25	2402.27
794.42	2490.33
794.60	2457.56
794.77	2502.62
794.95	2584.54
795.12	2584.54
795.30	2496.47
795.47	2281.44
795.65	2705.37
795.82	2514.91
796.00	2326.49
796.17	2504.67
796.34	2316.25
796.52	2506.71
796.69	2557.91
796.87	2566.10
797.04	2527.19
797.22	2566.10
797.39	2482.14
797.57	2629.59
797.74	2465.75
797.92	2547.67
798.09	2346.97
798.27	2570.20
798.44	2445.27
798.62	2435.03
798.79	2490.33
798.96	2463.71
799.14	2465.75
799.31	2789.33
799.49	2461.66
799.66	2406.36
799.84	2519.00
800.01	2314.20
800.19	2498.52
800.36	2269.15
800.53	2445.27
800.71	2527.19
800.88	2662.36
801.06	2404.32
801.23	2412.51
801.41	2408.41
801.58	2465.75
801.75	2359.26
801.93	2459.61
802.10	2504.67
802.28	2422.75
802.45	2439.13
802.63	2475.99
802.80	2629.59
802.97	2453.47
803.15	2428.89
803.32	2344.92
803.50	2398.17
803.67	2447.32
803.84	2389.98
804.02	2420.70
804.19	2469.85
804.37	2158.56
804.54	2342.88
804.71	2322.40
804.89	2408.41
805.06	2330.59
805.24	2326.49
805.41	2383.84
805.58	2424.80
805.76	2693.08
805.93	2533.34
806.10	2637.78
806.28	2553.82
806.45	2437.08
806.63	2496.47
806.80	2555.86
806.97	2490.33
807.15	2553.82
807.32	2389.98
807.49	2375.64
807.67	2277.34
807.84	2506.71
808.01	2258.91
808.19	2564.06
808.36	2758.61
808.54	2490.33
808.71	2406.36
808.88	2424.80
809.06	2654.17
809.23	2633.69
809.40	2414.56
809.58	2508.76
809.75	2443.23
809.92	2377.69
810.10	2701.27
810.27	2441.18
810.44	2492.38
810.62	2621.40
810.79	2516.95
810.96	2469.85
811.14	2355.16
811.31	2555.86
811.48	2539.48
811.66	2435.03
811.83	2549.72
812.00	2562.01
812.18	2535.39
812.35	2756.57
812.52	2424.80
812.69	2455.51
812.87	2365.40
813.04	2416.60
813.21	2494.43
813.39	2441.18
813.56	2326.49
813.73	2584.54
813.91	2375.64
814.08	2475.99
814.25	2457.56
814.42	2250.72
814.60	2506.71
814.77	2381.79
814.94	2455.51
815.12	2461.66
815.29	2564.06
815.46	2400.22
815.63	2496.47
815.81	2457.56
815.98	2457.56
816.15	2461.66
816.33	2459.61
816.50	2373.60
816.67	2473.95
816.84	2500.57
817.02	2355.16
817.19	2521.05
817.36	2514.91
817.53	2484.19
817.71	2353.12
817.88	2535.39
818.05	2461.66
818.22	2449.37
818.40	2693.08
818.57	2396.12
818.74	2494.43
818.91	2461.66
819.09	2529.24
819.26	2463.71
819.43	2398.17
819.60	2404.32
819.78	2519.00
819.95	2580.44
820.12	2346.97
820.29	2682.84
820.47	2654.17
820.64	2420.70
820.81	2340.83
820.98	2430.94
821.15	2449.37
821.33	2568.15
821.50	2299.87
821.67	2611.16
821.84	2457.56
822.02	2514.91
822.19	2611.16
822.36	2357.21
822.53	2410.46
822.70	2263.01
822.88	2412.51
823.05	2662.36
823.22	2498.52
823.39	2547.67
823.56	2506.71
823.74	2744.28
823.91	2346.97
824.08	2361.31
824.25	2363.36
824.42	2662.36
824.60	2314.20
824.77	2519.00
824.94	2420.70
825.11	2500.57
825.28	2273.25
825.45	2457.56
825.63	2510.81
825.80	2412.51
825.97	2465.75
826.14	2416.60
826.31	2299.87
826.48	2480.09
826.66	2373.60
826.83	2457.56
827.00	2519.00
827.17	2396.12
827.34	2455.51
827.51	2371.55
827.69	2480.09
827.86	2336.73
828.03	2389.98
828.20	2453.47
828.37	2338.78
828.54	2519.00
828.71	2351.07
828.89	2619.35
829.06	2506.71
829.23	2596.82
829.40	2430.94
829.57	2336.73
829.74	2498.52
829.91	2387.93
830.09	2326.49
830.26	2510.81
830.43	2611.16
830.60	2363.36
830.77	2512.86
830.94	2555.86
831.11	2557.91
831.28	2437.08
831.46	2553.82
831.63	2359.26
831.80	2605.02
831.97	2469.85
832.14	2428.89
832.31	2475.99
832.48	2576.34
832.65	2617.30
832.82	2486.23
832.99	2437.08
833.17	2332.64
833.34	2664.41
833.51	2475.99
833.68	2256.86
833.85	2484.19
834.02	2338.78
834.19	2400.22
834.36	2392.03
834.53	2506.71
834.70	2539.48
834.87	2467.80
835.04	2338.78
835.22	2400.22
835.39	2422.75
835.56	2269.15
835.73	2342.88
835.90	2678.74
836.07	2414.56
836.24	2437.08
836.41	2314.20
836.58	2475.99
836.75	2543.58
836.92	2445.27
837.09	2383.84
837.26	2535.39
837.43	2543.58
837.60	2449.37
837.77	2449.37
837.94	2572.25
838.12	2617.30
838.29	2359.26
838.46	2326.49
838.63	2299.87
838.80	2648.02
838.97	2461.66
839.14	2359.26
839.31	2512.86
839.48	2588.63
839.65	2375.64
839.82	2480.09
839.99	2424.80
840.16	2465.75
840.33	2340.83
840.50	2322.40
840.67	2389.98
840.84	2244.57
841.01	2342.88
841.18	2351.07
841.35	2482.14
841.52	2465.75
841.69	2613.21
841.86	2437.08
842.03	2516.95
842.20	2609.11
842.37	2377.69
842.54	2465.75
842.71	2488.28
842.88	2252.77
843.05	2469.85
843.22	2418.65
843.39	2580.44
843.56	2369.50
843.73	2365.40
843.90	2527.19
844.07	2488.28
844.24	2584.54
844.41	2441.18
844.58	2396.12
844.75	2469.85
844.92	2514.91
845.09	2408.41
845.26	2381.79
845.43	2473.95
845.60	2412.51
845.77	2451.42
845.94	2449.37
846.10	2641.88
846.27	2287.58
846.44	2291.68
846.61	2363.36
846.78	2461.66
846.95	2609.11
847.12	2344.92
847.29	2428.89
847.46	2342.88
847.63	2600.92
847.80	2383.84
847.97	2408.41
848.14	2668.50
848.31	2367.45
848.48	2242.53
848.65	2451.42
848.82	2398.17
848.98	2697.17
849.15	2478.04
849.32	2492.38
849.49	2557.91
849.66	2510.81
849.83	2398.17
850.00	2267.10
850.17	2600.92
850.34	2404.32
850.51	2338.78
850.68	2355.16
850.85	2787.29
851.01	2512.86
851.18	2432.99
851.35	2326.49
851.52	2514.91
851.69	2666.46
851.86	2162.66
852.03	2346.97
852.20	2555.86
852.37	2385.88
852.53	2242.53
852.70	2332.64
852.87	2486.23
853.04	2527.19
853.21	2375.64
853.38	2482.14
853.55	2615.26
853.72	2629.59
853.89	2265.05
854.05	2351.07
854.22	2432.99
854.39	2398.17
854.56	2316.25
854.73	2541.53
854.90	2320.35
855.07	2445.27
855.23	2373.60
855.40	2375.64
855.57	2416.60
855.74	2289.63
855.91	2600.92
856.08	2277.34
856.25	2308.06
856.41	2412.51
856.58	2383.84
856.75	2525.15
856.92	2367.45
857.09	2625.50
857.26	2269.15
857.42	2375.64
857.59	2564.06
857.76	2449.37
857.93	2447.32
858.10	2381.79
858.27	2346.97
858.43	2467.80
858.60	2402.27
858.77	2281.44
858.94	2357.21
859.11	2602.97
859.27	2336.73
859.44	2355.16
859.61	2768.85
859.78	2594.78
859.95	2334.68
860.12	2310.11
860.28	2754.52
860.45	2627.54
860.62	2412.51
860.79	2379.74
860.95	2430.94
861.12	2428.89
861.29	2355.16
861.46	2289.63
861.63	2445.27
861.79	2459.61
861.96	2291.68
862.13	2336.73
862.30	2674.65
862.47	2375.64
862.63	2283.49
862.80	2480.09
862.97	2531.29
863.14	2545.63
863.30	2426.84
863.47	2367.45
863.64	2670.55
863.81	2512.86
863.97	2349.02
864.14	2412.51
864.31	2346.97
864.48	2506.71
864.65	2338.78
864.81	2461.66
864.98	2519.00
865.15	2617.30
865.32	2486.23
865.48	2564.06
865.65	2680.79
865.82	2457.56
865.98	2498.52
866.15	2508.76
866.32	2437.08
866.49	2461.66
866.65	2625.50
866.82	2316.25
866.99	2490.33
867.16	2392.03
867.32	2381.79
867.49	2334.68
867.66	2463.71
867.83	2455.51
867.99	2310.11
868.16	2371.55
868.33	2389.98
868.49	2406.36
868.66	2430.94
868.83	2496.47
868.99	2615.26
869.16	2531.29
869.33	2506.71
869.50	2422.75
869.66	2412.51
869.83	2467.80
870.00	2258.91
870.16	2465.75
870.33	2430.94
870.50	2582.49
870.66	2430.94
870.83	2498.52
871.00	2392.03
871.17	2539.48
871.33	2480.09
871.50	2387.93
871.67	2506.71
871.83	2279.39
872.00	2473.95
872.17	2392.03
872.33	2660.31
872.50	2617.30
872.67	2285.53
872.83	2381.79
873.00	2519.00
873.17	2486.23
873.33	2461.66
873.50	2406.36
873.67	2408.41
873.83	2351.07
874.00	2435.03
874.16	2566.10
874.33	2457.56
874.50	2326.49
874.66	2502.62
874.83	2486.23
875.00	2576.34
875.16	2564.06
875.33	2512.86
875.50	2174.94
875.66	2340.83
875.83	2437.08
875.99	2531.29
876.16	2500.57
876.33	2381.79
876.49	2377.69
876.66	2475.99
876.83	2432.99
876.99	2215.90
877.16	2402.27
877.32	2351.07
877.49	2342.88
877.66	2514.91
877.82	2725.85
877.99	2426.84
878.15	2504.67
878.32	2457.56
878.49	2592.73
878.65	2383.84
878.82	2543.58
878.98	2445.27
879.15	2551.77
879.32	2463.71
879.48	2447.32
879.65	2457.56
879.81	2396.12
879.98	2349.02
880.15	2359.26
880.31	2572.25
880.48	2373.60
880.64	2645.98
880.81	2445.27
880.97	2586.58
881.14	2600.92
881.31	2234.33
881.47	2602.97
881.64	2496.47
881.80	2236.38
881.97	2463.71
882.13	2527.19
882.30	2340.83
882.47	2312.16
882.63	2367.45
882.80	2441.18
882.96	2435.03
883.13	2621.40
883.29	2398.17
883.46	2381.79
883.62	2842.58
883.79	2545.63
883.95	2555.86
884.12	2367.45
884.29	2564.06
884.45	2506.71
884.62	2533.34
884.78	2340.83
884.95	2711.51
885.11	2486.23
885.28	2455.51
885.44	2289.63
885.61	2580.44
885.77	2619.35
885.94	2527.19
886.10	2412.51
886.27	2400.22
886.43	2660.31
886.60	2529.24
886.76	2416.60
886.93	2369.50
887.09	2459.61
887.26	2217.95
887.42	2377.69
887.59	2652.12
887.75	2699.22
887.92	2514.91
888.08	2508.76
888.25	2834.39
888.41	2586.58
888.58	2412.51
888.74	2316.25
888.91	2381.79
>>>>>End Processed Spectral Data<<<<<
