SpectraSuite Data File
++++++++++++++++++++++++++++++++++++
Date: Thu May 05 14:41:36 CEST 2016
User: root
Dark Spectrum Present: No
Reference Spectrum Present: No
Number of Sampled Component Spectra: 1
Spectrometers: USB4C02835
Integration Time (usec): 100000 (USB4C02835)
Spectra Averaged: 1 (USB4C02835)
Boxcar Smoothing: 0 (USB4C02835)
Correct for Electrical Dark: No (USB4C02835)
Strobe/Lamp Enabled: No (USB4C02835)
Correct for Detector Non-linearity: No (USB4C02835)
Correct for Stray Light: No (USB4C02835)
Number of Pixels in Processed Spectrum: 3648
>>>>>Begin Processed Spectral Data<<<<<
177.47	1863.65
177.69	1863.65
177.91	1863.65
178.13	1916.90
178.36	1908.71
178.58	2363.36
178.80	2461.66
179.02	2283.49
179.24	2367.45
179.46	2250.72
179.68	2437.08
179.90	2455.51
180.13	2539.48
180.35	2260.96
180.57	2328.54
180.79	2580.44
181.01	2467.80
181.23	2398.17
181.45	2486.23
181.67	2502.62
181.90	2615.26
182.12	2396.12
182.34	2310.11
182.56	2553.82
182.78	2570.20
183.00	2367.45
183.22	2463.71
183.44	2246.62
183.66	2863.06
183.89	2498.52
184.11	2392.03
184.33	2658.26
184.55	2551.77
184.77	2400.22
184.99	2373.60
185.21	2441.18
185.43	2783.19
185.65	2248.67
185.87	2320.35
186.10	2777.05
186.32	2752.47
186.54	2449.37
186.76	2465.75
186.98	2580.44
187.20	2441.18
187.42	2400.22
187.64	2318.30
187.86	2574.30
188.08	2670.55
188.30	2344.92
188.52	2363.36
188.75	2656.22
188.97	2572.25
189.19	2303.96
189.41	2291.68
189.63	2527.19
189.85	2424.80
190.07	2234.33
190.29	2205.66
190.51	2449.37
190.73	2340.83
190.95	2439.13
191.17	2342.88
191.39	2269.15
191.61	2441.18
191.84	2318.30
192.06	2480.09
192.28	2322.40
192.50	2832.34
192.72	2416.60
192.94	2318.30
193.16	2633.69
193.38	2410.46
193.60	2334.68
193.82	2379.74
194.04	2592.73
194.26	2455.51
194.48	2322.40
194.70	2375.64
194.92	2473.95
195.14	2570.20
195.36	2318.30
195.58	2408.41
195.80	2463.71
196.02	2404.32
196.24	2271.20
196.46	2486.23
196.69	2398.17
196.91	2783.19
197.13	2283.49
197.35	2283.49
197.57	2684.89
197.79	2539.48
198.01	2383.84
198.23	2373.60
198.45	2527.19
198.67	2351.07
198.89	2267.10
199.11	2400.22
199.33	2445.27
199.55	2201.57
199.77	2338.78
199.99	2486.23
200.21	2408.41
200.43	2516.95
200.65	2303.96
200.87	2236.38
201.09	2453.47
201.31	2418.65
201.53	2416.60
201.75	2389.98
201.97	2512.86
202.19	2453.47
202.41	2377.69
202.63	2555.86
202.85	2607.06
203.07	2521.05
203.29	2392.03
203.51	2297.82
203.73	2506.71
203.95	2832.34
204.17	2293.72
204.39	2449.37
204.61	2486.23
204.83	2408.41
205.05	2430.94
205.27	2416.60
205.49	2840.53
205.71	2482.14
205.93	2303.96
206.15	2256.86
206.37	2506.71
206.59	2428.89
206.81	2238.43
207.03	2265.05
207.25	2400.22
207.47	2652.12
207.69	2424.80
207.91	2527.19
208.13	2641.88
208.34	2394.08
208.56	2168.80
208.78	2394.08
209.00	2424.80
209.22	2449.37
209.44	2414.56
209.66	2326.49
209.88	2445.27
210.10	2521.05
210.32	2383.84
210.54	2486.23
210.76	2506.71
210.98	2607.06
211.20	2240.48
211.42	2473.95
211.64	2611.16
211.86	2490.33
212.08	2392.03
212.30	2324.44
212.52	2457.56
212.74	2514.91
212.96	2400.22
213.17	2426.84
213.39	2572.25
213.61	2674.65
213.83	2330.59
214.05	2449.37
214.27	2609.11
214.49	2324.44
214.71	2314.20
214.93	2443.23
215.15	2478.04
215.37	2555.86
215.59	2258.91
215.81	2392.03
216.03	2633.69
216.24	2494.43
216.46	2387.93
216.68	2367.45
216.90	2568.15
217.12	2600.92
217.34	2293.72
217.56	2408.41
217.78	2639.83
218.00	2537.43
218.22	2461.66
218.44	2363.36
218.66	2488.28
218.87	2760.66
219.09	2334.68
219.31	2367.45
219.53	2564.06
219.75	2527.19
219.97	2334.68
220.19	2351.07
220.41	2494.43
220.63	2670.55
220.85	2394.08
221.06	2301.92
221.28	2572.25
221.50	2504.67
221.72	2326.49
221.94	2260.96
222.16	2523.10
222.38	2541.53
222.60	2375.64
222.82	2314.20
223.03	2549.72
223.25	2334.68
223.47	2351.07
223.69	2506.71
223.91	2580.44
224.13	2527.19
224.35	2283.49
224.57	2480.09
224.78	2650.07
225.00	2373.60
225.22	2441.18
225.44	2351.07
225.66	2602.97
225.88	2432.99
226.10	2437.08
226.32	2338.78
226.53	2627.54
226.75	2416.60
226.97	2420.70
227.19	2334.68
227.41	2377.69
227.63	2387.93
227.85	2207.71
228.06	2363.36
228.28	2512.86
228.50	2547.67
228.72	2213.85
228.94	2328.54
229.16	2181.09
229.37	2355.16
229.59	2359.26
229.81	2430.94
230.03	2416.60
230.25	2328.54
230.47	2273.25
230.69	2357.21
230.90	2539.48
231.12	2357.21
231.34	2408.41
231.56	2414.56
231.78	2363.36
232.00	2457.56
232.21	2283.49
232.43	2385.88
232.65	2195.42
232.87	2451.42
233.09	2240.48
233.30	2303.96
233.52	2580.44
233.74	2414.56
233.96	2398.17
234.18	2406.36
234.40	2432.99
234.61	2713.56
234.83	2342.88
235.05	2238.43
235.27	2764.76
235.49	2660.31
235.70	2326.49
235.92	2363.36
236.14	2494.43
236.36	2844.63
236.58	2312.16
236.79	2375.64
237.01	2500.57
237.23	2484.19
237.45	2555.86
237.67	2398.17
237.88	2498.52
238.10	2686.94
238.32	2308.06
238.54	2308.06
238.76	2527.19
238.97	2346.97
239.19	2271.20
239.41	2494.43
239.63	2650.07
239.85	2365.40
240.06	2346.97
240.28	2357.21
240.50	2496.47
240.72	2457.56
240.93	2269.15
241.15	2353.12
241.37	2494.43
241.59	2684.89
241.81	2404.32
242.02	2371.55
242.24	2514.91
242.46	2611.16
242.68	2226.14
242.89	2349.02
243.11	2617.30
243.33	2473.95
243.55	2367.45
243.76	2340.83
243.98	2389.98
244.20	2572.25
244.42	2373.60
244.64	2301.92
244.85	2318.30
245.07	2389.98
245.29	2408.41
245.51	2357.21
245.72	2525.15
245.94	2557.91
246.16	2373.60
246.38	2357.21
246.59	2371.55
246.81	2402.27
247.03	2328.54
247.24	2263.01
247.46	2408.41
247.68	2447.32
247.90	2228.19
248.11	2301.92
248.33	2590.68
248.55	2445.27
248.77	2351.07
248.98	2435.03
249.20	2691.03
249.42	2541.53
249.64	2445.27
249.85	2326.49
250.07	2408.41
250.29	2484.19
250.50	2412.51
250.72	2269.15
250.94	2510.81
251.16	2709.46
251.37	2455.51
251.59	2430.94
251.81	2605.02
252.02	2652.12
252.24	2244.57
252.46	2437.08
252.68	2410.46
252.89	2353.12
253.11	2226.14
253.33	2519.00
253.54	2658.26
253.76	2285.53
253.98	2346.97
254.20	2344.92
254.41	2269.15
254.63	2418.65
254.85	2193.37
255.06	2420.70
255.28	2562.01
255.50	2441.18
255.71	2291.68
255.93	2248.67
256.15	2490.33
256.36	2523.10
256.58	2195.42
256.80	2369.50
257.02	2467.80
257.23	2396.12
257.45	2277.34
257.67	2471.90
257.88	2482.14
258.10	2523.10
258.32	2346.97
258.53	2441.18
258.75	2668.50
258.97	2469.85
259.18	2267.10
259.40	2324.44
259.62	2652.12
259.83	2680.79
260.05	2402.27
260.27	2922.45
260.48	2494.43
260.70	2346.97
260.92	2263.01
261.13	2336.73
261.35	2564.06
261.57	2490.33
261.78	2236.38
262.00	2326.49
262.22	2570.20
262.43	2435.03
262.65	2373.60
262.86	2318.30
263.08	2899.92
263.30	2459.61
263.51	2179.04
263.73	2258.91
263.95	2736.09
264.16	2465.75
264.38	2279.39
264.60	2318.30
264.81	2484.19
265.03	2523.10
265.25	2490.33
265.46	2310.11
265.68	2703.32
265.89	2594.78
266.11	2224.09
266.33	2308.06
266.54	2617.30
266.76	2490.33
266.98	2416.60
267.19	2500.57
267.41	2609.11
267.62	2490.33
267.84	2189.28
268.06	2406.36
268.27	2555.86
268.49	2629.59
268.70	2469.85
268.92	2375.64
269.14	2400.22
269.35	2326.49
269.57	2342.88
269.79	2432.99
270.00	2383.84
270.22	2645.98
270.43	2242.53
270.65	2250.72
270.87	2594.78
271.08	2547.67
271.30	2445.27
271.51	2342.88
271.73	2541.53
271.95	2676.70
272.16	2281.44
272.38	2422.75
272.59	2361.31
272.81	2506.71
273.02	2277.34
273.24	2357.21
273.46	2607.06
273.67	2392.03
273.89	2283.49
274.10	2267.10
274.32	2588.63
274.54	2494.43
274.75	2385.88
274.97	2426.84
275.18	2580.44
275.40	2572.25
275.61	2363.36
275.83	2486.23
276.05	2400.22
276.26	2439.13
276.48	2486.23
276.69	2432.99
276.91	2408.41
277.12	2662.36
277.34	2502.62
277.55	2492.38
277.77	2482.14
277.99	2392.03
278.20	2281.44
278.42	2310.11
278.63	2439.13
278.85	2443.23
279.06	2336.73
279.28	2486.23
279.49	2570.20
279.71	2549.72
279.93	2398.17
280.14	2486.23
280.36	2398.17
280.57	2586.58
280.79	2555.86
281.00	2312.16
281.22	2363.36
281.43	2695.13
281.65	2287.58
281.86	2342.88
282.08	2512.86
282.29	2727.89
282.51	2365.40
282.73	2310.11
282.94	2314.20
283.16	2543.58
283.37	2641.88
283.59	2412.51
283.80	2523.10
284.02	2428.89
284.23	2490.33
284.45	2412.51
284.66	2455.51
284.88	2441.18
285.09	2367.45
285.31	2529.24
285.52	2549.72
285.74	2375.64
285.95	2514.91
286.17	2461.66
286.38	2648.02
286.60	2451.42
286.81	2408.41
287.03	2439.13
287.24	2469.85
287.46	2559.96
287.67	2412.51
287.89	2609.11
288.10	2424.80
288.32	2568.15
288.53	2572.25
288.75	2488.28
288.96	2541.53
289.18	2332.64
289.39	2365.40
289.61	2461.66
289.82	2744.28
290.04	2703.32
290.25	2340.83
290.47	2441.18
290.68	2430.94
290.90	2600.92
291.11	2248.67
291.33	2529.24
291.54	2355.16
291.76	2408.41
291.97	2416.60
292.18	2496.47
292.40	2373.60
292.61	2443.23
292.83	2576.34
293.04	2525.15
293.26	2527.19
293.47	2441.18
293.69	2412.51
293.90	2334.68
294.12	2602.97
294.33	2500.57
294.55	2424.80
294.76	2498.52
294.97	2605.02
295.19	2658.26
295.40	2326.49
295.62	2459.61
295.83	2621.40
296.05	2373.60
296.26	2627.54
296.48	2461.66
296.69	2439.13
296.90	2447.32
297.12	2490.33
297.33	2562.01
297.55	2521.05
297.76	2596.82
297.98	2535.39
298.19	2449.37
298.41	2519.00
298.62	2406.36
298.83	2586.58
299.05	2473.95
299.26	2426.84
299.48	2316.25
299.69	2592.73
299.90	2428.89
300.12	2381.79
300.33	2525.15
300.55	2371.55
300.76	2416.60
300.98	2269.15
301.19	2635.74
301.40	2418.65
301.62	2392.03
301.83	2547.67
302.05	2490.33
302.26	2410.46
302.47	2504.67
302.69	2381.79
302.90	2537.43
303.12	2211.81
303.33	2514.91
303.54	2703.32
303.76	2453.47
303.97	2445.27
304.19	2633.69
304.40	2357.21
304.61	2592.73
304.83	2652.12
305.04	2451.42
305.26	2504.67
305.47	2437.08
305.68	2426.84
305.90	2334.68
306.11	2654.17
306.33	2521.05
306.54	2322.40
306.75	2416.60
306.97	2308.06
307.18	2383.84
307.39	2334.68
307.61	2480.09
307.82	2455.51
308.04	2473.95
308.25	2334.68
308.46	2498.52
308.68	2426.84
308.89	2510.81
309.10	2494.43
309.32	2447.32
309.53	2521.05
309.74	2486.23
309.96	2463.71
310.17	2494.43
310.39	2371.55
310.60	2574.30
310.81	2437.08
311.03	2328.54
311.24	2588.63
311.45	2471.90
311.67	2555.86
311.88	2551.77
312.09	2473.95
312.31	2373.60
312.52	2416.60
312.73	2349.02
312.95	2389.98
313.16	2357.21
313.37	2568.15
313.59	2562.01
313.80	2611.16
314.01	2645.98
314.23	2359.26
314.44	2365.40
314.65	2279.39
314.87	2428.89
315.08	2353.12
315.29	2383.84
315.51	2412.51
315.72	2244.57
315.93	2523.10
316.15	2519.00
316.36	2416.60
316.57	2461.66
316.79	2494.43
317.00	2375.64
317.21	2559.96
317.43	2463.71
317.64	2435.03
317.85	2324.44
318.07	2355.16
318.28	2408.41
318.49	2592.73
318.70	2682.84
318.92	2555.86
319.13	2625.50
319.34	2594.78
319.56	2523.10
319.77	2580.44
319.98	2547.67
320.20	2580.44
320.41	2543.58
320.62	2551.77
320.83	2404.32
321.05	2641.88
321.26	2457.56
321.47	2527.19
321.69	2662.36
321.90	2273.25
322.11	2379.74
322.32	2521.05
322.54	2744.28
322.75	2379.74
322.96	2867.16
323.18	2324.44
323.39	2228.19
323.60	2396.12
323.81	2580.44
324.03	2404.32
324.24	2502.62
324.45	2504.67
324.66	2383.84
324.88	2645.98
325.09	2783.19
325.30	2365.40
325.52	2394.08
325.73	2547.67
325.94	2412.51
326.15	2240.48
326.37	2449.37
326.58	2586.58
326.79	2668.50
327.00	2312.16
327.22	2396.12
327.43	2471.90
327.64	2299.87
327.85	2506.71
328.07	2482.14
328.28	2750.42
328.49	2375.64
328.70	2424.80
328.92	2406.36
329.13	2400.22
329.34	2523.10
329.55	2568.15
329.76	2443.23
329.98	2492.38
330.19	2645.98
330.40	2465.75
330.61	2455.51
330.83	2586.58
331.04	2324.44
331.25	2457.56
331.46	2408.41
331.68	2310.11
331.89	2605.02
332.10	2375.64
332.31	2230.24
332.52	2416.60
332.74	2598.87
332.95	2285.53
333.16	2437.08
333.37	2545.63
333.58	2406.36
333.80	2447.32
334.01	2281.44
334.22	2480.09
334.43	2437.08
334.64	2437.08
334.86	2328.54
335.07	2416.60
335.28	2627.54
335.49	2281.44
335.70	2451.42
335.92	2645.98
336.13	2723.80
336.34	2449.37
336.55	2465.75
336.76	2547.67
336.98	2209.76
337.19	2490.33
337.40	2576.34
337.61	2801.62
337.82	2473.95
338.04	2453.47
338.25	2279.39
338.46	2488.28
338.67	2482.14
338.88	2254.81
339.09	2310.11
339.31	2424.80
339.52	2332.64
339.73	2297.82
339.94	2445.27
340.15	2598.87
340.36	2389.98
340.58	2506.71
340.79	2377.69
341.00	2582.49
341.21	2363.36
341.42	2623.45
341.63	2394.08
341.85	2576.34
342.06	2494.43
342.27	2482.14
342.48	2574.30
342.69	2408.41
342.90	2416.60
343.12	2496.47
343.33	2283.49
343.54	2562.01
343.75	2639.83
343.96	2463.71
344.17	2355.16
344.38	2512.86
344.60	2371.55
344.81	2375.64
345.02	2396.12
345.23	2627.54
345.44	2842.58
345.65	2514.91
345.86	2484.19
346.07	2469.85
346.29	2467.80
346.50	2506.71
346.71	2490.33
346.92	2547.67
347.13	2750.42
347.34	2414.56
347.55	2416.60
347.76	2514.91
347.98	2359.26
348.19	2441.18
348.40	2519.00
348.61	2492.38
348.82	2701.27
349.03	2527.19
349.24	2381.79
349.45	2734.04
349.66	2224.09
349.88	2473.95
350.09	2363.36
350.30	2586.58
350.51	2584.54
350.72	2492.38
350.93	2392.03
351.14	2406.36
351.35	2592.73
351.56	2523.10
351.77	2385.88
351.99	2502.62
352.20	2758.61
352.41	2453.47
352.62	2285.53
352.83	2449.37
353.04	2435.03
353.25	2385.88
353.46	2525.15
353.67	2596.82
353.88	2279.39
354.09	2428.89
354.30	2445.27
354.52	2572.25
354.73	2492.38
354.94	2351.07
355.15	2416.60
355.36	2684.89
355.57	2424.80
355.78	2475.99
355.99	2355.16
356.20	2416.60
356.41	2637.78
356.62	2523.10
356.83	2420.70
357.04	2701.27
357.25	2250.72
357.46	2389.98
357.68	2224.09
357.89	2359.26
358.10	2410.46
358.31	2373.60
358.52	2398.17
358.73	2371.55
358.94	2310.11
359.15	2377.69
359.36	2498.52
359.57	2498.52
359.78	2482.14
359.99	2551.77
360.20	2361.31
360.41	2506.71
360.62	2555.86
360.83	2521.05
361.04	2510.81
361.25	2506.71
361.46	2711.51
361.67	2478.04
361.88	2582.49
362.09	2535.39
362.30	2547.67
362.51	2273.25
362.72	2414.56
362.93	2570.20
363.14	2572.25
363.35	2463.71
363.56	2404.32
363.78	2594.78
363.99	2564.06
364.20	2439.13
364.41	2482.14
364.62	2762.71
364.83	2543.58
365.04	2373.60
365.25	2455.51
365.46	2791.38
365.67	2318.30
365.88	2478.04
366.09	2371.55
366.30	2408.41
366.51	2492.38
366.72	2342.88
366.93	2469.85
367.14	2510.81
367.35	2586.58
367.56	2496.47
367.77	2535.39
367.98	2432.99
368.18	2592.73
368.39	2475.99
368.60	2310.11
368.81	2547.67
369.02	2514.91
369.23	2424.80
369.44	2263.01
369.65	2396.12
369.86	2564.06
370.07	2527.19
370.28	2357.21
370.49	2559.96
370.70	2592.73
370.91	2340.83
371.12	2340.83
371.33	2652.12
371.54	2365.40
371.75	2611.16
371.96	2220.00
372.17	2484.19
372.38	2531.29
372.59	2510.81
372.80	2338.78
373.01	2455.51
373.22	2551.77
373.43	2404.32
373.64	2308.06
373.85	2676.70
374.06	2684.89
374.26	2514.91
374.47	2521.05
374.68	2607.06
374.89	2490.33
375.10	2422.75
375.31	2488.28
375.52	2502.62
375.73	2478.04
375.94	2342.88
376.15	2488.28
376.36	2351.07
376.57	2402.27
376.78	2416.60
376.99	2402.27
377.20	2643.93
377.40	2441.18
377.61	2625.50
377.82	2340.83
378.03	2686.94
378.24	2605.02
378.45	2488.28
378.66	2457.56
378.87	2326.49
379.08	2277.34
379.29	2469.85
379.50	2564.06
379.71	2523.10
379.91	2537.43
380.12	2371.55
380.33	2398.17
380.54	2496.47
380.75	2430.94
380.96	2432.99
381.17	2547.67
381.38	2508.76
381.59	2510.81
381.80	2439.13
382.00	2588.63
382.21	2578.39
382.42	2736.09
382.63	2641.88
382.84	2613.21
383.05	2643.93
383.26	2713.56
383.47	2551.77
383.68	2492.38
383.88	2502.62
384.09	2486.23
384.30	2633.69
384.51	2455.51
384.72	2369.50
384.93	2365.40
385.14	2428.89
385.35	2553.82
385.55	2351.07
385.76	2648.02
385.97	2432.99
386.18	2316.25
386.39	2291.68
386.60	2529.24
386.81	2422.75
387.02	2410.46
387.22	2351.07
387.43	2629.59
387.64	2545.63
387.85	2654.17
388.06	2609.11
388.27	4009.92
388.48	8306.56
388.68	12042.06
388.89	14507.81
389.10	15777.55
389.31	14516.00
389.52	11499.34
389.73	10010.47
389.93	8972.15
390.14	8308.61
390.35	7466.89
390.56	6647.71
390.77	5388.21
390.98	4091.84
391.18	3418.06
391.39	2957.27
391.60	2596.82
391.81	2641.88
392.02	2441.18
392.23	2768.85
392.43	2498.52
392.64	2529.24
392.85	2533.34
393.06	2588.63
393.27	2498.52
393.47	2473.95
393.68	2414.56
393.89	2428.89
394.10	2635.74
394.31	2326.49
394.52	2383.84
394.72	2416.60
394.93	2678.74
395.14	2379.74
395.35	2502.62
395.56	2324.44
395.76	2506.71
395.97	2396.12
396.18	2514.91
396.39	2643.93
396.60	2951.12
396.80	2736.09
397.01	2627.54
397.22	2731.99
397.43	2652.12
397.64	2443.23
397.84	2547.67
398.05	2729.94
398.26	2537.43
398.47	2580.44
398.67	2678.74
398.88	2467.80
399.09	2586.58
399.30	2459.61
399.51	2551.77
399.71	2328.54
399.92	2478.04
400.13	2500.57
400.34	2373.60
400.54	2496.47
400.75	2699.22
400.96	2500.57
401.17	2695.13
401.37	2512.86
401.58	2453.47
401.79	2447.32
402.00	2562.01
402.21	2914.26
402.41	2779.09
402.62	2840.53
402.83	2908.12
403.04	2920.40
403.24	3143.63
403.45	2600.92
403.66	2791.38
403.87	2686.94
404.07	2791.38
404.28	2793.43
404.49	2621.40
404.70	2580.44
404.90	2576.34
405.11	2482.14
405.32	2496.47
405.52	2432.99
405.73	2379.74
405.94	2373.60
406.15	2406.36
406.35	2662.36
406.56	2508.76
406.77	2490.33
406.98	2514.91
407.18	2418.65
407.39	2713.56
407.60	2480.09
407.80	2494.43
408.01	2502.62
408.22	2525.15
408.43	2416.60
408.63	2465.75
408.84	2617.30
409.05	2629.59
409.25	2338.78
409.46	2408.41
409.67	2473.95
409.88	2432.99
410.08	2492.38
410.29	2346.97
410.50	2584.54
410.70	2592.73
410.91	2303.96
411.12	2482.14
411.32	2527.19
411.53	2363.36
411.74	2496.47
411.95	2580.44
412.15	2535.39
412.36	2725.85
412.57	2588.63
412.77	2582.49
412.98	2488.28
413.19	2432.99
413.39	2480.09
413.60	2504.67
413.81	2734.04
414.01	2387.93
414.22	2543.58
414.43	2514.91
414.63	2480.09
414.84	2543.58
415.05	2412.51
415.25	2340.83
415.46	2578.39
415.67	2562.01
415.87	2502.62
416.08	2381.79
416.29	2449.37
416.49	2523.10
416.70	2471.90
416.91	2439.13
417.11	2400.22
417.32	2576.34
417.53	2543.58
417.73	2494.43
417.94	2439.13
418.15	2471.90
418.35	2488.28
418.56	2414.56
418.77	2809.81
418.97	2498.52
419.18	2385.88
419.38	2213.85
419.59	2461.66
419.80	2713.56
420.00	2414.56
420.21	2488.28
420.42	2682.84
420.62	2519.00
420.83	2353.12
421.04	2435.03
421.24	2424.80
421.45	2648.02
421.65	2527.19
421.86	2416.60
422.07	2629.59
422.27	2492.38
422.48	2480.09
422.69	2275.29
422.89	2496.47
423.10	2473.95
423.30	2385.88
423.51	2432.99
423.72	2541.53
423.92	2533.34
424.13	2326.49
424.33	2457.56
424.54	2625.50
424.75	2533.34
424.95	2637.78
425.16	2475.99
425.36	2506.71
425.57	2629.59
425.78	2602.97
425.98	2547.67
426.19	2490.33
426.39	2385.88
426.60	2521.05
426.81	2588.63
427.01	2502.62
427.22	2377.69
427.42	2318.30
427.63	2351.07
427.83	2668.50
428.04	2617.30
428.25	2615.26
428.45	2527.19
428.66	2613.21
428.86	2535.39
429.07	2432.99
429.28	2389.98
429.48	2473.95
429.69	2359.26
429.89	2469.85
430.10	2359.26
430.30	2582.49
430.51	2605.02
430.71	2365.40
430.92	2435.03
431.13	2408.41
431.33	2688.98
431.54	2473.95
431.74	2607.06
431.95	2746.33
432.15	2394.08
432.36	2420.70
432.56	2471.90
432.77	2766.81
432.98	2674.65
433.18	2471.90
433.39	2424.80
433.59	2398.17
433.80	2674.65
434.00	2631.64
434.21	2498.52
434.41	2402.27
434.62	2801.62
434.82	2367.45
435.03	2416.60
435.23	2439.13
435.44	2220.00
435.64	2408.41
435.85	2484.19
436.06	2574.30
436.26	2623.45
436.47	2519.00
436.67	2416.60
436.88	2498.52
437.08	2682.84
437.29	2639.83
437.49	2496.47
437.70	2611.16
437.90	2523.10
438.11	2664.41
438.31	2580.44
438.52	2748.37
438.72	2777.05
438.93	2766.81
439.13	2480.09
439.34	2736.09
439.54	2478.04
439.75	2523.10
439.95	2519.00
440.16	2498.52
440.36	2506.71
440.57	2502.62
440.77	2484.19
440.98	2482.14
441.18	2506.71
441.39	2432.99
441.59	2349.02
441.80	2797.53
442.00	2557.91
442.21	2562.01
442.41	2308.06
442.62	2578.39
442.82	2404.32
443.02	2424.80
443.23	2453.47
443.43	2408.41
443.64	2605.02
443.84	2355.16
444.05	2594.78
444.25	2432.99
444.46	2482.14
444.66	2406.36
444.87	2656.22
445.07	2359.26
445.28	2455.51
445.48	2584.54
445.69	2559.96
445.89	2777.05
446.09	2484.19
446.30	2783.19
446.50	2981.84
446.71	4581.31
446.91	5658.54
447.12	6596.51
447.32	6879.13
447.53	6520.73
447.73	5445.55
447.93	4603.83
448.14	4505.53
448.34	4399.04
448.55	3674.06
448.75	3801.03
448.96	3596.23
449.16	3299.28
449.36	3164.11
449.57	2760.66
449.77	2584.54
449.98	2486.23
450.18	2576.34
450.39	2547.67
450.59	2564.06
450.79	2490.33
451.00	2412.51
451.20	2547.67
451.41	2426.84
451.61	2551.77
451.81	2486.23
452.02	2432.99
452.22	2428.89
452.43	2400.22
452.63	2355.16
452.84	2408.41
453.04	2473.95
453.24	2449.37
453.45	2463.71
453.65	2488.28
453.86	2541.53
454.06	2492.38
454.26	2537.43
454.47	2404.32
454.67	2555.86
454.87	2596.82
455.08	2449.37
455.28	2492.38
455.49	2461.66
455.69	2375.64
455.89	2756.57
456.10	2578.39
456.30	2465.75
456.51	2623.45
456.71	2521.05
456.91	2572.25
457.12	2439.13
457.32	2582.49
457.52	2371.55
457.73	2592.73
457.93	2574.30
458.14	2402.27
458.34	2310.11
458.54	2463.71
458.75	2519.00
458.95	2607.06
459.15	2541.53
459.36	2533.34
459.56	2414.56
459.76	2742.23
459.97	2562.01
460.17	2445.27
460.37	2625.50
460.58	2516.95
460.78	2576.34
460.99	2408.41
461.19	2459.61
461.39	2498.52
461.60	2420.70
461.80	2588.63
462.00	2361.31
462.21	2572.25
462.41	2426.84
462.61	2332.64
462.82	2283.49
463.02	2504.67
463.22	2441.18
463.43	2576.34
463.63	2432.99
463.83	2672.60
464.04	2473.95
464.24	2482.14
464.44	2365.40
464.64	2535.39
464.85	2531.29
465.05	2531.29
465.25	2457.56
465.46	2435.03
465.66	2533.34
465.86	2523.10
466.07	2469.85
466.27	2506.71
466.47	2332.64
466.68	2260.96
466.88	2654.17
467.08	2564.06
467.29	2652.12
467.49	2488.28
467.69	2473.95
467.89	2592.73
468.10	2432.99
468.30	2523.10
468.50	2572.25
468.71	2662.36
468.91	2349.02
469.11	2662.36
469.31	2543.58
469.52	2392.03
469.72	2654.17
469.92	2693.08
470.13	2494.43
470.33	2547.67
470.53	2537.43
470.73	2936.79
470.94	3375.05
471.14	3518.41
471.34	3850.18
471.54	3682.25
471.75	3289.04
471.95	3211.22
472.15	3018.71
472.36	2983.89
472.56	2959.31
472.76	3053.52
472.96	2912.21
473.17	2795.48
473.37	2678.74
473.57	2543.58
473.77	2658.26
473.98	2488.28
474.18	2379.74
474.38	2848.72
474.58	2432.99
474.79	2375.64
474.99	2459.61
475.19	2555.86
475.39	2328.54
475.60	2459.61
475.80	2471.90
476.00	2463.71
476.20	2408.41
476.41	2428.89
476.61	2529.24
476.81	2686.94
477.01	2334.68
477.21	2631.64
477.42	2566.10
477.62	2322.40
477.82	2598.87
478.02	2392.03
478.23	2519.00
478.43	2408.41
478.63	2449.37
478.83	2498.52
479.03	2496.47
479.24	2637.78
479.44	2727.89
479.64	2351.07
479.84	2248.67
480.04	2381.79
480.25	2582.49
480.45	2291.68
480.65	2432.99
480.85	2701.27
481.06	2471.90
481.26	2514.91
481.46	2498.52
481.66	2576.34
481.86	2383.84
482.06	2559.96
482.27	2506.71
482.47	2441.18
482.67	2449.37
482.87	2398.17
483.07	2547.67
483.28	2365.40
483.48	2349.02
483.68	2512.86
483.88	2324.44
484.08	2277.34
484.29	2398.17
484.49	2519.00
484.69	2310.11
484.89	2648.02
485.09	2627.54
485.29	2510.81
485.50	2568.15
485.70	2416.60
485.90	2668.50
486.10	2572.25
486.30	2469.85
486.50	2506.71
486.71	2494.43
486.91	2496.47
487.11	2580.44
487.31	2301.92
487.51	2605.02
487.71	2373.60
487.91	2392.03
488.12	2349.02
488.32	2123.74
488.52	2351.07
488.72	2220.00
488.92	2557.91
489.12	2619.35
489.32	2625.50
489.53	2469.85
489.73	2328.54
489.93	2715.61
490.13	2324.44
490.33	2285.53
490.53	2562.01
490.73	2506.71
490.94	2269.15
491.14	2549.72
491.34	2588.63
491.54	2760.66
491.74	3440.59
491.94	3895.24
492.14	4362.17
492.34	4368.32
492.54	4073.41
492.75	3448.78
492.95	3407.82
493.15	3178.45
493.35	3194.83
493.55	3112.91
493.75	2949.08
493.95	2971.60
494.15	2731.99
494.35	2676.70
494.56	2545.63
494.76	2400.22
494.96	2516.95
495.16	2537.43
495.36	2498.52
495.56	2525.15
495.76	2506.71
495.96	2494.43
496.16	2353.12
496.36	2764.76
496.56	2478.04
496.77	2516.95
496.97	2506.71
497.17	2652.12
497.37	2324.44
497.57	2516.95
497.77	2580.44
497.97	2377.69
498.17	2478.04
498.37	2488.28
498.57	2564.06
498.77	2453.47
498.97	2580.44
499.17	2654.17
499.38	2408.41
499.58	2584.54
499.78	2605.02
499.98	2600.92
500.18	2430.94
500.38	2455.51
500.58	2664.41
500.78	3160.02
500.98	5447.60
501.18	7487.37
501.38	9246.58
501.58	10051.43
501.78	9854.83
501.98	7987.08
502.18	6748.06
502.38	5722.02
502.58	5314.48
502.78	4878.26
502.98	4687.80
503.18	4495.29
503.38	4054.98
503.59	3565.51
503.79	3416.01
503.99	3186.64
504.19	3119.06
504.39	3074.00
504.59	3243.98
504.79	3133.39
504.99	3205.07
505.19	2740.18
505.39	2789.33
505.59	2891.73
505.79	2871.25
505.99	2664.41
506.19	2521.05
506.39	2682.84
506.59	2506.71
506.79	2443.23
506.99	2621.40
507.19	2449.37
507.39	2514.91
507.59	2316.25
507.79	2357.21
507.99	2379.74
508.19	2482.14
508.39	2523.10
508.59	2559.96
508.79	2643.93
508.99	2734.04
509.19	2422.75
509.39	2568.15
509.59	2414.56
509.79	2414.56
509.99	2523.10
510.19	2588.63
510.39	2545.63
510.59	2473.95
510.79	2367.45
510.99	2344.92
511.19	2465.75
511.39	2754.52
511.59	2641.88
511.79	2576.34
511.99	2453.47
512.19	2756.57
512.38	2498.52
512.58	2392.03
512.78	2435.03
512.98	2566.10
513.18	2709.46
513.38	2258.91
513.58	2519.00
513.78	2351.07
513.98	2453.47
514.18	2449.37
514.38	2449.37
514.58	2572.25
514.78	2346.97
514.98	2408.41
515.18	2424.80
515.38	2326.49
515.58	2660.31
515.78	2478.04
515.98	2500.57
516.18	2519.00
516.38	2488.28
516.57	2392.03
516.77	2375.64
516.97	2572.25
517.17	2357.21
517.37	2281.44
517.57	2547.67
517.77	2486.23
517.97	2336.73
518.17	2482.14
518.37	2351.07
518.57	2447.32
518.77	2494.43
518.97	2422.75
519.16	2400.22
519.36	2654.17
519.56	2416.60
519.76	2445.27
519.96	2502.62
520.16	2635.74
520.36	2439.13
520.56	2650.07
520.76	2422.75
520.96	2482.14
521.16	2625.50
521.35	2660.31
521.55	2613.21
521.75	2482.14
521.95	2486.23
522.15	2420.70
522.35	2324.44
522.55	2359.26
522.75	2576.34
522.95	2449.37
523.14	2373.60
523.34	2424.80
523.54	2484.19
523.74	2533.34
523.94	2455.51
524.14	2359.26
524.34	2580.44
524.54	2650.07
524.73	2400.22
524.93	2547.67
525.13	2504.67
525.33	2314.20
525.53	2697.17
525.73	2519.00
525.93	2588.63
526.13	2404.32
526.32	2400.22
526.52	2617.30
526.72	2478.04
526.92	2461.66
527.12	2398.17
527.32	2375.64
527.52	2531.29
527.71	2478.04
527.91	2375.64
528.11	2430.94
528.31	2529.24
528.51	2488.28
528.71	2553.82
528.90	2559.96
529.10	2633.69
529.30	2584.54
529.50	2246.62
529.70	2539.48
529.90	2422.75
530.09	2367.45
530.29	2334.68
530.49	2414.56
530.69	2842.58
530.89	2498.52
531.09	2523.10
531.28	2375.64
531.48	2609.11
531.68	2500.57
531.88	2521.05
532.08	2645.98
532.28	2412.51
532.47	2580.44
532.67	2570.20
532.87	2539.48
533.07	2373.60
533.27	2543.58
533.46	2473.95
533.66	2559.96
533.86	2459.61
534.06	2531.29
534.26	2533.34
534.45	2439.13
534.65	2619.35
534.85	2553.82
535.05	2523.10
535.25	2605.02
535.44	2336.73
535.64	2506.71
535.84	2484.19
536.04	2521.05
536.24	2475.99
536.43	2349.02
536.63	2432.99
536.83	2465.75
537.03	2562.01
537.22	2338.78
537.42	2287.58
537.62	2547.67
537.82	2373.60
538.02	2557.91
538.21	2627.54
538.41	2834.39
538.61	2508.76
538.81	2383.84
539.00	2578.39
539.20	2349.02
539.40	2510.81
539.60	2435.03
539.79	2572.25
539.99	2424.80
540.19	2396.12
540.39	2486.23
540.58	2529.24
540.78	2598.87
540.98	2576.34
541.18	2549.72
541.37	2539.48
541.57	2519.00
541.77	2488.28
541.97	2326.49
542.16	2363.36
542.36	2383.84
542.56	2430.94
542.76	2633.69
542.95	2564.06
543.15	2531.29
543.35	2559.96
543.54	2375.64
543.74	2416.60
543.94	2605.02
544.14	2371.55
544.33	2496.47
544.53	2453.47
544.73	2469.85
544.93	2439.13
545.12	2408.41
545.32	2430.94
545.52	2449.37
545.71	2289.63
545.91	2449.37
546.11	2410.46
546.30	2389.98
546.50	2428.89
546.70	2539.48
546.90	2533.34
547.09	2283.49
547.29	2473.95
547.49	2602.97
547.68	2500.57
547.88	2414.56
548.08	2580.44
548.27	2906.07
548.47	2349.02
548.67	2322.40
548.87	2531.29
549.06	2428.89
549.26	2471.90
549.46	2449.37
549.65	2449.37
549.85	2498.52
550.05	2545.63
550.24	2308.06
550.44	2471.90
550.64	2453.47
550.83	2521.05
551.03	2707.41
551.23	2650.07
551.42	2480.09
551.62	2441.18
551.82	2457.56
552.01	2478.04
552.21	2607.06
552.41	2428.89
552.60	2701.27
552.80	2512.86
553.00	2400.22
553.19	2480.09
553.39	2639.83
553.59	2412.51
553.78	2615.26
553.98	2473.95
554.17	2412.51
554.37	2488.28
554.57	2531.29
554.76	2330.59
554.96	2416.60
555.16	2514.91
555.35	2469.85
555.55	2549.72
555.75	2523.10
555.94	2588.63
556.14	2318.30
556.33	2461.66
556.53	2496.47
556.73	2514.91
556.92	2543.58
557.12	2537.43
557.32	2764.76
557.51	2635.74
557.71	2559.96
557.90	2506.71
558.10	2719.70
558.30	2402.27
558.49	2469.85
558.69	2437.08
558.88	2623.45
559.08	2473.95
559.28	2461.66
559.47	2432.99
559.67	2588.63
559.86	2762.71
560.06	2510.81
560.26	2449.37
560.45	2568.15
560.65	2478.04
560.84	2662.36
561.04	2383.84
561.24	2627.54
561.43	2365.40
561.63	2666.46
561.82	2457.56
562.02	2600.92
562.22	2410.46
562.41	2398.17
562.61	2428.89
562.80	2338.78
563.00	2795.48
563.19	2478.04
563.39	2527.19
563.59	2531.29
563.78	2279.39
563.98	2265.05
564.17	2398.17
564.37	2269.15
564.56	2457.56
564.76	2340.83
564.96	2600.92
565.15	2605.02
565.35	2797.53
565.54	2449.37
565.74	2568.15
565.93	2588.63
566.13	2484.19
566.32	2430.94
566.52	2494.43
566.71	2490.33
566.91	2568.15
567.11	2545.63
567.30	2381.79
567.50	2594.78
567.69	2521.05
567.89	2367.45
568.08	2322.40
568.28	2553.82
568.47	2406.36
568.67	2523.10
568.86	2400.22
569.06	2539.48
569.25	2435.03
569.45	2338.78
569.64	2402.27
569.84	2482.14
570.04	2529.24
570.23	2463.71
570.43	2406.36
570.62	2506.71
570.82	2711.51
571.01	2365.40
571.21	2426.84
571.40	2334.68
571.60	2609.11
571.79	2596.82
571.99	2490.33
572.18	2346.97
572.38	2500.57
572.57	2424.80
572.77	2457.56
572.96	2775.00
573.16	2529.24
573.35	2494.43
573.55	2621.40
573.74	2580.44
573.94	2494.43
574.13	2365.40
574.33	2582.49
574.52	2627.54
574.71	2453.47
574.91	2568.15
575.10	2316.25
575.30	2453.47
575.49	2408.41
575.69	2357.21
575.88	2541.53
576.08	2498.52
576.27	2662.36
576.47	2428.89
576.66	2660.31
576.86	2752.47
577.05	2531.29
577.25	2602.97
577.44	2670.55
577.64	2414.56
577.83	2676.70
578.02	2482.14
578.22	2664.41
578.41	2770.90
578.61	2410.46
578.80	2389.98
579.00	2439.13
579.19	2504.67
579.39	2559.96
579.58	2533.34
579.77	2416.60
579.97	2709.46
580.16	2627.54
580.36	2670.55
580.55	2584.54
580.75	2537.43
580.94	2541.53
581.13	2617.30
581.33	2686.94
581.52	2465.75
581.72	2760.66
581.91	2609.11
582.11	2478.04
582.30	2572.25
582.49	2555.86
582.69	2686.94
582.88	2533.34
583.08	2576.34
583.27	2717.65
583.47	2463.71
583.66	2414.56
583.85	2392.03
584.05	2543.58
584.24	2617.30
584.44	2584.54
584.63	2678.74
584.82	2631.64
585.02	2691.03
585.21	2701.27
585.41	2588.63
585.60	2615.26
585.79	2676.70
585.99	2678.74
586.18	2641.88
586.37	3252.17
586.57	5009.33
586.76	14776.09
586.96	33963.51
587.15	47398.19
587.34	56745.12
587.54	60752.99
587.73	55495.86
587.93	38610.35
588.12	29593.15
588.31	23907.99
588.51	20950.72
588.70	19046.11
588.89	17086.20
589.09	14858.01
589.28	12685.12
589.47	10061.67
589.67	8011.65
589.86	6137.76
590.06	4616.12
590.25	3782.60
590.44	3276.75
590.64	2951.12
590.83	2791.38
591.02	2785.24
591.22	2566.10
591.41	2572.25
591.60	2537.43
591.80	2834.39
591.99	2334.68
592.18	2453.47
592.38	2627.54
592.57	2359.26
592.76	2465.75
592.96	2531.29
593.15	2449.37
593.34	2613.21
593.54	2432.99
593.73	2535.39
593.92	2535.39
594.12	2654.17
594.31	2594.78
594.50	2709.46
594.70	2527.19
594.89	2875.35
595.08	2408.41
595.28	2664.41
595.47	2930.64
595.66	2668.50
595.86	2357.21
596.05	2486.23
596.24	2461.66
596.43	2723.80
596.63	2650.07
596.82	2432.99
597.01	2582.49
597.21	2791.38
597.40	2545.63
597.59	2545.63
597.79	2506.71
597.98	2566.10
598.17	2512.86
598.36	2500.57
598.56	2648.02
598.75	2533.34
598.94	2529.24
599.14	2559.96
599.33	2478.04
599.52	2613.21
599.71	2555.86
599.91	2564.06
600.10	2596.82
600.29	2443.23
600.48	2553.82
600.68	2594.78
600.87	2519.00
601.06	2467.80
601.26	2500.57
601.45	2521.05
601.64	2492.38
601.83	2645.98
602.03	2367.45
602.22	2392.03
602.41	2617.30
602.60	2840.53
602.80	2598.87
602.99	2469.85
603.18	2549.72
603.37	2572.25
603.57	2480.09
603.76	2439.13
603.95	2635.74
604.14	2465.75
604.34	2441.18
604.53	2506.71
604.72	2588.63
604.91	2525.15
605.10	2389.98
605.30	2453.47
605.49	2723.80
605.68	2588.63
605.87	2531.29
606.07	2432.99
606.26	2496.47
606.45	2594.78
606.64	2510.81
606.84	2447.32
607.03	2496.47
607.22	2695.13
607.41	2463.71
607.60	2465.75
607.80	2648.02
607.99	2521.05
608.18	2521.05
608.37	2453.47
608.56	2449.37
608.76	2660.31
608.95	2684.89
609.14	2600.92
609.33	2717.65
609.52	2731.99
609.72	2596.82
609.91	2688.98
610.10	2553.82
610.29	2605.02
610.48	2588.63
610.68	2568.15
610.87	2498.52
611.06	2600.92
611.25	2498.52
611.44	2578.39
611.63	2435.03
611.83	2658.26
612.02	2299.87
612.21	2578.39
612.40	2342.88
612.59	2424.80
612.79	2359.26
612.98	2437.08
613.17	2762.71
613.36	2549.72
613.55	2717.65
613.74	2551.77
613.93	2619.35
614.13	2760.66
614.32	2744.28
614.51	2723.80
614.70	2596.82
614.89	2490.33
615.08	2564.06
615.28	3006.42
615.47	2441.18
615.66	2695.13
615.85	2512.86
616.04	2564.06
616.23	2551.77
616.42	2596.82
616.62	2516.95
616.81	2564.06
617.00	2471.90
617.19	2516.95
617.38	2519.00
617.57	2557.91
617.76	2582.49
617.95	2568.15
618.15	2553.82
618.34	2643.93
618.53	2371.55
618.72	2656.22
618.91	2572.25
619.10	2525.15
619.29	2512.86
619.48	2551.77
619.68	2342.88
619.87	2430.94
620.06	2316.25
620.25	2602.97
620.44	2496.47
620.63	2424.80
620.82	2553.82
621.01	2496.47
621.20	2408.41
621.39	2449.37
621.59	2562.01
621.78	2457.56
621.97	2502.62
622.16	2629.59
622.35	2496.47
622.54	2564.06
622.73	2590.68
622.92	2183.13
623.11	2652.12
623.30	2420.70
623.49	2527.19
623.68	2383.84
623.88	2672.60
624.07	2465.75
624.26	2416.60
624.45	2504.67
624.64	2439.13
624.83	2492.38
625.02	2451.42
625.21	2539.48
625.40	2471.90
625.59	2686.94
625.78	2480.09
625.97	2529.24
626.16	2719.70
626.35	2629.59
626.54	2613.21
626.74	2729.94
626.93	2482.14
627.12	2482.14
627.31	2629.59
627.50	2592.73
627.69	2645.98
627.88	2451.42
628.07	2389.98
628.26	2334.68
628.45	2406.36
628.64	2447.32
628.83	2455.51
629.02	2346.97
629.21	2547.67
629.40	2527.19
629.59	2478.04
629.78	2537.43
629.97	2490.33
630.16	2478.04
630.35	2490.33
630.54	2492.38
630.73	2506.71
630.92	2430.94
631.11	2371.55
631.30	2480.09
631.49	2547.67
631.68	2531.29
631.87	2525.15
632.06	2365.40
632.25	2766.81
632.44	2529.24
632.63	2533.34
632.82	2514.91
633.01	2435.03
633.20	2555.86
633.39	2381.79
633.58	2328.54
633.77	2543.58
633.96	2619.35
634.15	2625.50
634.34	2496.47
634.53	2523.10
634.72	2422.75
634.91	2260.96
635.10	2488.28
635.29	2654.17
635.48	2471.90
635.67	2404.32
635.86	2379.74
636.05	2744.28
636.24	2482.14
636.43	2490.33
636.62	2639.83
636.81	2185.18
637.00	2523.10
637.19	2498.52
637.38	2473.95
637.57	2449.37
637.76	2535.39
637.95	2605.02
638.14	2514.91
638.33	2623.45
638.52	2598.87
638.71	2410.46
638.89	2359.26
639.08	2912.21
639.27	2711.51
639.46	2729.94
639.65	3125.20
639.84	3200.98
640.03	3379.15
640.22	3155.92
640.41	3190.74
640.60	2764.76
640.79	2932.69
640.98	2650.07
641.17	2719.70
641.36	2725.85
641.55	2691.03
641.74	2473.95
641.92	2449.37
642.11	2424.80
642.30	2430.94
642.49	2375.64
642.68	2435.03
642.87	2619.35
643.06	2572.25
643.25	2363.36
643.44	2346.97
643.63	2371.55
643.82	2592.73
644.00	2353.12
644.19	2426.84
644.38	2420.70
644.57	2484.19
644.76	2465.75
644.95	2455.51
645.14	2615.26
645.33	2465.75
645.52	2480.09
645.71	2369.50
645.89	2396.12
646.08	2570.20
646.27	2371.55
646.46	2688.98
646.65	2346.97
646.84	2451.42
647.03	2367.45
647.22	2539.48
647.40	2455.51
647.59	2385.88
647.78	2275.29
647.97	2455.51
648.16	2371.55
648.35	2621.40
648.54	2570.20
648.73	2469.85
648.91	2607.06
649.10	2521.05
649.29	2455.51
649.48	2437.08
649.67	2488.28
649.86	2539.48
650.05	2537.43
650.23	2695.13
650.42	2629.59
650.61	2813.91
650.80	2662.36
650.99	2815.96
651.18	2639.83
651.36	2686.94
651.55	2484.19
651.74	2555.86
651.93	2478.04
652.12	2559.96
652.31	2527.19
652.49	2564.06
652.68	2432.99
652.87	2729.94
653.06	2572.25
653.25	2723.80
653.44	2559.96
653.62	2639.83
653.81	2469.85
654.00	2498.52
654.19	2578.39
654.38	2856.92
654.56	2551.77
654.75	2430.94
654.94	2508.76
655.13	2600.92
655.32	2475.99
655.51	2582.49
655.69	2453.47
655.88	2512.86
656.07	2404.32
656.26	2488.28
656.45	2349.02
656.63	2478.04
656.82	2441.18
657.01	2523.10
657.20	2375.64
657.38	2691.03
657.57	2461.66
657.76	2246.62
657.95	2627.54
658.14	2420.70
658.32	2502.62
658.51	2328.54
658.70	2539.48
658.89	2535.39
659.08	2447.32
659.26	2674.65
659.45	2455.51
659.64	2547.67
659.83	2408.41
660.01	2936.79
660.20	2572.25
660.39	2758.61
660.58	2324.44
660.76	2519.00
660.95	2330.59
661.14	2519.00
661.33	2330.59
661.51	2463.71
661.70	2473.95
661.89	2572.25
662.08	2459.61
662.26	2334.68
662.45	2371.55
662.64	2744.28
662.83	2531.29
663.01	2359.26
663.20	2523.10
663.39	2641.88
663.58	2449.37
663.76	2457.56
663.95	2523.10
664.14	2422.75
664.32	2398.17
664.51	2344.92
664.70	2367.45
664.89	2553.82
665.07	2287.58
665.26	2539.48
665.45	2308.06
665.64	2428.89
665.82	2504.67
666.01	2496.47
666.20	2394.08
666.38	2578.39
666.57	2676.70
666.76	3928.00
666.95	9545.58
667.13	17643.25
667.32	22511.27
667.51	26087.03
667.69	27330.14
667.88	24346.25
668.07	17430.26
668.25	14171.94
668.44	11847.50
668.63	10123.11
668.81	8953.72
669.00	7825.29
669.19	7092.12
669.38	6139.81
669.56	5156.79
669.75	4405.18
669.94	3805.13
670.12	3246.03
670.31	2934.74
670.50	2744.28
670.68	2789.33
670.87	2602.97
671.06	2469.85
671.24	2547.67
671.43	2742.23
671.62	2652.12
671.80	2437.08
671.99	2576.34
672.18	2494.43
672.36	2592.73
672.55	2586.58
672.74	2435.03
672.92	2422.75
673.11	2572.25
673.29	2334.68
673.48	2527.19
673.67	2441.18
673.85	2600.92
674.04	2379.74
674.23	2467.80
674.41	2717.65
674.60	2377.69
674.79	2291.68
674.97	2363.36
675.16	2559.96
675.34	2629.59
675.53	2414.56
675.72	2570.20
675.90	2793.43
676.09	2441.18
676.28	2506.71
676.46	2312.16
676.65	2549.72
676.83	2381.79
677.02	2504.67
677.21	2545.63
677.39	2467.80
677.58	2422.75
677.77	2445.27
677.95	2394.08
678.14	2469.85
678.32	2379.74
678.51	2414.56
678.70	2752.47
678.88	2398.17
679.07	2488.28
679.25	2510.81
679.44	2432.99
679.63	2355.16
679.81	2469.85
680.00	2586.58
680.18	2510.81
680.37	2625.50
680.55	2492.38
680.74	2318.30
680.93	2320.35
681.11	2553.82
681.30	2467.80
681.48	2523.10
681.67	2445.27
681.85	2480.09
682.04	2336.73
682.23	2574.30
682.41	2559.96
682.60	2449.37
682.78	2498.52
682.97	2381.79
683.15	2445.27
683.34	2504.67
683.53	2609.11
683.71	2256.86
683.90	2600.92
684.08	2662.36
684.27	2439.13
684.45	2545.63
684.64	2592.73
684.82	2467.80
685.01	2514.91
685.19	2482.14
685.38	2711.51
685.57	2498.52
685.75	2375.64
685.94	2373.60
686.12	2408.41
686.31	2449.37
686.49	2645.98
686.68	2306.01
686.86	2463.71
687.05	2424.80
687.23	2600.92
687.42	2441.18
687.60	2260.96
687.79	2631.64
687.97	2607.06
688.16	2535.39
688.34	2635.74
688.53	2314.20
688.71	2605.02
688.90	2609.11
689.08	2432.99
689.27	2301.92
689.45	2578.39
689.64	2519.00
689.82	2592.73
690.01	2574.30
690.19	2463.71
690.38	2467.80
690.56	2707.41
690.75	2381.79
690.93	2426.84
691.12	2424.80
691.30	2430.94
691.49	2521.05
691.67	2510.81
691.86	2721.75
692.04	2422.75
692.23	2498.52
692.41	2512.86
692.60	2889.68
692.78	2641.88
692.97	2578.39
693.15	2645.98
693.34	2684.89
693.52	2588.63
693.71	2506.71
693.89	2494.43
694.08	2320.35
694.26	2619.35
694.44	2580.44
694.63	2551.77
694.81	2404.32
695.00	2406.36
695.18	2580.44
695.37	2752.47
695.55	2473.95
695.74	2519.00
695.92	2394.08
696.10	2695.13
696.29	2295.77
696.47	2418.65
696.66	2355.16
696.84	2416.60
697.03	2443.23
697.21	2752.47
697.40	3749.83
697.58	2617.30
697.76	2379.74
697.95	2381.79
698.13	2400.22
698.32	2447.32
698.50	2482.14
698.68	2478.04
698.87	2531.29
699.05	2641.88
699.24	2504.67
699.42	2336.73
699.61	2541.53
699.79	2525.15
699.97	2461.66
700.16	2330.59
700.34	2279.39
700.53	2488.28
700.71	2686.94
700.89	2537.43
701.08	2394.08
701.26	2432.99
701.45	2992.08
701.63	2430.94
701.81	2379.74
702.00	2338.78
702.18	2463.71
702.37	2455.51
702.55	2727.89
702.73	2676.70
702.92	2609.11
703.10	2840.53
703.28	2734.04
703.47	2531.29
703.65	2682.84
703.84	2682.84
704.02	2570.20
704.20	2729.94
704.39	2457.56
704.57	2447.32
704.75	2686.94
704.94	2512.86
705.12	2594.78
705.30	2883.54
705.49	5646.25
705.67	12603.20
705.86	20604.61
706.04	24290.96
706.22	27833.94
706.41	28137.04
706.59	22668.97
706.77	16393.99
706.96	13821.74
707.14	12334.92
707.32	10497.89
707.51	9344.88
707.69	7608.20
707.87	6279.07
708.06	4911.03
708.24	4210.62
708.42	3387.34
708.61	3309.52
708.79	2623.45
708.97	2678.74
709.16	2594.78
709.34	2512.86
709.52	2494.43
709.71	2465.75
709.89	2621.40
710.07	2424.80
710.26	2428.89
710.44	2432.99
710.62	2660.31
710.80	2537.43
710.99	2547.67
711.17	2613.21
711.35	2398.17
711.54	2473.95
711.72	2621.40
711.90	2512.86
712.09	2564.06
712.27	2392.03
712.45	2555.86
712.63	2420.70
712.82	2539.48
713.00	2500.57
713.18	2553.82
713.37	2562.01
713.55	2619.35
713.73	2541.53
713.91	2478.04
714.10	2480.09
714.28	2383.84
714.46	2539.48
714.65	2465.75
714.83	2549.72
715.01	2451.42
715.19	2516.95
715.38	2363.36
715.56	2539.48
715.74	2455.51
715.92	2336.73
716.11	2629.59
716.29	2174.94
716.47	2512.86
716.65	2457.56
716.84	2295.77
717.02	2596.82
717.20	2301.92
717.38	2346.97
717.57	2521.05
717.75	2523.10
717.93	2457.56
718.11	2566.10
718.30	2316.25
718.48	2541.53
718.66	2617.30
718.84	2623.45
719.03	2478.04
719.21	2306.01
719.39	2699.22
719.57	2617.30
719.75	2607.06
719.94	2418.65
720.12	2525.15
720.30	2543.58
720.48	2510.81
720.67	2445.27
720.85	2461.66
721.03	2428.89
721.21	2359.26
721.39	2486.23
721.58	2523.10
721.76	2519.00
721.94	2496.47
722.12	2562.01
722.30	2684.89
722.49	2471.90
722.67	2449.37
722.85	2486.23
723.03	2328.54
723.21	2437.08
723.40	2484.19
723.58	2621.40
723.76	2562.01
723.94	2668.50
724.12	2576.34
724.30	2686.94
724.49	2586.58
724.67	2330.59
724.85	2590.68
725.03	2349.02
725.21	2580.44
725.40	2719.70
725.58	2459.61
725.76	2605.02
725.94	2543.58
726.12	2375.64
726.30	2441.18
726.49	2441.18
726.67	2385.88
726.85	2635.74
727.03	2932.69
727.21	4155.33
727.39	5834.66
727.57	6725.53
727.76	7323.54
727.94	7673.74
728.12	7045.01
728.30	5683.11
728.48	5003.19
728.66	4501.44
728.84	4110.27
729.03	3585.99
729.21	3209.17
729.39	2895.83
729.57	2727.89
729.75	2725.85
729.93	2564.06
730.11	2502.62
730.30	2473.95
730.48	2539.48
730.66	2617.30
730.84	2541.53
731.02	2508.76
731.20	2392.03
731.38	2432.99
731.56	2287.58
731.74	2412.51
731.93	2523.10
732.11	2484.19
732.29	2385.88
732.47	2600.92
732.65	2443.23
732.83	2674.65
733.01	2494.43
733.19	2465.75
733.37	2555.86
733.56	2498.52
733.74	2484.19
733.92	2688.98
734.10	2445.27
734.28	2596.82
734.46	2263.01
734.64	2514.91
734.82	2342.88
735.00	2389.98
735.18	2428.89
735.36	2445.27
735.54	2475.99
735.73	2404.32
735.91	2482.14
736.09	2611.16
736.27	2437.08
736.45	2535.39
736.63	2314.20
736.81	2414.56
736.99	2586.58
737.17	2627.54
737.35	2449.37
737.53	2527.19
737.71	2416.60
737.89	2629.59
738.07	2349.02
738.25	2398.17
738.43	2326.49
738.61	2455.51
738.80	2310.11
738.98	2353.12
739.16	2410.46
739.34	2416.60
739.52	2717.65
739.70	2492.38
739.88	2592.73
740.06	2553.82
740.24	2353.12
740.42	2666.46
740.60	2369.50
740.78	2359.26
740.96	2318.30
741.14	2422.75
741.32	2566.10
741.50	2299.87
741.68	2666.46
741.86	2652.12
742.04	2435.03
742.22	2342.88
742.40	2486.23
742.58	2562.01
742.76	2414.56
742.94	2596.82
743.12	2365.40
743.30	2471.90
743.48	2465.75
743.66	2437.08
743.84	2529.24
744.02	2539.48
744.20	2473.95
744.38	2367.45
744.56	2445.27
744.74	2652.12
744.92	2590.68
745.10	2529.24
745.28	2500.57
745.46	2666.46
745.64	2523.10
745.82	2545.63
746.00	2478.04
746.18	2555.86
746.36	2377.69
746.54	2602.97
746.72	2453.47
746.90	2310.11
747.08	2596.82
747.26	2387.93
747.44	2658.26
747.62	2621.40
747.80	2508.76
747.98	2496.47
748.15	2439.13
748.33	2680.79
748.51	2441.18
748.69	2539.48
748.87	2426.84
749.05	2463.71
749.23	2480.09
749.41	2461.66
749.59	2420.70
749.77	2674.65
749.95	2365.40
750.13	2285.53
750.31	2496.47
750.49	2461.66
750.67	2584.54
750.85	2605.02
751.03	2480.09
751.20	2703.32
751.38	2414.56
751.56	2392.03
751.74	2475.99
751.92	2469.85
752.10	2310.11
752.28	2596.82
752.46	2463.71
752.64	2490.33
752.82	2533.34
753.00	2701.27
753.18	2437.08
753.35	2445.27
753.53	2469.85
753.71	2349.02
753.89	2498.52
754.07	2465.75
754.25	2547.67
754.43	2469.85
754.61	2275.29
754.79	2625.50
754.97	2475.99
755.14	2549.72
755.32	2404.32
755.50	2521.05
755.68	2469.85
755.86	2353.12
756.04	2432.99
756.22	2359.26
756.40	2539.48
756.57	2699.22
756.75	2332.64
756.93	2637.78
757.11	2576.34
757.29	2342.88
757.47	2435.03
757.65	2310.11
757.82	2232.29
758.00	2437.08
758.18	2410.46
758.36	2408.41
758.54	2619.35
758.72	2236.38
758.90	2627.54
759.07	2527.19
759.25	2377.69
759.43	2475.99
759.61	2314.20
759.79	3536.84
759.97	2613.21
760.15	2406.36
760.32	2400.22
760.50	2510.81
760.68	2709.46
760.86	2324.44
761.04	2629.59
761.22	2547.67
761.39	2525.15
761.57	2539.48
761.75	2541.53
761.93	2506.71
762.11	2490.33
762.28	2488.28
762.46	2404.32
762.64	2617.30
762.82	2297.82
763.00	2445.27
763.18	2598.87
763.35	2353.12
763.53	2564.06
763.71	2473.95
763.89	2490.33
764.07	2598.87
764.24	2467.80
764.42	2533.34
764.60	2432.99
764.78	2572.25
764.96	2555.86
765.13	2564.06
765.31	2316.25
765.49	2549.72
765.67	2340.83
765.84	2412.51
766.02	2355.16
766.20	2318.30
766.38	2510.81
766.56	2461.66
766.73	2531.29
766.91	2512.86
767.09	2441.18
767.27	2488.28
767.44	2428.89
767.62	2572.25
767.80	2535.39
767.98	2406.36
768.15	2428.89
768.33	2555.86
768.51	2570.20
768.69	2465.75
768.87	2420.70
769.04	2523.10
769.22	2709.46
769.40	2578.39
769.58	2703.32
769.75	2609.11
769.93	2623.45
770.11	2400.22
770.28	2351.07
770.46	2498.52
770.64	2519.00
770.82	2469.85
770.99	2488.28
771.17	2523.10
771.35	2437.08
771.53	2414.56
771.70	2410.46
771.88	2547.67
772.06	2494.43
772.23	2447.32
772.41	2551.77
772.59	2465.75
772.77	2359.26
772.94	2426.84
773.12	2473.95
773.30	2371.55
773.47	2455.51
773.65	2408.41
773.83	2643.93
774.01	2424.80
774.18	2293.72
774.36	2455.51
774.54	2369.50
774.71	2504.67
774.89	2277.34
775.07	2359.26
775.24	2371.55
775.42	2504.67
775.60	2686.94
775.78	2383.84
775.95	2301.92
776.13	2263.01
776.31	2277.34
776.48	2428.89
776.66	2557.91
776.84	2475.99
777.01	2412.51
777.19	2367.45
777.37	2371.55
777.54	2541.53
777.72	2752.47
777.90	2506.71
778.07	2297.82
778.25	2818.00
778.43	2512.86
778.60	2379.74
778.78	2555.86
778.96	2684.89
779.13	2344.92
779.31	2588.63
779.49	2394.08
779.66	2508.76
779.84	2469.85
780.01	2389.98
780.19	2346.97
780.37	2682.84
780.54	2547.67
780.72	2334.68
780.90	2310.11
781.07	2500.57
781.25	2457.56
781.43	2645.98
781.60	2420.70
781.78	2668.50
781.95	2480.09
782.13	2443.23
782.31	2430.94
782.48	2230.24
782.66	2428.89
782.83	2711.51
783.01	2553.82
783.19	2562.01
783.36	2449.37
783.54	2338.78
783.72	2545.63
783.89	2355.16
784.07	2506.71
784.24	2529.24
784.42	2633.69
784.60	2562.01
784.77	2521.05
784.95	2209.76
785.12	2357.21
785.30	2559.96
785.47	2432.99
785.65	2389.98
785.83	2449.37
786.00	2400.22
786.18	2564.06
786.35	2359.26
786.53	2381.79
786.71	2586.58
786.88	2555.86
787.06	2566.10
787.23	2543.58
787.41	2396.12
787.58	2404.32
787.76	2398.17
787.94	2478.04
788.11	2527.19
788.29	2367.45
788.46	2392.03
788.64	2308.06
788.81	2430.94
788.99	2359.26
789.16	2457.56
789.34	2437.08
789.52	2414.56
789.69	2383.84
789.87	2197.47
790.04	2396.12
790.22	2439.13
790.39	2701.27
790.57	2332.64
790.74	2375.64
790.92	2559.96
791.09	2330.59
791.27	2451.42
791.44	2578.39
791.62	2459.61
791.79	2519.00
791.97	2465.75
792.15	2799.57
792.32	2572.25
792.50	2529.24
792.67	2627.54
792.85	2666.46
793.02	2475.99
793.20	2404.32
793.37	2297.82
793.55	2285.53
793.72	2273.25
793.90	2551.77
794.07	2363.36
794.25	2324.44
794.42	2535.39
794.60	2463.71
794.77	2478.04
794.95	2541.53
795.12	2568.15
795.30	2404.32
795.47	2234.33
795.65	2670.55
795.82	2500.57
796.00	2412.51
796.17	2482.14
796.34	2435.03
796.52	2482.14
796.69	2600.92
796.87	2619.35
797.04	2553.82
797.22	2482.14
797.39	2578.39
797.57	2545.63
797.74	2494.43
797.92	2447.32
798.09	2502.62
798.27	2666.46
798.44	2418.65
798.62	2430.94
798.79	2543.58
798.96	2437.08
799.14	2430.94
799.31	2789.33
799.49	2473.95
799.66	2457.56
799.84	2498.52
800.01	2297.82
800.19	2574.30
800.36	2199.52
800.53	2504.67
800.71	2596.82
800.88	2652.12
801.06	2359.26
801.23	2301.92
801.41	2441.18
801.58	2490.33
801.75	2400.22
801.93	2465.75
802.10	2584.54
802.28	2437.08
802.45	2351.07
802.63	2449.37
802.80	2613.21
802.97	2430.94
803.15	2459.61
803.32	2478.04
803.50	2379.74
803.67	2369.50
803.84	2265.05
804.02	2453.47
804.19	2387.93
804.37	2240.48
804.54	2334.68
804.71	2318.30
804.89	2473.95
805.06	2408.41
805.24	2306.01
805.41	2289.63
805.58	2375.64
805.76	2826.20
805.93	2439.13
806.10	2600.92
806.28	2553.82
806.45	2441.18
806.63	2482.14
806.80	2463.71
806.97	2547.67
807.15	2521.05
807.32	2516.95
807.49	2482.14
807.67	2295.77
807.84	2564.06
808.01	2299.87
808.19	2676.70
808.36	2758.61
808.54	2451.42
808.71	2392.03
808.88	2480.09
809.06	2605.02
809.23	2662.36
809.40	2420.70
809.58	2512.86
809.75	2570.20
809.92	2340.83
810.10	2678.74
810.27	2414.56
810.44	2475.99
810.62	2547.67
810.79	2510.81
810.96	2435.03
811.14	2439.13
811.31	2523.10
811.48	2512.86
811.66	2437.08
811.83	2596.82
812.00	2553.82
812.18	2463.71
812.35	2725.85
812.52	2494.43
812.69	2371.55
812.87	2406.36
813.04	2367.45
813.21	2430.94
813.39	2314.20
813.56	2400.22
813.73	2588.63
813.91	2306.01
814.08	2578.39
814.25	2441.18
814.42	2252.77
814.60	2480.09
814.77	2519.00
814.94	2428.89
815.12	2402.27
815.29	2686.94
815.46	2443.23
815.63	2471.90
815.81	2365.40
815.98	2437.08
816.15	2539.48
816.33	2389.98
816.50	2373.60
816.67	2445.27
816.84	2498.52
817.02	2422.75
817.19	2381.79
817.36	2512.86
817.53	2486.23
817.71	2346.97
817.88	2545.63
818.05	2473.95
818.22	2482.14
818.40	2582.49
818.57	2422.75
818.74	2527.19
818.91	2394.08
819.09	2586.58
819.26	2521.05
819.43	2334.68
819.60	2394.08
819.78	2424.80
819.95	2584.54
820.12	2342.88
820.29	2617.30
820.47	2555.86
820.64	2432.99
820.81	2273.25
820.98	2455.51
821.15	2357.21
821.33	2506.71
821.50	2314.20
821.67	2570.20
821.84	2420.70
822.02	2547.67
822.19	2584.54
822.36	2428.89
822.53	2371.55
822.70	2318.30
822.88	2349.02
823.05	2631.64
823.22	2416.60
823.39	2580.44
823.56	2443.23
823.74	2617.30
823.91	2402.27
824.08	2383.84
824.25	2346.97
824.42	2707.41
824.60	2306.01
824.77	2562.01
824.94	2531.29
825.11	2529.24
825.28	2361.31
825.45	2463.71
825.63	2506.71
825.80	2346.97
825.97	2465.75
826.14	2498.52
826.31	2244.57
826.48	2576.34
826.66	2379.74
826.83	2322.40
827.00	2424.80
827.17	2371.55
827.34	2428.89
827.51	2432.99
827.69	2432.99
827.86	2351.07
828.03	2443.23
828.20	2559.96
828.37	2396.12
828.54	2590.68
828.71	2316.25
828.89	2623.45
829.06	2488.28
829.23	2768.85
829.40	2416.60
829.57	2330.59
829.74	2527.19
829.91	2428.89
830.09	2334.68
830.26	2484.19
830.43	2674.65
830.60	2416.60
830.77	2547.67
830.94	2639.83
831.11	2639.83
831.28	2430.94
831.46	2570.20
831.63	2357.21
831.80	2590.68
831.97	2328.54
832.14	2396.12
832.31	2441.18
832.48	2482.14
832.65	2625.50
832.82	2502.62
832.99	2516.95
833.17	2351.07
833.34	2686.94
833.51	2457.56
833.68	2289.63
833.85	2600.92
834.02	2369.50
834.19	2334.68
834.36	2406.36
834.53	2514.91
834.70	2523.10
834.87	2473.95
835.04	2320.35
835.22	2400.22
835.39	2482.14
835.56	2301.92
835.73	2371.55
835.90	2580.44
836.07	2389.98
836.24	2461.66
836.41	2314.20
836.58	2424.80
836.75	2596.82
836.92	2465.75
837.09	2338.78
837.26	2543.58
837.43	2602.97
837.60	2418.65
837.77	2324.44
837.94	2605.02
838.12	2519.00
838.29	2375.64
838.46	2256.86
838.63	2334.68
838.80	2637.78
838.97	2471.90
839.14	2332.64
839.31	2502.62
839.48	2613.21
839.65	2310.11
839.82	2453.47
839.99	2496.47
840.16	2506.71
840.33	2349.02
840.50	2424.80
840.67	2387.93
840.84	2189.28
841.01	2342.88
841.18	2383.84
841.35	2514.91
841.52	2478.04
841.69	2666.46
841.86	2357.21
842.03	2373.60
842.20	2547.67
842.37	2383.84
842.54	2394.08
842.71	2482.14
842.88	2381.79
843.05	2490.33
843.22	2375.64
843.39	2539.48
843.56	2412.51
843.73	2379.74
843.90	2453.47
844.07	2396.12
844.24	2637.78
844.41	2463.71
844.58	2432.99
844.75	2492.38
844.92	2592.73
845.09	2389.98
845.26	2365.40
845.43	2594.78
845.60	2449.37
845.77	2521.05
845.94	2396.12
846.10	2588.63
846.27	2291.68
846.44	2293.72
846.61	2324.44
846.78	2527.19
846.95	2559.96
847.12	2373.60
847.29	2394.08
847.46	2349.02
847.63	2562.01
847.80	2359.26
847.97	2404.32
848.14	2803.67
848.31	2482.14
848.48	2215.90
848.65	2404.32
848.82	2424.80
848.98	2781.14
849.15	2463.71
849.32	2521.05
849.49	2635.74
849.66	2430.94
849.83	2416.60
850.00	2281.44
850.17	2574.30
850.34	2404.32
850.51	2342.88
850.68	2326.49
850.85	2852.82
851.01	2473.95
851.18	2412.51
851.35	2367.45
851.52	2490.33
851.69	2549.72
851.86	2310.11
852.03	2230.24
852.20	2562.01
852.37	2506.71
852.53	2310.11
852.70	2404.32
852.87	2498.52
853.04	2531.29
853.21	2389.98
853.38	2449.37
853.55	2660.31
853.72	2623.45
853.89	2332.64
854.05	2332.64
854.22	2498.52
854.39	2428.89
854.56	2332.64
854.73	2525.15
854.90	2418.65
855.07	2480.09
855.23	2344.92
855.40	2330.59
855.57	2457.56
855.74	2297.82
855.91	2586.58
856.08	2295.77
856.25	2318.30
856.41	2318.30
856.58	2404.32
856.75	2377.69
856.92	2334.68
857.09	2617.30
857.26	2297.82
857.42	2303.96
857.59	2553.82
857.76	2428.89
857.93	2381.79
858.10	2396.12
858.27	2432.99
858.43	2502.62
858.60	2430.94
858.77	2312.16
858.94	2398.17
859.11	2564.06
859.27	2322.40
859.44	2346.97
859.61	2738.13
859.78	2570.20
859.95	2363.36
860.12	2299.87
860.28	2682.84
860.45	2736.09
860.62	2373.60
860.79	2457.56
860.95	2439.13
861.12	2408.41
861.29	2367.45
861.46	2293.72
861.63	2514.91
861.79	2531.29
861.96	2318.30
862.13	2353.12
862.30	2555.86
862.47	2363.36
862.63	2289.63
862.80	2502.62
862.97	2617.30
863.14	2467.80
863.30	2457.56
863.47	2314.20
863.64	2602.97
863.81	2523.10
863.97	2326.49
864.14	2441.18
864.31	2453.47
864.48	2435.03
864.65	2389.98
864.81	2482.14
864.98	2537.43
865.15	2633.69
865.32	2422.75
865.48	2502.62
865.65	2695.13
865.82	2392.03
865.98	2451.42
866.15	2381.79
866.32	2498.52
866.49	2365.40
866.65	2559.96
866.82	2400.22
866.99	2465.75
867.16	2435.03
867.32	2445.27
867.49	2285.53
867.66	2420.70
867.83	2371.55
867.99	2260.96
868.16	2408.41
868.33	2371.55
868.49	2498.52
868.66	2367.45
868.83	2441.18
868.99	2490.33
869.16	2457.56
869.33	2521.05
869.50	2387.93
869.66	2519.00
869.83	2441.18
870.00	2306.01
870.16	2549.72
870.33	2359.26
870.50	2584.54
870.66	2322.40
870.83	2443.23
871.00	2498.52
871.17	2525.15
871.33	2398.17
871.50	2277.34
871.67	2473.95
871.83	2316.25
872.00	2516.95
872.17	2422.75
872.33	2684.89
872.50	2637.78
872.67	2363.36
872.83	2455.51
873.00	2488.28
873.17	2455.51
873.33	2430.94
873.50	2473.95
873.67	2457.56
873.83	2301.92
874.00	2334.68
874.16	2568.15
874.33	2514.91
874.50	2326.49
874.66	2365.40
874.83	2445.27
875.00	2590.68
875.16	2602.97
875.33	2508.76
875.50	2125.79
875.66	2435.03
875.83	2453.47
875.99	2430.94
876.16	2422.75
876.33	2375.64
876.49	2508.76
876.66	2441.18
876.83	2328.54
876.99	2244.57
877.16	2461.66
877.32	2342.88
877.49	2412.51
877.66	2482.14
877.82	2639.83
877.99	2457.56
878.15	2523.10
878.32	2494.43
878.49	2553.82
878.65	2412.51
878.82	2549.72
878.98	2367.45
879.15	2617.30
879.32	2506.71
879.48	2482.14
879.65	2416.60
879.81	2475.99
879.98	2371.55
880.15	2351.07
880.31	2580.44
880.48	2394.08
880.64	2559.96
880.81	2410.46
880.97	2598.87
881.14	2590.68
881.31	2326.49
881.47	2564.06
881.64	2488.28
881.80	2260.96
881.97	2480.09
882.13	2457.56
882.30	2367.45
882.47	2351.07
882.63	2404.32
882.80	2316.25
882.96	2447.32
883.13	2654.17
883.29	2408.41
883.46	2406.36
883.62	2686.94
883.79	2525.15
883.95	2502.62
884.12	2387.93
884.29	2521.05
884.45	2459.61
884.62	2449.37
884.78	2322.40
884.95	2619.35
885.11	2367.45
885.28	2457.56
885.44	2398.17
885.61	2596.82
885.77	2686.94
885.94	2432.99
886.10	2437.08
886.27	2482.14
886.43	2652.12
886.60	2605.02
886.76	2437.08
886.93	2414.56
887.09	2504.67
887.26	2273.25
887.42	2475.99
887.59	2605.02
887.75	2686.94
887.92	2490.33
888.08	2504.67
888.25	2727.89
888.41	2613.21
888.58	2449.37
888.74	2306.01
888.91	2424.80
>>>>>End Processed Spectral Data<<<<<
