SpectraSuite Data File
++++++++++++++++++++++++++++++++++++
Date: Thu May 05 14:42:03 CEST 2016
User: root
Dark Spectrum Present: No
Reference Spectrum Present: No
Number of Sampled Component Spectra: 1
Spectrometers: USB4C02835
Integration Time (usec): 100000 (USB4C02835)
Spectra Averaged: 1 (USB4C02835)
Boxcar Smoothing: 0 (USB4C02835)
Correct for Electrical Dark: No (USB4C02835)
Strobe/Lamp Enabled: No (USB4C02835)
Correct for Detector Non-linearity: No (USB4C02835)
Correct for Stray Light: No (USB4C02835)
Number of Pixels in Processed Spectrum: 3648
>>>>>Begin Processed Spectral Data<<<<<
177.47	1918.95
177.69	1918.95
177.91	1918.95
178.13	1916.90
178.36	1859.56
178.58	2351.07
178.80	2482.14
179.02	2306.01
179.24	2334.68
179.46	2387.93
179.68	2361.31
179.90	2519.00
180.13	2435.03
180.35	2238.43
180.57	2322.40
180.79	2543.58
181.01	2465.75
181.23	2334.68
181.45	2502.62
181.67	2605.02
181.90	2592.73
182.12	2349.02
182.34	2207.71
182.56	2508.76
182.78	2428.89
183.00	2334.68
183.22	2330.59
183.44	2283.49
183.66	2901.97
183.89	2523.10
184.11	2375.64
184.33	2555.86
184.55	2580.44
184.77	2383.84
184.99	2379.74
185.21	2414.56
185.43	2897.88
185.65	2306.01
185.87	2351.07
186.10	2805.72
186.32	2785.24
186.54	2392.03
186.76	2365.40
186.98	2572.25
187.20	2478.04
187.42	2351.07
187.64	2375.64
187.86	2496.47
188.08	2645.98
188.30	2283.49
188.52	2379.74
188.75	2627.54
188.97	2686.94
189.19	2334.68
189.41	2273.25
189.63	2609.11
189.85	2387.93
190.07	2174.94
190.29	2234.33
190.51	2508.76
190.73	2373.60
190.95	2562.01
191.17	2349.02
191.39	2236.38
191.61	2453.47
191.84	2326.49
192.06	2437.08
192.28	2285.53
192.50	2795.48
192.72	2426.84
192.94	2480.09
193.16	2586.58
193.38	2535.39
193.60	2312.16
193.82	2510.81
194.04	2605.02
194.26	2531.29
194.48	2375.64
194.70	2330.59
194.92	2404.32
195.14	2537.43
195.36	2342.88
195.58	2383.84
195.80	2457.56
196.02	2408.41
196.24	2322.40
196.46	2394.08
196.69	2422.75
196.91	2740.18
197.13	2291.68
197.35	2367.45
197.57	2725.85
197.79	2570.20
198.01	2396.12
198.23	2365.40
198.45	2531.29
198.67	2379.74
198.89	2285.53
199.11	2469.85
199.33	2367.45
199.55	2158.56
199.77	2324.44
199.99	2420.70
200.21	2383.84
200.43	2545.63
200.65	2240.48
200.87	2285.53
201.09	2500.57
201.31	2469.85
201.53	2363.36
201.75	2392.03
201.97	2537.43
202.19	2521.05
202.41	2367.45
202.63	2519.00
202.85	2500.57
203.07	2527.19
203.29	2324.44
203.51	2279.39
203.73	2449.37
203.95	2867.16
204.17	2336.73
204.39	2406.36
204.61	2482.14
204.83	2463.71
205.05	2432.99
205.27	2394.08
205.49	2848.72
205.71	2465.75
205.93	2277.34
206.15	2250.72
206.37	2570.20
206.59	2457.56
206.81	2260.96
207.03	2328.54
207.25	2316.25
207.47	2555.86
207.69	2398.17
207.91	2512.86
208.13	2711.51
208.34	2363.36
208.56	2275.29
208.78	2383.84
209.00	2473.95
209.22	2342.88
209.44	2363.36
209.66	2328.54
209.88	2463.71
210.10	2414.56
210.32	2334.68
210.54	2451.42
210.76	2516.95
210.98	2662.36
211.20	2160.61
211.42	2301.92
211.64	2693.08
211.86	2506.71
212.08	2437.08
212.30	2377.69
212.52	2414.56
212.74	2547.67
212.96	2359.26
213.17	2408.41
213.39	2531.29
213.61	2631.64
213.83	2334.68
214.05	2359.26
214.27	2531.29
214.49	2340.83
214.71	2334.68
214.93	2441.18
215.15	2514.91
215.37	2543.58
215.59	2209.76
215.81	2410.46
216.03	2654.17
216.24	2521.05
216.46	2369.50
216.68	2400.22
216.90	2633.69
217.12	2588.63
217.34	2308.06
217.56	2473.95
217.78	2711.51
218.00	2570.20
218.22	2383.84
218.44	2349.02
218.66	2480.09
218.87	2695.13
219.09	2322.40
219.31	2465.75
219.53	2512.86
219.75	2373.60
219.97	2414.56
220.19	2420.70
220.41	2432.99
220.63	2650.07
220.85	2402.27
221.06	2424.80
221.28	2602.97
221.50	2617.30
221.72	2381.79
221.94	2316.25
222.16	2494.43
222.38	2629.59
222.60	2349.02
222.82	2422.75
223.03	2535.39
223.25	2357.21
223.47	2281.44
223.69	2543.58
223.91	2572.25
224.13	2590.68
224.35	2217.95
224.57	2424.80
224.78	2611.16
225.00	2344.92
225.22	2334.68
225.44	2334.68
225.66	2531.29
225.88	2424.80
226.10	2449.37
226.32	2375.64
226.53	2684.89
226.75	2426.84
226.97	2367.45
227.19	2439.13
227.41	2400.22
227.63	2396.12
227.85	2209.76
228.06	2387.93
228.28	2594.78
228.50	2652.12
228.72	2301.92
228.94	2248.67
229.16	2267.10
229.37	2373.60
229.59	2265.05
229.81	2486.23
230.03	2369.50
230.25	2379.74
230.47	2252.77
230.69	2242.53
230.90	2531.29
231.12	2398.17
231.34	2385.88
231.56	2459.61
231.78	2398.17
232.00	2537.43
232.21	2389.98
232.43	2377.69
232.65	2224.09
232.87	2531.29
233.09	2375.64
233.30	2389.98
233.52	2578.39
233.74	2521.05
233.96	2310.11
234.18	2426.84
234.40	2441.18
234.61	2750.42
234.83	2252.77
235.05	2271.20
235.27	2760.66
235.49	2693.08
235.70	2359.26
235.92	2328.54
236.14	2488.28
236.36	2740.18
236.58	2228.19
236.79	2424.80
237.01	2457.56
237.23	2439.13
237.45	2514.91
237.67	2287.58
237.88	2441.18
238.10	2654.17
238.32	2252.77
238.54	2273.25
238.76	2502.62
238.97	2316.25
239.19	2269.15
239.41	2357.21
239.63	2562.01
239.85	2408.41
240.06	2381.79
240.28	2277.34
240.50	2617.30
240.72	2451.42
240.93	2326.49
241.15	2428.89
241.37	2480.09
241.59	2691.03
241.81	2389.98
242.02	2367.45
242.24	2570.20
242.46	2572.25
242.68	2201.57
242.89	2328.54
243.11	2621.40
243.33	2529.24
243.55	2359.26
243.76	2293.72
243.98	2316.25
244.20	2412.51
244.42	2408.41
244.64	2400.22
244.85	2318.30
245.07	2326.49
245.29	2396.12
245.51	2355.16
245.72	2564.06
245.94	2613.21
246.16	2422.75
246.38	2412.51
246.59	2451.42
246.81	2371.55
247.03	2277.34
247.24	2203.61
247.46	2402.27
247.68	2539.48
247.90	2265.05
248.11	2301.92
248.33	2605.02
248.55	2430.94
248.77	2320.35
248.98	2426.84
249.20	2635.74
249.42	2539.48
249.64	2371.55
249.85	2353.12
250.07	2437.08
250.29	2637.78
250.50	2437.08
250.72	2260.96
250.94	2469.85
251.16	2701.27
251.37	2375.64
251.59	2469.85
251.81	2490.33
252.02	2639.83
252.24	2330.59
252.46	2510.81
252.68	2408.41
252.89	2375.64
253.11	2187.23
253.33	2486.23
253.54	2703.32
253.76	2367.45
253.98	2392.03
254.20	2336.73
254.41	2338.78
254.63	2418.65
254.85	2260.96
255.06	2381.79
255.28	2543.58
255.50	2422.75
255.71	2340.83
255.93	2236.38
256.15	2512.86
256.36	2549.72
256.58	2293.72
256.80	2299.87
257.02	2408.41
257.23	2428.89
257.45	2406.36
257.67	2486.23
257.88	2412.51
258.10	2525.15
258.32	2303.96
258.53	2455.51
258.75	2717.65
258.97	2439.13
259.18	2326.49
259.40	2293.72
259.62	2678.74
259.83	2703.32
260.05	2441.18
260.27	2912.21
260.48	2531.29
260.70	2359.26
260.92	2265.05
261.13	2412.51
261.35	2408.41
261.57	2471.90
261.78	2260.96
262.00	2328.54
262.22	2521.05
262.43	2463.71
262.65	2336.73
262.86	2392.03
263.08	2717.65
263.30	2490.33
263.51	2263.01
263.73	2283.49
263.95	2709.46
264.16	2406.36
264.38	2273.25
264.60	2346.97
264.81	2441.18
265.03	2617.30
265.25	2625.50
265.46	2324.44
265.68	2588.63
265.89	2572.25
266.11	2285.53
266.33	2338.78
266.54	2615.26
266.76	2559.96
266.98	2406.36
267.19	2418.65
267.41	2588.63
267.62	2498.52
267.84	2232.29
268.06	2439.13
268.27	2559.96
268.49	2678.74
268.70	2465.75
268.92	2422.75
269.14	2396.12
269.35	2318.30
269.57	2371.55
269.79	2424.80
270.00	2400.22
270.22	2723.80
270.43	2310.11
270.65	2193.37
270.87	2547.67
271.08	2559.96
271.30	2363.36
271.51	2346.97
271.73	2600.92
271.95	2668.50
272.16	2342.88
272.38	2506.71
272.59	2441.18
272.81	2588.63
273.02	2322.40
273.24	2330.59
273.46	2652.12
273.67	2342.88
273.89	2318.30
274.10	2301.92
274.32	2635.74
274.54	2469.85
274.75	2367.45
274.97	2379.74
275.18	2506.71
275.40	2564.06
275.61	2451.42
275.83	2443.23
276.05	2400.22
276.26	2475.99
276.48	2488.28
276.69	2324.44
276.91	2457.56
277.12	2641.88
277.34	2461.66
277.55	2572.25
277.77	2494.43
277.99	2453.47
278.20	2342.88
278.42	2289.63
278.63	2428.89
278.85	2394.08
279.06	2324.44
279.28	2406.36
279.49	2570.20
279.71	2607.06
279.93	2498.52
280.14	2416.60
280.36	2398.17
280.57	2574.30
280.79	2498.52
281.00	2351.07
281.22	2371.55
281.43	2670.55
281.65	2195.42
281.86	2277.34
282.08	2531.29
282.29	2662.36
282.51	2215.90
282.73	2310.11
282.94	2342.88
283.16	2609.11
283.37	2656.22
283.59	2424.80
283.80	2539.48
284.02	2486.23
284.23	2432.99
284.45	2363.36
284.66	2359.26
284.88	2342.88
285.09	2365.40
285.31	2467.80
285.52	2547.67
285.74	2312.16
285.95	2443.23
286.17	2385.88
286.38	2562.01
286.60	2443.23
286.81	2430.94
287.03	2394.08
287.24	2457.56
287.46	2555.86
287.67	2494.43
287.89	2645.98
288.10	2480.09
288.32	2430.94
288.53	2545.63
288.75	2469.85
288.96	2633.69
289.18	2381.79
289.39	2428.89
289.61	2471.90
289.82	2787.29
290.04	2684.89
290.25	2248.67
290.47	2428.89
290.68	2369.50
290.90	2602.97
291.11	2330.59
291.33	2457.56
291.54	2389.98
291.76	2496.47
291.97	2478.04
292.18	2471.90
292.40	2422.75
292.61	2457.56
292.83	2617.30
293.04	2514.91
293.26	2498.52
293.47	2416.60
293.69	2400.22
293.90	2357.21
294.12	2695.13
294.33	2523.10
294.55	2490.33
294.76	2519.00
294.97	2676.70
295.19	2760.66
295.40	2392.03
295.62	2471.90
295.83	2629.59
296.05	2461.66
296.26	2547.67
296.48	2435.03
296.69	2449.37
296.90	2488.28
297.12	2551.77
297.33	2572.25
297.55	2408.41
297.76	2594.78
297.98	2516.95
298.19	2443.23
298.41	2539.48
298.62	2420.70
298.83	2539.48
299.05	2473.95
299.26	2381.79
299.48	2396.12
299.69	2521.05
299.90	2435.03
300.12	2418.65
300.33	2605.02
300.55	2410.46
300.76	2519.00
300.98	2359.26
301.19	2582.49
301.40	2383.84
301.62	2422.75
301.83	2441.18
302.05	2496.47
302.26	2428.89
302.47	2424.80
302.69	2383.84
302.90	2478.04
303.12	2244.57
303.33	2467.80
303.54	2789.33
303.76	2473.95
303.97	2398.17
304.19	2633.69
304.40	2318.30
304.61	2541.53
304.83	2576.34
305.04	2547.67
305.26	2580.44
305.47	2473.95
305.68	2400.22
305.90	2301.92
306.11	2633.69
306.33	2473.95
306.54	2326.49
306.75	2424.80
306.97	2287.58
307.18	2346.97
307.39	2375.64
307.61	2471.90
307.82	2463.71
308.04	2512.86
308.25	2373.60
308.46	2488.28
308.68	2484.19
308.89	2535.39
309.10	2488.28
309.32	2461.66
309.53	2519.00
309.74	2605.02
309.96	2392.03
310.17	2572.25
310.39	2441.18
310.60	2568.15
310.81	2471.90
311.03	2328.54
311.24	2564.06
311.45	2514.91
311.67	2602.97
311.88	2496.47
312.09	2455.51
312.31	2422.75
312.52	2371.55
312.73	2406.36
312.95	2318.30
313.16	2451.42
313.37	2605.02
313.59	2492.38
313.80	2635.74
314.01	2731.99
314.23	2455.51
314.44	2351.07
314.65	2281.44
314.87	2389.98
315.08	2310.11
315.29	2428.89
315.51	2435.03
315.72	2387.93
315.93	2562.01
316.15	2506.71
316.36	2443.23
316.57	2492.38
316.79	2430.94
317.00	2369.50
317.21	2533.34
317.43	2353.12
317.64	2510.81
317.85	2344.92
318.07	2400.22
318.28	2428.89
318.49	2609.11
318.70	2748.37
318.92	2627.54
319.13	2631.64
319.34	2592.73
319.56	2510.81
319.77	2637.78
319.98	2510.81
320.20	2588.63
320.41	2557.91
320.62	2617.30
320.83	2318.30
321.05	2650.07
321.26	2500.57
321.47	2564.06
321.69	2559.96
321.90	2349.02
322.11	2463.71
322.32	2516.95
322.54	2662.36
322.75	2330.59
322.96	2850.77
323.18	2334.68
323.39	2220.00
323.60	2355.16
323.81	2519.00
324.03	2422.75
324.24	2424.80
324.45	2480.09
324.66	2400.22
324.88	2619.35
325.09	2645.98
325.30	2371.55
325.52	2455.51
325.73	2539.48
325.94	2361.31
326.15	2320.35
326.37	2402.27
326.58	2576.34
326.79	2678.74
327.00	2392.03
327.22	2408.41
327.43	2441.18
327.64	2394.08
327.85	2529.24
328.07	2494.43
328.28	2719.70
328.49	2494.43
328.70	2396.12
328.92	2387.93
329.13	2379.74
329.34	2539.48
329.55	2580.44
329.76	2588.63
329.98	2482.14
330.19	2629.59
330.40	2465.75
330.61	2500.57
330.83	2500.57
331.04	2349.02
331.25	2506.71
331.46	2435.03
331.68	2342.88
331.89	2678.74
332.10	2377.69
332.31	2269.15
332.52	2508.76
332.74	2637.78
332.95	2310.11
333.16	2461.66
333.37	2566.10
333.58	2445.27
333.80	2392.03
334.01	2314.20
334.22	2416.60
334.43	2371.55
334.64	2375.64
334.86	2328.54
335.07	2379.74
335.28	2619.35
335.49	2322.40
335.70	2389.98
335.92	2631.64
336.13	2789.33
336.34	2457.56
336.55	2504.67
336.76	2506.71
336.98	2215.90
337.19	2422.75
337.40	2535.39
337.61	2791.38
337.82	2414.56
338.04	2498.52
338.25	2244.57
338.46	2465.75
338.67	2416.60
338.88	2404.32
339.09	2295.77
339.31	2365.40
339.52	2328.54
339.73	2310.11
339.94	2400.22
340.15	2553.82
340.36	2437.08
340.58	2453.47
340.79	2359.26
341.00	2615.26
341.21	2277.34
341.42	2600.92
341.63	2504.67
341.85	2568.15
342.06	2519.00
342.27	2351.07
342.48	2496.47
342.69	2265.05
342.90	2553.82
343.12	2613.21
343.33	2355.16
343.54	2600.92
343.75	2586.58
343.96	2418.65
344.17	2322.40
344.38	2494.43
344.60	2394.08
344.81	2301.92
345.02	2426.84
345.23	2545.63
345.44	2740.18
345.65	2564.06
345.86	2451.42
346.07	2514.91
346.29	2402.27
346.50	2523.10
346.71	2480.09
346.92	2629.59
347.13	2721.75
347.34	2496.47
347.55	2445.27
347.76	2555.86
347.98	2340.83
348.19	2424.80
348.40	2537.43
348.61	2416.60
348.82	2682.84
349.03	2490.33
349.24	2357.21
349.45	2637.78
349.66	2252.77
349.88	2469.85
350.09	2340.83
350.30	2688.98
350.51	2652.12
350.72	2578.39
350.93	2402.27
351.14	2441.18
351.35	2471.90
351.56	2463.71
351.77	2449.37
351.99	2547.67
352.20	2574.30
352.41	2582.49
352.62	2263.01
352.83	2457.56
353.04	2531.29
353.25	2398.17
353.46	2453.47
353.67	2553.82
353.88	2189.28
354.09	2414.56
354.30	2336.73
354.52	2580.44
354.73	2484.19
354.94	2383.84
355.15	2414.56
355.36	2705.37
355.57	2435.03
355.78	2480.09
355.99	2353.12
356.20	2398.17
356.41	2662.36
356.62	2531.29
356.83	2437.08
357.04	2613.21
357.25	2273.25
357.46	2385.88
357.68	2281.44
357.89	2340.83
358.10	2486.23
358.31	2447.32
358.52	2379.74
358.73	2310.11
358.94	2396.12
359.15	2349.02
359.36	2490.33
359.57	2514.91
359.78	2342.88
359.99	2461.66
360.20	2314.20
360.41	2510.81
360.62	2609.11
360.83	2494.43
361.04	2406.36
361.25	2545.63
361.46	2678.74
361.67	2564.06
361.88	2449.37
362.09	2586.58
362.30	2508.76
362.51	2387.93
362.72	2428.89
362.93	2562.01
363.14	2629.59
363.35	2471.90
363.56	2355.16
363.78	2613.21
363.99	2555.86
364.20	2392.03
364.41	2457.56
364.62	2693.08
364.83	2555.86
365.04	2439.13
365.25	2469.85
365.46	2748.37
365.67	2351.07
365.88	2406.36
366.09	2400.22
366.30	2375.64
366.51	2519.00
366.72	2265.05
366.93	2373.60
367.14	2521.05
367.35	2654.17
367.56	2461.66
367.77	2469.85
367.98	2490.33
368.18	2572.25
368.39	2457.56
368.60	2291.68
368.81	2572.25
369.02	2547.67
369.23	2334.68
369.44	2308.06
369.65	2412.51
369.86	2453.47
370.07	2547.67
370.28	2320.35
370.49	2467.80
370.70	2586.58
370.91	2375.64
371.12	2301.92
371.33	2578.39
371.54	2404.32
371.75	2600.92
371.96	2209.76
372.17	2521.05
372.38	2377.69
372.59	2514.91
372.80	2383.84
373.01	2416.60
373.22	2461.66
373.43	2435.03
373.64	2287.58
373.85	2656.22
374.06	2719.70
374.26	2559.96
374.47	2543.58
374.68	2641.88
374.89	2486.23
375.10	2355.16
375.31	2504.67
375.52	2473.95
375.73	2453.47
375.94	2367.45
376.15	2510.81
376.36	2404.32
376.57	2346.97
376.78	2428.89
376.99	2432.99
377.20	2619.35
377.40	2402.27
377.61	2658.26
377.82	2332.64
378.03	2691.03
378.24	2559.96
378.45	2383.84
378.66	2478.04
378.87	2277.34
379.08	2353.12
379.29	2424.80
379.50	2527.19
379.71	2463.71
379.91	2609.11
380.12	2441.18
380.33	2457.56
380.54	2478.04
380.75	2490.33
380.96	2361.31
381.17	2510.81
381.38	2523.10
381.59	2498.52
381.80	2473.95
382.00	2611.16
382.21	2521.05
382.42	2723.80
382.63	2727.89
382.84	2543.58
383.05	2506.71
383.26	2656.22
383.47	2496.47
383.68	2525.15
383.88	2566.10
384.09	2539.48
384.30	2615.26
384.51	2455.51
384.72	2430.94
384.93	2324.44
385.14	2537.43
385.35	2539.48
385.55	2342.88
385.76	2549.72
385.97	2441.18
386.18	2322.40
386.39	2369.50
386.60	2412.51
386.81	2414.56
387.02	2342.88
387.22	2383.84
387.43	2555.86
387.64	2463.71
387.85	2695.13
388.06	2553.82
388.27	3993.54
388.48	8286.08
388.68	12076.87
388.89	14356.26
389.10	15646.48
389.31	14667.55
389.52	11753.29
389.73	10010.47
389.93	9115.51
390.14	8306.56
390.35	7364.50
390.56	6629.27
390.77	5402.54
390.98	4161.47
391.18	3416.01
391.39	2949.08
391.60	2576.34
391.81	2652.12
392.02	2392.03
392.23	2842.58
392.43	2512.86
392.64	2545.63
392.85	2453.47
393.06	2668.50
393.27	2428.89
393.47	2424.80
393.68	2435.03
393.89	2445.27
394.10	2623.45
394.31	2394.08
394.52	2412.51
394.72	2389.98
394.93	2627.54
395.14	2342.88
395.35	2492.38
395.56	2432.99
395.76	2508.76
395.97	2478.04
396.18	2529.24
396.39	2619.35
396.60	2992.08
396.80	2744.28
397.01	2584.54
397.22	2535.39
397.43	2764.76
397.64	2428.89
397.84	2494.43
398.05	2764.76
398.26	2457.56
398.47	2545.63
398.67	2645.98
398.88	2527.19
399.09	2529.24
399.30	2406.36
399.51	2568.15
399.71	2396.12
399.92	2557.91
400.13	2502.62
400.34	2494.43
400.54	2435.03
400.75	2662.36
400.96	2492.38
401.17	2656.22
401.37	2564.06
401.58	2447.32
401.79	2432.99
402.00	2619.35
402.21	2916.31
402.41	2752.47
402.62	2791.38
402.83	2916.31
403.04	3004.37
403.24	3061.71
403.45	2588.63
403.66	2736.09
403.87	2688.98
404.07	2801.62
404.28	2695.13
404.49	2711.51
404.70	2592.73
404.90	2592.73
405.11	2414.56
405.32	2510.81
405.52	2400.22
405.73	2441.18
405.94	2365.40
406.15	2449.37
406.35	2629.59
406.56	2609.11
406.77	2506.71
406.98	2463.71
407.18	2342.88
407.39	2686.94
407.60	2373.60
407.80	2463.71
408.01	2332.64
408.22	2578.39
408.43	2432.99
408.63	2463.71
408.84	2625.50
409.05	2611.16
409.25	2289.63
409.46	2375.64
409.67	2383.84
409.88	2428.89
410.08	2490.33
410.29	2363.36
410.50	2547.67
410.70	2510.81
410.91	2379.74
411.12	2510.81
411.32	2480.09
411.53	2432.99
411.74	2605.02
411.95	2576.34
412.15	2588.63
412.36	2688.98
412.57	2602.97
412.77	2617.30
412.98	2521.05
413.19	2531.29
413.39	2508.76
413.60	2537.43
413.81	2654.17
414.01	2441.18
414.22	2490.33
414.43	2619.35
414.63	2459.61
414.84	2668.50
415.05	2482.14
415.25	2285.53
415.46	2562.01
415.67	2500.57
415.87	2551.77
416.08	2467.80
416.29	2420.70
416.49	2543.58
416.70	2435.03
416.91	2426.84
417.11	2488.28
417.32	2609.11
417.53	2564.06
417.73	2512.86
417.94	2557.91
418.15	2502.62
418.35	2435.03
418.56	2547.67
418.77	2756.57
418.97	2504.67
419.18	2504.67
419.38	2201.57
419.59	2461.66
419.80	2758.61
420.00	2338.78
420.21	2455.51
420.42	2609.11
420.62	2551.77
420.83	2353.12
421.04	2412.51
421.24	2463.71
421.45	2547.67
421.65	2449.37
421.86	2326.49
422.07	2619.35
422.27	2570.20
422.48	2441.18
422.69	2453.47
422.89	2478.04
423.10	2465.75
423.30	2334.68
423.51	2576.34
423.72	2572.25
423.92	2527.19
424.13	2324.44
424.33	2432.99
424.54	2650.07
424.75	2519.00
424.95	2652.12
425.16	2461.66
425.36	2543.58
425.57	2621.40
425.78	2490.33
425.98	2555.86
426.19	2486.23
426.39	2340.83
426.60	2455.51
426.81	2568.15
427.01	2459.61
427.22	2400.22
427.42	2236.38
427.63	2367.45
427.83	2619.35
428.04	2635.74
428.25	2531.29
428.45	2598.87
428.66	2664.41
428.86	2439.13
429.07	2385.88
429.28	2492.38
429.48	2469.85
429.69	2424.80
429.89	2525.15
430.10	2299.87
430.30	2629.59
430.51	2582.49
430.71	2408.41
430.92	2418.65
431.13	2432.99
431.33	2559.96
431.54	2598.87
431.74	2582.49
431.95	2691.03
432.15	2375.64
432.36	2449.37
432.56	2478.04
432.77	2721.75
432.98	2727.89
433.18	2555.86
433.39	2420.70
433.59	2523.10
433.80	2815.96
434.00	2715.61
434.21	2424.80
434.41	2392.03
434.62	2787.29
434.82	2400.22
435.03	2349.02
435.23	2545.63
435.44	2281.44
435.64	2514.91
435.85	2465.75
436.06	2600.92
436.26	2645.98
436.47	2449.37
436.67	2428.89
436.88	2449.37
437.08	2562.01
437.29	2572.25
437.49	2498.52
437.70	2637.78
437.90	2449.37
438.11	2641.88
438.31	2545.63
438.52	2686.94
438.72	2662.36
438.93	2858.96
439.13	2572.25
439.34	2662.36
439.54	2555.86
439.75	2514.91
439.95	2592.73
440.16	2400.22
440.36	2459.61
440.57	2519.00
440.77	2492.38
440.98	2570.20
441.18	2629.59
441.39	2351.07
441.59	2308.06
441.80	2752.47
442.00	2512.86
442.21	2596.82
442.41	2310.11
442.62	2605.02
442.82	2508.76
443.02	2480.09
443.23	2480.09
443.43	2441.18
443.64	2658.26
443.84	2424.80
444.05	2588.63
444.25	2525.15
444.46	2475.99
444.66	2478.04
444.87	2682.84
445.07	2377.69
445.28	2504.67
445.48	2519.00
445.69	2496.47
445.89	2803.67
446.09	2498.52
446.30	2881.49
446.50	2967.51
446.71	4601.79
446.91	5771.18
447.12	6707.10
447.32	7077.78
447.53	6606.75
447.73	5363.63
447.93	4732.86
448.14	4558.78
448.34	4470.72
448.55	3794.89
448.75	3844.04
448.96	3610.57
449.16	3223.50
449.36	3045.33
449.57	2813.91
449.77	2529.24
449.98	2473.95
450.18	2596.82
450.39	2527.19
450.59	2576.34
450.79	2588.63
451.00	2408.41
451.20	2584.54
451.41	2402.27
451.61	2555.86
451.81	2443.23
452.02	2424.80
452.22	2402.27
452.43	2514.91
452.63	2412.51
452.84	2455.51
453.04	2445.27
453.24	2525.15
453.45	2363.36
453.65	2490.33
453.86	2488.28
454.06	2473.95
454.26	2521.05
454.47	2387.93
454.67	2625.50
454.87	2559.96
455.08	2506.71
455.28	2613.21
455.49	2519.00
455.69	2473.95
455.89	2715.61
456.10	2484.19
456.30	2541.53
456.51	2592.73
456.71	2535.39
456.91	2504.67
457.12	2465.75
457.32	2531.29
457.52	2381.79
457.73	2504.67
457.93	2545.63
458.14	2416.60
458.34	2273.25
458.54	2471.90
458.75	2453.47
458.95	2525.15
459.15	2553.82
459.36	2488.28
459.56	2568.15
459.76	2803.67
459.97	2584.54
460.17	2414.56
460.37	2602.97
460.58	2510.81
460.78	2572.25
460.99	2432.99
461.19	2488.28
461.39	2496.47
461.60	2539.48
461.80	2521.05
462.00	2328.54
462.21	2455.51
462.41	2328.54
462.61	2351.07
462.82	2285.53
463.02	2611.16
463.22	2533.34
463.43	2539.48
463.63	2512.86
463.83	2707.41
464.04	2574.30
464.24	2441.18
464.44	2402.27
464.64	2490.33
464.85	2572.25
465.05	2510.81
465.25	2445.27
465.46	2377.69
465.66	2584.54
465.86	2584.54
466.07	2420.70
466.27	2465.75
466.47	2324.44
466.68	2293.72
466.88	2574.30
467.08	2639.83
467.29	2564.06
467.49	2506.71
467.69	2537.43
467.89	2463.71
468.10	2478.04
468.30	2484.19
468.50	2609.11
468.71	2670.55
468.91	2373.60
469.11	2678.74
469.31	2551.77
469.52	2338.78
469.72	2699.22
469.92	2602.97
470.13	2494.43
470.33	2621.40
470.53	2562.01
470.73	2883.54
470.94	3231.69
471.14	3512.27
471.34	3841.99
471.54	3573.71
471.75	3389.39
471.95	3049.43
472.15	2971.60
472.36	3030.99
472.56	2947.03
472.76	2973.65
472.96	2940.88
473.17	2830.29
473.37	2648.02
473.57	2519.00
473.77	2592.73
473.98	2533.34
474.18	2342.88
474.38	2805.72
474.58	2424.80
474.79	2473.95
474.99	2584.54
475.19	2531.29
475.39	2383.84
475.60	2500.57
475.80	2469.85
476.00	2580.44
476.20	2441.18
476.41	2519.00
476.61	2607.06
476.81	2605.02
477.01	2406.36
477.21	2648.02
477.42	2525.15
477.62	2410.46
477.82	2590.68
478.02	2416.60
478.23	2531.29
478.43	2424.80
478.63	2475.99
478.83	2449.37
479.03	2408.41
479.24	2670.55
479.44	2744.28
479.64	2404.32
479.84	2236.38
480.04	2402.27
480.25	2617.30
480.45	2383.84
480.65	2463.71
480.85	2676.70
481.06	2445.27
481.26	2475.99
481.46	2553.82
481.66	2539.48
481.86	2342.88
482.06	2559.96
482.27	2406.36
482.47	2506.71
482.67	2570.20
482.87	2400.22
483.07	2668.50
483.28	2422.75
483.48	2353.12
483.68	2428.89
483.88	2381.79
484.08	2193.37
484.29	2367.45
484.49	2439.13
484.69	2351.07
484.89	2605.02
485.09	2635.74
485.29	2547.67
485.50	2562.01
485.70	2508.76
485.90	2613.21
486.10	2494.43
486.30	2514.91
486.50	2625.50
486.71	2617.30
486.91	2568.15
487.11	2609.11
487.31	2375.64
487.51	2574.30
487.71	2418.65
487.91	2387.93
488.12	2422.75
488.32	2191.33
488.52	2410.46
488.72	2260.96
488.92	2523.10
489.12	2629.59
489.32	2523.10
489.53	2512.86
489.73	2432.99
489.93	2750.42
490.13	2371.55
490.33	2295.77
490.53	2514.91
490.73	2613.21
490.94	2283.49
491.14	2564.06
491.34	2615.26
491.54	2695.13
491.74	3315.66
491.94	3968.96
492.14	4327.36
492.34	4356.03
492.54	4083.65
492.75	3465.16
492.95	3397.58
493.15	3243.98
493.35	3043.28
493.55	3041.23
493.75	3026.90
493.95	3063.76
494.15	2725.85
494.35	2602.97
494.56	2516.95
494.76	2482.14
494.96	2564.06
495.16	2461.66
495.36	2455.51
495.56	2465.75
495.76	2514.91
495.96	2379.74
496.16	2418.65
496.36	2742.23
496.56	2437.08
496.77	2424.80
496.97	2521.05
497.17	2609.11
497.37	2285.53
497.57	2576.34
497.77	2549.72
497.97	2326.49
498.17	2465.75
498.37	2416.60
498.57	2547.67
498.77	2445.27
498.97	2498.52
499.17	2621.40
499.38	2568.15
499.58	2469.85
499.78	2602.97
499.98	2572.25
500.18	2424.80
500.38	2451.42
500.58	2684.89
500.78	3043.28
500.98	5300.14
501.18	7540.62
501.38	9199.48
501.58	10086.25
501.78	10043.24
501.98	8019.85
502.18	6856.60
502.38	5816.23
502.58	5328.81
502.78	4921.27
502.98	4652.98
503.18	4458.43
503.38	4073.41
503.59	3506.12
503.79	3391.44
503.99	3192.78
504.19	3110.86
504.39	3098.58
504.59	3135.44
504.79	3076.05
504.99	3168.21
505.19	2838.48
505.39	2770.90
505.59	2906.07
505.79	2838.48
505.99	2738.13
506.19	2641.88
506.39	2676.70
506.59	2480.09
506.79	2445.27
506.99	2637.78
507.19	2588.63
507.39	2553.82
507.59	2389.98
507.79	2359.26
507.99	2420.70
508.19	2457.56
508.39	2398.17
508.59	2455.51
508.79	2643.93
508.99	2760.66
509.19	2459.61
509.39	2523.10
509.59	2394.08
509.79	2521.05
509.99	2465.75
510.19	2676.70
510.39	2623.45
510.59	2455.51
510.79	2381.79
510.99	2342.88
511.19	2510.81
511.39	2721.75
511.59	2516.95
511.79	2535.39
511.99	2504.67
512.19	2652.12
512.38	2463.71
512.58	2381.79
512.78	2381.79
512.98	2613.21
513.18	2709.46
513.38	2359.26
513.58	2564.06
513.78	2463.71
513.98	2543.58
514.18	2457.56
514.38	2430.94
514.58	2568.15
514.78	2367.45
514.98	2357.21
515.18	2426.84
515.38	2314.20
515.58	2682.84
515.78	2414.56
515.98	2502.62
516.18	2656.22
516.38	2551.77
516.57	2402.27
516.77	2351.07
516.97	2580.44
517.17	2389.98
517.37	2351.07
517.57	2543.58
517.77	2387.93
517.97	2394.08
518.17	2523.10
518.37	2375.64
518.57	2351.07
518.77	2377.69
518.97	2512.86
519.16	2457.56
519.36	2635.74
519.56	2445.27
519.76	2533.34
519.96	2490.33
520.16	2611.16
520.36	2424.80
520.56	2717.65
520.76	2326.49
520.96	2527.19
521.16	2562.01
521.35	2506.71
521.55	2586.58
521.75	2432.99
521.95	2471.90
522.15	2424.80
522.35	2344.92
522.55	2428.89
522.75	2559.96
522.95	2435.03
523.14	2308.06
523.34	2486.23
523.54	2469.85
523.74	2574.30
523.94	2478.04
524.14	2342.88
524.34	2527.19
524.54	2578.39
524.73	2432.99
524.93	2568.15
525.13	2547.67
525.33	2246.62
525.53	2711.51
525.73	2584.54
525.93	2416.60
526.13	2432.99
526.32	2457.56
526.52	2555.86
526.72	2664.41
526.92	2455.51
527.12	2451.42
527.32	2359.26
527.52	2555.86
527.71	2502.62
527.91	2412.51
528.11	2447.32
528.31	2432.99
528.51	2430.94
528.71	2490.33
528.90	2592.73
529.10	2580.44
529.30	2611.16
529.50	2230.24
529.70	2516.95
529.90	2506.71
530.09	2428.89
530.29	2326.49
530.49	2400.22
530.69	2899.92
530.89	2504.67
531.09	2551.77
531.28	2439.13
531.48	2664.41
531.68	2457.56
531.88	2482.14
532.08	2693.08
532.28	2453.47
532.47	2641.88
532.67	2598.87
532.87	2586.58
533.07	2363.36
533.27	2551.77
533.46	2539.48
533.66	2473.95
533.86	2553.82
534.06	2498.52
534.26	2510.81
534.45	2461.66
534.65	2607.06
534.85	2486.23
535.05	2375.64
535.25	2664.41
535.44	2371.55
535.64	2535.39
535.84	2424.80
536.04	2437.08
536.24	2459.61
536.43	2379.74
536.63	2437.08
536.83	2455.51
537.03	2549.72
537.22	2371.55
537.42	2330.59
537.62	2473.95
537.82	2406.36
538.02	2633.69
538.21	2592.73
538.41	2856.92
538.61	2514.91
538.81	2521.05
539.00	2596.82
539.20	2334.68
539.40	2473.95
539.60	2519.00
539.79	2564.06
539.99	2459.61
540.19	2396.12
540.39	2402.27
540.58	2441.18
540.78	2562.01
540.98	2506.71
541.18	2602.97
541.37	2486.23
541.57	2471.90
541.77	2494.43
541.97	2383.84
542.16	2340.83
542.36	2416.60
542.56	2469.85
542.76	2652.12
542.95	2562.01
543.15	2609.11
543.35	2615.26
543.54	2404.32
543.74	2453.47
543.94	2719.70
544.14	2389.98
544.33	2588.63
544.53	2463.71
544.73	2482.14
544.93	2410.46
545.12	2400.22
545.32	2377.69
545.52	2406.36
545.71	2387.93
545.91	2414.56
546.11	2502.62
546.30	2342.88
546.50	2537.43
546.70	2512.86
546.90	2486.23
547.09	2301.92
547.29	2531.29
547.49	2613.21
547.68	2439.13
547.88	2463.71
548.08	2553.82
548.27	2926.55
548.47	2428.89
548.67	2439.13
548.87	2592.73
549.06	2459.61
549.26	2469.85
549.46	2529.24
549.65	2457.56
549.85	2465.75
550.05	2523.10
550.24	2320.35
550.44	2486.23
550.64	2447.32
550.83	2529.24
551.03	2621.40
551.23	2572.25
551.42	2465.75
551.62	2500.57
551.82	2572.25
552.01	2475.99
552.21	2525.15
552.41	2457.56
552.60	2695.13
552.80	2523.10
553.00	2361.31
553.19	2494.43
553.39	2793.43
553.59	2432.99
553.78	2625.50
553.98	2480.09
554.17	2379.74
554.37	2508.76
554.57	2613.21
554.76	2363.36
554.96	2346.97
555.16	2539.48
555.35	2488.28
555.55	2574.30
555.75	2455.51
555.94	2502.62
556.14	2375.64
556.33	2531.29
556.53	2500.57
556.73	2473.95
556.92	2498.52
557.12	2461.66
557.32	2734.04
557.51	2639.83
557.71	2539.48
557.90	2670.55
558.10	2672.60
558.30	2424.80
558.49	2480.09
558.69	2408.41
558.88	2627.54
559.08	2572.25
559.28	2498.52
559.47	2375.64
559.67	2555.86
559.86	2717.65
560.06	2451.42
560.26	2531.29
560.45	2562.01
560.65	2455.51
560.84	2656.22
561.04	2420.70
561.24	2590.68
561.43	2375.64
561.63	2629.59
561.82	2451.42
562.02	2586.58
562.22	2418.65
562.41	2338.78
562.61	2359.26
562.80	2330.59
563.00	2797.53
563.19	2490.33
563.39	2566.10
563.59	2584.54
563.78	2357.21
563.98	2308.06
564.17	2457.56
564.37	2379.74
564.56	2461.66
564.76	2416.60
564.96	2650.07
565.15	2588.63
565.35	2838.48
565.54	2441.18
565.74	2521.05
565.93	2457.56
566.13	2496.47
566.32	2531.29
566.52	2519.00
566.71	2519.00
566.91	2621.40
567.11	2486.23
567.30	2426.84
567.50	2521.05
567.69	2512.86
567.89	2420.70
568.08	2430.94
568.28	2508.76
568.47	2353.12
568.67	2492.38
568.86	2406.36
569.06	2637.78
569.25	2467.80
569.45	2265.05
569.64	2422.75
569.84	2502.62
570.04	2559.96
570.23	2439.13
570.43	2465.75
570.62	2498.52
570.82	2725.85
571.01	2336.73
571.21	2381.79
571.40	2369.50
571.60	2547.67
571.79	2568.15
571.99	2459.61
572.18	2400.22
572.38	2498.52
572.57	2480.09
572.77	2484.19
572.96	2863.06
573.16	2498.52
573.35	2377.69
573.55	2617.30
573.74	2457.56
573.94	2455.51
574.13	2461.66
574.33	2535.39
574.52	2650.07
574.71	2523.10
574.91	2484.19
575.10	2371.55
575.30	2459.61
575.49	2414.56
575.69	2453.47
575.88	2504.67
576.08	2568.15
576.27	2643.93
576.47	2525.15
576.66	2658.26
576.86	2654.17
577.05	2615.26
577.25	2510.81
577.44	2635.74
577.64	2367.45
577.83	2668.50
578.02	2482.14
578.22	2596.82
578.41	2686.94
578.61	2502.62
578.80	2265.05
579.00	2514.91
579.19	2564.06
579.39	2533.34
579.58	2611.16
579.77	2535.39
579.97	2727.89
580.16	2695.13
580.36	2641.88
580.55	2564.06
580.75	2547.67
580.94	2557.91
581.13	2656.22
581.33	2652.12
581.52	2492.38
581.72	2822.10
581.91	2600.92
582.11	2475.99
582.30	2631.64
582.49	2574.30
582.69	2711.51
582.88	2482.14
583.08	2490.33
583.27	2605.02
583.47	2533.34
583.66	2449.37
583.85	2465.75
584.05	2473.95
584.24	2605.02
584.44	2498.52
584.63	2777.05
584.82	2686.94
585.02	2615.26
585.21	2629.59
585.41	2693.08
585.60	2574.30
585.79	2813.91
585.99	2775.00
586.18	2672.60
586.37	3200.98
586.57	4945.84
586.76	14817.05
586.96	33771.00
587.15	47879.46
587.34	56507.55
587.54	61056.09
587.73	55372.98
587.93	39151.02
588.12	29814.33
588.31	23969.43
588.51	20999.87
588.70	19410.65
588.89	17432.31
589.09	14812.96
589.28	12613.44
589.47	10303.33
589.67	7917.45
589.86	6303.65
590.06	4571.07
590.25	3903.43
590.44	3356.62
590.64	2908.12
590.83	2750.42
591.02	2818.00
591.22	2527.19
591.41	2602.97
591.60	2635.74
591.80	2779.09
591.99	2432.99
592.18	2449.37
592.38	2588.63
592.57	2488.28
592.76	2533.34
592.96	2420.70
593.15	2525.15
593.34	2682.84
593.54	2406.36
593.73	2629.59
593.92	2596.82
594.12	2637.78
594.31	2549.72
594.50	2650.07
594.70	2699.22
594.89	2846.68
595.08	2408.41
595.28	2559.96
595.47	2869.20
595.66	2734.04
595.86	2424.80
596.05	2496.47
596.24	2502.62
596.43	2772.95
596.63	2586.58
596.82	2559.96
597.01	2562.01
597.21	2754.52
597.40	2547.67
597.59	2531.29
597.79	2459.61
597.98	2619.35
598.17	2496.47
598.36	2557.91
598.56	2686.94
598.75	2500.57
598.94	2535.39
599.14	2555.86
599.33	2426.84
599.52	2641.88
599.71	2613.21
599.91	2537.43
600.10	2580.44
600.29	2496.47
600.48	2519.00
600.68	2594.78
600.87	2619.35
601.06	2490.33
601.26	2506.71
601.45	2531.29
601.64	2396.12
601.83	2648.02
602.03	2389.98
602.22	2346.97
602.41	2645.98
602.60	2809.81
602.80	2559.96
602.99	2572.25
603.18	2461.66
603.37	2508.76
603.57	2469.85
603.76	2615.26
603.95	2701.27
604.14	2432.99
604.34	2396.12
604.53	2398.17
604.72	2572.25
604.91	2650.07
605.10	2568.15
605.30	2310.11
605.49	2756.57
605.68	2596.82
605.87	2457.56
606.07	2408.41
606.26	2555.86
606.45	2572.25
606.64	2541.53
606.84	2439.13
607.03	2498.52
607.22	2656.22
607.41	2424.80
607.60	2465.75
607.80	2621.40
607.99	2510.81
608.18	2506.71
608.37	2531.29
608.56	2424.80
608.76	2691.03
608.95	2777.05
609.14	2471.90
609.33	2691.03
609.52	2785.24
609.72	2588.63
609.91	2660.31
610.10	2545.63
610.29	2680.79
610.48	2600.92
610.68	2523.10
610.87	2508.76
611.06	2693.08
611.25	2396.12
611.44	2633.69
611.63	2385.88
611.83	2727.89
612.02	2301.92
612.21	2582.49
612.40	2260.96
612.59	2320.35
612.79	2371.55
612.98	2580.44
613.17	2713.56
613.36	2510.81
613.55	2684.89
613.74	2594.78
613.93	2668.50
614.13	2713.56
614.32	2764.76
614.51	2605.02
614.70	2551.77
614.89	2478.04
615.08	2643.93
615.28	3033.04
615.47	2406.36
615.66	2637.78
615.85	2486.23
616.04	2688.98
616.23	2559.96
616.42	2439.13
616.62	2412.51
616.81	2592.73
617.00	2514.91
617.19	2486.23
617.38	2445.27
617.57	2533.34
617.76	2607.06
617.95	2547.67
618.15	2531.29
618.34	2637.78
618.53	2432.99
618.72	2645.98
618.91	2635.74
619.10	2519.00
619.29	2469.85
619.48	2549.72
619.68	2408.41
619.87	2490.33
620.06	2310.11
620.25	2508.76
620.44	2398.17
620.63	2447.32
620.82	2478.04
621.01	2553.82
621.20	2449.37
621.39	2480.09
621.59	2588.63
621.78	2496.47
621.97	2523.10
622.16	2539.48
622.35	2523.10
622.54	2619.35
622.73	2498.52
622.92	2295.77
623.11	2645.98
623.30	2424.80
623.49	2602.97
623.68	2404.32
623.88	2621.40
624.07	2406.36
624.26	2441.18
624.45	2504.67
624.64	2445.27
624.83	2494.43
625.02	2408.41
625.21	2424.80
625.40	2512.86
625.59	2744.28
625.78	2465.75
625.97	2617.30
626.16	2764.76
626.35	2676.70
626.54	2566.10
626.74	2686.94
626.93	2535.39
627.12	2484.19
627.31	2572.25
627.50	2488.28
627.69	2613.21
627.88	2412.51
628.07	2445.27
628.26	2246.62
628.45	2500.57
628.64	2449.37
628.83	2435.03
629.02	2318.30
629.21	2506.71
629.40	2506.71
629.59	2488.28
629.78	2432.99
629.97	2521.05
630.16	2547.67
630.35	2519.00
630.54	2441.18
630.73	2435.03
630.92	2418.65
631.11	2346.97
631.30	2572.25
631.49	2596.82
631.68	2445.27
631.87	2445.27
632.06	2420.70
632.25	2795.48
632.44	2576.34
632.63	2486.23
632.82	2519.00
633.01	2500.57
633.20	2584.54
633.39	2541.53
633.58	2367.45
633.77	2588.63
633.96	2605.02
634.15	2541.53
634.34	2531.29
634.53	2572.25
634.72	2410.46
634.91	2316.25
635.10	2486.23
635.29	2594.78
635.48	2496.47
635.67	2310.11
635.86	2281.44
636.05	2674.65
636.24	2553.82
636.43	2512.86
636.62	2508.76
636.81	2232.29
637.00	2441.18
637.19	2533.34
637.38	2498.52
637.57	2469.85
637.76	2584.54
637.95	2629.59
638.14	2498.52
638.33	2598.87
638.52	2547.67
638.71	2414.56
638.89	2408.41
639.08	2871.25
639.27	2695.13
639.46	2750.42
639.65	3082.19
639.84	3164.11
640.03	3256.27
640.22	3143.63
640.41	3112.91
640.60	2850.77
640.79	2787.29
640.98	2688.98
641.17	2789.33
641.36	2754.52
641.55	2703.32
641.74	2478.04
641.92	2412.51
642.11	2420.70
642.30	2502.62
642.49	2387.93
642.68	2473.95
642.87	2539.48
643.06	2441.18
643.25	2340.83
643.44	2375.64
643.63	2529.24
643.82	2592.73
644.00	2392.03
644.19	2506.71
644.38	2387.93
644.57	2590.68
644.76	2512.86
644.95	2447.32
645.14	2584.54
645.33	2482.14
645.52	2512.86
645.71	2361.31
645.89	2406.36
646.08	2449.37
646.27	2412.51
646.46	2699.22
646.65	2318.30
646.84	2510.81
647.03	2326.49
647.22	2490.33
647.40	2461.66
647.59	2480.09
647.78	2260.96
647.97	2410.46
648.16	2351.07
648.35	2650.07
648.54	2607.06
648.73	2447.32
648.91	2586.58
649.10	2416.60
649.29	2432.99
649.48	2480.09
649.67	2578.39
649.86	2541.53
650.05	2521.05
650.23	2707.41
650.42	2594.78
650.61	2785.24
650.80	2693.08
650.99	2820.05
651.18	2664.41
651.36	2641.88
651.55	2437.08
651.74	2586.58
651.93	2480.09
652.12	2473.95
652.31	2523.10
652.49	2480.09
652.68	2498.52
652.87	2682.84
653.06	2465.75
653.25	2652.12
653.44	2500.57
653.62	2670.55
653.81	2422.75
654.00	2355.16
654.19	2648.02
654.38	2807.77
654.56	2559.96
654.75	2488.28
654.94	2611.16
655.13	2471.90
655.32	2432.99
655.51	2537.43
655.69	2488.28
655.88	2652.12
656.07	2396.12
656.26	2457.56
656.45	2346.97
656.63	2471.90
656.82	2469.85
657.01	2576.34
657.20	2457.56
657.38	2617.30
657.57	2422.75
657.76	2310.11
657.95	2580.44
658.14	2404.32
658.32	2553.82
658.51	2353.12
658.70	2486.23
658.89	2490.33
659.08	2408.41
659.26	2678.74
659.45	2396.12
659.64	2586.58
659.83	2482.14
660.01	2832.34
660.20	2539.48
660.39	2621.40
660.58	2220.00
660.76	2453.47
660.95	2344.92
661.14	2596.82
661.33	2353.12
661.51	2410.46
661.70	2430.94
661.89	2514.91
662.08	2441.18
662.26	2342.88
662.45	2400.22
662.64	2756.57
662.83	2523.10
663.01	2379.74
663.20	2394.08
663.39	2686.94
663.58	2455.51
663.76	2449.37
663.95	2570.20
664.14	2418.65
664.32	2467.80
664.51	2381.79
664.70	2314.20
664.89	2592.73
665.07	2338.78
665.26	2508.76
665.45	2316.25
665.64	2541.53
665.82	2422.75
666.01	2551.77
666.20	2326.49
666.38	2643.93
666.57	2672.60
666.76	3831.75
666.95	9512.81
667.13	17655.54
667.32	22519.46
667.51	25874.04
667.69	27459.16
667.88	24514.19
668.07	17432.31
668.25	14008.11
668.44	11978.57
668.63	10426.21
668.81	9076.60
669.00	7960.45
669.19	6973.33
669.38	6133.67
669.56	5273.52
669.75	4333.50
669.94	3778.50
670.12	3104.72
670.31	2922.45
670.50	2768.85
670.68	2680.79
670.87	2674.65
671.06	2488.28
671.24	2545.63
671.43	2746.33
671.62	2609.11
671.80	2461.66
671.99	2529.24
672.18	2523.10
672.36	2695.13
672.55	2557.91
672.74	2473.95
672.92	2498.52
673.11	2572.25
673.29	2316.25
673.48	2584.54
673.67	2506.71
673.85	2596.82
674.04	2424.80
674.23	2455.51
674.41	2684.89
674.60	2351.07
674.79	2371.55
674.97	2318.30
675.16	2553.82
675.34	2543.58
675.53	2346.97
675.72	2584.54
675.90	2695.13
676.09	2432.99
676.28	2506.71
676.46	2258.91
676.65	2639.83
676.83	2398.17
677.02	2432.99
677.21	2465.75
677.39	2469.85
677.58	2398.17
677.77	2449.37
677.95	2387.93
678.14	2500.57
678.32	2494.43
678.51	2430.94
678.70	2697.17
678.88	2465.75
679.07	2553.82
679.25	2504.67
679.44	2484.19
679.63	2353.12
679.81	2445.27
680.00	2639.83
680.18	2527.19
680.37	2719.70
680.55	2506.71
680.74	2353.12
680.93	2293.72
681.11	2469.85
681.30	2510.81
681.48	2510.81
681.67	2406.36
681.85	2443.23
682.04	2340.83
682.23	2619.35
682.41	2506.71
682.60	2424.80
682.78	2506.71
682.97	2310.11
683.15	2502.62
683.34	2545.63
683.53	2629.59
683.71	2351.07
683.90	2541.53
684.08	2691.03
684.27	2494.43
684.45	2586.58
684.64	2588.63
684.82	2535.39
685.01	2537.43
685.19	2465.75
685.38	2654.17
685.57	2441.18
685.75	2342.88
685.94	2471.90
686.12	2346.97
686.31	2379.74
686.49	2719.70
686.68	2256.86
686.86	2562.01
687.05	2465.75
687.23	2596.82
687.42	2396.12
687.60	2299.87
687.79	2596.82
687.97	2654.17
688.16	2611.16
688.34	2574.30
688.53	2367.45
688.71	2533.34
688.90	2584.54
689.08	2529.24
689.27	2260.96
689.45	2648.02
689.64	2535.39
689.82	2496.47
690.01	2478.04
690.19	2559.96
690.38	2506.71
690.56	2568.15
690.75	2353.12
690.93	2410.46
691.12	2365.40
691.30	2482.14
691.49	2467.80
691.67	2496.47
691.86	2672.60
692.04	2424.80
692.23	2457.56
692.41	2553.82
692.60	2629.59
692.78	2584.54
692.97	2519.00
693.15	2586.58
693.34	2670.55
693.52	2596.82
693.71	2502.62
693.89	2447.32
694.08	2340.83
694.26	2467.80
694.44	2621.40
694.63	2590.68
694.81	2381.79
695.00	2404.32
695.18	2619.35
695.37	2813.91
695.55	2478.04
695.74	2482.14
695.92	2510.81
696.10	2611.16
696.29	2363.36
696.47	2385.88
696.66	2398.17
696.84	2400.22
697.03	2406.36
697.21	2678.74
697.40	3686.34
697.58	2654.17
697.76	2396.12
697.95	2400.22
698.13	2328.54
698.32	2398.17
698.50	2508.76
698.68	2533.34
698.87	2504.67
699.05	2711.51
699.24	2549.72
699.42	2394.08
699.61	2564.06
699.79	2439.13
699.97	2531.29
700.16	2322.40
700.34	2377.69
700.53	2504.67
700.71	2725.85
700.89	2555.86
701.08	2398.17
701.26	2516.95
701.45	3014.61
701.63	2402.27
701.81	2367.45
702.00	2344.92
702.18	2449.37
702.37	2514.91
702.55	2797.53
702.73	2709.46
702.92	2504.67
703.10	2836.44
703.28	2768.85
703.47	2453.47
703.65	2693.08
703.84	2609.11
704.02	2445.27
704.20	2781.14
704.39	2449.37
704.57	2453.47
704.75	2605.02
704.94	2605.02
705.12	2478.04
705.30	2879.44
705.49	5562.28
705.67	12658.49
705.86	20487.88
706.04	24159.89
706.22	27305.57
706.41	27741.78
706.59	22408.87
706.77	16238.34
706.96	13791.02
707.14	12265.28
707.32	10465.12
707.51	9275.25
707.69	7511.95
707.87	6238.11
708.06	4960.18
708.24	4077.51
708.42	3350.48
708.61	3317.71
708.79	2670.55
708.97	2635.74
709.16	2645.98
709.34	2576.34
709.52	2541.53
709.71	2553.82
709.89	2570.20
710.07	2351.07
710.26	2357.21
710.44	2535.39
710.62	2566.10
710.80	2451.42
710.99	2559.96
711.17	2605.02
711.35	2418.65
711.54	2430.94
711.72	2555.86
711.90	2523.10
712.09	2529.24
712.27	2336.73
712.45	2463.71
712.63	2463.71
712.82	2445.27
713.00	2430.94
713.18	2480.09
713.37	2570.20
713.55	2570.20
713.73	2559.96
713.91	2521.05
714.10	2330.59
714.28	2533.34
714.46	2535.39
714.65	2535.39
714.83	2531.29
715.01	2514.91
715.19	2521.05
715.38	2398.17
715.56	2510.81
715.74	2383.84
715.92	2363.36
716.11	2596.82
716.29	2330.59
716.47	2455.51
716.65	2445.27
716.84	2357.21
717.02	2588.63
717.20	2310.11
717.38	2392.03
717.57	2521.05
717.75	2467.80
717.93	2422.75
718.11	2502.62
718.30	2338.78
718.48	2443.23
718.66	2650.07
718.84	2609.11
719.03	2510.81
719.21	2371.55
719.39	2658.26
719.57	2588.63
719.75	2539.48
719.94	2394.08
720.12	2453.47
720.30	2457.56
720.48	2586.58
720.67	2418.65
720.85	2375.64
721.03	2437.08
721.21	2394.08
721.39	2582.49
721.58	2594.78
721.76	2525.15
721.94	2553.82
722.12	2482.14
722.30	2762.71
722.49	2396.12
722.67	2416.60
722.85	2478.04
723.03	2301.92
723.21	2478.04
723.40	2426.84
723.58	2586.58
723.76	2582.49
723.94	2670.55
724.12	2555.86
724.30	2699.22
724.49	2621.40
724.67	2414.56
724.85	2557.91
725.03	2295.77
725.21	2627.54
725.40	2672.60
725.58	2424.80
725.76	2662.36
725.94	2562.01
726.12	2392.03
726.30	2439.13
726.49	2424.80
726.67	2449.37
726.85	2627.54
727.03	2889.68
727.21	4241.34
727.39	5734.31
727.57	6741.91
727.76	7163.79
727.94	7722.89
728.12	6911.89
728.30	5605.29
728.48	4880.31
728.66	4517.82
728.84	3993.54
729.03	3620.81
729.21	3260.37
729.39	2928.60
729.57	2674.65
729.75	2648.02
729.93	2613.21
730.11	2437.08
730.30	2498.52
730.48	2467.80
730.66	2613.21
730.84	2596.82
731.02	2494.43
731.20	2430.94
731.38	2478.04
731.56	2461.66
731.74	2306.01
731.93	2559.96
732.11	2512.86
732.29	2379.74
732.47	2596.82
732.65	2562.01
732.83	2656.22
733.01	2527.19
733.19	2383.84
733.37	2557.91
733.56	2459.61
733.74	2310.11
733.92	2672.60
734.10	2482.14
734.28	2576.34
734.46	2346.97
734.64	2482.14
734.82	2447.32
735.00	2494.43
735.18	2400.22
735.36	2523.10
735.54	2492.38
735.73	2406.36
735.91	2502.62
736.09	2519.00
736.27	2494.43
736.45	2506.71
736.63	2187.23
736.81	2400.22
736.99	2611.16
737.17	2596.82
737.35	2334.68
737.53	2469.85
737.71	2404.32
737.89	2623.45
738.07	2359.26
738.25	2328.54
738.43	2365.40
738.61	2410.46
738.80	2303.96
738.98	2297.82
739.16	2406.36
739.34	2367.45
739.52	2752.47
739.70	2469.85
739.88	2611.16
740.06	2510.81
740.24	2260.96
740.42	2666.46
740.60	2244.57
740.78	2422.75
740.96	2273.25
741.14	2430.94
741.32	2521.05
741.50	2400.22
741.68	2682.84
741.86	2686.94
742.04	2385.88
742.22	2340.83
742.40	2369.50
742.58	2564.06
742.76	2324.44
742.94	2545.63
743.12	2265.05
743.30	2473.95
743.48	2523.10
743.66	2396.12
743.84	2514.91
744.02	2457.56
744.20	2514.91
744.38	2373.60
744.56	2359.26
744.74	2697.17
744.92	2600.92
745.10	2609.11
745.28	2488.28
745.46	2641.88
745.64	2443.23
745.82	2531.29
746.00	2398.17
746.18	2562.01
746.36	2346.97
746.54	2445.27
746.72	2471.90
746.90	2432.99
747.08	2580.44
747.26	2412.51
747.44	2619.35
747.62	2555.86
747.80	2549.72
747.98	2613.21
748.15	2412.51
748.33	2723.80
748.51	2525.15
748.69	2568.15
748.87	2459.61
749.05	2480.09
749.23	2523.10
749.41	2400.22
749.59	2398.17
749.77	2547.67
749.95	2396.12
750.13	2365.40
750.31	2510.81
750.49	2506.71
750.67	2508.76
750.85	2588.63
751.03	2469.85
751.20	2740.18
751.38	2551.77
751.56	2416.60
751.74	2521.05
751.92	2539.48
752.10	2365.40
752.28	2584.54
752.46	2392.03
752.64	2498.52
752.82	2451.42
753.00	2596.82
753.18	2443.23
753.35	2469.85
753.53	2463.71
753.71	2461.66
753.89	2549.72
754.07	2555.86
754.25	2562.01
754.43	2602.97
754.61	2306.01
754.79	2502.62
754.97	2553.82
755.14	2592.73
755.32	2371.55
755.50	2521.05
755.68	2516.95
755.86	2406.36
756.04	2451.42
756.22	2289.63
756.40	2512.86
756.57	2729.94
756.75	2379.74
756.93	2559.96
757.11	2627.54
757.29	2351.07
757.47	2346.97
757.65	2361.31
757.82	2306.01
758.00	2275.29
758.18	2387.93
758.36	2357.21
758.54	2619.35
758.72	2275.29
758.90	2494.43
759.07	2488.28
759.25	2398.17
759.43	2484.19
759.61	2336.73
759.79	3487.69
759.97	2623.45
760.15	2488.28
760.32	2375.64
760.50	2557.91
760.68	2613.21
760.86	2441.18
761.04	2582.49
761.22	2564.06
761.39	2549.72
761.57	2516.95
761.75	2441.18
761.93	2568.15
762.11	2486.23
762.28	2465.75
762.46	2338.78
762.64	2547.67
762.82	2371.55
763.00	2441.18
763.18	2666.46
763.35	2297.82
763.53	2545.63
763.71	2447.32
763.89	2457.56
764.07	2486.23
764.24	2506.71
764.42	2570.20
764.60	2463.71
764.78	2572.25
764.96	2568.15
765.13	2596.82
765.31	2406.36
765.49	2551.77
765.67	2338.78
765.84	2371.55
766.02	2457.56
766.20	2334.68
766.38	2527.19
766.56	2537.43
766.73	2541.53
766.91	2404.32
767.09	2514.91
767.27	2519.00
767.44	2416.60
767.62	2488.28
767.80	2424.80
767.98	2410.46
768.15	2322.40
768.33	2609.11
768.51	2660.31
768.69	2508.76
768.87	2494.43
769.04	2539.48
769.22	2805.72
769.40	2564.06
769.58	2711.51
769.75	2512.86
769.93	2631.64
770.11	2424.80
770.28	2361.31
770.46	2539.48
770.64	2490.33
770.82	2492.38
770.99	2404.32
771.17	2506.71
771.35	2467.80
771.53	2412.51
771.70	2392.03
771.88	2572.25
772.06	2480.09
772.23	2404.32
772.41	2510.81
772.59	2492.38
772.77	2392.03
772.94	2457.56
773.12	2424.80
773.30	2400.22
773.47	2463.71
773.65	2455.51
773.83	2555.86
774.01	2443.23
774.18	2316.25
774.36	2463.71
774.54	2246.62
774.71	2445.27
774.89	2316.25
775.07	2383.84
775.24	2428.89
775.42	2404.32
775.60	2715.61
775.78	2400.22
775.95	2299.87
776.13	2310.11
776.31	2240.48
776.48	2471.90
776.66	2615.26
776.84	2351.07
777.01	2359.26
777.19	2381.79
777.37	2310.11
777.54	2521.05
777.72	2766.81
777.90	2457.56
778.07	2363.36
778.25	2889.68
778.43	2508.76
778.60	2412.51
778.78	2514.91
778.96	2543.58
779.13	2359.26
779.31	2432.99
779.49	2406.36
779.66	2494.43
779.84	2432.99
780.01	2445.27
780.19	2396.12
780.37	2641.88
780.54	2611.16
780.72	2400.22
780.90	2404.32
781.07	2420.70
781.25	2353.12
781.43	2580.44
781.60	2353.12
781.78	2666.46
781.95	2531.29
782.13	2387.93
782.31	2475.99
782.48	2316.25
782.66	2465.75
782.83	2707.41
783.01	2498.52
783.19	2576.34
783.36	2430.94
783.54	2408.41
783.72	2576.34
783.89	2430.94
784.07	2449.37
784.24	2420.70
784.42	2523.10
784.60	2510.81
784.77	2535.39
784.95	2236.38
785.12	2359.26
785.30	2500.57
785.47	2375.64
785.65	2291.68
785.83	2383.84
786.00	2383.84
786.18	2430.94
786.35	2342.88
786.53	2371.55
786.71	2506.71
786.88	2572.25
787.06	2496.47
787.23	2420.70
787.41	2293.72
787.58	2392.03
787.76	2400.22
787.94	2447.32
788.11	2482.14
788.29	2328.54
788.46	2383.84
788.64	2303.96
788.81	2496.47
788.99	2342.88
789.16	2342.88
789.34	2457.56
789.52	2404.32
789.69	2475.99
789.87	2238.43
790.04	2437.08
790.22	2432.99
790.39	2750.42
790.57	2371.55
790.74	2332.64
790.92	2609.11
791.09	2326.49
791.27	2529.24
791.44	2611.16
791.62	2455.51
791.79	2555.86
791.97	2486.23
792.15	2760.66
792.32	2609.11
792.50	2500.57
792.67	2623.45
792.85	2525.15
793.02	2543.58
793.20	2402.27
793.37	2318.30
793.55	2398.17
793.72	2398.17
793.90	2545.63
794.07	2412.51
794.25	2289.63
794.42	2514.91
794.60	2469.85
794.77	2502.62
794.95	2580.44
795.12	2564.06
795.30	2461.66
795.47	2346.97
795.65	2842.58
795.82	2551.77
796.00	2365.40
796.17	2482.14
796.34	2338.78
796.52	2564.06
796.69	2531.29
796.87	2547.67
797.04	2508.76
797.22	2529.24
797.39	2514.91
797.57	2529.24
797.74	2430.94
797.92	2482.14
798.09	2435.03
798.27	2576.34
798.44	2387.93
798.62	2387.93
798.79	2482.14
798.96	2496.47
799.14	2430.94
799.31	2785.24
799.49	2482.14
799.66	2432.99
799.84	2510.81
800.01	2310.11
800.19	2469.85
800.36	2308.06
800.53	2422.75
800.71	2568.15
800.88	2658.26
801.06	2439.13
801.23	2445.27
801.41	2432.99
801.58	2449.37
801.75	2287.58
801.93	2527.19
802.10	2564.06
802.28	2465.75
802.45	2398.17
802.63	2564.06
802.80	2666.46
802.97	2516.95
803.15	2408.41
803.32	2406.36
803.50	2310.11
803.67	2486.23
803.84	2342.88
804.02	2473.95
804.19	2408.41
804.37	2308.06
804.54	2281.44
804.71	2424.80
804.89	2510.81
805.06	2392.03
805.24	2258.91
805.41	2293.72
805.58	2367.45
805.76	2768.85
805.93	2488.28
806.10	2611.16
806.28	2545.63
806.45	2418.65
806.63	2533.34
806.80	2451.42
806.97	2498.52
807.15	2490.33
807.32	2519.00
807.49	2424.80
807.67	2400.22
807.84	2496.47
808.01	2273.25
808.19	2654.17
808.36	2785.24
808.54	2408.41
808.71	2383.84
808.88	2478.04
809.06	2645.98
809.23	2672.60
809.40	2400.22
809.58	2562.01
809.75	2471.90
809.92	2363.36
810.10	2660.31
810.27	2480.09
810.44	2392.03
810.62	2523.10
810.79	2498.52
810.96	2392.03
811.14	2449.37
811.31	2455.51
811.48	2539.48
811.66	2453.47
811.83	2602.97
812.00	2580.44
812.18	2508.76
812.35	2615.26
812.52	2465.75
812.69	2392.03
812.87	2400.22
813.04	2355.16
813.21	2441.18
813.39	2406.36
813.56	2265.05
813.73	2600.92
813.91	2310.11
814.08	2469.85
814.25	2490.33
814.42	2269.15
814.60	2383.84
814.77	2422.75
814.94	2420.70
815.12	2482.14
815.29	2596.82
815.46	2400.22
815.63	2449.37
815.81	2412.51
815.98	2357.21
816.15	2441.18
816.33	2457.56
816.50	2408.41
816.67	2408.41
816.84	2424.80
817.02	2322.40
817.19	2381.79
817.36	2539.48
817.53	2559.96
817.71	2326.49
817.88	2574.30
818.05	2432.99
818.22	2432.99
818.40	2613.21
818.57	2441.18
818.74	2570.20
818.91	2428.89
819.09	2545.63
819.26	2504.67
819.43	2412.51
819.60	2375.64
819.78	2482.14
819.95	2523.10
820.12	2379.74
820.29	2547.67
820.47	2607.06
820.64	2414.56
820.81	2332.64
820.98	2437.08
821.15	2486.23
821.33	2525.15
821.50	2310.11
821.67	2568.15
821.84	2420.70
822.02	2449.37
822.19	2508.76
822.36	2367.45
822.53	2351.07
822.70	2342.88
822.88	2443.23
823.05	2693.08
823.22	2465.75
823.39	2445.27
823.56	2496.47
823.74	2684.89
823.91	2383.84
824.08	2310.11
824.25	2392.03
824.42	2686.94
824.60	2365.40
824.77	2498.52
824.94	2461.66
825.11	2455.51
825.28	2318.30
825.45	2490.33
825.63	2555.86
825.80	2402.27
825.97	2424.80
826.14	2465.75
826.31	2236.38
826.48	2488.28
826.66	2398.17
826.83	2408.41
827.00	2461.66
827.17	2363.36
827.34	2441.18
827.51	2387.93
827.69	2441.18
827.86	2340.83
828.03	2432.99
828.20	2486.23
828.37	2357.21
828.54	2615.26
828.71	2457.56
828.89	2519.00
829.06	2443.23
829.23	2652.12
829.40	2400.22
829.57	2392.03
829.74	2504.67
829.91	2408.41
830.09	2428.89
830.26	2541.53
830.43	2645.98
830.60	2439.13
830.77	2516.95
830.94	2596.82
831.11	2572.25
831.28	2367.45
831.46	2547.67
831.63	2400.22
831.80	2670.55
831.97	2375.64
832.14	2453.47
832.31	2447.32
832.48	2514.91
832.65	2633.69
832.82	2461.66
832.99	2461.66
833.17	2400.22
833.34	2629.59
833.51	2496.47
833.68	2295.77
833.85	2619.35
834.02	2359.26
834.19	2334.68
834.36	2416.60
834.53	2523.10
834.70	2545.63
834.87	2553.82
835.04	2357.21
835.22	2443.23
835.39	2486.23
835.56	2316.25
835.73	2322.40
835.90	2643.93
836.07	2367.45
836.24	2480.09
836.41	2330.59
836.58	2365.40
836.75	2502.62
836.92	2398.17
837.09	2310.11
837.26	2596.82
837.43	2525.15
837.60	2424.80
837.77	2369.50
837.94	2607.06
838.12	2652.12
838.29	2406.36
838.46	2293.72
838.63	2340.83
838.80	2699.22
838.97	2383.84
839.14	2445.27
839.31	2533.34
839.48	2547.67
839.65	2383.84
839.82	2453.47
839.99	2437.08
840.16	2504.67
840.33	2389.98
840.50	2381.79
840.67	2351.07
840.84	2174.94
841.01	2383.84
841.18	2379.74
841.35	2490.33
841.52	2478.04
841.69	2609.11
841.86	2461.66
842.03	2437.08
842.20	2611.16
842.37	2301.92
842.54	2355.16
842.71	2439.13
842.88	2322.40
843.05	2500.57
843.22	2383.84
843.39	2600.92
843.56	2375.64
843.73	2351.07
843.90	2410.46
844.07	2414.56
844.24	2600.92
844.41	2432.99
844.58	2363.36
844.75	2465.75
844.92	2566.10
845.09	2330.59
845.26	2357.21
845.43	2531.29
845.60	2383.84
845.77	2441.18
845.94	2402.27
846.10	2625.50
846.27	2273.25
846.44	2224.09
846.61	2398.17
846.78	2529.24
846.95	2615.26
847.12	2299.87
847.29	2375.64
847.46	2383.84
847.63	2523.10
847.80	2387.93
847.97	2322.40
848.14	2699.22
848.31	2416.60
848.48	2246.62
848.65	2437.08
848.82	2375.64
848.98	2772.95
849.15	2521.05
849.32	2473.95
849.49	2584.54
849.66	2426.84
849.83	2316.25
850.00	2361.31
850.17	2441.18
850.34	2432.99
850.51	2326.49
850.68	2402.27
850.85	2760.66
851.01	2586.58
851.18	2422.75
851.35	2344.92
851.52	2531.29
851.69	2664.41
851.86	2371.55
852.03	2396.12
852.20	2629.59
852.37	2557.91
852.53	2269.15
852.70	2316.25
852.87	2461.66
853.04	2533.34
853.21	2336.73
853.38	2598.87
853.55	2578.39
853.72	2613.21
853.89	2377.69
854.05	2357.21
854.22	2465.75
854.39	2465.75
854.56	2418.65
854.73	2500.57
854.90	2351.07
855.07	2422.75
855.23	2373.60
855.40	2355.16
855.57	2441.18
855.74	2258.91
855.91	2609.11
856.08	2289.63
856.25	2297.82
856.41	2422.75
856.58	2346.97
856.75	2359.26
856.92	2404.32
857.09	2559.96
857.26	2252.77
857.42	2414.56
857.59	2484.19
857.76	2453.47
857.93	2469.85
858.10	2377.69
858.27	2416.60
858.43	2437.08
858.60	2379.74
858.77	2242.53
858.94	2400.22
859.11	2588.63
859.27	2373.60
859.44	2332.64
859.61	2752.47
859.78	2453.47
859.95	2398.17
860.12	2400.22
860.28	2721.75
860.45	2688.98
860.62	2389.98
860.79	2437.08
860.95	2447.32
861.12	2424.80
861.29	2383.84
861.46	2281.44
861.63	2482.14
861.79	2480.09
861.96	2232.29
862.13	2365.40
862.30	2555.86
862.47	2342.88
862.63	2349.02
862.80	2525.15
862.97	2572.25
863.14	2455.51
863.30	2432.99
863.47	2291.68
863.64	2607.06
863.81	2490.33
863.97	2373.60
864.14	2432.99
864.31	2389.98
864.48	2510.81
864.65	2334.68
864.81	2441.18
864.98	2553.82
865.15	2596.82
865.32	2535.39
865.48	2533.34
865.65	2736.09
865.82	2349.02
865.98	2459.61
866.15	2494.43
866.32	2463.71
866.49	2394.08
866.65	2496.47
866.82	2301.92
866.99	2553.82
867.16	2416.60
867.32	2375.64
867.49	2301.92
867.66	2430.94
867.83	2400.22
867.99	2269.15
868.16	2373.60
868.33	2334.68
868.49	2420.70
868.66	2334.68
868.83	2525.15
868.99	2457.56
869.16	2541.53
869.33	2475.99
869.50	2488.28
869.66	2455.51
869.83	2445.27
870.00	2236.38
870.16	2404.32
870.33	2432.99
870.50	2570.20
870.66	2422.75
870.83	2447.32
871.00	2383.84
871.17	2502.62
871.33	2437.08
871.50	2324.44
871.67	2455.51
871.83	2408.41
872.00	2588.63
872.17	2426.84
872.33	2705.37
872.50	2607.06
872.67	2416.60
872.83	2357.21
873.00	2523.10
873.17	2428.89
873.33	2461.66
873.50	2510.81
873.67	2279.39
873.83	2398.17
874.00	2396.12
874.16	2516.95
874.33	2510.81
874.50	2334.68
874.66	2375.64
874.83	2445.27
875.00	2547.67
875.16	2572.25
875.33	2463.71
875.50	2248.67
875.66	2490.33
875.83	2547.67
875.99	2457.56
876.16	2473.95
876.33	2404.32
876.49	2482.14
876.66	2469.85
876.83	2392.03
876.99	2338.78
877.16	2453.47
877.32	2357.21
877.49	2351.07
877.66	2494.43
877.82	2686.94
877.99	2414.56
878.15	2488.28
878.32	2519.00
878.49	2510.81
878.65	2342.88
878.82	2551.77
878.98	2424.80
879.15	2551.77
879.32	2461.66
879.48	2510.81
879.65	2402.27
879.81	2519.00
879.98	2414.56
880.15	2408.41
880.31	2504.67
880.48	2330.59
880.64	2486.23
880.81	2457.56
880.97	2627.54
881.14	2656.22
881.31	2369.50
881.47	2617.30
881.64	2441.18
881.80	2373.60
881.97	2467.80
882.13	2447.32
882.30	2328.54
882.47	2426.84
882.63	2441.18
882.80	2328.54
882.96	2392.03
883.13	2627.54
883.29	2349.02
883.46	2445.27
883.62	2719.70
883.79	2478.04
883.95	2498.52
884.12	2338.78
884.29	2572.25
884.45	2414.56
884.62	2469.85
884.78	2340.83
884.95	2572.25
885.11	2416.60
885.28	2482.14
885.44	2400.22
885.61	2602.97
885.77	2617.30
885.94	2478.04
886.10	2392.03
886.27	2510.81
886.43	2648.02
886.60	2508.76
886.76	2375.64
886.93	2346.97
887.09	2465.75
887.26	2211.81
887.42	2459.61
887.59	2627.54
887.75	2756.57
887.92	2590.68
888.08	2463.71
888.25	2768.85
888.41	2650.07
888.58	2426.84
888.74	2367.45
888.91	2389.98
>>>>>End Processed Spectral Data<<<<<
