SpectraSuite Data File
++++++++++++++++++++++++++++++++++++
Date: Thu May 05 14:41:55 CEST 2016
User: root
Dark Spectrum Present: No
Reference Spectrum Present: No
Number of Sampled Component Spectra: 1
Spectrometers: USB4C02835
Integration Time (usec): 100000 (USB4C02835)
Spectra Averaged: 1 (USB4C02835)
Boxcar Smoothing: 0 (USB4C02835)
Correct for Electrical Dark: No (USB4C02835)
Strobe/Lamp Enabled: No (USB4C02835)
Correct for Detector Non-linearity: No (USB4C02835)
Correct for Stray Light: No (USB4C02835)
Number of Pixels in Processed Spectrum: 3648
>>>>>Begin Processed Spectral Data<<<<<
177.47	1935.33
177.69	1935.33
177.91	1935.33
178.13	1920.99
178.36	1904.61
178.58	2428.89
178.80	2588.63
179.02	2312.16
179.24	2359.26
179.46	2361.31
179.68	2363.36
179.90	2465.75
180.13	2482.14
180.35	2172.89
180.57	2353.12
180.79	2490.33
181.01	2449.37
181.23	2439.13
181.45	2439.13
181.67	2553.82
181.90	2576.34
182.12	2277.34
182.34	2220.00
182.56	2572.25
182.78	2566.10
183.00	2340.83
183.22	2369.50
183.44	2260.96
183.66	2842.58
183.89	2453.47
184.11	2379.74
184.33	2533.34
184.55	2686.94
184.77	2437.08
184.99	2422.75
185.21	2383.84
185.43	2772.95
185.65	2363.36
185.87	2375.64
186.10	2811.86
186.32	2799.57
186.54	2465.75
186.76	2310.11
186.98	2539.48
187.20	2459.61
187.42	2344.92
187.64	2373.60
187.86	2564.06
188.08	2547.67
188.30	2310.11
188.52	2416.60
188.75	2678.74
188.97	2645.98
189.19	2318.30
189.41	2369.50
189.63	2502.62
189.85	2435.03
190.07	2299.87
190.29	2226.14
190.51	2488.28
190.73	2285.53
190.95	2408.41
191.17	2385.88
191.39	2291.68
191.61	2529.24
191.84	2379.74
192.06	2414.56
192.28	2306.01
192.50	2842.58
192.72	2414.56
192.94	2375.64
193.16	2613.21
193.38	2523.10
193.60	2267.10
193.82	2449.37
194.04	2559.96
194.26	2572.25
194.48	2389.98
194.70	2373.60
194.92	2373.60
195.14	2588.63
195.36	2416.60
195.58	2447.32
195.80	2430.94
196.02	2392.03
196.24	2318.30
196.46	2449.37
196.69	2402.27
196.91	2758.61
197.13	2338.78
197.35	2359.26
197.57	2650.07
197.79	2576.34
198.01	2396.12
198.23	2449.37
198.45	2523.10
198.67	2326.49
198.89	2252.77
199.11	2424.80
199.33	2318.30
199.55	2199.52
199.77	2324.44
199.99	2473.95
200.21	2424.80
200.43	2584.54
200.65	2220.00
200.87	2224.09
201.09	2482.14
201.31	2453.47
201.53	2400.22
201.75	2375.64
201.97	2492.38
202.19	2512.86
202.41	2486.23
202.63	2471.90
202.85	2543.58
203.07	2590.68
203.29	2383.84
203.51	2217.95
203.73	2342.88
203.95	2738.13
204.17	2408.41
204.39	2398.17
204.61	2453.47
204.83	2473.95
205.05	2428.89
205.27	2424.80
205.49	2756.57
205.71	2428.89
205.93	2252.77
206.15	2283.49
206.37	2545.63
206.59	2441.18
206.81	2236.38
207.03	2306.01
207.25	2439.13
207.47	2562.01
207.69	2308.06
207.91	2535.39
208.13	2596.82
208.34	2396.12
208.56	2285.53
208.78	2439.13
209.00	2506.71
209.22	2387.93
209.44	2383.84
209.66	2285.53
209.88	2498.52
210.10	2381.79
210.32	2330.59
210.54	2514.91
210.76	2467.80
210.98	2641.88
211.20	2166.75
211.42	2473.95
211.64	2613.21
211.86	2529.24
212.08	2400.22
212.30	2363.36
212.52	2490.33
212.74	2475.99
212.96	2475.99
213.17	2383.84
213.39	2555.86
213.61	2691.03
213.83	2316.25
214.05	2359.26
214.27	2611.16
214.49	2392.03
214.71	2314.20
214.93	2478.04
215.15	2574.30
215.37	2668.50
215.59	2263.01
215.81	2396.12
216.03	2570.20
216.24	2428.89
216.46	2318.30
216.68	2359.26
216.90	2570.20
217.12	2619.35
217.34	2277.34
217.56	2457.56
217.78	2650.07
218.00	2578.39
218.22	2369.50
218.44	2437.08
218.66	2480.09
218.87	2629.59
219.09	2338.78
219.31	2449.37
219.53	2504.67
219.75	2451.42
219.97	2316.25
220.19	2373.60
220.41	2439.13
220.63	2686.94
220.85	2351.07
221.06	2353.12
221.28	2717.65
221.50	2537.43
221.72	2379.74
221.94	2310.11
222.16	2519.00
222.38	2506.71
222.60	2361.31
222.82	2281.44
223.03	2555.86
223.25	2408.41
223.47	2381.79
223.69	2531.29
223.91	2596.82
224.13	2521.05
224.35	2291.68
224.57	2504.67
224.78	2602.97
225.00	2326.49
225.22	2367.45
225.44	2371.55
225.66	2592.73
225.88	2461.66
226.10	2408.41
226.32	2375.64
226.53	2693.08
226.75	2447.32
226.97	2449.37
227.19	2342.88
227.41	2344.92
227.63	2498.52
227.85	2199.52
228.06	2344.92
228.28	2545.63
228.50	2523.10
228.72	2285.53
228.94	2346.97
229.16	2256.86
229.37	2408.41
229.59	2297.82
229.81	2496.47
230.03	2359.26
230.25	2371.55
230.47	2228.19
230.69	2289.63
230.90	2596.82
231.12	2301.92
231.34	2478.04
231.56	2412.51
231.78	2351.07
232.00	2537.43
232.21	2363.36
232.43	2367.45
232.65	2199.52
232.87	2574.30
233.09	2281.44
233.30	2324.44
233.52	2605.02
233.74	2449.37
233.96	2318.30
234.18	2367.45
234.40	2514.91
234.61	2795.48
234.83	2211.81
235.05	2308.06
235.27	2815.96
235.49	2619.35
235.70	2349.02
235.92	2400.22
236.14	2553.82
236.36	2783.19
236.58	2220.00
236.79	2373.60
237.01	2490.33
237.23	2502.62
237.45	2535.39
237.67	2271.20
237.88	2572.25
238.10	2605.02
238.32	2283.49
238.54	2269.15
238.76	2494.43
238.97	2355.16
239.19	2281.44
239.41	2467.80
239.63	2662.36
239.85	2400.22
240.06	2332.64
240.28	2359.26
240.50	2617.30
240.72	2387.93
240.93	2342.88
241.15	2443.23
241.37	2480.09
241.59	2656.22
241.81	2373.60
242.02	2406.36
242.24	2551.77
242.46	2592.73
242.68	2244.57
242.89	2306.01
243.11	2596.82
243.33	2412.51
243.55	2377.69
243.76	2375.64
243.98	2381.79
244.20	2467.80
244.42	2342.88
244.64	2383.84
244.85	2306.01
245.07	2361.31
245.29	2342.88
245.51	2379.74
245.72	2541.53
245.94	2578.39
246.16	2404.32
246.38	2363.36
246.59	2498.52
246.81	2449.37
247.03	2322.40
247.24	2334.68
247.46	2418.65
247.68	2492.38
247.90	2277.34
248.11	2293.72
248.33	2551.77
248.55	2611.16
248.77	2357.21
248.98	2416.60
249.20	2715.61
249.42	2539.48
249.64	2383.84
249.85	2346.97
250.07	2494.43
250.29	2547.67
250.50	2365.40
250.72	2242.53
250.94	2547.67
251.16	2727.89
251.37	2392.03
251.59	2361.31
251.81	2500.57
252.02	2725.85
252.24	2363.36
252.46	2551.77
252.68	2441.18
252.89	2432.99
253.11	2244.57
253.33	2502.62
253.54	2635.74
253.76	2316.25
253.98	2328.54
254.20	2365.40
254.41	2334.68
254.63	2539.48
254.85	2217.95
255.06	2414.56
255.28	2541.53
255.50	2400.22
255.71	2248.67
255.93	2236.38
256.15	2500.57
256.36	2512.86
256.58	2318.30
256.80	2385.88
257.02	2459.61
257.23	2453.47
257.45	2383.84
257.67	2435.03
257.88	2430.94
258.10	2541.53
258.32	2308.06
258.53	2400.22
258.75	2697.17
258.97	2381.79
259.18	2342.88
259.40	2301.92
259.62	2674.65
259.83	2721.75
260.05	2328.54
260.27	2834.39
260.48	2611.16
260.70	2353.12
260.92	2342.88
261.13	2310.11
261.35	2496.47
261.57	2553.82
261.78	2289.63
262.00	2279.39
262.22	2598.87
262.43	2373.60
262.65	2338.78
262.86	2394.08
263.08	2760.66
263.30	2545.63
263.51	2269.15
263.73	2310.11
263.95	2580.44
264.16	2277.34
264.38	2318.30
264.60	2351.07
264.81	2449.37
265.03	2588.63
265.25	2631.64
265.46	2318.30
265.68	2654.17
265.89	2539.48
266.11	2226.14
266.33	2361.31
266.54	2627.54
266.76	2557.91
266.98	2420.70
267.19	2496.47
267.41	2611.16
267.62	2516.95
267.84	2238.43
268.06	2412.51
268.27	2531.29
268.49	2611.16
268.70	2404.32
268.92	2387.93
269.14	2371.55
269.35	2308.06
269.57	2322.40
269.79	2424.80
270.00	2430.94
270.22	2715.61
270.43	2291.68
270.65	2234.33
270.87	2516.95
271.08	2539.48
271.30	2412.51
271.51	2346.97
271.73	2568.15
271.95	2566.10
272.16	2387.93
272.38	2418.65
272.59	2398.17
272.81	2557.91
273.02	2379.74
273.24	2328.54
273.46	2633.69
273.67	2330.59
273.89	2281.44
274.10	2291.68
274.32	2568.15
274.54	2582.49
274.75	2504.67
274.97	2406.36
275.18	2559.96
275.40	2480.09
275.61	2455.51
275.83	2484.19
276.05	2371.55
276.26	2541.53
276.48	2424.80
276.69	2332.64
276.91	2412.51
277.12	2586.58
277.34	2531.29
277.55	2557.91
277.77	2539.48
277.99	2494.43
278.20	2383.84
278.42	2322.40
278.63	2439.13
278.85	2473.95
279.06	2338.78
279.28	2519.00
279.49	2600.92
279.71	2611.16
279.93	2435.03
280.14	2406.36
280.36	2416.60
280.57	2656.22
280.79	2580.44
281.00	2295.77
281.22	2408.41
281.43	2641.88
281.65	2220.00
281.86	2351.07
282.08	2521.05
282.29	2748.37
282.51	2301.92
282.73	2385.88
282.94	2228.19
283.16	2611.16
283.37	2600.92
283.59	2428.89
283.80	2580.44
284.02	2506.71
284.23	2488.28
284.45	2406.36
284.66	2322.40
284.88	2383.84
285.09	2420.70
285.31	2449.37
285.52	2494.43
285.74	2346.97
285.95	2531.29
286.17	2469.85
286.38	2594.78
286.60	2412.51
286.81	2410.46
287.03	2383.84
287.24	2488.28
287.46	2545.63
287.67	2465.75
287.89	2637.78
288.10	2449.37
288.32	2504.67
288.53	2566.10
288.75	2449.37
288.96	2602.97
289.18	2422.75
289.39	2400.22
289.61	2502.62
289.82	2684.89
290.04	2682.84
290.25	2312.16
290.47	2500.57
290.68	2447.32
290.90	2584.54
291.11	2224.09
291.33	2430.94
291.54	2480.09
291.76	2377.69
291.97	2486.23
292.18	2467.80
292.40	2410.46
292.61	2494.43
292.83	2688.98
293.04	2453.47
293.26	2600.92
293.47	2459.61
293.69	2334.68
293.90	2346.97
294.12	2645.98
294.33	2500.57
294.55	2457.56
294.76	2543.58
294.97	2584.54
295.19	2703.32
295.40	2381.79
295.62	2441.18
295.83	2605.02
296.05	2445.27
296.26	2512.86
296.48	2422.75
296.69	2531.29
296.90	2469.85
297.12	2469.85
297.33	2613.21
297.55	2416.60
297.76	2551.77
297.98	2506.71
298.19	2512.86
298.41	2502.62
298.62	2392.03
298.83	2553.82
299.05	2449.37
299.26	2432.99
299.48	2392.03
299.69	2531.29
299.90	2406.36
300.12	2359.26
300.33	2576.34
300.55	2441.18
300.76	2400.22
300.98	2392.03
301.19	2613.21
301.40	2408.41
301.62	2443.23
301.83	2514.91
302.05	2490.33
302.26	2455.51
302.47	2443.23
302.69	2404.32
302.90	2422.75
303.12	2232.29
303.33	2598.87
303.54	2791.38
303.76	2445.27
303.97	2432.99
304.19	2539.48
304.40	2351.07
304.61	2580.44
304.83	2598.87
305.04	2541.53
305.26	2590.68
305.47	2457.56
305.68	2490.33
305.90	2258.91
306.11	2674.65
306.33	2424.80
306.54	2332.64
306.75	2338.78
306.97	2361.31
307.18	2389.98
307.39	2396.12
307.61	2439.13
307.82	2392.03
308.04	2539.48
308.25	2295.77
308.46	2490.33
308.68	2473.95
308.89	2455.51
309.10	2578.39
309.32	2539.48
309.53	2428.89
309.74	2580.44
309.96	2422.75
310.17	2475.99
310.39	2383.84
310.60	2516.95
310.81	2453.47
311.03	2330.59
311.24	2602.97
311.45	2523.10
311.67	2588.63
311.88	2426.84
312.09	2492.38
312.31	2396.12
312.52	2457.56
312.73	2418.65
312.95	2285.53
313.16	2375.64
313.37	2559.96
313.59	2510.81
313.80	2588.63
314.01	2707.41
314.23	2389.98
314.44	2330.59
314.65	2355.16
314.87	2504.67
315.08	2404.32
315.29	2351.07
315.51	2344.92
315.72	2332.64
315.93	2527.19
316.15	2531.29
316.36	2439.13
316.57	2471.90
316.79	2514.91
317.00	2453.47
317.21	2449.37
317.43	2441.18
317.64	2471.90
317.85	2371.55
318.07	2349.02
318.28	2494.43
318.49	2545.63
318.70	2725.85
318.92	2697.17
319.13	2641.88
319.34	2641.88
319.56	2514.91
319.77	2656.22
319.98	2662.36
320.20	2613.21
320.41	2496.47
320.62	2555.86
320.83	2375.64
321.05	2559.96
321.26	2432.99
321.47	2504.67
321.69	2619.35
321.90	2273.25
322.11	2269.15
322.32	2594.78
322.54	2697.17
322.75	2392.03
322.96	2887.64
323.18	2314.20
323.39	2301.92
323.60	2406.36
323.81	2598.87
324.03	2416.60
324.24	2443.23
324.45	2463.71
324.66	2418.65
324.88	2629.59
325.09	2637.78
325.30	2410.46
325.52	2447.32
325.73	2596.82
325.94	2338.78
326.15	2291.68
326.37	2326.49
326.58	2613.21
326.79	2695.13
327.00	2428.89
327.22	2430.94
327.43	2461.66
327.64	2381.79
327.85	2432.99
328.07	2443.23
328.28	2693.08
328.49	2519.00
328.70	2414.56
328.92	2416.60
329.13	2461.66
329.34	2527.19
329.55	2564.06
329.76	2512.86
329.98	2496.47
330.19	2631.64
330.40	2465.75
330.61	2482.14
330.83	2586.58
331.04	2357.21
331.25	2488.28
331.46	2389.98
331.68	2430.94
331.89	2551.77
332.10	2430.94
332.31	2318.30
332.52	2523.10
332.74	2605.02
332.95	2330.59
333.16	2420.70
333.37	2578.39
333.58	2424.80
333.80	2420.70
334.01	2359.26
334.22	2449.37
334.43	2344.92
334.64	2351.07
334.86	2328.54
335.07	2402.27
335.28	2682.84
335.49	2318.30
335.70	2514.91
335.92	2668.50
336.13	2738.13
336.34	2490.33
336.55	2430.94
336.76	2500.57
336.98	2224.09
337.19	2457.56
337.40	2584.54
337.61	2803.67
337.82	2420.70
338.04	2473.95
338.25	2299.87
338.46	2490.33
338.67	2432.99
338.88	2381.79
339.09	2291.68
339.31	2412.51
339.52	2383.84
339.73	2324.44
339.94	2478.04
340.15	2674.65
340.36	2406.36
340.58	2414.56
340.79	2342.88
341.00	2529.24
341.21	2361.31
341.42	2600.92
341.63	2418.65
341.85	2584.54
342.06	2539.48
342.27	2375.64
342.48	2582.49
342.69	2340.83
342.90	2521.05
343.12	2572.25
343.33	2482.14
343.54	2605.02
343.75	2680.79
343.96	2373.60
344.17	2330.59
344.38	2342.88
344.60	2375.64
344.81	2340.83
345.02	2432.99
345.23	2637.78
345.44	2832.34
345.65	2535.39
345.86	2543.58
346.07	2502.62
346.29	2428.89
346.50	2545.63
346.71	2459.61
346.92	2600.92
347.13	2721.75
347.34	2471.90
347.55	2455.51
347.76	2480.09
347.98	2357.21
348.19	2451.42
348.40	2605.02
348.61	2488.28
348.82	2682.84
349.03	2519.00
349.24	2367.45
349.45	2777.05
349.66	2213.85
349.88	2459.61
350.09	2361.31
350.30	2584.54
350.51	2643.93
350.72	2506.71
350.93	2537.43
351.14	2346.97
351.35	2516.95
351.56	2426.84
351.77	2502.62
351.99	2514.91
352.20	2662.36
352.41	2572.25
352.62	2207.71
352.83	2457.56
353.04	2539.48
353.25	2404.32
353.46	2400.22
353.67	2596.82
353.88	2228.19
354.09	2420.70
354.30	2408.41
354.52	2600.92
354.73	2441.18
354.94	2363.36
355.15	2412.51
355.36	2674.65
355.57	2455.51
355.78	2461.66
355.99	2377.69
356.20	2432.99
356.41	2658.26
356.62	2473.95
356.83	2457.56
357.04	2662.36
357.25	2306.01
357.46	2359.26
357.68	2322.40
357.89	2488.28
358.10	2529.24
358.31	2455.51
358.52	2432.99
358.73	2392.03
358.94	2332.64
359.15	2375.64
359.36	2490.33
359.57	2471.90
359.78	2451.42
359.99	2551.77
360.20	2357.21
360.41	2486.23
360.62	2635.74
360.83	2459.61
361.04	2525.15
361.25	2502.62
361.46	2709.46
361.67	2506.71
361.88	2465.75
362.09	2600.92
362.30	2572.25
362.51	2344.92
362.72	2482.14
362.93	2582.49
363.14	2531.29
363.35	2482.14
363.56	2377.69
363.78	2568.15
363.99	2670.55
364.20	2357.21
364.41	2486.23
364.62	2684.89
364.83	2553.82
365.04	2457.56
365.25	2385.88
365.46	2695.13
365.67	2365.40
365.88	2424.80
366.09	2375.64
366.30	2494.43
366.51	2453.47
366.72	2351.07
366.93	2471.90
367.14	2412.51
367.35	2666.46
367.56	2457.56
367.77	2570.20
367.98	2498.52
368.18	2539.48
368.39	2514.91
368.60	2357.21
368.81	2533.34
369.02	2521.05
369.23	2432.99
369.44	2281.44
369.65	2410.46
369.86	2533.34
370.07	2494.43
370.28	2340.83
370.49	2498.52
370.70	2660.31
370.91	2379.74
371.12	2330.59
371.33	2619.35
371.54	2371.55
371.75	2605.02
371.96	2205.66
372.17	2504.67
372.38	2478.04
372.59	2469.85
372.80	2371.55
373.01	2494.43
373.22	2512.86
373.43	2435.03
373.64	2359.26
373.85	2650.07
374.06	2666.46
374.26	2519.00
374.47	2494.43
374.68	2629.59
374.89	2428.89
375.10	2396.12
375.31	2467.80
375.52	2486.23
375.73	2490.33
375.94	2277.34
376.15	2512.86
376.36	2310.11
376.57	2445.27
376.78	2416.60
376.99	2447.32
377.20	2684.89
377.40	2428.89
377.61	2695.13
377.82	2379.74
378.03	2711.51
378.24	2564.06
378.45	2441.18
378.66	2490.33
378.87	2285.53
379.08	2314.20
379.29	2387.93
379.50	2525.15
379.71	2383.84
379.91	2564.06
380.12	2371.55
380.33	2480.09
380.54	2478.04
380.75	2439.13
380.96	2389.98
381.17	2613.21
381.38	2525.15
381.59	2535.39
381.80	2375.64
382.00	2674.65
382.21	2586.58
382.42	2766.81
382.63	2727.89
382.84	2486.23
383.05	2619.35
383.26	2656.22
383.47	2422.75
383.68	2533.34
383.88	2543.58
384.09	2529.24
384.30	2553.82
384.51	2508.76
384.72	2416.60
384.93	2326.49
385.14	2486.23
385.35	2559.96
385.55	2258.91
385.76	2631.64
385.97	2449.37
386.18	2285.53
386.39	2473.95
386.60	2435.03
386.81	2428.89
387.02	2320.35
387.22	2318.30
387.43	2547.67
387.64	2553.82
387.85	2674.65
388.06	2584.54
388.27	3977.16
388.48	8224.64
388.68	11976.52
388.89	14327.59
389.10	15714.06
389.31	14745.38
389.52	11691.85
389.73	9936.74
389.93	9119.60
390.14	8224.64
390.35	7495.57
390.56	6694.81
390.77	5529.52
390.98	4214.72
391.18	3448.78
391.39	2975.70
391.60	2504.67
391.81	2588.63
392.02	2461.66
392.23	2758.61
392.43	2539.48
392.64	2553.82
392.85	2478.04
393.06	2645.98
393.27	2490.33
393.47	2381.79
393.68	2453.47
393.89	2426.84
394.10	2670.55
394.31	2435.03
394.52	2340.83
394.72	2375.64
394.93	2678.74
395.14	2357.21
395.35	2467.80
395.56	2398.17
395.76	2496.47
395.97	2457.56
396.18	2564.06
396.39	2527.19
396.60	2963.41
396.80	2719.70
397.01	2731.99
397.22	2727.89
397.43	2686.94
397.64	2375.64
397.84	2473.95
398.05	2842.58
398.26	2486.23
398.47	2531.29
398.67	2588.63
398.88	2521.05
399.09	2504.67
399.30	2308.06
399.51	2508.76
399.71	2375.64
399.92	2445.27
400.13	2510.81
400.34	2416.60
400.54	2496.47
400.75	2645.98
400.96	2465.75
401.17	2678.74
401.37	2572.25
401.58	2432.99
401.79	2473.95
402.00	2631.64
402.21	2848.72
402.41	2801.62
402.62	2736.09
402.83	2848.72
403.04	2957.27
403.24	3133.39
403.45	2594.78
403.66	2691.03
403.87	2768.85
404.07	2701.27
404.28	2693.08
404.49	2744.28
404.70	2643.93
404.90	2621.40
405.11	2475.99
405.32	2562.01
405.52	2363.36
405.73	2402.27
405.94	2338.78
406.15	2428.89
406.35	2568.15
406.56	2617.30
406.77	2441.18
406.98	2445.27
407.18	2377.69
407.39	2625.50
407.60	2525.15
407.80	2543.58
408.01	2424.80
408.22	2541.53
408.43	2406.36
408.63	2596.82
408.84	2578.39
409.05	2613.21
409.25	2389.98
409.46	2351.07
409.67	2449.37
409.88	2441.18
410.08	2455.51
410.29	2406.36
410.50	2656.22
410.70	2551.77
410.91	2422.75
411.12	2519.00
411.32	2437.08
411.53	2357.21
411.74	2588.63
411.95	2523.10
412.15	2578.39
412.36	2656.22
412.57	2570.20
412.77	2629.59
412.98	2523.10
413.19	2473.95
413.39	2529.24
413.60	2416.60
413.81	2617.30
414.01	2351.07
414.22	2482.14
414.43	2508.76
414.63	2449.37
414.84	2572.25
415.05	2562.01
415.25	2236.38
415.46	2531.29
415.67	2449.37
415.87	2535.39
416.08	2478.04
416.29	2490.33
416.49	2539.48
416.70	2443.23
416.91	2363.36
417.11	2498.52
417.32	2553.82
417.53	2500.57
417.73	2570.20
417.94	2437.08
418.15	2613.21
418.35	2455.51
418.56	2519.00
418.77	2727.89
418.97	2482.14
419.18	2490.33
419.38	2254.81
419.59	2512.86
419.80	2664.41
420.00	2471.90
420.21	2428.89
420.42	2678.74
420.62	2521.05
420.83	2310.11
421.04	2463.71
421.24	2441.18
421.45	2586.58
421.65	2404.32
421.86	2408.41
422.07	2627.54
422.27	2605.02
422.48	2424.80
422.69	2310.11
422.89	2416.60
423.10	2461.66
423.30	2338.78
423.51	2486.23
423.72	2529.24
423.92	2564.06
424.13	2283.49
424.33	2412.51
424.54	2605.02
424.75	2445.27
424.95	2709.46
425.16	2367.45
425.36	2504.67
425.57	2572.25
425.78	2559.96
425.98	2553.82
426.19	2521.05
426.39	2351.07
426.60	2432.99
426.81	2621.40
427.01	2502.62
427.22	2418.65
427.42	2256.86
427.63	2359.26
427.83	2504.67
428.04	2650.07
428.25	2508.76
428.45	2578.39
428.66	2676.70
428.86	2576.34
429.07	2457.56
429.28	2461.66
429.48	2439.13
429.69	2385.88
429.89	2523.10
430.10	2375.64
430.30	2564.06
430.51	2631.64
430.71	2432.99
430.92	2459.61
431.13	2422.75
431.33	2582.49
431.54	2465.75
431.74	2666.46
431.95	2742.23
432.15	2432.99
432.36	2475.99
432.56	2445.27
432.77	2695.13
432.98	2693.08
433.18	2484.19
433.39	2396.12
433.59	2510.81
433.80	2736.09
434.00	2609.11
434.21	2469.85
434.41	2408.41
434.62	2852.82
434.82	2408.41
435.03	2342.88
435.23	2523.10
435.44	2285.53
435.64	2488.28
435.85	2478.04
436.06	2588.63
436.26	2521.05
436.47	2432.99
436.67	2342.88
436.88	2445.27
437.08	2580.44
437.29	2537.43
437.49	2484.19
437.70	2650.07
437.90	2496.47
438.11	2703.32
438.31	2478.04
438.52	2731.99
438.72	2770.90
438.93	2805.72
439.13	2584.54
439.34	2639.83
439.54	2461.66
439.75	2547.67
439.95	2574.30
440.16	2412.51
440.36	2512.86
440.57	2465.75
440.77	2496.47
440.98	2523.10
441.18	2590.68
441.39	2435.03
441.59	2351.07
441.80	2797.53
442.00	2506.71
442.21	2615.26
442.41	2385.88
442.62	2590.68
442.82	2394.08
443.02	2465.75
443.23	2437.08
443.43	2449.37
443.64	2674.65
443.84	2357.21
444.05	2613.21
444.25	2521.05
444.46	2482.14
444.66	2402.27
444.87	2590.68
445.07	2277.34
445.28	2400.22
445.48	2686.94
445.69	2512.86
445.89	2775.00
446.09	2584.54
446.30	2723.80
446.50	3016.66
446.71	4595.64
446.91	5668.78
447.12	6664.09
447.32	6993.81
447.53	6586.27
447.73	5447.60
447.93	4902.84
448.14	4523.96
448.34	4331.45
448.55	3829.70
448.75	3833.80
448.96	3569.61
449.16	3321.81
449.36	3127.25
449.57	2766.81
449.77	2588.63
449.98	2541.53
450.18	2602.97
450.39	2492.38
450.59	2645.98
450.79	2531.29
451.00	2416.60
451.20	2576.34
451.41	2496.47
451.61	2480.09
451.81	2506.71
452.02	2396.12
452.22	2482.14
452.43	2453.47
452.63	2375.64
452.84	2519.00
453.04	2435.03
453.24	2568.15
453.45	2394.08
453.65	2430.94
453.86	2484.19
454.06	2547.67
454.26	2469.85
454.47	2361.31
454.67	2570.20
454.87	2617.30
455.08	2496.47
455.28	2627.54
455.49	2435.03
455.69	2451.42
455.89	2789.33
456.10	2508.76
456.30	2416.60
456.51	2582.49
456.71	2500.57
456.91	2512.86
457.12	2478.04
457.32	2605.02
457.52	2301.92
457.73	2566.10
457.93	2609.11
458.14	2482.14
458.34	2318.30
458.54	2406.36
458.75	2502.62
458.95	2555.86
459.15	2437.08
459.36	2400.22
459.56	2559.96
459.76	2818.00
459.97	2506.71
460.17	2469.85
460.37	2592.73
460.58	2475.99
460.78	2527.19
460.99	2422.75
461.19	2502.62
461.39	2416.60
461.60	2471.90
461.80	2521.05
462.00	2392.03
462.21	2523.10
462.41	2406.36
462.61	2375.64
462.82	2330.59
463.02	2588.63
463.22	2531.29
463.43	2648.02
463.63	2406.36
463.83	2574.30
464.04	2594.78
464.24	2443.23
464.44	2371.55
464.64	2490.33
464.85	2631.64
465.05	2551.77
465.25	2389.98
465.46	2461.66
465.66	2506.71
465.86	2633.69
466.07	2459.61
466.27	2533.34
466.47	2269.15
466.68	2310.11
466.88	2584.54
467.08	2580.44
467.29	2637.78
467.49	2478.04
467.69	2469.85
467.89	2488.28
468.10	2443.23
468.30	2490.33
468.50	2537.43
468.71	2676.70
468.91	2314.20
469.11	2664.41
469.31	2490.33
469.52	2369.50
469.72	2783.19
469.92	2742.23
470.13	2490.33
470.33	2533.34
470.53	2543.58
470.73	2861.01
470.94	3280.85
471.14	3409.87
471.34	3899.33
471.54	3747.78
471.75	3297.23
471.95	3088.34
472.15	3022.80
472.36	2998.23
472.56	2983.89
472.76	2998.23
472.96	2926.55
473.17	2760.66
473.37	2729.94
473.57	2486.23
473.77	2557.91
473.98	2588.63
474.18	2422.75
474.38	2818.00
474.58	2465.75
474.79	2383.84
474.99	2531.29
475.19	2592.73
475.39	2359.26
475.60	2490.33
475.80	2498.52
476.00	2539.48
476.20	2441.18
476.41	2482.14
476.61	2572.25
476.81	2705.37
477.01	2383.84
477.21	2607.06
477.42	2594.78
477.62	2416.60
477.82	2633.69
478.02	2432.99
478.23	2469.85
478.43	2441.18
478.63	2512.86
478.83	2506.71
479.03	2572.25
479.24	2768.85
479.44	2725.85
479.64	2297.82
479.84	2322.40
480.04	2441.18
480.25	2623.45
480.45	2351.07
480.65	2412.51
480.85	2699.22
481.06	2392.03
481.26	2539.48
481.46	2455.51
481.66	2623.45
481.86	2437.08
482.06	2568.15
482.27	2387.93
482.47	2439.13
482.67	2482.14
482.87	2475.99
483.07	2555.86
483.28	2346.97
483.48	2363.36
483.68	2428.89
483.88	2392.03
484.08	2244.57
484.29	2332.64
484.49	2482.14
484.69	2369.50
484.89	2742.23
485.09	2586.58
485.29	2521.05
485.50	2523.10
485.70	2377.69
485.90	2588.63
486.10	2529.24
486.30	2506.71
486.50	2592.73
486.71	2523.10
486.91	2543.58
487.11	2658.26
487.31	2351.07
487.51	2545.63
487.71	2437.08
487.91	2359.26
488.12	2351.07
488.32	2242.53
488.52	2441.18
488.72	2228.19
488.92	2502.62
489.12	2627.54
489.32	2605.02
489.53	2555.86
489.73	2312.16
489.93	2682.84
490.13	2369.50
490.33	2340.83
490.53	2572.25
490.73	2607.06
490.94	2322.40
491.14	2555.86
491.34	2588.63
491.54	2789.33
491.74	3383.24
491.94	4034.50
492.14	4259.78
492.34	4458.43
492.54	4048.83
492.75	3512.27
492.95	3446.73
493.15	3252.17
493.35	3190.74
493.55	3055.57
493.75	2961.36
493.95	3012.56
494.15	2785.24
494.35	2643.93
494.56	2541.53
494.76	2457.56
494.96	2502.62
495.16	2506.71
495.36	2424.80
495.56	2523.10
495.76	2465.75
495.96	2498.52
496.16	2416.60
496.36	2680.79
496.56	2451.42
496.77	2535.39
496.97	2459.61
497.17	2678.74
497.37	2383.84
497.57	2566.10
497.77	2553.82
497.97	2324.44
498.17	2418.65
498.37	2428.89
498.57	2580.44
498.77	2447.32
498.97	2574.30
499.17	2633.69
499.38	2461.66
499.58	2588.63
499.78	2633.69
499.98	2600.92
500.18	2400.22
500.38	2435.03
500.58	2684.89
500.78	3092.43
500.98	5496.75
501.18	7378.83
501.38	9004.92
501.58	10276.71
501.78	9953.13
501.98	8036.23
502.18	6692.76
502.38	5816.23
502.58	5474.22
502.78	4927.41
502.98	4712.38
503.18	4329.41
503.38	3928.00
503.59	3514.31
503.79	3456.97
503.99	3180.50
504.19	3045.33
504.39	3057.62
504.59	3045.33
504.79	3010.51
504.99	3125.20
505.19	2815.96
505.39	2613.21
505.59	2879.44
505.79	2889.68
505.99	2709.46
506.19	2531.29
506.39	2750.42
506.59	2494.43
506.79	2529.24
506.99	2637.78
507.19	2539.48
507.39	2486.23
507.59	2326.49
507.79	2414.56
507.99	2422.75
508.19	2465.75
508.39	2422.75
508.59	2473.95
508.79	2539.48
508.99	2740.18
509.19	2473.95
509.39	2527.19
509.59	2336.73
509.79	2428.89
509.99	2559.96
510.19	2590.68
510.39	2492.38
510.59	2605.02
510.79	2430.94
510.99	2334.68
511.19	2408.41
511.39	2721.75
511.59	2602.97
511.79	2592.73
511.99	2437.08
512.19	2783.19
512.38	2457.56
512.58	2445.27
512.78	2432.99
512.98	2621.40
513.18	2643.93
513.38	2310.11
513.58	2543.58
513.78	2459.61
513.98	2445.27
514.18	2441.18
514.38	2424.80
514.58	2576.34
514.78	2375.64
514.98	2324.44
515.18	2422.75
515.38	2422.75
515.58	2695.13
515.78	2512.86
515.98	2410.46
516.18	2551.77
516.38	2496.47
516.57	2398.17
516.77	2322.40
516.97	2496.47
517.17	2432.99
517.37	2211.81
517.57	2568.15
517.77	2447.32
517.97	2441.18
518.17	2537.43
518.37	2396.12
518.57	2377.69
518.77	2416.60
518.97	2404.32
519.16	2455.51
519.36	2676.70
519.56	2504.67
519.76	2455.51
519.96	2402.27
520.16	2719.70
520.36	2400.22
520.56	2670.55
520.76	2303.96
520.96	2449.37
521.16	2670.55
521.35	2574.30
521.55	2633.69
521.75	2459.61
521.95	2408.41
522.15	2365.40
522.35	2318.30
522.55	2428.89
522.75	2598.87
522.95	2400.22
523.14	2375.64
523.34	2473.95
523.54	2357.21
523.74	2547.67
523.94	2482.14
524.14	2318.30
524.34	2514.91
524.54	2633.69
524.73	2412.51
524.93	2619.35
525.13	2539.48
525.33	2252.77
525.53	2729.94
525.73	2596.82
525.93	2535.39
526.13	2447.32
526.32	2475.99
526.52	2684.89
526.72	2635.74
526.92	2441.18
527.12	2387.93
527.32	2365.40
527.52	2531.29
527.71	2519.00
527.91	2512.86
528.11	2480.09
528.31	2463.71
528.51	2408.41
528.71	2551.77
528.90	2633.69
529.10	2635.74
529.30	2539.48
529.50	2215.90
529.70	2496.47
529.90	2551.77
530.09	2480.09
530.29	2260.96
530.49	2365.40
530.69	2762.71
530.89	2447.32
531.09	2553.82
531.28	2351.07
531.48	2609.11
531.68	2437.08
531.88	2531.29
532.08	2594.78
532.28	2428.89
532.47	2504.67
532.67	2576.34
532.87	2578.39
533.07	2326.49
533.27	2533.34
533.46	2521.05
533.66	2500.57
533.86	2453.47
534.06	2488.28
534.26	2508.76
534.45	2410.46
534.65	2635.74
534.85	2459.61
535.05	2396.12
535.25	2576.34
535.44	2375.64
535.64	2600.92
535.84	2400.22
536.04	2426.84
536.24	2473.95
536.43	2365.40
536.63	2439.13
536.83	2488.28
537.03	2510.81
537.22	2361.31
537.42	2328.54
537.62	2473.95
537.82	2398.17
538.02	2666.46
538.21	2564.06
538.41	2861.01
538.61	2602.97
538.81	2449.37
539.00	2600.92
539.20	2318.30
539.40	2482.14
539.60	2492.38
539.79	2471.90
539.99	2486.23
540.19	2338.78
540.39	2441.18
540.58	2461.66
540.78	2645.98
540.98	2482.14
541.18	2586.58
541.37	2523.10
541.57	2504.67
541.77	2580.44
541.97	2357.21
542.16	2359.26
542.36	2439.13
542.56	2492.38
542.76	2641.88
542.95	2506.71
543.15	2555.86
543.35	2514.91
543.54	2461.66
543.74	2383.84
543.94	2686.94
544.14	2402.27
544.33	2502.62
544.53	2398.17
544.73	2506.71
544.93	2392.03
545.12	2430.94
545.32	2498.52
545.52	2471.90
545.71	2383.84
545.91	2387.93
546.11	2387.93
546.30	2420.70
546.50	2432.99
546.70	2553.82
546.90	2559.96
547.09	2344.92
547.29	2465.75
547.49	2568.15
547.68	2471.90
547.88	2475.99
548.08	2545.63
548.27	2901.97
548.47	2379.74
548.67	2426.84
548.87	2555.86
549.06	2457.56
549.26	2514.91
549.46	2519.00
549.65	2428.89
549.85	2469.85
550.05	2545.63
550.24	2371.55
550.44	2394.08
550.64	2416.60
550.83	2463.71
551.03	2672.60
551.23	2547.67
551.42	2496.47
551.62	2447.32
551.82	2480.09
552.01	2426.84
552.21	2588.63
552.41	2533.34
552.60	2637.78
552.80	2488.28
553.00	2430.94
553.19	2502.62
553.39	2744.28
553.59	2375.64
553.78	2633.69
553.98	2473.95
554.17	2361.31
554.37	2635.74
554.57	2465.75
554.76	2334.68
554.96	2414.56
555.16	2510.81
555.35	2416.60
555.55	2498.52
555.75	2572.25
555.94	2617.30
556.14	2332.64
556.33	2578.39
556.53	2502.62
556.73	2510.81
556.92	2551.77
557.12	2527.19
557.32	2758.61
557.51	2752.47
557.71	2584.54
557.90	2631.64
558.10	2670.55
558.30	2482.14
558.49	2451.42
558.69	2422.75
558.88	2627.54
559.08	2535.39
559.28	2502.62
559.47	2512.86
559.67	2643.93
559.86	2742.23
560.06	2383.84
560.26	2457.56
560.45	2523.10
560.65	2496.47
560.84	2580.44
561.04	2365.40
561.24	2535.39
561.43	2361.31
561.63	2582.49
561.82	2445.27
562.02	2559.96
562.22	2488.28
562.41	2349.02
562.61	2398.17
562.80	2392.03
563.00	2770.90
563.19	2543.58
563.39	2441.18
563.59	2596.82
563.78	2342.88
563.98	2226.14
564.17	2406.36
564.37	2222.05
564.56	2473.95
564.76	2322.40
564.96	2641.88
565.15	2539.48
565.35	2793.43
565.54	2414.56
565.74	2543.58
565.93	2529.24
566.13	2482.14
566.32	2539.48
566.52	2496.47
566.71	2490.33
566.91	2615.26
567.11	2572.25
567.30	2398.17
567.50	2445.27
567.69	2506.71
567.89	2361.31
568.08	2359.26
568.28	2519.00
568.47	2389.98
568.67	2568.15
568.86	2353.12
569.06	2611.16
569.25	2392.03
569.45	2375.64
569.64	2355.16
569.84	2463.71
570.04	2504.67
570.23	2404.32
570.43	2516.95
570.62	2578.39
570.82	2721.75
571.01	2355.16
571.21	2400.22
571.40	2428.89
571.60	2539.48
571.79	2602.97
571.99	2449.37
572.18	2342.88
572.38	2609.11
572.57	2443.23
572.77	2498.52
572.96	2801.62
573.16	2549.72
573.35	2408.41
573.55	2662.36
573.74	2572.25
573.94	2465.75
574.13	2389.98
574.33	2574.30
574.52	2625.50
574.71	2457.56
574.91	2629.59
575.10	2338.78
575.30	2502.62
575.49	2459.61
575.69	2473.95
575.88	2555.86
576.08	2506.71
576.27	2680.79
576.47	2516.95
576.66	2695.13
576.86	2719.70
577.05	2576.34
577.25	2519.00
577.44	2688.98
577.64	2455.51
577.83	2617.30
578.02	2478.04
578.22	2553.82
578.41	2752.47
578.61	2543.58
578.80	2260.96
579.00	2519.00
579.19	2480.09
579.39	2519.00
579.58	2625.50
579.77	2443.23
579.97	2645.98
580.16	2662.36
580.36	2566.10
580.55	2621.40
580.75	2570.20
580.94	2586.58
581.13	2600.92
581.33	2650.07
581.52	2564.06
581.72	2779.09
581.91	2693.08
582.11	2445.27
582.30	2621.40
582.49	2519.00
582.69	2609.11
582.88	2596.82
583.08	2531.29
583.27	2760.66
583.47	2572.25
583.66	2396.12
583.85	2367.45
584.05	2521.05
584.24	2568.15
584.44	2521.05
584.63	2652.12
584.82	2654.17
585.02	2686.94
585.21	2654.17
585.41	2762.71
585.60	2564.06
585.79	2824.15
585.99	2748.37
586.18	2629.59
586.37	3248.08
586.57	5068.72
586.76	14862.11
586.96	34190.84
587.15	47459.63
587.34	56763.55
587.54	61080.67
587.73	55379.12
587.93	39019.95
588.12	29650.49
588.31	23832.21
588.51	20924.10
588.70	19576.53
588.89	17213.18
589.09	14911.26
589.28	12740.41
589.47	10061.67
589.67	7899.02
589.86	6121.38
590.06	4542.39
590.25	3932.10
590.44	3348.43
590.64	3006.42
590.83	2791.38
591.02	2811.86
591.22	2531.29
591.41	2637.78
591.60	2555.86
591.80	2852.82
591.99	2389.98
592.18	2506.71
592.38	2623.45
592.57	2494.43
592.76	2506.71
592.96	2480.09
593.15	2457.56
593.34	2598.87
593.54	2494.43
593.73	2588.63
593.92	2592.73
594.12	2607.06
594.31	2506.71
594.50	2725.85
594.70	2535.39
594.89	2852.82
595.08	2414.56
595.28	2656.22
595.47	2957.27
595.66	2643.93
595.86	2416.60
596.05	2519.00
596.24	2502.62
596.43	2754.52
596.63	2602.97
596.82	2541.53
597.01	2590.68
597.21	2686.94
597.40	2508.76
597.59	2506.71
597.79	2555.86
597.98	2645.98
598.17	2639.83
598.36	2570.20
598.56	2609.11
598.75	2414.56
598.94	2490.33
599.14	2521.05
599.33	2494.43
599.52	2584.54
599.71	2494.43
599.91	2523.10
600.10	2492.38
600.29	2490.33
600.48	2594.78
600.68	2553.82
600.87	2551.77
601.06	2490.33
601.26	2545.63
601.45	2506.71
601.64	2469.85
601.83	2719.70
602.03	2531.29
602.22	2404.32
602.41	2645.98
602.60	2752.47
602.80	2576.34
602.99	2541.53
603.18	2484.19
603.37	2592.73
603.57	2494.43
603.76	2609.11
603.95	2650.07
604.14	2447.32
604.34	2373.60
604.53	2506.71
604.72	2504.67
604.91	2588.63
605.10	2576.34
605.30	2381.79
605.49	2707.41
605.68	2607.06
605.87	2521.05
606.07	2410.46
606.26	2547.67
606.45	2635.74
606.64	2535.39
606.84	2422.75
607.03	2512.86
607.22	2658.26
607.41	2537.43
607.60	2502.62
607.80	2629.59
607.99	2527.19
608.18	2523.10
608.37	2449.37
608.56	2447.32
608.76	2617.30
608.95	2676.70
609.14	2555.86
609.33	2676.70
609.52	2777.05
609.72	2600.92
609.91	2662.36
610.10	2600.92
610.29	2727.89
610.48	2600.92
610.68	2537.43
610.87	2510.81
611.06	2643.93
611.25	2482.14
611.44	2586.58
611.63	2519.00
611.83	2662.36
612.02	2404.32
612.21	2570.20
612.40	2256.86
612.59	2424.80
612.79	2439.13
612.98	2410.46
613.17	2674.65
613.36	2557.91
613.55	2686.94
613.74	2502.62
613.93	2701.27
614.13	2746.33
614.32	2783.19
614.51	2738.13
614.70	2621.40
614.89	2514.91
615.08	2617.30
615.28	3014.61
615.47	2408.41
615.66	2555.86
615.85	2500.57
616.04	2676.70
616.23	2498.52
616.42	2549.72
616.62	2559.96
616.81	2502.62
617.00	2545.63
617.19	2584.54
617.38	2482.14
617.57	2525.15
617.76	2656.22
617.95	2617.30
618.15	2510.81
618.34	2731.99
618.53	2435.03
618.72	2621.40
618.91	2512.86
619.10	2637.78
619.29	2508.76
619.48	2504.67
619.68	2318.30
619.87	2441.18
620.06	2367.45
620.25	2570.20
620.44	2406.36
620.63	2396.12
620.82	2420.70
621.01	2529.24
621.20	2510.81
621.39	2502.62
621.59	2533.34
621.78	2478.04
621.97	2461.66
622.16	2631.64
622.35	2562.01
622.54	2547.67
622.73	2590.68
622.92	2346.97
623.11	2703.32
623.30	2451.42
623.49	2525.15
623.68	2396.12
623.88	2525.15
624.07	2486.23
624.26	2504.67
624.45	2408.41
624.64	2400.22
624.83	2572.25
625.02	2445.27
625.21	2394.08
625.40	2578.39
625.59	2736.09
625.78	2543.58
625.97	2580.44
626.16	2717.65
626.35	2695.13
626.54	2562.01
626.74	2727.89
626.93	2553.82
627.12	2529.24
627.31	2555.86
627.50	2510.81
627.69	2666.46
627.88	2420.70
628.07	2449.37
628.26	2318.30
628.45	2357.21
628.64	2365.40
628.83	2381.79
629.02	2314.20
629.21	2559.96
629.40	2605.02
629.59	2416.60
629.78	2586.58
629.97	2504.67
630.16	2564.06
630.35	2422.75
630.54	2512.86
630.73	2414.56
630.92	2609.11
631.11	2408.41
631.30	2531.29
631.49	2609.11
631.68	2529.24
631.87	2525.15
632.06	2404.32
632.25	2856.92
632.44	2572.25
632.63	2551.77
632.82	2465.75
633.01	2457.56
633.20	2527.19
633.39	2533.34
633.58	2404.32
633.77	2596.82
633.96	2576.34
634.15	2475.99
634.34	2555.86
634.53	2576.34
634.72	2449.37
634.91	2340.83
635.10	2496.47
635.29	2527.19
635.48	2473.95
635.67	2494.43
635.86	2293.72
636.05	2670.55
636.24	2514.91
636.43	2441.18
636.62	2559.96
636.81	2277.34
637.00	2422.75
637.19	2463.71
637.38	2449.37
637.57	2441.18
637.76	2570.20
637.95	2617.30
638.14	2523.10
638.33	2514.91
638.52	2555.86
638.71	2400.22
638.89	2332.64
639.08	2899.92
639.27	2703.32
639.46	2805.72
639.65	3076.05
639.84	3209.17
640.03	3274.70
640.22	3108.82
640.41	3264.46
640.60	2824.15
640.79	2777.05
640.98	2676.70
641.17	2723.80
641.36	2748.37
641.55	2727.89
641.74	2441.18
641.92	2457.56
642.11	2422.75
642.30	2545.63
642.49	2396.12
642.68	2457.56
642.87	2463.71
643.06	2605.02
643.25	2389.98
643.44	2301.92
643.63	2521.05
643.82	2602.97
644.00	2381.79
644.19	2392.03
644.38	2326.49
644.57	2570.20
644.76	2445.27
644.95	2422.75
645.14	2496.47
645.33	2506.71
645.52	2506.71
645.71	2392.03
645.89	2383.84
646.08	2432.99
646.27	2523.10
646.46	2662.36
646.65	2367.45
646.84	2492.38
647.03	2402.27
647.22	2531.29
647.40	2619.35
647.59	2537.43
647.78	2299.87
647.97	2340.83
648.16	2291.68
648.35	2777.05
648.54	2652.12
648.73	2486.23
648.91	2519.00
649.10	2449.37
649.29	2367.45
649.48	2416.60
649.67	2547.67
649.86	2494.43
650.05	2519.00
650.23	2695.13
650.42	2521.05
650.61	2752.47
650.80	2664.41
650.99	2731.99
651.18	2711.51
651.36	2701.27
651.55	2512.86
651.74	2602.97
651.93	2441.18
652.12	2424.80
652.31	2490.33
652.49	2523.10
652.68	2414.56
652.87	2715.61
653.06	2506.71
653.25	2637.78
653.44	2559.96
653.62	2674.65
653.81	2492.38
654.00	2514.91
654.19	2611.16
654.38	2764.76
654.56	2572.25
654.75	2428.89
654.94	2562.01
655.13	2486.23
655.32	2432.99
655.51	2525.15
655.69	2392.03
655.88	2504.67
656.07	2387.93
656.26	2461.66
656.45	2361.31
656.63	2437.08
656.82	2508.76
657.01	2600.92
657.20	2455.51
657.38	2709.46
657.57	2480.09
657.76	2320.35
657.95	2580.44
658.14	2510.81
658.32	2463.71
658.51	2334.68
658.70	2392.03
658.89	2639.83
659.08	2379.74
659.26	2707.41
659.45	2473.95
659.64	2568.15
659.83	2473.95
660.01	2881.49
660.20	2545.63
660.39	2717.65
660.58	2199.52
660.76	2555.86
660.95	2379.74
661.14	2545.63
661.33	2236.38
661.51	2381.79
661.70	2441.18
661.89	2582.49
662.08	2447.32
662.26	2332.64
662.45	2342.88
662.64	2691.03
662.83	2492.38
663.01	2267.10
663.20	2465.75
663.39	2693.08
663.58	2443.23
663.76	2430.94
663.95	2553.82
664.14	2353.12
664.32	2441.18
664.51	2383.84
664.70	2291.68
664.89	2600.92
665.07	2334.68
665.26	2582.49
665.45	2310.11
665.64	2568.15
665.82	2398.17
666.01	2562.01
666.20	2383.84
666.38	2611.16
666.57	2664.41
666.76	3866.56
666.95	9584.49
667.13	18058.99
667.32	22843.04
667.51	25745.02
667.69	27649.63
667.88	24454.79
668.07	17415.93
668.25	14341.93
668.44	11841.36
668.63	10233.70
668.81	9029.49
669.00	7968.65
669.19	6930.33
669.38	6127.52
669.56	5216.18
669.75	4442.04
669.94	3780.55
670.12	3301.33
670.31	2883.54
670.50	2914.26
670.68	2707.41
670.87	2602.97
671.06	2469.85
671.24	2584.54
671.43	2781.14
671.62	2537.43
671.80	2437.08
671.99	2621.40
672.18	2523.10
672.36	2596.82
672.55	2580.44
672.74	2523.10
672.92	2465.75
673.11	2576.34
673.29	2318.30
673.48	2607.06
673.67	2486.23
673.85	2607.06
674.04	2326.49
674.23	2580.44
674.41	2760.66
674.60	2326.49
674.79	2281.44
674.97	2381.79
675.16	2570.20
675.34	2639.83
675.53	2408.41
675.72	2510.81
675.90	2725.85
676.09	2379.74
676.28	2506.71
676.46	2379.74
676.65	2543.58
676.83	2351.07
677.02	2516.95
677.21	2451.42
677.39	2521.05
677.58	2357.21
677.77	2363.36
677.95	2361.31
678.14	2445.27
678.32	2488.28
678.51	2301.92
678.70	2672.60
678.88	2453.47
679.07	2555.86
679.25	2523.10
679.44	2437.08
679.63	2398.17
679.81	2533.34
680.00	2650.07
680.18	2527.19
680.37	2605.02
680.55	2449.37
680.74	2295.77
680.93	2324.44
681.11	2447.32
681.30	2432.99
681.48	2469.85
681.67	2420.70
681.85	2451.42
682.04	2406.36
682.23	2488.28
682.41	2498.52
682.60	2490.33
682.78	2504.67
682.97	2293.72
683.15	2461.66
683.34	2498.52
683.53	2719.70
683.71	2285.53
683.90	2621.40
684.08	2742.23
684.27	2398.17
684.45	2457.56
684.64	2594.78
684.82	2396.12
685.01	2572.25
685.19	2432.99
685.38	2590.68
685.57	2467.80
685.75	2449.37
685.94	2453.47
686.12	2334.68
686.31	2488.28
686.49	2731.99
686.68	2242.53
686.86	2498.52
687.05	2506.71
687.23	2582.49
687.42	2424.80
687.60	2324.44
687.79	2652.12
687.97	2654.17
688.16	2572.25
688.34	2619.35
688.53	2336.73
688.71	2539.48
688.90	2633.69
689.08	2457.56
689.27	2342.88
689.45	2609.11
689.64	2504.67
689.82	2496.47
690.01	2514.91
690.19	2527.19
690.38	2392.03
690.56	2535.39
690.75	2406.36
690.93	2332.64
691.12	2447.32
691.30	2441.18
691.49	2467.80
691.67	2463.71
691.86	2691.03
692.04	2449.37
692.23	2516.95
692.41	2502.62
692.60	2760.66
692.78	2617.30
692.97	2553.82
693.15	2555.86
693.34	2680.79
693.52	2596.82
693.71	2439.13
693.89	2437.08
694.08	2281.44
694.26	2582.49
694.44	2512.86
694.63	2545.63
694.81	2428.89
695.00	2375.64
695.18	2580.44
695.37	2840.53
695.55	2443.23
695.74	2416.60
695.92	2478.04
696.10	2648.02
696.29	2326.49
696.47	2414.56
696.66	2461.66
696.84	2422.75
697.03	2463.71
697.21	2670.55
697.40	3676.10
697.58	2613.21
697.76	2457.56
697.95	2424.80
698.13	2365.40
698.32	2424.80
698.50	2490.33
698.68	2482.14
698.87	2562.01
699.05	2674.65
699.24	2424.80
699.42	2363.36
699.61	2584.54
699.79	2504.67
699.97	2457.56
700.16	2314.20
700.34	2342.88
700.53	2570.20
700.71	2650.07
700.89	2609.11
701.08	2502.62
701.26	2449.37
701.45	2916.31
701.63	2369.50
701.81	2457.56
702.00	2441.18
702.18	2543.58
702.37	2441.18
702.55	2793.43
702.73	2707.41
702.92	2535.39
703.10	2781.14
703.28	2738.13
703.47	2492.38
703.65	2715.61
703.84	2635.74
704.02	2490.33
704.20	2779.09
704.39	2392.03
704.57	2422.75
704.75	2672.60
704.94	2656.22
705.12	2504.67
705.30	2838.48
705.49	5529.52
705.67	12822.33
705.86	20643.52
706.04	24268.43
706.22	27412.06
706.41	27952.73
706.59	22830.76
706.77	16185.10
706.96	13922.09
707.14	12306.24
707.32	10542.94
707.51	9502.58
707.69	7643.02
707.87	6092.71
708.06	4939.70
708.24	4030.40
708.42	3420.11
708.61	3297.23
708.79	2627.54
708.97	2691.03
709.16	2586.58
709.34	2592.73
709.52	2506.71
709.71	2480.09
709.89	2500.57
710.07	2410.46
710.26	2373.60
710.44	2400.22
710.62	2551.77
710.80	2473.95
710.99	2559.96
711.17	2529.24
711.35	2455.51
711.54	2383.84
711.72	2551.77
711.90	2510.81
712.09	2531.29
712.27	2375.64
712.45	2516.95
712.63	2342.88
712.82	2475.99
713.00	2469.85
713.18	2465.75
713.37	2541.53
713.55	2588.63
713.73	2529.24
713.91	2564.06
714.10	2439.13
714.28	2394.08
714.46	2488.28
714.65	2506.71
714.83	2465.75
715.01	2463.71
715.19	2471.90
715.38	2418.65
715.56	2514.91
715.74	2396.12
715.92	2318.30
716.11	2605.02
716.29	2340.83
716.47	2572.25
716.65	2457.56
716.84	2293.72
717.02	2555.86
717.20	2252.77
717.38	2469.85
717.57	2547.67
717.75	2467.80
717.93	2449.37
718.11	2586.58
718.30	2342.88
718.48	2473.95
718.66	2586.58
718.84	2633.69
719.03	2414.56
719.21	2340.83
719.39	2729.94
719.57	2621.40
719.75	2588.63
719.94	2414.56
720.12	2469.85
720.30	2445.27
720.48	2535.39
720.67	2379.74
720.85	2402.27
721.03	2392.03
721.21	2357.21
721.39	2502.62
721.58	2529.24
721.76	2529.24
721.94	2555.86
722.12	2486.23
722.30	2699.22
722.49	2441.18
722.67	2412.51
722.85	2453.47
723.03	2338.78
723.21	2389.98
723.40	2484.19
723.58	2611.16
723.76	2615.26
723.94	2629.59
724.12	2531.29
724.30	2629.59
724.49	2623.45
724.67	2420.70
724.85	2670.55
725.03	2349.02
725.21	2611.16
725.40	2625.50
725.58	2416.60
725.76	2637.78
725.94	2553.82
726.12	2346.97
726.30	2516.95
726.49	2371.55
726.67	2416.60
726.85	2588.63
727.03	2916.31
727.21	4212.67
727.39	5844.90
727.57	6700.95
727.76	7237.52
727.94	7544.72
728.12	6918.04
728.30	5711.78
728.48	4904.89
728.66	4587.45
728.84	4200.38
729.03	3530.70
729.21	3305.42
729.39	2955.22
729.57	2715.61
729.75	2703.32
729.93	2621.40
730.11	2402.27
730.30	2490.33
730.48	2471.90
730.66	2637.78
730.84	2529.24
731.02	2519.00
731.20	2457.56
731.38	2506.71
731.56	2332.64
731.74	2353.12
731.93	2445.27
732.11	2482.14
732.29	2353.12
732.47	2496.47
732.65	2488.28
732.83	2627.54
733.01	2482.14
733.19	2340.83
733.37	2523.10
733.56	2537.43
733.74	2400.22
733.92	2625.50
734.10	2463.71
734.28	2523.10
734.46	2203.61
734.64	2424.80
734.82	2469.85
735.00	2453.47
735.18	2351.07
735.36	2555.86
735.54	2492.38
735.73	2482.14
735.91	2559.96
736.09	2553.82
736.27	2422.75
736.45	2541.53
736.63	2306.01
736.81	2432.99
736.99	2562.01
737.17	2648.02
737.35	2457.56
737.53	2490.33
737.71	2445.27
737.89	2580.44
738.07	2416.60
738.25	2326.49
738.43	2355.16
738.61	2445.27
738.80	2314.20
738.98	2359.26
739.16	2473.95
739.34	2449.37
739.52	2627.54
739.70	2486.23
739.88	2551.77
740.06	2645.98
740.24	2179.04
740.42	2645.98
740.60	2258.91
740.78	2416.60
740.96	2265.05
741.14	2389.98
741.32	2484.19
741.50	2287.58
741.68	2693.08
741.86	2666.46
742.04	2361.31
742.22	2375.64
742.40	2447.32
742.58	2469.85
742.76	2359.26
742.94	2619.35
743.12	2334.68
743.30	2471.90
743.48	2570.20
743.66	2416.60
743.84	2557.91
744.02	2437.08
744.20	2486.23
744.38	2365.40
744.56	2392.03
744.74	2744.28
744.92	2572.25
745.10	2629.59
745.28	2529.24
745.46	2674.65
745.64	2459.61
745.82	2600.92
746.00	2475.99
746.18	2525.15
746.36	2351.07
746.54	2564.06
746.72	2445.27
746.90	2332.64
747.08	2662.36
747.26	2455.51
747.44	2592.73
747.62	2559.96
747.80	2496.47
747.98	2498.52
748.15	2432.99
748.33	2652.12
748.51	2580.44
748.69	2594.78
748.87	2367.45
749.05	2514.91
749.23	2422.75
749.41	2447.32
749.59	2449.37
749.77	2498.52
749.95	2435.03
750.13	2396.12
750.31	2494.43
750.49	2430.94
750.67	2539.48
750.85	2551.77
751.03	2504.67
751.20	2770.90
751.38	2445.27
751.56	2359.26
751.74	2459.61
751.92	2504.67
752.10	2418.65
752.28	2582.49
752.46	2443.23
752.64	2449.37
752.82	2459.61
753.00	2504.67
753.18	2385.88
753.35	2445.27
753.53	2439.13
753.71	2392.03
753.89	2580.44
754.07	2521.05
754.25	2654.17
754.43	2471.90
754.61	2295.77
754.79	2705.37
754.97	2478.04
755.14	2611.16
755.32	2365.40
755.50	2449.37
755.68	2543.58
755.86	2355.16
756.04	2363.36
756.22	2367.45
756.40	2531.29
756.57	2578.39
756.75	2432.99
756.93	2588.63
757.11	2619.35
757.29	2271.20
757.47	2437.08
757.65	2314.20
757.82	2240.48
758.00	2318.30
758.18	2432.99
758.36	2394.08
758.54	2697.17
758.72	2244.57
758.90	2596.82
759.07	2506.71
759.25	2389.98
759.43	2539.48
759.61	2406.36
759.79	3547.08
759.97	2596.82
760.15	2447.32
760.32	2383.84
760.50	2519.00
760.68	2643.93
760.86	2318.30
761.04	2658.26
761.22	2576.34
761.39	2502.62
761.57	2523.10
761.75	2465.75
761.93	2568.15
762.11	2453.47
762.28	2469.85
762.46	2381.79
762.64	2619.35
762.82	2246.62
763.00	2428.89
763.18	2629.59
763.35	2328.54
763.53	2498.52
763.71	2473.95
763.89	2451.42
764.07	2428.89
764.24	2543.58
764.42	2543.58
764.60	2365.40
764.78	2473.95
764.96	2572.25
765.13	2543.58
765.31	2480.09
765.49	2580.44
765.67	2398.17
765.84	2410.46
766.02	2371.55
766.20	2306.01
766.38	2502.62
766.56	2531.29
766.73	2545.63
766.91	2439.13
767.09	2467.80
767.27	2514.91
767.44	2326.49
767.62	2547.67
767.80	2541.53
767.98	2318.30
768.15	2398.17
768.33	2588.63
768.51	2490.33
768.69	2568.15
768.87	2482.14
769.04	2480.09
769.22	2764.76
769.40	2637.78
769.58	2629.59
769.75	2451.42
769.93	2535.39
770.11	2498.52
770.28	2355.16
770.46	2521.05
770.64	2521.05
770.82	2480.09
770.99	2441.18
771.17	2543.58
771.35	2469.85
771.53	2392.03
771.70	2357.21
771.88	2445.27
772.06	2490.33
772.23	2488.28
772.41	2549.72
772.59	2420.70
772.77	2357.21
772.94	2426.84
773.12	2545.63
773.30	2441.18
773.47	2555.86
773.65	2332.64
773.83	2506.71
774.01	2564.06
774.18	2154.46
774.36	2404.32
774.54	2322.40
774.71	2439.13
774.89	2269.15
775.07	2367.45
775.24	2377.69
775.42	2441.18
775.60	2641.88
775.78	2381.79
775.95	2301.92
776.13	2299.87
776.31	2318.30
776.48	2580.44
776.66	2605.02
776.84	2562.01
777.01	2269.15
777.19	2420.70
777.37	2404.32
777.54	2572.25
777.72	2682.84
777.90	2506.71
778.07	2398.17
778.25	2992.08
778.43	2580.44
778.60	2367.45
778.78	2490.33
778.96	2672.60
779.13	2314.20
779.31	2521.05
779.49	2467.80
779.66	2531.29
779.84	2435.03
780.01	2486.23
780.19	2398.17
780.37	2650.07
780.54	2494.43
780.72	2404.32
780.90	2463.71
781.07	2465.75
781.25	2435.03
781.43	2555.86
781.60	2418.65
781.78	2562.01
781.95	2545.63
782.13	2414.56
782.31	2504.67
782.48	2285.53
782.66	2447.32
782.83	2645.98
783.01	2535.39
783.19	2510.81
783.36	2461.66
783.54	2340.83
783.72	2566.10
783.89	2467.80
784.07	2519.00
784.24	2523.10
784.42	2643.93
784.60	2512.86
784.77	2541.53
784.95	2299.87
785.12	2353.12
785.30	2519.00
785.47	2334.68
785.65	2416.60
785.83	2428.89
786.00	2383.84
786.18	2486.23
786.35	2359.26
786.53	2426.84
786.71	2580.44
786.88	2541.53
787.06	2504.67
787.23	2396.12
787.41	2330.59
787.58	2389.98
787.76	2389.98
787.94	2490.33
788.11	2555.86
788.29	2365.40
788.46	2400.22
788.64	2232.29
788.81	2445.27
788.99	2349.02
789.16	2342.88
789.34	2416.60
789.52	2389.98
789.69	2406.36
789.87	2228.19
790.04	2439.13
790.22	2463.71
790.39	2723.80
790.57	2285.53
790.74	2367.45
790.92	2668.50
791.09	2367.45
791.27	2523.10
791.44	2537.43
791.62	2424.80
791.79	2580.44
791.97	2553.82
792.15	2785.24
792.32	2658.26
792.50	2519.00
792.67	2576.34
792.85	2572.25
793.02	2498.52
793.20	2428.89
793.37	2228.19
793.55	2396.12
793.72	2346.97
793.90	2568.15
794.07	2447.32
794.25	2314.20
794.42	2555.86
794.60	2480.09
794.77	2471.90
794.95	2572.25
795.12	2641.88
795.30	2402.27
795.47	2291.68
795.65	2813.91
795.82	2500.57
796.00	2478.04
796.17	2488.28
796.34	2445.27
796.52	2531.29
796.69	2617.30
796.87	2543.58
797.04	2469.85
797.22	2611.16
797.39	2596.82
797.57	2605.02
797.74	2457.56
797.92	2527.19
798.09	2408.41
798.27	2531.29
798.44	2453.47
798.62	2428.89
798.79	2486.23
798.96	2449.37
799.14	2375.64
799.31	2807.77
799.49	2473.95
799.66	2441.18
799.84	2424.80
800.01	2369.50
800.19	2531.29
800.36	2332.64
800.53	2412.51
800.71	2545.63
800.88	2666.46
801.06	2389.98
801.23	2441.18
801.41	2463.71
801.58	2473.95
801.75	2344.92
801.93	2529.24
802.10	2594.78
802.28	2455.51
802.45	2441.18
802.63	2568.15
802.80	2580.44
802.97	2494.43
803.15	2473.95
803.32	2398.17
803.50	2400.22
803.67	2355.16
803.84	2301.92
804.02	2490.33
804.19	2484.19
804.37	2181.09
804.54	2332.64
804.71	2422.75
804.89	2506.71
805.06	2355.16
805.24	2320.35
805.41	2310.11
805.58	2351.07
805.76	2826.20
805.93	2432.99
806.10	2576.34
806.28	2545.63
806.45	2467.80
806.63	2432.99
806.80	2475.99
806.97	2529.24
807.15	2443.23
807.32	2545.63
807.49	2432.99
807.67	2379.74
807.84	2459.61
808.01	2308.06
808.19	2650.07
808.36	2650.07
808.54	2402.27
808.71	2355.16
808.88	2424.80
809.06	2557.91
809.23	2623.45
809.40	2480.09
809.58	2496.47
809.75	2437.08
809.92	2346.97
810.10	2725.85
810.27	2457.56
810.44	2490.33
810.62	2516.95
810.79	2498.52
810.96	2396.12
811.14	2430.94
811.31	2519.00
811.48	2531.29
811.66	2459.61
811.83	2615.26
812.00	2576.34
812.18	2504.67
812.35	2645.98
812.52	2457.56
812.69	2457.56
812.87	2473.95
813.04	2375.64
813.21	2435.03
813.39	2330.59
813.56	2371.55
813.73	2537.43
813.91	2244.57
814.08	2547.67
814.25	2465.75
814.42	2244.57
814.60	2439.13
814.77	2559.96
814.94	2398.17
815.12	2527.19
815.29	2648.02
815.46	2412.51
815.63	2512.86
815.81	2445.27
815.98	2396.12
816.15	2500.57
816.33	2420.70
816.50	2480.09
816.67	2494.43
816.84	2414.56
817.02	2342.88
817.19	2404.32
817.36	2537.43
817.53	2588.63
817.71	2336.73
817.88	2510.81
818.05	2432.99
818.22	2416.60
818.40	2666.46
818.57	2387.93
818.74	2605.02
818.91	2502.62
819.09	2547.67
819.26	2531.29
819.43	2392.03
819.60	2371.55
819.78	2422.75
819.95	2494.43
820.12	2308.06
820.29	2539.48
820.47	2580.44
820.64	2430.94
820.81	2330.59
820.98	2351.07
821.15	2398.17
821.33	2555.86
821.50	2295.77
821.67	2559.96
821.84	2453.47
822.02	2545.63
822.19	2594.78
822.36	2469.85
822.53	2449.37
822.70	2306.01
822.88	2437.08
823.05	2662.36
823.22	2449.37
823.39	2449.37
823.56	2490.33
823.74	2701.27
823.91	2344.92
824.08	2320.35
824.25	2381.79
824.42	2713.56
824.60	2328.54
824.77	2510.81
824.94	2424.80
825.11	2572.25
825.28	2293.72
825.45	2463.71
825.63	2455.51
825.80	2330.59
825.97	2488.28
826.14	2514.91
826.31	2375.64
826.48	2539.48
826.66	2322.40
826.83	2414.56
827.00	2447.32
827.17	2357.21
827.34	2455.51
827.51	2299.87
827.69	2445.27
827.86	2267.10
828.03	2531.29
828.20	2400.22
828.37	2437.08
828.54	2482.14
828.71	2373.60
828.89	2600.92
829.06	2508.76
829.23	2686.94
829.40	2326.49
829.57	2389.98
829.74	2555.86
829.91	2349.02
830.09	2334.68
830.26	2488.28
830.43	2688.98
830.60	2502.62
830.77	2519.00
830.94	2576.34
831.11	2555.86
831.28	2420.70
831.46	2607.06
831.63	2463.71
831.80	2580.44
831.97	2353.12
832.14	2365.40
832.31	2439.13
832.48	2555.86
832.65	2582.49
832.82	2428.89
832.99	2500.57
833.17	2346.97
833.34	2660.31
833.51	2521.05
833.68	2293.72
833.85	2629.59
834.02	2338.78
834.19	2334.68
834.36	2408.41
834.53	2500.57
834.70	2543.58
834.87	2525.15
835.04	2332.64
835.22	2400.22
835.39	2416.60
835.56	2256.86
835.73	2408.41
835.90	2570.20
836.07	2340.83
836.24	2449.37
836.41	2357.21
836.58	2389.98
836.75	2654.17
836.92	2500.57
837.09	2373.60
837.26	2629.59
837.43	2510.81
837.60	2437.08
837.77	2461.66
837.94	2553.82
838.12	2600.92
838.29	2392.03
838.46	2338.78
838.63	2349.02
838.80	2635.74
838.97	2406.36
839.14	2363.36
839.31	2512.86
839.48	2600.92
839.65	2392.03
839.82	2383.84
839.99	2428.89
840.16	2392.03
840.33	2258.91
840.50	2392.03
840.67	2340.83
840.84	2236.38
841.01	2449.37
841.18	2375.64
841.35	2404.32
841.52	2590.68
841.69	2629.59
841.86	2404.32
842.03	2459.61
842.20	2553.82
842.37	2389.98
842.54	2381.79
842.71	2420.70
842.88	2306.01
843.05	2441.18
843.22	2310.11
843.39	2564.06
843.56	2400.22
843.73	2400.22
843.90	2420.70
844.07	2506.71
844.24	2650.07
844.41	2414.56
844.58	2387.93
844.75	2451.42
844.92	2490.33
845.09	2379.74
845.26	2342.88
845.43	2531.29
845.60	2414.56
845.77	2463.71
845.94	2398.17
846.10	2578.39
846.27	2308.06
846.44	2244.57
846.61	2342.88
846.78	2527.19
846.95	2523.10
847.12	2293.72
847.29	2359.26
847.46	2396.12
847.63	2615.26
847.80	2340.83
847.97	2346.97
848.14	2756.57
848.31	2404.32
848.48	2330.59
848.65	2453.47
848.82	2363.36
848.98	2727.89
849.15	2498.52
849.32	2500.57
849.49	2535.39
849.66	2418.65
849.83	2375.64
850.00	2252.77
850.17	2584.54
850.34	2484.19
850.51	2322.40
850.68	2387.93
850.85	2772.95
851.01	2588.63
851.18	2449.37
851.35	2473.95
851.52	2465.75
851.69	2645.98
851.86	2275.29
852.03	2359.26
852.20	2500.57
852.37	2506.71
852.53	2308.06
852.70	2324.44
852.87	2508.76
853.04	2584.54
853.21	2365.40
853.38	2516.95
853.55	2531.29
853.72	2672.60
853.89	2324.44
854.05	2383.84
854.22	2465.75
854.39	2461.66
854.56	2389.98
854.73	2539.48
854.90	2414.56
855.07	2379.74
855.23	2340.83
855.40	2287.58
855.57	2482.14
855.74	2281.44
855.91	2529.24
856.08	2293.72
856.25	2369.50
856.41	2394.08
856.58	2322.40
856.75	2394.08
856.92	2316.25
857.09	2572.25
857.26	2226.14
857.42	2463.71
857.59	2545.63
857.76	2490.33
857.93	2404.32
858.10	2455.51
858.27	2269.15
858.43	2465.75
858.60	2416.60
858.77	2217.95
858.94	2465.75
859.11	2607.06
859.27	2441.18
859.44	2398.17
859.61	2754.52
859.78	2586.58
859.95	2398.17
860.12	2318.30
860.28	2705.37
860.45	2684.89
860.62	2353.12
860.79	2465.75
860.95	2516.95
861.12	2332.64
861.29	2392.03
861.46	2322.40
861.63	2357.21
861.79	2547.67
861.96	2308.06
862.13	2353.12
862.30	2658.26
862.47	2410.46
862.63	2308.06
862.80	2457.56
862.97	2588.63
863.14	2516.95
863.30	2418.65
863.47	2299.87
863.64	2643.93
863.81	2461.66
863.97	2338.78
864.14	2494.43
864.31	2469.85
864.48	2467.80
864.65	2389.98
864.81	2430.94
864.98	2531.29
865.15	2637.78
865.32	2381.79
865.48	2453.47
865.65	2643.93
865.82	2369.50
865.98	2342.88
866.15	2496.47
866.32	2445.27
866.49	2408.41
866.65	2510.81
866.82	2263.01
866.99	2422.75
867.16	2308.06
867.32	2375.64
867.49	2316.25
867.66	2375.64
867.83	2408.41
867.99	2291.68
868.16	2351.07
868.33	2357.21
868.49	2523.10
868.66	2379.74
868.83	2478.04
868.99	2432.99
869.16	2508.76
869.33	2545.63
869.50	2359.26
869.66	2486.23
869.83	2541.53
870.00	2252.77
870.16	2457.56
870.33	2445.27
870.50	2586.58
870.66	2441.18
870.83	2478.04
871.00	2484.19
871.17	2580.44
871.33	2369.50
871.50	2392.03
871.67	2408.41
871.83	2252.77
872.00	2465.75
872.17	2437.08
872.33	2731.99
872.50	2562.01
872.67	2410.46
872.83	2451.42
873.00	2521.05
873.17	2463.71
873.33	2424.80
873.50	2430.94
873.67	2342.88
873.83	2389.98
874.00	2377.69
874.16	2555.86
874.33	2551.77
874.50	2432.99
874.66	2291.68
874.83	2422.75
875.00	2609.11
875.16	2613.21
875.33	2398.17
875.50	2195.42
875.66	2414.56
875.83	2535.39
875.99	2437.08
876.16	2441.18
876.33	2375.64
876.49	2482.14
876.66	2406.36
876.83	2459.61
876.99	2281.44
877.16	2381.79
877.32	2412.51
877.49	2383.84
877.66	2547.67
877.82	2711.51
877.99	2435.03
878.15	2551.77
878.32	2568.15
878.49	2559.96
878.65	2422.75
878.82	2533.34
878.98	2469.85
879.15	2605.02
879.32	2535.39
879.48	2408.41
879.65	2426.84
879.81	2408.41
879.98	2428.89
880.15	2392.03
880.31	2506.71
880.48	2389.98
880.64	2494.43
880.81	2443.23
880.97	2684.89
881.14	2654.17
881.31	2316.25
881.47	2621.40
881.64	2406.36
881.80	2291.68
881.97	2449.37
882.13	2439.13
882.30	2342.88
882.47	2387.93
882.63	2351.07
882.80	2379.74
882.96	2424.80
883.13	2676.70
883.29	2318.30
883.46	2357.21
883.62	2787.29
883.79	2580.44
883.95	2531.29
884.12	2363.36
884.29	2697.17
884.45	2459.61
884.62	2457.56
884.78	2375.64
884.95	2654.17
885.11	2342.88
885.28	2506.71
885.44	2349.02
885.61	2588.63
885.77	2637.78
885.94	2486.23
886.10	2473.95
886.27	2471.90
886.43	2652.12
886.60	2621.40
886.76	2336.73
886.93	2334.68
887.09	2502.62
887.26	2291.68
887.42	2449.37
887.59	2586.58
887.75	2797.53
887.92	2523.10
888.08	2453.47
888.25	2695.13
888.41	2629.59
888.58	2441.18
888.74	2273.25
888.91	2359.26
>>>>>End Processed Spectral Data<<<<<
