SpectraSuite Data File
++++++++++++++++++++++++++++++++++++
Date: Thu May 05 14:41:44 CEST 2016
User: root
Dark Spectrum Present: No
Reference Spectrum Present: No
Number of Sampled Component Spectra: 1
Spectrometers: USB4C02835
Integration Time (usec): 100000 (USB4C02835)
Spectra Averaged: 1 (USB4C02835)
Boxcar Smoothing: 0 (USB4C02835)
Correct for Electrical Dark: No (USB4C02835)
Strobe/Lamp Enabled: No (USB4C02835)
Correct for Detector Non-linearity: No (USB4C02835)
Correct for Stray Light: No (USB4C02835)
Number of Pixels in Processed Spectrum: 3648
>>>>>Begin Processed Spectral Data<<<<<
177.47	1890.28
177.69	1890.28
177.91	1890.28
178.13	1933.28
178.36	1894.37
178.58	2363.36
178.80	2535.39
179.02	2312.16
179.24	2373.60
179.46	2338.78
179.68	2420.70
179.90	2519.00
180.13	2504.67
180.35	2291.68
180.57	2326.49
180.79	2559.96
181.01	2437.08
181.23	2318.30
181.45	2469.85
181.67	2547.67
181.90	2594.78
182.12	2359.26
182.34	2238.43
182.56	2529.24
182.78	2557.91
183.00	2324.44
183.22	2353.12
183.44	2277.34
183.66	2818.00
183.89	2437.08
184.11	2371.55
184.33	2631.64
184.55	2650.07
184.77	2414.56
184.99	2367.45
185.21	2502.62
185.43	2787.29
185.65	2334.68
185.87	2365.40
186.10	2760.66
186.32	2785.24
186.54	2381.79
186.76	2443.23
186.98	2645.98
187.20	2478.04
187.42	2420.70
187.64	2373.60
187.86	2502.62
188.08	2605.02
188.30	2287.58
188.52	2330.59
188.75	2625.50
188.97	2596.82
189.19	2349.02
189.41	2346.97
189.63	2607.06
189.85	2412.51
190.07	2242.53
190.29	2187.23
190.51	2555.86
190.73	2289.63
190.95	2432.99
191.17	2369.50
191.39	2176.99
191.61	2465.75
191.84	2334.68
192.06	2424.80
192.28	2299.87
192.50	2846.68
192.72	2375.64
192.94	2383.84
193.16	2678.74
193.38	2492.38
193.60	2269.15
193.82	2369.50
194.04	2586.58
194.26	2502.62
194.48	2338.78
194.70	2330.59
194.92	2457.56
195.14	2547.67
195.36	2342.88
195.58	2443.23
195.80	2461.66
196.02	2428.89
196.24	2291.68
196.46	2387.93
196.69	2344.92
196.91	2783.19
197.13	2301.92
197.35	2432.99
197.57	2756.57
197.79	2523.10
198.01	2412.51
198.23	2424.80
198.45	2545.63
198.67	2365.40
198.89	2201.57
199.11	2420.70
199.33	2445.27
199.55	2244.57
199.77	2299.87
199.99	2389.98
200.21	2529.24
200.43	2588.63
200.65	2230.24
200.87	2197.47
201.09	2492.38
201.31	2478.04
201.53	2473.95
201.75	2408.41
201.97	2482.14
202.19	2455.51
202.41	2424.80
202.63	2533.34
202.85	2543.58
203.07	2539.48
203.29	2392.03
203.51	2328.54
203.73	2363.36
203.95	2889.68
204.17	2422.75
204.39	2475.99
204.61	2506.71
204.83	2432.99
205.05	2408.41
205.27	2392.03
205.49	2750.42
205.71	2523.10
205.93	2203.61
206.15	2285.53
206.37	2535.39
206.59	2410.46
206.81	2234.33
207.03	2246.62
207.25	2396.12
207.47	2506.71
207.69	2430.94
207.91	2559.96
208.13	2662.36
208.34	2461.66
208.56	2314.20
208.78	2383.84
209.00	2392.03
209.22	2334.68
209.44	2351.07
209.66	2265.05
209.88	2473.95
210.10	2412.51
210.32	2373.60
210.54	2435.03
210.76	2449.37
210.98	2566.10
211.20	2191.33
211.42	2432.99
211.64	2645.98
211.86	2555.86
212.08	2363.36
212.30	2398.17
212.52	2463.71
212.74	2545.63
212.96	2392.03
213.17	2480.09
213.39	2662.36
213.61	2676.70
213.83	2310.11
214.05	2422.75
214.27	2580.44
214.49	2330.59
214.71	2322.40
214.93	2400.22
215.15	2465.75
215.37	2580.44
215.59	2293.72
215.81	2365.40
216.03	2729.94
216.24	2547.67
216.46	2410.46
216.68	2449.37
216.90	2607.06
217.12	2635.74
217.34	2334.68
217.56	2486.23
217.78	2740.18
218.00	2539.48
218.22	2389.98
218.44	2502.62
218.66	2527.19
218.87	2777.05
219.09	2326.49
219.31	2449.37
219.53	2457.56
219.75	2445.27
219.97	2373.60
220.19	2359.26
220.41	2441.18
220.63	2715.61
220.85	2322.40
221.06	2373.60
221.28	2617.30
221.50	2516.95
221.72	2338.78
221.94	2342.88
222.16	2486.23
222.38	2637.78
222.60	2344.92
222.82	2400.22
223.03	2570.20
223.25	2381.79
223.47	2447.32
223.69	2537.43
223.91	2633.69
224.13	2539.48
224.35	2224.09
224.57	2527.19
224.78	2566.10
225.00	2365.40
225.22	2334.68
225.44	2260.96
225.66	2645.98
225.88	2408.41
226.10	2502.62
226.32	2406.36
226.53	2598.87
226.75	2471.90
226.97	2392.03
227.19	2432.99
227.41	2457.56
227.63	2375.64
227.85	2136.03
228.06	2346.97
228.28	2422.75
228.50	2650.07
228.72	2252.77
228.94	2344.92
229.16	2244.57
229.37	2330.59
229.59	2316.25
229.81	2588.63
230.03	2475.99
230.25	2410.46
230.47	2246.62
230.69	2277.34
230.90	2566.10
231.12	2387.93
231.34	2410.46
231.56	2453.47
231.78	2377.69
232.00	2535.39
232.21	2387.93
232.43	2359.26
232.65	2242.53
232.87	2547.67
233.09	2252.77
233.30	2285.53
233.52	2617.30
233.74	2416.60
233.96	2389.98
234.18	2453.47
234.40	2490.33
234.61	2760.66
234.83	2240.48
235.05	2228.19
235.27	2805.72
235.49	2562.01
235.70	2312.16
235.92	2473.95
236.14	2535.39
236.36	2740.18
236.58	2228.19
236.79	2455.51
237.01	2475.99
237.23	2459.61
237.45	2498.52
237.67	2328.54
237.88	2469.85
238.10	2772.95
238.32	2248.67
238.54	2314.20
238.76	2510.81
238.97	2406.36
239.19	2291.68
239.41	2349.02
239.63	2594.78
239.85	2394.08
240.06	2389.98
240.28	2361.31
240.50	2621.40
240.72	2482.14
240.93	2238.43
241.15	2473.95
241.37	2531.29
241.59	2670.55
241.81	2404.32
242.02	2283.49
242.24	2402.27
242.46	2645.98
242.68	2283.49
242.89	2408.41
243.11	2598.87
243.33	2414.56
243.55	2344.92
243.76	2420.70
243.98	2449.37
244.20	2504.67
244.42	2314.20
244.64	2437.08
244.85	2322.40
245.07	2410.46
245.29	2349.02
245.51	2334.68
245.72	2551.77
245.94	2547.67
246.16	2379.74
246.38	2475.99
246.59	2432.99
246.81	2410.46
247.03	2293.72
247.24	2220.00
247.46	2475.99
247.68	2533.34
247.90	2310.11
248.11	2301.92
248.33	2562.01
248.55	2480.09
248.77	2447.32
248.98	2392.03
249.20	2770.90
249.42	2426.84
249.64	2359.26
249.85	2330.59
250.07	2365.40
250.29	2510.81
250.50	2445.27
250.72	2224.09
250.94	2465.75
251.16	2723.80
251.37	2349.02
251.59	2373.60
251.81	2535.39
252.02	2629.59
252.24	2275.29
252.46	2447.32
252.68	2447.32
252.89	2490.33
253.11	2220.00
253.33	2437.08
253.54	2613.21
253.76	2410.46
253.98	2318.30
254.20	2371.55
254.41	2377.69
254.63	2406.36
254.85	2283.49
255.06	2389.98
255.28	2504.67
255.50	2459.61
255.71	2369.50
255.93	2131.94
256.15	2392.03
256.36	2537.43
256.58	2226.14
256.80	2361.31
257.02	2453.47
257.23	2500.57
257.45	2379.74
257.67	2400.22
257.88	2338.78
258.10	2588.63
258.32	2342.88
258.53	2432.99
258.75	2654.17
258.97	2385.88
259.18	2279.39
259.40	2351.07
259.62	2711.51
259.83	2562.01
260.05	2299.87
260.27	2928.60
260.48	2527.19
260.70	2301.92
260.92	2289.63
261.13	2387.93
261.35	2451.42
261.57	2537.43
261.78	2269.15
262.00	2299.87
262.22	2572.25
262.43	2396.12
262.65	2312.16
262.86	2449.37
263.08	2809.81
263.30	2506.71
263.51	2269.15
263.73	2340.83
263.95	2539.48
264.16	2314.20
264.38	2314.20
264.60	2344.92
264.81	2469.85
265.03	2609.11
265.25	2551.77
265.46	2318.30
265.68	2660.31
265.89	2514.91
266.11	2310.11
266.33	2381.79
266.54	2617.30
266.76	2582.49
266.98	2465.75
267.19	2471.90
267.41	2635.74
267.62	2449.37
267.84	2236.38
268.06	2373.60
268.27	2508.76
268.49	2619.35
268.70	2408.41
268.92	2416.60
269.14	2392.03
269.35	2316.25
269.57	2375.64
269.79	2414.56
270.00	2428.89
270.22	2645.98
270.43	2334.68
270.65	2263.01
270.87	2482.14
271.08	2441.18
271.30	2428.89
271.51	2406.36
271.73	2531.29
271.95	2625.50
272.16	2295.77
272.38	2459.61
272.59	2463.71
272.81	2553.82
273.02	2400.22
273.24	2412.51
273.46	2580.44
273.67	2336.73
273.89	2295.77
274.10	2355.16
274.32	2551.77
274.54	2578.39
274.75	2404.32
274.97	2344.92
275.18	2564.06
275.40	2531.29
275.61	2453.47
275.83	2508.76
276.05	2344.92
276.26	2453.47
276.48	2441.18
276.69	2398.17
276.91	2334.68
277.12	2701.27
277.34	2514.91
277.55	2607.06
277.77	2471.90
277.99	2422.75
278.20	2389.98
278.42	2285.53
278.63	2443.23
278.85	2392.03
279.06	2334.68
279.28	2510.81
279.49	2602.97
279.71	2441.18
279.93	2441.18
280.14	2465.75
280.36	2432.99
280.57	2551.77
280.79	2432.99
281.00	2320.35
281.22	2381.79
281.43	2643.93
281.65	2242.53
281.86	2357.21
282.08	2449.37
282.29	2662.36
282.51	2260.96
282.73	2367.45
282.94	2330.59
283.16	2527.19
283.37	2559.96
283.59	2469.85
283.80	2580.44
284.02	2457.56
284.23	2455.51
284.45	2389.98
284.66	2308.06
284.88	2373.60
285.09	2367.45
285.31	2512.86
285.52	2557.91
285.74	2220.00
285.95	2568.15
286.17	2408.41
286.38	2621.40
286.60	2383.84
286.81	2353.12
287.03	2426.84
287.24	2543.58
287.46	2602.97
287.67	2498.52
287.89	2559.96
288.10	2461.66
288.32	2519.00
288.53	2590.68
288.75	2432.99
288.96	2586.58
289.18	2453.47
289.39	2408.41
289.61	2467.80
289.82	2719.70
290.04	2703.32
290.25	2293.72
290.47	2488.28
290.68	2428.89
290.90	2635.74
291.11	2263.01
291.33	2531.29
291.54	2420.70
291.76	2379.74
291.97	2478.04
292.18	2422.75
292.40	2449.37
292.61	2367.45
292.83	2805.72
293.04	2523.10
293.26	2484.19
293.47	2508.76
293.69	2363.36
293.90	2353.12
294.12	2631.64
294.33	2498.52
294.55	2453.47
294.76	2521.05
294.97	2600.92
295.19	2897.88
295.40	2389.98
295.62	2512.86
295.83	2605.02
296.05	2439.13
296.26	2621.40
296.48	2385.88
296.69	2445.27
296.90	2463.71
297.12	2496.47
297.33	2568.15
297.55	2449.37
297.76	2539.48
297.98	2506.71
298.19	2428.89
298.41	2482.14
298.62	2394.08
298.83	2555.86
299.05	2498.52
299.26	2396.12
299.48	2486.23
299.69	2453.47
299.90	2432.99
300.12	2332.64
300.33	2596.82
300.55	2467.80
300.76	2482.14
300.98	2387.93
301.19	2572.25
301.40	2430.94
301.62	2422.75
301.83	2537.43
302.05	2529.24
302.26	2326.49
302.47	2512.86
302.69	2381.79
302.90	2539.48
303.12	2244.57
303.33	2471.90
303.54	2779.09
303.76	2457.56
303.97	2461.66
304.19	2637.78
304.40	2373.60
304.61	2559.96
304.83	2621.40
305.04	2539.48
305.26	2615.26
305.47	2525.15
305.68	2435.03
305.90	2324.44
306.11	2676.70
306.33	2447.32
306.54	2367.45
306.75	2392.03
306.97	2314.20
307.18	2373.60
307.39	2465.75
307.61	2461.66
307.82	2521.05
308.04	2428.89
308.25	2375.64
308.46	2492.38
308.68	2478.04
308.89	2451.42
309.10	2557.91
309.32	2381.79
309.53	2453.47
309.74	2562.01
309.96	2408.41
310.17	2527.19
310.39	2471.90
310.60	2549.72
310.81	2365.40
311.03	2287.58
311.24	2572.25
311.45	2463.71
311.67	2639.83
311.88	2574.30
312.09	2420.70
312.31	2424.80
312.52	2461.66
312.73	2336.73
312.95	2367.45
313.16	2351.07
313.37	2633.69
313.59	2529.24
313.80	2557.91
314.01	2731.99
314.23	2379.74
314.44	2392.03
314.65	2336.73
314.87	2308.06
315.08	2365.40
315.29	2357.21
315.51	2377.69
315.72	2320.35
315.93	2527.19
316.15	2461.66
316.36	2451.42
316.57	2519.00
316.79	2471.90
317.00	2455.51
317.21	2557.91
317.43	2375.64
317.64	2480.09
317.85	2365.40
318.07	2400.22
318.28	2457.56
318.49	2494.43
318.70	2701.27
318.92	2543.58
319.13	2572.25
319.34	2705.37
319.56	2531.29
319.77	2582.49
319.98	2645.98
320.20	2574.30
320.41	2416.60
320.62	2568.15
320.83	2361.31
321.05	2605.02
321.26	2490.33
321.47	2508.76
321.69	2596.82
321.90	2236.38
322.11	2334.68
322.32	2555.86
322.54	2621.40
322.75	2408.41
322.96	2908.12
323.18	2289.63
323.39	2310.11
323.60	2293.72
323.81	2566.10
324.03	2357.21
324.24	2465.75
324.45	2469.85
324.66	2410.46
324.88	2654.17
325.09	2652.12
325.30	2469.85
325.52	2463.71
325.73	2539.48
325.94	2416.60
326.15	2236.38
326.37	2295.77
326.58	2615.26
326.79	2611.16
327.00	2367.45
327.22	2398.17
327.43	2473.95
327.64	2365.40
327.85	2412.51
328.07	2475.99
328.28	2725.85
328.49	2473.95
328.70	2408.41
328.92	2439.13
329.13	2475.99
329.34	2529.24
329.55	2535.39
329.76	2531.29
329.98	2531.29
330.19	2635.74
330.40	2541.53
330.61	2441.18
330.83	2627.54
331.04	2373.60
331.25	2482.14
331.46	2422.75
331.68	2371.55
331.89	2605.02
332.10	2463.71
332.31	2293.72
332.52	2424.80
332.74	2623.45
332.95	2285.53
333.16	2432.99
333.37	2516.95
333.58	2392.03
333.80	2455.51
334.01	2281.44
334.22	2410.46
334.43	2453.47
334.64	2424.80
334.86	2344.92
335.07	2303.96
335.28	2658.26
335.49	2252.77
335.70	2514.91
335.92	2596.82
336.13	2830.29
336.34	2510.81
336.55	2496.47
336.76	2516.95
336.98	2297.82
337.19	2408.41
337.40	2498.52
337.61	2793.43
337.82	2465.75
338.04	2490.33
338.25	2248.67
338.46	2482.14
338.67	2416.60
338.88	2447.32
339.09	2273.25
339.31	2463.71
339.52	2363.36
339.73	2322.40
339.94	2398.17
340.15	2584.54
340.36	2306.01
340.58	2523.10
340.79	2330.59
341.00	2621.40
341.21	2447.32
341.42	2635.74
341.63	2387.93
341.85	2602.97
342.06	2432.99
342.27	2365.40
342.48	2424.80
342.69	2275.29
342.90	2519.00
343.12	2572.25
343.33	2441.18
343.54	2543.58
343.75	2676.70
343.96	2461.66
344.17	2369.50
344.38	2506.71
344.60	2473.95
344.81	2316.25
345.02	2424.80
345.23	2691.03
345.44	2797.53
345.65	2537.43
345.86	2547.67
346.07	2543.58
346.29	2357.21
346.50	2531.29
346.71	2494.43
346.92	2592.73
347.13	2830.29
347.34	2451.42
347.55	2392.03
347.76	2463.71
347.98	2320.35
348.19	2439.13
348.40	2553.82
348.61	2412.51
348.82	2609.11
349.03	2494.43
349.24	2373.60
349.45	2746.33
349.66	2248.67
349.88	2381.79
350.09	2387.93
350.30	2678.74
350.51	2635.74
350.72	2547.67
350.93	2430.94
351.14	2432.99
351.35	2502.62
351.56	2435.03
351.77	2506.71
351.99	2484.19
352.20	2695.13
352.41	2469.85
352.62	2220.00
352.83	2533.34
353.04	2506.71
353.25	2396.12
353.46	2523.10
353.67	2465.75
353.88	2228.19
354.09	2432.99
354.30	2496.47
354.52	2607.06
354.73	2469.85
354.94	2406.36
355.15	2439.13
355.36	2668.50
355.57	2396.12
355.78	2422.75
355.99	2400.22
356.20	2416.60
356.41	2637.78
356.62	2543.58
356.83	2422.75
357.04	2660.31
357.25	2283.49
357.46	2447.32
357.68	2230.24
357.89	2371.55
358.10	2412.51
358.31	2410.46
358.52	2381.79
358.73	2363.36
358.94	2482.14
359.15	2396.12
359.36	2379.74
359.57	2480.09
359.78	2475.99
359.99	2523.10
360.20	2351.07
360.41	2430.94
360.62	2516.95
360.83	2490.33
361.04	2494.43
361.25	2482.14
361.46	2615.26
361.67	2492.38
361.88	2539.48
362.09	2588.63
362.30	2557.91
362.51	2303.96
362.72	2435.03
362.93	2602.97
363.14	2549.72
363.35	2412.51
363.56	2381.79
363.78	2629.59
363.99	2588.63
364.20	2449.37
364.41	2527.19
364.62	2625.50
364.83	2578.39
365.04	2455.51
365.25	2453.47
365.46	2678.74
365.67	2365.40
365.88	2437.08
366.09	2326.49
366.30	2428.89
366.51	2572.25
366.72	2314.20
366.93	2385.88
367.14	2514.91
367.35	2650.07
367.56	2435.03
367.77	2492.38
367.98	2463.71
368.18	2533.34
368.39	2496.47
368.60	2359.26
368.81	2523.10
369.02	2572.25
369.23	2463.71
369.44	2332.64
369.65	2445.27
369.86	2541.53
370.07	2535.39
370.28	2256.86
370.49	2496.47
370.70	2564.06
370.91	2330.59
371.12	2306.01
371.33	2615.26
371.54	2351.07
371.75	2465.75
371.96	2138.08
372.17	2562.01
372.38	2486.23
372.59	2432.99
372.80	2342.88
373.01	2467.80
373.22	2488.28
373.43	2398.17
373.64	2279.39
373.85	2629.59
374.06	2764.76
374.26	2570.20
374.47	2523.10
374.68	2617.30
374.89	2519.00
375.10	2381.79
375.31	2562.01
375.52	2449.37
375.73	2506.71
375.94	2334.68
376.15	2555.86
376.36	2430.94
376.57	2373.60
376.78	2439.13
376.99	2469.85
377.20	2645.98
377.40	2422.75
377.61	2656.22
377.82	2410.46
378.03	2676.70
378.24	2559.96
378.45	2408.41
378.66	2478.04
378.87	2353.12
379.08	2275.29
379.29	2420.70
379.50	2541.53
379.71	2521.05
379.91	2592.73
380.12	2414.56
380.33	2432.99
380.54	2494.43
380.75	2478.04
380.96	2353.12
381.17	2457.56
381.38	2379.74
381.59	2437.08
381.80	2375.64
382.00	2609.11
382.21	2482.14
382.42	2637.78
382.63	2742.23
382.84	2523.10
383.05	2557.91
383.26	2658.26
383.47	2488.28
383.68	2510.81
383.88	2566.10
384.09	2549.72
384.30	2555.86
384.51	2514.91
384.72	2408.41
384.93	2392.03
385.14	2480.09
385.35	2521.05
385.55	2359.26
385.76	2658.26
385.97	2379.74
386.18	2340.83
386.39	2406.36
386.60	2389.98
386.81	2373.60
387.02	2418.65
387.22	2342.88
387.43	2596.82
387.64	2549.72
387.85	2621.40
388.06	2611.16
388.27	4202.43
388.48	8263.55
388.68	11820.88
388.89	14595.87
389.10	15703.82
389.31	14776.09
389.52	11646.80
389.73	10096.49
389.93	9025.40
390.14	8286.08
390.35	7430.03
390.56	6559.64
390.77	5562.28
390.98	4140.99
391.18	3440.59
391.39	2873.30
391.60	2535.39
391.81	2588.63
392.02	2445.27
392.23	2768.85
392.43	2553.82
392.64	2662.36
392.85	2441.18
393.06	2621.40
393.27	2543.58
393.47	2336.73
393.68	2490.33
393.89	2404.32
394.10	2559.96
394.31	2426.84
394.52	2412.51
394.72	2435.03
394.93	2682.84
395.14	2367.45
395.35	2527.19
395.56	2375.64
395.76	2516.95
395.97	2492.38
396.18	2553.82
396.39	2611.16
396.60	3000.27
396.80	2799.57
397.01	2609.11
397.22	2592.73
397.43	2650.07
397.64	2473.95
397.84	2648.02
398.05	2701.27
398.26	2453.47
398.47	2531.29
398.67	2553.82
398.88	2490.33
399.09	2607.06
399.30	2367.45
399.51	2478.04
399.71	2332.64
399.92	2473.95
400.13	2465.75
400.34	2375.64
400.54	2510.81
400.75	2654.17
400.96	2398.17
401.17	2654.17
401.37	2537.43
401.58	2408.41
401.79	2396.12
402.00	2519.00
402.21	2861.01
402.41	2801.62
402.62	2793.43
402.83	2875.35
403.04	2867.16
403.24	3108.82
403.45	2547.67
403.66	2838.48
403.87	2727.89
404.07	2772.95
404.28	2676.70
404.49	2682.84
404.70	2559.96
404.90	2551.77
405.11	2539.48
405.32	2445.27
405.52	2457.56
405.73	2430.94
405.94	2367.45
406.15	2498.52
406.35	2576.34
406.56	2600.92
406.77	2449.37
406.98	2435.03
407.18	2439.13
407.39	2721.75
407.60	2441.18
407.80	2498.52
408.01	2463.71
408.22	2506.71
408.43	2330.59
408.63	2506.71
408.84	2559.96
409.05	2623.45
409.25	2398.17
409.46	2457.56
409.67	2541.53
409.88	2373.60
410.08	2473.95
410.29	2443.23
410.50	2570.20
410.70	2559.96
410.91	2287.58
411.12	2535.39
411.32	2478.04
411.53	2404.32
411.74	2533.34
411.95	2523.10
412.15	2539.48
412.36	2619.35
412.57	2627.54
412.77	2658.26
412.98	2441.18
413.19	2437.08
413.39	2490.33
413.60	2453.47
413.81	2639.83
414.01	2351.07
414.22	2535.39
414.43	2506.71
414.63	2490.33
414.84	2592.73
415.05	2379.74
415.25	2349.02
415.46	2568.15
415.67	2381.79
415.87	2521.05
416.08	2453.47
416.29	2371.55
416.49	2609.11
416.70	2459.61
416.91	2398.17
417.11	2465.75
417.32	2613.21
417.53	2545.63
417.73	2508.76
417.94	2494.43
418.15	2543.58
418.35	2439.13
418.56	2500.57
418.77	2775.00
418.97	2523.10
419.18	2463.71
419.38	2222.05
419.59	2475.99
419.80	2791.38
420.00	2332.64
420.21	2439.13
420.42	2717.65
420.62	2494.43
420.83	2349.02
421.04	2461.66
421.24	2494.43
421.45	2555.86
421.65	2523.10
421.86	2394.08
422.07	2545.63
422.27	2588.63
422.48	2369.50
422.69	2392.03
422.89	2406.36
423.10	2432.99
423.30	2365.40
423.51	2533.34
423.72	2580.44
423.92	2592.73
424.13	2379.74
424.33	2482.14
424.54	2607.06
424.75	2492.38
424.95	2629.59
425.16	2428.89
425.36	2516.95
425.57	2594.78
425.78	2553.82
425.98	2555.86
426.19	2455.51
426.39	2467.80
426.60	2521.05
426.81	2521.05
427.01	2531.29
427.22	2398.17
427.42	2220.00
427.63	2344.92
427.83	2621.40
428.04	2639.83
428.25	2463.71
428.45	2547.67
428.66	2592.73
428.86	2545.63
429.07	2389.98
429.28	2482.14
429.48	2496.47
429.69	2428.89
429.89	2514.91
430.10	2308.06
430.30	2639.83
430.51	2514.91
430.71	2367.45
430.92	2424.80
431.13	2480.09
431.33	2547.67
431.54	2531.29
431.74	2547.67
431.95	2793.43
432.15	2379.74
432.36	2424.80
432.56	2478.04
432.77	2684.89
432.98	2695.13
433.18	2547.67
433.39	2385.88
433.59	2453.47
433.80	2680.79
434.00	2602.97
434.21	2414.56
434.41	2439.13
434.62	2846.68
434.82	2283.49
435.03	2363.36
435.23	2602.97
435.44	2230.24
435.64	2408.41
435.85	2508.76
436.06	2586.58
436.26	2656.22
436.47	2449.37
436.67	2400.22
436.88	2523.10
437.08	2652.12
437.29	2615.26
437.49	2541.53
437.70	2613.21
437.90	2478.04
438.11	2695.13
438.31	2480.09
438.52	2756.57
438.72	2705.37
438.93	2736.09
439.13	2555.86
439.34	2748.37
439.54	2512.86
439.75	2592.73
439.95	2545.63
440.16	2441.18
440.36	2572.25
440.57	2531.29
440.77	2447.32
440.98	2557.91
441.18	2541.53
441.39	2424.80
441.59	2414.56
441.80	2805.72
442.00	2502.62
442.21	2598.87
442.41	2398.17
442.62	2617.30
442.82	2430.94
443.02	2396.12
443.23	2533.34
443.43	2428.89
443.64	2660.31
443.84	2422.75
444.05	2562.01
444.25	2535.39
444.46	2482.14
444.66	2457.56
444.87	2688.98
445.07	2359.26
445.28	2412.51
445.48	2582.49
445.69	2490.33
445.89	2820.05
446.09	2432.99
446.30	2772.95
446.50	2951.12
446.71	4609.98
446.91	5767.08
447.12	6549.40
447.32	6985.62
447.53	6547.36
447.73	5590.95
447.93	4800.44
448.14	4585.40
448.34	4421.56
448.55	3825.61
448.75	3833.80
448.96	3596.23
449.16	3293.13
449.36	3137.49
449.57	2719.70
449.77	2580.44
449.98	2514.91
450.18	2475.99
450.39	2576.34
450.59	2564.06
450.79	2422.75
451.00	2406.36
451.20	2596.82
451.41	2459.61
451.61	2525.15
451.81	2506.71
452.02	2441.18
452.22	2498.52
452.43	2465.75
452.63	2342.88
452.84	2396.12
453.04	2383.84
453.24	2494.43
453.45	2381.79
453.65	2461.66
453.86	2525.15
454.06	2543.58
454.26	2541.53
454.47	2416.60
454.67	2650.07
454.87	2521.05
455.08	2498.52
455.28	2572.25
455.49	2576.34
455.69	2514.91
455.89	2715.61
456.10	2564.06
456.30	2447.32
456.51	2555.86
456.71	2531.29
456.91	2465.75
457.12	2506.71
457.32	2523.10
457.52	2402.27
457.73	2539.48
457.93	2535.39
458.14	2498.52
458.34	2344.92
458.54	2377.69
458.75	2410.46
458.95	2545.63
459.15	2445.27
459.36	2543.58
459.56	2519.00
459.76	2752.47
459.97	2428.89
460.17	2504.67
460.37	2578.39
460.58	2473.95
460.78	2519.00
460.99	2404.32
461.19	2422.75
461.39	2463.71
461.60	2494.43
461.80	2562.01
462.00	2322.40
462.21	2416.60
462.41	2371.55
462.61	2310.11
462.82	2297.82
463.02	2535.39
463.22	2521.05
463.43	2551.77
463.63	2373.60
463.83	2674.65
464.04	2498.52
464.24	2508.76
464.44	2359.26
464.64	2549.72
464.85	2555.86
465.05	2586.58
465.25	2494.43
465.46	2439.13
465.66	2609.11
465.86	2539.48
466.07	2492.38
466.27	2496.47
466.47	2301.92
466.68	2287.58
466.88	2668.50
467.08	2531.29
467.29	2580.44
467.49	2545.63
467.69	2449.37
467.89	2607.06
468.10	2422.75
468.30	2521.05
468.50	2637.78
468.71	2617.30
468.91	2398.17
469.11	2596.82
469.31	2478.04
469.52	2367.45
469.72	2748.37
469.92	2600.92
470.13	2414.56
470.33	2531.29
470.53	2506.71
470.73	2848.72
470.94	3276.75
471.14	3442.64
471.34	3866.56
471.54	3749.83
471.75	3391.44
471.95	3110.86
472.15	2983.89
472.36	3018.71
472.56	2957.27
472.76	3057.62
472.96	2910.16
473.17	2756.57
473.37	2727.89
473.57	2568.15
473.77	2576.34
473.98	2504.67
474.18	2430.94
474.38	2858.96
474.58	2535.39
474.79	2381.79
474.99	2514.91
475.19	2578.39
475.39	2367.45
475.60	2547.67
475.80	2428.89
476.00	2430.94
476.20	2486.23
476.41	2572.25
476.61	2484.19
476.81	2703.32
477.01	2441.18
477.21	2731.99
477.42	2605.02
477.62	2406.36
477.82	2557.91
478.02	2449.37
478.23	2490.33
478.43	2383.84
478.63	2514.91
478.83	2416.60
479.03	2420.70
479.24	2652.12
479.44	2727.89
479.64	2392.03
479.84	2220.00
480.04	2392.03
480.25	2607.06
480.45	2473.95
480.65	2424.80
480.85	2688.98
481.06	2519.00
481.26	2488.28
481.46	2465.75
481.66	2639.83
481.86	2353.12
482.06	2545.63
482.27	2408.41
482.47	2428.89
482.67	2539.48
482.87	2375.64
483.07	2514.91
483.28	2449.37
483.48	2361.31
483.68	2400.22
483.88	2369.50
484.08	2273.25
484.29	2344.92
484.49	2494.43
484.69	2340.83
484.89	2701.27
485.09	2617.30
485.29	2557.91
485.50	2521.05
485.70	2471.90
485.90	2607.06
486.10	2502.62
486.30	2471.90
486.50	2611.16
486.71	2549.72
486.91	2521.05
487.11	2574.30
487.31	2308.06
487.51	2551.77
487.71	2359.26
487.91	2349.02
488.12	2404.32
488.32	2152.42
488.52	2447.32
488.72	2308.06
488.92	2508.76
489.12	2617.30
489.32	2572.25
489.53	2467.80
489.73	2332.64
489.93	2701.27
490.13	2398.17
490.33	2279.39
490.53	2506.71
490.73	2578.39
490.94	2308.06
491.14	2580.44
491.34	2572.25
491.54	2818.00
491.74	3430.35
491.94	4071.36
492.14	4339.65
492.34	4337.60
492.54	4065.22
492.75	3434.44
492.95	3448.78
493.15	3192.78
493.35	3135.44
493.55	3117.01
493.75	2987.99
493.95	3067.86
494.15	2736.09
494.35	2637.78
494.56	2435.03
494.76	2457.56
494.96	2506.71
495.16	2430.94
495.36	2531.29
495.56	2471.90
495.76	2543.58
495.96	2504.67
496.16	2373.60
496.36	2697.17
496.56	2461.66
496.77	2529.24
496.97	2467.80
497.17	2654.17
497.37	2310.11
497.57	2521.05
497.77	2519.00
497.97	2387.93
498.17	2488.28
498.37	2398.17
498.57	2545.63
498.77	2432.99
498.97	2584.54
499.17	2662.36
499.38	2465.75
499.58	2613.21
499.78	2613.21
499.98	2613.21
500.18	2484.19
500.38	2457.56
500.58	2645.98
500.78	3135.44
500.98	5373.87
501.18	7565.20
501.38	9166.71
501.58	10067.81
501.78	9985.90
501.98	8036.23
502.18	6578.08
502.38	5906.34
502.58	5375.92
502.78	4896.69
502.98	4542.39
503.18	4476.86
503.38	4110.27
503.59	3528.65
503.79	3389.39
503.99	3176.40
504.19	3078.10
504.39	3078.10
504.59	3131.34
504.79	3178.45
504.99	3135.44
505.19	2756.57
505.39	2760.66
505.59	2846.68
505.79	2871.25
505.99	2760.66
506.19	2523.10
506.39	2752.47
506.59	2537.43
506.79	2496.47
506.99	2662.36
507.19	2465.75
507.39	2559.96
507.59	2365.40
507.79	2375.64
507.99	2414.56
508.19	2455.51
508.39	2469.85
508.59	2426.84
508.79	2598.87
508.99	2742.23
509.19	2318.30
509.39	2617.30
509.59	2359.26
509.79	2449.37
509.99	2602.97
510.19	2592.73
510.39	2543.58
510.59	2488.28
510.79	2359.26
510.99	2301.92
511.19	2482.14
511.39	2691.03
511.59	2637.78
511.79	2648.02
511.99	2463.71
512.19	2725.85
512.38	2555.86
512.58	2465.75
512.78	2469.85
512.98	2619.35
513.18	2701.27
513.38	2318.30
513.58	2510.81
513.78	2408.41
513.98	2418.65
514.18	2379.74
514.38	2408.41
514.58	2543.58
514.78	2400.22
514.98	2367.45
515.18	2498.52
515.38	2371.55
515.58	2686.94
515.78	2408.41
515.98	2396.12
516.18	2510.81
516.38	2453.47
516.57	2410.46
516.77	2400.22
516.97	2588.63
517.17	2459.61
517.37	2226.14
517.57	2519.00
517.77	2508.76
517.97	2453.47
518.17	2564.06
518.37	2336.73
518.57	2445.27
518.77	2478.04
518.97	2463.71
519.16	2615.26
519.36	2680.79
519.56	2478.04
519.76	2420.70
519.96	2469.85
520.16	2684.89
520.36	2445.27
520.56	2670.55
520.76	2449.37
520.96	2482.14
521.16	2586.58
521.35	2600.92
521.55	2582.49
521.75	2568.15
521.95	2494.43
522.15	2318.30
522.35	2383.84
522.55	2432.99
522.75	2559.96
522.95	2475.99
523.14	2330.59
523.34	2574.30
523.54	2531.29
523.74	2523.10
523.94	2486.23
524.14	2314.20
524.34	2627.54
524.54	2584.54
524.73	2471.90
524.93	2590.68
525.13	2564.06
525.33	2265.05
525.53	2676.70
525.73	2555.86
525.93	2523.10
526.13	2383.84
526.32	2439.13
526.52	2742.23
526.72	2629.59
526.92	2408.41
527.12	2355.16
527.32	2389.98
527.52	2527.19
527.71	2488.28
527.91	2449.37
528.11	2482.14
528.31	2471.90
528.51	2369.50
528.71	2488.28
528.90	2564.06
529.10	2635.74
529.30	2551.77
529.50	2258.91
529.70	2559.96
529.90	2465.75
530.09	2445.27
530.29	2316.25
530.49	2359.26
530.69	2797.53
530.89	2428.89
531.09	2498.52
531.28	2469.85
531.48	2648.02
531.68	2432.99
531.88	2492.38
532.08	2607.06
532.28	2447.32
532.47	2426.84
532.67	2605.02
532.87	2514.91
533.07	2344.92
533.27	2523.10
533.46	2531.29
533.66	2551.77
533.86	2473.95
534.06	2463.71
534.26	2500.57
534.45	2486.23
534.65	2621.40
534.85	2559.96
535.05	2379.74
535.25	2643.93
535.44	2228.19
535.64	2492.38
535.84	2381.79
536.04	2385.88
536.24	2412.51
536.43	2373.60
536.63	2457.56
536.83	2435.03
537.03	2496.47
537.22	2267.10
537.42	2332.64
537.62	2465.75
537.82	2416.60
538.02	2566.10
538.21	2613.21
538.41	2856.92
538.61	2529.24
538.81	2480.09
539.00	2592.73
539.20	2310.11
539.40	2457.56
539.60	2498.52
539.79	2609.11
539.99	2523.10
540.19	2322.40
540.39	2463.71
540.58	2527.19
540.78	2609.11
540.98	2514.91
541.18	2629.59
541.37	2486.23
541.57	2521.05
541.77	2627.54
541.97	2406.36
542.16	2332.64
542.36	2439.13
542.56	2490.33
542.76	2695.13
542.95	2545.63
543.15	2611.16
543.35	2611.16
543.54	2424.80
543.74	2353.12
543.94	2719.70
544.14	2435.03
544.33	2572.25
544.53	2336.73
544.73	2519.00
544.93	2394.08
545.12	2490.33
545.32	2392.03
545.52	2435.03
545.71	2357.21
545.91	2490.33
546.11	2435.03
546.30	2373.60
546.50	2437.08
546.70	2430.94
546.90	2519.00
547.09	2310.11
547.29	2422.75
547.49	2545.63
547.68	2418.65
547.88	2412.51
548.08	2625.50
548.27	2838.48
548.47	2449.37
548.67	2349.02
548.87	2535.39
549.06	2424.80
549.26	2514.91
549.46	2564.06
549.65	2471.90
549.85	2482.14
550.05	2480.09
550.24	2359.26
550.44	2424.80
550.64	2471.90
550.83	2457.56
551.03	2590.68
551.23	2641.88
551.42	2572.25
551.62	2445.27
551.82	2449.37
552.01	2480.09
552.21	2633.69
552.41	2475.99
552.60	2633.69
552.80	2521.05
553.00	2357.21
553.19	2381.79
553.39	2723.80
553.59	2398.17
553.78	2572.25
553.98	2494.43
554.17	2312.16
554.37	2566.10
554.57	2516.95
554.76	2346.97
554.96	2441.18
555.16	2531.29
555.35	2492.38
555.55	2543.58
555.75	2512.86
555.94	2639.83
556.14	2273.25
556.33	2498.52
556.53	2494.43
556.73	2545.63
556.92	2527.19
557.12	2551.77
557.32	2719.70
557.51	2715.61
557.71	2543.58
557.90	2654.17
558.10	2711.51
558.30	2473.95
558.49	2396.12
558.69	2482.14
558.88	2600.92
559.08	2559.96
559.28	2519.00
559.47	2500.57
559.67	2574.30
559.86	2867.16
560.06	2539.48
560.26	2469.85
560.45	2568.15
560.65	2480.09
560.84	2658.26
561.04	2400.22
561.24	2637.78
561.43	2293.72
561.63	2613.21
561.82	2426.84
562.02	2578.39
562.22	2432.99
562.41	2283.49
562.61	2383.84
562.80	2443.23
563.00	2807.77
563.19	2543.58
563.39	2498.52
563.59	2562.01
563.78	2336.73
563.98	2310.11
564.17	2387.93
564.37	2289.63
564.56	2555.86
564.76	2424.80
564.96	2627.54
565.15	2596.82
565.35	2799.57
565.54	2465.75
565.74	2578.39
565.93	2539.48
566.13	2562.01
566.32	2496.47
566.52	2504.67
566.71	2441.18
566.91	2641.88
567.11	2592.73
567.30	2404.32
567.50	2543.58
567.69	2553.82
567.89	2467.80
568.08	2389.98
568.28	2447.32
568.47	2424.80
568.67	2461.66
568.86	2457.56
569.06	2654.17
569.25	2457.56
569.45	2367.45
569.64	2389.98
569.84	2478.04
570.04	2531.29
570.23	2375.64
570.43	2471.90
570.62	2592.73
570.82	2682.84
571.01	2308.06
571.21	2379.74
571.40	2441.18
571.60	2562.01
571.79	2613.21
571.99	2465.75
572.18	2367.45
572.38	2545.63
572.57	2500.57
572.77	2514.91
572.96	2779.09
573.16	2512.86
573.35	2377.69
573.55	2631.64
573.74	2537.43
573.94	2543.58
574.13	2463.71
574.33	2586.58
574.52	2645.98
574.71	2537.43
574.91	2527.19
575.10	2346.97
575.30	2424.80
575.49	2428.89
575.69	2473.95
575.88	2631.64
576.08	2500.57
576.27	2699.22
576.47	2523.10
576.66	2635.74
576.86	2625.50
577.05	2559.96
577.25	2576.34
577.44	2680.79
577.64	2428.89
577.83	2596.82
578.02	2480.09
578.22	2613.21
578.41	2758.61
578.61	2545.63
578.80	2396.12
579.00	2430.94
579.19	2519.00
579.39	2553.82
579.58	2529.24
579.77	2441.18
579.97	2662.36
580.16	2662.36
580.36	2568.15
580.55	2557.91
580.75	2549.72
580.94	2580.44
581.13	2637.78
581.33	2676.70
581.52	2445.27
581.72	2779.09
581.91	2641.88
582.11	2506.71
582.30	2648.02
582.49	2566.10
582.69	2658.26
582.88	2574.30
583.08	2412.51
583.27	2625.50
583.47	2482.14
583.66	2465.75
583.85	2441.18
584.05	2437.08
584.24	2541.53
584.44	2412.51
584.63	2672.60
584.82	2760.66
585.02	2760.66
585.21	2660.31
585.41	2609.11
585.60	2584.54
585.79	2742.23
585.99	2766.81
586.18	2600.92
586.37	3264.46
586.57	4986.80
586.76	14860.06
586.96	34242.04
587.15	47770.92
587.34	56790.17
587.54	61023.32
587.73	55868.59
587.93	39030.19
588.12	29552.19
588.31	24002.19
588.51	20956.86
588.70	19334.87
588.89	17071.87
589.09	14995.23
589.28	12738.37
589.47	10202.98
589.67	7888.78
589.86	6154.15
590.06	4622.27
590.25	3819.46
590.44	3321.81
590.64	2979.79
590.83	2768.85
591.02	2799.57
591.22	2525.15
591.41	2637.78
591.60	2576.34
591.80	2768.85
591.99	2404.32
592.18	2453.47
592.38	2629.59
592.57	2453.47
592.76	2490.33
592.96	2535.39
593.15	2514.91
593.34	2721.75
593.54	2531.29
593.73	2539.48
593.92	2609.11
594.12	2592.73
594.31	2643.93
594.50	2656.22
594.70	2654.17
594.89	2785.24
595.08	2379.74
595.28	2572.25
595.47	2858.96
595.66	2609.11
595.86	2375.64
596.05	2402.27
596.24	2576.34
596.43	2693.08
596.63	2660.31
596.82	2547.67
597.01	2514.91
597.21	2686.94
597.40	2613.21
597.59	2531.29
597.79	2537.43
597.98	2568.15
598.17	2633.69
598.36	2613.21
598.56	2588.63
598.75	2457.56
598.94	2566.10
599.14	2498.52
599.33	2480.09
599.52	2623.45
599.71	2574.30
599.91	2543.58
600.10	2572.25
600.29	2506.71
600.48	2572.25
600.68	2562.01
600.87	2529.24
601.06	2416.60
601.26	2455.51
601.45	2514.91
601.64	2420.70
601.83	2631.64
602.03	2416.60
602.22	2316.25
602.41	2631.64
602.60	2777.05
602.80	2602.97
602.99	2541.53
603.18	2488.28
603.37	2553.82
603.57	2510.81
603.76	2559.96
603.95	2662.36
604.14	2426.84
604.34	2449.37
604.53	2383.84
604.72	2570.20
604.91	2611.16
605.10	2459.61
605.30	2412.51
605.49	2758.61
605.68	2623.45
605.87	2564.06
606.07	2422.75
606.26	2471.90
606.45	2617.30
606.64	2449.37
606.84	2463.71
607.03	2539.48
607.22	2588.63
607.41	2445.27
607.60	2502.62
607.80	2617.30
607.99	2510.81
608.18	2531.29
608.37	2510.81
608.56	2465.75
608.76	2697.17
608.95	2691.03
609.14	2543.58
609.33	2717.65
609.52	2734.04
609.72	2625.50
609.91	2729.94
610.10	2580.44
610.29	2717.65
610.48	2586.58
610.68	2559.96
610.87	2469.85
611.06	2562.01
611.25	2480.09
611.44	2545.63
611.63	2463.71
611.83	2656.22
612.02	2375.64
612.21	2580.44
612.40	2248.67
612.59	2371.55
612.79	2314.20
612.98	2449.37
613.17	2660.31
613.36	2461.66
613.55	2654.17
613.74	2521.05
613.93	2693.08
614.13	2758.61
614.32	2727.89
614.51	2715.61
614.70	2586.58
614.89	2555.86
615.08	2594.78
615.28	2990.03
615.47	2404.32
615.66	2633.69
615.85	2543.58
616.04	2736.09
616.23	2605.02
616.42	2605.02
616.62	2512.86
616.81	2527.19
617.00	2541.53
617.19	2547.67
617.38	2465.75
617.57	2478.04
617.76	2635.74
617.95	2535.39
618.15	2545.63
618.34	2695.13
618.53	2273.25
618.72	2688.98
618.91	2596.82
619.10	2629.59
619.29	2498.52
619.48	2527.19
619.68	2402.27
619.87	2430.94
620.06	2371.55
620.25	2594.78
620.44	2396.12
620.63	2484.19
620.82	2465.75
621.01	2572.25
621.20	2519.00
621.39	2516.95
621.59	2539.48
621.78	2510.81
621.97	2541.53
622.16	2553.82
622.35	2523.10
622.54	2541.53
622.73	2562.01
622.92	2220.00
623.11	2580.44
623.30	2498.52
623.49	2564.06
623.68	2461.66
623.88	2676.70
624.07	2418.65
624.26	2453.47
624.45	2432.99
624.64	2400.22
624.83	2580.44
625.02	2428.89
625.21	2449.37
625.40	2557.91
625.59	2588.63
625.78	2523.10
625.97	2658.26
626.16	2668.50
626.35	2625.50
626.54	2557.91
626.74	2658.26
626.93	2488.28
627.12	2547.67
627.31	2596.82
627.50	2437.08
627.69	2637.78
627.88	2365.40
628.07	2486.23
628.26	2260.96
628.45	2383.84
628.64	2334.68
628.83	2416.60
629.02	2443.23
629.21	2502.62
629.40	2531.29
629.59	2334.68
629.78	2461.66
629.97	2531.29
630.16	2539.48
630.35	2484.19
630.54	2529.24
630.73	2465.75
630.92	2549.72
631.11	2424.80
631.30	2465.75
631.49	2615.26
631.68	2516.95
631.87	2559.96
632.06	2322.40
632.25	2766.81
632.44	2566.10
632.63	2519.00
632.82	2496.47
633.01	2490.33
633.20	2670.55
633.39	2473.95
633.58	2361.31
633.77	2568.15
633.96	2727.89
634.15	2592.73
634.34	2547.67
634.53	2627.54
634.72	2408.41
634.91	2267.10
635.10	2410.46
635.29	2574.30
635.48	2527.19
635.67	2449.37
635.86	2336.73
636.05	2711.51
636.24	2541.53
636.43	2504.67
636.62	2564.06
636.81	2299.87
637.00	2514.91
637.19	2502.62
637.38	2516.95
637.57	2473.95
637.76	2580.44
637.95	2654.17
638.14	2502.62
638.33	2529.24
638.52	2508.76
638.71	2371.55
638.89	2351.07
639.08	2838.48
639.27	2658.26
639.46	2688.98
639.65	3094.48
639.84	3190.74
640.03	3313.61
640.22	3153.87
640.41	3166.16
640.60	2824.15
640.79	2795.48
640.98	2682.84
641.17	2715.61
641.36	2658.26
641.55	2768.85
641.74	2396.12
641.92	2475.99
642.11	2424.80
642.30	2488.28
642.49	2400.22
642.68	2392.03
642.87	2473.95
643.06	2504.67
643.25	2373.60
643.44	2320.35
643.63	2398.17
643.82	2617.30
644.00	2328.54
644.19	2502.62
644.38	2349.02
644.57	2549.72
644.76	2457.56
644.95	2496.47
645.14	2488.28
645.33	2461.66
645.52	2449.37
645.71	2314.20
645.89	2361.31
646.08	2447.32
646.27	2461.66
646.46	2654.17
646.65	2301.92
646.84	2471.90
647.03	2330.59
647.22	2527.19
647.40	2523.10
647.59	2494.43
647.78	2207.71
647.97	2410.46
648.16	2402.27
648.35	2641.88
648.54	2602.97
648.73	2383.84
648.91	2516.95
649.10	2475.99
649.29	2402.27
649.48	2369.50
649.67	2568.15
649.86	2494.43
650.05	2473.95
650.23	2686.94
650.42	2572.25
650.61	2858.96
650.80	2684.89
650.99	2801.62
651.18	2629.59
651.36	2703.32
651.55	2441.18
651.74	2541.53
651.93	2529.24
652.12	2453.47
652.31	2451.42
652.49	2514.91
652.68	2473.95
652.87	2621.40
653.06	2514.91
653.25	2711.51
653.44	2496.47
653.62	2703.32
653.81	2408.41
654.00	2467.80
654.19	2596.82
654.38	2820.05
654.56	2594.78
654.75	2392.03
654.94	2572.25
655.13	2504.67
655.32	2445.27
655.51	2541.53
655.69	2443.23
655.88	2633.69
656.07	2357.21
656.26	2559.96
656.45	2367.45
656.63	2494.43
656.82	2514.91
657.01	2590.68
657.20	2428.89
657.38	2748.37
657.57	2441.18
657.76	2326.49
657.95	2594.78
658.14	2437.08
658.32	2461.66
658.51	2322.40
658.70	2582.49
658.89	2482.14
659.08	2478.04
659.26	2719.70
659.45	2447.32
659.64	2637.78
659.83	2506.71
660.01	2850.77
660.20	2521.05
660.39	2719.70
660.58	2250.72
660.76	2625.50
660.95	2301.92
661.14	2467.80
661.33	2349.02
661.51	2437.08
661.70	2432.99
661.89	2512.86
662.08	2537.43
662.26	2320.35
662.45	2336.73
662.64	2678.74
662.83	2490.33
663.01	2367.45
663.20	2463.71
663.39	2658.26
663.58	2435.03
663.76	2480.09
663.95	2496.47
664.14	2385.88
664.32	2369.50
664.51	2430.94
664.70	2215.90
664.89	2494.43
665.07	2306.01
665.26	2602.97
665.45	2295.77
665.64	2568.15
665.82	2385.88
666.01	2539.48
666.20	2349.02
666.38	2580.44
666.57	2650.07
666.76	3923.91
666.95	9559.92
667.13	17702.64
667.32	22689.45
667.51	26095.22
667.69	27506.27
667.88	24491.66
668.07	17467.13
668.25	14448.42
668.44	11943.75
668.63	10274.66
668.81	9043.83
669.00	7819.14
669.19	6938.52
669.38	5955.49
669.56	5132.21
669.75	4499.39
669.94	3807.17
670.12	3272.65
670.31	2875.35
670.50	2809.81
670.68	2662.36
670.87	2580.44
671.06	2576.34
671.24	2535.39
671.43	2809.81
671.62	2592.73
671.80	2445.27
671.99	2514.91
672.18	2467.80
672.36	2600.92
672.55	2594.78
672.74	2447.32
672.92	2539.48
673.11	2613.21
673.29	2439.13
673.48	2463.71
673.67	2461.66
673.85	2572.25
674.04	2432.99
674.23	2596.82
674.41	2719.70
674.60	2336.73
674.79	2277.34
674.97	2369.50
675.16	2588.63
675.34	2539.48
675.53	2480.09
675.72	2514.91
675.90	2760.66
676.09	2392.03
676.28	2482.14
676.46	2306.01
676.65	2641.88
676.83	2340.83
677.02	2432.99
677.21	2525.15
677.39	2547.67
677.58	2389.98
677.77	2424.80
677.95	2443.23
678.14	2416.60
678.32	2469.85
678.51	2365.40
678.70	2740.18
678.88	2455.51
679.07	2553.82
679.25	2531.29
679.44	2490.33
679.63	2306.01
679.81	2535.39
680.00	2633.69
680.18	2568.15
680.37	2664.41
680.55	2447.32
680.74	2326.49
680.93	2246.62
681.11	2551.77
681.30	2475.99
681.48	2504.67
681.67	2416.60
681.85	2494.43
682.04	2473.95
682.23	2566.10
682.41	2449.37
682.60	2432.99
682.78	2488.28
682.97	2389.98
683.15	2543.58
683.34	2519.00
683.53	2584.54
683.71	2320.35
683.90	2572.25
684.08	2717.65
684.27	2496.47
684.45	2523.10
684.64	2678.74
684.82	2498.52
685.01	2572.25
685.19	2512.86
685.38	2658.26
685.57	2512.86
685.75	2398.17
685.94	2398.17
686.12	2414.56
686.31	2342.88
686.49	2629.59
686.68	2324.44
686.86	2512.86
687.05	2416.60
687.23	2621.40
687.42	2478.04
687.60	2373.60
687.79	2639.83
687.97	2756.57
688.16	2600.92
688.34	2588.63
688.53	2306.01
688.71	2559.96
688.90	2609.11
689.08	2486.23
689.27	2340.83
689.45	2564.06
689.64	2531.29
689.82	2422.75
690.01	2596.82
690.19	2455.51
690.38	2461.66
690.56	2605.02
690.75	2359.26
690.93	2473.95
691.12	2398.17
691.30	2478.04
691.49	2457.56
691.67	2451.42
691.86	2793.43
692.04	2488.28
692.23	2473.95
692.41	2559.96
692.60	2799.57
692.78	2594.78
692.97	2521.05
693.15	2615.26
693.34	2637.78
693.52	2652.12
693.71	2478.04
693.89	2428.89
694.08	2316.25
694.26	2506.71
694.44	2543.58
694.63	2611.16
694.81	2351.07
695.00	2363.36
695.18	2588.63
695.37	2734.04
695.55	2473.95
695.74	2422.75
695.92	2449.37
696.10	2680.79
696.29	2346.97
696.47	2392.03
696.66	2365.40
696.84	2263.01
697.03	2443.23
697.21	2699.22
697.40	3669.96
697.58	2588.63
697.76	2361.31
697.95	2432.99
698.13	2349.02
698.32	2445.27
698.50	2475.99
698.68	2441.18
698.87	2514.91
699.05	2721.75
699.24	2457.56
699.42	2379.74
699.61	2486.23
699.79	2437.08
699.97	2478.04
700.16	2295.77
700.34	2361.31
700.53	2480.09
700.71	2613.21
700.89	2555.86
701.08	2504.67
701.26	2467.80
701.45	2969.55
701.63	2465.75
701.81	2377.69
702.00	2326.49
702.18	2514.91
702.37	2412.51
702.55	2688.98
702.73	2695.13
702.92	2605.02
703.10	2828.24
703.28	2691.03
703.47	2428.89
703.65	2721.75
703.84	2703.32
704.02	2445.27
704.20	2668.50
704.39	2488.28
704.57	2488.28
704.75	2611.16
704.94	2617.30
705.12	2592.73
705.30	2865.11
705.49	5455.79
705.67	12840.76
705.86	20690.63
706.04	24329.87
706.22	27633.24
706.41	28175.95
706.59	22744.74
706.77	16447.24
706.96	14010.15
707.14	12296.00
707.32	10600.29
707.51	9211.76
707.69	7595.92
707.87	6154.15
708.06	4970.42
708.24	4155.33
708.42	3366.86
708.61	3268.56
708.79	2723.80
708.97	2598.87
709.16	2707.41
709.34	2502.62
709.52	2527.19
709.71	2428.89
709.89	2555.86
710.07	2367.45
710.26	2342.88
710.44	2457.56
710.62	2580.44
710.80	2437.08
710.99	2578.39
711.17	2617.30
711.35	2332.64
711.54	2445.27
711.72	2602.97
711.90	2611.16
712.09	2428.89
712.27	2420.70
712.45	2555.86
712.63	2441.18
712.82	2531.29
713.00	2387.93
713.18	2562.01
713.37	2600.92
713.55	2588.63
713.73	2545.63
713.91	2580.44
714.10	2379.74
714.28	2455.51
714.46	2453.47
714.65	2469.85
714.83	2598.87
715.01	2531.29
715.19	2535.39
715.38	2344.92
715.56	2519.00
715.74	2412.51
715.92	2342.88
716.11	2592.73
716.29	2312.16
716.47	2445.27
716.65	2430.94
716.84	2357.21
717.02	2514.91
717.20	2283.49
717.38	2428.89
717.57	2486.23
717.75	2437.08
717.93	2482.14
718.11	2588.63
718.30	2342.88
718.48	2516.95
718.66	2519.00
718.84	2547.67
719.03	2510.81
719.21	2318.30
719.39	2697.17
719.57	2574.30
719.75	2602.97
719.94	2363.36
720.12	2375.64
720.30	2480.09
720.48	2553.82
720.67	2389.98
720.85	2355.16
721.03	2400.22
721.21	2332.64
721.39	2613.21
721.58	2527.19
721.76	2430.94
721.94	2512.86
722.12	2455.51
722.30	2693.08
722.49	2426.84
722.67	2392.03
722.85	2496.47
723.03	2351.07
723.21	2342.88
723.40	2523.10
723.58	2605.02
723.76	2611.16
723.94	2686.94
724.12	2539.48
724.30	2674.65
724.49	2576.34
724.67	2435.03
724.85	2619.35
725.03	2308.06
725.21	2631.64
725.40	2635.74
725.58	2439.13
725.76	2650.07
725.94	2547.67
726.12	2398.17
726.30	2437.08
726.49	2361.31
726.67	2498.52
726.85	2504.67
727.03	2967.51
727.21	4218.82
727.39	5885.86
727.57	6754.20
727.76	7348.11
727.94	7530.38
728.12	7002.01
728.30	5478.32
728.48	4945.84
728.66	4456.38
728.84	4087.75
729.03	3506.12
729.21	3309.52
729.39	2873.30
729.57	2754.52
729.75	2650.07
729.93	2598.87
730.11	2406.36
730.30	2467.80
730.48	2492.38
730.66	2590.68
730.84	2633.69
731.02	2480.09
731.20	2465.75
731.38	2559.96
731.56	2326.49
731.74	2385.88
731.93	2506.71
732.11	2523.10
732.29	2363.36
732.47	2443.23
732.65	2559.96
732.83	2619.35
733.01	2564.06
733.19	2398.17
733.37	2637.78
733.56	2502.62
733.74	2367.45
733.92	2609.11
734.10	2473.95
734.28	2519.00
734.46	2271.20
734.64	2449.37
734.82	2394.08
735.00	2346.97
735.18	2367.45
735.36	2428.89
735.54	2465.75
735.73	2426.84
735.91	2502.62
736.09	2541.53
736.27	2482.14
736.45	2539.48
736.63	2316.25
736.81	2461.66
736.99	2580.44
737.17	2627.54
737.35	2461.66
737.53	2482.14
737.71	2441.18
737.89	2535.39
738.07	2375.64
738.25	2400.22
738.43	2355.16
738.61	2430.94
738.80	2320.35
738.98	2351.07
739.16	2441.18
739.34	2379.74
739.52	2639.83
739.70	2486.23
739.88	2588.63
740.06	2594.78
740.24	2213.85
740.42	2580.44
740.60	2281.44
740.78	2398.17
740.96	2246.62
741.14	2439.13
741.32	2553.82
741.50	2334.68
741.68	2674.65
741.86	2605.02
742.04	2373.60
742.22	2355.16
742.40	2506.71
742.58	2586.58
742.76	2330.59
742.94	2512.86
743.12	2314.20
743.30	2457.56
743.48	2656.22
743.66	2379.74
743.84	2521.05
744.02	2480.09
744.20	2570.20
744.38	2283.49
744.56	2322.40
744.74	2734.04
744.92	2564.06
745.10	2570.20
745.28	2527.19
745.46	2676.70
745.64	2324.44
745.82	2523.10
746.00	2449.37
746.18	2482.14
746.36	2432.99
746.54	2480.09
746.72	2383.84
746.90	2363.36
747.08	2654.17
747.26	2420.70
747.44	2543.58
747.62	2539.48
747.80	2523.10
747.98	2498.52
748.15	2414.56
748.33	2793.43
748.51	2430.94
748.69	2584.54
748.87	2406.36
749.05	2451.42
749.23	2494.43
749.41	2492.38
749.59	2428.89
749.77	2602.97
749.95	2475.99
750.13	2449.37
750.31	2574.30
750.49	2490.33
750.67	2656.22
750.85	2715.61
751.03	2574.30
751.20	2775.00
751.38	2457.56
751.56	2467.80
751.74	2500.57
751.92	2379.74
752.10	2342.88
752.28	2619.35
752.46	2371.55
752.64	2424.80
752.82	2465.75
753.00	2627.54
753.18	2410.46
753.35	2473.95
753.53	2473.95
753.71	2529.24
753.89	2543.58
754.07	2527.19
754.25	2566.10
754.43	2465.75
754.61	2318.30
754.79	2482.14
754.97	2482.14
755.14	2602.97
755.32	2269.15
755.50	2486.23
755.68	2535.39
755.86	2367.45
756.04	2447.32
756.22	2258.91
756.40	2623.45
756.57	2619.35
756.75	2516.95
756.93	2602.97
757.11	2633.69
757.29	2357.21
757.47	2387.93
757.65	2351.07
757.82	2197.47
758.00	2324.44
758.18	2381.79
758.36	2400.22
758.54	2664.41
758.72	2250.72
758.90	2553.82
759.07	2519.00
759.25	2363.36
759.43	2508.76
759.61	2295.77
759.79	3491.79
759.97	2578.39
760.15	2359.26
760.32	2363.36
760.50	2574.30
760.68	2695.13
760.86	2357.21
761.04	2629.59
761.22	2586.58
761.39	2480.09
761.57	2514.91
761.75	2455.51
761.93	2596.82
762.11	2435.03
762.28	2465.75
762.46	2387.93
762.64	2594.78
762.82	2353.12
763.00	2353.12
763.18	2592.73
763.35	2355.16
763.53	2500.57
763.71	2551.77
763.89	2467.80
764.07	2531.29
764.24	2500.57
764.42	2596.82
764.60	2377.69
764.78	2586.58
764.96	2553.82
765.13	2598.87
765.31	2387.93
765.49	2523.10
765.67	2400.22
765.84	2396.12
766.02	2428.89
766.20	2349.02
766.38	2488.28
766.56	2535.39
766.73	2607.06
766.91	2482.14
767.09	2455.51
767.27	2543.58
767.44	2367.45
767.62	2652.12
767.80	2465.75
767.98	2437.08
768.15	2432.99
768.33	2535.39
768.51	2613.21
768.69	2588.63
768.87	2465.75
769.04	2449.37
769.22	2736.09
769.40	2572.25
769.58	2680.79
769.75	2502.62
769.93	2670.55
770.11	2412.51
770.28	2349.02
770.46	2529.24
770.64	2596.82
770.82	2469.85
770.99	2392.03
771.17	2564.06
771.35	2351.07
771.53	2465.75
771.70	2422.75
771.88	2551.77
772.06	2523.10
772.23	2424.80
772.41	2482.14
772.59	2453.47
772.77	2359.26
772.94	2455.51
773.12	2543.58
773.30	2394.08
773.47	2471.90
773.65	2310.11
773.83	2631.64
774.01	2437.08
774.18	2260.96
774.36	2531.29
774.54	2334.68
774.71	2492.38
774.89	2351.07
775.07	2357.21
775.24	2379.74
775.42	2410.46
775.60	2736.09
775.78	2408.41
775.95	2277.34
776.13	2326.49
776.31	2203.61
776.48	2449.37
776.66	2594.78
776.84	2453.47
777.01	2404.32
777.19	2371.55
777.37	2418.65
777.54	2633.69
777.72	2658.26
777.90	2498.52
778.07	2377.69
778.25	2875.35
778.43	2529.24
778.60	2383.84
778.78	2551.77
778.96	2600.92
779.13	2379.74
779.31	2512.86
779.49	2424.80
779.66	2484.19
779.84	2408.41
780.01	2387.93
780.19	2375.64
780.37	2674.65
780.54	2619.35
780.72	2357.21
780.90	2430.94
781.07	2410.46
781.25	2443.23
781.43	2559.96
781.60	2478.04
781.78	2627.54
781.95	2471.90
782.13	2398.17
782.31	2420.70
782.48	2250.72
782.66	2475.99
782.83	2625.50
783.01	2504.67
783.19	2568.15
783.36	2447.32
783.54	2365.40
783.72	2465.75
783.89	2447.32
784.07	2463.71
784.24	2473.95
784.42	2576.34
784.60	2441.18
784.77	2549.72
784.95	2301.92
785.12	2285.53
785.30	2510.81
785.47	2392.03
785.65	2258.91
785.83	2486.23
786.00	2459.61
786.18	2504.67
786.35	2351.07
786.53	2357.21
786.71	2578.39
786.88	2514.91
787.06	2551.77
787.23	2424.80
787.41	2353.12
787.58	2414.56
787.76	2310.11
787.94	2478.04
788.11	2490.33
788.29	2353.12
788.46	2394.08
788.64	2349.02
788.81	2400.22
788.99	2416.60
789.16	2344.92
789.34	2420.70
789.52	2346.97
789.69	2383.84
789.87	2246.62
790.04	2406.36
790.22	2494.43
790.39	2731.99
790.57	2398.17
790.74	2426.84
790.92	2543.58
791.09	2334.68
791.27	2435.03
791.44	2471.90
791.62	2590.68
791.79	2531.29
791.97	2537.43
792.15	2736.09
792.32	2465.75
792.50	2555.86
792.67	2631.64
792.85	2598.87
793.02	2523.10
793.20	2461.66
793.37	2293.72
793.55	2410.46
793.72	2334.68
793.90	2572.25
794.07	2361.31
794.25	2371.55
794.42	2531.29
794.60	2463.71
794.77	2447.32
794.95	2555.86
795.12	2613.21
795.30	2457.56
795.47	2248.67
795.65	2815.96
795.82	2508.76
796.00	2326.49
796.17	2498.52
796.34	2412.51
796.52	2527.19
796.69	2580.44
796.87	2449.37
797.04	2482.14
797.22	2617.30
797.39	2478.04
797.57	2539.48
797.74	2545.63
797.92	2514.91
798.09	2453.47
798.27	2658.26
798.44	2486.23
798.62	2416.60
798.79	2486.23
798.96	2473.95
799.14	2475.99
799.31	2809.81
799.49	2465.75
799.66	2424.80
799.84	2465.75
800.01	2314.20
800.19	2459.61
800.36	2273.25
800.53	2426.84
800.71	2514.91
800.88	2701.27
801.06	2422.75
801.23	2437.08
801.41	2445.27
801.58	2342.88
801.75	2416.60
801.93	2473.95
802.10	2514.91
802.28	2496.47
802.45	2428.89
802.63	2564.06
802.80	2562.01
802.97	2457.56
803.15	2430.94
803.32	2430.94
803.50	2420.70
803.67	2332.64
803.84	2383.84
804.02	2461.66
804.19	2488.28
804.37	2240.48
804.54	2289.63
804.71	2359.26
804.89	2478.04
805.06	2377.69
805.24	2289.63
805.41	2308.06
805.58	2416.60
805.76	2809.81
805.93	2490.33
806.10	2650.07
806.28	2625.50
806.45	2478.04
806.63	2568.15
806.80	2523.10
806.97	2496.47
807.15	2496.47
807.32	2424.80
807.49	2473.95
807.67	2373.60
807.84	2582.49
808.01	2287.58
808.19	2568.15
808.36	2711.51
808.54	2435.03
808.71	2338.78
808.88	2465.75
809.06	2654.17
809.23	2701.27
809.40	2457.56
809.58	2543.58
809.75	2512.86
809.92	2293.72
810.10	2605.02
810.27	2365.40
810.44	2527.19
810.62	2617.30
810.79	2504.67
810.96	2441.18
811.14	2357.21
811.31	2559.96
811.48	2523.10
811.66	2394.08
811.83	2500.57
812.00	2576.34
812.18	2582.49
812.35	2705.37
812.52	2432.99
812.69	2420.70
812.87	2373.60
813.04	2402.27
813.21	2447.32
813.39	2406.36
813.56	2322.40
813.73	2586.58
813.91	2361.31
814.08	2461.66
814.25	2381.79
814.42	2256.86
814.60	2465.75
814.77	2508.76
814.94	2396.12
815.12	2529.24
815.29	2695.13
815.46	2353.12
815.63	2463.71
815.81	2420.70
815.98	2416.60
816.15	2480.09
816.33	2424.80
816.50	2396.12
816.67	2412.51
816.84	2420.70
817.02	2342.88
817.19	2396.12
817.36	2551.77
817.53	2494.43
817.71	2392.03
817.88	2486.23
818.05	2459.61
818.22	2451.42
818.40	2635.74
818.57	2467.80
818.74	2537.43
818.91	2392.03
819.09	2539.48
819.26	2467.80
819.43	2426.84
819.60	2334.68
819.78	2529.24
819.95	2559.96
820.12	2326.49
820.29	2598.87
820.47	2533.34
820.64	2328.54
820.81	2365.40
820.98	2328.54
821.15	2398.17
821.33	2465.75
821.50	2285.53
821.67	2572.25
821.84	2412.51
822.02	2467.80
822.19	2521.05
822.36	2396.12
822.53	2392.03
822.70	2357.21
822.88	2441.18
823.05	2605.02
823.22	2416.60
823.39	2457.56
823.56	2490.33
823.74	2731.99
823.91	2371.55
824.08	2328.54
824.25	2338.78
824.42	2650.07
824.60	2344.92
824.77	2502.62
824.94	2461.66
825.11	2551.77
825.28	2334.68
825.45	2521.05
825.63	2469.85
825.80	2318.30
825.97	2512.86
826.14	2521.05
826.31	2252.77
826.48	2504.67
826.66	2308.06
826.83	2412.51
827.00	2457.56
827.17	2359.26
827.34	2367.45
827.51	2420.70
827.69	2510.81
827.86	2324.44
828.03	2445.27
828.20	2473.95
828.37	2404.32
828.54	2553.82
828.71	2389.98
828.89	2590.68
829.06	2572.25
829.23	2695.13
829.40	2338.78
829.57	2404.32
829.74	2500.57
829.91	2406.36
830.09	2416.60
830.26	2600.92
830.43	2660.31
830.60	2371.55
830.77	2531.29
830.94	2564.06
831.11	2578.39
831.28	2383.84
831.46	2586.58
831.63	2422.75
831.80	2559.96
831.97	2449.37
832.14	2402.27
832.31	2475.99
832.48	2461.66
832.65	2621.40
832.82	2557.91
832.99	2512.86
833.17	2334.68
833.34	2625.50
833.51	2498.52
833.68	2242.53
833.85	2623.45
834.02	2392.03
834.19	2381.79
834.36	2422.75
834.53	2531.29
834.70	2596.82
834.87	2506.71
835.04	2402.27
835.22	2465.75
835.39	2455.51
835.56	2269.15
835.73	2424.80
835.90	2545.63
836.07	2357.21
836.24	2410.46
836.41	2381.79
836.58	2326.49
836.75	2623.45
836.92	2420.70
837.09	2381.79
837.26	2580.44
837.43	2428.89
837.60	2439.13
837.77	2324.44
837.94	2576.34
838.12	2627.54
838.29	2404.32
838.46	2240.48
838.63	2351.07
838.80	2707.41
838.97	2441.18
839.14	2389.98
839.31	2473.95
839.48	2514.91
839.65	2439.13
839.82	2473.95
839.99	2529.24
840.16	2480.09
840.33	2332.64
840.50	2418.65
840.67	2326.49
840.84	2224.09
841.01	2379.74
841.18	2340.83
841.35	2506.71
841.52	2549.72
841.69	2670.55
841.86	2416.60
842.03	2463.71
842.20	2615.26
842.37	2383.84
842.54	2389.98
842.71	2455.51
842.88	2269.15
843.05	2435.03
843.22	2443.23
843.39	2521.05
843.56	2408.41
843.73	2392.03
843.90	2379.74
844.07	2473.95
844.24	2521.05
844.41	2486.23
844.58	2392.03
844.75	2475.99
844.92	2553.82
845.09	2365.40
845.26	2322.40
845.43	2621.40
845.60	2463.71
845.77	2564.06
845.94	2465.75
846.10	2621.40
846.27	2301.92
846.44	2236.38
846.61	2324.44
846.78	2504.67
846.95	2564.06
847.12	2408.41
847.29	2332.64
847.46	2457.56
847.63	2572.25
847.80	2308.06
847.97	2441.18
848.14	2723.80
848.31	2424.80
848.48	2234.33
848.65	2445.27
848.82	2441.18
848.98	2711.51
849.15	2449.37
849.32	2514.91
849.49	2562.01
849.66	2379.74
849.83	2428.89
850.00	2367.45
850.17	2574.30
850.34	2430.94
850.51	2310.11
850.68	2301.92
850.85	2699.22
851.01	2471.90
851.18	2416.60
851.35	2318.30
851.52	2531.29
851.69	2645.98
851.86	2324.44
852.03	2357.21
852.20	2547.67
852.37	2459.61
852.53	2359.26
852.70	2349.02
852.87	2473.95
853.04	2605.02
853.21	2424.80
853.38	2471.90
853.55	2605.02
853.72	2662.36
853.89	2326.49
854.05	2367.45
854.22	2443.23
854.39	2414.56
854.56	2334.68
854.73	2469.85
854.90	2404.32
855.07	2463.71
855.23	2316.25
855.40	2328.54
855.57	2506.71
855.74	2201.57
855.91	2512.86
856.08	2285.53
856.25	2242.53
856.41	2385.88
856.58	2387.93
856.75	2410.46
856.92	2279.39
857.09	2629.59
857.26	2322.40
857.42	2336.73
857.59	2586.58
857.76	2398.17
857.93	2449.37
858.10	2385.88
858.27	2349.02
858.43	2498.52
858.60	2359.26
858.77	2287.58
858.94	2480.09
859.11	2641.88
859.27	2346.97
859.44	2344.92
859.61	2736.09
859.78	2496.47
859.95	2426.84
860.12	2363.36
860.28	2752.47
860.45	2738.13
860.62	2363.36
860.79	2449.37
860.95	2478.04
861.12	2338.78
861.29	2291.68
861.46	2322.40
861.63	2377.69
861.79	2498.52
861.96	2385.88
862.13	2359.26
862.30	2602.97
862.47	2408.41
862.63	2291.68
862.80	2398.17
862.97	2619.35
863.14	2467.80
863.30	2414.56
863.47	2326.49
863.64	2602.97
863.81	2426.84
863.97	2283.49
864.14	2445.27
864.31	2416.60
864.48	2529.24
864.65	2293.72
864.81	2553.82
864.98	2486.23
865.15	2564.06
865.32	2463.71
865.48	2480.09
865.65	2680.79
865.82	2365.40
865.98	2398.17
866.15	2428.89
866.32	2473.95
866.49	2457.56
866.65	2519.00
866.82	2306.01
866.99	2494.43
867.16	2432.99
867.32	2308.06
867.49	2340.83
867.66	2490.33
867.83	2398.17
867.99	2281.44
868.16	2383.84
868.33	2342.88
868.49	2441.18
868.66	2375.64
868.83	2496.47
868.99	2523.10
869.16	2432.99
869.33	2494.43
869.50	2445.27
869.66	2496.47
869.83	2375.64
870.00	2314.20
870.16	2555.86
870.33	2394.08
870.50	2547.67
870.66	2371.55
870.83	2435.03
871.00	2541.53
871.17	2496.47
871.33	2441.18
871.50	2359.26
871.67	2435.03
871.83	2338.78
872.00	2473.95
872.17	2453.47
872.33	2570.20
872.50	2572.25
872.67	2379.74
872.83	2379.74
873.00	2512.86
873.17	2480.09
873.33	2428.89
873.50	2473.95
873.67	2398.17
873.83	2349.02
874.00	2342.88
874.16	2553.82
874.33	2531.29
874.50	2367.45
874.66	2424.80
874.83	2449.37
875.00	2605.02
875.16	2568.15
875.33	2371.55
875.50	2230.24
875.66	2430.94
875.83	2449.37
875.99	2381.79
876.16	2412.51
876.33	2383.84
876.49	2439.13
876.66	2449.37
876.83	2365.40
876.99	2334.68
877.16	2422.75
877.32	2367.45
877.49	2447.32
877.66	2572.25
877.82	2619.35
877.99	2428.89
878.15	2543.58
878.32	2510.81
878.49	2580.44
878.65	2404.32
878.82	2574.30
878.98	2389.98
879.15	2707.41
879.32	2494.43
879.48	2461.66
879.65	2387.93
879.81	2424.80
879.98	2342.88
880.15	2369.50
880.31	2611.16
880.48	2447.32
880.64	2473.95
880.81	2506.71
880.97	2662.36
881.14	2553.82
881.31	2318.30
881.47	2516.95
881.64	2461.66
881.80	2308.06
881.97	2435.03
882.13	2457.56
882.30	2365.40
882.47	2359.26
882.63	2318.30
882.80	2379.74
882.96	2449.37
883.13	2555.86
883.29	2408.41
883.46	2357.21
883.62	2809.81
883.79	2506.71
883.95	2539.48
884.12	2383.84
884.29	2629.59
884.45	2537.43
884.62	2467.80
884.78	2367.45
884.95	2574.30
885.11	2457.56
885.28	2490.33
885.44	2406.36
885.61	2547.67
885.77	2672.60
885.94	2506.71
886.10	2500.57
886.27	2527.19
886.43	2697.17
886.60	2521.05
886.76	2330.59
886.93	2414.56
887.09	2500.57
887.26	2252.77
887.42	2480.09
887.59	2600.92
887.75	2693.08
887.92	2551.77
888.08	2510.81
888.25	2777.05
888.41	2576.34
888.58	2449.37
888.74	2308.06
888.91	2398.17
>>>>>End Processed Spectral Data<<<<<
