SpectraSuite Data File
++++++++++++++++++++++++++++++++++++
Date: Thu May 05 14:41:52 CEST 2016
User: root
Dark Spectrum Present: No
Reference Spectrum Present: No
Number of Sampled Component Spectra: 1
Spectrometers: USB4C02835
Integration Time (usec): 100000 (USB4C02835)
Spectra Averaged: 1 (USB4C02835)
Boxcar Smoothing: 0 (USB4C02835)
Correct for Electrical Dark: No (USB4C02835)
Strobe/Lamp Enabled: No (USB4C02835)
Correct for Detector Non-linearity: No (USB4C02835)
Correct for Stray Light: No (USB4C02835)
Number of Pixels in Processed Spectrum: 3648
>>>>>Begin Processed Spectral Data<<<<<
177.47	1898.47
177.69	1898.47
177.91	1898.47
178.13	1927.14
178.36	1939.43
178.58	2400.22
178.80	2408.41
179.02	2353.12
179.24	2340.83
179.46	2326.49
179.68	2373.60
179.90	2439.13
180.13	2529.24
180.35	2193.37
180.57	2295.77
180.79	2605.02
181.01	2449.37
181.23	2385.88
181.45	2439.13
181.67	2553.82
181.90	2506.71
182.12	2342.88
182.34	2306.01
182.56	2564.06
182.78	2512.86
183.00	2322.40
183.22	2359.26
183.44	2265.05
183.66	2809.81
183.89	2539.48
184.11	2310.11
184.33	2580.44
184.55	2645.98
184.77	2342.88
184.99	2344.92
185.21	2475.99
185.43	2756.57
185.65	2351.07
185.87	2301.92
186.10	2762.71
186.32	2848.72
186.54	2512.86
186.76	2365.40
186.98	2555.86
187.20	2432.99
187.42	2306.01
187.64	2365.40
187.86	2465.75
188.08	2654.17
188.30	2281.44
188.52	2430.94
188.75	2623.45
188.97	2580.44
189.19	2308.06
189.41	2301.92
189.63	2539.48
189.85	2412.51
190.07	2205.66
190.29	2246.62
190.51	2490.33
190.73	2289.63
190.95	2496.47
191.17	2381.79
191.39	2359.26
191.61	2449.37
191.84	2306.01
192.06	2453.47
192.28	2324.44
192.50	2865.11
192.72	2408.41
192.94	2396.12
193.16	2605.02
193.38	2504.67
193.60	2367.45
193.82	2443.23
194.04	2547.67
194.26	2469.85
194.48	2301.92
194.70	2414.56
194.92	2445.27
195.14	2570.20
195.36	2326.49
195.58	2359.26
195.80	2400.22
196.02	2400.22
196.24	2299.87
196.46	2469.85
196.69	2365.40
196.91	2756.57
197.13	2340.83
197.35	2336.73
197.57	2660.31
197.79	2559.96
198.01	2338.78
198.23	2373.60
198.45	2596.82
198.67	2275.29
198.89	2318.30
199.11	2428.89
199.33	2342.88
199.55	2308.06
199.77	2346.97
199.99	2482.14
200.21	2422.75
200.43	2557.91
200.65	2283.49
200.87	2275.29
201.09	2531.29
201.31	2412.51
201.53	2387.93
201.75	2394.08
201.97	2510.81
202.19	2422.75
202.41	2430.94
202.63	2512.86
202.85	2570.20
203.07	2572.25
203.29	2344.92
203.51	2254.81
203.73	2428.89
203.95	2789.33
204.17	2412.51
204.39	2432.99
204.61	2437.08
204.83	2426.84
205.05	2416.60
205.27	2346.97
205.49	2750.42
205.71	2459.61
205.93	2289.63
206.15	2306.01
206.37	2486.23
206.59	2455.51
206.81	2283.49
207.03	2363.36
207.25	2322.40
207.47	2596.82
207.69	2342.88
207.91	2488.28
208.13	2641.88
208.34	2441.18
208.56	2308.06
208.78	2338.78
209.00	2469.85
209.22	2482.14
209.44	2314.20
209.66	2316.25
209.88	2482.14
210.10	2471.90
210.32	2328.54
210.54	2416.60
210.76	2510.81
210.98	2625.50
211.20	2269.15
211.42	2371.55
211.64	2652.12
211.86	2531.29
212.08	2392.03
212.30	2283.49
212.52	2453.47
212.74	2506.71
212.96	2435.03
213.17	2457.56
213.39	2555.86
213.61	2639.83
213.83	2359.26
214.05	2432.99
214.27	2541.53
214.49	2394.08
214.71	2252.77
214.93	2512.86
215.15	2482.14
215.37	2615.26
215.59	2215.90
215.81	2371.55
216.03	2621.40
216.24	2457.56
216.46	2359.26
216.68	2439.13
216.90	2623.45
217.12	2596.82
217.34	2430.94
217.56	2486.23
217.78	2674.65
218.00	2584.54
218.22	2392.03
218.44	2420.70
218.66	2473.95
218.87	2801.62
219.09	2308.06
219.31	2338.78
219.53	2580.44
219.75	2420.70
219.97	2396.12
220.19	2301.92
220.41	2396.12
220.63	2686.94
220.85	2375.64
221.06	2291.68
221.28	2637.78
221.50	2547.67
221.72	2326.49
221.94	2299.87
222.16	2494.43
222.38	2654.17
222.60	2297.82
222.82	2326.49
223.03	2539.48
223.25	2322.40
223.47	2394.08
223.69	2580.44
223.91	2514.91
224.13	2545.63
224.35	2271.20
224.57	2473.95
224.78	2514.91
225.00	2383.84
225.22	2365.40
225.44	2344.92
225.66	2564.06
225.88	2428.89
226.10	2428.89
226.32	2355.16
226.53	2654.17
226.75	2430.94
226.97	2281.44
227.19	2357.21
227.41	2467.80
227.63	2394.08
227.85	2236.38
228.06	2373.60
228.28	2457.56
228.50	2510.81
228.72	2273.25
228.94	2332.64
229.16	2260.96
229.37	2394.08
229.59	2260.96
229.81	2480.09
230.03	2310.11
230.25	2289.63
230.47	2269.15
230.69	2275.29
230.90	2617.30
231.12	2385.88
231.34	2428.89
231.56	2439.13
231.78	2349.02
232.00	2482.14
232.21	2281.44
232.43	2340.83
232.65	2170.85
232.87	2562.01
233.09	2269.15
233.30	2275.29
233.52	2588.63
233.74	2508.76
233.96	2281.44
234.18	2455.51
234.40	2461.66
234.61	2809.81
234.83	2220.00
235.05	2396.12
235.27	2848.72
235.49	2637.78
235.70	2357.21
235.92	2410.46
236.14	2480.09
236.36	2822.10
236.58	2236.38
236.79	2406.36
237.01	2447.32
237.23	2475.99
237.45	2461.66
237.67	2351.07
237.88	2572.25
238.10	2725.85
238.32	2318.30
238.54	2338.78
238.76	2559.96
238.97	2299.87
239.19	2283.49
239.41	2494.43
239.63	2697.17
239.85	2416.60
240.06	2455.51
240.28	2355.16
240.50	2611.16
240.72	2428.89
240.93	2281.44
241.15	2394.08
241.37	2455.51
241.59	2572.25
241.81	2297.82
242.02	2369.50
242.24	2523.10
242.46	2541.53
242.68	2293.72
242.89	2299.87
243.11	2639.83
243.33	2441.18
243.55	2326.49
243.76	2424.80
243.98	2424.80
244.20	2441.18
244.42	2318.30
244.64	2406.36
244.85	2379.74
245.07	2359.26
245.29	2351.07
245.51	2367.45
245.72	2514.91
245.94	2607.06
246.16	2306.01
246.38	2367.45
246.59	2410.46
246.81	2418.65
247.03	2316.25
247.24	2160.61
247.46	2437.08
247.68	2494.43
247.90	2301.92
248.11	2310.11
248.33	2547.67
248.55	2527.19
248.77	2428.89
248.98	2461.66
249.20	2719.70
249.42	2484.19
249.64	2359.26
249.85	2332.64
250.07	2443.23
250.29	2584.54
250.50	2396.12
250.72	2285.53
250.94	2572.25
251.16	2801.62
251.37	2392.03
251.59	2375.64
251.81	2490.33
252.02	2641.88
252.24	2332.64
252.46	2430.94
252.68	2422.75
252.89	2351.07
253.11	2217.95
253.33	2551.77
253.54	2588.63
253.76	2408.41
253.98	2383.84
254.20	2326.49
254.41	2271.20
254.63	2416.60
254.85	2248.67
255.06	2396.12
255.28	2551.77
255.50	2453.47
255.71	2293.72
255.93	2265.05
256.15	2488.28
256.36	2586.58
256.58	2289.63
256.80	2373.60
257.02	2455.51
257.23	2539.48
257.45	2316.25
257.67	2510.81
257.88	2383.84
258.10	2523.10
258.32	2389.98
258.53	2400.22
258.75	2695.13
258.97	2334.68
259.18	2291.68
259.40	2293.72
259.62	2713.56
259.83	2582.49
260.05	2379.74
260.27	2850.77
260.48	2633.69
260.70	2400.22
260.92	2209.76
261.13	2396.12
261.35	2555.86
261.57	2584.54
261.78	2220.00
262.00	2277.34
262.22	2551.77
262.43	2373.60
262.65	2308.06
262.86	2336.73
263.08	2848.72
263.30	2490.33
263.51	2209.76
263.73	2299.87
263.95	2684.89
264.16	2320.35
264.38	2279.39
264.60	2312.16
264.81	2516.95
265.03	2662.36
265.25	2506.71
265.46	2342.88
265.68	2588.63
265.89	2654.17
266.11	2242.53
266.33	2330.59
266.54	2680.79
266.76	2525.15
266.98	2463.71
267.19	2451.42
267.41	2656.22
267.62	2428.89
267.84	2232.29
268.06	2469.85
268.27	2529.24
268.49	2562.01
268.70	2465.75
268.92	2381.79
269.14	2414.56
269.35	2377.69
269.57	2375.64
269.79	2437.08
270.00	2412.51
270.22	2742.23
270.43	2293.72
270.65	2205.66
270.87	2504.67
271.08	2500.57
271.30	2396.12
271.51	2326.49
271.73	2615.26
271.95	2686.94
272.16	2328.54
272.38	2435.03
272.59	2406.36
272.81	2508.76
273.02	2287.58
273.24	2453.47
273.46	2582.49
273.67	2359.26
273.89	2324.44
274.10	2338.78
274.32	2648.02
274.54	2498.52
274.75	2426.84
274.97	2381.79
275.18	2623.45
275.40	2562.01
275.61	2426.84
275.83	2482.14
276.05	2334.68
276.26	2422.75
276.48	2394.08
276.69	2416.60
276.91	2482.14
277.12	2611.16
277.34	2527.19
277.55	2506.71
277.77	2553.82
277.99	2439.13
278.20	2334.68
278.42	2291.68
278.63	2365.40
278.85	2383.84
279.06	2332.64
279.28	2482.14
279.49	2631.64
279.71	2531.29
279.93	2469.85
280.14	2451.42
280.36	2359.26
280.57	2562.01
280.79	2428.89
281.00	2392.03
281.22	2414.56
281.43	2721.75
281.65	2150.37
281.86	2211.81
282.08	2533.34
282.29	2699.22
282.51	2256.86
282.73	2285.53
282.94	2281.44
283.16	2570.20
283.37	2521.05
283.59	2428.89
283.80	2512.86
284.02	2430.94
284.23	2525.15
284.45	2404.32
284.66	2349.02
284.88	2406.36
285.09	2379.74
285.31	2484.19
285.52	2645.98
285.74	2340.83
285.95	2543.58
286.17	2471.90
286.38	2570.20
286.60	2420.70
286.81	2377.69
287.03	2377.69
287.24	2473.95
287.46	2570.20
287.67	2430.94
287.89	2643.93
288.10	2547.67
288.32	2531.29
288.53	2592.73
288.75	2387.93
288.96	2586.58
289.18	2387.93
289.39	2383.84
289.61	2463.71
289.82	2717.65
290.04	2645.98
290.25	2281.44
290.47	2492.38
290.68	2418.65
290.90	2605.02
291.11	2240.48
291.33	2490.33
291.54	2361.31
291.76	2473.95
291.97	2543.58
292.18	2467.80
292.40	2420.70
292.61	2357.21
292.83	2605.02
293.04	2488.28
293.26	2441.18
293.47	2508.76
293.69	2383.84
293.90	2361.31
294.12	2629.59
294.33	2568.15
294.55	2406.36
294.76	2506.71
294.97	2553.82
295.19	2744.28
295.40	2363.36
295.62	2537.43
295.83	2574.30
296.05	2449.37
296.26	2580.44
296.48	2389.98
296.69	2512.86
296.90	2482.14
297.12	2490.33
297.33	2510.81
297.55	2430.94
297.76	2514.91
297.98	2494.43
298.19	2543.58
298.41	2432.99
298.62	2408.41
298.83	2605.02
299.05	2523.10
299.26	2490.33
299.48	2363.36
299.69	2457.56
299.90	2437.08
300.12	2414.56
300.33	2527.19
300.55	2502.62
300.76	2537.43
300.98	2381.79
301.19	2539.48
301.40	2392.03
301.62	2336.73
301.83	2482.14
302.05	2551.77
302.26	2430.94
302.47	2449.37
302.69	2291.68
302.90	2535.39
303.12	2217.95
303.33	2555.86
303.54	2760.66
303.76	2385.88
303.97	2441.18
304.19	2564.06
304.40	2402.27
304.61	2594.78
304.83	2580.44
305.04	2471.90
305.26	2482.14
305.47	2527.19
305.68	2551.77
305.90	2318.30
306.11	2654.17
306.33	2519.00
306.54	2338.78
306.75	2303.96
306.97	2269.15
307.18	2314.20
307.39	2371.55
307.61	2482.14
307.82	2461.66
308.04	2543.58
308.25	2359.26
308.46	2439.13
308.68	2527.19
308.89	2496.47
309.10	2545.63
309.32	2383.84
309.53	2467.80
309.74	2480.09
309.96	2383.84
310.17	2557.91
310.39	2430.94
310.60	2519.00
310.81	2482.14
311.03	2379.74
311.24	2609.11
311.45	2445.27
311.67	2670.55
311.88	2535.39
312.09	2465.75
312.31	2455.51
312.52	2439.13
312.73	2349.02
312.95	2318.30
313.16	2383.84
313.37	2629.59
313.59	2519.00
313.80	2539.48
314.01	2660.31
314.23	2369.50
314.44	2400.22
314.65	2381.79
314.87	2416.60
315.08	2410.46
315.29	2344.92
315.51	2418.65
315.72	2265.05
315.93	2617.30
316.15	2502.62
316.36	2422.75
316.57	2494.43
316.79	2465.75
317.00	2422.75
317.21	2531.29
317.43	2502.62
317.64	2424.80
317.85	2295.77
318.07	2420.70
318.28	2435.03
318.49	2533.34
318.70	2688.98
318.92	2621.40
319.13	2660.31
319.34	2684.89
319.56	2424.80
319.77	2600.92
319.98	2635.74
320.20	2602.97
320.41	2578.39
320.62	2574.30
320.83	2367.45
321.05	2660.31
321.26	2471.90
321.47	2527.19
321.69	2619.35
321.90	2314.20
322.11	2373.60
322.32	2521.05
322.54	2666.46
322.75	2445.27
322.96	2879.44
323.18	2222.05
323.39	2252.77
323.60	2336.73
323.81	2512.86
324.03	2396.12
324.24	2439.13
324.45	2406.36
324.66	2387.93
324.88	2576.34
325.09	2633.69
325.30	2457.56
325.52	2359.26
325.73	2557.91
325.94	2365.40
326.15	2277.34
326.37	2326.49
326.58	2553.82
326.79	2750.42
327.00	2330.59
327.22	2457.56
327.43	2457.56
327.64	2332.64
327.85	2463.71
328.07	2416.60
328.28	2764.76
328.49	2471.90
328.70	2414.56
328.92	2392.03
329.13	2394.08
329.34	2527.19
329.55	2637.78
329.76	2496.47
329.98	2443.23
330.19	2609.11
330.40	2529.24
330.61	2553.82
330.83	2588.63
331.04	2377.69
331.25	2379.74
331.46	2455.51
331.68	2357.21
331.89	2662.36
332.10	2422.75
332.31	2283.49
332.52	2424.80
332.74	2584.54
332.95	2295.77
333.16	2377.69
333.37	2521.05
333.58	2361.31
333.80	2449.37
334.01	2256.86
334.22	2346.97
334.43	2445.27
334.64	2359.26
334.86	2320.35
335.07	2402.27
335.28	2676.70
335.49	2287.58
335.70	2451.42
335.92	2643.93
336.13	2754.52
336.34	2523.10
336.55	2394.08
336.76	2549.72
336.98	2236.38
337.19	2387.93
337.40	2568.15
337.61	2813.91
337.82	2408.41
338.04	2539.48
338.25	2215.90
338.46	2498.52
338.67	2473.95
338.88	2406.36
339.09	2281.44
339.31	2342.88
339.52	2353.12
339.73	2351.07
339.94	2398.17
340.15	2605.02
340.36	2416.60
340.58	2463.71
340.79	2400.22
341.00	2613.21
341.21	2295.77
341.42	2627.54
341.63	2389.98
341.85	2521.05
342.06	2482.14
342.27	2422.75
342.48	2498.52
342.69	2310.11
342.90	2527.19
343.12	2578.39
343.33	2383.84
343.54	2627.54
343.75	2633.69
343.96	2424.80
344.17	2297.82
344.38	2432.99
344.60	2408.41
344.81	2414.56
345.02	2420.70
345.23	2678.74
345.44	2820.05
345.65	2545.63
345.86	2473.95
346.07	2506.71
346.29	2412.51
346.50	2461.66
346.71	2445.27
346.92	2611.16
347.13	2775.00
347.34	2453.47
347.55	2328.54
347.76	2502.62
347.98	2404.32
348.19	2461.66
348.40	2592.73
348.61	2389.98
348.82	2752.47
349.03	2508.76
349.24	2441.18
349.45	2731.99
349.66	2310.11
349.88	2416.60
350.09	2367.45
350.30	2709.46
350.51	2658.26
350.72	2564.06
350.93	2435.03
351.14	2439.13
351.35	2562.01
351.56	2445.27
351.77	2519.00
351.99	2494.43
352.20	2703.32
352.41	2605.02
352.62	2291.68
352.83	2428.89
353.04	2504.67
353.25	2369.50
353.46	2519.00
353.67	2564.06
353.88	2265.05
354.09	2392.03
354.30	2410.46
354.52	2619.35
354.73	2473.95
354.94	2400.22
355.15	2525.15
355.36	2602.97
355.57	2375.64
355.78	2447.32
355.99	2359.26
356.20	2408.41
356.41	2674.65
356.62	2480.09
356.83	2482.14
357.04	2641.88
357.25	2338.78
357.46	2418.65
357.68	2291.68
357.89	2357.21
358.10	2523.10
358.31	2408.41
358.52	2408.41
358.73	2412.51
358.94	2353.12
359.15	2396.12
359.36	2484.19
359.57	2482.14
359.78	2502.62
359.99	2461.66
360.20	2346.97
360.41	2486.23
360.62	2541.53
360.83	2398.17
361.04	2453.47
361.25	2588.63
361.46	2580.44
361.67	2539.48
361.88	2478.04
362.09	2519.00
362.30	2488.28
362.51	2394.08
362.72	2392.03
362.93	2586.58
363.14	2584.54
363.35	2383.84
363.56	2279.39
363.78	2539.48
363.99	2639.83
364.20	2344.92
364.41	2463.71
364.62	2682.84
364.83	2484.19
365.04	2426.84
365.25	2453.47
365.46	2742.23
365.67	2385.88
365.88	2428.89
366.09	2408.41
366.30	2414.56
366.51	2531.29
366.72	2297.82
366.93	2400.22
367.14	2469.85
367.35	2668.50
367.56	2478.04
367.77	2607.06
367.98	2432.99
368.18	2531.29
368.39	2523.10
368.60	2375.64
368.81	2543.58
369.02	2553.82
369.23	2482.14
369.44	2271.20
369.65	2449.37
369.86	2539.48
370.07	2512.86
370.28	2400.22
370.49	2506.71
370.70	2512.86
370.91	2250.72
371.12	2207.71
371.33	2709.46
371.54	2416.60
371.75	2539.48
371.96	2269.15
372.17	2570.20
372.38	2482.14
372.59	2439.13
372.80	2447.32
373.01	2441.18
373.22	2498.52
373.43	2453.47
373.64	2303.96
373.85	2645.98
374.06	2713.56
374.26	2523.10
374.47	2490.33
374.68	2662.36
374.89	2516.95
375.10	2357.21
375.31	2498.52
375.52	2564.06
375.73	2557.91
375.94	2349.02
376.15	2553.82
376.36	2437.08
376.57	2432.99
376.78	2461.66
376.99	2441.18
377.20	2578.39
377.40	2394.08
377.61	2672.60
377.82	2371.55
378.03	2637.78
378.24	2654.17
378.45	2480.09
378.66	2523.10
378.87	2291.68
379.08	2342.88
379.29	2349.02
379.50	2555.86
379.71	2416.60
379.91	2527.19
380.12	2392.03
380.33	2428.89
380.54	2478.04
380.75	2475.99
380.96	2457.56
381.17	2471.90
381.38	2547.67
381.59	2570.20
381.80	2406.36
382.00	2588.63
382.21	2568.15
382.42	2717.65
382.63	2693.08
382.84	2482.14
383.05	2600.92
383.26	2639.83
383.47	2480.09
383.68	2461.66
383.88	2512.86
384.09	2549.72
384.30	2674.65
384.51	2527.19
384.72	2432.99
384.93	2414.56
385.14	2471.90
385.35	2557.91
385.55	2312.16
385.76	2600.92
385.97	2428.89
386.18	2373.60
386.39	2394.08
386.60	2418.65
386.81	2367.45
387.02	2342.88
387.22	2406.36
387.43	2557.91
387.64	2486.23
387.85	2699.22
388.06	2668.50
388.27	3991.49
388.48	8349.57
388.68	11917.13
388.89	14700.32
389.10	15699.73
389.31	14694.18
389.52	11632.46
389.73	10063.72
389.93	8853.37
390.14	8257.41
390.35	7540.62
390.56	6703.00
390.77	5480.36
390.98	4218.82
391.18	3547.08
391.39	3082.19
391.60	2662.36
391.81	2668.50
392.02	2381.79
392.23	2715.61
392.43	2555.86
392.64	2596.82
392.85	2488.28
393.06	2809.81
393.27	2439.13
393.47	2430.94
393.68	2445.27
393.89	2439.13
394.10	2596.82
394.31	2504.67
394.52	2392.03
394.72	2455.51
394.93	2588.63
395.14	2326.49
395.35	2504.67
395.56	2359.26
395.76	2408.41
395.97	2545.63
396.18	2656.22
396.39	2559.96
396.60	3010.51
396.80	2725.85
397.01	2664.41
397.22	2656.22
397.43	2691.03
397.64	2488.28
397.84	2502.62
398.05	2832.34
398.26	2475.99
398.47	2523.10
398.67	2594.78
398.88	2523.10
399.09	2580.44
399.30	2426.84
399.51	2447.32
399.71	2490.33
399.92	2547.67
400.13	2461.66
400.34	2441.18
400.54	2500.57
400.75	2719.70
400.96	2486.23
401.17	2658.26
401.37	2598.87
401.58	2484.19
401.79	2473.95
402.00	2584.54
402.21	2871.25
402.41	2654.17
402.62	2836.44
402.83	2932.69
403.04	2940.88
403.24	3114.96
403.45	2650.07
403.66	2670.55
403.87	2725.85
404.07	2811.86
404.28	2768.85
404.49	2635.74
404.70	2529.24
404.90	2633.69
405.11	2428.89
405.32	2539.48
405.52	2408.41
405.73	2418.65
405.94	2392.03
406.15	2482.14
406.35	2576.34
406.56	2613.21
406.77	2451.42
406.98	2469.85
407.18	2349.02
407.39	2699.22
407.60	2414.56
407.80	2475.99
408.01	2521.05
408.22	2506.71
408.43	2406.36
408.63	2435.03
408.84	2619.35
409.05	2580.44
409.25	2365.40
409.46	2414.56
409.67	2406.36
409.88	2392.03
410.08	2531.29
410.29	2379.74
410.50	2529.24
410.70	2527.19
410.91	2375.64
411.12	2461.66
411.32	2437.08
411.53	2367.45
411.74	2504.67
411.95	2588.63
412.15	2543.58
412.36	2627.54
412.57	2566.10
412.77	2607.06
412.98	2600.92
413.19	2408.41
413.39	2465.75
413.60	2566.10
413.81	2629.59
414.01	2428.89
414.22	2533.34
414.43	2645.98
414.63	2463.71
414.84	2643.93
415.05	2494.43
415.25	2334.68
415.46	2572.25
415.67	2439.13
415.87	2580.44
416.08	2516.95
416.29	2447.32
416.49	2541.53
416.70	2445.27
416.91	2441.18
417.11	2523.10
417.32	2656.22
417.53	2521.05
417.73	2465.75
417.94	2480.09
418.15	2539.48
418.35	2449.37
418.56	2441.18
418.77	2754.52
418.97	2469.85
419.18	2365.40
419.38	2191.33
419.59	2449.37
419.80	2746.33
420.00	2385.88
420.21	2529.24
420.42	2662.36
420.62	2533.34
420.83	2318.30
421.04	2463.71
421.24	2406.36
421.45	2580.44
421.65	2473.95
421.86	2404.32
422.07	2557.91
422.27	2506.71
422.48	2449.37
422.69	2308.06
422.89	2500.57
423.10	2506.71
423.30	2334.68
423.51	2461.66
423.72	2580.44
423.92	2539.48
424.13	2377.69
424.33	2469.85
424.54	2637.78
424.75	2514.91
424.95	2541.53
425.16	2463.71
425.36	2441.18
425.57	2625.50
425.78	2471.90
425.98	2613.21
426.19	2381.79
426.39	2400.22
426.60	2465.75
426.81	2543.58
427.01	2555.86
427.22	2375.64
427.42	2308.06
427.63	2445.27
427.83	2490.33
428.04	2686.94
428.25	2553.82
428.45	2596.82
428.66	2596.82
428.86	2432.99
429.07	2420.70
429.28	2523.10
429.48	2494.43
429.69	2318.30
429.89	2496.47
430.10	2342.88
430.30	2514.91
430.51	2654.17
430.71	2379.74
430.92	2371.55
431.13	2447.32
431.33	2541.53
431.54	2519.00
431.74	2639.83
431.95	2752.47
432.15	2338.78
432.36	2457.56
432.56	2467.80
432.77	2678.74
432.98	2705.37
433.18	2471.90
433.39	2387.93
433.59	2514.91
433.80	2756.57
434.00	2662.36
434.21	2381.79
434.41	2381.79
434.62	2727.89
434.82	2361.31
435.03	2316.25
435.23	2555.86
435.44	2295.77
435.64	2490.33
435.85	2543.58
436.06	2527.19
436.26	2578.39
436.47	2424.80
436.67	2389.98
436.88	2455.51
437.08	2625.50
437.29	2631.64
437.49	2545.63
437.70	2600.92
437.90	2484.19
438.11	2648.02
438.31	2510.81
438.52	2674.65
438.72	2672.60
438.93	2768.85
439.13	2539.48
439.34	2707.41
439.54	2494.43
439.75	2635.74
439.95	2500.57
440.16	2408.41
440.36	2580.44
440.57	2465.75
440.77	2488.28
440.98	2539.48
441.18	2559.96
441.39	2338.78
441.59	2351.07
441.80	2809.81
442.00	2475.99
442.21	2623.45
442.41	2383.84
442.62	2545.63
442.82	2408.41
443.02	2420.70
443.23	2498.52
443.43	2506.71
443.64	2701.27
443.84	2406.36
444.05	2658.26
444.25	2475.99
444.46	2519.00
444.66	2457.56
444.87	2584.54
445.07	2408.41
445.28	2478.04
445.48	2678.74
445.69	2516.95
445.89	2863.06
446.09	2521.05
446.30	2736.09
446.50	3000.27
446.71	4585.40
446.91	5849.00
447.12	6586.27
447.32	6860.70
447.53	6623.13
447.73	5394.35
447.93	4702.14
448.14	4544.44
448.34	4304.83
448.55	3745.73
448.75	3749.83
448.96	3641.29
449.16	3200.98
449.36	3063.76
449.57	2719.70
449.77	2545.63
449.98	2541.53
450.18	2557.91
450.39	2514.91
450.59	2529.24
450.79	2445.27
451.00	2424.80
451.20	2596.82
451.41	2408.41
451.61	2547.67
451.81	2453.47
452.02	2439.13
452.22	2379.74
452.43	2400.22
452.63	2355.16
452.84	2389.98
453.04	2424.80
453.24	2588.63
453.45	2404.32
453.65	2416.60
453.86	2465.75
454.06	2523.10
454.26	2529.24
454.47	2357.21
454.67	2613.21
454.87	2578.39
455.08	2572.25
455.28	2652.12
455.49	2625.50
455.69	2389.98
455.89	2789.33
456.10	2613.21
456.30	2424.80
456.51	2537.43
456.71	2537.43
456.91	2545.63
457.12	2482.14
457.32	2519.00
457.52	2301.92
457.73	2559.96
457.93	2527.19
458.14	2371.55
458.34	2295.77
458.54	2455.51
458.75	2385.88
458.95	2541.53
459.15	2430.94
459.36	2553.82
459.56	2537.43
459.76	2789.33
459.97	2496.47
460.17	2482.14
460.37	2482.14
460.58	2486.23
460.78	2594.78
460.99	2402.27
461.19	2478.04
461.39	2437.08
461.60	2523.10
461.80	2469.85
462.00	2365.40
462.21	2422.75
462.41	2383.84
462.61	2295.77
462.82	2244.57
463.02	2572.25
463.22	2494.43
463.43	2609.11
463.63	2424.80
463.83	2650.07
464.04	2562.01
464.24	2490.33
464.44	2404.32
464.64	2449.37
464.85	2594.78
465.05	2519.00
465.25	2445.27
465.46	2375.64
465.66	2584.54
465.86	2527.19
466.07	2441.18
466.27	2457.56
466.47	2334.68
466.68	2363.36
466.88	2572.25
467.08	2492.38
467.29	2596.82
467.49	2461.66
467.69	2428.89
467.89	2535.39
468.10	2490.33
468.30	2494.43
468.50	2625.50
468.71	2596.82
468.91	2363.36
469.11	2633.69
469.31	2432.99
469.52	2396.12
469.72	2699.22
469.92	2721.75
470.13	2426.84
470.33	2525.15
470.53	2564.06
470.73	2895.83
470.94	3334.09
471.14	3358.67
471.34	3891.14
471.54	3710.92
471.75	3377.10
471.95	3121.10
472.15	3024.85
472.36	3041.23
472.56	2940.88
472.76	3002.32
472.96	2963.41
473.17	2770.90
473.37	2715.61
473.57	2437.08
473.77	2590.68
473.98	2496.47
474.18	2394.08
474.38	2818.00
474.58	2398.17
474.79	2340.83
474.99	2549.72
475.19	2519.00
475.39	2488.28
475.60	2519.00
475.80	2467.80
476.00	2490.33
476.20	2398.17
476.41	2506.71
476.61	2490.33
476.81	2721.75
477.01	2422.75
477.21	2664.41
477.42	2662.36
477.62	2375.64
477.82	2682.84
478.02	2408.41
478.23	2443.23
478.43	2379.74
478.63	2490.33
478.83	2465.75
479.03	2494.43
479.24	2658.26
479.44	2734.04
479.64	2355.16
479.84	2213.85
480.04	2338.78
480.25	2539.48
480.45	2465.75
480.65	2480.09
480.85	2715.61
481.06	2428.89
481.26	2488.28
481.46	2473.95
481.66	2506.71
481.86	2314.20
482.06	2652.12
482.27	2435.03
482.47	2502.62
482.67	2551.77
482.87	2416.60
483.07	2613.21
483.28	2457.56
483.48	2420.70
483.68	2451.42
483.88	2334.68
484.08	2193.37
484.29	2338.78
484.49	2426.84
484.69	2269.15
484.89	2682.84
485.09	2578.39
485.29	2535.39
485.50	2547.67
485.70	2451.42
485.90	2641.88
486.10	2498.52
486.30	2471.90
486.50	2666.46
486.71	2512.86
486.91	2566.10
487.11	2588.63
487.31	2338.78
487.51	2541.53
487.71	2371.55
487.91	2420.70
488.12	2422.75
488.32	2121.70
488.52	2400.22
488.72	2252.77
488.92	2484.19
489.12	2674.65
489.32	2559.96
489.53	2523.10
489.73	2330.59
489.93	2670.55
490.13	2371.55
490.33	2201.57
490.53	2523.10
490.73	2645.98
490.94	2306.01
491.14	2627.54
491.34	2605.02
491.54	2707.41
491.74	3456.97
491.94	3864.52
492.14	4333.50
492.34	4390.84
492.54	4005.83
492.75	3510.22
492.95	3461.07
493.15	3164.11
493.35	3223.50
493.55	3119.06
493.75	2949.08
493.95	3030.99
494.15	2705.37
494.35	2635.74
494.56	2615.26
494.76	2447.32
494.96	2576.34
495.16	2457.56
495.36	2471.90
495.56	2527.19
495.76	2428.89
495.96	2439.13
496.16	2416.60
496.36	2715.61
496.56	2525.15
496.77	2529.24
496.97	2578.39
497.17	2635.74
497.37	2338.78
497.57	2621.40
497.77	2506.71
497.97	2375.64
498.17	2459.61
498.37	2457.56
498.57	2572.25
498.77	2381.79
498.97	2566.10
499.17	2602.97
499.38	2473.95
499.58	2596.82
499.78	2615.26
499.98	2598.87
500.18	2482.14
500.38	2404.32
500.58	2562.01
500.78	3088.34
500.98	5390.25
501.18	7544.72
501.38	9086.84
501.58	10141.54
501.78	9826.15
501.98	7952.26
502.18	6487.96
502.38	5709.74
502.58	5478.32
502.78	4902.84
502.98	4681.66
503.18	4425.66
503.38	4104.13
503.59	3506.12
503.79	3334.09
503.99	3217.36
504.19	3084.24
504.39	3090.38
504.59	3102.67
504.79	3100.62
504.99	3145.68
505.19	2848.72
505.39	2766.81
505.59	2936.79
505.79	2785.24
505.99	2723.80
506.19	2535.39
506.39	2613.21
506.59	2502.62
506.79	2514.91
506.99	2568.15
507.19	2504.67
507.39	2531.29
507.59	2293.72
507.79	2457.56
507.99	2445.27
508.19	2535.39
508.39	2514.91
508.59	2463.71
508.79	2572.25
508.99	2826.20
509.19	2414.56
509.39	2553.82
509.59	2297.82
509.79	2473.95
509.99	2482.14
510.19	2590.68
510.39	2555.86
510.59	2539.48
510.79	2375.64
510.99	2289.63
511.19	2465.75
511.39	2686.94
511.59	2680.79
511.79	2586.58
511.99	2473.95
512.19	2752.47
512.38	2551.77
512.58	2471.90
512.78	2414.56
512.98	2523.10
513.18	2750.42
513.38	2363.36
513.58	2553.82
513.78	2469.85
513.98	2418.65
514.18	2381.79
514.38	2410.46
514.58	2494.43
514.78	2441.18
514.98	2326.49
515.18	2432.99
515.38	2357.21
515.58	2695.13
515.78	2367.45
515.98	2465.75
516.18	2519.00
516.38	2519.00
516.57	2385.88
516.77	2420.70
516.97	2576.34
517.17	2504.67
517.37	2330.59
517.57	2537.43
517.77	2543.58
517.97	2428.89
518.17	2555.86
518.37	2334.68
518.57	2422.75
518.77	2453.47
518.97	2453.47
519.16	2510.81
519.36	2633.69
519.56	2457.56
519.76	2447.32
519.96	2506.71
520.16	2635.74
520.36	2404.32
520.56	2611.16
520.76	2400.22
520.96	2445.27
521.16	2600.92
521.35	2584.54
521.55	2602.97
521.75	2535.39
521.95	2383.84
522.15	2420.70
522.35	2265.05
522.55	2379.74
522.75	2588.63
522.95	2461.66
523.14	2330.59
523.34	2473.95
523.54	2416.60
523.74	2627.54
523.94	2559.96
524.14	2308.06
524.34	2588.63
524.54	2504.67
524.73	2461.66
524.93	2619.35
525.13	2461.66
525.33	2314.20
525.53	2656.22
525.73	2535.39
525.93	2527.19
526.13	2359.26
526.32	2490.33
526.52	2678.74
526.72	2635.74
526.92	2371.55
527.12	2404.32
527.32	2367.45
527.52	2590.68
527.71	2539.48
527.91	2447.32
528.11	2506.71
528.31	2480.09
528.51	2330.59
528.71	2557.91
528.90	2523.10
529.10	2684.89
529.30	2570.20
529.50	2279.39
529.70	2480.09
529.90	2490.33
530.09	2496.47
530.29	2367.45
530.49	2412.51
530.69	2809.81
530.89	2490.33
531.09	2564.06
531.28	2447.32
531.48	2648.02
531.68	2494.43
531.88	2506.71
532.08	2506.71
532.28	2525.15
532.47	2559.96
532.67	2549.72
532.87	2559.96
533.07	2381.79
533.27	2547.67
533.46	2551.77
533.66	2588.63
533.86	2523.10
534.06	2437.08
534.26	2570.20
534.45	2404.32
534.65	2562.01
534.85	2531.29
535.05	2447.32
535.25	2623.45
535.44	2314.20
535.64	2545.63
535.84	2473.95
536.04	2488.28
536.24	2412.51
536.43	2404.32
536.63	2449.37
536.83	2430.94
537.03	2539.48
537.22	2291.68
537.42	2195.42
537.62	2584.54
537.82	2320.35
538.02	2484.19
538.21	2582.49
538.41	2863.06
538.61	2531.29
538.81	2467.80
539.00	2508.76
539.20	2324.44
539.40	2392.03
539.60	2457.56
539.79	2551.77
539.99	2467.80
540.19	2478.04
540.39	2432.99
540.58	2506.71
540.78	2609.11
540.98	2508.76
541.18	2461.66
541.37	2545.63
541.57	2510.81
541.77	2488.28
541.97	2379.74
542.16	2412.51
542.36	2457.56
542.56	2432.99
542.76	2637.78
542.95	2545.63
543.15	2527.19
543.35	2607.06
543.54	2410.46
543.74	2385.88
543.94	2564.06
544.14	2392.03
544.33	2521.05
544.53	2414.56
544.73	2490.33
544.93	2402.27
545.12	2394.08
545.32	2422.75
545.52	2469.85
545.71	2318.30
545.91	2392.03
546.11	2428.89
546.30	2383.84
546.50	2525.15
546.70	2539.48
546.90	2463.71
547.09	2277.34
547.29	2422.75
547.49	2543.58
547.68	2521.05
547.88	2426.84
548.08	2594.78
548.27	2889.68
548.47	2400.22
548.67	2428.89
548.87	2564.06
549.06	2453.47
549.26	2387.93
549.46	2541.53
549.65	2443.23
549.85	2467.80
550.05	2478.04
550.24	2363.36
550.44	2432.99
550.64	2514.91
550.83	2512.86
551.03	2727.89
551.23	2598.87
551.42	2566.10
551.62	2445.27
551.82	2496.47
552.01	2559.96
552.21	2576.34
552.41	2502.62
552.60	2654.17
552.80	2457.56
553.00	2338.78
553.19	2525.15
553.39	2775.00
553.59	2330.59
553.78	2568.15
553.98	2461.66
554.17	2381.79
554.37	2580.44
554.57	2488.28
554.76	2439.13
554.96	2334.68
555.16	2541.53
555.35	2519.00
555.55	2541.53
555.75	2523.10
555.94	2631.64
556.14	2306.01
556.33	2564.06
556.53	2504.67
556.73	2490.33
556.92	2500.57
557.12	2494.43
557.32	2803.67
557.51	2701.27
557.71	2586.58
557.90	2668.50
558.10	2596.82
558.30	2449.37
558.49	2461.66
558.69	2457.56
558.88	2523.10
559.08	2514.91
559.28	2400.22
559.47	2504.67
559.67	2539.48
559.86	2764.76
560.06	2516.95
560.26	2418.65
560.45	2580.44
560.65	2443.23
560.84	2602.97
561.04	2400.22
561.24	2555.86
561.43	2430.94
561.63	2662.36
561.82	2439.13
562.02	2615.26
562.22	2490.33
562.41	2400.22
562.61	2383.84
562.80	2416.60
563.00	2861.01
563.19	2521.05
563.39	2510.81
563.59	2586.58
563.78	2383.84
563.98	2301.92
564.17	2387.93
564.37	2265.05
564.56	2463.71
564.76	2375.64
564.96	2586.58
565.15	2547.67
565.35	2869.20
565.54	2467.80
565.74	2535.39
565.93	2559.96
566.13	2465.75
566.32	2502.62
566.52	2576.34
566.71	2445.27
566.91	2631.64
567.11	2494.43
567.30	2400.22
567.50	2531.29
567.69	2519.00
567.89	2416.60
568.08	2412.51
568.28	2441.18
568.47	2408.41
568.67	2465.75
568.86	2408.41
569.06	2537.43
569.25	2445.27
569.45	2349.02
569.64	2447.32
569.84	2486.23
570.04	2605.02
570.23	2445.27
570.43	2527.19
570.62	2486.23
570.82	2680.79
571.01	2334.68
571.21	2447.32
571.40	2289.63
571.60	2539.48
571.79	2541.53
571.99	2529.24
572.18	2334.68
572.38	2535.39
572.57	2373.60
572.77	2514.91
572.96	2846.68
573.16	2455.51
573.35	2510.81
573.55	2596.82
573.74	2525.15
573.94	2480.09
574.13	2418.65
574.33	2613.21
574.52	2693.08
574.71	2424.80
574.91	2498.52
575.10	2379.74
575.30	2506.71
575.49	2396.12
575.69	2363.36
575.88	2465.75
576.08	2502.62
576.27	2621.40
576.47	2480.09
576.66	2600.92
576.86	2736.09
577.05	2521.05
577.25	2529.24
577.44	2725.85
577.64	2504.67
577.83	2605.02
578.02	2406.36
578.22	2662.36
578.41	2695.13
578.61	2572.25
578.80	2371.55
579.00	2539.48
579.19	2521.05
579.39	2471.90
579.58	2598.87
579.77	2451.42
579.97	2650.07
580.16	2609.11
580.36	2578.39
580.55	2621.40
580.75	2600.92
580.94	2584.54
581.13	2574.30
581.33	2764.76
581.52	2475.99
581.72	2736.09
581.91	2602.97
582.11	2473.95
582.30	2711.51
582.49	2531.29
582.69	2777.05
582.88	2650.07
583.08	2510.81
583.27	2691.03
583.47	2529.24
583.66	2463.71
583.85	2490.33
584.05	2570.20
584.24	2580.44
584.44	2598.87
584.63	2686.94
584.82	2783.19
585.02	2768.85
585.21	2682.84
585.41	2648.02
585.60	2545.63
585.79	2693.08
585.99	2756.57
586.18	2586.58
586.37	3203.02
586.57	4974.52
586.76	14892.83
586.96	34151.93
587.15	47785.25
587.34	56540.32
587.54	61379.67
587.73	55624.88
587.93	38802.86
588.12	29769.27
588.31	23707.29
588.51	20977.34
588.70	19461.85
588.89	17151.74
589.09	15005.47
589.28	12697.41
589.47	10209.12
589.67	7991.17
589.86	5996.45
590.06	4620.22
590.25	3788.74
590.44	3350.48
590.64	2965.46
590.83	2904.02
591.02	2723.80
591.22	2535.39
591.41	2564.06
591.60	2523.10
591.80	2871.25
591.99	2406.36
592.18	2488.28
592.38	2605.02
592.57	2465.75
592.76	2543.58
592.96	2535.39
593.15	2516.95
593.34	2600.92
593.54	2537.43
593.73	2564.06
593.92	2539.48
594.12	2580.44
594.31	2621.40
594.50	2629.59
594.70	2529.24
594.89	2846.68
595.08	2322.40
595.28	2572.25
595.47	2912.21
595.66	2535.39
595.86	2392.03
596.05	2441.18
596.24	2547.67
596.43	2688.98
596.63	2578.39
596.82	2514.91
597.01	2641.88
597.21	2809.81
597.40	2484.19
597.59	2508.76
597.79	2482.14
597.98	2562.01
598.17	2531.29
598.36	2570.20
598.56	2559.96
598.75	2373.60
598.94	2537.43
599.14	2516.95
599.33	2508.76
599.52	2621.40
599.71	2506.71
599.91	2557.91
600.10	2582.49
600.29	2494.43
600.48	2602.97
600.68	2480.09
600.87	2475.99
601.06	2428.89
601.26	2531.29
601.45	2525.15
601.64	2504.67
601.83	2654.17
602.03	2383.84
602.22	2394.08
602.41	2631.64
602.60	2822.10
602.80	2496.47
602.99	2566.10
603.18	2396.12
603.37	2494.43
603.57	2519.00
603.76	2531.29
603.95	2570.20
604.14	2381.79
604.34	2375.64
604.53	2486.23
604.72	2529.24
604.91	2613.21
605.10	2533.34
605.30	2373.60
605.49	2766.81
605.68	2529.24
605.87	2541.53
606.07	2402.27
606.26	2545.63
606.45	2494.43
606.64	2525.15
606.84	2385.88
607.03	2559.96
607.22	2691.03
607.41	2463.71
607.60	2441.18
607.80	2662.36
607.99	2467.80
608.18	2549.72
608.37	2457.56
608.56	2488.28
608.76	2711.51
608.95	2666.46
609.14	2564.06
609.33	2676.70
609.52	2754.52
609.72	2641.88
609.91	2664.41
610.10	2584.54
610.29	2709.46
610.48	2568.15
610.68	2568.15
610.87	2492.38
611.06	2553.82
611.25	2422.75
611.44	2609.11
611.63	2496.47
611.83	2639.83
612.02	2394.08
612.21	2590.68
612.40	2275.29
612.59	2353.12
612.79	2375.64
612.98	2457.56
613.17	2654.17
613.36	2504.67
613.55	2703.32
613.74	2523.10
613.93	2598.87
614.13	2727.89
614.32	2785.24
614.51	2670.55
614.70	2553.82
614.89	2588.63
615.08	2559.96
615.28	2936.79
615.47	2392.03
615.66	2637.78
615.85	2469.85
616.04	2674.65
616.23	2643.93
616.42	2496.47
616.62	2467.80
616.81	2514.91
617.00	2445.27
617.19	2584.54
617.38	2408.41
617.57	2496.47
617.76	2611.16
617.95	2621.40
618.15	2551.77
618.34	2676.70
618.53	2404.32
618.72	2600.92
618.91	2613.21
619.10	2582.49
619.29	2514.91
619.48	2420.70
619.68	2324.44
619.87	2506.71
620.06	2357.21
620.25	2623.45
620.44	2457.56
620.63	2498.52
620.82	2523.10
621.01	2449.37
621.20	2482.14
621.39	2478.04
621.59	2590.68
621.78	2559.96
621.97	2428.89
622.16	2613.21
622.35	2453.47
622.54	2596.82
622.73	2650.07
622.92	2301.92
623.11	2545.63
623.30	2453.47
623.49	2559.96
623.68	2416.60
623.88	2676.70
624.07	2471.90
624.26	2359.26
624.45	2465.75
624.64	2400.22
624.83	2566.10
625.02	2414.56
625.21	2445.27
625.40	2512.86
625.59	2621.40
625.78	2580.44
625.97	2633.69
626.16	2643.93
626.35	2731.99
626.54	2594.78
626.74	2736.09
626.93	2553.82
627.12	2508.76
627.31	2592.73
627.50	2605.02
627.69	2619.35
627.88	2439.13
628.07	2400.22
628.26	2357.21
628.45	2416.60
628.64	2383.84
628.83	2389.98
629.02	2351.07
629.21	2596.82
629.40	2568.15
629.59	2392.03
629.78	2531.29
629.97	2498.52
630.16	2514.91
630.35	2484.19
630.54	2494.43
630.73	2504.67
630.92	2519.00
631.11	2342.88
631.30	2428.89
631.49	2555.86
631.68	2553.82
631.87	2545.63
632.06	2293.72
632.25	2744.28
632.44	2473.95
632.63	2607.06
632.82	2457.56
633.01	2564.06
633.20	2592.73
633.39	2510.81
633.58	2445.27
633.77	2637.78
633.96	2592.73
634.15	2537.43
634.34	2555.86
634.53	2598.87
634.72	2467.80
634.91	2293.72
635.10	2498.52
635.29	2635.74
635.48	2457.56
635.67	2412.51
635.86	2373.60
636.05	2645.98
636.24	2463.71
636.43	2471.90
636.62	2508.76
636.81	2230.24
637.00	2562.01
637.19	2455.51
637.38	2463.71
637.57	2447.32
637.76	2531.29
637.95	2688.98
638.14	2473.95
638.33	2578.39
638.52	2553.82
638.71	2449.37
638.89	2308.06
639.08	2850.77
639.27	2615.26
639.46	2701.27
639.65	3176.40
639.84	3219.41
640.03	3260.37
640.22	3084.24
640.41	3153.87
640.60	2791.38
640.79	2760.66
640.98	2662.36
641.17	2678.74
641.36	2758.61
641.55	2670.55
641.74	2453.47
641.92	2412.51
642.11	2473.95
642.30	2535.39
642.49	2410.46
642.68	2471.90
642.87	2488.28
643.06	2494.43
643.25	2432.99
643.44	2351.07
643.63	2500.57
643.82	2562.01
644.00	2324.44
644.19	2473.95
644.38	2369.50
644.57	2543.58
644.76	2455.51
644.95	2457.56
645.14	2498.52
645.33	2482.14
645.52	2457.56
645.71	2351.07
645.89	2283.49
646.08	2404.32
646.27	2396.12
646.46	2637.78
646.65	2332.64
646.84	2525.15
647.03	2367.45
647.22	2584.54
647.40	2572.25
647.59	2465.75
647.78	2267.10
647.97	2373.60
648.16	2383.84
648.35	2613.21
648.54	2621.40
648.73	2408.41
648.91	2602.97
649.10	2506.71
649.29	2371.55
649.48	2467.80
649.67	2568.15
649.86	2504.67
650.05	2574.30
650.23	2707.41
650.42	2562.01
650.61	2779.09
650.80	2711.51
650.99	2791.38
651.18	2654.17
651.36	2648.02
651.55	2439.13
651.74	2586.58
651.93	2455.51
652.12	2539.48
652.31	2502.62
652.49	2539.48
652.68	2461.66
652.87	2760.66
653.06	2559.96
653.25	2686.94
653.44	2498.52
653.62	2678.74
653.81	2445.27
654.00	2441.18
654.19	2654.17
654.38	2863.06
654.56	2588.63
654.75	2400.22
654.94	2555.86
655.13	2504.67
655.32	2404.32
655.51	2547.67
655.69	2426.84
655.88	2572.25
656.07	2406.36
656.26	2420.70
656.45	2295.77
656.63	2514.91
656.82	2512.86
657.01	2578.39
657.20	2414.56
657.38	2621.40
657.57	2496.47
657.76	2349.02
657.95	2529.24
658.14	2437.08
658.32	2465.75
658.51	2363.36
658.70	2512.86
658.89	2562.01
659.08	2490.33
659.26	2701.27
659.45	2441.18
659.64	2652.12
659.83	2469.85
660.01	2850.77
660.20	2531.29
660.39	2662.36
660.58	2232.29
660.76	2592.73
660.95	2344.92
661.14	2555.86
661.33	2385.88
661.51	2406.36
661.70	2447.32
661.89	2570.20
662.08	2424.80
662.26	2371.55
662.45	2383.84
662.64	2703.32
662.83	2527.19
663.01	2359.26
663.20	2406.36
663.39	2621.40
663.58	2478.04
663.76	2400.22
663.95	2494.43
664.14	2361.31
664.32	2385.88
664.51	2326.49
664.70	2320.35
664.89	2555.86
665.07	2373.60
665.26	2572.25
665.45	2400.22
665.64	2555.86
665.82	2504.67
666.01	2613.21
666.20	2301.92
666.38	2682.84
666.57	2727.89
666.76	3915.72
666.95	9492.34
667.13	17823.47
667.32	22632.10
667.51	26142.32
667.69	27375.20
667.88	24338.06
668.07	17143.55
668.25	14176.04
668.44	11794.25
668.63	10223.46
668.81	9172.85
669.00	7782.28
669.19	6860.70
669.38	6088.61
669.56	5283.76
669.75	4310.97
669.94	3710.92
670.12	3184.59
670.31	2932.69
670.50	2777.05
670.68	2676.70
670.87	2654.17
671.06	2482.14
671.24	2559.96
671.43	2777.05
671.62	2621.40
671.80	2420.70
671.99	2541.53
672.18	2533.34
672.36	2635.74
672.55	2514.91
672.74	2506.71
672.92	2449.37
673.11	2627.54
673.29	2357.21
673.48	2652.12
673.67	2418.65
673.85	2617.30
674.04	2363.36
674.23	2473.95
674.41	2766.81
674.60	2359.26
674.79	2318.30
674.97	2349.02
675.16	2654.17
675.34	2645.98
675.53	2332.64
675.72	2533.34
675.90	2678.74
676.09	2404.32
676.28	2467.80
676.46	2375.64
676.65	2572.25
676.83	2359.26
677.02	2457.56
677.21	2488.28
677.39	2519.00
677.58	2383.84
677.77	2406.36
677.95	2432.99
678.14	2465.75
678.32	2426.84
678.51	2422.75
678.70	2715.61
678.88	2539.48
679.07	2521.05
679.25	2441.18
679.44	2424.80
679.63	2336.73
679.81	2576.34
680.00	2600.92
680.18	2514.91
680.37	2678.74
680.55	2492.38
680.74	2340.83
680.93	2277.34
681.11	2531.29
681.30	2469.85
681.48	2471.90
681.67	2461.66
681.85	2488.28
682.04	2349.02
682.23	2547.67
682.41	2463.71
682.60	2441.18
682.78	2492.38
682.97	2326.49
683.15	2519.00
683.34	2572.25
683.53	2613.21
683.71	2359.26
683.90	2584.54
684.08	2686.94
684.27	2416.60
684.45	2580.44
684.64	2562.01
684.82	2498.52
685.01	2645.98
685.19	2389.98
685.38	2682.84
685.57	2465.75
685.75	2396.12
685.94	2432.99
686.12	2351.07
686.31	2435.03
686.49	2709.46
686.68	2244.57
686.86	2422.75
687.05	2473.95
687.23	2660.31
687.42	2400.22
687.60	2316.25
687.79	2602.97
687.97	2697.17
688.16	2703.32
688.34	2559.96
688.53	2248.67
688.71	2602.97
688.90	2629.59
689.08	2455.51
689.27	2211.81
689.45	2545.63
689.64	2525.15
689.82	2496.47
690.01	2580.44
690.19	2529.24
690.38	2502.62
690.56	2537.43
690.75	2383.84
690.93	2461.66
691.12	2432.99
691.30	2457.56
691.49	2514.91
691.67	2514.91
691.86	2748.37
692.04	2486.23
692.23	2531.29
692.41	2555.86
692.60	2785.24
692.78	2547.67
692.97	2645.98
693.15	2650.07
693.34	2727.89
693.52	2635.74
693.71	2443.23
693.89	2484.19
694.08	2336.73
694.26	2504.67
694.44	2611.16
694.63	2523.10
694.81	2428.89
695.00	2351.07
695.18	2654.17
695.37	2758.61
695.55	2519.00
695.74	2359.26
695.92	2457.56
696.10	2688.98
696.29	2256.86
696.47	2406.36
696.66	2351.07
696.84	2392.03
697.03	2465.75
697.21	2731.99
697.40	3684.30
697.58	2549.72
697.76	2455.51
697.95	2402.27
698.13	2324.44
698.32	2392.03
698.50	2496.47
698.68	2519.00
698.87	2553.82
699.05	2660.31
699.24	2463.71
699.42	2387.93
699.61	2496.47
699.79	2510.81
699.97	2492.38
700.16	2396.12
700.34	2283.49
700.53	2553.82
700.71	2684.89
700.89	2531.29
701.08	2449.37
701.26	2506.71
701.45	2979.79
701.63	2375.64
701.81	2432.99
702.00	2385.88
702.18	2486.23
702.37	2473.95
702.55	2772.95
702.73	2660.31
702.92	2572.25
703.10	2836.44
703.28	2781.14
703.47	2439.13
703.65	2658.26
703.84	2578.39
704.02	2498.52
704.20	2789.33
704.39	2435.03
704.57	2383.84
704.75	2600.92
704.94	2596.82
705.12	2490.33
705.30	2877.40
705.49	5633.96
705.67	12662.59
705.86	20727.49
706.04	24301.20
706.22	27223.65
706.41	27616.86
706.59	22550.18
706.77	16305.93
706.96	13829.93
707.14	12443.46
707.32	10479.46
707.51	9348.98
707.69	7468.94
707.87	6193.06
708.06	4945.84
708.24	4083.65
708.42	3440.59
708.61	3237.84
708.79	2641.88
708.97	2650.07
709.16	2629.59
709.34	2512.86
709.52	2445.27
709.71	2514.91
709.89	2531.29
710.07	2379.74
710.26	2324.44
710.44	2463.71
710.62	2652.12
710.80	2430.94
710.99	2588.63
711.17	2510.81
711.35	2447.32
711.54	2416.60
711.72	2609.11
711.90	2512.86
712.09	2570.20
712.27	2394.08
712.45	2461.66
712.63	2373.60
712.82	2478.04
713.00	2459.61
713.18	2572.25
713.37	2590.68
713.55	2674.65
713.73	2504.67
713.91	2602.97
714.10	2363.36
714.28	2488.28
714.46	2588.63
714.65	2498.52
714.83	2441.18
715.01	2537.43
715.19	2547.67
715.38	2316.25
715.56	2498.52
715.74	2371.55
715.92	2320.35
716.11	2635.74
716.29	2277.34
716.47	2514.91
716.65	2408.41
716.84	2267.10
717.02	2543.58
717.20	2301.92
717.38	2367.45
717.57	2570.20
717.75	2523.10
717.93	2459.61
718.11	2551.77
718.30	2285.53
718.48	2490.33
718.66	2570.20
718.84	2590.68
719.03	2447.32
719.21	2346.97
719.39	2643.93
719.57	2506.71
719.75	2555.86
719.94	2389.98
720.12	2402.27
720.30	2445.27
720.48	2525.15
720.67	2457.56
720.85	2408.41
721.03	2416.60
721.21	2340.83
721.39	2553.82
721.58	2564.06
721.76	2496.47
721.94	2519.00
722.12	2512.86
722.30	2568.15
722.49	2437.08
722.67	2539.48
722.85	2486.23
723.03	2373.60
723.21	2435.03
723.40	2531.29
723.58	2570.20
723.76	2609.11
723.94	2688.98
724.12	2519.00
724.30	2711.51
724.49	2670.55
724.67	2445.27
724.85	2633.69
725.03	2338.78
725.21	2605.02
725.40	2633.69
725.58	2394.08
725.76	2523.10
725.94	2580.44
726.12	2355.16
726.30	2539.48
726.49	2373.60
726.67	2369.50
726.85	2545.63
727.03	2820.05
727.21	4257.73
727.39	5875.62
727.57	6637.47
727.76	7382.93
727.94	7470.99
728.12	6883.22
728.30	5511.08
728.48	4902.84
728.66	4517.82
728.84	4120.51
729.03	3512.27
729.21	3258.32
729.39	2969.55
729.57	2736.09
729.75	2736.09
729.93	2555.86
730.11	2400.22
730.30	2519.00
730.48	2473.95
730.66	2504.67
730.84	2510.81
731.02	2547.67
731.20	2404.32
731.38	2547.67
731.56	2373.60
731.74	2297.82
731.93	2506.71
732.11	2564.06
732.29	2398.17
732.47	2578.39
732.65	2504.67
732.83	2641.88
733.01	2551.77
733.19	2361.31
733.37	2465.75
733.56	2437.08
733.74	2412.51
733.92	2658.26
734.10	2369.50
734.28	2564.06
734.46	2355.16
734.64	2414.56
734.82	2514.91
735.00	2527.19
735.18	2371.55
735.36	2525.15
735.54	2392.03
735.73	2420.70
735.91	2488.28
736.09	2564.06
736.27	2519.00
736.45	2494.43
736.63	2328.54
736.81	2379.74
736.99	2592.73
737.17	2758.61
737.35	2422.75
737.53	2437.08
737.71	2443.23
737.89	2621.40
738.07	2383.84
738.25	2461.66
738.43	2318.30
738.61	2375.64
738.80	2301.92
738.98	2426.84
739.16	2389.98
739.34	2381.79
739.52	2645.98
739.70	2555.86
739.88	2650.07
740.06	2564.06
740.24	2285.53
740.42	2664.41
740.60	2234.33
740.78	2502.62
740.96	2252.77
741.14	2432.99
741.32	2500.57
741.50	2277.34
741.68	2648.02
741.86	2662.36
742.04	2299.87
742.22	2258.91
742.40	2396.12
742.58	2580.44
742.76	2416.60
742.94	2602.97
743.12	2326.49
743.30	2475.99
743.48	2535.39
743.66	2469.85
743.84	2545.63
744.02	2408.41
744.20	2531.29
744.38	2328.54
744.56	2379.74
744.74	2742.23
744.92	2535.39
745.10	2588.63
745.28	2566.10
745.46	2625.50
745.64	2449.37
745.82	2594.78
746.00	2441.18
746.18	2588.63
746.36	2306.01
746.54	2559.96
746.72	2555.86
746.90	2392.03
747.08	2672.60
747.26	2437.08
747.44	2519.00
747.62	2643.93
747.80	2471.90
747.98	2547.67
748.15	2490.33
748.33	2750.42
748.51	2504.67
748.69	2553.82
748.87	2416.60
749.05	2519.00
749.23	2455.51
749.41	2568.15
749.59	2435.03
749.77	2564.06
749.95	2453.47
750.13	2375.64
750.31	2566.10
750.49	2512.86
750.67	2555.86
750.85	2588.63
751.03	2465.75
751.20	2797.53
751.38	2430.94
751.56	2449.37
751.74	2455.51
751.92	2416.60
752.10	2385.88
752.28	2555.86
752.46	2443.23
752.64	2496.47
752.82	2514.91
753.00	2607.06
753.18	2467.80
753.35	2400.22
753.53	2494.43
753.71	2455.51
753.89	2478.04
754.07	2465.75
754.25	2547.67
754.43	2461.66
754.61	2338.78
754.79	2549.72
754.97	2523.10
755.14	2590.68
755.32	2351.07
755.50	2543.58
755.68	2519.00
755.86	2289.63
756.04	2316.25
756.22	2308.06
756.40	2562.01
756.57	2680.79
756.75	2441.18
756.93	2629.59
757.11	2611.16
757.29	2361.31
757.47	2389.98
757.65	2318.30
757.82	2220.00
758.00	2353.12
758.18	2316.25
758.36	2365.40
758.54	2668.50
758.72	2181.09
758.90	2475.99
759.07	2428.89
759.25	2363.36
759.43	2408.41
759.61	2379.74
759.79	3499.98
759.97	2543.58
760.15	2504.67
760.32	2437.08
760.50	2613.21
760.68	2682.84
760.86	2320.35
761.04	2635.74
761.22	2570.20
761.39	2449.37
761.57	2568.15
761.75	2375.64
761.93	2506.71
762.11	2498.52
762.28	2506.71
762.46	2338.78
762.64	2586.58
762.82	2344.92
763.00	2375.64
763.18	2549.72
763.35	2342.88
763.53	2545.63
763.71	2512.86
763.89	2523.10
764.07	2519.00
764.24	2521.05
764.42	2643.93
764.60	2430.94
764.78	2492.38
764.96	2564.06
765.13	2482.14
765.31	2527.19
765.49	2553.82
765.67	2330.59
765.84	2392.03
766.02	2344.92
766.20	2326.49
766.38	2500.57
766.56	2514.91
766.73	2598.87
766.91	2453.47
767.09	2428.89
767.27	2578.39
767.44	2277.34
767.62	2514.91
767.80	2547.67
767.98	2375.64
768.15	2471.90
768.33	2609.11
768.51	2586.58
768.69	2531.29
768.87	2508.76
769.04	2418.65
769.22	2711.51
769.40	2588.63
769.58	2617.30
769.75	2572.25
769.93	2617.30
770.11	2416.60
770.28	2318.30
770.46	2539.48
770.64	2512.86
770.82	2383.84
770.99	2465.75
771.17	2582.49
771.35	2441.18
771.53	2482.14
771.70	2377.69
771.88	2631.64
772.06	2432.99
772.23	2418.65
772.41	2414.56
772.59	2359.26
772.77	2375.64
772.94	2457.56
773.12	2465.75
773.30	2389.98
773.47	2529.24
773.65	2396.12
773.83	2662.36
774.01	2473.95
774.18	2320.35
774.36	2373.60
774.54	2297.82
774.71	2482.14
774.89	2324.44
775.07	2355.16
775.24	2396.12
775.42	2447.32
775.60	2707.41
775.78	2342.88
775.95	2320.35
776.13	2209.76
776.31	2209.76
776.48	2510.81
776.66	2574.30
776.84	2451.42
777.01	2392.03
777.19	2377.69
777.37	2353.12
777.54	2521.05
777.72	2744.28
777.90	2498.52
778.07	2459.61
778.25	2904.02
778.43	2609.11
778.60	2357.21
778.78	2551.77
778.96	2564.06
779.13	2334.68
779.31	2516.95
779.49	2469.85
779.66	2435.03
779.84	2471.90
780.01	2441.18
780.19	2387.93
780.37	2631.64
780.54	2521.05
780.72	2363.36
780.90	2369.50
781.07	2416.60
781.25	2392.03
781.43	2498.52
781.60	2439.13
781.78	2547.67
781.95	2486.23
782.13	2381.79
782.31	2428.89
782.48	2287.58
782.66	2445.27
782.83	2643.93
783.01	2566.10
783.19	2592.73
783.36	2512.86
783.54	2318.30
783.72	2562.01
783.89	2387.93
784.07	2484.19
784.24	2553.82
784.42	2613.21
784.60	2572.25
784.77	2471.90
784.95	2205.66
785.12	2400.22
785.30	2498.52
785.47	2445.27
785.65	2375.64
785.83	2424.80
786.00	2422.75
786.18	2529.24
786.35	2383.84
786.53	2371.55
786.71	2559.96
786.88	2555.86
787.06	2574.30
787.23	2490.33
787.41	2349.02
787.58	2500.57
787.76	2430.94
787.94	2502.62
788.11	2555.86
788.29	2334.68
788.46	2377.69
788.64	2254.81
788.81	2334.68
788.99	2316.25
789.16	2353.12
789.34	2447.32
789.52	2381.79
789.69	2449.37
789.87	2230.24
790.04	2430.94
790.22	2504.67
790.39	2711.51
790.57	2394.08
790.74	2367.45
790.92	2504.67
791.09	2310.11
791.27	2443.23
791.44	2576.34
791.62	2471.90
791.79	2545.63
791.97	2490.33
792.15	2756.57
792.32	2512.86
792.50	2613.21
792.67	2555.86
792.85	2592.73
793.02	2484.19
793.20	2414.56
793.37	2365.40
793.55	2400.22
793.72	2332.64
793.90	2574.30
794.07	2385.88
794.25	2381.79
794.42	2486.23
794.60	2502.62
794.77	2465.75
794.95	2594.78
795.12	2586.58
795.30	2529.24
795.47	2248.67
795.65	2684.89
795.82	2543.58
796.00	2443.23
796.17	2426.84
796.34	2361.31
796.52	2383.84
796.69	2545.63
796.87	2531.29
797.04	2449.37
797.22	2535.39
797.39	2471.90
797.57	2547.67
797.74	2488.28
797.92	2514.91
798.09	2414.56
798.27	2633.69
798.44	2389.98
798.62	2387.93
798.79	2539.48
798.96	2525.15
799.14	2416.60
799.31	2766.81
799.49	2445.27
799.66	2449.37
799.84	2461.66
800.01	2310.11
800.19	2506.71
800.36	2195.42
800.53	2506.71
800.71	2482.14
800.88	2676.70
801.06	2363.36
801.23	2369.50
801.41	2394.08
801.58	2453.47
801.75	2387.93
801.93	2463.71
802.10	2645.98
802.28	2416.60
802.45	2392.03
802.63	2469.85
802.80	2668.50
802.97	2451.42
803.15	2443.23
803.32	2461.66
803.50	2416.60
803.67	2344.92
803.84	2326.49
804.02	2428.89
804.19	2449.37
804.37	2238.43
804.54	2344.92
804.71	2373.60
804.89	2478.04
805.06	2414.56
805.24	2373.60
805.41	2283.49
805.58	2486.23
805.76	2760.66
805.93	2392.03
806.10	2525.15
806.28	2639.83
806.45	2445.27
806.63	2473.95
806.80	2543.58
806.97	2523.10
807.15	2510.81
807.32	2478.04
807.49	2404.32
807.67	2318.30
807.84	2490.33
808.01	2299.87
808.19	2629.59
808.36	2799.57
808.54	2416.60
808.71	2349.02
808.88	2510.81
809.06	2607.06
809.23	2709.46
809.40	2383.84
809.58	2445.27
809.75	2494.43
809.92	2330.59
810.10	2637.78
810.27	2424.80
810.44	2512.86
810.62	2564.06
810.79	2588.63
810.96	2437.08
811.14	2398.17
811.31	2521.05
811.48	2521.05
811.66	2465.75
811.83	2611.16
812.00	2559.96
812.18	2496.47
812.35	2691.03
812.52	2373.60
812.69	2346.97
812.87	2486.23
813.04	2385.88
813.21	2490.33
813.39	2408.41
813.56	2334.68
813.73	2627.54
813.91	2361.31
814.08	2588.63
814.25	2562.01
814.42	2318.30
814.60	2449.37
814.77	2539.48
814.94	2445.27
815.12	2568.15
815.29	2725.85
815.46	2396.12
815.63	2543.58
815.81	2502.62
815.98	2459.61
816.15	2430.94
816.33	2465.75
816.50	2340.83
816.67	2521.05
816.84	2430.94
817.02	2375.64
817.19	2406.36
817.36	2523.10
817.53	2523.10
817.71	2314.20
817.88	2525.15
818.05	2439.13
818.22	2379.74
818.40	2582.49
818.57	2375.64
818.74	2488.28
818.91	2402.27
819.09	2531.29
819.26	2473.95
819.43	2416.60
819.60	2375.64
819.78	2516.95
819.95	2541.53
820.12	2406.36
820.29	2660.31
820.47	2572.25
820.64	2365.40
820.81	2379.74
820.98	2338.78
821.15	2457.56
821.33	2488.28
821.50	2244.57
821.67	2588.63
821.84	2383.84
822.02	2527.19
822.19	2596.82
822.36	2488.28
822.53	2441.18
822.70	2258.91
822.88	2367.45
823.05	2562.01
823.22	2447.32
823.39	2562.01
823.56	2465.75
823.74	2654.17
823.91	2334.68
824.08	2359.26
824.25	2338.78
824.42	2668.50
824.60	2279.39
824.77	2506.71
824.94	2416.60
825.11	2572.25
825.28	2322.40
825.45	2551.77
825.63	2523.10
825.80	2385.88
825.97	2461.66
826.14	2453.47
826.31	2299.87
826.48	2551.77
826.66	2412.51
826.83	2379.74
827.00	2463.71
827.17	2285.53
827.34	2424.80
827.51	2357.21
827.69	2496.47
827.86	2326.49
828.03	2449.37
828.20	2373.60
828.37	2416.60
828.54	2539.48
828.71	2361.31
828.89	2662.36
829.06	2492.38
829.23	2625.50
829.40	2338.78
829.57	2424.80
829.74	2562.01
829.91	2361.31
830.09	2332.64
830.26	2490.33
830.43	2715.61
830.60	2482.14
830.77	2512.86
830.94	2611.16
831.11	2592.73
831.28	2459.61
831.46	2564.06
831.63	2449.37
831.80	2637.78
831.97	2410.46
832.14	2377.69
832.31	2445.27
832.48	2500.57
832.65	2645.98
832.82	2484.19
832.99	2529.24
833.17	2293.72
833.34	2629.59
833.51	2463.71
833.68	2269.15
833.85	2592.73
834.02	2332.64
834.19	2371.55
834.36	2412.51
834.53	2533.34
834.70	2576.34
834.87	2525.15
835.04	2404.32
835.22	2328.54
835.39	2377.69
835.56	2334.68
835.73	2371.55
835.90	2637.78
836.07	2371.55
836.24	2488.28
836.41	2258.91
836.58	2441.18
836.75	2719.70
836.92	2422.75
837.09	2344.92
837.26	2607.06
837.43	2607.06
837.60	2506.71
837.77	2355.16
837.94	2551.77
838.12	2592.73
838.29	2367.45
838.46	2279.39
838.63	2299.87
838.80	2668.50
838.97	2502.62
839.14	2287.58
839.31	2441.18
839.48	2592.73
839.65	2344.92
839.82	2482.14
839.99	2516.95
840.16	2504.67
840.33	2269.15
840.50	2406.36
840.67	2432.99
840.84	2195.42
841.01	2359.26
841.18	2322.40
841.35	2408.41
841.52	2654.17
841.69	2607.06
841.86	2396.12
842.03	2490.33
842.20	2549.72
842.37	2416.60
842.54	2359.26
842.71	2443.23
842.88	2342.88
843.05	2478.04
843.22	2414.56
843.39	2551.77
843.56	2478.04
843.73	2285.53
843.90	2396.12
844.07	2535.39
844.24	2533.34
844.41	2480.09
844.58	2461.66
844.75	2521.05
844.92	2592.73
845.09	2377.69
845.26	2316.25
845.43	2455.51
845.60	2420.70
845.77	2490.33
845.94	2449.37
846.10	2611.16
846.27	2314.20
846.44	2330.59
846.61	2324.44
846.78	2547.67
846.95	2611.16
847.12	2377.69
847.29	2320.35
847.46	2346.97
847.63	2643.93
847.80	2344.92
847.97	2392.03
848.14	2758.61
848.31	2441.18
848.48	2299.87
848.65	2373.60
848.82	2404.32
848.98	2813.91
849.15	2447.32
849.32	2555.86
849.49	2592.73
849.66	2506.71
849.83	2306.01
850.00	2306.01
850.17	2629.59
850.34	2406.36
850.51	2363.36
850.68	2338.78
850.85	2783.19
851.01	2559.96
851.18	2301.92
851.35	2441.18
851.52	2531.29
851.69	2635.74
851.86	2334.68
852.03	2357.21
852.20	2523.10
852.37	2459.61
852.53	2273.25
852.70	2447.32
852.87	2516.95
853.04	2508.76
853.21	2377.69
853.38	2555.86
853.55	2670.55
853.72	2637.78
853.89	2316.25
854.05	2351.07
854.22	2473.95
854.39	2471.90
854.56	2349.02
854.73	2531.29
854.90	2398.17
855.07	2469.85
855.23	2355.16
855.40	2400.22
855.57	2473.95
855.74	2287.58
855.91	2496.47
856.08	2254.81
856.25	2326.49
856.41	2371.55
856.58	2406.36
856.75	2463.71
856.92	2400.22
857.09	2691.03
857.26	2258.91
857.42	2367.45
857.59	2564.06
857.76	2355.16
857.93	2371.55
858.10	2422.75
858.27	2357.21
858.43	2469.85
858.60	2371.55
858.77	2314.20
858.94	2349.02
859.11	2539.48
859.27	2334.68
859.44	2373.60
859.61	2725.85
859.78	2535.39
859.95	2424.80
860.12	2371.55
860.28	2734.04
860.45	2750.42
860.62	2342.88
860.79	2432.99
860.95	2426.84
861.12	2332.64
861.29	2357.21
861.46	2381.79
861.63	2441.18
861.79	2465.75
861.96	2349.02
862.13	2367.45
862.30	2645.98
862.47	2430.94
862.63	2308.06
862.80	2402.27
862.97	2568.15
863.14	2498.52
863.30	2369.50
863.47	2299.87
863.64	2621.40
863.81	2475.99
863.97	2326.49
864.14	2322.40
864.31	2359.26
864.48	2424.80
864.65	2424.80
864.81	2545.63
864.98	2598.87
865.15	2559.96
865.32	2387.93
865.48	2486.23
865.65	2701.27
865.82	2336.73
865.98	2437.08
866.15	2414.56
866.32	2510.81
866.49	2373.60
866.65	2592.73
866.82	2295.77
866.99	2449.37
867.16	2371.55
867.32	2381.79
867.49	2275.29
867.66	2422.75
867.83	2379.74
867.99	2240.48
868.16	2424.80
868.33	2326.49
868.49	2498.52
868.66	2373.60
868.83	2490.33
868.99	2539.48
869.16	2488.28
869.33	2486.23
869.50	2451.42
869.66	2492.38
869.83	2531.29
870.00	2303.96
870.16	2490.33
870.33	2398.17
870.50	2621.40
870.66	2465.75
870.83	2463.71
871.00	2389.98
871.17	2559.96
871.33	2314.20
871.50	2301.92
871.67	2473.95
871.83	2308.06
872.00	2478.04
872.17	2334.68
872.33	2650.07
872.50	2596.82
872.67	2375.64
872.83	2392.03
873.00	2449.37
873.17	2435.03
873.33	2455.51
873.50	2457.56
873.67	2381.79
873.83	2410.46
874.00	2432.99
874.16	2514.91
874.33	2508.76
874.50	2406.36
874.66	2424.80
874.83	2396.12
875.00	2537.43
875.16	2506.71
875.33	2414.56
875.50	2191.33
875.66	2465.75
875.83	2473.95
875.99	2447.32
876.16	2449.37
876.33	2355.16
876.49	2441.18
876.66	2432.99
876.83	2342.88
876.99	2306.01
877.16	2416.60
877.32	2351.07
877.49	2500.57
877.66	2580.44
877.82	2719.70
877.99	2496.47
878.15	2486.23
878.32	2506.71
878.49	2523.10
878.65	2365.40
878.82	2564.06
878.98	2420.70
879.15	2535.39
879.32	2473.95
879.48	2418.65
879.65	2420.70
879.81	2496.47
879.98	2324.44
880.15	2359.26
880.31	2559.96
880.48	2375.64
880.64	2465.75
880.81	2432.99
880.97	2633.69
881.14	2549.72
881.31	2291.68
881.47	2519.00
881.64	2467.80
881.80	2277.34
881.97	2412.51
882.13	2422.75
882.30	2316.25
882.47	2418.65
882.63	2349.02
882.80	2334.68
882.96	2461.66
883.13	2609.11
883.29	2351.07
883.46	2377.69
883.62	2731.99
883.79	2535.39
883.95	2531.29
884.12	2349.02
884.29	2631.64
884.45	2478.04
884.62	2416.60
884.78	2293.72
884.95	2736.09
885.11	2351.07
885.28	2478.04
885.44	2357.21
885.61	2537.43
885.77	2578.39
885.94	2389.98
886.10	2441.18
886.27	2412.51
886.43	2693.08
886.60	2549.72
886.76	2422.75
886.93	2363.36
887.09	2449.37
887.26	2269.15
887.42	2445.27
887.59	2631.64
887.75	2762.71
887.92	2527.19
888.08	2486.23
888.25	2719.70
888.41	2545.63
888.58	2447.32
888.74	2346.97
888.91	2346.97
>>>>>End Processed Spectral Data<<<<<
