SpectraSuite Data File
++++++++++++++++++++++++++++++++++++
Date: Thu May 05 14:42:22 CEST 2016
User: root
Dark Spectrum Present: No
Reference Spectrum Present: No
Number of Sampled Component Spectra: 1
Spectrometers: USB4C02835
Integration Time (usec): 100000 (USB4C02835)
Spectra Averaged: 1 (USB4C02835)
Boxcar Smoothing: 0 (USB4C02835)
Correct for Electrical Dark: No (USB4C02835)
Strobe/Lamp Enabled: No (USB4C02835)
Correct for Detector Non-linearity: No (USB4C02835)
Correct for Stray Light: No (USB4C02835)
Number of Pixels in Processed Spectrum: 3648
>>>>>Begin Processed Spectral Data<<<<<
177.47	1949.67
177.69	1949.67
177.91	1949.67
178.13	1900.52
178.36	1898.47
178.58	2359.26
178.80	2519.00
179.02	2301.92
179.24	2336.73
179.46	2244.57
179.68	2404.32
179.90	2572.25
180.13	2553.82
180.35	2236.38
180.57	2269.15
180.79	2600.92
181.01	2525.15
181.23	2394.08
181.45	2414.56
181.67	2598.87
181.90	2633.69
182.12	2400.22
182.34	2230.24
182.56	2562.01
182.78	2498.52
183.00	2369.50
183.22	2336.73
183.44	2260.96
183.66	2813.91
183.89	2394.08
184.11	2353.12
184.33	2527.19
184.55	2623.45
184.77	2379.74
184.99	2404.32
185.21	2414.56
185.43	2731.99
185.65	2322.40
185.87	2297.82
186.10	2766.81
186.32	2801.62
186.54	2412.51
186.76	2449.37
186.98	2586.58
187.20	2490.33
187.42	2363.36
187.64	2314.20
187.86	2529.24
188.08	2637.78
188.30	2277.34
188.52	2404.32
188.75	2547.67
188.97	2662.36
189.19	2285.53
189.41	2310.11
189.63	2539.48
189.85	2414.56
190.07	2267.10
190.29	2267.10
190.51	2568.15
190.73	2410.46
190.95	2498.52
191.17	2326.49
191.39	2316.25
191.61	2435.03
191.84	2287.58
192.06	2361.31
192.28	2310.11
192.50	2918.36
192.72	2404.32
192.94	2379.74
193.16	2570.20
193.38	2498.52
193.60	2222.05
193.82	2367.45
194.04	2682.84
194.26	2504.67
194.48	2277.34
194.70	2297.82
194.92	2375.64
195.14	2555.86
195.36	2285.53
195.58	2326.49
195.80	2392.03
196.02	2426.84
196.24	2328.54
196.46	2443.23
196.69	2435.03
196.91	2766.81
197.13	2318.30
197.35	2375.64
197.57	2648.02
197.79	2553.82
198.01	2471.90
198.23	2408.41
198.45	2584.54
198.67	2301.92
198.89	2340.83
199.11	2478.04
199.33	2357.21
199.55	2224.09
199.77	2260.96
199.99	2480.09
200.21	2416.60
200.43	2449.37
200.65	2269.15
200.87	2183.13
201.09	2441.18
201.31	2371.55
201.53	2400.22
201.75	2459.61
201.97	2500.57
202.19	2486.23
202.41	2351.07
202.63	2543.58
202.85	2523.10
203.07	2514.91
203.29	2392.03
203.51	2211.81
203.73	2392.03
203.95	2822.10
204.17	2367.45
204.39	2400.22
204.61	2387.93
204.83	2426.84
205.05	2428.89
205.27	2396.12
205.49	2695.13
205.71	2432.99
205.93	2269.15
206.15	2310.11
206.37	2420.70
206.59	2453.47
206.81	2226.14
207.03	2271.20
207.25	2334.68
207.47	2502.62
207.69	2324.44
207.91	2523.10
208.13	2670.55
208.34	2461.66
208.56	2267.10
208.78	2383.84
209.00	2439.13
209.22	2326.49
209.44	2342.88
209.66	2250.72
209.88	2553.82
210.10	2426.84
210.32	2404.32
210.54	2408.41
210.76	2506.71
210.98	2637.78
211.20	2148.32
211.42	2473.95
211.64	2605.02
211.86	2467.80
212.08	2367.45
212.30	2314.20
212.52	2400.22
212.74	2523.10
212.96	2361.31
213.17	2428.89
213.39	2537.43
213.61	2664.41
213.83	2293.72
214.05	2377.69
214.27	2629.59
214.49	2361.31
214.71	2260.96
214.93	2467.80
215.15	2473.95
215.37	2543.58
215.59	2265.05
215.81	2381.79
216.03	2699.22
216.24	2543.58
216.46	2424.80
216.68	2408.41
216.90	2506.71
217.12	2645.98
217.34	2357.21
217.56	2435.03
217.78	2719.70
218.00	2580.44
218.22	2396.12
218.44	2439.13
218.66	2498.52
218.87	2678.74
219.09	2306.01
219.31	2379.74
219.53	2529.24
219.75	2463.71
219.97	2406.36
220.19	2314.20
220.41	2494.43
220.63	2645.98
220.85	2381.79
221.06	2334.68
221.28	2668.50
221.50	2480.09
221.72	2379.74
221.94	2357.21
222.16	2527.19
222.38	2574.30
222.60	2314.20
222.82	2375.64
223.03	2572.25
223.25	2363.36
223.47	2334.68
223.69	2475.99
223.91	2547.67
224.13	2574.30
224.35	2330.59
224.57	2461.66
224.78	2578.39
225.00	2383.84
225.22	2432.99
225.44	2340.83
225.66	2605.02
225.88	2486.23
226.10	2428.89
226.32	2371.55
226.53	2670.55
226.75	2404.32
226.97	2375.64
227.19	2336.73
227.41	2457.56
227.63	2383.84
227.85	2211.81
228.06	2301.92
228.28	2498.52
228.50	2586.58
228.72	2207.71
228.94	2322.40
229.16	2258.91
229.37	2353.12
229.59	2250.72
229.81	2525.15
230.03	2449.37
230.25	2336.73
230.47	2273.25
230.69	2258.91
230.90	2656.22
231.12	2455.51
231.34	2449.37
231.56	2527.19
231.78	2359.26
232.00	2504.67
232.21	2396.12
232.43	2387.93
232.65	2232.29
232.87	2404.32
233.09	2349.02
233.30	2332.64
233.52	2557.91
233.74	2396.12
233.96	2293.72
234.18	2375.64
234.40	2432.99
234.61	2752.47
234.83	2263.01
235.05	2263.01
235.27	2822.10
235.49	2609.11
235.70	2267.10
235.92	2432.99
236.14	2568.15
236.36	2721.75
236.58	2277.34
236.79	2463.71
237.01	2463.71
237.23	2451.42
237.45	2521.05
237.67	2256.86
237.88	2498.52
238.10	2686.94
238.32	2275.29
238.54	2275.29
238.76	2514.91
238.97	2363.36
239.19	2291.68
239.41	2412.51
239.63	2594.78
239.85	2379.74
240.06	2365.40
240.28	2271.20
240.50	2523.10
240.72	2435.03
240.93	2353.12
241.15	2453.47
241.37	2432.99
241.59	2660.31
241.81	2322.40
242.02	2379.74
242.24	2572.25
242.46	2533.34
242.68	2310.11
242.89	2383.84
243.11	2611.16
243.33	2441.18
243.55	2381.79
243.76	2398.17
243.98	2416.60
244.20	2555.86
244.42	2408.41
244.64	2410.46
244.85	2260.96
245.07	2381.79
245.29	2416.60
245.51	2365.40
245.72	2488.28
245.94	2562.01
246.16	2365.40
246.38	2396.12
246.59	2465.75
246.81	2330.59
247.03	2299.87
247.24	2224.09
247.46	2410.46
247.68	2490.33
247.90	2297.82
248.11	2371.55
248.33	2553.82
248.55	2512.86
248.77	2404.32
248.98	2377.69
249.20	2684.89
249.42	2435.03
249.64	2428.89
249.85	2349.02
250.07	2306.01
250.29	2543.58
250.50	2355.16
250.72	2273.25
250.94	2572.25
251.16	2744.28
251.37	2404.32
251.59	2375.64
251.81	2551.77
252.02	2713.56
252.24	2318.30
252.46	2424.80
252.68	2383.84
252.89	2435.03
253.11	2211.81
253.33	2412.51
253.54	2613.21
253.76	2314.20
253.98	2320.35
254.20	2330.59
254.41	2361.31
254.63	2389.98
254.85	2236.38
255.06	2416.60
255.28	2605.02
255.50	2506.71
255.71	2273.25
255.93	2252.77
256.15	2465.75
256.36	2547.67
256.58	2269.15
256.80	2371.55
257.02	2480.09
257.23	2469.85
257.45	2414.56
257.67	2449.37
257.88	2404.32
258.10	2576.34
258.32	2363.36
258.53	2342.88
258.75	2637.78
258.97	2381.79
259.18	2297.82
259.40	2422.75
259.62	2707.41
259.83	2627.54
260.05	2332.64
260.27	2957.27
260.48	2639.83
260.70	2363.36
260.92	2353.12
261.13	2367.45
261.35	2500.57
261.57	2514.91
261.78	2291.68
262.00	2258.91
262.22	2424.80
262.43	2336.73
262.65	2226.14
262.86	2314.20
263.08	2783.19
263.30	2441.18
263.51	2193.37
263.73	2308.06
263.95	2707.41
264.16	2441.18
264.38	2273.25
264.60	2367.45
264.81	2510.81
265.03	2539.48
265.25	2490.33
265.46	2330.59
265.68	2662.36
265.89	2578.39
266.11	2289.63
266.33	2330.59
266.54	2639.83
266.76	2545.63
266.98	2408.41
267.19	2457.56
267.41	2650.07
267.62	2482.14
267.84	2207.71
268.06	2406.36
268.27	2494.43
268.49	2686.94
268.70	2494.43
268.92	2326.49
269.14	2400.22
269.35	2349.02
269.57	2459.61
269.79	2428.89
270.00	2392.03
270.22	2674.65
270.43	2254.81
270.65	2162.66
270.87	2549.72
271.08	2531.29
271.30	2412.51
271.51	2389.98
271.73	2621.40
271.95	2699.22
272.16	2406.36
272.38	2361.31
272.59	2392.03
272.81	2523.10
273.02	2326.49
273.24	2455.51
273.46	2557.91
273.67	2365.40
273.89	2275.29
274.10	2295.77
274.32	2578.39
274.54	2488.28
274.75	2451.42
274.97	2375.64
275.18	2596.82
275.40	2533.34
275.61	2363.36
275.83	2422.75
276.05	2377.69
276.26	2533.34
276.48	2480.09
276.69	2355.16
276.91	2387.93
277.12	2641.88
277.34	2523.10
277.55	2541.53
277.77	2469.85
277.99	2553.82
278.20	2285.53
278.42	2332.64
278.63	2346.97
278.85	2371.55
279.06	2330.59
279.28	2541.53
279.49	2553.82
279.71	2514.91
279.93	2432.99
280.14	2500.57
280.36	2400.22
280.57	2635.74
280.79	2426.84
281.00	2265.05
281.22	2455.51
281.43	2645.98
281.65	2236.38
281.86	2396.12
282.08	2478.04
282.29	2768.85
282.51	2295.77
282.73	2441.18
282.94	2281.44
283.16	2582.49
283.37	2600.92
283.59	2498.52
283.80	2486.23
284.02	2435.03
284.23	2500.57
284.45	2441.18
284.66	2293.72
284.88	2404.32
285.09	2381.79
285.31	2553.82
285.52	2574.30
285.74	2273.25
285.95	2625.50
286.17	2486.23
286.38	2600.92
286.60	2383.84
286.81	2400.22
287.03	2408.41
287.24	2506.71
287.46	2506.71
287.67	2478.04
287.89	2607.06
288.10	2377.69
288.32	2451.42
288.53	2580.44
288.75	2465.75
288.96	2594.78
289.18	2471.90
289.39	2383.84
289.61	2426.84
289.82	2815.96
290.04	2729.94
290.25	2318.30
290.47	2435.03
290.68	2537.43
290.90	2654.17
291.11	2226.14
291.33	2537.43
291.54	2408.41
291.76	2387.93
291.97	2506.71
292.18	2406.36
292.40	2365.40
292.61	2377.69
292.83	2658.26
293.04	2500.57
293.26	2498.52
293.47	2447.32
293.69	2322.40
293.90	2342.88
294.12	2670.55
294.33	2482.14
294.55	2441.18
294.76	2627.54
294.97	2693.08
295.19	2662.36
295.40	2435.03
295.62	2486.23
295.83	2531.29
296.05	2373.60
296.26	2553.82
296.48	2449.37
296.69	2498.52
296.90	2381.79
297.12	2490.33
297.33	2564.06
297.55	2500.57
297.76	2510.81
297.98	2559.96
298.19	2473.95
298.41	2428.89
298.62	2383.84
298.83	2607.06
299.05	2525.15
299.26	2359.26
299.48	2424.80
299.69	2461.66
299.90	2322.40
300.12	2373.60
300.33	2523.10
300.55	2441.18
300.76	2482.14
300.98	2340.83
301.19	2555.86
301.40	2422.75
301.62	2416.60
301.83	2523.10
302.05	2502.62
302.26	2408.41
302.47	2478.04
302.69	2316.25
302.90	2486.23
303.12	2187.23
303.33	2469.85
303.54	2742.23
303.76	2465.75
303.97	2519.00
304.19	2613.21
304.40	2377.69
304.61	2590.68
304.83	2607.06
305.04	2521.05
305.26	2537.43
305.47	2504.67
305.68	2381.79
305.90	2230.24
306.11	2680.79
306.33	2473.95
306.54	2265.05
306.75	2402.27
306.97	2277.34
307.18	2396.12
307.39	2375.64
307.61	2494.43
307.82	2471.90
308.04	2543.58
308.25	2324.44
308.46	2592.73
308.68	2473.95
308.89	2455.51
309.10	2592.73
309.32	2420.70
309.53	2488.28
309.74	2572.25
309.96	2447.32
310.17	2523.10
310.39	2400.22
310.60	2584.54
310.81	2420.70
311.03	2316.25
311.24	2611.16
311.45	2465.75
311.67	2572.25
311.88	2510.81
312.09	2408.41
312.31	2441.18
312.52	2377.69
312.73	2301.92
312.95	2340.83
313.16	2338.78
313.37	2572.25
313.59	2527.19
313.80	2553.82
314.01	2650.07
314.23	2381.79
314.44	2359.26
314.65	2289.63
314.87	2389.98
315.08	2392.03
315.29	2375.64
315.51	2396.12
315.72	2271.20
315.93	2568.15
316.15	2529.24
316.36	2430.94
316.57	2471.90
316.79	2465.75
317.00	2363.36
317.21	2584.54
317.43	2375.64
317.64	2557.91
317.85	2328.54
318.07	2389.98
318.28	2478.04
318.49	2557.91
318.70	2742.23
318.92	2639.83
319.13	2641.88
319.34	2627.54
319.56	2465.75
319.77	2494.43
319.98	2668.50
320.20	2627.54
320.41	2555.86
320.62	2535.39
320.83	2342.88
321.05	2703.32
321.26	2449.37
321.47	2422.75
321.69	2650.07
321.90	2338.78
322.11	2445.27
322.32	2490.33
322.54	2623.45
322.75	2441.18
322.96	2924.50
323.18	2359.26
323.39	2267.10
323.60	2349.02
323.81	2508.76
324.03	2351.07
324.24	2441.18
324.45	2455.51
324.66	2359.26
324.88	2711.51
325.09	2648.02
325.30	2471.90
325.52	2490.33
325.73	2588.63
325.94	2340.83
326.15	2295.77
326.37	2379.74
326.58	2617.30
326.79	2693.08
327.00	2367.45
327.22	2408.41
327.43	2398.17
327.64	2308.06
327.85	2455.51
328.07	2422.75
328.28	2664.41
328.49	2426.84
328.70	2428.89
328.92	2457.56
329.13	2496.47
329.34	2473.95
329.55	2566.10
329.76	2650.07
329.98	2435.03
330.19	2578.39
330.40	2482.14
330.61	2490.33
330.83	2578.39
331.04	2353.12
331.25	2502.62
331.46	2377.69
331.68	2336.73
331.89	2572.25
332.10	2449.37
332.31	2330.59
332.52	2449.37
332.74	2699.22
332.95	2332.64
333.16	2432.99
333.37	2658.26
333.58	2412.51
333.80	2449.37
334.01	2351.07
334.22	2465.75
334.43	2432.99
334.64	2422.75
334.86	2332.64
335.07	2375.64
335.28	2607.06
335.49	2291.68
335.70	2506.71
335.92	2600.92
336.13	2799.57
336.34	2555.86
336.55	2519.00
336.76	2529.24
336.98	2297.82
337.19	2453.47
337.40	2568.15
337.61	2848.72
337.82	2480.09
338.04	2473.95
338.25	2297.82
338.46	2482.14
338.67	2484.19
338.88	2322.40
339.09	2377.69
339.31	2492.38
339.52	2351.07
339.73	2437.08
339.94	2381.79
340.15	2578.39
340.36	2371.55
340.58	2504.67
340.79	2369.50
341.00	2592.73
341.21	2301.92
341.42	2600.92
341.63	2447.32
341.85	2613.21
342.06	2408.41
342.27	2371.55
342.48	2562.01
342.69	2334.68
342.90	2506.71
343.12	2539.48
343.33	2318.30
343.54	2572.25
343.75	2543.58
343.96	2381.79
344.17	2346.97
344.38	2496.47
344.60	2416.60
344.81	2400.22
345.02	2416.60
345.23	2662.36
345.44	2756.57
345.65	2488.28
345.86	2451.42
346.07	2500.57
346.29	2406.36
346.50	2510.81
346.71	2486.23
346.92	2676.70
347.13	2746.33
347.34	2432.99
347.55	2392.03
347.76	2531.29
347.98	2295.77
348.19	2416.60
348.40	2557.91
348.61	2471.90
348.82	2680.79
349.03	2506.71
349.24	2387.93
349.45	2762.71
349.66	2215.90
349.88	2432.99
350.09	2318.30
350.30	2627.54
350.51	2559.96
350.72	2514.91
350.93	2473.95
351.14	2381.79
351.35	2547.67
351.56	2500.57
351.77	2475.99
351.99	2531.29
352.20	2654.17
352.41	2488.28
352.62	2260.96
352.83	2498.52
353.04	2582.49
353.25	2383.84
353.46	2480.09
353.67	2576.34
353.88	2236.38
354.09	2424.80
354.30	2398.17
354.52	2572.25
354.73	2496.47
354.94	2328.54
355.15	2387.93
355.36	2676.70
355.57	2404.32
355.78	2412.51
355.99	2342.88
356.20	2439.13
356.41	2711.51
356.62	2480.09
356.83	2461.66
357.04	2613.21
357.25	2301.92
357.46	2373.60
357.68	2254.81
357.89	2336.73
358.10	2459.61
358.31	2408.41
358.52	2408.41
358.73	2346.97
358.94	2410.46
359.15	2375.64
359.36	2504.67
359.57	2457.56
359.78	2480.09
359.99	2547.67
360.20	2428.89
360.41	2441.18
360.62	2578.39
360.83	2453.47
361.04	2502.62
361.25	2529.24
361.46	2613.21
361.67	2441.18
361.88	2461.66
362.09	2559.96
362.30	2535.39
362.51	2355.16
362.72	2457.56
362.93	2582.49
363.14	2531.29
363.35	2523.10
363.56	2375.64
363.78	2637.78
363.99	2631.64
364.20	2340.83
364.41	2574.30
364.62	2748.37
364.83	2535.39
365.04	2430.94
365.25	2461.66
365.46	2711.51
365.67	2365.40
365.88	2482.14
366.09	2367.45
366.30	2430.94
366.51	2473.95
366.72	2336.73
366.93	2324.44
367.14	2492.38
367.35	2611.16
367.56	2441.18
367.77	2555.86
367.98	2498.52
368.18	2465.75
368.39	2572.25
368.60	2312.16
368.81	2537.43
369.02	2508.76
369.23	2471.90
369.44	2293.72
369.65	2375.64
369.86	2480.09
370.07	2514.91
370.28	2369.50
370.49	2580.44
370.70	2564.06
370.91	2359.26
371.12	2283.49
371.33	2568.15
371.54	2408.41
371.75	2627.54
371.96	2236.38
372.17	2605.02
372.38	2455.51
372.59	2547.67
372.80	2410.46
373.01	2478.04
373.22	2510.81
373.43	2510.81
373.64	2318.30
373.85	2645.98
374.06	2666.46
374.26	2566.10
374.47	2451.42
374.68	2670.55
374.89	2457.56
375.10	2412.51
375.31	2519.00
375.52	2521.05
375.73	2478.04
375.94	2295.77
376.15	2592.73
376.36	2351.07
376.57	2449.37
376.78	2408.41
376.99	2439.13
377.20	2662.36
377.40	2486.23
377.61	2715.61
377.82	2334.68
378.03	2660.31
378.24	2596.82
378.45	2553.82
378.66	2471.90
378.87	2342.88
379.08	2328.54
379.29	2361.31
379.50	2496.47
379.71	2441.18
379.91	2559.96
380.12	2387.93
380.33	2398.17
380.54	2498.52
380.75	2512.86
380.96	2385.88
381.17	2621.40
381.38	2584.54
381.59	2490.33
381.80	2428.89
382.00	2645.98
382.21	2449.37
382.42	2725.85
382.63	2711.51
382.84	2502.62
383.05	2643.93
383.26	2672.60
383.47	2469.85
383.68	2541.53
383.88	2547.67
384.09	2457.56
384.30	2602.97
384.51	2519.00
384.72	2473.95
384.93	2351.07
385.14	2508.76
385.35	2570.20
385.55	2310.11
385.76	2600.92
385.97	2439.13
386.18	2287.58
386.39	2351.07
386.60	2418.65
386.81	2383.84
387.02	2322.40
387.22	2351.07
387.43	2559.96
387.64	2486.23
387.85	2670.55
388.06	2703.32
388.27	4050.88
388.48	8275.84
388.68	12203.85
388.89	14509.86
389.10	15564.56
389.31	14720.80
389.52	11517.78
389.73	10016.62
389.93	9019.25
390.14	8216.45
390.35	7425.93
390.56	6680.47
390.77	5521.32
390.98	4200.38
391.18	3399.63
391.39	2971.60
391.60	2580.44
391.81	2586.58
392.02	2418.65
392.23	2750.42
392.43	2537.43
392.64	2605.02
392.85	2519.00
393.06	2713.56
393.27	2514.91
393.47	2334.68
393.68	2457.56
393.89	2437.08
394.10	2594.78
394.31	2383.84
394.52	2428.89
394.72	2361.31
394.93	2717.65
395.14	2340.83
395.35	2463.71
395.56	2439.13
395.76	2539.48
395.97	2455.51
396.18	2527.19
396.39	2619.35
396.60	3002.32
396.80	2686.94
397.01	2609.11
397.22	2701.27
397.43	2686.94
397.64	2342.88
397.84	2553.82
398.05	2789.33
398.26	2443.23
398.47	2496.47
398.67	2691.03
398.88	2473.95
399.09	2596.82
399.30	2381.79
399.51	2486.23
399.71	2441.18
399.92	2478.04
400.13	2504.67
400.34	2398.17
400.54	2459.61
400.75	2654.17
400.96	2404.32
401.17	2695.13
401.37	2539.48
401.58	2441.18
401.79	2432.99
402.00	2551.77
402.21	2959.31
402.41	2760.66
402.62	2779.09
402.83	2914.26
403.04	2914.26
403.24	3088.34
403.45	2619.35
403.66	2791.38
403.87	2719.70
404.07	2764.76
404.28	2695.13
404.49	2691.03
404.70	2531.29
404.90	2592.73
405.11	2531.29
405.32	2531.29
405.52	2463.71
405.73	2430.94
405.94	2363.36
406.15	2449.37
406.35	2633.69
406.56	2551.77
406.77	2406.36
406.98	2396.12
407.18	2349.02
407.39	2602.97
407.60	2385.88
407.80	2537.43
408.01	2418.65
408.22	2508.76
408.43	2375.64
408.63	2482.14
408.84	2572.25
409.05	2570.20
409.25	2437.08
409.46	2418.65
409.67	2392.03
409.88	2404.32
410.08	2496.47
410.29	2394.08
410.50	2568.15
410.70	2572.25
410.91	2330.59
411.12	2494.43
411.32	2504.67
411.53	2437.08
411.74	2516.95
411.95	2600.92
412.15	2588.63
412.36	2617.30
412.57	2549.72
412.77	2668.50
412.98	2559.96
413.19	2363.36
413.39	2447.32
413.60	2578.39
413.81	2582.49
414.01	2379.74
414.22	2494.43
414.43	2588.63
414.63	2408.41
414.84	2584.54
415.05	2463.71
415.25	2271.20
415.46	2564.06
415.67	2389.98
415.87	2545.63
416.08	2336.73
416.29	2383.84
416.49	2525.15
416.70	2441.18
416.91	2338.78
417.11	2482.14
417.32	2613.21
417.53	2549.72
417.73	2457.56
417.94	2389.98
418.15	2535.39
418.35	2451.42
418.56	2498.52
418.77	2850.77
418.97	2514.91
419.18	2486.23
419.38	2222.05
419.59	2408.41
419.80	2617.30
420.00	2480.09
420.21	2381.79
420.42	2621.40
420.62	2500.57
420.83	2383.84
421.04	2414.56
421.24	2504.67
421.45	2531.29
421.65	2545.63
421.86	2435.03
422.07	2508.76
422.27	2506.71
422.48	2424.80
422.69	2375.64
422.89	2519.00
423.10	2451.42
423.30	2373.60
423.51	2516.95
423.72	2465.75
423.92	2529.24
424.13	2375.64
424.33	2461.66
424.54	2557.91
424.75	2496.47
424.95	2637.78
425.16	2441.18
425.36	2428.89
425.57	2586.58
425.78	2527.19
425.98	2527.19
426.19	2422.75
426.39	2342.88
426.60	2486.23
426.81	2588.63
427.01	2480.09
427.22	2287.58
427.42	2318.30
427.63	2404.32
427.83	2648.02
428.04	2637.78
428.25	2564.06
428.45	2574.30
428.66	2625.50
428.86	2557.91
429.07	2375.64
429.28	2506.71
429.48	2494.43
429.69	2383.84
429.89	2547.67
430.10	2353.12
430.30	2543.58
430.51	2621.40
430.71	2437.08
430.92	2428.89
431.13	2482.14
431.33	2551.77
431.54	2514.91
431.74	2645.98
431.95	2809.81
432.15	2410.46
432.36	2449.37
432.56	2494.43
432.77	2777.05
432.98	2678.74
433.18	2422.75
433.39	2418.65
433.59	2473.95
433.80	2727.89
434.00	2629.59
434.21	2422.75
434.41	2396.12
434.62	2803.67
434.82	2385.88
435.03	2342.88
435.23	2557.91
435.44	2291.68
435.64	2482.14
435.85	2539.48
436.06	2637.78
436.26	2602.97
436.47	2420.70
436.67	2392.03
436.88	2435.03
437.08	2621.40
437.29	2641.88
437.49	2578.39
437.70	2619.35
437.90	2502.62
438.11	2633.69
438.31	2547.67
438.52	2713.56
438.72	2633.69
438.93	2744.28
439.13	2475.99
439.34	2637.78
439.54	2459.61
439.75	2574.30
439.95	2586.58
440.16	2428.89
440.36	2420.70
440.57	2412.51
440.77	2465.75
440.98	2484.19
441.18	2605.02
441.39	2383.84
441.59	2301.92
441.80	2838.48
442.00	2502.62
442.21	2621.40
442.41	2295.77
442.62	2633.69
442.82	2488.28
443.02	2410.46
443.23	2459.61
443.43	2449.37
443.64	2678.74
443.84	2357.21
444.05	2527.19
444.25	2543.58
444.46	2459.61
444.66	2404.32
444.87	2664.41
445.07	2273.25
445.28	2445.27
445.48	2641.88
445.69	2510.81
445.89	2834.39
446.09	2537.43
446.30	2826.20
446.50	3006.42
446.71	4652.98
446.91	5820.33
447.12	6707.10
447.32	7223.19
447.53	6569.88
447.73	5324.72
447.93	4861.88
448.14	4474.81
448.34	4300.73
448.55	3850.18
448.75	3772.36
448.96	3618.76
449.16	3217.36
449.36	3133.39
449.57	2746.33
449.77	2539.48
449.98	2537.43
450.18	2635.74
450.39	2516.95
450.59	2457.56
450.79	2531.29
451.00	2527.19
451.20	2535.39
451.41	2449.37
451.61	2480.09
451.81	2473.95
452.02	2445.27
452.22	2402.27
452.43	2463.71
452.63	2432.99
452.84	2410.46
453.04	2359.26
453.24	2531.29
453.45	2457.56
453.65	2406.36
453.86	2422.75
454.06	2539.48
454.26	2609.11
454.47	2375.64
454.67	2633.69
454.87	2545.63
455.08	2502.62
455.28	2588.63
455.49	2459.61
455.69	2432.99
455.89	2768.85
456.10	2621.40
456.30	2408.41
456.51	2516.95
456.71	2525.15
456.91	2541.53
457.12	2404.32
457.32	2582.49
457.52	2332.64
457.73	2529.24
457.93	2613.21
458.14	2432.99
458.34	2328.54
458.54	2478.04
458.75	2447.32
458.95	2627.54
459.15	2494.43
459.36	2535.39
459.56	2439.13
459.76	2748.37
459.97	2490.33
460.17	2424.80
460.37	2553.82
460.58	2564.06
460.78	2592.73
460.99	2469.85
461.19	2400.22
461.39	2394.08
461.60	2430.94
461.80	2506.71
462.00	2379.74
462.21	2445.27
462.41	2363.36
462.61	2445.27
462.82	2295.77
463.02	2514.91
463.22	2494.43
463.43	2531.29
463.63	2484.19
463.83	2549.72
464.04	2506.71
464.24	2402.27
464.44	2322.40
464.64	2480.09
464.85	2578.39
465.05	2531.29
465.25	2342.88
465.46	2414.56
465.66	2504.67
465.86	2504.67
466.07	2531.29
466.27	2543.58
466.47	2340.83
466.68	2371.55
466.88	2568.15
467.08	2564.06
467.29	2562.01
467.49	2553.82
467.69	2502.62
467.89	2572.25
468.10	2537.43
468.30	2492.38
468.50	2551.77
468.71	2621.40
468.91	2406.36
469.11	2627.54
469.31	2480.09
469.52	2371.55
469.72	2762.71
469.92	2627.54
470.13	2508.76
470.33	2519.00
470.53	2559.96
470.73	2846.68
470.94	3272.65
471.14	3358.67
471.34	3829.70
471.54	3667.91
471.75	3342.28
471.95	3160.02
472.15	2967.51
472.36	3020.75
472.56	3020.75
472.76	2973.65
472.96	2998.23
473.17	2770.90
473.37	2645.98
473.57	2512.86
473.77	2572.25
473.98	2500.57
474.18	2332.64
474.38	2889.68
474.58	2486.23
474.79	2430.94
474.99	2510.81
475.19	2523.10
475.39	2346.97
475.60	2461.66
475.80	2480.09
476.00	2584.54
476.20	2432.99
476.41	2475.99
476.61	2641.88
476.81	2660.31
477.01	2383.84
477.21	2645.98
477.42	2635.74
477.62	2375.64
477.82	2596.82
478.02	2432.99
478.23	2459.61
478.43	2410.46
478.63	2428.89
478.83	2482.14
479.03	2473.95
479.24	2580.44
479.44	2729.94
479.64	2398.17
479.84	2332.64
480.04	2457.56
480.25	2588.63
480.45	2412.51
480.65	2432.99
480.85	2650.07
481.06	2445.27
481.26	2568.15
481.46	2564.06
481.66	2424.80
481.86	2346.97
482.06	2615.26
482.27	2447.32
482.47	2449.37
482.67	2525.15
482.87	2457.56
483.07	2529.24
483.28	2398.17
483.48	2338.78
483.68	2420.70
483.88	2295.77
484.08	2222.05
484.29	2359.26
484.49	2443.23
484.69	2342.88
484.89	2719.70
485.09	2504.67
485.29	2564.06
485.50	2482.14
485.70	2424.80
485.90	2652.12
486.10	2435.03
486.30	2449.37
486.50	2621.40
486.71	2564.06
486.91	2527.19
487.11	2580.44
487.31	2293.72
487.51	2586.58
487.71	2375.64
487.91	2408.41
488.12	2308.06
488.32	2269.15
488.52	2351.07
488.72	2228.19
488.92	2500.57
489.12	2586.58
489.32	2555.86
489.53	2443.23
489.73	2349.02
489.93	2672.60
490.13	2422.75
490.33	2324.44
490.53	2580.44
490.73	2586.58
490.94	2328.54
491.14	2580.44
491.34	2592.73
491.54	2658.26
491.74	3502.03
491.94	4022.21
492.14	4362.17
492.34	4366.27
492.54	4138.94
492.75	3504.07
492.95	3397.58
493.15	3266.51
493.35	3155.92
493.55	3133.39
493.75	2938.84
493.95	3076.05
494.15	2754.52
494.35	2609.11
494.56	2473.95
494.76	2439.13
494.96	2545.63
495.16	2408.41
495.36	2471.90
495.56	2447.32
495.76	2478.04
495.96	2441.18
496.16	2527.19
496.36	2686.94
496.56	2539.48
496.77	2504.67
496.97	2527.19
497.17	2637.78
497.37	2301.92
497.57	2502.62
497.77	2498.52
497.97	2392.03
498.17	2504.67
498.37	2379.74
498.57	2605.02
498.77	2478.04
498.97	2531.29
499.17	2721.75
499.38	2428.89
499.58	2596.82
499.78	2594.78
499.98	2615.26
500.18	2488.28
500.38	2418.65
500.58	2723.80
500.78	3102.67
500.98	5384.11
501.18	7511.95
501.38	9043.83
501.58	10223.46
501.78	10102.63
501.98	8261.51
502.18	6711.19
502.38	5726.12
502.58	5435.31
502.78	4904.89
502.98	4734.90
503.18	4491.20
503.38	4042.69
503.59	3571.66
503.79	3444.68
503.99	3209.17
504.19	3059.67
504.39	3119.06
504.59	3108.82
504.79	3176.40
504.99	3153.87
505.19	2924.50
505.39	2768.85
505.59	2895.83
505.79	2801.62
505.99	2701.27
506.19	2633.69
506.39	2695.13
506.59	2424.80
506.79	2521.05
506.99	2590.68
507.19	2465.75
507.39	2555.86
507.59	2375.64
507.79	2408.41
507.99	2418.65
508.19	2543.58
508.39	2473.95
508.59	2441.18
508.79	2629.59
508.99	2779.09
509.19	2369.50
509.39	2553.82
509.59	2398.17
509.79	2473.95
509.99	2535.39
510.19	2637.78
510.39	2596.82
510.59	2488.28
510.79	2457.56
510.99	2379.74
511.19	2471.90
511.39	2621.40
511.59	2709.46
511.79	2631.64
511.99	2494.43
512.19	2768.85
512.38	2428.89
512.58	2437.08
512.78	2439.13
512.98	2707.41
513.18	2699.22
513.38	2353.12
513.58	2506.71
513.78	2457.56
513.98	2531.29
514.18	2422.75
514.38	2389.98
514.58	2562.01
514.78	2392.03
514.98	2375.64
515.18	2500.57
515.38	2334.68
515.58	2691.03
515.78	2375.64
515.98	2459.61
516.18	2490.33
516.38	2494.43
516.57	2385.88
516.77	2367.45
516.97	2629.59
517.17	2387.93
517.37	2340.83
517.57	2588.63
517.77	2498.52
517.97	2514.91
518.17	2521.05
518.37	2432.99
518.57	2392.03
518.77	2508.76
518.97	2496.47
519.16	2566.10
519.36	2691.03
519.56	2447.32
519.76	2430.94
519.96	2441.18
520.16	2609.11
520.36	2342.88
520.56	2627.54
520.76	2422.75
520.96	2482.14
521.16	2637.78
521.35	2551.77
521.55	2609.11
521.75	2553.82
521.95	2340.83
522.15	2414.56
522.35	2310.11
522.55	2361.31
522.75	2623.45
522.95	2389.98
523.14	2394.08
523.34	2539.48
523.54	2457.56
523.74	2521.05
523.94	2500.57
524.14	2252.77
524.34	2521.05
524.54	2660.31
524.73	2420.70
524.93	2652.12
525.13	2473.95
525.33	2359.26
525.53	2705.37
525.73	2572.25
525.93	2488.28
526.13	2424.80
526.32	2486.23
526.52	2686.94
526.72	2605.02
526.92	2398.17
527.12	2430.94
527.32	2291.68
527.52	2592.73
527.71	2547.67
527.91	2506.71
528.11	2410.46
528.31	2473.95
528.51	2338.78
528.71	2551.77
528.90	2496.47
529.10	2602.97
529.30	2613.21
529.50	2230.24
529.70	2504.67
529.90	2461.66
530.09	2496.47
530.29	2375.64
530.49	2455.51
530.69	2711.51
530.89	2523.10
531.09	2564.06
531.28	2488.28
531.48	2645.98
531.68	2447.32
531.88	2531.29
532.08	2613.21
532.28	2496.47
532.47	2519.00
532.67	2564.06
532.87	2627.54
533.07	2443.23
533.27	2559.96
533.46	2484.19
533.66	2562.01
533.86	2559.96
534.06	2525.15
534.26	2457.56
534.45	2496.47
534.65	2557.91
534.85	2494.43
535.05	2455.51
535.25	2600.92
535.44	2277.34
535.64	2602.97
535.84	2424.80
536.04	2441.18
536.24	2445.27
536.43	2408.41
536.63	2488.28
536.83	2498.52
537.03	2510.81
537.22	2322.40
537.42	2334.68
537.62	2529.24
537.82	2400.22
538.02	2635.74
538.21	2512.86
538.41	2801.62
538.61	2592.73
538.81	2424.80
539.00	2543.58
539.20	2346.97
539.40	2420.70
539.60	2443.23
539.79	2566.10
539.99	2457.56
540.19	2426.84
540.39	2400.22
540.58	2543.58
540.78	2570.20
540.98	2461.66
541.18	2602.97
541.37	2580.44
541.57	2523.10
541.77	2514.91
541.97	2312.16
542.16	2349.02
542.36	2449.37
542.56	2457.56
542.76	2633.69
542.95	2566.10
543.15	2578.39
543.35	2568.15
543.54	2355.16
543.74	2486.23
543.94	2721.75
544.14	2385.88
544.33	2619.35
544.53	2396.12
544.73	2400.22
544.93	2459.61
545.12	2457.56
545.32	2402.27
545.52	2473.95
545.71	2363.36
545.91	2461.66
546.11	2455.51
546.30	2455.51
546.50	2453.47
546.70	2535.39
546.90	2459.61
547.09	2310.11
547.29	2480.09
547.49	2482.14
547.68	2375.64
547.88	2383.84
548.08	2562.01
548.27	2920.40
548.47	2400.22
548.67	2402.27
548.87	2537.43
549.06	2408.41
549.26	2494.43
549.46	2555.86
549.65	2408.41
549.85	2512.86
550.05	2482.14
550.24	2361.31
550.44	2490.33
550.64	2475.99
550.83	2486.23
551.03	2668.50
551.23	2682.84
551.42	2545.63
551.62	2488.28
551.82	2533.34
552.01	2490.33
552.21	2580.44
552.41	2463.71
552.60	2635.74
552.80	2506.71
553.00	2492.38
553.19	2467.80
553.39	2654.17
553.59	2371.55
553.78	2498.52
553.98	2492.38
554.17	2359.26
554.37	2457.56
554.57	2428.89
554.76	2314.20
554.96	2478.04
555.16	2555.86
555.35	2566.10
555.55	2516.95
555.75	2529.24
555.94	2572.25
556.14	2269.15
556.33	2443.23
556.53	2496.47
556.73	2537.43
556.92	2525.15
557.12	2508.76
557.32	2758.61
557.51	2660.31
557.71	2502.62
557.90	2633.69
558.10	2580.44
558.30	2449.37
558.49	2406.36
558.69	2469.85
558.88	2645.98
559.08	2547.67
559.28	2383.84
559.47	2414.56
559.67	2500.57
559.86	2680.79
560.06	2408.41
560.26	2441.18
560.45	2490.33
560.65	2488.28
560.84	2699.22
561.04	2379.74
561.24	2592.73
561.43	2383.84
561.63	2656.22
561.82	2519.00
562.02	2623.45
562.22	2398.17
562.41	2332.64
562.61	2437.08
562.80	2447.32
563.00	2830.29
563.19	2486.23
563.39	2535.39
563.59	2592.73
563.78	2359.26
563.98	2238.43
564.17	2457.56
564.37	2297.82
564.56	2467.80
564.76	2353.12
564.96	2592.73
565.15	2523.10
565.35	2834.39
565.54	2428.89
565.74	2426.84
565.93	2545.63
566.13	2408.41
566.32	2467.80
566.52	2523.10
566.71	2557.91
566.91	2658.26
567.11	2555.86
567.30	2375.64
567.50	2512.86
567.69	2570.20
567.89	2496.47
568.08	2371.55
568.28	2482.14
568.47	2369.50
568.67	2564.06
568.86	2342.88
569.06	2611.16
569.25	2459.61
569.45	2351.07
569.64	2404.32
569.84	2545.63
570.04	2508.76
570.23	2402.27
570.43	2367.45
570.62	2484.19
570.82	2752.47
571.01	2326.49
571.21	2303.96
571.40	2303.96
571.60	2588.63
571.79	2482.14
571.99	2465.75
572.18	2396.12
572.38	2545.63
572.57	2473.95
572.77	2602.97
572.96	2838.48
573.16	2602.97
573.35	2463.71
573.55	2549.72
573.74	2590.68
573.94	2418.65
574.13	2488.28
574.33	2605.02
574.52	2662.36
574.71	2535.39
574.91	2594.78
575.10	2283.49
575.30	2453.47
575.49	2430.94
575.69	2398.17
575.88	2559.96
576.08	2551.77
576.27	2684.89
576.47	2478.04
576.66	2629.59
576.86	2613.21
577.05	2535.39
577.25	2576.34
577.44	2713.56
577.64	2389.98
577.83	2660.31
578.02	2480.09
578.22	2633.69
578.41	2752.47
578.61	2359.26
578.80	2357.21
579.00	2531.29
579.19	2533.34
579.39	2584.54
579.58	2564.06
579.77	2475.99
579.97	2695.13
580.16	2547.67
580.36	2621.40
580.55	2566.10
580.75	2586.58
580.94	2570.20
581.13	2609.11
581.33	2664.41
581.52	2523.10
581.72	2756.57
581.91	2621.40
582.11	2533.34
582.30	2650.07
582.49	2572.25
582.69	2666.46
582.88	2566.10
583.08	2586.58
583.27	2672.60
583.47	2531.29
583.66	2416.60
583.85	2353.12
584.05	2432.99
584.24	2566.10
584.44	2502.62
584.63	2607.06
584.82	2695.13
585.02	2768.85
585.21	2617.30
585.41	2611.16
585.60	2547.67
585.79	2807.77
585.99	2740.18
586.18	2600.92
586.37	3225.55
586.57	5091.25
586.76	15126.30
586.96	34207.22
587.15	47893.80
587.34	56992.92
587.54	61410.39
587.73	55534.77
587.93	39507.37
588.12	29857.34
588.31	24102.54
588.51	20963.01
588.70	19357.40
588.89	17473.27
589.09	14780.19
589.28	12906.30
589.47	10315.62
589.67	8101.76
589.86	6332.32
590.06	4569.02
590.25	3889.09
590.44	3422.16
590.64	3059.67
590.83	2834.39
591.02	2869.20
591.22	2529.24
591.41	2580.44
591.60	2566.10
591.80	2822.10
591.99	2389.98
592.18	2471.90
592.38	2674.65
592.57	2500.57
592.76	2566.10
592.96	2543.58
593.15	2584.54
593.34	2625.50
593.54	2459.61
593.73	2588.63
593.92	2594.78
594.12	2596.82
594.31	2539.48
594.50	2658.26
594.70	2617.30
594.89	2793.43
595.08	2314.20
595.28	2650.07
595.47	2957.27
595.66	2576.34
595.86	2396.12
596.05	2463.71
596.24	2430.94
596.43	2693.08
596.63	2676.70
596.82	2572.25
597.01	2600.92
597.21	2781.14
597.40	2539.48
597.59	2549.72
597.79	2629.59
597.98	2564.06
598.17	2570.20
598.36	2502.62
598.56	2639.83
598.75	2508.76
598.94	2510.81
599.14	2498.52
599.33	2428.89
599.52	2594.78
599.71	2570.20
599.91	2568.15
600.10	2609.11
600.29	2506.71
600.48	2506.71
600.68	2447.32
600.87	2482.14
601.06	2422.75
601.26	2506.71
601.45	2475.99
601.64	2408.41
601.83	2725.85
602.03	2383.84
602.22	2312.16
602.41	2607.06
602.60	2783.19
602.80	2467.80
602.99	2596.82
603.18	2514.91
603.37	2531.29
603.57	2447.32
603.76	2545.63
603.95	2613.21
604.14	2496.47
604.34	2416.60
604.53	2369.50
604.72	2523.10
604.91	2588.63
605.10	2494.43
605.30	2314.20
605.49	2781.14
605.68	2613.21
605.87	2539.48
606.07	2365.40
606.26	2523.10
606.45	2564.06
606.64	2553.82
606.84	2422.75
607.03	2475.99
607.22	2672.60
607.41	2525.15
607.60	2459.61
607.80	2670.55
607.99	2486.23
608.18	2424.80
608.37	2492.38
608.56	2453.47
608.76	2613.21
608.95	2656.22
609.14	2598.87
609.33	2746.33
609.52	2781.14
609.72	2584.54
609.91	2674.65
610.10	2611.16
610.29	2736.09
610.48	2555.86
610.68	2559.96
610.87	2510.81
611.06	2678.74
611.25	2469.85
611.44	2582.49
611.63	2402.27
611.83	2658.26
612.02	2424.80
612.21	2592.73
612.40	2271.20
612.59	2392.03
612.79	2398.17
612.98	2455.51
613.17	2664.41
613.36	2490.33
613.55	2695.13
613.74	2566.10
613.93	2598.87
614.13	2740.18
614.32	2670.55
614.51	2684.89
614.70	2621.40
614.89	2521.05
615.08	2543.58
615.28	3026.90
615.47	2351.07
615.66	2656.22
615.85	2523.10
616.04	2633.69
616.23	2473.95
616.42	2588.63
616.62	2578.39
616.81	2543.58
617.00	2498.52
617.19	2539.48
617.38	2430.94
617.57	2508.76
617.76	2623.45
617.95	2678.74
618.15	2514.91
618.34	2703.32
618.53	2346.97
618.72	2602.97
618.91	2611.16
619.10	2613.21
619.29	2398.17
619.48	2467.80
619.68	2473.95
619.87	2365.40
620.06	2463.71
620.25	2602.97
620.44	2383.84
620.63	2451.42
620.82	2488.28
621.01	2523.10
621.20	2512.86
621.39	2559.96
621.59	2572.25
621.78	2519.00
621.97	2457.56
622.16	2582.49
622.35	2559.96
622.54	2613.21
622.73	2525.15
622.92	2275.29
623.11	2578.39
623.30	2461.66
623.49	2588.63
623.68	2392.03
623.88	2672.60
624.07	2486.23
624.26	2402.27
624.45	2574.30
624.64	2480.09
624.83	2547.67
625.02	2412.51
625.21	2467.80
625.40	2564.06
625.59	2660.31
625.78	2459.61
625.97	2555.86
626.16	2695.13
626.35	2717.65
626.54	2594.78
626.74	2713.56
626.93	2547.67
627.12	2510.81
627.31	2580.44
627.50	2543.58
627.69	2641.88
627.88	2383.84
628.07	2437.08
628.26	2408.41
628.45	2441.18
628.64	2408.41
628.83	2500.57
629.02	2297.82
629.21	2525.15
629.40	2551.77
629.59	2412.51
629.78	2355.16
629.97	2519.00
630.16	2539.48
630.35	2379.74
630.54	2459.61
630.73	2447.32
630.92	2408.41
631.11	2424.80
631.30	2482.14
631.49	2582.49
631.68	2461.66
631.87	2453.47
632.06	2361.31
632.25	2744.28
632.44	2531.29
632.63	2531.29
632.82	2418.65
633.01	2506.71
633.20	2594.78
633.39	2473.95
633.58	2389.98
633.77	2588.63
633.96	2580.44
634.15	2562.01
634.34	2635.74
634.53	2586.58
634.72	2471.90
634.91	2277.34
635.10	2461.66
635.29	2570.20
635.48	2512.86
635.67	2435.03
635.86	2277.34
636.05	2719.70
636.24	2469.85
636.43	2529.24
636.62	2467.80
636.81	2162.66
637.00	2449.37
637.19	2469.85
637.38	2541.53
637.57	2543.58
637.76	2602.97
637.95	2613.21
638.14	2523.10
638.33	2557.91
638.52	2637.78
638.71	2471.90
638.89	2457.56
639.08	2848.72
639.27	2660.31
639.46	2756.57
639.65	3133.39
639.84	3119.06
640.03	3348.43
640.22	3188.69
640.41	3184.59
640.60	2736.09
640.79	2828.24
640.98	2641.88
641.17	2766.81
641.36	2768.85
641.55	2668.50
641.74	2465.75
641.92	2484.19
642.11	2445.27
642.30	2521.05
642.49	2441.18
642.68	2414.56
642.87	2564.06
643.06	2480.09
643.25	2381.79
643.44	2373.60
643.63	2432.99
643.82	2553.82
644.00	2432.99
644.19	2473.95
644.38	2361.31
644.57	2572.25
644.76	2488.28
644.95	2459.61
645.14	2502.62
645.33	2478.04
645.52	2498.52
645.71	2267.10
645.89	2365.40
646.08	2443.23
646.27	2400.22
646.46	2695.13
646.65	2371.55
646.84	2512.86
647.03	2310.11
647.22	2611.16
647.40	2539.48
647.59	2465.75
647.78	2291.68
647.97	2334.68
648.16	2416.60
648.35	2629.59
648.54	2674.65
648.73	2414.56
648.91	2648.02
649.10	2549.72
649.29	2385.88
649.48	2463.71
649.67	2539.48
649.86	2510.81
650.05	2512.86
650.23	2744.28
650.42	2525.15
650.61	2775.00
650.80	2709.46
650.99	2744.28
651.18	2617.30
651.36	2654.17
651.55	2482.14
651.74	2602.97
651.93	2523.10
652.12	2486.23
652.31	2529.24
652.49	2473.95
652.68	2461.66
652.87	2666.46
653.06	2549.72
653.25	2674.65
653.44	2537.43
653.62	2641.88
653.81	2531.29
654.00	2445.27
654.19	2594.78
654.38	2815.96
654.56	2463.71
654.75	2416.60
654.94	2615.26
655.13	2539.48
655.32	2416.60
655.51	2553.82
655.69	2428.89
655.88	2572.25
656.07	2336.73
656.26	2525.15
656.45	2326.49
656.63	2486.23
656.82	2447.32
657.01	2615.26
657.20	2406.36
657.38	2658.26
657.57	2439.13
657.76	2310.11
657.95	2617.30
658.14	2377.69
658.32	2445.27
658.51	2400.22
658.70	2514.91
658.89	2465.75
659.08	2461.66
659.26	2686.94
659.45	2410.46
659.64	2654.17
659.83	2494.43
660.01	2838.48
660.20	2545.63
660.39	2695.13
660.58	2312.16
660.76	2557.91
660.95	2342.88
661.14	2521.05
661.33	2310.11
661.51	2426.84
661.70	2402.27
661.89	2531.29
662.08	2392.03
662.26	2303.96
662.45	2404.32
662.64	2691.03
662.83	2498.52
663.01	2334.68
663.20	2430.94
663.39	2660.31
663.58	2473.95
663.76	2414.56
663.95	2596.82
664.14	2439.13
664.32	2385.88
664.51	2377.69
664.70	2367.45
664.89	2596.82
665.07	2412.51
665.26	2570.20
665.45	2387.93
665.64	2531.29
665.82	2453.47
666.01	2543.58
666.20	2367.45
666.38	2582.49
666.57	2613.21
666.76	3971.01
666.95	9514.86
667.13	17735.41
667.32	22771.36
667.51	26160.75
667.69	27782.74
667.88	24637.06
668.07	17469.17
668.25	14176.04
668.44	11882.31
668.63	10239.84
668.81	9133.94
669.00	7843.72
669.19	7102.36
669.38	6053.80
669.56	5250.99
669.75	4460.48
669.94	3813.32
670.12	3153.87
670.31	2940.88
670.50	2729.94
670.68	2805.72
670.87	2578.39
671.06	2611.16
671.24	2564.06
671.43	2752.47
671.62	2598.87
671.80	2496.47
671.99	2551.77
672.18	2551.77
672.36	2697.17
672.55	2482.14
672.74	2543.58
672.92	2459.61
673.11	2635.74
673.29	2394.08
673.48	2562.01
673.67	2441.18
673.85	2576.34
674.04	2437.08
674.23	2459.61
674.41	2764.76
674.60	2414.56
674.79	2273.25
674.97	2371.55
675.16	2609.11
675.34	2578.39
675.53	2400.22
675.72	2488.28
675.90	2693.08
676.09	2471.90
676.28	2535.39
676.46	2334.68
676.65	2539.48
676.83	2389.98
677.02	2463.71
677.21	2432.99
677.39	2586.58
677.58	2371.55
677.77	2396.12
677.95	2383.84
678.14	2482.14
678.32	2408.41
678.51	2490.33
678.70	2701.27
678.88	2346.97
679.07	2457.56
679.25	2465.75
679.44	2480.09
679.63	2400.22
679.81	2541.53
680.00	2633.69
680.18	2551.77
680.37	2711.51
680.55	2496.47
680.74	2336.73
680.93	2330.59
681.11	2576.34
681.30	2533.34
681.48	2523.10
681.67	2398.17
681.85	2498.52
682.04	2461.66
682.23	2539.48
682.41	2498.52
682.60	2478.04
682.78	2404.32
682.97	2437.08
683.15	2428.89
683.34	2490.33
683.53	2629.59
683.71	2316.25
683.90	2586.58
684.08	2723.80
684.27	2469.85
684.45	2455.51
684.64	2557.91
684.82	2555.86
685.01	2523.10
685.19	2432.99
685.38	2664.41
685.57	2500.57
685.75	2424.80
685.94	2416.60
686.12	2416.60
686.31	2359.26
686.49	2748.37
686.68	2260.96
686.86	2512.86
687.05	2400.22
687.23	2674.65
687.42	2461.66
687.60	2299.87
687.79	2555.86
687.97	2662.36
688.16	2605.02
688.34	2605.02
688.53	2273.25
688.71	2506.71
688.90	2562.01
689.08	2496.47
689.27	2258.91
689.45	2471.90
689.64	2629.59
689.82	2488.28
690.01	2564.06
690.19	2486.23
690.38	2428.89
690.56	2621.40
690.75	2367.45
690.93	2439.13
691.12	2389.98
691.30	2471.90
691.49	2482.14
691.67	2494.43
691.86	2693.08
692.04	2432.99
692.23	2480.09
692.41	2545.63
692.60	2772.95
692.78	2559.96
692.97	2516.95
693.15	2572.25
693.34	2691.03
693.52	2650.07
693.71	2443.23
693.89	2365.40
694.08	2281.44
694.26	2510.81
694.44	2580.44
694.63	2625.50
694.81	2484.19
695.00	2293.72
695.18	2637.78
695.37	2822.10
695.55	2545.63
695.74	2508.76
695.92	2398.17
696.10	2611.16
696.29	2299.87
696.47	2359.26
696.66	2322.40
696.84	2367.45
697.03	2461.66
697.21	2664.41
697.40	3772.36
697.58	2641.88
697.76	2451.42
697.95	2381.79
698.13	2432.99
698.32	2475.99
698.50	2424.80
698.68	2529.24
698.87	2543.58
699.05	2731.99
699.24	2545.63
699.42	2377.69
699.61	2484.19
699.79	2465.75
699.97	2424.80
700.16	2346.97
700.34	2342.88
700.53	2531.29
700.71	2637.78
700.89	2574.30
701.08	2453.47
701.26	2475.99
701.45	2951.12
701.63	2340.83
701.81	2420.70
702.00	2447.32
702.18	2416.60
702.37	2543.58
702.55	2766.81
702.73	2664.41
702.92	2566.10
703.10	2815.96
703.28	2820.05
703.47	2441.18
703.65	2600.92
703.84	2668.50
704.02	2490.33
704.20	2723.80
704.39	2488.28
704.57	2480.09
704.75	2658.26
704.94	2666.46
705.12	2519.00
705.30	2863.06
705.49	5474.22
705.67	12500.80
705.86	20395.72
706.04	24184.46
706.22	27313.76
706.41	27934.29
706.59	22275.76
706.77	16285.45
706.96	13686.58
707.14	12209.99
707.32	10600.29
707.51	9318.26
707.69	7591.82
707.87	5975.97
708.06	4841.40
708.24	4038.59
708.42	3432.40
708.61	3356.62
708.79	2717.65
708.97	2641.88
709.16	2645.98
709.34	2539.48
709.52	2465.75
709.71	2498.52
709.89	2572.25
710.07	2480.09
710.26	2383.84
710.44	2459.61
710.62	2611.16
710.80	2486.23
710.99	2543.58
711.17	2559.96
711.35	2435.03
711.54	2418.65
711.72	2605.02
711.90	2547.67
712.09	2514.91
712.27	2394.08
712.45	2504.67
712.63	2398.17
712.82	2553.82
713.00	2461.66
713.18	2623.45
713.37	2523.10
713.55	2463.71
713.73	2629.59
713.91	2486.23
714.10	2346.97
714.28	2432.99
714.46	2510.81
714.65	2539.48
714.83	2453.47
715.01	2533.34
715.19	2502.62
715.38	2379.74
715.56	2512.86
715.74	2410.46
715.92	2445.27
716.11	2555.86
716.29	2236.38
716.47	2566.10
716.65	2484.19
716.84	2293.72
717.02	2514.91
717.20	2310.11
717.38	2416.60
717.57	2514.91
717.75	2523.10
717.93	2473.95
718.11	2519.00
718.30	2248.67
718.48	2580.44
718.66	2580.44
718.84	2559.96
719.03	2453.47
719.21	2281.44
719.39	2725.85
719.57	2578.39
719.75	2580.44
719.94	2318.30
720.12	2461.66
720.30	2457.56
720.48	2609.11
720.67	2457.56
720.85	2369.50
721.03	2402.27
721.21	2353.12
721.39	2564.06
721.58	2572.25
721.76	2512.86
721.94	2516.95
722.12	2527.19
722.30	2688.98
722.49	2451.42
722.67	2510.81
722.85	2484.19
723.03	2301.92
723.21	2359.26
723.40	2492.38
723.58	2541.53
723.76	2592.73
723.94	2580.44
724.12	2580.44
724.30	2637.78
724.49	2727.89
724.67	2408.41
724.85	2584.54
725.03	2412.51
725.21	2541.53
725.40	2713.56
725.58	2392.03
725.76	2586.58
725.94	2547.67
726.12	2392.03
726.30	2437.08
726.49	2459.61
726.67	2398.17
726.85	2629.59
727.03	2957.27
727.21	4235.20
727.39	5777.32
727.57	6614.94
727.76	7192.47
727.94	7524.24
728.12	6809.50
728.30	5570.48
728.48	4874.17
728.66	4491.20
728.84	4120.51
729.03	3569.61
729.21	3192.78
729.39	2932.69
729.57	2686.94
729.75	2660.31
729.93	2609.11
730.11	2457.56
730.30	2494.43
730.48	2494.43
730.66	2594.78
730.84	2594.78
731.02	2496.47
731.20	2396.12
731.38	2508.76
731.56	2306.01
731.74	2299.87
731.93	2527.19
732.11	2449.37
732.29	2420.70
732.47	2568.15
732.65	2488.28
732.83	2707.41
733.01	2611.16
733.19	2506.71
733.37	2568.15
733.56	2471.90
733.74	2383.84
733.92	2676.70
734.10	2435.03
734.28	2543.58
734.46	2326.49
734.64	2480.09
734.82	2457.56
735.00	2396.12
735.18	2451.42
735.36	2521.05
735.54	2504.67
735.73	2396.12
735.91	2535.39
736.09	2512.86
736.27	2488.28
736.45	2594.78
736.63	2234.33
736.81	2392.03
736.99	2605.02
737.17	2621.40
737.35	2482.14
737.53	2471.90
737.71	2408.41
737.89	2615.26
738.07	2387.93
738.25	2310.11
738.43	2273.25
738.61	2396.12
738.80	2299.87
738.98	2314.20
739.16	2437.08
739.34	2361.31
739.52	2594.78
739.70	2428.89
739.88	2580.44
740.06	2648.02
740.24	2297.82
740.42	2588.63
740.60	2269.15
740.78	2439.13
740.96	2224.09
741.14	2496.47
741.32	2445.27
741.50	2334.68
741.68	2734.04
741.86	2652.12
742.04	2377.69
742.22	2342.88
742.40	2465.75
742.58	2555.86
742.76	2353.12
742.94	2602.97
743.12	2336.73
743.30	2539.48
743.48	2553.82
743.66	2355.16
743.84	2494.43
744.02	2441.18
744.20	2512.86
744.38	2361.31
744.56	2326.49
744.74	2676.70
744.92	2545.63
745.10	2623.45
745.28	2494.43
745.46	2758.61
745.64	2473.95
745.82	2588.63
746.00	2469.85
746.18	2547.67
746.36	2422.75
746.54	2510.81
746.72	2455.51
746.90	2385.88
747.08	2664.41
747.26	2506.71
747.44	2490.33
747.62	2514.91
747.80	2459.61
747.98	2564.06
748.15	2426.84
748.33	2748.37
748.51	2555.86
748.69	2541.53
748.87	2400.22
749.05	2453.47
749.23	2502.62
749.41	2562.01
749.59	2400.22
749.77	2602.97
749.95	2416.60
750.13	2400.22
750.31	2572.25
750.49	2478.04
750.67	2541.53
750.85	2605.02
751.03	2461.66
751.20	2740.18
751.38	2519.00
751.56	2424.80
751.74	2430.94
751.92	2428.89
752.10	2357.21
752.28	2498.52
752.46	2308.06
752.64	2510.81
752.82	2521.05
753.00	2605.02
753.18	2392.03
753.35	2488.28
753.53	2367.45
753.71	2408.41
753.89	2496.47
754.07	2519.00
754.25	2594.78
754.43	2490.33
754.61	2355.16
754.79	2537.43
754.97	2461.66
755.14	2641.88
755.32	2402.27
755.50	2455.51
755.68	2510.81
755.86	2396.12
756.04	2435.03
756.22	2346.97
756.40	2592.73
756.57	2662.36
756.75	2387.93
756.93	2623.45
757.11	2535.39
757.29	2342.88
757.47	2328.54
757.65	2271.20
757.82	2277.34
758.00	2318.30
758.18	2408.41
758.36	2447.32
758.54	2652.12
758.72	2310.11
758.90	2592.73
759.07	2486.23
759.25	2412.51
759.43	2543.58
759.61	2367.45
759.79	3491.79
759.97	2598.87
760.15	2369.50
760.32	2447.32
760.50	2533.34
760.68	2645.98
760.86	2291.68
761.04	2613.21
761.22	2555.86
761.39	2514.91
761.57	2519.00
761.75	2428.89
761.93	2510.81
762.11	2502.62
762.28	2441.18
762.46	2361.31
762.64	2588.63
762.82	2301.92
763.00	2359.26
763.18	2570.20
763.35	2373.60
763.53	2531.29
763.71	2471.90
763.89	2443.23
764.07	2494.43
764.24	2432.99
764.42	2598.87
764.60	2422.75
764.78	2496.47
764.96	2539.48
765.13	2570.20
765.31	2385.88
765.49	2535.39
765.67	2340.83
765.84	2400.22
766.02	2385.88
766.20	2338.78
766.38	2506.71
766.56	2600.92
766.73	2568.15
766.91	2449.37
767.09	2482.14
767.27	2525.15
767.44	2504.67
767.62	2607.06
767.80	2523.10
767.98	2445.27
768.15	2379.74
768.33	2637.78
768.51	2600.92
768.69	2471.90
768.87	2465.75
769.04	2463.71
769.22	2801.62
769.40	2578.39
769.58	2701.27
769.75	2457.56
769.93	2670.55
770.11	2418.65
770.28	2383.84
770.46	2572.25
770.64	2457.56
770.82	2394.08
770.99	2387.93
771.17	2562.01
771.35	2428.89
771.53	2416.60
771.70	2416.60
771.88	2553.82
772.06	2445.27
772.23	2435.03
772.41	2494.43
772.59	2498.52
772.77	2279.39
772.94	2408.41
773.12	2525.15
773.30	2432.99
773.47	2535.39
773.65	2355.16
773.83	2652.12
774.01	2414.56
774.18	2308.06
774.36	2455.51
774.54	2301.92
774.71	2555.86
774.89	2318.30
775.07	2355.16
775.24	2404.32
775.42	2363.36
775.60	2627.54
775.78	2392.03
775.95	2236.38
776.13	2342.88
776.31	2199.52
776.48	2521.05
776.66	2492.38
776.84	2414.56
777.01	2383.84
777.19	2277.34
777.37	2416.60
777.54	2506.71
777.72	2633.69
777.90	2559.96
778.07	2349.02
778.25	2828.24
778.43	2555.86
778.60	2371.55
778.78	2576.34
778.96	2637.78
779.13	2291.68
779.31	2572.25
779.49	2437.08
779.66	2533.34
779.84	2332.64
780.01	2488.28
780.19	2349.02
780.37	2635.74
780.54	2570.20
780.72	2330.59
780.90	2410.46
781.07	2432.99
781.25	2412.51
781.43	2611.16
781.60	2469.85
781.78	2621.40
781.95	2523.10
782.13	2447.32
782.31	2422.75
782.48	2299.87
782.66	2451.42
782.83	2654.17
783.01	2539.48
783.19	2539.48
783.36	2441.18
783.54	2342.88
783.72	2594.78
783.89	2418.65
784.07	2461.66
784.24	2543.58
784.42	2531.29
784.60	2465.75
784.77	2535.39
784.95	2267.10
785.12	2324.44
785.30	2512.86
785.47	2349.02
785.65	2389.98
785.83	2531.29
786.00	2453.47
786.18	2469.85
786.35	2400.22
786.53	2326.49
786.71	2631.64
786.88	2557.91
787.06	2418.65
787.23	2416.60
787.41	2324.44
787.58	2443.23
787.76	2330.59
787.94	2451.42
788.11	2441.18
788.29	2301.92
788.46	2398.17
788.64	2367.45
788.81	2400.22
788.99	2400.22
789.16	2334.68
789.34	2418.65
789.52	2373.60
789.69	2408.41
789.87	2293.72
790.04	2387.93
790.22	2510.81
790.39	2680.79
790.57	2359.26
790.74	2338.78
790.92	2564.06
791.09	2277.34
791.27	2498.52
791.44	2449.37
791.62	2437.08
791.79	2506.71
791.97	2494.43
792.15	2756.57
792.32	2570.20
792.50	2596.82
792.67	2535.39
792.85	2627.54
793.02	2471.90
793.20	2482.14
793.37	2269.15
793.55	2332.64
793.72	2367.45
793.90	2559.96
794.07	2365.40
794.25	2377.69
794.42	2537.43
794.60	2441.18
794.77	2414.56
794.95	2547.67
795.12	2580.44
795.30	2461.66
795.47	2314.20
795.65	2713.56
795.82	2539.48
796.00	2406.36
796.17	2432.99
796.34	2400.22
796.52	2480.09
796.69	2523.10
796.87	2592.73
797.04	2547.67
797.22	2588.63
797.39	2467.80
797.57	2555.86
797.74	2449.37
797.92	2496.47
798.09	2428.89
798.27	2656.22
798.44	2451.42
798.62	2416.60
798.79	2426.84
798.96	2486.23
799.14	2457.56
799.31	2836.44
799.49	2455.51
799.66	2447.32
799.84	2492.38
800.01	2373.60
800.19	2539.48
800.36	2267.10
800.53	2430.94
800.71	2555.86
800.88	2719.70
801.06	2422.75
801.23	2381.79
801.41	2355.16
801.58	2428.89
801.75	2424.80
801.93	2564.06
802.10	2613.21
802.28	2453.47
802.45	2441.18
802.63	2457.56
802.80	2629.59
802.97	2346.97
803.15	2459.61
803.32	2459.61
803.50	2330.59
803.67	2334.68
803.84	2392.03
804.02	2502.62
804.19	2387.93
804.37	2220.00
804.54	2287.58
804.71	2424.80
804.89	2523.10
805.06	2359.26
805.24	2400.22
805.41	2330.59
805.58	2385.88
805.76	2760.66
805.93	2539.48
806.10	2549.72
806.28	2531.29
806.45	2564.06
806.63	2484.19
806.80	2535.39
806.97	2527.19
807.15	2482.14
807.32	2369.50
807.49	2430.94
807.67	2357.21
807.84	2572.25
808.01	2273.25
808.19	2650.07
808.36	2785.24
808.54	2410.46
808.71	2361.31
808.88	2482.14
809.06	2631.64
809.23	2559.96
809.40	2351.07
809.58	2514.91
809.75	2478.04
809.92	2258.91
810.10	2803.67
810.27	2469.85
810.44	2539.48
810.62	2572.25
810.79	2543.58
810.96	2420.70
811.14	2398.17
811.31	2525.15
811.48	2531.29
811.66	2492.38
811.83	2670.55
812.00	2547.67
812.18	2486.23
812.35	2729.94
812.52	2416.60
812.69	2443.23
812.87	2383.84
813.04	2357.21
813.21	2408.41
813.39	2422.75
813.56	2318.30
813.73	2523.10
813.91	2314.20
814.08	2514.91
814.25	2529.24
814.42	2285.53
814.60	2461.66
814.77	2461.66
814.94	2482.14
815.12	2447.32
815.29	2719.70
815.46	2351.07
815.63	2473.95
815.81	2465.75
815.98	2457.56
816.15	2449.37
816.33	2488.28
816.50	2392.03
816.67	2506.71
816.84	2500.57
817.02	2322.40
817.19	2441.18
817.36	2443.23
817.53	2514.91
817.71	2394.08
817.88	2545.63
818.05	2482.14
818.22	2383.84
818.40	2729.94
818.57	2351.07
818.74	2562.01
818.91	2416.60
819.09	2494.43
819.26	2570.20
819.43	2414.56
819.60	2432.99
819.78	2566.10
819.95	2486.23
820.12	2310.11
820.29	2684.89
820.47	2703.32
820.64	2363.36
820.81	2306.01
820.98	2357.21
821.15	2461.66
821.33	2508.76
821.50	2334.68
821.67	2555.86
821.84	2416.60
822.02	2504.67
822.19	2600.92
822.36	2379.74
822.53	2389.98
822.70	2312.16
822.88	2459.61
823.05	2672.60
823.22	2498.52
823.39	2510.81
823.56	2502.62
823.74	2684.89
823.91	2367.45
824.08	2267.10
824.25	2326.49
824.42	2693.08
824.60	2310.11
824.77	2463.71
824.94	2506.71
825.11	2471.90
825.28	2338.78
825.45	2480.09
825.63	2564.06
825.80	2328.54
825.97	2525.15
826.14	2453.47
826.31	2220.00
826.48	2469.85
826.66	2314.20
826.83	2447.32
827.00	2410.46
827.17	2365.40
827.34	2432.99
827.51	2310.11
827.69	2523.10
827.86	2312.16
828.03	2455.51
828.20	2490.33
828.37	2408.41
828.54	2467.80
828.71	2383.84
828.89	2514.91
829.06	2514.91
829.23	2678.74
829.40	2387.93
829.57	2371.55
829.74	2553.82
829.91	2394.08
830.09	2383.84
830.26	2512.86
830.43	2688.98
830.60	2346.97
830.77	2506.71
830.94	2586.58
831.11	2602.97
831.28	2437.08
831.46	2529.24
831.63	2353.12
831.80	2625.50
831.97	2396.12
832.14	2488.28
832.31	2488.28
832.48	2514.91
832.65	2664.41
832.82	2508.76
832.99	2537.43
833.17	2346.97
833.34	2668.50
833.51	2512.86
833.68	2254.81
833.85	2654.17
834.02	2412.51
834.19	2363.36
834.36	2334.68
834.53	2486.23
834.70	2605.02
834.87	2551.77
835.04	2355.16
835.22	2371.55
835.39	2416.60
835.56	2375.64
835.73	2437.08
835.90	2670.55
836.07	2396.12
836.24	2437.08
836.41	2320.35
836.58	2408.41
836.75	2668.50
836.92	2432.99
837.09	2263.01
837.26	2523.10
837.43	2457.56
837.60	2430.94
837.77	2363.36
837.94	2584.54
838.12	2619.35
838.29	2324.44
838.46	2287.58
838.63	2295.77
838.80	2654.17
838.97	2496.47
839.14	2361.31
839.31	2473.95
839.48	2621.40
839.65	2373.60
839.82	2447.32
839.99	2514.91
840.16	2473.95
840.33	2359.26
840.50	2400.22
840.67	2424.80
840.84	2148.32
841.01	2394.08
841.18	2316.25
841.35	2392.03
841.52	2602.97
841.69	2684.89
841.86	2428.89
842.03	2551.77
842.20	2600.92
842.37	2346.97
842.54	2426.84
842.71	2416.60
842.88	2328.54
843.05	2336.73
843.22	2383.84
843.39	2617.30
843.56	2420.70
843.73	2404.32
843.90	2424.80
844.07	2488.28
844.24	2580.44
844.41	2412.51
844.58	2428.89
844.75	2469.85
844.92	2537.43
845.09	2283.49
845.26	2359.26
845.43	2564.06
845.60	2463.71
845.77	2461.66
845.94	2418.65
846.10	2611.16
846.27	2342.88
846.44	2289.63
846.61	2228.19
846.78	2539.48
846.95	2611.16
847.12	2406.36
847.29	2396.12
847.46	2412.51
847.63	2600.92
847.80	2308.06
847.97	2465.75
848.14	2756.57
848.31	2508.76
848.48	2250.72
848.65	2488.28
848.82	2394.08
848.98	2824.15
849.15	2400.22
849.32	2482.14
849.49	2564.06
849.66	2383.84
849.83	2301.92
850.00	2299.87
850.17	2545.63
850.34	2439.13
850.51	2365.40
850.68	2404.32
850.85	2770.90
851.01	2496.47
851.18	2449.37
851.35	2416.60
851.52	2457.56
851.69	2607.06
851.86	2332.64
852.03	2371.55
852.20	2539.48
852.37	2441.18
852.53	2258.91
852.70	2424.80
852.87	2432.99
853.04	2654.17
853.21	2414.56
853.38	2551.77
853.55	2602.97
853.72	2613.21
853.89	2359.26
854.05	2271.20
854.22	2416.60
854.39	2504.67
854.56	2406.36
854.73	2547.67
854.90	2363.36
855.07	2389.98
855.23	2363.36
855.40	2387.93
855.57	2486.23
855.74	2162.66
855.91	2643.93
856.08	2318.30
856.25	2363.36
856.41	2379.74
856.58	2412.51
856.75	2424.80
856.92	2283.49
857.09	2568.15
857.26	2297.82
857.42	2387.93
857.59	2641.88
857.76	2389.98
857.93	2449.37
858.10	2338.78
858.27	2367.45
858.43	2383.84
858.60	2334.68
858.77	2285.53
858.94	2430.94
859.11	2625.50
859.27	2363.36
859.44	2324.44
859.61	2746.33
859.78	2555.86
859.95	2441.18
860.12	2363.36
860.28	2760.66
860.45	2742.23
860.62	2383.84
860.79	2439.13
860.95	2539.48
861.12	2373.60
861.29	2306.01
861.46	2260.96
861.63	2471.90
861.79	2564.06
861.96	2346.97
862.13	2383.84
862.30	2592.73
862.47	2387.93
862.63	2271.20
862.80	2408.41
862.97	2578.39
863.14	2492.38
863.30	2447.32
863.47	2301.92
863.64	2645.98
863.81	2535.39
863.97	2365.40
864.14	2375.64
864.31	2475.99
864.48	2465.75
864.65	2400.22
864.81	2478.04
864.98	2555.86
865.15	2607.06
865.32	2459.61
865.48	2490.33
865.65	2695.13
865.82	2412.51
865.98	2514.91
866.15	2387.93
866.32	2416.60
866.49	2408.41
866.65	2535.39
866.82	2320.35
866.99	2430.94
867.16	2461.66
867.32	2410.46
867.49	2344.92
867.66	2443.23
867.83	2437.08
867.99	2291.68
868.16	2402.27
868.33	2330.59
868.49	2510.81
868.66	2371.55
868.83	2461.66
868.99	2516.95
869.16	2496.47
869.33	2514.91
869.50	2482.14
869.66	2482.14
869.83	2392.03
870.00	2277.34
870.16	2453.47
870.33	2426.84
870.50	2586.58
870.66	2400.22
870.83	2533.34
871.00	2445.27
871.17	2469.85
871.33	2478.04
871.50	2387.93
871.67	2387.93
871.83	2414.56
872.00	2506.71
872.17	2406.36
872.33	2684.89
872.50	2609.11
872.67	2398.17
872.83	2322.40
873.00	2576.34
873.17	2473.95
873.33	2514.91
873.50	2420.70
873.67	2377.69
873.83	2373.60
874.00	2400.22
874.16	2471.90
874.33	2437.08
874.50	2332.64
874.66	2379.74
874.83	2443.23
875.00	2588.63
875.16	2586.58
875.33	2478.04
875.50	2162.66
875.66	2473.95
875.83	2475.99
875.99	2471.90
876.16	2441.18
876.33	2322.40
876.49	2435.03
876.66	2402.27
876.83	2414.56
876.99	2283.49
877.16	2463.71
877.32	2381.79
877.49	2373.60
877.66	2494.43
877.82	2602.97
877.99	2475.99
878.15	2467.80
878.32	2531.29
878.49	2457.56
878.65	2400.22
878.82	2486.23
878.98	2381.79
879.15	2506.71
879.32	2490.33
879.48	2537.43
879.65	2428.89
879.81	2453.47
879.98	2383.84
880.15	2445.27
880.31	2510.81
880.48	2326.49
880.64	2424.80
880.81	2437.08
880.97	2682.84
881.14	2553.82
881.31	2338.78
881.47	2555.86
881.64	2480.09
881.80	2310.11
881.97	2457.56
882.13	2406.36
882.30	2367.45
882.47	2400.22
882.63	2367.45
882.80	2258.91
882.96	2369.50
883.13	2619.35
883.29	2410.46
883.46	2469.85
883.62	2777.05
883.79	2512.86
883.95	2512.86
884.12	2418.65
884.29	2686.94
884.45	2478.04
884.62	2389.98
884.78	2381.79
884.95	2703.32
885.11	2387.93
885.28	2402.27
885.44	2363.36
885.61	2613.21
885.77	2641.88
885.94	2506.71
886.10	2426.84
886.27	2494.43
886.43	2721.75
886.60	2547.67
886.76	2383.84
886.93	2414.56
887.09	2551.77
887.26	2207.71
887.42	2447.32
887.59	2660.31
887.75	2725.85
887.92	2555.86
888.08	2504.67
888.25	2654.17
888.41	2580.44
888.58	2422.75
888.74	2322.40
888.91	2373.60
>>>>>End Processed Spectral Data<<<<<
