SpectraSuite Data File
++++++++++++++++++++++++++++++++++++
Date: Thu May 05 14:42:16 CEST 2016
User: root
Dark Spectrum Present: No
Reference Spectrum Present: No
Number of Sampled Component Spectra: 1
Spectrometers: USB4C02835
Integration Time (usec): 100000 (USB4C02835)
Spectra Averaged: 1 (USB4C02835)
Boxcar Smoothing: 0 (USB4C02835)
Correct for Electrical Dark: No (USB4C02835)
Strobe/Lamp Enabled: No (USB4C02835)
Correct for Detector Non-linearity: No (USB4C02835)
Correct for Stray Light: No (USB4C02835)
Number of Pixels in Processed Spectrum: 3648
>>>>>Begin Processed Spectral Data<<<<<
177.47	1992.67
177.69	1992.67
177.91	1992.67
178.13	1931.23
178.36	1943.52
178.58	2410.46
178.80	2408.41
179.02	2318.30
179.24	2359.26
179.46	2310.11
179.68	2314.20
179.90	2422.75
180.13	2510.81
180.35	2291.68
180.57	2310.11
180.79	2545.63
181.01	2498.52
181.23	2375.64
181.45	2414.56
181.67	2553.82
181.90	2594.78
182.12	2334.68
182.34	2226.14
182.56	2545.63
182.78	2523.10
183.00	2346.97
183.22	2351.07
183.44	2244.57
183.66	2795.48
183.89	2510.81
184.11	2346.97
184.33	2551.77
184.55	2508.76
184.77	2342.88
184.99	2404.32
185.21	2443.23
185.43	2781.14
185.65	2293.72
185.87	2389.98
186.10	2807.77
186.32	2805.72
186.54	2404.32
186.76	2445.27
186.98	2619.35
187.20	2453.47
187.42	2383.84
187.64	2334.68
187.86	2590.68
188.08	2688.98
188.30	2281.44
188.52	2324.44
188.75	2602.97
188.97	2613.21
189.19	2289.63
189.41	2349.02
189.63	2602.97
189.85	2416.60
190.07	2203.61
190.29	2240.48
190.51	2574.30
190.73	2351.07
190.95	2428.89
191.17	2361.31
191.39	2371.55
191.61	2400.22
191.84	2375.64
192.06	2406.36
192.28	2355.16
192.50	2875.35
192.72	2473.95
192.94	2400.22
193.16	2684.89
193.38	2615.26
193.60	2346.97
193.82	2375.64
194.04	2555.86
194.26	2551.77
194.48	2338.78
194.70	2328.54
194.92	2437.08
195.14	2570.20
195.36	2301.92
195.58	2340.83
195.80	2531.29
196.02	2406.36
196.24	2342.88
196.46	2414.56
196.69	2398.17
196.91	2811.86
197.13	2318.30
197.35	2346.97
197.57	2654.17
197.79	2555.86
198.01	2398.17
198.23	2365.40
198.45	2611.16
198.67	2336.73
198.89	2281.44
199.11	2467.80
199.33	2416.60
199.55	2248.67
199.77	2363.36
199.99	2508.76
200.21	2488.28
200.43	2506.71
200.65	2351.07
200.87	2144.22
201.09	2404.32
201.31	2461.66
201.53	2375.64
201.75	2463.71
201.97	2580.44
202.19	2410.46
202.41	2392.03
202.63	2611.16
202.85	2611.16
203.07	2539.48
203.29	2400.22
203.51	2244.57
203.73	2424.80
203.95	2815.96
204.17	2375.64
204.39	2398.17
204.61	2492.38
204.83	2414.56
205.05	2424.80
205.27	2432.99
205.49	2731.99
205.71	2455.51
205.93	2195.42
206.15	2267.10
206.37	2551.77
206.59	2492.38
206.81	2295.77
207.03	2275.29
207.25	2373.60
207.47	2574.30
207.69	2369.50
207.91	2633.69
208.13	2691.03
208.34	2418.65
208.56	2281.44
208.78	2396.12
209.00	2457.56
209.22	2408.41
209.44	2318.30
209.66	2351.07
209.88	2523.10
210.10	2473.95
210.32	2404.32
210.54	2496.47
210.76	2486.23
210.98	2572.25
211.20	2226.14
211.42	2408.41
211.64	2613.21
211.86	2496.47
212.08	2459.61
212.30	2435.03
212.52	2367.45
212.74	2506.71
212.96	2428.89
213.17	2402.27
213.39	2514.91
213.61	2633.69
213.83	2314.20
214.05	2424.80
214.27	2588.63
214.49	2346.97
214.71	2369.50
214.93	2392.03
215.15	2475.99
215.37	2596.82
215.59	2287.58
215.81	2430.94
216.03	2631.64
216.24	2478.04
216.46	2424.80
216.68	2363.36
216.90	2613.21
217.12	2707.41
217.34	2334.68
217.56	2496.47
217.78	2703.32
218.00	2514.91
218.22	2375.64
218.44	2383.84
218.66	2545.63
218.87	2707.41
219.09	2336.73
219.31	2383.84
219.53	2506.71
219.75	2437.08
219.97	2375.64
220.19	2375.64
220.41	2490.33
220.63	2736.09
220.85	2359.26
221.06	2373.60
221.28	2584.54
221.50	2564.06
221.72	2363.36
221.94	2398.17
222.16	2498.52
222.38	2564.06
222.60	2353.12
222.82	2385.88
223.03	2652.12
223.25	2332.64
223.47	2412.51
223.69	2570.20
223.91	2553.82
224.13	2510.81
224.35	2240.48
224.57	2514.91
224.78	2564.06
225.00	2355.16
225.22	2301.92
225.44	2330.59
225.66	2602.97
225.88	2441.18
226.10	2502.62
226.32	2449.37
226.53	2648.02
226.75	2428.89
226.97	2414.56
227.19	2369.50
227.41	2349.02
227.63	2406.36
227.85	2211.81
228.06	2379.74
228.28	2490.33
228.50	2609.11
228.72	2222.05
228.94	2375.64
229.16	2299.87
229.37	2432.99
229.59	2291.68
229.81	2432.99
230.03	2455.51
230.25	2340.83
230.47	2256.86
230.69	2285.53
230.90	2596.82
231.12	2418.65
231.34	2377.69
231.56	2471.90
231.78	2334.68
232.00	2559.96
232.21	2346.97
232.43	2338.78
232.65	2281.44
232.87	2496.47
233.09	2258.91
233.30	2318.30
233.52	2584.54
233.74	2514.91
233.96	2273.25
234.18	2465.75
234.40	2412.51
234.61	2785.24
234.83	2244.57
235.05	2281.44
235.27	2772.95
235.49	2682.84
235.70	2314.20
235.92	2389.98
236.14	2580.44
236.36	2787.29
236.58	2242.53
236.79	2406.36
237.01	2475.99
237.23	2424.80
237.45	2521.05
237.67	2402.27
237.88	2547.67
238.10	2725.85
238.32	2353.12
238.54	2367.45
238.76	2490.33
238.97	2326.49
239.19	2277.34
239.41	2385.88
239.63	2656.22
239.85	2353.12
240.06	2392.03
240.28	2287.58
240.50	2666.46
240.72	2482.14
240.93	2256.86
241.15	2424.80
241.37	2482.14
241.59	2697.17
241.81	2324.44
242.02	2285.53
242.24	2490.33
242.46	2609.11
242.68	2236.38
242.89	2396.12
243.11	2562.01
243.33	2441.18
243.55	2400.22
243.76	2353.12
243.98	2379.74
244.20	2463.71
244.42	2344.92
244.64	2312.16
244.85	2336.73
245.07	2414.56
245.29	2375.64
245.51	2330.59
245.72	2475.99
245.94	2527.19
246.16	2318.30
246.38	2441.18
246.59	2398.17
246.81	2449.37
247.03	2256.86
247.24	2211.81
247.46	2336.73
247.68	2527.19
247.90	2340.83
248.11	2340.83
248.33	2613.21
248.55	2547.67
248.77	2375.64
248.98	2392.03
249.20	2682.84
249.42	2508.76
249.64	2383.84
249.85	2334.68
250.07	2349.02
250.29	2535.39
250.50	2408.41
250.72	2238.43
250.94	2455.51
251.16	2678.74
251.37	2424.80
251.59	2439.13
251.81	2586.58
252.02	2619.35
252.24	2326.49
252.46	2437.08
252.68	2379.74
252.89	2484.19
253.11	2185.18
253.33	2506.71
253.54	2719.70
253.76	2375.64
253.98	2357.21
254.20	2357.21
254.41	2287.58
254.63	2543.58
254.85	2240.48
255.06	2346.97
255.28	2600.92
255.50	2506.71
255.71	2346.97
255.93	2205.66
256.15	2527.19
256.36	2578.39
256.58	2234.33
256.80	2328.54
257.02	2449.37
257.23	2357.21
257.45	2361.31
257.67	2328.54
257.88	2439.13
258.10	2553.82
258.32	2324.44
258.53	2457.56
258.75	2654.17
258.97	2330.59
259.18	2310.11
259.40	2295.77
259.62	2695.13
259.83	2635.74
260.05	2346.97
260.27	2867.16
260.48	2570.20
260.70	2451.42
260.92	2322.40
261.13	2426.84
261.35	2475.99
261.57	2482.14
261.78	2187.23
262.00	2310.11
262.22	2496.47
262.43	2453.47
262.65	2293.72
262.86	2373.60
263.08	2791.38
263.30	2537.43
263.51	2181.09
263.73	2316.25
263.95	2553.82
264.16	2342.88
264.38	2285.53
264.60	2349.02
264.81	2428.89
265.03	2641.88
265.25	2521.05
265.46	2396.12
265.68	2639.83
265.89	2625.50
266.11	2267.10
266.33	2326.49
266.54	2541.53
266.76	2506.71
266.98	2414.56
267.19	2498.52
267.41	2648.02
267.62	2525.15
267.84	2260.96
268.06	2432.99
268.27	2508.76
268.49	2641.88
268.70	2449.37
268.92	2385.88
269.14	2392.03
269.35	2349.02
269.57	2428.89
269.79	2398.17
270.00	2422.75
270.22	2648.02
270.43	2281.44
270.65	2299.87
270.87	2496.47
271.08	2572.25
271.30	2443.23
271.51	2389.98
271.73	2572.25
271.95	2531.29
272.16	2351.07
272.38	2412.51
272.59	2406.36
272.81	2584.54
273.02	2381.79
273.24	2351.07
273.46	2588.63
273.67	2334.68
273.89	2250.72
274.10	2320.35
274.32	2613.21
274.54	2439.13
274.75	2351.07
274.97	2342.88
275.18	2568.15
275.40	2598.87
275.61	2428.89
275.83	2371.55
276.05	2361.31
276.26	2488.28
276.48	2486.23
276.69	2330.59
276.91	2439.13
277.12	2576.34
277.34	2463.71
277.55	2547.67
277.77	2492.38
277.99	2496.47
278.20	2441.18
278.42	2312.16
278.63	2408.41
278.85	2453.47
279.06	2359.26
279.28	2516.95
279.49	2660.31
279.71	2527.19
279.93	2449.37
280.14	2392.03
280.36	2394.08
280.57	2562.01
280.79	2496.47
281.00	2383.84
281.22	2447.32
281.43	2555.86
281.65	2187.23
281.86	2285.53
282.08	2553.82
282.29	2701.27
282.51	2330.59
282.73	2367.45
282.94	2285.53
283.16	2578.39
283.37	2521.05
283.59	2398.17
283.80	2566.10
284.02	2473.95
284.23	2557.91
284.45	2373.60
284.66	2332.64
284.88	2457.56
285.09	2443.23
285.31	2494.43
285.52	2490.33
285.74	2265.05
285.95	2539.48
286.17	2512.86
286.38	2613.21
286.60	2449.37
286.81	2412.51
287.03	2439.13
287.24	2441.18
287.46	2568.15
287.67	2463.71
287.89	2658.26
288.10	2502.62
288.32	2457.56
288.53	2555.86
288.75	2496.47
288.96	2519.00
289.18	2400.22
289.39	2430.94
289.61	2414.56
289.82	2729.94
290.04	2705.37
290.25	2310.11
290.47	2441.18
290.68	2478.04
290.90	2635.74
291.11	2273.25
291.33	2553.82
291.54	2414.56
291.76	2494.43
291.97	2482.14
292.18	2484.19
292.40	2330.59
292.61	2389.98
292.83	2641.88
293.04	2512.86
293.26	2486.23
293.47	2529.24
293.69	2363.36
293.90	2453.47
294.12	2635.74
294.33	2523.10
294.55	2435.03
294.76	2543.58
294.97	2572.25
295.19	2678.74
295.40	2394.08
295.62	2555.86
295.83	2658.26
296.05	2408.41
296.26	2580.44
296.48	2455.51
296.69	2398.17
296.90	2465.75
297.12	2482.14
297.33	2596.82
297.55	2516.95
297.76	2502.62
297.98	2559.96
298.19	2426.84
298.41	2480.09
298.62	2432.99
298.83	2541.53
299.05	2441.18
299.26	2404.32
299.48	2414.56
299.69	2523.10
299.90	2435.03
300.12	2301.92
300.33	2588.63
300.55	2445.27
300.76	2510.81
300.98	2426.84
301.19	2523.10
301.40	2400.22
301.62	2449.37
301.83	2506.71
302.05	2439.13
302.26	2412.51
302.47	2406.36
302.69	2408.41
302.90	2498.52
303.12	2162.66
303.33	2490.33
303.54	2760.66
303.76	2420.70
303.97	2430.94
304.19	2580.44
304.40	2344.92
304.61	2594.78
304.83	2629.59
305.04	2473.95
305.26	2471.90
305.47	2482.14
305.68	2363.36
305.90	2310.11
306.11	2588.63
306.33	2461.66
306.54	2379.74
306.75	2418.65
306.97	2199.52
307.18	2414.56
307.39	2400.22
307.61	2486.23
307.82	2392.03
308.04	2551.77
308.25	2346.97
308.46	2562.01
308.68	2447.32
308.89	2428.89
309.10	2549.72
309.32	2514.91
309.53	2492.38
309.74	2537.43
309.96	2344.92
310.17	2514.91
310.39	2420.70
310.60	2570.20
310.81	2422.75
311.03	2279.39
311.24	2580.44
311.45	2457.56
311.67	2547.67
311.88	2521.05
312.09	2387.93
312.31	2351.07
312.52	2465.75
312.73	2432.99
312.95	2344.92
313.16	2387.93
313.37	2572.25
313.59	2475.99
313.80	2592.73
314.01	2709.46
314.23	2367.45
314.44	2355.16
314.65	2437.08
314.87	2351.07
315.08	2400.22
315.29	2392.03
315.51	2365.40
315.72	2334.68
315.93	2637.78
316.15	2480.09
316.36	2430.94
316.57	2533.34
316.79	2473.95
317.00	2418.65
317.21	2582.49
317.43	2422.75
317.64	2506.71
317.85	2383.84
318.07	2359.26
318.28	2469.85
318.49	2598.87
318.70	2688.98
318.92	2570.20
319.13	2592.73
319.34	2605.02
319.56	2523.10
319.77	2588.63
319.98	2680.79
320.20	2586.58
320.41	2508.76
320.62	2652.12
320.83	2381.79
321.05	2615.26
321.26	2406.36
321.47	2441.18
321.69	2635.74
321.90	2383.84
322.11	2367.45
322.32	2451.42
322.54	2666.46
322.75	2351.07
322.96	2910.16
323.18	2285.53
323.39	2269.15
323.60	2279.39
323.81	2590.68
324.03	2420.70
324.24	2562.01
324.45	2441.18
324.66	2394.08
324.88	2602.97
325.09	2629.59
325.30	2371.55
325.52	2398.17
325.73	2445.27
325.94	2363.36
326.15	2283.49
326.37	2297.82
326.58	2613.21
326.79	2715.61
327.00	2424.80
327.22	2406.36
327.43	2459.61
327.64	2465.75
327.85	2492.38
328.07	2408.41
328.28	2656.22
328.49	2498.52
328.70	2371.55
328.92	2375.64
329.13	2396.12
329.34	2572.25
329.55	2572.25
329.76	2541.53
329.98	2482.14
330.19	2633.69
330.40	2500.57
330.61	2459.61
330.83	2633.69
331.04	2414.56
331.25	2435.03
331.46	2344.92
331.68	2342.88
331.89	2541.53
332.10	2400.22
332.31	2250.72
332.52	2500.57
332.74	2635.74
332.95	2316.25
333.16	2367.45
333.37	2623.45
333.58	2455.51
333.80	2392.03
334.01	2260.96
334.22	2439.13
334.43	2447.32
334.64	2351.07
334.86	2338.78
335.07	2334.68
335.28	2742.23
335.49	2318.30
335.70	2510.81
335.92	2643.93
336.13	2723.80
336.34	2496.47
336.55	2488.28
336.76	2531.29
336.98	2293.72
337.19	2414.56
337.40	2557.91
337.61	2793.43
337.82	2463.71
338.04	2478.04
338.25	2375.64
338.46	2359.26
338.67	2349.02
338.88	2340.83
339.09	2326.49
339.31	2414.56
339.52	2324.44
339.73	2351.07
339.94	2435.03
340.15	2570.20
340.36	2420.70
340.58	2488.28
340.79	2435.03
341.00	2547.67
341.21	2359.26
341.42	2549.72
341.63	2408.41
341.85	2584.54
342.06	2490.33
342.27	2346.97
342.48	2547.67
342.69	2326.49
342.90	2508.76
343.12	2605.02
343.33	2389.98
343.54	2580.44
343.75	2678.74
343.96	2406.36
344.17	2306.01
344.38	2420.70
344.60	2359.26
344.81	2334.68
345.02	2426.84
345.23	2619.35
345.44	2779.09
345.65	2469.85
345.86	2467.80
346.07	2498.52
346.29	2396.12
346.50	2506.71
346.71	2514.91
346.92	2645.98
347.13	2736.09
347.34	2475.99
347.55	2422.75
347.76	2508.76
347.98	2334.68
348.19	2445.27
348.40	2596.82
348.61	2510.81
348.82	2707.41
349.03	2416.60
349.24	2357.21
349.45	2721.75
349.66	2306.01
349.88	2449.37
350.09	2367.45
350.30	2678.74
350.51	2688.98
350.72	2529.24
350.93	2494.43
351.14	2420.70
351.35	2521.05
351.56	2465.75
351.77	2510.81
351.99	2486.23
352.20	2697.17
352.41	2578.39
352.62	2277.34
352.83	2443.23
353.04	2473.95
353.25	2299.87
353.46	2451.42
353.67	2621.40
353.88	2297.82
354.09	2363.36
354.30	2375.64
354.52	2637.78
354.73	2461.66
354.94	2381.79
355.15	2430.94
355.36	2662.36
355.57	2422.75
355.78	2371.55
355.99	2351.07
356.20	2359.26
356.41	2611.16
356.62	2414.56
356.83	2463.71
357.04	2721.75
357.25	2301.92
357.46	2422.75
357.68	2308.06
357.89	2375.64
358.10	2531.29
358.31	2404.32
358.52	2435.03
358.73	2330.59
358.94	2432.99
359.15	2379.74
359.36	2506.71
359.57	2494.43
359.78	2486.23
359.99	2523.10
360.20	2346.97
360.41	2504.67
360.62	2602.97
360.83	2437.08
361.04	2416.60
361.25	2432.99
361.46	2660.31
361.67	2478.04
361.88	2461.66
362.09	2598.87
362.30	2555.86
362.51	2361.31
362.72	2373.60
362.93	2521.05
363.14	2656.22
363.35	2455.51
363.56	2373.60
363.78	2590.68
363.99	2592.73
364.20	2447.32
364.41	2449.37
364.62	2686.94
364.83	2527.19
365.04	2392.03
365.25	2408.41
365.46	2813.91
365.67	2367.45
365.88	2494.43
366.09	2437.08
366.30	2523.10
366.51	2445.27
366.72	2332.64
366.93	2389.98
367.14	2557.91
367.35	2686.94
367.56	2432.99
367.77	2576.34
367.98	2473.95
368.18	2480.09
368.39	2490.33
368.60	2357.21
368.81	2547.67
369.02	2584.54
369.23	2408.41
369.44	2258.91
369.65	2482.14
369.86	2465.75
370.07	2514.91
370.28	2328.54
370.49	2492.38
370.70	2486.23
370.91	2389.98
371.12	2330.59
371.33	2570.20
371.54	2457.56
371.75	2602.97
371.96	2277.34
372.17	2482.14
372.38	2537.43
372.59	2527.19
372.80	2357.21
373.01	2490.33
373.22	2521.05
373.43	2398.17
373.64	2316.25
373.85	2705.37
374.06	2678.74
374.26	2529.24
374.47	2537.43
374.68	2699.22
374.89	2514.91
375.10	2316.25
375.31	2514.91
375.52	2555.86
375.73	2539.48
375.94	2338.78
376.15	2486.23
376.36	2336.73
376.57	2420.70
376.78	2373.60
376.99	2512.86
377.20	2643.93
377.40	2428.89
377.61	2635.74
377.82	2363.36
378.03	2613.21
378.24	2576.34
378.45	2443.23
378.66	2449.37
378.87	2248.67
379.08	2310.11
379.29	2392.03
379.50	2510.81
379.71	2527.19
379.91	2664.41
380.12	2414.56
380.33	2449.37
380.54	2469.85
380.75	2504.67
380.96	2365.40
381.17	2490.33
381.38	2428.89
381.59	2490.33
381.80	2514.91
382.00	2654.17
382.21	2506.71
382.42	2645.98
382.63	2699.22
382.84	2539.48
383.05	2645.98
383.26	2625.50
383.47	2514.91
383.68	2445.27
383.88	2621.40
384.09	2475.99
384.30	2613.21
384.51	2562.01
384.72	2439.13
384.93	2310.11
385.14	2406.36
385.35	2539.48
385.55	2353.12
385.76	2643.93
385.97	2473.95
386.18	2283.49
386.39	2359.26
386.60	2494.43
386.81	2381.79
387.02	2383.84
387.22	2291.68
387.43	2570.20
387.64	2562.01
387.85	2635.74
388.06	2656.22
388.27	4075.46
388.48	8314.75
388.68	11855.69
388.89	14454.56
389.10	15894.29
389.31	14860.06
389.52	11601.74
389.73	10073.96
389.93	8894.33
390.14	8378.24
390.35	7337.87
390.56	6686.62
390.77	5400.49
390.98	4165.57
391.18	3456.97
391.39	2940.88
391.60	2654.17
391.81	2662.36
392.02	2467.80
392.23	2717.65
392.43	2478.04
392.64	2572.25
392.85	2514.91
393.06	2693.08
393.27	2498.52
393.47	2480.09
393.68	2457.56
393.89	2443.23
394.10	2650.07
394.31	2379.74
394.52	2424.80
394.72	2404.32
394.93	2674.65
395.14	2359.26
395.35	2551.77
395.56	2400.22
395.76	2498.52
395.97	2502.62
396.18	2629.59
396.39	2478.04
396.60	3037.14
396.80	2684.89
397.01	2645.98
397.22	2676.70
397.43	2666.46
397.64	2465.75
397.84	2564.06
398.05	2725.85
398.26	2461.66
398.47	2576.34
398.67	2510.81
398.88	2457.56
399.09	2588.63
399.30	2441.18
399.51	2519.00
399.71	2383.84
399.92	2539.48
400.13	2514.91
400.34	2457.56
400.54	2400.22
400.75	2674.65
400.96	2494.43
401.17	2723.80
401.37	2580.44
401.58	2512.86
401.79	2469.85
402.00	2574.30
402.21	2936.79
402.41	2822.10
402.62	2826.20
402.83	2994.13
403.04	3000.27
403.24	3063.76
403.45	2613.21
403.66	2818.00
403.87	2686.94
404.07	2826.20
404.28	2701.27
404.49	2760.66
404.70	2541.53
404.90	2607.06
405.11	2516.95
405.32	2531.29
405.52	2389.98
405.73	2490.33
405.94	2443.23
406.15	2396.12
406.35	2562.01
406.56	2549.72
406.77	2455.51
406.98	2465.75
407.18	2396.12
407.39	2738.13
407.60	2361.31
407.80	2467.80
408.01	2400.22
408.22	2539.48
408.43	2375.64
408.63	2449.37
408.84	2611.16
409.05	2641.88
409.25	2383.84
409.46	2367.45
409.67	2457.56
409.88	2467.80
410.08	2533.34
410.29	2396.12
410.50	2482.14
410.70	2570.20
410.91	2293.72
411.12	2486.23
411.32	2443.23
411.53	2408.41
411.74	2519.00
411.95	2533.34
412.15	2602.97
412.36	2629.59
412.57	2500.57
412.77	2621.40
412.98	2508.76
413.19	2443.23
413.39	2510.81
413.60	2490.33
413.81	2596.82
414.01	2408.41
414.22	2564.06
414.43	2521.05
414.63	2443.23
414.84	2566.10
415.05	2539.48
415.25	2260.96
415.46	2572.25
415.67	2351.07
415.87	2457.56
416.08	2482.14
416.29	2398.17
416.49	2568.15
416.70	2432.99
416.91	2377.69
417.11	2521.05
417.32	2543.58
417.53	2473.95
417.73	2420.70
417.94	2547.67
418.15	2529.24
418.35	2473.95
418.56	2437.08
418.77	2772.95
418.97	2516.95
419.18	2490.33
419.38	2267.10
419.59	2463.71
419.80	2570.20
420.00	2408.41
420.21	2455.51
420.42	2621.40
420.62	2506.71
420.83	2373.60
421.04	2408.41
421.24	2482.14
421.45	2592.73
421.65	2555.86
421.86	2439.13
422.07	2551.77
422.27	2506.71
422.48	2392.03
422.69	2349.02
422.89	2457.56
423.10	2453.47
423.30	2367.45
423.51	2469.85
423.72	2564.06
423.92	2574.30
424.13	2381.79
424.33	2473.95
424.54	2559.96
424.75	2521.05
424.95	2645.98
425.16	2414.56
425.36	2480.09
425.57	2611.16
425.78	2531.29
425.98	2576.34
426.19	2510.81
426.39	2377.69
426.60	2557.91
426.81	2543.58
427.01	2547.67
427.22	2367.45
427.42	2211.81
427.63	2344.92
427.83	2596.82
428.04	2686.94
428.25	2555.86
428.45	2547.67
428.66	2621.40
428.86	2473.95
429.07	2492.38
429.28	2502.62
429.48	2469.85
429.69	2367.45
429.89	2420.70
430.10	2320.35
430.30	2541.53
430.51	2609.11
430.71	2338.78
430.92	2383.84
431.13	2535.39
431.33	2510.81
431.54	2463.71
431.74	2709.46
431.95	2811.86
432.15	2400.22
432.36	2482.14
432.56	2482.14
432.77	2719.70
432.98	2742.23
433.18	2496.47
433.39	2402.27
433.59	2463.71
433.80	2717.65
434.00	2711.51
434.21	2396.12
434.41	2400.22
434.62	2695.13
434.82	2289.63
435.03	2295.77
435.23	2549.72
435.44	2318.30
435.64	2394.08
435.85	2465.75
436.06	2562.01
436.26	2637.78
436.47	2490.33
436.67	2340.83
436.88	2404.32
437.08	2643.93
437.29	2574.30
437.49	2465.75
437.70	2633.69
437.90	2551.77
438.11	2684.89
438.31	2519.00
438.52	2686.94
438.72	2754.52
438.93	2748.37
439.13	2519.00
439.34	2709.46
439.54	2576.34
439.75	2570.20
439.95	2592.73
440.16	2398.17
440.36	2537.43
440.57	2496.47
440.77	2539.48
440.98	2539.48
441.18	2572.25
441.39	2404.32
441.59	2334.68
441.80	2822.10
442.00	2473.95
442.21	2625.50
442.41	2303.96
442.62	2678.74
442.82	2404.32
443.02	2465.75
443.23	2441.18
443.43	2414.56
443.64	2699.22
443.84	2418.65
444.05	2635.74
444.25	2613.21
444.46	2416.60
444.66	2428.89
444.87	2641.88
445.07	2342.88
445.28	2428.89
445.48	2547.67
445.69	2502.62
445.89	2727.89
446.09	2494.43
446.30	2795.48
446.50	3026.90
446.71	4538.30
446.91	5844.90
447.12	6590.36
447.32	7012.24
447.53	6631.32
447.73	5463.98
447.93	4820.92
448.14	4470.72
448.34	4429.76
448.55	3805.13
448.75	3903.43
448.96	3520.46
449.16	3330.00
449.36	3170.26
449.57	2727.89
449.77	2469.85
449.98	2478.04
450.18	2523.10
450.39	2559.96
450.59	2611.16
450.79	2541.53
451.00	2406.36
451.20	2596.82
451.41	2306.01
451.61	2498.52
451.81	2471.90
452.02	2430.94
452.22	2428.89
452.43	2455.51
452.63	2441.18
452.84	2545.63
453.04	2406.36
453.24	2539.48
453.45	2371.55
453.65	2463.71
453.86	2494.43
454.06	2609.11
454.26	2514.91
454.47	2408.41
454.67	2582.49
454.87	2572.25
455.08	2428.89
455.28	2682.84
455.49	2504.67
455.69	2394.08
455.89	2803.67
456.10	2613.21
456.30	2392.03
456.51	2521.05
456.71	2492.38
456.91	2568.15
457.12	2486.23
457.32	2531.29
457.52	2369.50
457.73	2549.72
457.93	2580.44
458.14	2455.51
458.34	2293.72
458.54	2473.95
458.75	2508.76
458.95	2703.32
459.15	2498.52
459.36	2543.58
459.56	2506.71
459.76	2734.04
459.97	2490.33
460.17	2396.12
460.37	2609.11
460.58	2514.91
460.78	2572.25
460.99	2510.81
461.19	2555.86
461.39	2406.36
461.60	2502.62
461.80	2531.29
462.00	2320.35
462.21	2463.71
462.41	2387.93
462.61	2375.64
462.82	2252.77
463.02	2492.38
463.22	2533.34
463.43	2586.58
463.63	2453.47
463.83	2701.27
464.04	2564.06
464.24	2529.24
464.44	2467.80
464.64	2473.95
464.85	2547.67
465.05	2490.33
465.25	2457.56
465.46	2402.27
465.66	2627.54
465.86	2533.34
466.07	2449.37
466.27	2451.42
466.47	2328.54
466.68	2301.92
466.88	2568.15
467.08	2613.21
467.29	2652.12
467.49	2496.47
467.69	2500.57
467.89	2686.94
468.10	2408.41
468.30	2504.67
468.50	2584.54
468.71	2613.21
468.91	2373.60
469.11	2631.64
469.31	2514.91
469.52	2414.56
469.72	2645.98
469.92	2627.54
470.13	2435.03
470.33	2494.43
470.53	2588.63
470.73	2990.03
470.94	3366.86
471.14	3424.20
471.34	3868.61
471.54	3696.58
471.75	3282.89
471.95	3117.01
472.15	2908.12
472.36	3039.19
472.56	2969.55
472.76	3016.66
472.96	2975.70
473.17	2695.13
473.37	2752.47
473.57	2570.20
473.77	2578.39
473.98	2502.62
474.18	2338.78
474.38	2834.39
474.58	2392.03
474.79	2314.20
474.99	2576.34
475.19	2674.65
475.39	2369.50
475.60	2473.95
475.80	2424.80
476.00	2580.44
476.20	2414.56
476.41	2498.52
476.61	2529.24
476.81	2645.98
477.01	2416.60
477.21	2717.65
477.42	2592.73
477.62	2340.83
477.82	2506.71
478.02	2379.74
478.23	2537.43
478.43	2342.88
478.63	2465.75
478.83	2447.32
479.03	2496.47
479.24	2654.17
479.44	2715.61
479.64	2445.27
479.84	2285.53
480.04	2410.46
480.25	2607.06
480.45	2410.46
480.65	2455.51
480.85	2695.13
481.06	2455.51
481.26	2572.25
481.46	2531.29
481.66	2580.44
481.86	2359.26
482.06	2619.35
482.27	2471.90
482.47	2406.36
482.67	2551.77
482.87	2400.22
483.07	2541.53
483.28	2461.66
483.48	2318.30
483.68	2480.09
483.88	2357.21
484.08	2252.77
484.29	2336.73
484.49	2469.85
484.69	2283.49
484.89	2695.13
485.09	2602.97
485.29	2531.29
485.50	2478.04
485.70	2383.84
485.90	2627.54
486.10	2559.96
486.30	2447.32
486.50	2547.67
486.71	2541.53
486.91	2533.34
487.11	2596.82
487.31	2269.15
487.51	2480.09
487.71	2381.79
487.91	2359.26
488.12	2349.02
488.32	2226.14
488.52	2375.64
488.72	2283.49
488.92	2469.85
489.12	2682.84
489.32	2602.97
489.53	2449.37
489.73	2332.64
489.93	2623.45
490.13	2426.84
490.33	2314.20
490.53	2551.77
490.73	2551.77
490.94	2234.33
491.14	2562.01
491.34	2590.68
491.54	2775.00
491.74	3385.29
491.94	4134.85
492.14	4321.21
492.34	4415.42
492.54	4159.42
492.75	3432.40
492.95	3454.92
493.15	3254.22
493.35	3121.10
493.55	3047.38
493.75	2947.03
493.95	2873.30
494.15	2717.65
494.35	2602.97
494.56	2590.68
494.76	2375.64
494.96	2594.78
495.16	2490.33
495.36	2539.48
495.56	2465.75
495.76	2478.04
495.96	2453.47
496.16	2349.02
496.36	2664.41
496.56	2422.75
496.77	2471.90
496.97	2480.09
497.17	2670.55
497.37	2314.20
497.57	2484.19
497.77	2543.58
497.97	2355.16
498.17	2496.47
498.37	2424.80
498.57	2529.24
498.77	2484.19
498.97	2496.47
499.17	2629.59
499.38	2443.23
499.58	2582.49
499.78	2539.48
499.98	2602.97
500.18	2523.10
500.38	2351.07
500.58	2670.55
500.78	3071.95
500.98	5404.59
501.18	7538.57
501.38	9297.78
501.58	10143.59
501.78	10026.86
501.98	7978.89
502.18	6868.89
502.38	5738.41
502.58	5476.27
502.78	4956.08
502.98	4689.85
503.18	4458.43
503.38	4116.42
503.59	3551.18
503.79	3397.58
503.99	3200.98
504.19	2994.13
504.39	3080.14
504.59	3071.95
504.79	3080.14
504.99	3039.19
505.19	2781.14
505.39	2781.14
505.59	2899.92
505.79	2809.81
505.99	2717.65
506.19	2605.02
506.39	2721.75
506.59	2455.51
506.79	2482.14
506.99	2551.77
507.19	2480.09
507.39	2547.67
507.59	2367.45
507.79	2469.85
507.99	2377.69
508.19	2480.09
508.39	2443.23
508.59	2418.65
508.79	2695.13
508.99	2727.89
509.19	2512.86
509.39	2457.56
509.59	2334.68
509.79	2430.94
509.99	2547.67
510.19	2551.77
510.39	2564.06
510.59	2537.43
510.79	2447.32
510.99	2301.92
511.19	2478.04
511.39	2666.46
511.59	2678.74
511.79	2592.73
511.99	2447.32
512.19	2662.36
512.38	2564.06
512.58	2357.21
512.78	2447.32
512.98	2613.21
513.18	2746.33
513.38	2340.83
513.58	2654.17
513.78	2471.90
513.98	2443.23
514.18	2408.41
514.38	2412.51
514.58	2484.19
514.78	2441.18
514.98	2351.07
515.18	2502.62
515.38	2359.26
515.58	2734.04
515.78	2449.37
515.98	2488.28
516.18	2588.63
516.38	2588.63
516.57	2484.19
516.77	2441.18
516.97	2578.39
517.17	2486.23
517.37	2265.05
517.57	2576.34
517.77	2514.91
517.97	2432.99
518.17	2539.48
518.37	2346.97
518.57	2402.27
518.77	2457.56
518.97	2521.05
519.16	2609.11
519.36	2670.55
519.56	2406.36
519.76	2379.74
519.96	2490.33
520.16	2613.21
520.36	2408.41
520.56	2600.92
520.76	2478.04
520.96	2490.33
521.16	2641.88
521.35	2598.87
521.55	2617.30
521.75	2478.04
521.95	2494.43
522.15	2449.37
522.35	2326.49
522.55	2381.79
522.75	2578.39
522.95	2424.80
523.14	2295.77
523.34	2500.57
523.54	2473.95
523.74	2529.24
523.94	2457.56
524.14	2267.10
524.34	2475.99
524.54	2664.41
524.73	2367.45
524.93	2578.39
525.13	2525.15
525.33	2260.96
525.53	2695.13
525.73	2506.71
525.93	2465.75
526.13	2445.27
526.32	2461.66
526.52	2488.28
526.72	2539.48
526.92	2422.75
527.12	2496.47
527.32	2373.60
527.52	2555.86
527.71	2533.34
527.91	2498.52
528.11	2422.75
528.31	2551.77
528.51	2371.55
528.71	2549.72
528.90	2490.33
529.10	2572.25
529.30	2590.68
529.50	2199.52
529.70	2490.33
529.90	2492.38
530.09	2449.37
530.29	2365.40
530.49	2340.83
530.69	2793.43
530.89	2473.95
531.09	2553.82
531.28	2490.33
531.48	2607.06
531.68	2445.27
531.88	2504.67
532.08	2627.54
532.28	2473.95
532.47	2539.48
532.67	2566.10
532.87	2529.24
533.07	2408.41
533.27	2539.48
533.46	2525.15
533.66	2541.53
533.86	2432.99
534.06	2414.56
534.26	2525.15
534.45	2525.15
534.65	2615.26
534.85	2498.52
535.05	2469.85
535.25	2666.46
535.44	2377.69
535.64	2543.58
535.84	2461.66
536.04	2346.97
536.24	2435.03
536.43	2375.64
536.63	2506.71
536.83	2430.94
537.03	2465.75
537.22	2342.88
537.42	2301.92
537.62	2535.39
537.82	2389.98
538.02	2613.21
538.21	2564.06
538.41	2865.11
538.61	2590.68
538.81	2455.51
539.00	2574.30
539.20	2308.06
539.40	2512.86
539.60	2478.04
539.79	2568.15
539.99	2490.33
540.19	2414.56
540.39	2453.47
540.58	2471.90
540.78	2611.16
540.98	2531.29
541.18	2629.59
541.37	2465.75
541.57	2455.51
541.77	2492.38
541.97	2324.44
542.16	2301.92
542.36	2506.71
542.56	2420.70
542.76	2635.74
542.95	2469.85
543.15	2596.82
543.35	2559.96
543.54	2416.60
543.74	2379.74
543.94	2674.65
544.14	2379.74
544.33	2555.86
544.53	2506.71
544.73	2412.51
544.93	2465.75
545.12	2455.51
545.32	2492.38
545.52	2480.09
545.71	2383.84
545.91	2437.08
546.11	2441.18
546.30	2367.45
546.50	2465.75
546.70	2455.51
546.90	2498.52
547.09	2306.01
547.29	2500.57
547.49	2523.10
547.68	2490.33
547.88	2371.55
548.08	2547.67
548.27	2932.69
548.47	2379.74
548.67	2418.65
548.87	2486.23
549.06	2416.60
549.26	2467.80
549.46	2562.01
549.65	2404.32
549.85	2490.33
550.05	2613.21
550.24	2424.80
550.44	2494.43
550.64	2441.18
550.83	2457.56
551.03	2617.30
551.23	2553.82
551.42	2527.19
551.62	2394.08
551.82	2498.52
552.01	2490.33
552.21	2629.59
552.41	2475.99
552.60	2686.94
552.80	2496.47
553.00	2414.56
553.19	2445.27
553.39	2680.79
553.59	2373.60
553.78	2482.14
553.98	2494.43
554.17	2392.03
554.37	2531.29
554.57	2543.58
554.76	2351.07
554.96	2432.99
555.16	2506.71
555.35	2510.81
555.55	2510.81
555.75	2537.43
555.94	2590.68
556.14	2246.62
556.33	2555.86
556.53	2484.19
556.73	2480.09
556.92	2496.47
557.12	2564.06
557.32	2686.94
557.51	2713.56
557.71	2582.49
557.90	2734.04
558.10	2611.16
558.30	2424.80
558.49	2482.14
558.69	2498.52
558.88	2580.44
559.08	2496.47
559.28	2519.00
559.47	2494.43
559.67	2607.06
559.86	2715.61
560.06	2404.32
560.26	2373.60
560.45	2490.33
560.65	2375.64
560.84	2662.36
561.04	2367.45
561.24	2549.72
561.43	2359.26
561.63	2660.31
561.82	2461.66
562.02	2596.82
562.22	2469.85
562.41	2330.59
562.61	2435.03
562.80	2400.22
563.00	2717.65
563.19	2533.34
563.39	2459.61
563.59	2605.02
563.78	2301.92
563.98	2244.57
564.17	2408.41
564.37	2316.25
564.56	2531.29
564.76	2310.11
564.96	2600.92
565.15	2502.62
565.35	2824.15
565.54	2414.56
565.74	2461.66
565.93	2537.43
566.13	2519.00
566.32	2504.67
566.52	2539.48
566.71	2482.14
566.91	2617.30
567.11	2596.82
567.30	2422.75
567.50	2547.67
567.69	2559.96
567.89	2478.04
568.08	2400.22
568.28	2553.82
568.47	2318.30
568.67	2482.14
568.86	2447.32
569.06	2594.78
569.25	2445.27
569.45	2394.08
569.64	2385.88
569.84	2432.99
570.04	2488.28
570.23	2441.18
570.43	2406.36
570.62	2529.24
570.82	2703.32
571.01	2318.30
571.21	2349.02
571.40	2424.80
571.60	2537.43
571.79	2537.43
571.99	2514.91
572.18	2406.36
572.38	2600.92
572.57	2437.08
572.77	2512.86
572.96	2875.35
573.16	2568.15
573.35	2445.27
573.55	2594.78
573.74	2643.93
573.94	2498.52
574.13	2371.55
574.33	2641.88
574.52	2596.82
574.71	2514.91
574.91	2473.95
575.10	2394.08
575.30	2527.19
575.49	2402.27
575.69	2422.75
575.88	2508.76
576.08	2488.28
576.27	2670.55
576.47	2543.58
576.66	2717.65
576.86	2744.28
577.05	2576.34
577.25	2576.34
577.44	2731.99
577.64	2396.12
577.83	2666.46
578.02	2424.80
578.22	2656.22
578.41	2758.61
578.61	2430.94
578.80	2297.82
579.00	2516.95
579.19	2494.43
579.39	2445.27
579.58	2596.82
579.77	2486.23
579.97	2672.60
580.16	2672.60
580.36	2531.29
580.55	2596.82
580.75	2594.78
580.94	2596.82
581.13	2645.98
581.33	2660.31
581.52	2508.76
581.72	2791.38
581.91	2627.54
582.11	2459.61
582.30	2723.80
582.49	2559.96
582.69	2686.94
582.88	2547.67
583.08	2506.71
583.27	2631.64
583.47	2512.86
583.66	2435.03
583.85	2453.47
584.05	2531.29
584.24	2584.54
584.44	2580.44
584.63	2678.74
584.82	2729.94
585.02	2662.36
585.21	2678.74
585.41	2645.98
585.60	2600.92
585.79	2789.33
585.99	2693.08
586.18	2697.17
586.37	3135.44
586.57	5042.10
586.76	15142.68
586.96	34321.91
587.15	48088.35
587.34	56960.15
587.54	61563.99
587.73	55938.22
587.93	39337.38
588.12	29822.52
588.31	24508.04
588.51	21317.31
588.70	19511.00
588.89	17356.54
589.09	15052.57
589.28	12846.91
589.47	10305.38
589.67	7999.37
589.86	6221.73
590.06	4601.79
590.25	3872.71
590.44	3270.61
590.64	2981.84
590.83	2867.16
591.02	2787.29
591.22	2613.21
591.41	2559.96
591.60	2555.86
591.80	2785.24
591.99	2375.64
592.18	2471.90
592.38	2578.39
592.57	2498.52
592.76	2480.09
592.96	2541.53
593.15	2480.09
593.34	2609.11
593.54	2545.63
593.73	2650.07
593.92	2584.54
594.12	2674.65
594.31	2598.87
594.50	2682.84
594.70	2607.06
594.89	2891.73
595.08	2443.23
595.28	2533.34
595.47	2920.40
595.66	2605.02
595.86	2353.12
596.05	2445.27
596.24	2494.43
596.43	2719.70
596.63	2703.32
596.82	2576.34
597.01	2553.82
597.21	2717.65
597.40	2555.86
597.59	2453.47
597.79	2545.63
597.98	2592.73
598.17	2557.91
598.36	2512.86
598.56	2627.54
598.75	2478.04
598.94	2506.71
599.14	2490.33
599.33	2484.19
599.52	2559.96
599.71	2557.91
599.91	2531.29
600.10	2572.25
600.29	2502.62
600.48	2502.62
600.68	2559.96
600.87	2594.78
601.06	2531.29
601.26	2586.58
601.45	2543.58
601.64	2592.73
601.83	2664.41
602.03	2455.51
602.22	2324.44
602.41	2693.08
602.60	2834.39
602.80	2592.73
602.99	2506.71
603.18	2512.86
603.37	2484.19
603.57	2439.13
603.76	2494.43
603.95	2590.68
604.14	2430.94
604.34	2449.37
604.53	2586.58
604.72	2547.67
604.91	2570.20
605.10	2596.82
605.30	2289.63
605.49	2824.15
605.68	2533.34
605.87	2539.48
606.07	2392.03
606.26	2512.86
606.45	2506.71
606.64	2443.23
606.84	2439.13
607.03	2619.35
607.22	2633.69
607.41	2502.62
607.60	2459.61
607.80	2654.17
607.99	2547.67
608.18	2459.61
608.37	2547.67
608.56	2467.80
608.76	2605.02
608.95	2580.44
609.14	2480.09
609.33	2688.98
609.52	2748.37
609.72	2568.15
609.91	2656.22
610.10	2617.30
610.29	2748.37
610.48	2512.86
610.68	2570.20
610.87	2502.62
611.06	2586.58
611.25	2529.24
611.44	2695.13
611.63	2389.98
611.83	2621.40
612.02	2371.55
612.21	2504.67
612.40	2283.49
612.59	2461.66
612.79	2357.21
612.98	2441.18
613.17	2703.32
613.36	2490.33
613.55	2637.78
613.74	2492.38
613.93	2652.12
614.13	2731.99
614.32	2822.10
614.51	2693.08
614.70	2580.44
614.89	2502.62
615.08	2617.30
615.28	3004.37
615.47	2461.66
615.66	2605.02
615.85	2521.05
616.04	2709.46
616.23	2469.85
616.42	2580.44
616.62	2521.05
616.81	2584.54
617.00	2562.01
617.19	2582.49
617.38	2467.80
617.57	2609.11
617.76	2576.34
617.95	2543.58
618.15	2555.86
618.34	2637.78
618.53	2392.03
618.72	2713.56
618.91	2572.25
619.10	2533.34
619.29	2439.13
619.48	2555.86
619.68	2308.06
619.87	2467.80
620.06	2324.44
620.25	2611.16
620.44	2412.51
620.63	2533.34
620.82	2512.86
621.01	2602.97
621.20	2512.86
621.39	2490.33
621.59	2613.21
621.78	2508.76
621.97	2441.18
622.16	2629.59
622.35	2506.71
622.54	2643.93
622.73	2529.24
622.92	2351.07
623.11	2613.21
623.30	2478.04
623.49	2580.44
623.68	2408.41
623.88	2678.74
624.07	2453.47
624.26	2471.90
624.45	2430.94
624.64	2463.71
624.83	2478.04
625.02	2414.56
625.21	2510.81
625.40	2504.67
625.59	2680.79
625.78	2478.04
625.97	2580.44
626.16	2719.70
626.35	2564.06
626.54	2607.06
626.74	2731.99
626.93	2584.54
627.12	2547.67
627.31	2662.36
627.50	2551.77
627.69	2592.73
627.88	2402.27
628.07	2414.56
628.26	2334.68
628.45	2404.32
628.64	2457.56
628.83	2469.85
629.02	2408.41
629.21	2619.35
629.40	2467.80
629.59	2453.47
629.78	2422.75
629.97	2531.29
630.16	2525.15
630.35	2443.23
630.54	2500.57
630.73	2404.32
630.92	2488.28
631.11	2414.56
631.30	2478.04
631.49	2676.70
631.68	2432.99
631.87	2570.20
632.06	2324.44
632.25	2734.04
632.44	2512.86
632.63	2527.19
632.82	2514.91
633.01	2498.52
633.20	2590.68
633.39	2506.71
633.58	2424.80
633.77	2576.34
633.96	2627.54
634.15	2629.59
634.34	2514.91
634.53	2523.10
634.72	2400.22
634.91	2334.68
635.10	2432.99
635.29	2586.58
635.48	2543.58
635.67	2385.88
635.86	2322.40
636.05	2668.50
636.24	2441.18
636.43	2484.19
636.62	2506.71
636.81	2222.05
637.00	2482.14
637.19	2508.76
637.38	2502.62
637.57	2455.51
637.76	2545.63
637.95	2605.02
638.14	2523.10
638.33	2639.83
638.52	2553.82
638.71	2473.95
638.89	2420.70
639.08	2820.05
639.27	2740.18
639.46	2746.33
639.65	3129.30
639.84	3176.40
640.03	3342.28
640.22	3256.27
640.41	3078.10
640.60	2793.43
640.79	2785.24
640.98	2701.27
641.17	2807.77
641.36	2746.33
641.55	2746.33
641.74	2387.93
641.92	2443.23
642.11	2482.14
642.30	2498.52
642.49	2443.23
642.68	2422.75
642.87	2615.26
643.06	2496.47
643.25	2379.74
643.44	2414.56
643.63	2451.42
643.82	2586.58
644.00	2371.55
644.19	2484.19
644.38	2385.88
644.57	2592.73
644.76	2473.95
644.95	2471.90
645.14	2480.09
645.33	2504.67
645.52	2504.67
645.71	2328.54
645.89	2324.44
646.08	2461.66
646.27	2441.18
646.46	2662.36
646.65	2359.26
646.84	2535.39
647.03	2387.93
647.22	2590.68
647.40	2484.19
647.59	2523.10
647.78	2252.77
647.97	2469.85
648.16	2338.78
648.35	2678.74
648.54	2654.17
648.73	2412.51
648.91	2512.86
649.10	2463.71
649.29	2353.12
649.48	2461.66
649.67	2547.67
649.86	2553.82
650.05	2562.01
650.23	2717.65
650.42	2598.87
650.61	2758.61
650.80	2623.45
650.99	2797.53
651.18	2709.46
651.36	2600.92
651.55	2492.38
651.74	2611.16
651.93	2486.23
652.12	2457.56
652.31	2475.99
652.49	2543.58
652.68	2463.71
652.87	2715.61
653.06	2471.90
653.25	2703.32
653.44	2547.67
653.62	2723.80
653.81	2445.27
654.00	2490.33
654.19	2519.00
654.38	2809.81
654.56	2510.81
654.75	2441.18
654.94	2580.44
655.13	2584.54
655.32	2457.56
655.51	2529.24
655.69	2336.73
655.88	2613.21
656.07	2303.96
656.26	2455.51
656.45	2332.64
656.63	2488.28
656.82	2465.75
657.01	2633.69
657.20	2414.56
657.38	2666.46
657.57	2361.31
657.76	2328.54
657.95	2586.58
658.14	2430.94
658.32	2437.08
658.51	2338.78
658.70	2519.00
658.89	2506.71
659.08	2490.33
659.26	2676.70
659.45	2420.70
659.64	2609.11
659.83	2416.60
660.01	2867.16
660.20	2498.52
660.39	2717.65
660.58	2224.09
660.76	2555.86
660.95	2308.06
661.14	2500.57
661.33	2326.49
661.51	2473.95
661.70	2484.19
661.89	2504.67
662.08	2533.34
662.26	2326.49
662.45	2359.26
662.64	2746.33
662.83	2611.16
663.01	2283.49
663.20	2408.41
663.39	2662.36
663.58	2504.67
663.76	2443.23
663.95	2566.10
664.14	2445.27
664.32	2441.18
664.51	2342.88
664.70	2340.83
664.89	2519.00
665.07	2269.15
665.26	2510.81
665.45	2320.35
665.64	2480.09
665.82	2406.36
666.01	2570.20
666.20	2361.31
666.38	2629.59
666.57	2613.21
666.76	3956.68
666.95	9529.20
667.13	17968.88
667.32	22679.21
667.51	26181.23
667.69	27829.85
667.88	24833.67
668.07	17407.73
668.25	14223.14
668.44	11974.47
668.63	10399.59
668.81	9256.82
669.00	7847.82
669.19	6987.67
669.38	6074.28
669.56	5193.65
669.75	4296.64
669.94	3858.37
670.12	3176.40
670.31	2936.79
670.50	2826.20
670.68	2809.81
670.87	2607.06
671.06	2455.51
671.24	2572.25
671.43	2777.05
671.62	2531.29
671.80	2410.46
671.99	2539.48
672.18	2531.29
672.36	2684.89
672.55	2564.06
672.74	2504.67
672.92	2531.29
673.11	2562.01
673.29	2310.11
673.48	2549.72
673.67	2404.32
673.85	2619.35
674.04	2379.74
674.23	2461.66
674.41	2711.51
674.60	2361.31
674.79	2318.30
674.97	2383.84
675.16	2523.10
675.34	2621.40
675.53	2385.88
675.72	2568.15
675.90	2684.89
676.09	2455.51
676.28	2529.24
676.46	2289.63
676.65	2566.10
676.83	2367.45
677.02	2494.43
677.21	2486.23
677.39	2406.36
677.58	2416.60
677.77	2416.60
677.95	2379.74
678.14	2402.27
678.32	2480.09
678.51	2471.90
678.70	2707.41
678.88	2410.46
679.07	2480.09
679.25	2502.62
679.44	2416.60
679.63	2338.78
679.81	2557.91
680.00	2557.91
680.18	2570.20
680.37	2625.50
680.55	2449.37
680.74	2365.40
680.93	2193.37
681.11	2449.37
681.30	2506.71
681.48	2531.29
681.67	2486.23
681.85	2375.64
682.04	2383.84
682.23	2480.09
682.41	2510.81
682.60	2457.56
682.78	2496.47
682.97	2392.03
683.15	2537.43
683.34	2506.71
683.53	2682.84
683.71	2383.84
683.90	2576.34
684.08	2660.31
684.27	2514.91
684.45	2488.28
684.64	2676.70
684.82	2441.18
685.01	2519.00
685.19	2445.27
685.38	2635.74
685.57	2447.32
685.75	2346.97
685.94	2400.22
686.12	2353.12
686.31	2383.84
686.49	2625.50
686.68	2328.54
686.86	2471.90
687.05	2480.09
687.23	2703.32
687.42	2422.75
687.60	2293.72
687.79	2555.86
687.97	2672.60
688.16	2598.87
688.34	2578.39
688.53	2295.77
688.71	2471.90
688.90	2576.34
689.08	2404.32
689.27	2250.72
689.45	2514.91
689.64	2551.77
689.82	2547.67
690.01	2490.33
690.19	2570.20
690.38	2443.23
690.56	2611.16
690.75	2412.51
690.93	2465.75
691.12	2377.69
691.30	2494.43
691.49	2389.98
691.67	2432.99
691.86	2824.15
692.04	2441.18
692.23	2475.99
692.41	2510.81
692.60	2815.96
692.78	2570.20
692.97	2555.86
693.15	2639.83
693.34	2668.50
693.52	2607.06
693.71	2439.13
693.89	2486.23
694.08	2320.35
694.26	2564.06
694.44	2576.34
694.63	2623.45
694.81	2334.68
695.00	2412.51
695.18	2568.15
695.37	2693.08
695.55	2510.81
695.74	2465.75
695.92	2406.36
696.10	2750.42
696.29	2295.77
696.47	2500.57
696.66	2369.50
696.84	2367.45
697.03	2449.37
697.21	2666.46
697.40	3749.83
697.58	2641.88
697.76	2396.12
697.95	2383.84
698.13	2408.41
698.32	2418.65
698.50	2457.56
698.68	2490.33
698.87	2580.44
699.05	2678.74
699.24	2582.49
699.42	2373.60
699.61	2529.24
699.79	2469.85
699.97	2605.02
700.16	2398.17
700.34	2359.26
700.53	2506.71
700.71	2572.25
700.89	2580.44
701.08	2441.18
701.26	2463.71
701.45	3012.56
701.63	2406.36
701.81	2406.36
702.00	2408.41
702.18	2543.58
702.37	2471.90
702.55	2723.80
702.73	2703.32
702.92	2527.19
703.10	2899.92
703.28	2752.47
703.47	2389.98
703.65	2672.60
703.84	2607.06
704.02	2473.95
704.20	2815.96
704.39	2357.21
704.57	2453.47
704.75	2627.54
704.94	2600.92
705.12	2523.10
705.30	2924.50
705.49	5599.15
705.67	12500.80
705.86	20438.73
706.04	24192.65
706.22	27416.16
706.41	27950.68
706.59	22642.34
706.77	16389.89
706.96	14053.16
707.14	12404.55
707.32	10620.77
707.51	9432.94
707.69	7485.33
707.87	5982.12
708.06	4976.56
708.24	4089.79
708.42	3366.86
708.61	3141.58
708.79	2711.51
708.97	2686.94
709.16	2584.54
709.34	2643.93
709.52	2428.89
709.71	2467.80
709.89	2637.78
710.07	2334.68
710.26	2392.03
710.44	2498.52
710.62	2619.35
710.80	2494.43
710.99	2613.21
711.17	2615.26
711.35	2371.55
711.54	2443.23
711.72	2654.17
711.90	2570.20
712.09	2535.39
712.27	2404.32
712.45	2559.96
712.63	2381.79
712.82	2512.86
713.00	2547.67
713.18	2490.33
713.37	2523.10
713.55	2551.77
713.73	2547.67
713.91	2594.78
714.10	2424.80
714.28	2465.75
714.46	2459.61
714.65	2519.00
714.83	2473.95
715.01	2408.41
715.19	2510.81
715.38	2375.64
715.56	2484.19
715.74	2455.51
715.92	2437.08
716.11	2557.91
716.29	2222.05
716.47	2521.05
716.65	2463.71
716.84	2314.20
717.02	2467.80
717.20	2336.73
717.38	2426.84
717.57	2441.18
717.75	2414.56
717.93	2455.51
718.11	2508.76
718.30	2338.78
718.48	2535.39
718.66	2555.86
718.84	2541.53
719.03	2418.65
719.21	2383.84
719.39	2750.42
719.57	2645.98
719.75	2531.29
719.94	2432.99
720.12	2469.85
720.30	2484.19
720.48	2645.98
720.67	2416.60
720.85	2408.41
721.03	2394.08
721.21	2322.40
721.39	2525.15
721.58	2535.39
721.76	2473.95
721.94	2502.62
722.12	2490.33
722.30	2627.54
722.49	2439.13
722.67	2525.15
722.85	2473.95
723.03	2334.68
723.21	2418.65
723.40	2463.71
723.58	2582.49
723.76	2588.63
723.94	2703.32
724.12	2512.86
724.30	2605.02
724.49	2693.08
724.67	2394.08
724.85	2656.22
725.03	2389.98
725.21	2576.34
725.40	2609.11
725.58	2406.36
725.76	2590.68
725.94	2580.44
726.12	2357.21
726.30	2486.23
726.49	2473.95
726.67	2392.03
726.85	2602.97
727.03	2844.63
727.21	4308.93
727.39	5697.45
727.57	6541.21
727.76	7325.58
727.94	7636.88
728.12	7012.24
728.30	5552.04
728.48	4906.93
728.66	4460.48
728.84	3985.35
729.03	3538.89
729.21	3262.41
729.39	2981.84
729.57	2686.94
729.75	2586.58
729.93	2654.17
730.11	2506.71
730.30	2512.86
730.48	2516.95
730.66	2637.78
730.84	2586.58
731.02	2516.95
731.20	2426.84
731.38	2455.51
731.56	2330.59
731.74	2367.45
731.93	2496.47
732.11	2488.28
732.29	2412.51
732.47	2521.05
732.65	2498.52
732.83	2535.39
733.01	2496.47
733.19	2394.08
733.37	2547.67
733.56	2512.86
733.74	2381.79
733.92	2531.29
734.10	2412.51
734.28	2523.10
734.46	2316.25
734.64	2400.22
734.82	2471.90
735.00	2314.20
735.18	2363.36
735.36	2473.95
735.54	2510.81
735.73	2514.91
735.91	2519.00
736.09	2547.67
736.27	2547.67
736.45	2531.29
736.63	2213.85
736.81	2482.14
736.99	2578.39
737.17	2650.07
737.35	2459.61
737.53	2473.95
737.71	2482.14
737.89	2494.43
738.07	2355.16
738.25	2394.08
738.43	2324.44
738.61	2398.17
738.80	2267.10
738.98	2326.49
739.16	2392.03
739.34	2482.14
739.52	2617.30
739.70	2445.27
739.88	2512.86
740.06	2609.11
740.24	2238.43
740.42	2580.44
740.60	2277.34
740.78	2428.89
740.96	2187.23
741.14	2465.75
741.32	2412.51
741.50	2260.96
741.68	2648.02
741.86	2629.59
742.04	2355.16
742.22	2416.60
742.40	2461.66
742.58	2424.80
742.76	2346.97
742.94	2570.20
743.12	2301.92
743.30	2432.99
743.48	2498.52
743.66	2375.64
743.84	2516.95
744.02	2498.52
744.20	2508.76
744.38	2432.99
744.56	2254.81
744.74	2770.90
744.92	2492.38
745.10	2639.83
745.28	2490.33
745.46	2744.28
745.64	2451.42
745.82	2531.29
746.00	2359.26
746.18	2531.29
746.36	2330.59
746.54	2514.91
746.72	2465.75
746.90	2359.26
747.08	2645.98
747.26	2416.60
747.44	2547.67
747.62	2555.86
747.80	2465.75
747.98	2545.63
748.15	2457.56
748.33	2736.09
748.51	2373.60
748.69	2578.39
748.87	2412.51
749.05	2473.95
749.23	2482.14
749.41	2437.08
749.59	2447.32
749.77	2570.20
749.95	2473.95
750.13	2457.56
750.31	2594.78
750.49	2473.95
750.67	2615.26
750.85	2535.39
751.03	2506.71
751.20	2719.70
751.38	2519.00
751.56	2449.37
751.74	2447.32
751.92	2430.94
752.10	2355.16
752.28	2660.31
752.46	2365.40
752.64	2498.52
752.82	2473.95
753.00	2572.25
753.18	2482.14
753.35	2465.75
753.53	2553.82
753.71	2473.95
753.89	2586.58
754.07	2514.91
754.25	2586.58
754.43	2537.43
754.61	2406.36
754.79	2516.95
754.97	2473.95
755.14	2652.12
755.32	2324.44
755.50	2463.71
755.68	2531.29
755.86	2326.49
756.04	2392.03
756.22	2258.91
756.40	2519.00
756.57	2637.78
756.75	2422.75
756.93	2619.35
757.11	2629.59
757.29	2338.78
757.47	2330.59
757.65	2299.87
757.82	2289.63
758.00	2428.89
758.18	2506.71
758.36	2387.93
758.54	2750.42
758.72	2281.44
758.90	2586.58
759.07	2521.05
759.25	2377.69
759.43	2494.43
759.61	2326.49
759.79	3555.27
759.97	2537.43
760.15	2430.94
760.32	2459.61
760.50	2521.05
760.68	2772.95
760.86	2342.88
761.04	2643.93
761.22	2590.68
761.39	2480.09
761.57	2471.90
761.75	2422.75
761.93	2547.67
762.11	2459.61
762.28	2453.47
762.46	2408.41
762.64	2553.82
762.82	2334.68
763.00	2473.95
763.18	2555.86
763.35	2359.26
763.53	2584.54
763.71	2473.95
763.89	2473.95
764.07	2494.43
764.24	2463.71
764.42	2605.02
764.60	2480.09
764.78	2551.77
764.96	2592.73
765.13	2580.44
765.31	2428.89
765.49	2525.15
765.67	2394.08
765.84	2361.31
766.02	2340.83
766.20	2330.59
766.38	2498.52
766.56	2592.73
766.73	2555.86
766.91	2510.81
767.09	2498.52
767.27	2537.43
767.44	2342.88
767.62	2564.06
767.80	2492.38
767.98	2400.22
768.15	2373.60
768.33	2537.43
768.51	2635.74
768.69	2590.68
768.87	2555.86
769.04	2490.33
769.22	2772.95
769.40	2576.34
769.58	2668.50
769.75	2514.91
769.93	2648.02
770.11	2422.75
770.28	2357.21
770.46	2625.50
770.64	2504.67
770.82	2465.75
770.99	2330.59
771.17	2543.58
771.35	2441.18
771.53	2453.47
771.70	2353.12
771.88	2559.96
772.06	2432.99
772.23	2449.37
772.41	2535.39
772.59	2392.03
772.77	2455.51
772.94	2488.28
773.12	2506.71
773.30	2428.89
773.47	2478.04
773.65	2408.41
773.83	2578.39
774.01	2519.00
774.18	2312.16
774.36	2494.43
774.54	2297.82
774.71	2426.84
774.89	2344.92
775.07	2353.12
775.24	2328.54
775.42	2506.71
775.60	2625.50
775.78	2373.60
775.95	2271.20
776.13	2273.25
776.31	2320.35
776.48	2521.05
776.66	2596.82
776.84	2432.99
777.01	2424.80
777.19	2351.07
777.37	2432.99
777.54	2496.47
777.72	2658.26
777.90	2469.85
778.07	2394.08
778.25	2926.55
778.43	2600.92
778.60	2375.64
778.78	2516.95
778.96	2600.92
779.13	2322.40
779.31	2539.48
779.49	2506.71
779.66	2435.03
779.84	2506.71
780.01	2424.80
780.19	2381.79
780.37	2549.72
780.54	2578.39
780.72	2371.55
780.90	2508.76
781.07	2475.99
781.25	2383.84
781.43	2572.25
781.60	2424.80
781.78	2605.02
781.95	2510.81
782.13	2351.07
782.31	2430.94
782.48	2277.34
782.66	2410.46
782.83	2660.31
783.01	2494.43
783.19	2613.21
783.36	2422.75
783.54	2400.22
783.72	2568.15
783.89	2422.75
784.07	2461.66
784.24	2420.70
784.42	2605.02
784.60	2398.17
784.77	2463.71
784.95	2285.53
785.12	2389.98
785.30	2492.38
785.47	2303.96
785.65	2443.23
785.83	2486.23
786.00	2404.32
786.18	2449.37
786.35	2283.49
786.53	2443.23
786.71	2594.78
786.88	2494.43
787.06	2512.86
787.23	2426.84
787.41	2310.11
787.58	2461.66
787.76	2310.11
787.94	2457.56
788.11	2428.89
788.29	2349.02
788.46	2394.08
788.64	2293.72
788.81	2410.46
788.99	2387.93
789.16	2367.45
789.34	2465.75
789.52	2416.60
789.69	2457.56
789.87	2285.53
790.04	2439.13
790.22	2506.71
790.39	2725.85
790.57	2389.98
790.74	2381.79
790.92	2521.05
791.09	2312.16
791.27	2523.10
791.44	2537.43
791.62	2447.32
791.79	2535.39
791.97	2525.15
792.15	2811.86
792.32	2535.39
792.50	2559.96
792.67	2748.37
792.85	2621.40
793.02	2486.23
793.20	2478.04
793.37	2344.92
793.55	2500.57
793.72	2408.41
793.90	2564.06
794.07	2357.21
794.25	2303.96
794.42	2506.71
794.60	2400.22
794.77	2463.71
794.95	2508.76
795.12	2545.63
795.30	2465.75
795.47	2281.44
795.65	2781.14
795.82	2521.05
796.00	2392.03
796.17	2555.86
796.34	2420.70
796.52	2596.82
796.69	2609.11
796.87	2602.97
797.04	2471.90
797.22	2605.02
797.39	2459.61
797.57	2570.20
797.74	2484.19
797.92	2473.95
798.09	2447.32
798.27	2531.29
798.44	2400.22
798.62	2412.51
798.79	2506.71
798.96	2531.29
799.14	2508.76
799.31	2768.85
799.49	2443.23
799.66	2404.32
799.84	2465.75
800.01	2287.58
800.19	2564.06
800.36	2277.34
800.53	2527.19
800.71	2566.10
800.88	2658.26
801.06	2441.18
801.23	2412.51
801.41	2457.56
801.58	2437.08
801.75	2389.98
801.93	2498.52
802.10	2521.05
802.28	2406.36
802.45	2420.70
802.63	2527.19
802.80	2592.73
802.97	2430.94
803.15	2432.99
803.32	2381.79
803.50	2514.91
803.67	2445.27
803.84	2404.32
804.02	2430.94
804.19	2385.88
804.37	2209.76
804.54	2316.25
804.71	2301.92
804.89	2529.24
805.06	2318.30
805.24	2367.45
805.41	2238.43
805.58	2400.22
805.76	2781.14
805.93	2424.80
806.10	2592.73
806.28	2580.44
806.45	2484.19
806.63	2559.96
806.80	2463.71
806.97	2588.63
807.15	2467.80
807.32	2535.39
807.49	2414.56
807.67	2275.29
807.84	2506.71
808.01	2310.11
808.19	2662.36
808.36	2799.57
808.54	2367.45
808.71	2396.12
808.88	2414.56
809.06	2631.64
809.23	2576.34
809.40	2418.65
809.58	2521.05
809.75	2430.94
809.92	2379.74
810.10	2605.02
810.27	2379.74
810.44	2523.10
810.62	2551.77
810.79	2473.95
810.96	2559.96
811.14	2398.17
811.31	2568.15
811.48	2570.20
811.66	2514.91
811.83	2641.88
812.00	2531.29
812.18	2461.66
812.35	2678.74
812.52	2408.41
812.69	2430.94
812.87	2383.84
813.04	2351.07
813.21	2488.28
813.39	2332.64
813.56	2346.97
813.73	2541.53
813.91	2254.81
814.08	2527.19
814.25	2482.14
814.42	2346.97
814.60	2482.14
814.77	2449.37
814.94	2478.04
815.12	2519.00
815.29	2734.04
815.46	2381.79
815.63	2453.47
815.81	2449.37
815.98	2492.38
816.15	2484.19
816.33	2482.14
816.50	2392.03
816.67	2418.65
816.84	2492.38
817.02	2308.06
817.19	2387.93
817.36	2531.29
817.53	2498.52
817.71	2398.17
817.88	2465.75
818.05	2398.17
818.22	2424.80
818.40	2623.45
818.57	2310.11
818.74	2580.44
818.91	2437.08
819.09	2486.23
819.26	2555.86
819.43	2396.12
819.60	2439.13
819.78	2488.28
819.95	2619.35
820.12	2387.93
820.29	2723.80
820.47	2533.34
820.64	2398.17
820.81	2310.11
820.98	2424.80
821.15	2414.56
821.33	2564.06
821.50	2289.63
821.67	2568.15
821.84	2340.83
822.02	2521.05
822.19	2594.78
822.36	2420.70
822.53	2383.84
822.70	2385.88
822.88	2465.75
823.05	2572.25
823.22	2416.60
823.39	2478.04
823.56	2535.39
823.74	2645.98
823.91	2373.60
824.08	2355.16
824.25	2359.26
824.42	2750.42
824.60	2285.53
824.77	2504.67
824.94	2439.13
825.11	2519.00
825.28	2293.72
825.45	2490.33
825.63	2447.32
825.80	2318.30
825.97	2531.29
826.14	2449.37
826.31	2303.96
826.48	2471.90
826.66	2383.84
826.83	2340.83
827.00	2445.27
827.17	2406.36
827.34	2418.65
827.51	2355.16
827.69	2430.94
827.86	2281.44
828.03	2539.48
828.20	2457.56
828.37	2396.12
828.54	2488.28
828.71	2408.41
828.89	2641.88
829.06	2504.67
829.23	2617.30
829.40	2408.41
829.57	2379.74
829.74	2508.76
829.91	2326.49
830.09	2379.74
830.26	2482.14
830.43	2605.02
830.60	2422.75
830.77	2490.33
830.94	2629.59
831.11	2598.87
831.28	2482.14
831.46	2592.73
831.63	2355.16
831.80	2660.31
831.97	2437.08
832.14	2439.13
832.31	2574.30
832.48	2459.61
832.65	2600.92
832.82	2447.32
832.99	2531.29
833.17	2359.26
833.34	2684.89
833.51	2504.67
833.68	2260.96
833.85	2580.44
834.02	2332.64
834.19	2357.21
834.36	2308.06
834.53	2437.08
834.70	2670.55
834.87	2469.85
835.04	2314.20
835.22	2416.60
835.39	2445.27
835.56	2328.54
835.73	2340.83
835.90	2576.34
836.07	2316.25
836.24	2455.51
836.41	2320.35
836.58	2340.83
836.75	2496.47
836.92	2430.94
837.09	2308.06
837.26	2627.54
837.43	2457.56
837.60	2406.36
837.77	2453.47
837.94	2539.48
838.12	2654.17
838.29	2392.03
838.46	2285.53
838.63	2418.65
838.80	2652.12
838.97	2402.27
839.14	2416.60
839.31	2547.67
839.48	2570.20
839.65	2320.35
839.82	2432.99
839.99	2535.39
840.16	2500.57
840.33	2320.35
840.50	2353.12
840.67	2365.40
840.84	2195.42
841.01	2406.36
841.18	2318.30
841.35	2432.99
841.52	2498.52
841.69	2729.94
841.86	2375.64
842.03	2525.15
842.20	2523.10
842.37	2371.55
842.54	2437.08
842.71	2519.00
842.88	2336.73
843.05	2498.52
843.22	2357.21
843.39	2594.78
843.56	2400.22
843.73	2398.17
843.90	2439.13
844.07	2449.37
844.24	2562.01
844.41	2461.66
844.58	2453.47
844.75	2463.71
844.92	2559.96
845.09	2402.27
845.26	2410.46
845.43	2510.81
845.60	2430.94
845.77	2559.96
845.94	2471.90
846.10	2519.00
846.27	2346.97
846.44	2367.45
846.61	2275.29
846.78	2547.67
846.95	2519.00
847.12	2334.68
847.29	2383.84
847.46	2267.10
847.63	2566.10
847.80	2328.54
847.97	2445.27
848.14	2695.13
848.31	2461.66
848.48	2330.59
848.65	2496.47
848.82	2394.08
848.98	2791.38
849.15	2424.80
849.32	2471.90
849.49	2645.98
849.66	2418.65
849.83	2430.94
850.00	2297.82
850.17	2568.15
850.34	2420.70
850.51	2322.40
850.68	2332.64
850.85	2701.27
851.01	2543.58
851.18	2392.03
851.35	2432.99
851.52	2549.72
851.69	2650.07
851.86	2246.62
852.03	2269.15
852.20	2592.73
852.37	2457.56
852.53	2287.58
852.70	2322.40
852.87	2527.19
853.04	2541.53
853.21	2344.92
853.38	2527.19
853.55	2707.41
853.72	2627.54
853.89	2363.36
854.05	2346.97
854.22	2432.99
854.39	2445.27
854.56	2410.46
854.73	2535.39
854.90	2383.84
855.07	2463.71
855.23	2326.49
855.40	2344.92
855.57	2510.81
855.74	2222.05
855.91	2543.58
856.08	2277.34
856.25	2220.00
856.41	2424.80
856.58	2359.26
856.75	2441.18
856.92	2336.73
857.09	2615.26
857.26	2283.49
857.42	2361.31
857.59	2576.34
857.76	2422.75
857.93	2432.99
858.10	2490.33
858.27	2330.59
858.43	2521.05
858.60	2236.38
858.77	2297.82
858.94	2355.16
859.11	2631.64
859.27	2414.56
859.44	2365.40
859.61	2695.13
859.78	2533.34
859.95	2387.93
860.12	2346.97
860.28	2676.70
860.45	2641.88
860.62	2316.25
860.79	2412.51
860.95	2484.19
861.12	2402.27
861.29	2334.68
861.46	2306.01
861.63	2480.09
861.79	2539.48
861.96	2265.05
862.13	2398.17
862.30	2637.78
862.47	2398.17
862.63	2359.26
862.80	2426.84
862.97	2619.35
863.14	2557.91
863.30	2408.41
863.47	2252.77
863.64	2703.32
863.81	2519.00
863.97	2326.49
864.14	2453.47
864.31	2416.60
864.48	2455.51
864.65	2408.41
864.81	2539.48
864.98	2568.15
865.15	2580.44
865.32	2482.14
865.48	2506.71
865.65	2731.99
865.82	2404.32
865.98	2349.02
866.15	2408.41
866.32	2414.56
866.49	2392.03
866.65	2463.71
866.82	2404.32
866.99	2473.95
867.16	2428.89
867.32	2488.28
867.49	2410.46
867.66	2445.27
867.83	2346.97
867.99	2277.34
868.16	2289.63
868.33	2359.26
868.49	2490.33
868.66	2408.41
868.83	2492.38
868.99	2547.67
869.16	2478.04
869.33	2465.75
869.50	2502.62
869.66	2523.10
869.83	2428.89
870.00	2332.64
870.16	2449.37
870.33	2383.84
870.50	2568.15
870.66	2428.89
870.83	2494.43
871.00	2459.61
871.17	2537.43
871.33	2441.18
871.50	2291.68
871.67	2545.63
871.83	2422.75
872.00	2449.37
872.17	2334.68
872.33	2674.65
872.50	2555.86
872.67	2383.84
872.83	2420.70
873.00	2463.71
873.17	2416.60
873.33	2473.95
873.50	2410.46
873.67	2357.21
873.83	2426.84
874.00	2340.83
874.16	2392.03
874.33	2416.60
874.50	2314.20
874.66	2342.88
874.83	2375.64
875.00	2572.25
875.16	2629.59
875.33	2486.23
875.50	2220.00
875.66	2396.12
875.83	2521.05
875.99	2531.29
876.16	2428.89
876.33	2355.16
876.49	2443.23
876.66	2346.97
876.83	2340.83
876.99	2359.26
877.16	2484.19
877.32	2322.40
877.49	2385.88
877.66	2529.24
877.82	2666.46
877.99	2412.51
878.15	2512.86
878.32	2488.28
878.49	2527.19
878.65	2406.36
878.82	2559.96
878.98	2263.01
879.15	2588.63
879.32	2473.95
879.48	2478.04
879.65	2439.13
879.81	2410.46
879.98	2365.40
880.15	2445.27
880.31	2547.67
880.48	2367.45
880.64	2514.91
880.81	2420.70
880.97	2650.07
881.14	2686.94
881.31	2404.32
881.47	2615.26
881.64	2457.56
881.80	2287.58
881.97	2441.18
882.13	2412.51
882.30	2371.55
882.47	2394.08
882.63	2373.60
882.80	2287.58
882.96	2451.42
883.13	2607.06
883.29	2396.12
883.46	2437.08
883.62	2744.28
883.79	2455.51
883.95	2531.29
884.12	2410.46
884.29	2553.82
884.45	2492.38
884.62	2492.38
884.78	2326.49
884.95	2613.21
885.11	2361.31
885.28	2439.13
885.44	2424.80
885.61	2496.47
885.77	2592.73
885.94	2535.39
886.10	2355.16
886.27	2469.85
886.43	2639.83
886.60	2586.58
886.76	2359.26
886.93	2383.84
887.09	2543.58
887.26	2250.72
887.42	2488.28
887.59	2627.54
887.75	2781.14
887.92	2547.67
888.08	2529.24
888.25	2760.66
888.41	2547.67
888.58	2463.71
888.74	2322.40
888.91	2365.40
>>>>>End Processed Spectral Data<<<<<
