SpectraSuite Data File
++++++++++++++++++++++++++++++++++++
Date: Thu May 05 14:42:09 CEST 2016
User: root
Dark Spectrum Present: No
Reference Spectrum Present: No
Number of Sampled Component Spectra: 1
Spectrometers: USB4C02835
Integration Time (usec): 100000 (USB4C02835)
Spectra Averaged: 1 (USB4C02835)
Boxcar Smoothing: 0 (USB4C02835)
Correct for Electrical Dark: No (USB4C02835)
Strobe/Lamp Enabled: No (USB4C02835)
Correct for Detector Non-linearity: No (USB4C02835)
Correct for Stray Light: No (USB4C02835)
Number of Pixels in Processed Spectrum: 3648
>>>>>Begin Processed Spectral Data<<<<<
177.47	1875.94
177.69	1875.94
177.91	1875.94
178.13	1869.80
178.36	1918.95
178.58	2426.84
178.80	2519.00
179.02	2308.06
179.24	2367.45
179.46	2252.77
179.68	2424.80
179.90	2469.85
180.13	2478.04
180.35	2269.15
180.57	2342.88
180.79	2553.82
181.01	2441.18
181.23	2432.99
181.45	2389.98
181.67	2613.21
181.90	2572.25
182.12	2293.72
182.34	2211.81
182.56	2437.08
182.78	2510.81
183.00	2314.20
183.22	2342.88
183.44	2306.01
183.66	2805.72
183.89	2447.32
184.11	2277.34
184.33	2543.58
184.55	2652.12
184.77	2387.93
184.99	2355.16
185.21	2465.75
185.43	2824.15
185.65	2357.21
185.87	2269.15
186.10	2662.36
186.32	2770.90
186.54	2394.08
186.76	2414.56
186.98	2623.45
187.20	2447.32
187.42	2351.07
187.64	2277.34
187.86	2543.58
188.08	2684.89
188.30	2318.30
188.52	2367.45
188.75	2652.12
188.97	2662.36
189.19	2342.88
189.41	2363.36
189.63	2596.82
189.85	2428.89
190.07	2234.33
190.29	2193.37
190.51	2519.00
190.73	2310.11
190.95	2519.00
191.17	2408.41
191.39	2303.96
191.61	2469.85
191.84	2383.84
192.06	2404.32
192.28	2283.49
192.50	2916.31
192.72	2478.04
192.94	2443.23
193.16	2621.40
193.38	2547.67
193.60	2281.44
193.82	2437.08
194.04	2594.78
194.26	2578.39
194.48	2338.78
194.70	2351.07
194.92	2326.49
195.14	2516.95
195.36	2234.33
195.58	2424.80
195.80	2498.52
196.02	2396.12
196.24	2334.68
196.46	2494.43
196.69	2414.56
196.91	2762.71
197.13	2441.18
197.35	2324.44
197.57	2721.75
197.79	2572.25
198.01	2426.84
198.23	2355.16
198.45	2559.96
198.67	2432.99
198.89	2244.57
199.11	2385.88
199.33	2324.44
199.55	2191.33
199.77	2269.15
199.99	2453.47
200.21	2457.56
200.43	2547.67
200.65	2207.71
200.87	2256.86
201.09	2469.85
201.31	2482.14
201.53	2424.80
201.75	2504.67
201.97	2545.63
202.19	2504.67
202.41	2379.74
202.63	2508.76
202.85	2643.93
203.07	2461.66
203.29	2430.94
203.51	2203.61
203.73	2387.93
203.95	2785.24
204.17	2346.97
204.39	2449.37
204.61	2480.09
204.83	2461.66
205.05	2447.32
205.27	2486.23
205.49	2744.28
205.71	2465.75
205.93	2226.14
206.15	2269.15
206.37	2502.62
206.59	2465.75
206.81	2158.56
207.03	2236.38
207.25	2334.68
207.47	2512.86
207.69	2365.40
207.91	2510.81
208.13	2725.85
208.34	2529.24
208.56	2271.20
208.78	2389.98
209.00	2488.28
209.22	2402.27
209.44	2383.84
209.66	2326.49
209.88	2527.19
210.10	2451.42
210.32	2318.30
210.54	2486.23
210.76	2490.33
210.98	2572.25
211.20	2250.72
211.42	2445.27
211.64	2670.55
211.86	2562.01
212.08	2432.99
212.30	2334.68
212.52	2424.80
212.74	2521.05
212.96	2367.45
213.17	2404.32
213.39	2527.19
213.61	2731.99
213.83	2361.31
214.05	2418.65
214.27	2590.68
214.49	2334.68
214.71	2285.53
214.93	2414.56
215.15	2639.83
215.37	2588.63
215.59	2269.15
215.81	2387.93
216.03	2639.83
216.24	2549.72
216.46	2373.60
216.68	2424.80
216.90	2553.82
217.12	2592.73
217.34	2303.96
217.56	2488.28
217.78	2652.12
218.00	2539.48
218.22	2392.03
218.44	2404.32
218.66	2500.57
218.87	2766.81
219.09	2349.02
219.31	2373.60
219.53	2465.75
219.75	2473.95
219.97	2324.44
220.19	2346.97
220.41	2422.75
220.63	2729.94
220.85	2416.60
221.06	2316.25
221.28	2611.16
221.50	2576.34
221.72	2351.07
221.94	2277.34
222.16	2475.99
222.38	2641.88
222.60	2375.64
222.82	2424.80
223.03	2584.54
223.25	2381.79
223.47	2244.57
223.69	2562.01
223.91	2592.73
224.13	2562.01
224.35	2260.96
224.57	2525.15
224.78	2537.43
225.00	2398.17
225.22	2410.46
225.44	2310.11
225.66	2551.77
225.88	2465.75
226.10	2430.94
226.32	2400.22
226.53	2631.64
226.75	2398.17
226.97	2471.90
227.19	2365.40
227.41	2383.84
227.63	2504.67
227.85	2209.76
228.06	2334.68
228.28	2461.66
228.50	2562.01
228.72	2252.77
228.94	2359.26
229.16	2336.73
229.37	2344.92
229.59	2273.25
229.81	2498.52
230.03	2375.64
230.25	2275.29
230.47	2250.72
230.69	2336.73
230.90	2555.86
231.12	2404.32
231.34	2408.41
231.56	2441.18
231.78	2351.07
232.00	2506.71
232.21	2379.74
232.43	2367.45
232.65	2252.77
232.87	2533.34
233.09	2281.44
233.30	2269.15
233.52	2674.65
233.74	2400.22
233.96	2330.59
234.18	2480.09
234.40	2521.05
234.61	2746.33
234.83	2320.35
235.05	2252.77
235.27	2709.46
235.49	2674.65
235.70	2306.01
235.92	2463.71
236.14	2490.33
236.36	2897.88
236.58	2236.38
236.79	2414.56
237.01	2441.18
237.23	2465.75
237.45	2588.63
237.67	2328.54
237.88	2539.48
238.10	2754.52
238.32	2324.44
238.54	2361.31
238.76	2371.55
238.97	2410.46
239.19	2332.64
239.41	2414.56
239.63	2572.25
239.85	2389.98
240.06	2375.64
240.28	2336.73
240.50	2592.73
240.72	2490.33
240.93	2316.25
241.15	2451.42
241.37	2498.52
241.59	2740.18
241.81	2326.49
242.02	2422.75
242.24	2445.27
242.46	2553.82
242.68	2211.81
242.89	2273.25
243.11	2555.86
243.33	2443.23
243.55	2404.32
243.76	2402.27
243.98	2389.98
244.20	2416.60
244.42	2359.26
244.64	2369.50
244.85	2326.49
245.07	2359.26
245.29	2381.79
245.51	2344.92
245.72	2498.52
245.94	2674.65
246.16	2363.36
246.38	2420.70
246.59	2400.22
246.81	2396.12
247.03	2316.25
247.24	2213.85
247.46	2441.18
247.68	2482.14
247.90	2203.61
248.11	2373.60
248.33	2594.78
248.55	2398.17
248.77	2369.50
248.98	2414.56
249.20	2682.84
249.42	2463.71
249.64	2293.72
249.85	2381.79
250.07	2437.08
250.29	2596.82
250.50	2377.69
250.72	2293.72
250.94	2457.56
251.16	2772.95
251.37	2375.64
251.59	2445.27
251.81	2555.86
252.02	2625.50
252.24	2342.88
252.46	2519.00
252.68	2437.08
252.89	2373.60
253.11	2179.04
253.33	2494.43
253.54	2678.74
253.76	2332.64
253.98	2310.11
254.20	2342.88
254.41	2365.40
254.63	2408.41
254.85	2254.81
255.06	2398.17
255.28	2564.06
255.50	2457.56
255.71	2222.05
255.93	2263.01
256.15	2461.66
256.36	2541.53
256.58	2332.64
256.80	2301.92
257.02	2435.03
257.23	2400.22
257.45	2406.36
257.67	2430.94
257.88	2400.22
258.10	2498.52
258.32	2424.80
258.53	2471.90
258.75	2686.94
258.97	2453.47
259.18	2275.29
259.40	2322.40
259.62	2703.32
259.83	2645.98
260.05	2389.98
260.27	2815.96
260.48	2629.59
260.70	2381.79
260.92	2275.29
261.13	2328.54
261.35	2531.29
261.57	2504.67
261.78	2240.48
262.00	2322.40
262.22	2580.44
262.43	2385.88
262.65	2377.69
262.86	2365.40
263.08	2740.18
263.30	2475.99
263.51	2238.43
263.73	2353.12
263.95	2639.83
264.16	2402.27
264.38	2228.19
264.60	2359.26
264.81	2408.41
265.03	2717.65
265.25	2584.54
265.46	2332.64
265.68	2752.47
265.89	2613.21
266.11	2207.71
266.33	2385.88
266.54	2621.40
266.76	2516.95
266.98	2387.93
267.19	2584.54
267.41	2592.73
267.62	2529.24
267.84	2217.95
268.06	2414.56
268.27	2480.09
268.49	2551.77
268.70	2383.84
268.92	2334.68
269.14	2428.89
269.35	2260.96
269.57	2371.55
269.79	2414.56
270.00	2385.88
270.22	2748.37
270.43	2308.06
270.65	2150.37
270.87	2465.75
271.08	2627.54
271.30	2428.89
271.51	2273.25
271.73	2523.10
271.95	2594.78
272.16	2400.22
272.38	2428.89
272.59	2396.12
272.81	2469.85
273.02	2361.31
273.24	2383.84
273.46	2559.96
273.67	2310.11
273.89	2258.91
274.10	2318.30
274.32	2645.98
274.54	2570.20
274.75	2439.13
274.97	2383.84
275.18	2533.34
275.40	2465.75
275.61	2408.41
275.83	2465.75
276.05	2346.97
276.26	2478.04
276.48	2506.71
276.69	2310.11
276.91	2392.03
277.12	2648.02
277.34	2576.34
277.55	2545.63
277.77	2490.33
277.99	2463.71
278.20	2351.07
278.42	2342.88
278.63	2365.40
278.85	2457.56
279.06	2328.54
279.28	2492.38
279.49	2635.74
279.71	2553.82
279.93	2400.22
280.14	2394.08
280.36	2349.02
280.57	2471.90
280.79	2465.75
281.00	2355.16
281.22	2404.32
281.43	2635.74
281.65	2240.48
281.86	2306.01
282.08	2525.15
282.29	2770.90
282.51	2260.96
282.73	2430.94
282.94	2289.63
283.16	2555.86
283.37	2506.71
283.59	2373.60
283.80	2465.75
284.02	2392.03
284.23	2473.95
284.45	2414.56
284.66	2367.45
284.88	2342.88
285.09	2398.17
285.31	2527.19
285.52	2578.39
285.74	2287.58
285.95	2510.81
286.17	2475.99
286.38	2609.11
286.60	2441.18
286.81	2441.18
287.03	2373.60
287.24	2514.91
287.46	2473.95
287.67	2496.47
287.89	2582.49
288.10	2467.80
288.32	2527.19
288.53	2609.11
288.75	2408.41
288.96	2551.77
289.18	2441.18
289.39	2422.75
289.61	2529.24
289.82	2813.91
290.04	2766.81
290.25	2351.07
290.47	2478.04
290.68	2439.13
290.90	2676.70
291.11	2199.52
291.33	2496.47
291.54	2379.74
291.76	2437.08
291.97	2475.99
292.18	2510.81
292.40	2449.37
292.61	2430.94
292.83	2693.08
293.04	2490.33
293.26	2519.00
293.47	2453.47
293.69	2404.32
293.90	2385.88
294.12	2637.78
294.33	2555.86
294.55	2420.70
294.76	2639.83
294.97	2580.44
295.19	2762.71
295.40	2375.64
295.62	2492.38
295.83	2684.89
296.05	2383.84
296.26	2551.77
296.48	2342.88
296.69	2371.55
296.90	2414.56
297.12	2494.43
297.33	2543.58
297.55	2508.76
297.76	2594.78
297.98	2519.00
298.19	2437.08
298.41	2529.24
298.62	2349.02
298.83	2588.63
299.05	2506.71
299.26	2473.95
299.48	2355.16
299.69	2547.67
299.90	2332.64
300.12	2357.21
300.33	2611.16
300.55	2357.21
300.76	2533.34
300.98	2289.63
301.19	2539.48
301.40	2435.03
301.62	2367.45
301.83	2490.33
302.05	2463.71
302.26	2461.66
302.47	2420.70
302.69	2355.16
302.90	2508.76
303.12	2213.85
303.33	2506.71
303.54	2672.60
303.76	2449.37
303.97	2435.03
304.19	2582.49
304.40	2338.78
304.61	2562.01
304.83	2516.95
305.04	2521.05
305.26	2645.98
305.47	2402.27
305.68	2416.60
305.90	2318.30
306.11	2627.54
306.33	2459.61
306.54	2332.64
306.75	2359.26
306.97	2334.68
307.18	2336.73
307.39	2428.89
307.61	2510.81
307.82	2482.14
308.04	2574.30
308.25	2338.78
308.46	2516.95
308.68	2545.63
308.89	2475.99
309.10	2578.39
309.32	2496.47
309.53	2504.67
309.74	2623.45
309.96	2363.36
310.17	2572.25
310.39	2482.14
310.60	2611.16
310.81	2414.56
311.03	2263.01
311.24	2500.57
311.45	2545.63
311.67	2650.07
311.88	2424.80
312.09	2414.56
312.31	2482.14
312.52	2383.84
312.73	2369.50
312.95	2353.12
313.16	2496.47
313.37	2547.67
313.59	2523.10
313.80	2559.96
314.01	2672.60
314.23	2357.21
314.44	2383.84
314.65	2314.20
314.87	2404.32
315.08	2416.60
315.29	2363.36
315.51	2355.16
315.72	2303.96
315.93	2525.15
316.15	2408.41
316.36	2392.03
316.57	2494.43
316.79	2447.32
317.00	2387.93
317.21	2547.67
317.43	2381.79
317.64	2500.57
317.85	2379.74
318.07	2342.88
318.28	2500.57
318.49	2582.49
318.70	2609.11
318.92	2609.11
319.13	2645.98
319.34	2703.32
319.56	2531.29
319.77	2576.34
319.98	2635.74
320.20	2609.11
320.41	2557.91
320.62	2602.97
320.83	2359.26
321.05	2617.30
321.26	2480.09
321.47	2457.56
321.69	2633.69
321.90	2322.40
322.11	2392.03
322.32	2514.91
322.54	2621.40
322.75	2379.74
322.96	2869.20
323.18	2312.16
323.39	2265.05
323.60	2355.16
323.81	2527.19
324.03	2449.37
324.24	2373.60
324.45	2488.28
324.66	2416.60
324.88	2727.89
325.09	2719.70
325.30	2402.27
325.52	2408.41
325.73	2506.71
325.94	2387.93
326.15	2328.54
326.37	2346.97
326.58	2645.98
326.79	2670.55
327.00	2387.93
327.22	2480.09
327.43	2416.60
327.64	2373.60
327.85	2475.99
328.07	2461.66
328.28	2654.17
328.49	2445.27
328.70	2400.22
328.92	2371.55
329.13	2422.75
329.34	2578.39
329.55	2564.06
329.76	2494.43
329.98	2469.85
330.19	2592.73
330.40	2564.06
330.61	2435.03
330.83	2611.16
331.04	2494.43
331.25	2494.43
331.46	2484.19
331.68	2359.26
331.89	2545.63
332.10	2389.98
332.31	2281.44
332.52	2441.18
332.74	2656.22
332.95	2260.96
333.16	2265.05
333.37	2584.54
333.58	2410.46
333.80	2512.86
334.01	2252.77
334.22	2486.23
334.43	2529.24
334.64	2377.69
334.86	2381.79
335.07	2435.03
335.28	2672.60
335.49	2328.54
335.70	2547.67
335.92	2619.35
336.13	2752.47
336.34	2514.91
336.55	2430.94
336.76	2467.80
336.98	2256.86
337.19	2441.18
337.40	2576.34
337.61	2768.85
337.82	2408.41
338.04	2473.95
338.25	2344.92
338.46	2484.19
338.67	2389.98
338.88	2367.45
339.09	2324.44
339.31	2457.56
339.52	2297.82
339.73	2412.51
339.94	2449.37
340.15	2578.39
340.36	2424.80
340.58	2412.51
340.79	2338.78
341.00	2592.73
341.21	2381.79
341.42	2555.86
341.63	2420.70
341.85	2555.86
342.06	2490.33
342.27	2398.17
342.48	2547.67
342.69	2342.88
342.90	2475.99
343.12	2631.64
343.33	2465.75
343.54	2594.78
343.75	2674.65
343.96	2465.75
344.17	2369.50
344.38	2465.75
344.60	2441.18
344.81	2359.26
345.02	2400.22
345.23	2605.02
345.44	2801.62
345.65	2506.71
345.86	2480.09
346.07	2484.19
346.29	2453.47
346.50	2392.03
346.71	2467.80
346.92	2658.26
347.13	2797.53
347.34	2478.04
347.55	2385.88
347.76	2539.48
347.98	2301.92
348.19	2424.80
348.40	2645.98
348.61	2383.84
348.82	2709.46
349.03	2480.09
349.24	2301.92
349.45	2742.23
349.66	2328.54
349.88	2359.26
350.09	2334.68
350.30	2566.10
350.51	2605.02
350.72	2543.58
350.93	2496.47
351.14	2420.70
351.35	2570.20
351.56	2480.09
351.77	2402.27
351.99	2478.04
352.20	2666.46
352.41	2514.91
352.62	2256.86
352.83	2535.39
353.04	2482.14
353.25	2437.08
353.46	2482.14
353.67	2637.78
353.88	2224.09
354.09	2349.02
354.30	2394.08
354.52	2570.20
354.73	2494.43
354.94	2353.12
355.15	2424.80
355.36	2711.51
355.57	2420.70
355.78	2422.75
355.99	2394.08
356.20	2473.95
356.41	2660.31
356.62	2547.67
356.83	2504.67
357.04	2652.12
357.25	2285.53
357.46	2441.18
357.68	2357.21
357.89	2392.03
358.10	2432.99
358.31	2400.22
358.52	2414.56
358.73	2324.44
358.94	2342.88
359.15	2342.88
359.36	2514.91
359.57	2527.19
359.78	2473.95
359.99	2492.38
360.20	2387.93
360.41	2400.22
360.62	2592.73
360.83	2475.99
361.04	2424.80
361.25	2539.48
361.46	2629.59
361.67	2514.91
361.88	2514.91
362.09	2625.50
362.30	2510.81
362.51	2314.20
362.72	2449.37
362.93	2568.15
363.14	2539.48
363.35	2500.57
363.56	2297.82
363.78	2654.17
363.99	2562.01
364.20	2408.41
364.41	2486.23
364.62	2713.56
364.83	2564.06
365.04	2430.94
365.25	2387.93
365.46	2736.09
365.67	2455.51
365.88	2422.75
366.09	2349.02
366.30	2445.27
366.51	2465.75
366.72	2316.25
366.93	2359.26
367.14	2553.82
367.35	2672.60
367.56	2381.79
367.77	2596.82
367.98	2588.63
368.18	2523.10
368.39	2539.48
368.60	2367.45
368.81	2611.16
369.02	2607.06
369.23	2392.03
369.44	2301.92
369.65	2473.95
369.86	2514.91
370.07	2471.90
370.28	2281.44
370.49	2490.33
370.70	2490.33
370.91	2377.69
371.12	2260.96
371.33	2635.74
371.54	2363.36
371.75	2586.58
371.96	2138.08
372.17	2510.81
372.38	2428.89
372.59	2506.71
372.80	2414.56
373.01	2473.95
373.22	2521.05
373.43	2432.99
373.64	2283.49
373.85	2629.59
374.06	2826.20
374.26	2535.39
374.47	2396.12
374.68	2699.22
374.89	2547.67
375.10	2342.88
375.31	2541.53
375.52	2435.03
375.73	2523.10
375.94	2273.25
376.15	2570.20
376.36	2371.55
376.57	2432.99
376.78	2422.75
376.99	2449.37
377.20	2596.82
377.40	2383.84
377.61	2660.31
377.82	2363.36
378.03	2652.12
378.24	2564.06
378.45	2416.60
378.66	2478.04
378.87	2306.01
379.08	2230.24
379.29	2455.51
379.50	2465.75
379.71	2439.13
379.91	2496.47
380.12	2457.56
380.33	2451.42
380.54	2514.91
380.75	2490.33
380.96	2392.03
381.17	2562.01
381.38	2531.29
381.59	2490.33
381.80	2430.94
382.00	2650.07
382.21	2527.19
382.42	2693.08
382.63	2775.00
382.84	2531.29
383.05	2627.54
383.26	2619.35
383.47	2471.90
383.68	2531.29
383.88	2586.58
384.09	2490.33
384.30	2662.36
384.51	2553.82
384.72	2506.71
384.93	2383.84
385.14	2529.24
385.35	2519.00
385.55	2328.54
385.76	2588.63
385.97	2492.38
386.18	2383.84
386.39	2445.27
386.60	2449.37
386.81	2498.52
387.02	2346.97
387.22	2267.10
387.43	2553.82
387.64	2633.69
387.85	2752.47
388.06	2666.46
388.27	4065.22
388.48	8261.51
388.68	11956.04
388.89	14354.21
389.10	15785.74
389.31	14614.30
389.52	11499.34
389.73	10121.06
389.93	9011.06
390.14	8296.32
390.35	7497.61
390.56	6696.86
390.77	5369.77
390.98	4124.61
391.18	3465.16
391.39	2918.36
391.60	2562.01
391.81	2660.31
392.02	2535.39
392.23	2711.51
392.43	2523.10
392.64	2600.92
392.85	2437.08
393.06	2711.51
393.27	2492.38
393.47	2398.17
393.68	2475.99
393.89	2383.84
394.10	2664.41
394.31	2387.93
394.52	2396.12
394.72	2430.94
394.93	2678.74
395.14	2357.21
395.35	2570.20
395.56	2445.27
395.76	2439.13
395.97	2416.60
396.18	2594.78
396.39	2590.68
396.60	3010.51
396.80	2725.85
397.01	2613.21
397.22	2688.98
397.43	2750.42
397.64	2478.04
397.84	2547.67
398.05	2744.28
398.26	2611.16
398.47	2590.68
398.67	2531.29
398.88	2461.66
399.09	2547.67
399.30	2383.84
399.51	2482.14
399.71	2381.79
399.92	2449.37
400.13	2437.08
400.34	2439.13
400.54	2486.23
400.75	2674.65
400.96	2502.62
401.17	2643.93
401.37	2508.76
401.58	2432.99
401.79	2467.80
402.00	2551.77
402.21	2930.64
402.41	2764.76
402.62	2746.33
402.83	2930.64
403.04	2979.79
403.24	3065.81
403.45	2664.41
403.66	2760.66
403.87	2678.74
404.07	2801.62
404.28	2676.70
404.49	2727.89
404.70	2676.70
404.90	2553.82
405.11	2465.75
405.32	2584.54
405.52	2424.80
405.73	2398.17
405.94	2349.02
406.15	2504.67
406.35	2586.58
406.56	2637.78
406.77	2478.04
406.98	2465.75
407.18	2490.33
407.39	2662.36
407.60	2480.09
407.80	2514.91
408.01	2439.13
408.22	2471.90
408.43	2389.98
408.63	2510.81
408.84	2576.34
409.05	2588.63
409.25	2389.98
409.46	2336.73
409.67	2392.03
409.88	2445.27
410.08	2568.15
410.29	2396.12
410.50	2617.30
410.70	2523.10
410.91	2365.40
411.12	2488.28
411.32	2445.27
411.53	2310.11
411.74	2512.86
411.95	2506.71
412.15	2506.71
412.36	2629.59
412.57	2594.78
412.77	2594.78
412.98	2543.58
413.19	2486.23
413.39	2512.86
413.60	2465.75
413.81	2695.13
414.01	2414.56
414.22	2441.18
414.43	2588.63
414.63	2373.60
414.84	2707.41
415.05	2510.81
415.25	2228.19
415.46	2615.26
415.67	2432.99
415.87	2512.86
416.08	2375.64
416.29	2475.99
416.49	2600.92
416.70	2410.46
416.91	2451.42
417.11	2449.37
417.32	2613.21
417.53	2506.71
417.73	2449.37
417.94	2506.71
418.15	2543.58
418.35	2424.80
418.56	2465.75
418.77	2818.00
418.97	2473.95
419.18	2451.42
419.38	2258.91
419.59	2482.14
419.80	2670.55
420.00	2351.07
420.21	2488.28
420.42	2578.39
420.62	2559.96
420.83	2428.89
421.04	2445.27
421.24	2406.36
421.45	2611.16
421.65	2537.43
421.86	2496.47
422.07	2662.36
422.27	2510.81
422.48	2480.09
422.69	2379.74
422.89	2496.47
423.10	2500.57
423.30	2301.92
423.51	2473.95
423.72	2588.63
423.92	2582.49
424.13	2269.15
424.33	2449.37
424.54	2555.86
424.75	2502.62
424.95	2641.88
425.16	2496.47
425.36	2465.75
425.57	2635.74
425.78	2570.20
425.98	2615.26
426.19	2387.93
426.39	2371.55
426.60	2459.61
426.81	2568.15
427.01	2465.75
427.22	2412.51
427.42	2297.82
427.63	2387.93
427.83	2631.64
428.04	2715.61
428.25	2547.67
428.45	2566.10
428.66	2635.74
428.86	2525.15
429.07	2410.46
429.28	2537.43
429.48	2451.42
429.69	2394.08
429.89	2512.86
430.10	2346.97
430.30	2523.10
430.51	2656.22
430.71	2412.51
430.92	2379.74
431.13	2473.95
431.33	2508.76
431.54	2562.01
431.74	2625.50
431.95	2830.29
432.15	2342.88
432.36	2428.89
432.56	2553.82
432.77	2775.00
432.98	2729.94
433.18	2496.47
433.39	2412.51
433.59	2437.08
433.80	2721.75
434.00	2678.74
434.21	2449.37
434.41	2398.17
434.62	2736.09
434.82	2291.68
435.03	2334.68
435.23	2547.67
435.44	2281.44
435.64	2506.71
435.85	2504.67
436.06	2627.54
436.26	2635.74
436.47	2420.70
436.67	2392.03
436.88	2453.47
437.08	2574.30
437.29	2547.67
437.49	2514.91
437.70	2643.93
437.90	2512.86
438.11	2660.31
438.31	2523.10
438.52	2666.46
438.72	2703.32
438.93	2711.51
439.13	2533.34
439.34	2568.15
439.54	2537.43
439.75	2617.30
439.95	2543.58
440.16	2490.33
440.36	2506.71
440.57	2506.71
440.77	2437.08
440.98	2496.47
441.18	2543.58
441.39	2478.04
441.59	2453.47
441.80	2795.48
442.00	2432.99
442.21	2576.34
442.41	2424.80
442.62	2584.54
442.82	2404.32
443.02	2383.84
443.23	2455.51
443.43	2435.03
443.64	2621.40
443.84	2367.45
444.05	2643.93
444.25	2502.62
444.46	2422.75
444.66	2471.90
444.87	2656.22
445.07	2363.36
445.28	2490.33
445.48	2648.02
445.69	2555.86
445.89	2789.33
446.09	2457.56
446.30	2801.62
446.50	2957.27
446.71	4638.65
446.91	5814.18
447.12	6653.85
447.32	6907.80
447.53	6414.24
447.73	5463.98
447.93	4857.78
448.14	4472.76
448.34	4392.89
448.55	3928.00
448.75	3751.88
448.96	3592.14
449.16	3293.13
449.36	3180.50
449.57	2731.99
449.77	2674.65
449.98	2441.18
450.18	2596.82
450.39	2473.95
450.59	2543.58
450.79	2529.24
451.00	2451.42
451.20	2535.39
451.41	2432.99
451.61	2602.97
451.81	2545.63
452.02	2416.60
452.22	2478.04
452.43	2449.37
452.63	2445.27
452.84	2400.22
453.04	2394.08
453.24	2519.00
453.45	2455.51
453.65	2473.95
453.86	2498.52
454.06	2553.82
454.26	2521.05
454.47	2412.51
454.67	2631.64
454.87	2596.82
455.08	2475.99
455.28	2633.69
455.49	2539.48
455.69	2496.47
455.89	2719.70
456.10	2596.82
456.30	2488.28
456.51	2590.68
456.71	2516.95
456.91	2508.76
457.12	2428.89
457.32	2486.23
457.52	2387.93
457.73	2537.43
457.93	2492.38
458.14	2455.51
458.34	2308.06
458.54	2414.56
458.75	2459.61
458.95	2627.54
459.15	2473.95
459.36	2447.32
459.56	2392.03
459.76	2785.24
459.97	2576.34
460.17	2475.99
460.37	2611.16
460.58	2437.08
460.78	2627.54
460.99	2510.81
461.19	2437.08
461.39	2480.09
461.60	2490.33
461.80	2484.19
462.00	2359.26
462.21	2445.27
462.41	2387.93
462.61	2412.51
462.82	2369.50
463.02	2605.02
463.22	2506.71
463.43	2566.10
463.63	2459.61
463.83	2652.12
464.04	2506.71
464.24	2392.03
464.44	2394.08
464.64	2549.72
464.85	2703.32
465.05	2539.48
465.25	2484.19
465.46	2424.80
465.66	2625.50
465.86	2529.24
466.07	2488.28
466.27	2422.75
466.47	2342.88
466.68	2269.15
466.88	2576.34
467.08	2553.82
467.29	2662.36
467.49	2488.28
467.69	2488.28
467.89	2486.23
468.10	2402.27
468.30	2498.52
468.50	2523.10
468.71	2641.88
468.91	2430.94
469.11	2664.41
469.31	2537.43
469.52	2416.60
469.72	2727.89
469.92	2635.74
470.13	2486.23
470.33	2510.81
470.53	2627.54
470.73	2957.27
470.94	3334.09
471.14	3424.20
471.34	3858.37
471.54	3735.50
471.75	3317.71
471.95	3086.29
472.15	3006.42
472.36	3051.47
472.56	2981.84
472.76	2977.75
472.96	2906.07
473.17	2727.89
473.37	2768.85
473.57	2453.47
473.77	2650.07
473.98	2525.15
474.18	2371.55
474.38	2936.79
474.58	2461.66
474.79	2389.98
474.99	2545.63
475.19	2596.82
475.39	2277.34
475.60	2490.33
475.80	2428.89
476.00	2549.72
476.20	2459.61
476.41	2535.39
476.61	2588.63
476.81	2643.93
477.01	2418.65
477.21	2613.21
477.42	2627.54
477.62	2457.56
477.82	2596.82
478.02	2340.83
478.23	2535.39
478.43	2373.60
478.63	2400.22
478.83	2502.62
479.03	2482.14
479.24	2734.04
479.44	2725.85
479.64	2392.03
479.84	2289.63
480.04	2400.22
480.25	2672.60
480.45	2318.30
480.65	2490.33
480.85	2662.36
481.06	2428.89
481.26	2516.95
481.46	2412.51
481.66	2559.96
481.86	2424.80
482.06	2623.45
482.27	2389.98
482.47	2435.03
482.67	2547.67
482.87	2432.99
483.07	2564.06
483.28	2488.28
483.48	2322.40
483.68	2394.08
483.88	2334.68
484.08	2250.72
484.29	2328.54
484.49	2453.47
484.69	2289.63
484.89	2678.74
485.09	2621.40
485.29	2471.90
485.50	2590.68
485.70	2359.26
485.90	2701.27
486.10	2488.28
486.30	2506.71
486.50	2600.92
486.71	2525.15
486.91	2582.49
487.11	2555.86
487.31	2363.36
487.51	2574.30
487.71	2385.88
487.91	2383.84
488.12	2400.22
488.32	2240.48
488.52	2394.08
488.72	2250.72
488.92	2523.10
489.12	2580.44
489.32	2629.59
489.53	2492.38
489.73	2342.88
489.93	2605.02
490.13	2367.45
490.33	2291.68
490.53	2508.76
490.73	2645.98
490.94	2273.25
491.14	2463.71
491.34	2564.06
491.54	2750.42
491.74	3426.25
491.94	3909.57
492.14	4317.12
492.34	4390.84
492.54	4038.59
492.75	3512.27
492.95	3442.64
493.15	3266.51
493.35	3225.55
493.55	3053.52
493.75	2858.96
493.95	3006.42
494.15	2707.41
494.35	2523.10
494.56	2512.86
494.76	2414.56
494.96	2504.67
495.16	2428.89
495.36	2475.99
495.56	2473.95
495.76	2459.61
495.96	2410.46
496.16	2402.27
496.36	2680.79
496.56	2490.33
496.77	2531.29
496.97	2541.53
497.17	2670.55
497.37	2275.29
497.57	2494.43
497.77	2586.58
497.97	2371.55
498.17	2424.80
498.37	2441.18
498.57	2510.81
498.77	2482.14
498.97	2578.39
499.17	2736.09
499.38	2441.18
499.58	2633.69
499.78	2594.78
499.98	2621.40
500.18	2443.23
500.38	2424.80
500.58	2711.51
500.78	3141.58
500.98	5490.60
501.18	7522.19
501.38	9412.46
501.58	10241.89
501.78	9975.66
501.98	8073.09
502.18	6633.37
502.38	5742.50
502.58	5472.17
502.78	4915.12
502.98	4616.12
503.18	4437.95
503.38	4087.75
503.59	3571.66
503.79	3289.04
503.99	3174.35
504.19	3096.53
504.39	3059.67
504.59	3166.16
504.79	3100.62
504.99	3139.54
505.19	2801.62
505.39	2740.18
505.59	2781.14
505.79	2797.53
505.99	2711.51
506.19	2562.01
506.39	2670.55
506.59	2506.71
506.79	2478.04
506.99	2580.44
507.19	2543.58
507.39	2490.33
507.59	2420.70
507.79	2394.08
507.99	2432.99
508.19	2527.19
508.39	2396.12
508.59	2588.63
508.79	2648.02
508.99	2736.09
509.19	2424.80
509.39	2539.48
509.59	2365.40
509.79	2412.51
509.99	2467.80
510.19	2555.86
510.39	2576.34
510.59	2463.71
510.79	2400.22
510.99	2342.88
511.19	2441.18
511.39	2768.85
511.59	2629.59
511.79	2611.16
511.99	2486.23
512.19	2719.70
512.38	2490.33
512.58	2449.37
512.78	2406.36
512.98	2586.58
513.18	2650.07
513.38	2359.26
513.58	2510.81
513.78	2506.71
513.98	2523.10
514.18	2469.85
514.38	2443.23
514.58	2494.43
514.78	2363.36
514.98	2402.27
515.18	2457.56
515.38	2363.36
515.58	2738.13
515.78	2443.23
515.98	2504.67
516.18	2580.44
516.38	2408.41
516.57	2379.74
516.77	2441.18
516.97	2596.82
517.17	2373.60
517.37	2230.24
517.57	2543.58
517.77	2496.47
517.97	2453.47
518.17	2553.82
518.37	2422.75
518.57	2383.84
518.77	2432.99
518.97	2527.19
519.16	2564.06
519.36	2680.79
519.56	2435.03
519.76	2492.38
519.96	2461.66
520.16	2719.70
520.36	2387.93
520.56	2629.59
520.76	2439.13
520.96	2500.57
521.16	2600.92
521.35	2639.83
521.55	2613.21
521.75	2482.14
521.95	2394.08
522.15	2414.56
522.35	2252.77
522.55	2439.13
522.75	2588.63
522.95	2410.46
523.14	2357.21
523.34	2494.43
523.54	2504.67
523.74	2486.23
523.94	2445.27
524.14	2285.53
524.34	2494.43
524.54	2584.54
524.73	2404.32
524.93	2512.86
525.13	2521.05
525.33	2375.64
525.53	2734.04
525.73	2588.63
525.93	2510.81
526.13	2498.52
526.32	2418.65
526.52	2650.07
526.72	2504.67
526.92	2519.00
527.12	2447.32
527.32	2375.64
527.52	2557.91
527.71	2523.10
527.91	2484.19
528.11	2490.33
528.31	2435.03
528.51	2328.54
528.71	2580.44
528.90	2555.86
529.10	2660.31
529.30	2537.43
529.50	2275.29
529.70	2475.99
529.90	2443.23
530.09	2502.62
530.29	2338.78
530.49	2428.89
530.69	2809.81
530.89	2506.71
531.09	2551.77
531.28	2428.89
531.48	2555.86
531.68	2439.13
531.88	2494.43
532.08	2621.40
532.28	2467.80
532.47	2510.81
532.67	2627.54
532.87	2588.63
533.07	2355.16
533.27	2508.76
533.46	2559.96
533.66	2559.96
533.86	2484.19
534.06	2475.99
534.26	2496.47
534.45	2392.03
534.65	2623.45
534.85	2549.72
535.05	2457.56
535.25	2637.78
535.44	2297.82
535.64	2551.77
535.84	2465.75
536.04	2455.51
536.24	2463.71
536.43	2326.49
536.63	2482.14
536.83	2531.29
537.03	2465.75
537.22	2316.25
537.42	2265.05
537.62	2525.15
537.82	2402.27
538.02	2578.39
538.21	2580.44
538.41	2867.16
538.61	2547.67
538.81	2527.19
539.00	2592.73
539.20	2342.88
539.40	2490.33
539.60	2504.67
539.79	2527.19
539.99	2469.85
540.19	2459.61
540.39	2426.84
540.58	2541.53
540.78	2527.19
540.98	2564.06
541.18	2596.82
541.37	2535.39
541.57	2547.67
541.77	2508.76
541.97	2402.27
542.16	2293.72
542.36	2412.51
542.56	2469.85
542.76	2691.03
542.95	2514.91
543.15	2654.17
543.35	2621.40
543.54	2422.75
543.74	2375.64
543.94	2686.94
544.14	2457.56
544.33	2529.24
544.53	2463.71
544.73	2418.65
544.93	2570.20
545.12	2398.17
545.32	2432.99
545.52	2467.80
545.71	2369.50
545.91	2375.64
546.11	2383.84
546.30	2310.11
546.50	2512.86
546.70	2523.10
546.90	2490.33
547.09	2346.97
547.29	2500.57
547.49	2502.62
547.68	2449.37
547.88	2383.84
548.08	2596.82
548.27	2883.54
548.47	2334.68
548.67	2379.74
548.87	2564.06
549.06	2447.32
549.26	2441.18
549.46	2543.58
549.65	2488.28
549.85	2465.75
550.05	2498.52
550.24	2418.65
550.44	2535.39
550.64	2525.15
550.83	2336.73
551.03	2623.45
551.23	2596.82
551.42	2461.66
551.62	2469.85
551.82	2619.35
552.01	2453.47
552.21	2570.20
552.41	2457.56
552.60	2691.03
552.80	2498.52
553.00	2355.16
553.19	2527.19
553.39	2758.61
553.59	2355.16
553.78	2502.62
553.98	2557.91
554.17	2299.87
554.37	2496.47
554.57	2523.10
554.76	2375.64
554.96	2461.66
555.16	2537.43
555.35	2412.51
555.55	2535.39
555.75	2572.25
555.94	2617.30
556.14	2299.87
556.33	2504.67
556.53	2539.48
556.73	2486.23
556.92	2523.10
557.12	2510.81
557.32	2662.36
557.51	2691.03
557.71	2541.53
557.90	2727.89
558.10	2664.41
558.30	2478.04
558.49	2412.51
558.69	2406.36
558.88	2572.25
559.08	2461.66
559.28	2392.03
559.47	2484.19
559.67	2553.82
559.86	2785.24
560.06	2547.67
560.26	2441.18
560.45	2555.86
560.65	2478.04
560.84	2588.63
561.04	2469.85
561.24	2555.86
561.43	2383.84
561.63	2678.74
561.82	2555.86
562.02	2580.44
562.22	2373.60
562.41	2340.83
562.61	2344.92
562.80	2389.98
563.00	2836.44
563.19	2580.44
563.39	2590.68
563.59	2498.52
563.78	2320.35
563.98	2326.49
564.17	2342.88
564.37	2301.92
564.56	2455.51
564.76	2328.54
564.96	2572.25
565.15	2590.68
565.35	2791.38
565.54	2437.08
565.74	2529.24
565.93	2568.15
566.13	2504.67
566.32	2545.63
566.52	2496.47
566.71	2478.04
566.91	2504.67
567.11	2508.76
567.30	2420.70
567.50	2490.33
567.69	2564.06
567.89	2437.08
568.08	2367.45
568.28	2605.02
568.47	2353.12
568.67	2490.33
568.86	2402.27
569.06	2588.63
569.25	2428.89
569.45	2408.41
569.64	2371.55
569.84	2422.75
570.04	2508.76
570.23	2383.84
570.43	2326.49
570.62	2492.38
570.82	2656.22
571.01	2351.07
571.21	2340.83
571.40	2398.17
571.60	2619.35
571.79	2478.04
571.99	2508.76
572.18	2408.41
572.38	2596.82
572.57	2449.37
572.77	2508.76
572.96	2834.39
573.16	2551.77
573.35	2482.14
573.55	2650.07
573.74	2615.26
573.94	2457.56
574.13	2465.75
574.33	2539.48
574.52	2609.11
574.71	2519.00
574.91	2553.82
575.10	2385.88
575.30	2412.51
575.49	2404.32
575.69	2441.18
575.88	2494.43
576.08	2541.53
576.27	2639.83
576.47	2547.67
576.66	2621.40
576.86	2744.28
577.05	2543.58
577.25	2621.40
577.44	2666.46
577.64	2437.08
577.83	2666.46
578.02	2490.33
578.22	2578.39
578.41	2744.28
578.61	2512.86
578.80	2334.68
579.00	2459.61
579.19	2576.34
579.39	2545.63
579.58	2576.34
579.77	2369.50
579.97	2678.74
580.16	2703.32
580.36	2627.54
580.55	2525.15
580.75	2605.02
580.94	2572.25
581.13	2654.17
581.33	2660.31
581.52	2535.39
581.72	2785.24
581.91	2602.97
582.11	2531.29
582.30	2619.35
582.49	2600.92
582.69	2699.22
582.88	2568.15
583.08	2494.43
583.27	2619.35
583.47	2514.91
583.66	2486.23
583.85	2375.64
584.05	2625.50
584.24	2588.63
584.44	2553.82
584.63	2691.03
584.82	2719.70
585.02	2676.70
585.21	2703.32
585.41	2637.78
585.60	2611.16
585.79	2766.81
585.99	2727.89
586.18	2648.02
586.37	3248.08
586.57	4945.84
586.76	15021.85
586.96	33986.04
587.15	47445.29
587.34	56405.16
587.54	60875.87
587.73	55702.70
587.93	39251.37
588.12	29621.82
588.31	24100.50
588.51	20942.53
588.70	19203.80
588.89	17047.29
589.09	14812.96
589.28	12830.52
589.47	10151.78
589.67	7839.62
589.86	6119.33
590.06	4657.08
590.25	3868.61
590.44	3291.09
590.64	3002.32
590.83	2822.10
591.02	2834.39
591.22	2555.86
591.41	2566.10
591.60	2490.33
591.80	2846.68
591.99	2367.45
592.18	2449.37
592.38	2650.07
592.57	2508.76
592.76	2555.86
592.96	2562.01
593.15	2478.04
593.34	2596.82
593.54	2416.60
593.73	2621.40
593.92	2650.07
594.12	2666.46
594.31	2527.19
594.50	2658.26
594.70	2662.36
594.89	2924.50
595.08	2412.51
595.28	2574.30
595.47	2918.36
595.66	2678.74
595.86	2430.94
596.05	2506.71
596.24	2422.75
596.43	2736.09
596.63	2613.21
596.82	2471.90
597.01	2551.77
597.21	2764.76
597.40	2449.37
597.59	2537.43
597.79	2447.32
597.98	2623.45
598.17	2510.81
598.36	2508.76
598.56	2619.35
598.75	2531.29
598.94	2480.09
599.14	2482.14
599.33	2455.51
599.52	2533.34
599.71	2555.86
599.91	2596.82
600.10	2555.86
600.29	2543.58
600.48	2533.34
600.68	2473.95
600.87	2527.19
601.06	2441.18
601.26	2412.51
601.45	2478.04
601.64	2461.66
601.83	2695.13
602.03	2441.18
602.22	2248.67
602.41	2652.12
602.60	2801.62
602.80	2543.58
602.99	2566.10
603.18	2400.22
603.37	2562.01
603.57	2490.33
603.76	2512.86
603.95	2590.68
604.14	2441.18
604.34	2377.69
604.53	2400.22
604.72	2531.29
604.91	2529.24
605.10	2492.38
605.30	2342.88
605.49	2748.37
605.68	2592.73
605.87	2564.06
606.07	2402.27
606.26	2553.82
606.45	2596.82
606.64	2459.61
606.84	2408.41
607.03	2445.27
607.22	2605.02
607.41	2551.77
607.60	2445.27
607.80	2731.99
607.99	2453.47
608.18	2551.77
608.37	2541.53
608.56	2439.13
608.76	2707.41
608.95	2701.27
609.14	2484.19
609.33	2668.50
609.52	2682.84
609.72	2600.92
609.91	2568.15
610.10	2541.53
610.29	2762.71
610.48	2600.92
610.68	2498.52
610.87	2521.05
611.06	2582.49
611.25	2463.71
611.44	2658.26
611.63	2465.75
611.83	2613.21
612.02	2418.65
612.21	2516.95
612.40	2334.68
612.59	2346.97
612.79	2420.70
612.98	2478.04
613.17	2727.89
613.36	2473.95
613.55	2711.51
613.74	2576.34
613.93	2723.80
614.13	2742.23
614.32	2676.70
614.51	2705.37
614.70	2574.30
614.89	2529.24
615.08	2580.44
615.28	2979.79
615.47	2445.27
615.66	2617.30
615.85	2594.78
616.04	2748.37
616.23	2488.28
616.42	2535.39
616.62	2519.00
616.81	2488.28
617.00	2506.71
617.19	2572.25
617.38	2379.74
617.57	2576.34
617.76	2576.34
617.95	2600.92
618.15	2473.95
618.34	2670.55
618.53	2349.02
618.72	2654.17
618.91	2549.72
619.10	2639.83
619.29	2539.48
619.48	2512.86
619.68	2316.25
619.87	2392.03
620.06	2334.68
620.25	2572.25
620.44	2422.75
620.63	2430.94
620.82	2502.62
621.01	2465.75
621.20	2521.05
621.39	2519.00
621.59	2533.34
621.78	2555.86
621.97	2514.91
622.16	2611.16
622.35	2553.82
622.54	2645.98
622.73	2607.06
622.92	2316.25
623.11	2605.02
623.30	2457.56
623.49	2523.10
623.68	2359.26
623.88	2684.89
624.07	2418.65
624.26	2351.07
624.45	2480.09
624.64	2447.32
624.83	2588.63
625.02	2428.89
625.21	2482.14
625.40	2516.95
625.59	2586.58
625.78	2482.14
625.97	2658.26
626.16	2770.90
626.35	2691.03
626.54	2564.06
626.74	2662.36
626.93	2578.39
627.12	2516.95
627.31	2635.74
627.50	2521.05
627.69	2611.16
627.88	2357.21
628.07	2461.66
628.26	2318.30
628.45	2406.36
628.64	2449.37
628.83	2439.13
629.02	2389.98
629.21	2551.77
629.40	2600.92
629.59	2410.46
629.78	2504.67
629.97	2555.86
630.16	2469.85
630.35	2439.13
630.54	2521.05
630.73	2441.18
630.92	2525.15
631.11	2398.17
631.30	2463.71
631.49	2547.67
631.68	2441.18
631.87	2506.71
632.06	2334.68
632.25	2828.24
632.44	2523.10
632.63	2564.06
632.82	2496.47
633.01	2488.28
633.20	2643.93
633.39	2506.71
633.58	2361.31
633.77	2578.39
633.96	2670.55
634.15	2695.13
634.34	2570.20
634.53	2572.25
634.72	2457.56
634.91	2351.07
635.10	2529.24
635.29	2586.58
635.48	2516.95
635.67	2338.78
635.86	2306.01
636.05	2668.50
636.24	2480.09
636.43	2473.95
636.62	2537.43
636.81	2142.18
637.00	2557.91
637.19	2443.23
637.38	2549.72
637.57	2451.42
637.76	2570.20
637.95	2605.02
638.14	2447.32
638.33	2545.63
638.52	2516.95
638.71	2410.46
638.89	2379.74
639.08	2820.05
639.27	2715.61
639.46	2744.28
639.65	3176.40
639.84	3186.64
640.03	3278.80
640.22	3110.86
640.41	3149.78
640.60	2848.72
640.79	2772.95
640.98	2623.45
641.17	2779.09
641.36	2674.65
641.55	2631.64
641.74	2453.47
641.92	2502.62
642.11	2381.79
642.30	2490.33
642.49	2406.36
642.68	2435.03
642.87	2543.58
643.06	2562.01
643.25	2461.66
643.44	2314.20
643.63	2424.80
643.82	2600.92
644.00	2310.11
644.19	2490.33
644.38	2342.88
644.57	2521.05
644.76	2516.95
644.95	2424.80
645.14	2580.44
645.33	2541.53
645.52	2471.90
645.71	2359.26
645.89	2412.51
646.08	2451.42
646.27	2445.27
646.46	2684.89
646.65	2357.21
646.84	2492.38
647.03	2355.16
647.22	2549.72
647.40	2547.67
647.59	2453.47
647.78	2312.16
647.97	2322.40
648.16	2379.74
648.35	2559.96
648.54	2637.78
648.73	2463.71
648.91	2514.91
649.10	2459.61
649.29	2414.56
649.48	2416.60
649.67	2490.33
649.86	2543.58
650.05	2596.82
650.23	2772.95
650.42	2572.25
650.61	2777.05
650.80	2672.60
650.99	2736.09
651.18	2682.84
651.36	2662.36
651.55	2502.62
651.74	2619.35
651.93	2570.20
652.12	2494.43
652.31	2486.23
652.49	2478.04
652.68	2539.48
652.87	2658.26
653.06	2539.48
653.25	2785.24
653.44	2480.09
653.62	2764.76
653.81	2478.04
654.00	2473.95
654.19	2613.21
654.38	2834.39
654.56	2510.81
654.75	2365.40
654.94	2605.02
655.13	2533.34
655.32	2410.46
655.51	2506.71
655.69	2383.84
655.88	2510.81
656.07	2404.32
656.26	2527.19
656.45	2285.53
656.63	2482.14
656.82	2514.91
657.01	2535.39
657.20	2379.74
657.38	2693.08
657.57	2398.17
657.76	2293.72
657.95	2594.78
658.14	2342.88
658.32	2490.33
658.51	2381.79
658.70	2422.75
658.89	2559.96
659.08	2504.67
659.26	2691.03
659.45	2375.64
659.64	2572.25
659.83	2502.62
660.01	2901.97
660.20	2482.14
660.39	2629.59
660.58	2277.34
660.76	2559.96
660.95	2310.11
661.14	2545.63
661.33	2303.96
661.51	2322.40
661.70	2420.70
661.89	2537.43
662.08	2475.99
662.26	2297.82
662.45	2437.08
662.64	2738.13
662.83	2602.97
663.01	2414.56
663.20	2504.67
663.39	2725.85
663.58	2521.05
663.76	2398.17
663.95	2500.57
664.14	2351.07
664.32	2480.09
664.51	2383.84
664.70	2293.72
664.89	2555.86
665.07	2316.25
665.26	2551.77
665.45	2281.44
665.64	2566.10
665.82	2398.17
666.01	2478.04
666.20	2392.03
666.38	2652.12
666.57	2605.02
666.76	3919.81
666.95	9586.54
667.13	17782.51
667.32	22628.01
667.51	26082.93
667.69	27473.50
667.88	24616.58
668.07	17526.52
668.25	14456.61
668.44	12037.96
668.63	10295.14
668.81	8978.30
669.00	7819.14
669.19	6926.23
669.38	6043.56
669.56	5273.52
669.75	4495.29
669.94	3733.45
670.12	3274.70
670.31	2910.16
670.50	2779.09
670.68	2725.85
670.87	2670.55
671.06	2547.67
671.24	2596.82
671.43	2834.39
671.62	2598.87
671.80	2523.10
671.99	2463.71
672.18	2486.23
672.36	2590.68
672.55	2471.90
672.74	2519.00
672.92	2463.71
673.11	2541.53
673.29	2357.21
673.48	2521.05
673.67	2449.37
673.85	2576.34
674.04	2441.18
674.23	2551.77
674.41	2754.52
674.60	2281.44
674.79	2310.11
674.97	2406.36
675.16	2531.29
675.34	2549.72
675.53	2414.56
675.72	2531.29
675.90	2695.13
676.09	2465.75
676.28	2416.60
676.46	2351.07
676.65	2562.01
676.83	2334.68
677.02	2494.43
677.21	2416.60
677.39	2514.91
677.58	2516.95
677.77	2389.98
677.95	2344.92
678.14	2443.23
678.32	2514.91
678.51	2363.36
678.70	2709.46
678.88	2459.61
679.07	2523.10
679.25	2482.14
679.44	2488.28
679.63	2263.01
679.81	2441.18
680.00	2609.11
680.18	2566.10
680.37	2662.36
680.55	2543.58
680.74	2385.88
680.93	2263.01
681.11	2527.19
681.30	2410.46
681.48	2482.14
681.67	2412.51
681.85	2553.82
682.04	2445.27
682.23	2525.15
682.41	2494.43
682.60	2381.79
682.78	2398.17
682.97	2400.22
683.15	2488.28
683.34	2473.95
683.53	2695.13
683.71	2338.78
683.90	2602.97
684.08	2734.04
684.27	2416.60
684.45	2586.58
684.64	2584.54
684.82	2484.19
685.01	2500.57
685.19	2572.25
685.38	2629.59
685.57	2461.66
685.75	2369.50
685.94	2375.64
686.12	2359.26
686.31	2494.43
686.49	2740.18
686.68	2252.77
686.86	2488.28
687.05	2426.84
687.23	2676.70
687.42	2441.18
687.60	2365.40
687.79	2568.15
687.97	2629.59
688.16	2496.47
688.34	2572.25
688.53	2328.54
688.71	2545.63
688.90	2656.22
689.08	2424.80
689.27	2310.11
689.45	2562.01
689.64	2588.63
689.82	2512.86
690.01	2592.73
690.19	2529.24
690.38	2465.75
690.56	2607.06
690.75	2410.46
690.93	2371.55
691.12	2373.60
691.30	2449.37
691.49	2469.85
691.67	2400.22
691.86	2670.55
692.04	2490.33
692.23	2471.90
692.41	2508.76
692.60	2754.52
692.78	2662.36
692.97	2529.24
693.15	2600.92
693.34	2711.51
693.52	2623.45
693.71	2494.43
693.89	2500.57
694.08	2342.88
694.26	2574.30
694.44	2529.24
694.63	2535.39
694.81	2330.59
695.00	2385.88
695.18	2672.60
695.37	2793.43
695.55	2482.14
695.74	2346.97
695.92	2412.51
696.10	2650.07
696.29	2310.11
696.47	2443.23
696.66	2377.69
696.84	2392.03
697.03	2441.18
697.21	2725.85
697.40	3706.82
697.58	2596.82
697.76	2523.10
697.95	2355.16
698.13	2392.03
698.32	2371.55
698.50	2504.67
698.68	2467.80
698.87	2539.48
699.05	2637.78
699.24	2531.29
699.42	2389.98
699.61	2449.37
699.79	2498.52
699.97	2496.47
700.16	2351.07
700.34	2287.58
700.53	2519.00
700.71	2580.44
700.89	2584.54
701.08	2414.56
701.26	2445.27
701.45	2990.03
701.63	2342.88
701.81	2404.32
702.00	2443.23
702.18	2496.47
702.37	2490.33
702.55	2834.39
702.73	2645.98
702.92	2549.72
703.10	2844.63
703.28	2748.37
703.47	2482.14
703.65	2715.61
703.84	2645.98
704.02	2486.23
704.20	2701.27
704.39	2465.75
704.57	2457.56
704.75	2734.04
704.94	2519.00
705.12	2605.02
705.30	2938.84
705.49	5535.66
705.67	12672.83
705.86	20479.69
706.04	24157.84
706.22	27166.31
706.41	27442.78
706.59	22480.55
706.77	16097.03
706.96	13901.61
707.14	12005.19
707.32	10504.03
707.51	9179.00
707.69	7665.55
707.87	6037.41
708.06	4865.97
708.24	4110.27
708.42	3375.05
708.61	3266.51
708.79	2654.17
708.97	2633.69
709.16	2645.98
709.34	2629.59
709.52	2482.14
709.71	2496.47
709.89	2523.10
710.07	2346.97
710.26	2514.91
710.44	2482.14
710.62	2643.93
710.80	2463.71
710.99	2547.67
711.17	2537.43
711.35	2432.99
711.54	2414.56
711.72	2645.98
711.90	2473.95
712.09	2586.58
712.27	2406.36
712.45	2514.91
712.63	2396.12
712.82	2455.51
713.00	2424.80
713.18	2510.81
713.37	2570.20
713.55	2592.73
713.73	2512.86
713.91	2461.66
714.10	2430.94
714.28	2455.51
714.46	2486.23
714.65	2588.63
714.83	2580.44
715.01	2418.65
715.19	2553.82
715.38	2383.84
715.56	2525.15
715.74	2293.72
715.92	2473.95
716.11	2662.36
716.29	2277.34
716.47	2482.14
716.65	2412.51
716.84	2269.15
717.02	2598.87
717.20	2349.02
717.38	2400.22
717.57	2592.73
717.75	2428.89
717.93	2529.24
718.11	2498.52
718.30	2334.68
718.48	2447.32
718.66	2551.77
718.84	2613.21
719.03	2416.60
719.21	2269.15
719.39	2736.09
719.57	2562.01
719.75	2555.86
719.94	2367.45
720.12	2338.78
720.30	2500.57
720.48	2576.34
720.67	2432.99
720.85	2379.74
721.03	2432.99
721.21	2293.72
721.39	2582.49
721.58	2547.67
721.76	2576.34
721.94	2537.43
722.12	2525.15
722.30	2684.89
722.49	2410.46
722.67	2459.61
722.85	2494.43
723.03	2359.26
723.21	2410.46
723.40	2506.71
723.58	2609.11
723.76	2547.67
723.94	2666.46
724.12	2535.39
724.30	2629.59
724.49	2676.70
724.67	2351.07
724.85	2564.06
725.03	2359.26
725.21	2566.10
725.40	2717.65
725.58	2473.95
725.76	2582.49
725.94	2555.86
726.12	2371.55
726.30	2465.75
726.49	2437.08
726.67	2445.27
726.85	2543.58
727.03	3012.56
727.21	4286.40
727.39	5842.85
727.57	6610.84
727.76	7235.47
727.94	7618.44
728.12	6936.47
728.30	5578.67
728.48	4960.18
728.66	4577.21
728.84	4151.23
729.03	3553.23
729.21	3248.08
729.39	2883.54
729.57	2686.94
729.75	2613.21
729.93	2684.89
730.11	2502.62
730.30	2510.81
730.48	2496.47
730.66	2580.44
730.84	2537.43
731.02	2555.86
731.20	2494.43
731.38	2547.67
731.56	2340.83
731.74	2314.20
731.93	2439.13
732.11	2445.27
732.29	2510.81
732.47	2543.58
732.65	2580.44
732.83	2625.50
733.01	2541.53
733.19	2445.27
733.37	2482.14
733.56	2455.51
733.74	2359.26
733.92	2658.26
734.10	2400.22
734.28	2457.56
734.46	2236.38
734.64	2449.37
734.82	2447.32
735.00	2361.31
735.18	2412.51
735.36	2486.23
735.54	2508.76
735.73	2451.42
735.91	2555.86
736.09	2498.52
736.27	2459.61
736.45	2441.18
736.63	2228.19
736.81	2447.32
736.99	2490.33
737.17	2596.82
737.35	2465.75
737.53	2582.49
737.71	2516.95
737.89	2594.78
738.07	2392.03
738.25	2408.41
738.43	2281.44
738.61	2404.32
738.80	2267.10
738.98	2355.16
739.16	2506.71
739.34	2416.60
739.52	2633.69
739.70	2502.62
739.88	2566.10
740.06	2621.40
740.24	2220.00
740.42	2625.50
740.60	2260.96
740.78	2363.36
740.96	2297.82
741.14	2422.75
741.32	2416.60
741.50	2316.25
741.68	2623.45
741.86	2635.74
742.04	2281.44
742.22	2402.27
742.40	2482.14
742.58	2469.85
742.76	2420.70
742.94	2562.01
743.12	2310.11
743.30	2506.71
743.48	2564.06
743.66	2318.30
743.84	2531.29
744.02	2445.27
744.20	2480.09
744.38	2398.17
744.56	2410.46
744.74	2764.76
744.92	2498.52
745.10	2564.06
745.28	2514.91
745.46	2650.07
745.64	2353.12
745.82	2572.25
746.00	2428.89
746.18	2521.05
746.36	2383.84
746.54	2432.99
746.72	2455.51
746.90	2371.55
747.08	2713.56
747.26	2473.95
747.44	2488.28
747.62	2609.11
747.80	2484.19
747.98	2539.48
748.15	2441.18
748.33	2641.88
748.51	2502.62
748.69	2566.10
748.87	2318.30
749.05	2471.90
749.23	2525.15
749.41	2457.56
749.59	2445.27
749.77	2609.11
749.95	2467.80
750.13	2457.56
750.31	2490.33
750.49	2551.77
750.67	2617.30
750.85	2629.59
751.03	2486.23
751.20	2764.76
751.38	2478.04
751.56	2430.94
751.74	2484.19
751.92	2510.81
752.10	2402.27
752.28	2580.44
752.46	2373.60
752.64	2541.53
752.82	2500.57
753.00	2514.91
753.18	2373.60
753.35	2531.29
753.53	2541.53
753.71	2424.80
753.89	2527.19
754.07	2496.47
754.25	2678.74
754.43	2473.95
754.61	2291.68
754.79	2529.24
754.97	2367.45
755.14	2633.69
755.32	2385.88
755.50	2519.00
755.68	2514.91
755.86	2340.83
756.04	2439.13
756.22	2334.68
756.40	2545.63
756.57	2658.26
756.75	2357.21
756.93	2598.87
757.11	2568.15
757.29	2383.84
757.47	2334.68
757.65	2342.88
757.82	2215.90
758.00	2371.55
758.18	2381.79
758.36	2412.51
758.54	2721.75
758.72	2322.40
758.90	2564.06
759.07	2553.82
759.25	2355.16
759.43	2545.63
759.61	2322.40
759.79	3542.99
759.97	2523.10
760.15	2449.37
760.32	2400.22
760.50	2584.54
760.68	2717.65
760.86	2250.72
761.04	2582.49
761.22	2588.63
761.39	2537.43
761.57	2496.47
761.75	2408.41
761.93	2551.77
762.11	2512.86
762.28	2471.90
762.46	2381.79
762.64	2572.25
762.82	2289.63
763.00	2445.27
763.18	2543.58
763.35	2379.74
763.53	2559.96
763.71	2478.04
763.89	2475.99
764.07	2439.13
764.24	2422.75
764.42	2572.25
764.60	2480.09
764.78	2598.87
764.96	2596.82
765.13	2541.53
765.31	2363.36
765.49	2582.49
765.67	2369.50
765.84	2365.40
766.02	2359.26
766.20	2310.11
766.38	2496.47
766.56	2473.95
766.73	2555.86
766.91	2432.99
767.09	2455.51
767.27	2473.95
767.44	2297.82
767.62	2594.78
767.80	2459.61
767.98	2392.03
768.15	2449.37
768.33	2506.71
768.51	2658.26
768.69	2484.19
768.87	2469.85
769.04	2519.00
769.22	2781.14
769.40	2551.77
769.58	2664.41
769.75	2553.82
769.93	2588.63
770.11	2506.71
770.28	2396.12
770.46	2609.11
770.64	2447.32
770.82	2506.71
770.99	2416.60
771.17	2529.24
771.35	2383.84
771.53	2457.56
771.70	2422.75
771.88	2523.10
772.06	2435.03
772.23	2424.80
772.41	2525.15
772.59	2496.47
772.77	2295.77
772.94	2383.84
773.12	2525.15
773.30	2398.17
773.47	2494.43
773.65	2365.40
773.83	2576.34
774.01	2545.63
774.18	2252.77
774.36	2471.90
774.54	2334.68
774.71	2457.56
774.89	2318.30
775.07	2344.92
775.24	2396.12
775.42	2475.99
775.60	2627.54
775.78	2377.69
775.95	2334.68
776.13	2250.72
776.31	2277.34
776.48	2432.99
776.66	2594.78
776.84	2367.45
777.01	2400.22
777.19	2308.06
777.37	2389.98
777.54	2650.07
777.72	2756.57
777.90	2504.67
778.07	2361.31
778.25	2805.72
778.43	2623.45
778.60	2406.36
778.78	2523.10
778.96	2613.21
779.13	2265.05
779.31	2502.62
779.49	2422.75
779.66	2580.44
779.84	2465.75
780.01	2449.37
780.19	2367.45
780.37	2711.51
780.54	2576.34
780.72	2357.21
780.90	2383.84
781.07	2482.14
781.25	2498.52
781.43	2586.58
781.60	2426.84
781.78	2629.59
781.95	2457.56
782.13	2414.56
782.31	2381.79
782.48	2367.45
782.66	2502.62
782.83	2615.26
783.01	2514.91
783.19	2594.78
783.36	2412.51
783.54	2297.82
783.72	2578.39
783.89	2492.38
784.07	2529.24
784.24	2504.67
784.42	2662.36
784.60	2496.47
784.77	2539.48
784.95	2293.72
785.12	2392.03
785.30	2521.05
785.47	2392.03
785.65	2375.64
785.83	2449.37
786.00	2424.80
786.18	2494.43
786.35	2373.60
786.53	2346.97
786.71	2627.54
786.88	2523.10
787.06	2488.28
787.23	2402.27
787.41	2324.44
787.58	2451.42
787.76	2367.45
787.94	2449.37
788.11	2453.47
788.29	2402.27
788.46	2365.40
788.64	2297.82
788.81	2461.66
788.99	2310.11
789.16	2326.49
789.34	2471.90
789.52	2422.75
789.69	2392.03
789.87	2293.72
790.04	2416.60
790.22	2473.95
790.39	2736.09
790.57	2338.78
790.74	2365.40
790.92	2498.52
791.09	2224.09
791.27	2428.89
791.44	2570.20
791.62	2473.95
791.79	2609.11
791.97	2490.33
792.15	2691.03
792.32	2545.63
792.50	2457.56
792.67	2590.68
792.85	2586.58
793.02	2508.76
793.20	2402.27
793.37	2355.16
793.55	2404.32
793.72	2248.67
793.90	2539.48
794.07	2365.40
794.25	2387.93
794.42	2506.71
794.60	2490.33
794.77	2492.38
794.95	2529.24
795.12	2533.34
795.30	2514.91
795.47	2269.15
795.65	2766.81
795.82	2555.86
796.00	2381.79
796.17	2424.80
796.34	2334.68
796.52	2496.47
796.69	2600.92
796.87	2529.24
797.04	2469.85
797.22	2600.92
797.39	2533.34
797.57	2555.86
797.74	2463.71
797.92	2488.28
798.09	2322.40
798.27	2555.86
798.44	2402.27
798.62	2408.41
798.79	2514.91
798.96	2570.20
799.14	2480.09
799.31	2846.68
799.49	2521.05
799.66	2375.64
799.84	2480.09
800.01	2357.21
800.19	2486.23
800.36	2316.25
800.53	2539.48
800.71	2533.34
800.88	2643.93
801.06	2375.64
801.23	2387.93
801.41	2482.14
801.58	2377.69
801.75	2412.51
801.93	2549.72
802.10	2514.91
802.28	2471.90
802.45	2504.67
802.63	2555.86
802.80	2682.84
802.97	2445.27
803.15	2469.85
803.32	2408.41
803.50	2410.46
803.67	2367.45
803.84	2351.07
804.02	2529.24
804.19	2478.04
804.37	2256.86
804.54	2365.40
804.71	2394.08
804.89	2480.09
805.06	2363.36
805.24	2351.07
805.41	2330.59
805.58	2330.59
805.76	2727.89
805.93	2381.79
806.10	2633.69
806.28	2572.25
806.45	2484.19
806.63	2478.04
806.80	2482.14
806.97	2637.78
807.15	2512.86
807.32	2572.25
807.49	2547.67
807.67	2400.22
807.84	2564.06
808.01	2244.57
808.19	2605.02
808.36	2731.99
808.54	2379.74
808.71	2295.77
808.88	2473.95
809.06	2660.31
809.23	2617.30
809.40	2424.80
809.58	2484.19
809.75	2482.14
809.92	2310.11
810.10	2695.13
810.27	2426.84
810.44	2584.54
810.62	2525.15
810.79	2523.10
810.96	2437.08
811.14	2426.84
811.31	2572.25
811.48	2605.02
811.66	2424.80
811.83	2609.11
812.00	2570.20
812.18	2516.95
812.35	2701.27
812.52	2449.37
812.69	2383.84
812.87	2396.12
813.04	2404.32
813.21	2416.60
813.39	2318.30
813.56	2412.51
813.73	2514.91
813.91	2324.44
814.08	2519.00
814.25	2441.18
814.42	2271.20
814.60	2424.80
814.77	2531.29
814.94	2502.62
815.12	2447.32
815.29	2695.13
815.46	2373.60
815.63	2496.47
815.81	2453.47
815.98	2480.09
816.15	2467.80
816.33	2457.56
816.50	2441.18
816.67	2432.99
816.84	2422.75
817.02	2355.16
817.19	2504.67
817.36	2584.54
817.53	2506.71
817.71	2465.75
817.88	2453.47
818.05	2424.80
818.22	2461.66
818.40	2662.36
818.57	2508.76
818.74	2502.62
818.91	2496.47
819.09	2512.86
819.26	2600.92
819.43	2404.32
819.60	2379.74
819.78	2457.56
819.95	2613.21
820.12	2430.94
820.29	2611.16
820.47	2564.06
820.64	2457.56
820.81	2291.68
820.98	2340.83
821.15	2375.64
821.33	2486.23
821.50	2291.68
821.67	2527.19
821.84	2424.80
822.02	2500.57
822.19	2588.63
822.36	2432.99
822.53	2373.60
822.70	2277.34
822.88	2469.85
823.05	2695.13
823.22	2482.14
823.39	2437.08
823.56	2482.14
823.74	2654.17
823.91	2326.49
824.08	2273.25
824.25	2357.21
824.42	2633.69
824.60	2236.38
824.77	2455.51
824.94	2392.03
825.11	2609.11
825.28	2285.53
825.45	2531.29
825.63	2547.67
825.80	2445.27
825.97	2430.94
826.14	2453.47
826.31	2258.91
826.48	2559.96
826.66	2392.03
826.83	2375.64
827.00	2496.47
827.17	2367.45
827.34	2488.28
827.51	2387.93
827.69	2465.75
827.86	2256.86
828.03	2467.80
828.20	2494.43
828.37	2430.94
828.54	2512.86
828.71	2344.92
828.89	2521.05
829.06	2564.06
829.23	2613.21
829.40	2318.30
829.57	2428.89
829.74	2473.95
829.91	2432.99
830.09	2416.60
830.26	2498.52
830.43	2643.93
830.60	2445.27
830.77	2500.57
830.94	2596.82
831.11	2553.82
831.28	2430.94
831.46	2482.14
831.63	2447.32
831.80	2580.44
831.97	2342.88
832.14	2496.47
832.31	2496.47
832.48	2488.28
832.65	2676.70
832.82	2508.76
832.99	2529.24
833.17	2330.59
833.34	2736.09
833.51	2461.66
833.68	2183.13
833.85	2598.87
834.02	2330.59
834.19	2410.46
834.36	2293.72
834.53	2539.48
834.70	2564.06
834.87	2496.47
835.04	2340.83
835.22	2381.79
835.39	2418.65
835.56	2269.15
835.73	2392.03
835.90	2615.26
836.07	2406.36
836.24	2441.18
836.41	2332.64
836.58	2412.51
836.75	2586.58
836.92	2426.84
837.09	2412.51
837.26	2596.82
837.43	2508.76
837.60	2498.52
837.77	2367.45
837.94	2580.44
838.12	2633.69
838.29	2404.32
838.46	2267.10
838.63	2336.73
838.80	2682.84
838.97	2473.95
839.14	2381.79
839.31	2512.86
839.48	2648.02
839.65	2389.98
839.82	2494.43
839.99	2424.80
840.16	2539.48
840.33	2260.96
840.50	2373.60
840.67	2398.17
840.84	2217.95
841.01	2424.80
841.18	2334.68
841.35	2406.36
841.52	2602.97
841.69	2691.03
841.86	2420.70
842.03	2519.00
842.20	2596.82
842.37	2445.27
842.54	2396.12
842.71	2428.89
842.88	2295.77
843.05	2424.80
843.22	2392.03
843.39	2635.74
843.56	2435.03
843.73	2400.22
843.90	2443.23
844.07	2498.52
844.24	2533.34
844.41	2428.89
844.58	2367.45
844.75	2488.28
844.92	2498.52
845.09	2457.56
845.26	2375.64
845.43	2564.06
845.60	2416.60
845.77	2488.28
845.94	2447.32
846.10	2545.63
846.27	2299.87
846.44	2326.49
846.61	2293.72
846.78	2566.10
846.95	2555.86
847.12	2381.79
847.29	2387.93
847.46	2396.12
847.63	2600.92
847.80	2369.50
847.97	2295.77
848.14	2783.19
848.31	2412.51
848.48	2267.10
848.65	2430.94
848.82	2379.74
848.98	2787.29
849.15	2432.99
849.32	2465.75
849.49	2635.74
849.66	2383.84
849.83	2445.27
850.00	2258.91
850.17	2543.58
850.34	2441.18
850.51	2293.72
850.68	2412.51
850.85	2863.06
851.01	2465.75
851.18	2365.40
851.35	2375.64
851.52	2580.44
851.69	2691.03
851.86	2310.11
852.03	2275.29
852.20	2549.72
852.37	2435.03
852.53	2338.78
852.70	2404.32
852.87	2453.47
853.04	2602.97
853.21	2375.64
853.38	2562.01
853.55	2621.40
853.72	2623.45
853.89	2324.44
854.05	2361.31
854.22	2422.75
854.39	2441.18
854.56	2389.98
854.73	2523.10
854.90	2334.68
855.07	2467.80
855.23	2369.50
855.40	2316.25
855.57	2449.37
855.74	2271.20
855.91	2559.96
856.08	2260.96
856.25	2308.06
856.41	2478.04
856.58	2457.56
856.75	2351.07
856.92	2289.63
857.09	2580.44
857.26	2285.53
857.42	2437.08
857.59	2635.74
857.76	2414.56
857.93	2398.17
858.10	2498.52
858.27	2314.20
858.43	2506.71
858.60	2324.44
858.77	2244.57
858.94	2412.51
859.11	2496.47
859.27	2394.08
859.44	2263.01
859.61	2711.51
859.78	2523.10
859.95	2365.40
860.12	2355.16
860.28	2781.14
860.45	2688.98
860.62	2346.97
860.79	2500.57
860.95	2529.24
861.12	2377.69
861.29	2281.44
861.46	2328.54
861.63	2367.45
861.79	2482.14
861.96	2254.81
862.13	2355.16
862.30	2594.78
862.47	2383.84
862.63	2318.30
862.80	2475.99
862.97	2592.73
863.14	2527.19
863.30	2392.03
863.47	2330.59
863.64	2736.09
863.81	2414.56
863.97	2351.07
864.14	2365.40
864.31	2416.60
864.48	2482.14
864.65	2404.32
864.81	2453.47
864.98	2555.86
865.15	2486.23
865.32	2406.36
865.48	2416.60
865.65	2717.65
865.82	2406.36
865.98	2418.65
866.15	2437.08
866.32	2510.81
866.49	2430.94
866.65	2488.28
866.82	2396.12
866.99	2430.94
867.16	2473.95
867.32	2404.32
867.49	2367.45
867.66	2408.41
867.83	2392.03
867.99	2381.79
868.16	2342.88
868.33	2338.78
868.49	2525.15
868.66	2389.98
868.83	2414.56
868.99	2467.80
869.16	2478.04
869.33	2535.39
869.50	2502.62
869.66	2478.04
869.83	2510.81
870.00	2289.63
870.16	2482.14
870.33	2449.37
870.50	2543.58
870.66	2428.89
870.83	2490.33
871.00	2490.33
871.17	2519.00
871.33	2467.80
871.50	2392.03
871.67	2488.28
871.83	2402.27
872.00	2482.14
872.17	2365.40
872.33	2764.76
872.50	2623.45
872.67	2357.21
872.83	2308.06
873.00	2437.08
873.17	2510.81
873.33	2398.17
873.50	2441.18
873.67	2422.75
873.83	2318.30
874.00	2408.41
874.16	2482.14
874.33	2512.86
874.50	2334.68
874.66	2361.31
874.83	2359.26
875.00	2662.36
875.16	2592.73
875.33	2496.47
875.50	2203.61
875.66	2465.75
875.83	2473.95
875.99	2439.13
876.16	2385.88
876.33	2316.25
876.49	2381.79
876.66	2435.03
876.83	2367.45
876.99	2293.72
877.16	2523.10
877.32	2430.94
877.49	2385.88
877.66	2557.91
877.82	2588.63
877.99	2508.76
878.15	2531.29
878.32	2459.61
878.49	2510.81
878.65	2312.16
878.82	2619.35
878.98	2428.89
879.15	2662.36
879.32	2535.39
879.48	2461.66
879.65	2514.91
879.81	2432.99
879.98	2453.47
880.15	2432.99
880.31	2543.58
880.48	2447.32
880.64	2553.82
880.81	2449.37
880.97	2713.56
881.14	2635.74
881.31	2332.64
881.47	2605.02
881.64	2486.23
881.80	2273.25
881.97	2449.37
882.13	2437.08
882.30	2381.79
882.47	2402.27
882.63	2306.01
882.80	2389.98
882.96	2357.21
883.13	2711.51
883.29	2342.88
883.46	2369.50
883.62	2691.03
883.79	2465.75
883.95	2453.47
884.12	2303.96
884.29	2605.02
884.45	2508.76
884.62	2373.60
884.78	2392.03
884.95	2564.06
885.11	2369.50
885.28	2469.85
885.44	2457.56
885.61	2566.10
885.77	2691.03
885.94	2439.13
886.10	2383.84
886.27	2545.63
886.43	2643.93
886.60	2623.45
886.76	2387.93
886.93	2422.75
887.09	2504.67
887.26	2232.29
887.42	2471.90
887.59	2637.78
887.75	2680.79
887.92	2523.10
888.08	2531.29
888.25	2717.65
888.41	2551.77
888.58	2404.32
888.74	2252.77
888.91	2416.60
>>>>>End Processed Spectral Data<<<<<
