SpectraSuite Data File
++++++++++++++++++++++++++++++++++++
Date: Thu May 05 14:41:47 CEST 2016
User: root
Dark Spectrum Present: No
Reference Spectrum Present: No
Number of Sampled Component Spectra: 1
Spectrometers: USB4C02835
Integration Time (usec): 100000 (USB4C02835)
Spectra Averaged: 1 (USB4C02835)
Boxcar Smoothing: 0 (USB4C02835)
Correct for Electrical Dark: No (USB4C02835)
Strobe/Lamp Enabled: No (USB4C02835)
Correct for Detector Non-linearity: No (USB4C02835)
Correct for Stray Light: No (USB4C02835)
Number of Pixels in Processed Spectrum: 3648
>>>>>Begin Processed Spectral Data<<<<<
177.47	1880.04
177.69	1880.04
177.91	1880.04
178.13	1890.28
178.36	1894.37
178.58	2367.45
178.80	2445.27
179.02	2306.01
179.24	2351.07
179.46	2258.91
179.68	2312.16
179.90	2430.94
180.13	2475.99
180.35	2228.19
180.57	2379.74
180.79	2547.67
181.01	2469.85
181.23	2394.08
181.45	2437.08
181.67	2559.96
181.90	2576.34
182.12	2371.55
182.34	2291.68
182.56	2525.15
182.78	2535.39
183.00	2355.16
183.22	2432.99
183.44	2308.06
183.66	2834.39
183.89	2369.50
184.11	2373.60
184.33	2519.00
184.55	2596.82
184.77	2299.87
184.99	2375.64
185.21	2437.08
185.43	2813.91
185.65	2279.39
185.87	2316.25
186.10	2715.61
186.32	2764.76
186.54	2371.55
186.76	2428.89
186.98	2584.54
187.20	2514.91
187.42	2398.17
187.64	2406.36
187.86	2447.32
188.08	2723.80
188.30	2281.44
188.52	2351.07
188.75	2586.58
188.97	2637.78
189.19	2318.30
189.41	2379.74
189.63	2543.58
189.85	2445.27
190.07	2260.96
190.29	2250.72
190.51	2562.01
190.73	2314.20
190.95	2457.56
191.17	2338.78
191.39	2240.48
191.61	2418.65
191.84	2396.12
192.06	2457.56
192.28	2308.06
192.50	2858.96
192.72	2473.95
192.94	2344.92
193.16	2678.74
193.38	2549.72
193.60	2252.77
193.82	2367.45
194.04	2582.49
194.26	2502.62
194.48	2449.37
194.70	2322.40
194.92	2457.56
195.14	2539.48
195.36	2340.83
195.58	2463.71
195.80	2478.04
196.02	2435.03
196.24	2254.81
196.46	2410.46
196.69	2430.94
196.91	2752.47
197.13	2269.15
197.35	2293.72
197.57	2654.17
197.79	2508.76
198.01	2367.45
198.23	2453.47
198.45	2527.19
198.67	2353.12
198.89	2234.33
199.11	2410.46
199.33	2326.49
199.55	2252.77
199.77	2318.30
199.99	2394.08
200.21	2412.51
200.43	2514.91
200.65	2246.62
200.87	2269.15
201.09	2539.48
201.31	2435.03
201.53	2387.93
201.75	2484.19
201.97	2545.63
202.19	2475.99
202.41	2357.21
202.63	2500.57
202.85	2588.63
203.07	2555.86
203.29	2349.02
203.51	2277.34
203.73	2367.45
203.95	2801.62
204.17	2371.55
204.39	2465.75
204.61	2469.85
204.83	2381.79
205.05	2404.32
205.27	2400.22
205.49	2752.47
205.71	2473.95
205.93	2244.57
206.15	2342.88
206.37	2545.63
206.59	2488.28
206.81	2150.37
207.03	2228.19
207.25	2342.88
207.47	2576.34
207.69	2365.40
207.91	2496.47
208.13	2684.89
208.34	2437.08
208.56	2258.91
208.78	2430.94
209.00	2406.36
209.22	2365.40
209.44	2326.49
209.66	2287.58
209.88	2463.71
210.10	2416.60
210.32	2277.34
210.54	2545.63
210.76	2461.66
210.98	2525.15
211.20	2203.61
211.42	2447.32
211.64	2645.98
211.86	2512.86
212.08	2334.68
212.30	2402.27
212.52	2432.99
212.74	2559.96
212.96	2424.80
213.17	2437.08
213.39	2545.63
213.61	2637.78
213.83	2244.57
214.05	2387.93
214.27	2668.50
214.49	2346.97
214.71	2351.07
214.93	2449.37
215.15	2482.14
215.37	2605.02
215.59	2234.33
215.81	2422.75
216.03	2539.48
216.24	2461.66
216.46	2432.99
216.68	2365.40
216.90	2609.11
217.12	2568.15
217.34	2297.82
217.56	2475.99
217.78	2650.07
218.00	2551.77
218.22	2506.71
218.44	2387.93
218.66	2461.66
218.87	2715.61
219.09	2396.12
219.31	2373.60
219.53	2465.75
219.75	2459.61
219.97	2447.32
220.19	2418.65
220.41	2457.56
220.63	2697.17
220.85	2326.49
221.06	2424.80
221.28	2600.92
221.50	2592.73
221.72	2369.50
221.94	2250.72
222.16	2549.72
222.38	2525.15
222.60	2349.02
222.82	2387.93
223.03	2562.01
223.25	2367.45
223.47	2318.30
223.69	2498.52
223.91	2582.49
224.13	2412.51
224.35	2256.86
224.57	2553.82
224.78	2564.06
225.00	2398.17
225.22	2422.75
225.44	2324.44
225.66	2600.92
225.88	2373.60
226.10	2406.36
226.32	2389.98
226.53	2731.99
226.75	2387.93
226.97	2428.89
227.19	2369.50
227.41	2482.14
227.63	2439.13
227.85	2148.32
228.06	2398.17
228.28	2453.47
228.50	2619.35
228.72	2220.00
228.94	2351.07
229.16	2277.34
229.37	2349.02
229.59	2324.44
229.81	2482.14
230.03	2441.18
230.25	2357.21
230.47	2248.67
230.69	2220.00
230.90	2584.54
231.12	2367.45
231.34	2363.36
231.56	2428.89
231.78	2238.43
232.00	2498.52
232.21	2375.64
232.43	2383.84
232.65	2301.92
232.87	2580.44
233.09	2281.44
233.30	2344.92
233.52	2631.64
233.74	2408.41
233.96	2271.20
234.18	2471.90
234.40	2475.99
234.61	2734.04
234.83	2232.29
235.05	2283.49
235.27	2772.95
235.49	2617.30
235.70	2301.92
235.92	2500.57
236.14	2486.23
236.36	2764.76
236.58	2301.92
236.79	2465.75
237.01	2494.43
237.23	2469.85
237.45	2531.29
237.67	2353.12
237.88	2594.78
238.10	2731.99
238.32	2271.20
238.54	2349.02
238.76	2439.13
238.97	2383.84
239.19	2236.38
239.41	2330.59
239.63	2627.54
239.85	2449.37
240.06	2363.36
240.28	2402.27
240.50	2609.11
240.72	2441.18
240.93	2269.15
241.15	2504.67
241.37	2488.28
241.59	2627.54
241.81	2338.78
242.02	2379.74
242.24	2529.24
242.46	2519.00
242.68	2201.57
242.89	2377.69
243.11	2586.58
243.33	2484.19
243.55	2306.01
243.76	2424.80
243.98	2408.41
244.20	2562.01
244.42	2396.12
244.64	2400.22
244.85	2248.67
245.07	2369.50
245.29	2355.16
245.51	2396.12
245.72	2463.71
245.94	2637.78
246.16	2322.40
246.38	2435.03
246.59	2502.62
246.81	2340.83
247.03	2326.49
247.24	2191.33
247.46	2432.99
247.68	2537.43
247.90	2260.96
248.11	2287.58
248.33	2576.34
248.55	2502.62
248.77	2385.88
248.98	2416.60
249.20	2639.83
249.42	2547.67
249.64	2379.74
249.85	2355.16
250.07	2392.03
250.29	2625.50
250.50	2392.03
250.72	2269.15
250.94	2559.96
251.16	2752.47
251.37	2410.46
251.59	2459.61
251.81	2547.67
252.02	2609.11
252.24	2293.72
252.46	2523.10
252.68	2408.41
252.89	2473.95
253.11	2203.61
253.33	2457.56
253.54	2611.16
253.76	2357.21
253.98	2340.83
254.20	2283.49
254.41	2332.64
254.63	2424.80
254.85	2269.15
255.06	2412.51
255.28	2551.77
255.50	2463.71
255.71	2316.25
255.93	2263.01
256.15	2410.46
256.36	2488.28
256.58	2285.53
256.80	2416.60
257.02	2420.70
257.23	2490.33
257.45	2465.75
257.67	2375.64
257.88	2457.56
258.10	2555.86
258.32	2398.17
258.53	2363.36
258.75	2697.17
258.97	2471.90
259.18	2289.63
259.40	2293.72
259.62	2670.55
259.83	2629.59
260.05	2342.88
260.27	3012.56
260.48	2559.96
260.70	2424.80
260.92	2254.81
261.13	2387.93
261.35	2525.15
261.57	2537.43
261.78	2289.63
262.00	2316.25
262.22	2564.06
262.43	2441.18
262.65	2340.83
262.86	2404.32
263.08	2813.91
263.30	2496.47
263.51	2207.71
263.73	2359.26
263.95	2693.08
264.16	2396.12
264.38	2265.05
264.60	2439.13
264.81	2482.14
265.03	2686.94
265.25	2539.48
265.46	2361.31
265.68	2682.84
265.89	2650.07
266.11	2248.67
266.33	2299.87
266.54	2602.97
266.76	2588.63
266.98	2490.33
267.19	2432.99
267.41	2547.67
267.62	2400.22
267.84	2205.66
268.06	2465.75
268.27	2562.01
268.49	2576.34
268.70	2416.60
268.92	2326.49
269.14	2389.98
269.35	2379.74
269.57	2367.45
269.79	2457.56
270.00	2418.65
270.22	2660.31
270.43	2248.67
270.65	2232.29
270.87	2463.71
271.08	2582.49
271.30	2484.19
271.51	2396.12
271.73	2557.91
271.95	2699.22
272.16	2326.49
272.38	2406.36
272.59	2510.81
272.81	2625.50
273.02	2334.68
273.24	2389.98
273.46	2609.11
273.67	2375.64
273.89	2260.96
274.10	2260.96
274.32	2678.74
274.54	2539.48
274.75	2455.51
274.97	2392.03
275.18	2576.34
275.40	2559.96
275.61	2357.21
275.83	2432.99
276.05	2346.97
276.26	2539.48
276.48	2422.75
276.69	2424.80
276.91	2408.41
277.12	2715.61
277.34	2494.43
277.55	2500.57
277.77	2492.38
277.99	2439.13
278.20	2326.49
278.42	2328.54
278.63	2389.98
278.85	2367.45
279.06	2414.56
279.28	2490.33
279.49	2578.39
279.71	2506.71
279.93	2463.71
280.14	2412.51
280.36	2353.12
280.57	2588.63
280.79	2418.65
281.00	2342.88
281.22	2445.27
281.43	2562.01
281.65	2291.68
281.86	2400.22
282.08	2547.67
282.29	2654.17
282.51	2310.11
282.73	2355.16
282.94	2293.72
283.16	2539.48
283.37	2557.91
283.59	2441.18
283.80	2539.48
284.02	2441.18
284.23	2478.04
284.45	2445.27
284.66	2328.54
284.88	2392.03
285.09	2334.68
285.31	2512.86
285.52	2475.99
285.74	2318.30
285.95	2586.58
286.17	2387.93
286.38	2559.96
286.60	2346.97
286.81	2301.92
287.03	2361.31
287.24	2400.22
287.46	2543.58
287.67	2463.71
287.89	2609.11
288.10	2529.24
288.32	2516.95
288.53	2580.44
288.75	2510.81
288.96	2463.71
289.18	2394.08
289.39	2445.27
289.61	2521.05
289.82	2826.20
290.04	2729.94
290.25	2263.01
290.47	2422.75
290.68	2398.17
290.90	2592.73
291.11	2228.19
291.33	2480.09
291.54	2424.80
291.76	2504.67
291.97	2482.14
292.18	2494.43
292.40	2383.84
292.61	2375.64
292.83	2625.50
293.04	2463.71
293.26	2486.23
293.47	2398.17
293.69	2301.92
293.90	2406.36
294.12	2674.65
294.33	2506.71
294.55	2475.99
294.76	2584.54
294.97	2660.31
295.19	2754.52
295.40	2377.69
295.62	2473.95
295.83	2572.25
296.05	2426.84
296.26	2568.15
296.48	2342.88
296.69	2453.47
296.90	2555.86
297.12	2521.05
297.33	2482.14
297.55	2527.19
297.76	2582.49
297.98	2408.41
298.19	2500.57
298.41	2535.39
298.62	2379.74
298.83	2506.71
299.05	2537.43
299.26	2404.32
299.48	2394.08
299.69	2414.56
299.90	2404.32
300.12	2320.35
300.33	2602.97
300.55	2459.61
300.76	2514.91
300.98	2308.06
301.19	2572.25
301.40	2449.37
301.62	2414.56
301.83	2572.25
302.05	2486.23
302.26	2465.75
302.47	2449.37
302.69	2342.88
302.90	2564.06
303.12	2187.23
303.33	2478.04
303.54	2713.56
303.76	2437.08
303.97	2471.90
304.19	2652.12
304.40	2392.03
304.61	2461.66
304.83	2574.30
305.04	2469.85
305.26	2541.53
305.47	2445.27
305.68	2416.60
305.90	2301.92
306.11	2602.97
306.33	2494.43
306.54	2332.64
306.75	2318.30
306.97	2375.64
307.18	2291.68
307.39	2371.55
307.61	2480.09
307.82	2510.81
308.04	2539.48
308.25	2404.32
308.46	2453.47
308.68	2439.13
308.89	2498.52
309.10	2521.05
309.32	2447.32
309.53	2478.04
309.74	2586.58
309.96	2371.55
310.17	2473.95
310.39	2506.71
310.60	2570.20
310.81	2363.36
311.03	2308.06
311.24	2506.71
311.45	2510.81
311.67	2584.54
311.88	2445.27
312.09	2447.32
312.31	2486.23
312.52	2398.17
312.73	2357.21
312.95	2279.39
313.16	2332.64
313.37	2533.34
313.59	2586.58
313.80	2580.44
314.01	2674.65
314.23	2389.98
314.44	2357.21
314.65	2420.70
314.87	2361.31
315.08	2361.31
315.29	2404.32
315.51	2357.21
315.72	2381.79
315.93	2537.43
316.15	2498.52
316.36	2453.47
316.57	2519.00
316.79	2555.86
317.00	2389.98
317.21	2605.02
317.43	2385.88
317.64	2480.09
317.85	2379.74
318.07	2334.68
318.28	2514.91
318.49	2682.84
318.70	2711.51
318.92	2662.36
319.13	2684.89
319.34	2701.27
319.56	2500.57
319.77	2529.24
319.98	2621.40
320.20	2564.06
320.41	2543.58
320.62	2637.78
320.83	2365.40
321.05	2652.12
321.26	2480.09
321.47	2529.24
321.69	2658.26
321.90	2293.72
322.11	2342.88
322.32	2482.14
322.54	2680.79
322.75	2375.64
322.96	2854.87
323.18	2248.67
323.39	2215.90
323.60	2351.07
323.81	2535.39
324.03	2338.78
324.24	2426.84
324.45	2478.04
324.66	2430.94
324.88	2625.50
325.09	2645.98
325.30	2377.69
325.52	2392.03
325.73	2527.19
325.94	2275.29
326.15	2285.53
326.37	2308.06
326.58	2519.00
326.79	2625.50
327.00	2351.07
327.22	2418.65
327.43	2500.57
327.64	2303.96
327.85	2473.95
328.07	2473.95
328.28	2652.12
328.49	2437.08
328.70	2482.14
328.92	2510.81
329.13	2443.23
329.34	2578.39
329.55	2652.12
329.76	2553.82
329.98	2416.60
330.19	2635.74
330.40	2475.99
330.61	2488.28
330.83	2590.68
331.04	2416.60
331.25	2424.80
331.46	2465.75
331.68	2336.73
331.89	2504.67
332.10	2471.90
332.31	2318.30
332.52	2482.14
332.74	2613.21
332.95	2291.68
333.16	2396.12
333.37	2543.58
333.58	2402.27
333.80	2471.90
334.01	2252.77
334.22	2533.34
334.43	2314.20
334.64	2406.36
334.86	2310.11
335.07	2349.02
335.28	2621.40
335.49	2336.73
335.70	2451.42
335.92	2602.97
336.13	2813.91
336.34	2359.26
336.55	2486.23
336.76	2488.28
336.98	2308.06
337.19	2432.99
337.40	2621.40
337.61	2742.23
337.82	2521.05
338.04	2451.42
338.25	2222.05
338.46	2453.47
338.67	2396.12
338.88	2371.55
339.09	2326.49
339.31	2404.32
339.52	2336.73
339.73	2375.64
339.94	2361.31
340.15	2596.82
340.36	2385.88
340.58	2549.72
340.79	2353.12
341.00	2602.97
341.21	2398.17
341.42	2676.70
341.63	2453.47
341.85	2551.77
342.06	2424.80
342.27	2377.69
342.48	2504.67
342.69	2367.45
342.90	2473.95
343.12	2584.54
343.33	2482.14
343.54	2611.16
343.75	2703.32
343.96	2455.51
344.17	2381.79
344.38	2435.03
344.60	2375.64
344.81	2359.26
345.02	2379.74
345.23	2590.68
345.44	2854.87
345.65	2426.84
345.86	2459.61
346.07	2488.28
346.29	2400.22
346.50	2453.47
346.71	2482.14
346.92	2656.22
347.13	2713.56
347.34	2459.61
347.55	2295.77
347.76	2588.63
347.98	2336.73
348.19	2494.43
348.40	2586.58
348.61	2404.32
348.82	2736.09
349.03	2514.91
349.24	2400.22
349.45	2725.85
349.66	2267.10
349.88	2416.60
350.09	2387.93
350.30	2613.21
350.51	2594.78
350.72	2529.24
350.93	2473.95
351.14	2486.23
351.35	2539.48
351.56	2398.17
351.77	2430.94
351.99	2621.40
352.20	2650.07
352.41	2514.91
352.62	2265.05
352.83	2398.17
353.04	2471.90
353.25	2400.22
353.46	2471.90
353.67	2635.74
353.88	2285.53
354.09	2449.37
354.30	2430.94
354.52	2617.30
354.73	2445.27
354.94	2346.97
355.15	2389.98
355.36	2703.32
355.57	2490.33
355.78	2381.79
355.99	2371.55
356.20	2439.13
356.41	2592.73
356.62	2475.99
356.83	2492.38
357.04	2662.36
357.25	2342.88
357.46	2404.32
357.68	2314.20
357.89	2449.37
358.10	2482.14
358.31	2365.40
358.52	2447.32
358.73	2375.64
358.94	2353.12
359.15	2490.33
359.36	2478.04
359.57	2449.37
359.78	2482.14
359.99	2545.63
360.20	2342.88
360.41	2463.71
360.62	2494.43
360.83	2465.75
361.04	2432.99
361.25	2553.82
361.46	2695.13
361.67	2547.67
361.88	2467.80
362.09	2605.02
362.30	2492.38
362.51	2400.22
362.72	2484.19
362.93	2580.44
363.14	2621.40
363.35	2389.98
363.56	2383.84
363.78	2670.55
363.99	2578.39
364.20	2420.70
364.41	2480.09
364.62	2793.43
364.83	2596.82
365.04	2500.57
365.25	2428.89
365.46	2826.20
365.67	2406.36
365.88	2424.80
366.09	2342.88
366.30	2420.70
366.51	2529.24
366.72	2326.49
366.93	2424.80
367.14	2453.47
367.35	2543.58
367.56	2408.41
367.77	2521.05
367.98	2435.03
368.18	2494.43
368.39	2500.57
368.60	2328.54
368.81	2619.35
369.02	2582.49
369.23	2430.94
369.44	2244.57
369.65	2432.99
369.86	2531.29
370.07	2496.47
370.28	2297.82
370.49	2549.72
370.70	2613.21
370.91	2377.69
371.12	2385.88
371.33	2639.83
371.54	2439.13
371.75	2588.63
371.96	2191.33
372.17	2527.19
372.38	2449.37
372.59	2478.04
372.80	2342.88
373.01	2422.75
373.22	2545.63
373.43	2412.51
373.64	2265.05
373.85	2582.49
374.06	2639.83
374.26	2490.33
374.47	2553.82
374.68	2660.31
374.89	2469.85
375.10	2406.36
375.31	2531.29
375.52	2478.04
375.73	2420.70
375.94	2369.50
376.15	2564.06
376.36	2410.46
376.57	2410.46
376.78	2465.75
376.99	2428.89
377.20	2652.12
377.40	2328.54
377.61	2562.01
377.82	2338.78
378.03	2629.59
378.24	2523.10
378.45	2465.75
378.66	2469.85
378.87	2277.34
379.08	2375.64
379.29	2428.89
379.50	2660.31
379.71	2441.18
379.91	2539.48
380.12	2463.71
380.33	2469.85
380.54	2435.03
380.75	2588.63
380.96	2369.50
381.17	2502.62
381.38	2437.08
381.59	2602.97
381.80	2418.65
382.00	2586.58
382.21	2541.53
382.42	2707.41
382.63	2768.85
382.84	2543.58
383.05	2627.54
383.26	2625.50
383.47	2449.37
383.68	2426.84
383.88	2537.43
384.09	2510.81
384.30	2617.30
384.51	2555.86
384.72	2414.56
384.93	2316.25
385.14	2424.80
385.35	2615.26
385.55	2375.64
385.76	2576.34
385.97	2404.32
386.18	2295.77
386.39	2377.69
386.60	2435.03
386.81	2424.80
387.02	2275.29
387.22	2365.40
387.43	2652.12
387.64	2510.81
387.85	2658.26
388.06	2695.13
388.27	3995.59
388.48	8249.22
388.68	12160.84
388.89	14456.61
389.10	15542.03
389.31	14931.74
389.52	11671.37
389.73	9850.73
389.93	8982.39
390.14	8419.20
390.35	7475.09
390.56	6559.64
390.77	5605.29
390.98	4239.30
391.18	3358.67
391.39	2949.08
391.60	2586.58
391.81	2678.74
392.02	2414.56
392.23	2738.13
392.43	2498.52
392.64	2547.67
392.85	2459.61
393.06	2693.08
393.27	2498.52
393.47	2414.56
393.68	2453.47
393.89	2400.22
394.10	2666.46
394.31	2488.28
394.52	2422.75
394.72	2373.60
394.93	2664.41
395.14	2273.25
395.35	2502.62
395.56	2455.51
395.76	2492.38
395.97	2430.94
396.18	2613.21
396.39	2580.44
396.60	3047.38
396.80	2750.42
397.01	2629.59
397.22	2611.16
397.43	2660.31
397.64	2377.69
397.84	2543.58
398.05	2727.89
398.26	2506.71
398.47	2615.26
398.67	2701.27
398.88	2480.09
399.09	2580.44
399.30	2428.89
399.51	2478.04
399.71	2357.21
399.92	2469.85
400.13	2486.23
400.34	2387.93
400.54	2521.05
400.75	2658.26
400.96	2469.85
401.17	2629.59
401.37	2580.44
401.58	2498.52
401.79	2428.89
402.00	2572.25
402.21	2957.27
402.41	2762.71
402.62	2818.00
402.83	2875.35
403.04	2914.26
403.24	3037.14
403.45	2650.07
403.66	2785.24
403.87	2727.89
404.07	2703.32
404.28	2721.75
404.49	2731.99
404.70	2555.86
404.90	2590.68
405.11	2418.65
405.32	2519.00
405.52	2445.27
405.73	2473.95
405.94	2412.51
406.15	2430.94
406.35	2629.59
406.56	2637.78
406.77	2455.51
406.98	2475.99
407.18	2353.12
407.39	2648.02
407.60	2406.36
407.80	2447.32
408.01	2422.75
408.22	2543.58
408.43	2328.54
408.63	2562.01
408.84	2613.21
409.05	2629.59
409.25	2463.71
409.46	2392.03
409.67	2471.90
409.88	2449.37
410.08	2428.89
410.29	2404.32
410.50	2645.98
410.70	2613.21
410.91	2301.92
411.12	2529.24
411.32	2396.12
411.53	2392.03
411.74	2504.67
411.95	2592.73
412.15	2568.15
412.36	2637.78
412.57	2600.92
412.77	2682.84
412.98	2473.95
413.19	2457.56
413.39	2607.06
413.60	2523.10
413.81	2680.79
414.01	2359.26
414.22	2498.52
414.43	2572.25
414.63	2496.47
414.84	2625.50
415.05	2439.13
415.25	2252.77
415.46	2555.86
415.67	2447.32
415.87	2471.90
416.08	2463.71
416.29	2490.33
416.49	2498.52
416.70	2430.94
416.91	2449.37
417.11	2473.95
417.32	2555.86
417.53	2527.19
417.73	2490.33
417.94	2502.62
418.15	2469.85
418.35	2392.03
418.56	2424.80
418.77	2703.32
418.97	2484.19
419.18	2322.40
419.38	2181.09
419.59	2480.09
419.80	2666.46
420.00	2449.37
420.21	2379.74
420.42	2668.50
420.62	2486.23
420.83	2342.88
421.04	2486.23
421.24	2480.09
421.45	2551.77
421.65	2521.05
421.86	2342.88
422.07	2605.02
422.27	2527.19
422.48	2504.67
422.69	2428.89
422.89	2488.28
423.10	2514.91
423.30	2363.36
423.51	2455.51
423.72	2531.29
423.92	2590.68
424.13	2389.98
424.33	2494.43
424.54	2641.88
424.75	2486.23
424.95	2623.45
425.16	2480.09
425.36	2428.89
425.57	2584.54
425.78	2531.29
425.98	2482.14
426.19	2496.47
426.39	2377.69
426.60	2541.53
426.81	2551.77
427.01	2570.20
427.22	2420.70
427.42	2285.53
427.63	2373.60
427.83	2580.44
428.04	2750.42
428.25	2543.58
428.45	2576.34
428.66	2633.69
428.86	2322.40
429.07	2422.75
429.28	2447.32
429.48	2496.47
429.69	2449.37
429.89	2510.81
430.10	2363.36
430.30	2510.81
430.51	2629.59
430.71	2428.89
430.92	2473.95
431.13	2496.47
431.33	2521.05
431.54	2473.95
431.74	2605.02
431.95	2762.71
432.15	2422.75
432.36	2412.51
432.56	2498.52
432.77	2662.36
432.98	2764.76
433.18	2498.52
433.39	2400.22
433.59	2461.66
433.80	2727.89
434.00	2719.70
434.21	2430.94
434.41	2443.23
434.62	2793.43
434.82	2359.26
435.03	2379.74
435.23	2535.39
435.44	2236.38
435.64	2455.51
435.85	2490.33
436.06	2605.02
436.26	2566.10
436.47	2441.18
436.67	2367.45
436.88	2447.32
437.08	2639.83
437.29	2633.69
437.49	2535.39
437.70	2701.27
437.90	2512.86
438.11	2635.74
438.31	2496.47
438.52	2715.61
438.72	2760.66
438.93	2719.70
439.13	2553.82
439.34	2551.77
439.54	2379.74
439.75	2596.82
439.95	2539.48
440.16	2400.22
440.36	2545.63
440.57	2500.57
440.77	2475.99
440.98	2576.34
441.18	2592.73
441.39	2398.17
441.59	2396.12
441.80	2719.70
442.00	2506.71
442.21	2627.54
442.41	2291.68
442.62	2621.40
442.82	2432.99
443.02	2498.52
443.23	2494.43
443.43	2461.66
443.64	2670.55
443.84	2385.88
444.05	2586.58
444.25	2576.34
444.46	2379.74
444.66	2527.19
444.87	2693.08
445.07	2396.12
445.28	2539.48
445.48	2609.11
445.69	2488.28
445.89	2777.05
446.09	2514.91
446.30	2777.05
446.50	3010.51
446.71	4493.24
446.91	5767.08
447.12	6596.51
447.32	7047.06
447.53	6569.88
447.73	5367.73
447.93	4775.86
448.14	4433.85
448.34	4353.98
448.55	3790.79
448.75	3776.45
448.96	3547.08
449.16	3266.51
449.36	3133.39
449.57	2760.66
449.77	2568.15
449.98	2547.67
450.18	2584.54
450.39	2523.10
450.59	2625.50
450.79	2475.99
451.00	2398.17
451.20	2549.72
451.41	2465.75
451.61	2482.14
451.81	2508.76
452.02	2449.37
452.22	2392.03
452.43	2392.03
452.63	2441.18
452.84	2547.67
453.04	2461.66
453.24	2471.90
453.45	2349.02
453.65	2400.22
453.86	2480.09
454.06	2531.29
454.26	2531.29
454.47	2410.46
454.67	2693.08
454.87	2633.69
455.08	2514.91
455.28	2637.78
455.49	2519.00
455.69	2473.95
455.89	2799.57
456.10	2645.98
456.30	2402.27
456.51	2588.63
456.71	2478.04
456.91	2490.33
457.12	2418.65
457.32	2510.81
457.52	2441.18
457.73	2562.01
457.93	2576.34
458.14	2453.47
458.34	2275.29
458.54	2457.56
458.75	2394.08
458.95	2570.20
459.15	2566.10
459.36	2461.66
459.56	2463.71
459.76	2783.19
459.97	2553.82
460.17	2424.80
460.37	2473.95
460.58	2445.27
460.78	2535.39
460.99	2357.21
461.19	2428.89
461.39	2418.65
461.60	2480.09
461.80	2516.95
462.00	2320.35
462.21	2506.71
462.41	2379.74
462.61	2336.73
462.82	2353.12
463.02	2465.75
463.22	2461.66
463.43	2465.75
463.63	2453.47
463.83	2691.03
464.04	2590.68
464.24	2400.22
464.44	2381.79
464.64	2519.00
464.85	2594.78
465.05	2523.10
465.25	2475.99
465.46	2512.86
465.66	2619.35
465.86	2574.30
466.07	2367.45
466.27	2457.56
466.47	2340.83
466.68	2232.29
466.88	2584.54
467.08	2564.06
467.29	2580.44
467.49	2521.05
467.69	2430.94
467.89	2555.86
468.10	2473.95
468.30	2519.00
468.50	2598.87
468.71	2678.74
468.91	2365.40
469.11	2660.31
469.31	2549.72
469.52	2351.07
469.72	2691.03
469.92	2711.51
470.13	2473.95
470.33	2519.00
470.53	2576.34
470.73	2854.87
470.94	3346.38
471.14	3436.49
471.34	3923.91
471.54	3772.36
471.75	3334.09
471.95	3082.19
472.15	3006.42
472.36	3125.20
472.56	2920.40
472.76	2955.22
472.96	2842.58
473.17	2824.15
473.37	2711.51
473.57	2488.28
473.77	2570.20
473.98	2459.61
474.18	2412.51
474.38	2766.81
474.58	2377.69
474.79	2396.12
474.99	2484.19
475.19	2637.78
475.39	2346.97
475.60	2600.92
475.80	2506.71
476.00	2551.77
476.20	2369.50
476.41	2504.67
476.61	2576.34
476.81	2713.56
477.01	2502.62
477.21	2693.08
477.42	2631.64
477.62	2365.40
477.82	2568.15
478.02	2422.75
478.23	2498.52
478.43	2406.36
478.63	2471.90
478.83	2445.27
479.03	2416.60
479.24	2764.76
479.44	2754.52
479.64	2396.12
479.84	2246.62
480.04	2424.80
480.25	2605.02
480.45	2310.11
480.65	2400.22
480.85	2723.80
481.06	2459.61
481.26	2547.67
481.46	2490.33
481.66	2488.28
481.86	2375.64
482.06	2514.91
482.27	2473.95
482.47	2416.60
482.67	2514.91
482.87	2404.32
483.07	2527.19
483.28	2496.47
483.48	2375.64
483.68	2506.71
483.88	2445.27
484.08	2230.24
484.29	2361.31
484.49	2555.86
484.69	2353.12
484.89	2596.82
485.09	2627.54
485.29	2543.58
485.50	2537.43
485.70	2498.52
485.90	2742.23
486.10	2461.66
486.30	2471.90
486.50	2600.92
486.71	2523.10
486.91	2547.67
487.11	2592.73
487.31	2334.68
487.51	2596.82
487.71	2342.88
487.91	2322.40
488.12	2396.12
488.32	2228.19
488.52	2404.32
488.72	2217.95
488.92	2498.52
489.12	2662.36
489.32	2652.12
489.53	2478.04
489.73	2281.44
489.93	2695.13
490.13	2404.32
490.33	2301.92
490.53	2480.09
490.73	2641.88
490.94	2400.22
491.14	2539.48
491.34	2584.54
491.54	2787.29
491.74	3358.67
491.94	3923.91
492.14	4300.73
492.34	4394.94
492.54	4169.66
492.75	3420.11
492.95	3499.98
493.15	3323.85
493.35	3135.44
493.55	3112.91
493.75	2998.23
493.95	2957.27
494.15	2731.99
494.35	2531.29
494.56	2576.34
494.76	2469.85
494.96	2553.82
495.16	2482.14
495.36	2490.33
495.56	2529.24
495.76	2465.75
495.96	2367.45
496.16	2359.26
496.36	2717.65
496.56	2514.91
496.77	2531.29
496.97	2432.99
497.17	2672.60
497.37	2359.26
497.57	2439.13
497.77	2473.95
497.97	2383.84
498.17	2457.56
498.37	2383.84
498.57	2568.15
498.77	2445.27
498.97	2531.29
499.17	2701.27
499.38	2465.75
499.58	2619.35
499.78	2529.24
499.98	2592.73
500.18	2512.86
500.38	2441.18
500.58	2686.94
500.78	3133.39
500.98	5351.34
501.18	7499.66
501.38	9310.07
501.58	10030.95
501.78	9992.04
501.98	8097.67
502.18	6762.39
502.38	5734.31
502.58	5449.64
502.78	4863.93
502.98	4708.28
503.18	4480.96
503.38	4149.18
503.59	3583.95
503.79	3368.91
503.99	3114.96
504.19	3051.47
504.39	3035.09
504.59	3063.76
504.79	3090.38
504.99	3153.87
505.19	2793.43
505.39	2662.36
505.59	2908.12
505.79	2809.81
505.99	2695.13
506.19	2553.82
506.39	2713.56
506.59	2525.15
506.79	2480.09
506.99	2639.83
507.19	2521.05
507.39	2519.00
507.59	2328.54
507.79	2428.89
507.99	2467.80
508.19	2484.19
508.39	2523.10
508.59	2457.56
508.79	2580.44
508.99	2813.91
509.19	2375.64
509.39	2514.91
509.59	2377.69
509.79	2424.80
509.99	2510.81
510.19	2590.68
510.39	2535.39
510.59	2521.05
510.79	2365.40
510.99	2355.16
511.19	2432.99
511.39	2699.22
511.59	2596.82
511.79	2545.63
511.99	2475.99
512.19	2703.32
512.38	2535.39
512.58	2414.56
512.78	2430.94
512.98	2678.74
513.18	2731.99
513.38	2332.64
513.58	2504.67
513.78	2488.28
513.98	2441.18
514.18	2453.47
514.38	2461.66
514.58	2531.29
514.78	2439.13
514.98	2338.78
515.18	2504.67
515.38	2392.03
515.58	2703.32
515.78	2416.60
515.98	2465.75
516.18	2588.63
516.38	2432.99
516.57	2439.13
516.77	2342.88
516.97	2588.63
517.17	2426.84
517.37	2326.49
517.57	2500.57
517.77	2523.10
517.97	2435.03
518.17	2555.86
518.37	2322.40
518.57	2435.03
518.77	2400.22
518.97	2482.14
519.16	2496.47
519.36	2654.17
519.56	2467.80
519.76	2496.47
519.96	2392.03
520.16	2676.70
520.36	2410.46
520.56	2664.41
520.76	2389.98
520.96	2426.84
521.16	2682.84
521.35	2611.16
521.55	2650.07
521.75	2504.67
521.95	2424.80
522.15	2396.12
522.35	2334.68
522.55	2451.42
522.75	2596.82
522.95	2383.84
523.14	2381.79
523.34	2469.85
523.54	2467.80
523.74	2519.00
523.94	2514.91
524.14	2410.46
524.34	2564.06
524.54	2576.34
524.73	2449.37
524.93	2623.45
525.13	2516.95
525.33	2289.63
525.53	2736.09
525.73	2682.84
525.93	2539.48
526.13	2396.12
526.32	2416.60
526.52	2660.31
526.72	2662.36
526.92	2432.99
527.12	2428.89
527.32	2336.73
527.52	2525.15
527.71	2494.43
527.91	2387.93
528.11	2422.75
528.31	2533.34
528.51	2430.94
528.71	2478.04
528.90	2623.45
529.10	2621.40
529.30	2580.44
529.50	2244.57
529.70	2527.19
529.90	2461.66
530.09	2490.33
530.29	2389.98
530.49	2408.41
530.69	2854.87
530.89	2510.81
531.09	2500.57
531.28	2467.80
531.48	2625.50
531.68	2416.60
531.88	2486.23
532.08	2572.25
532.28	2445.27
532.47	2586.58
532.67	2557.91
532.87	2576.34
533.07	2340.83
533.27	2574.30
533.46	2568.15
533.66	2621.40
533.86	2580.44
534.06	2465.75
534.26	2480.09
534.45	2459.61
534.65	2600.92
534.85	2478.04
535.05	2453.47
535.25	2551.77
535.44	2334.68
535.64	2621.40
535.84	2443.23
536.04	2435.03
536.24	2572.25
536.43	2451.42
536.63	2475.99
536.83	2488.28
537.03	2432.99
537.22	2295.77
537.42	2355.16
537.62	2592.73
537.82	2322.40
538.02	2666.46
538.21	2559.96
538.41	2889.68
538.61	2594.78
538.81	2447.32
539.00	2576.34
539.20	2310.11
539.40	2439.13
539.60	2521.05
539.79	2568.15
539.99	2445.27
540.19	2478.04
540.39	2435.03
540.58	2502.62
540.78	2645.98
540.98	2539.48
541.18	2572.25
541.37	2547.67
541.57	2529.24
541.77	2545.63
541.97	2432.99
542.16	2351.07
542.36	2449.37
542.56	2482.14
542.76	2656.22
542.95	2437.08
543.15	2562.01
543.35	2541.53
543.54	2441.18
543.74	2400.22
543.94	2568.15
544.14	2420.70
544.33	2547.67
544.53	2383.84
544.73	2447.32
544.93	2441.18
545.12	2400.22
545.32	2412.51
545.52	2475.99
545.71	2306.01
545.91	2371.55
546.11	2473.95
546.30	2349.02
546.50	2490.33
546.70	2510.81
546.90	2467.80
547.09	2293.72
547.29	2488.28
547.49	2605.02
547.68	2410.46
547.88	2367.45
548.08	2600.92
548.27	2910.16
548.47	2457.56
548.67	2406.36
548.87	2529.24
549.06	2525.15
549.26	2514.91
549.46	2480.09
549.65	2453.47
549.85	2432.99
550.05	2523.10
550.24	2355.16
550.44	2502.62
550.64	2437.08
550.83	2437.08
551.03	2602.97
551.23	2652.12
551.42	2576.34
551.62	2430.94
551.82	2494.43
552.01	2484.19
552.21	2658.26
552.41	2547.67
552.60	2645.98
552.80	2562.01
553.00	2449.37
553.19	2510.81
553.39	2719.70
553.59	2306.01
553.78	2506.71
553.98	2484.19
554.17	2318.30
554.37	2482.14
554.57	2547.67
554.76	2248.67
554.96	2418.65
555.16	2455.51
555.35	2531.29
555.55	2525.15
555.75	2527.19
555.94	2594.78
556.14	2303.96
556.33	2508.76
556.53	2514.91
556.73	2453.47
556.92	2553.82
557.12	2500.57
557.32	2723.80
557.51	2699.22
557.71	2504.67
557.90	2699.22
558.10	2658.26
558.30	2408.41
558.49	2498.52
558.69	2463.71
558.88	2605.02
559.08	2523.10
559.28	2471.90
559.47	2451.42
559.67	2551.77
559.86	2797.53
560.06	2482.14
560.26	2430.94
560.45	2523.10
560.65	2471.90
560.84	2664.41
561.04	2404.32
561.24	2525.15
561.43	2414.56
561.63	2684.89
561.82	2473.95
562.02	2619.35
562.22	2445.27
562.41	2316.25
562.61	2428.89
562.80	2471.90
563.00	2883.54
563.19	2514.91
563.39	2494.43
563.59	2648.02
563.78	2351.07
563.98	2213.85
564.17	2306.01
564.37	2275.29
564.56	2465.75
564.76	2449.37
564.96	2658.26
565.15	2527.19
565.35	2781.14
565.54	2439.13
565.74	2590.68
565.93	2617.30
566.13	2580.44
566.32	2521.05
566.52	2490.33
566.71	2580.44
566.91	2596.82
567.11	2590.68
567.30	2387.93
567.50	2529.24
567.69	2543.58
567.89	2383.84
568.08	2336.73
568.28	2514.91
568.47	2297.82
568.67	2510.81
568.86	2437.08
569.06	2600.92
569.25	2539.48
569.45	2332.64
569.64	2439.13
569.84	2424.80
570.04	2455.51
570.23	2385.88
570.43	2467.80
570.62	2525.15
570.82	2693.08
571.01	2371.55
571.21	2293.72
571.40	2332.64
571.60	2533.34
571.79	2529.24
571.99	2410.46
572.18	2334.68
572.38	2584.54
572.57	2408.41
572.77	2492.38
572.96	2818.00
573.16	2539.48
573.35	2424.80
573.55	2670.55
573.74	2465.75
573.94	2418.65
574.13	2480.09
574.33	2592.73
574.52	2641.88
574.71	2539.48
574.91	2596.82
575.10	2369.50
575.30	2492.38
575.49	2387.93
575.69	2449.37
575.88	2519.00
576.08	2465.75
576.27	2686.94
576.47	2559.96
576.66	2734.04
576.86	2670.55
577.05	2547.67
577.25	2473.95
577.44	2654.17
577.64	2447.32
577.83	2643.93
578.02	2490.33
578.22	2637.78
578.41	2777.05
578.61	2471.90
578.80	2406.36
579.00	2543.58
579.19	2521.05
579.39	2621.40
579.58	2555.86
579.77	2432.99
579.97	2695.13
580.16	2613.21
580.36	2643.93
580.55	2611.16
580.75	2545.63
580.94	2533.34
581.13	2615.26
581.33	2699.22
581.52	2465.75
581.72	2826.20
581.91	2715.61
582.11	2404.32
582.30	2695.13
582.49	2537.43
582.69	2688.98
582.88	2521.05
583.08	2496.47
583.27	2721.75
583.47	2504.67
583.66	2437.08
583.85	2398.17
584.05	2484.19
584.24	2707.41
584.44	2494.43
584.63	2703.32
584.82	2760.66
585.02	2666.46
585.21	2686.94
585.41	2717.65
585.60	2596.82
585.79	2746.33
585.99	2793.43
586.18	2672.60
586.37	3272.65
586.57	5119.92
586.76	14808.86
586.96	34315.76
587.15	47426.86
587.34	56622.24
587.54	61199.45
587.73	55469.23
587.93	38933.93
588.12	29713.98
588.31	23912.08
588.51	21044.93
588.70	19216.09
588.89	17362.68
589.09	14862.11
589.28	12717.89
589.47	10354.53
589.67	7962.50
589.86	6117.28
590.06	4636.60
590.25	3960.77
590.44	3327.95
590.64	2965.46
590.83	2834.39
591.02	2723.80
591.22	2578.39
591.41	2641.88
591.60	2531.29
591.80	2895.83
591.99	2473.95
592.18	2492.38
592.38	2602.97
592.57	2473.95
592.76	2510.81
592.96	2547.67
593.15	2469.85
593.34	2719.70
593.54	2424.80
593.73	2648.02
593.92	2564.06
594.12	2650.07
594.31	2535.39
594.50	2670.55
594.70	2613.21
594.89	2924.50
595.08	2330.59
595.28	2645.98
595.47	2924.50
595.66	2562.01
595.86	2371.55
596.05	2412.51
596.24	2574.30
596.43	2707.41
596.63	2594.78
596.82	2484.19
597.01	2609.11
597.21	2756.57
597.40	2531.29
597.59	2531.29
597.79	2494.43
597.98	2602.97
598.17	2564.06
598.36	2441.18
598.56	2666.46
598.75	2439.13
598.94	2496.47
599.14	2568.15
599.33	2512.86
599.52	2537.43
599.71	2453.47
599.91	2605.02
600.10	2533.34
600.29	2555.86
600.48	2551.77
600.68	2525.15
600.87	2537.43
601.06	2377.69
601.26	2512.86
601.45	2566.10
601.64	2459.61
601.83	2709.46
602.03	2406.36
602.22	2351.07
602.41	2605.02
602.60	2813.91
602.80	2611.16
602.99	2527.19
603.18	2392.03
603.37	2568.15
603.57	2463.71
603.76	2510.81
603.95	2605.02
604.14	2506.71
604.34	2359.26
604.53	2449.37
604.72	2547.67
604.91	2586.58
605.10	2482.14
605.30	2273.25
605.49	2764.76
605.68	2572.25
605.87	2531.29
606.07	2389.98
606.26	2459.61
606.45	2617.30
606.64	2555.86
606.84	2441.18
607.03	2580.44
607.22	2695.13
607.41	2457.56
607.60	2426.84
607.80	2611.16
607.99	2441.18
608.18	2500.57
608.37	2430.94
608.56	2432.99
608.76	2613.21
608.95	2625.50
609.14	2557.91
609.33	2693.08
609.52	2723.80
609.72	2664.41
609.91	2621.40
610.10	2633.69
610.29	2711.51
610.48	2564.06
610.68	2613.21
610.87	2514.91
611.06	2609.11
611.25	2441.18
611.44	2602.97
611.63	2463.71
611.83	2625.50
612.02	2359.26
612.21	2584.54
612.40	2301.92
612.59	2355.16
612.79	2330.59
612.98	2490.33
613.17	2703.32
613.36	2529.24
613.55	2740.18
613.74	2562.01
613.93	2627.54
614.13	2719.70
614.32	2772.95
614.51	2744.28
614.70	2686.94
614.89	2519.00
615.08	2588.63
615.28	3033.04
615.47	2447.32
615.66	2553.82
615.85	2566.10
616.04	2703.32
616.23	2523.10
616.42	2602.97
616.62	2525.15
616.81	2570.20
617.00	2519.00
617.19	2531.29
617.38	2480.09
617.57	2535.39
617.76	2576.34
617.95	2670.55
618.15	2465.75
618.34	2613.21
618.53	2367.45
618.72	2611.16
618.91	2684.89
619.10	2602.97
619.29	2535.39
619.48	2492.38
619.68	2357.21
619.87	2461.66
620.06	2363.36
620.25	2602.97
620.44	2404.32
620.63	2445.27
620.82	2525.15
621.01	2498.52
621.20	2389.98
621.39	2512.86
621.59	2613.21
621.78	2459.61
621.97	2527.19
622.16	2549.72
622.35	2475.99
622.54	2533.34
622.73	2572.25
622.92	2228.19
623.11	2609.11
623.30	2539.48
623.49	2627.54
623.68	2416.60
623.88	2596.82
624.07	2461.66
624.26	2475.99
624.45	2531.29
624.64	2473.95
624.83	2492.38
625.02	2455.51
625.21	2463.71
625.40	2531.29
625.59	2609.11
625.78	2461.66
625.97	2625.50
626.16	2752.47
626.35	2672.60
626.54	2574.30
626.74	2719.70
626.93	2463.71
627.12	2527.19
627.31	2600.92
627.50	2523.10
627.69	2635.74
627.88	2404.32
628.07	2486.23
628.26	2324.44
628.45	2441.18
628.64	2402.27
628.83	2508.76
629.02	2342.88
629.21	2580.44
629.40	2523.10
629.59	2500.57
629.78	2402.27
629.97	2555.86
630.16	2502.62
630.35	2439.13
630.54	2539.48
630.73	2443.23
630.92	2535.39
631.11	2342.88
631.30	2465.75
631.49	2631.64
631.68	2492.38
631.87	2463.71
632.06	2342.88
632.25	2787.29
632.44	2531.29
632.63	2455.51
632.82	2535.39
633.01	2494.43
633.20	2572.25
633.39	2545.63
633.58	2406.36
633.77	2631.64
633.96	2605.02
634.15	2547.67
634.34	2547.67
634.53	2473.95
634.72	2426.84
634.91	2301.92
635.10	2539.48
635.29	2570.20
635.48	2490.33
635.67	2375.64
635.86	2244.57
636.05	2602.97
636.24	2527.19
636.43	2437.08
636.62	2539.48
636.81	2228.19
637.00	2545.63
637.19	2523.10
637.38	2498.52
637.57	2529.24
637.76	2535.39
637.95	2545.63
638.14	2553.82
638.33	2572.25
638.52	2586.58
638.71	2392.03
638.89	2414.56
639.08	2873.30
639.27	2654.17
639.46	2703.32
639.65	3135.44
639.84	3241.93
640.03	3420.11
640.22	3135.44
640.41	3196.88
640.60	2777.05
640.79	2803.67
640.98	2701.27
641.17	2684.89
641.36	2695.13
641.55	2584.54
641.74	2377.69
641.92	2326.49
642.11	2498.52
642.30	2471.90
642.49	2375.64
642.68	2387.93
642.87	2490.33
643.06	2562.01
643.25	2414.56
643.44	2383.84
643.63	2510.81
643.82	2588.63
644.00	2340.83
644.19	2453.47
644.38	2371.55
644.57	2514.91
644.76	2465.75
644.95	2475.99
645.14	2519.00
645.33	2441.18
645.52	2435.03
645.71	2248.67
645.89	2349.02
646.08	2502.62
646.27	2443.23
646.46	2645.98
646.65	2303.96
646.84	2543.58
647.03	2340.83
647.22	2645.98
647.40	2484.19
647.59	2478.04
647.78	2265.05
647.97	2416.60
648.16	2459.61
648.35	2684.89
648.54	2617.30
648.73	2461.66
648.91	2578.39
649.10	2494.43
649.29	2392.03
649.48	2373.60
649.67	2539.48
649.86	2596.82
650.05	2551.77
650.23	2731.99
650.42	2592.73
650.61	2828.24
650.80	2734.04
650.99	2768.85
651.18	2691.03
651.36	2691.03
651.55	2441.18
651.74	2572.25
651.93	2457.56
652.12	2469.85
652.31	2498.52
652.49	2457.56
652.68	2449.37
652.87	2676.70
653.06	2545.63
653.25	2594.78
653.44	2504.67
653.62	2725.85
653.81	2461.66
654.00	2502.62
654.19	2568.15
654.38	2822.10
654.56	2584.54
654.75	2402.27
654.94	2652.12
655.13	2504.67
655.32	2482.14
655.51	2508.76
655.69	2398.17
655.88	2523.10
656.07	2322.40
656.26	2494.43
656.45	2285.53
656.63	2500.57
656.82	2502.62
657.01	2600.92
657.20	2408.41
657.38	2617.30
657.57	2394.08
657.76	2332.64
657.95	2553.82
658.14	2400.22
658.32	2494.43
658.51	2412.51
658.70	2496.47
658.89	2463.71
659.08	2498.52
659.26	2652.12
659.45	2457.56
659.64	2662.36
659.83	2480.09
660.01	2865.11
660.20	2596.82
660.39	2701.27
660.58	2199.52
660.76	2535.39
660.95	2320.35
661.14	2478.04
661.33	2326.49
661.51	2443.23
661.70	2324.44
661.89	2572.25
662.08	2443.23
662.26	2301.92
662.45	2312.16
662.64	2779.09
662.83	2629.59
663.01	2387.93
663.20	2424.80
663.39	2680.79
663.58	2435.03
663.76	2492.38
663.95	2529.24
664.14	2306.01
664.32	2498.52
664.51	2392.03
664.70	2330.59
664.89	2527.19
665.07	2234.33
665.26	2533.34
665.45	2359.26
665.64	2619.35
665.82	2467.80
666.01	2666.46
666.20	2363.36
666.38	2625.50
666.57	2695.13
666.76	3915.72
666.95	9521.01
667.13	17606.39
667.32	22693.54
667.51	26236.53
667.69	27792.98
667.88	24297.10
668.07	17473.27
668.25	13975.34
668.44	11999.05
668.63	10387.30
668.81	9037.69
669.00	7716.75
669.19	7090.07
669.38	6135.71
669.56	5193.65
669.75	4409.28
669.94	3841.99
670.12	3176.40
670.31	2981.84
670.50	2801.62
670.68	2760.66
670.87	2570.20
671.06	2490.33
671.24	2570.20
671.43	2709.46
671.62	2588.63
671.80	2420.70
671.99	2588.63
672.18	2588.63
672.36	2637.78
672.55	2545.63
672.74	2428.89
672.92	2482.14
673.11	2547.67
673.29	2424.80
673.48	2584.54
673.67	2525.15
673.85	2562.01
674.04	2375.64
674.23	2482.14
674.41	2748.37
674.60	2349.02
674.79	2351.07
674.97	2396.12
675.16	2588.63
675.34	2617.30
675.53	2424.80
675.72	2576.34
675.90	2715.61
676.09	2459.61
676.28	2475.99
676.46	2258.91
676.65	2613.21
676.83	2326.49
677.02	2430.94
677.21	2523.10
677.39	2490.33
677.58	2308.06
677.77	2414.56
677.95	2404.32
678.14	2490.33
678.32	2461.66
678.51	2363.36
678.70	2664.41
678.88	2367.45
679.07	2500.57
679.25	2457.56
679.44	2461.66
679.63	2349.02
679.81	2514.91
680.00	2523.10
680.18	2570.20
680.37	2668.50
680.55	2480.09
680.74	2355.16
680.93	2318.30
681.11	2582.49
681.30	2459.61
681.48	2469.85
681.67	2422.75
681.85	2506.71
682.04	2486.23
682.23	2596.82
682.41	2465.75
682.60	2465.75
682.78	2441.18
682.97	2371.55
683.15	2490.33
683.34	2514.91
683.53	2637.78
683.71	2379.74
683.90	2568.15
684.08	2666.46
684.27	2467.80
684.45	2449.37
684.64	2629.59
684.82	2469.85
685.01	2555.86
685.19	2394.08
685.38	2650.07
685.57	2473.95
685.75	2357.21
685.94	2404.32
686.12	2320.35
686.31	2422.75
686.49	2721.75
686.68	2330.59
686.86	2506.71
687.05	2408.41
687.23	2629.59
687.42	2428.89
687.60	2318.30
687.79	2600.92
687.97	2693.08
688.16	2621.40
688.34	2623.45
688.53	2248.67
688.71	2504.67
688.90	2551.77
689.08	2519.00
689.27	2314.20
689.45	2555.86
689.64	2529.24
689.82	2541.53
690.01	2514.91
690.19	2580.44
690.38	2572.25
690.56	2605.02
690.75	2363.36
690.93	2453.47
691.12	2404.32
691.30	2488.28
691.49	2406.36
691.67	2494.43
691.86	2672.60
692.04	2408.41
692.23	2488.28
692.41	2564.06
692.60	2783.19
692.78	2596.82
692.97	2568.15
693.15	2613.21
693.34	2678.74
693.52	2584.54
693.71	2467.80
693.89	2498.52
694.08	2293.72
694.26	2512.86
694.44	2572.25
694.63	2592.73
694.81	2414.56
695.00	2400.22
695.18	2668.50
695.37	2803.67
695.55	2547.67
695.74	2398.17
695.92	2451.42
696.10	2605.02
696.29	2308.06
696.47	2404.32
696.66	2396.12
696.84	2396.12
697.03	2482.14
697.21	2668.50
697.40	3719.11
697.58	2570.20
697.76	2496.47
697.95	2408.41
698.13	2394.08
698.32	2383.84
698.50	2475.99
698.68	2514.91
698.87	2437.08
699.05	2686.94
699.24	2504.67
699.42	2297.82
699.61	2504.67
699.79	2545.63
699.97	2398.17
700.16	2340.83
700.34	2269.15
700.53	2473.95
700.71	2654.17
700.89	2586.58
701.08	2420.70
701.26	2533.34
701.45	2949.08
701.63	2363.36
701.81	2467.80
702.00	2328.54
702.18	2441.18
702.37	2498.52
702.55	2662.36
702.73	2650.07
702.92	2568.15
703.10	2838.48
703.28	2645.98
703.47	2535.39
703.65	2695.13
703.84	2695.13
704.02	2531.29
704.20	2752.47
704.39	2502.62
704.57	2410.46
704.75	2633.69
704.94	2529.24
705.12	2588.63
705.30	2830.29
705.49	5552.04
705.67	12568.38
705.86	20563.65
706.04	24354.44
706.22	27487.84
706.41	27833.94
706.59	22621.86
706.77	16486.15
706.96	13811.50
707.14	12250.95
707.32	10714.97
707.51	9379.70
707.69	7626.64
707.87	6082.47
708.06	4929.46
708.24	4112.32
708.42	3330.00
708.61	3262.41
708.79	2666.46
708.97	2641.88
709.16	2633.69
709.34	2570.20
709.52	2549.72
709.71	2492.38
709.89	2637.78
710.07	2402.27
710.26	2400.22
710.44	2502.62
710.62	2711.51
710.80	2441.18
710.99	2537.43
711.17	2496.47
711.35	2381.79
711.54	2465.75
711.72	2666.46
711.90	2490.33
712.09	2562.01
712.27	2400.22
712.45	2480.09
712.63	2396.12
712.82	2508.76
713.00	2529.24
713.18	2512.86
713.37	2557.91
713.55	2639.83
713.73	2568.15
713.91	2588.63
714.10	2404.32
714.28	2494.43
714.46	2498.52
714.65	2588.63
714.83	2449.37
715.01	2584.54
715.19	2471.90
715.38	2340.83
715.56	2531.29
715.74	2424.80
715.92	2344.92
716.11	2588.63
716.29	2322.40
716.47	2478.04
716.65	2400.22
716.84	2349.02
717.02	2521.05
717.20	2318.30
717.38	2418.65
717.57	2525.15
717.75	2512.86
717.93	2351.07
718.11	2519.00
718.30	2310.11
718.48	2539.48
718.66	2633.69
718.84	2678.74
719.03	2473.95
719.21	2301.92
719.39	2639.83
719.57	2580.44
719.75	2631.64
719.94	2371.55
720.12	2424.80
720.30	2521.05
720.48	2494.43
720.67	2412.51
720.85	2424.80
721.03	2453.47
721.21	2365.40
721.39	2613.21
721.58	2549.72
721.76	2471.90
721.94	2482.14
722.12	2523.10
722.30	2643.93
722.49	2412.51
722.67	2482.14
722.85	2488.28
723.03	2277.34
723.21	2363.36
723.40	2490.33
723.58	2576.34
723.76	2574.30
723.94	2715.61
724.12	2555.86
724.30	2658.26
724.49	2711.51
724.67	2430.94
724.85	2645.98
725.03	2357.21
725.21	2564.06
725.40	2637.78
725.58	2392.03
725.76	2670.55
725.94	2529.24
726.12	2336.73
726.30	2375.64
726.49	2424.80
726.67	2463.71
726.85	2600.92
727.03	2850.77
727.21	4302.78
727.39	5726.12
727.57	6627.23
727.76	7372.69
727.94	7520.14
728.12	6797.21
728.30	5619.63
728.48	4999.09
728.66	4595.64
728.84	4128.70
729.03	3526.60
729.21	3307.47
729.39	3012.56
729.57	2682.84
729.75	2654.17
729.93	2607.06
730.11	2551.77
730.30	2400.22
730.48	2527.19
730.66	2648.02
730.84	2525.15
731.02	2519.00
731.20	2406.36
731.38	2529.24
731.56	2340.83
731.74	2260.96
731.93	2533.34
732.11	2486.23
732.29	2451.42
732.47	2580.44
732.65	2586.58
732.83	2641.88
733.01	2605.02
733.19	2387.93
733.37	2553.82
733.56	2555.86
733.74	2363.36
733.92	2625.50
734.10	2488.28
734.28	2488.28
734.46	2201.57
734.64	2471.90
734.82	2486.23
735.00	2430.94
735.18	2465.75
735.36	2392.03
735.54	2490.33
735.73	2430.94
735.91	2559.96
736.09	2613.21
736.27	2445.27
736.45	2488.28
736.63	2308.06
736.81	2437.08
736.99	2629.59
737.17	2641.88
737.35	2322.40
737.53	2523.10
737.71	2398.17
737.89	2641.88
738.07	2306.01
738.25	2396.12
738.43	2318.30
738.61	2432.99
738.80	2308.06
738.98	2371.55
739.16	2430.94
739.34	2379.74
739.52	2666.46
739.70	2533.34
739.88	2570.20
740.06	2625.50
740.24	2269.15
740.42	2549.72
740.60	2187.23
740.78	2373.60
740.96	2310.11
741.14	2392.03
741.32	2463.71
741.50	2338.78
741.68	2715.61
741.86	2705.37
742.04	2375.64
742.22	2394.08
742.40	2432.99
742.58	2535.39
742.76	2418.65
742.94	2568.15
743.12	2351.07
743.30	2441.18
743.48	2564.06
743.66	2439.13
743.84	2453.47
744.02	2455.51
744.20	2512.86
744.38	2355.16
744.56	2398.17
744.74	2715.61
744.92	2531.29
745.10	2617.30
745.28	2529.24
745.46	2670.55
745.64	2508.76
745.82	2529.24
746.00	2465.75
746.18	2475.99
746.36	2363.36
746.54	2510.81
746.72	2488.28
746.90	2396.12
747.08	2652.12
747.26	2418.65
747.44	2652.12
747.62	2482.14
747.80	2584.54
747.98	2643.93
748.15	2455.51
748.33	2758.61
748.51	2516.95
748.69	2504.67
748.87	2387.93
749.05	2473.95
749.23	2422.75
749.41	2490.33
749.59	2473.95
749.77	2496.47
749.95	2349.02
750.13	2514.91
750.31	2506.71
750.49	2375.64
750.67	2623.45
750.85	2635.74
751.03	2514.91
751.20	2758.61
751.38	2594.78
751.56	2432.99
751.74	2394.08
751.92	2490.33
752.10	2340.83
752.28	2633.69
752.46	2338.78
752.64	2484.19
752.82	2475.99
753.00	2609.11
753.18	2400.22
753.35	2443.23
753.53	2488.28
753.71	2424.80
753.89	2457.56
754.07	2516.95
754.25	2688.98
754.43	2490.33
754.61	2369.50
754.79	2490.33
754.97	2455.51
755.14	2617.30
755.32	2314.20
755.50	2529.24
755.68	2504.67
755.86	2471.90
756.04	2449.37
756.22	2260.96
756.40	2629.59
756.57	2684.89
756.75	2359.26
756.93	2531.29
757.11	2602.97
757.29	2326.49
757.47	2396.12
757.65	2312.16
757.82	2199.52
758.00	2367.45
758.18	2326.49
758.36	2387.93
758.54	2637.78
758.72	2263.01
758.90	2555.86
759.07	2584.54
759.25	2392.03
759.43	2564.06
759.61	2336.73
759.79	3602.38
759.97	2588.63
760.15	2357.21
760.32	2432.99
760.50	2467.80
760.68	2650.07
760.86	2387.93
761.04	2584.54
761.22	2553.82
761.39	2502.62
761.57	2514.91
761.75	2490.33
761.93	2592.73
762.11	2404.32
762.28	2465.75
762.46	2336.73
762.64	2621.40
762.82	2408.41
763.00	2449.37
763.18	2578.39
763.35	2396.12
763.53	2506.71
763.71	2467.80
763.89	2502.62
764.07	2531.29
764.24	2475.99
764.42	2500.57
764.60	2465.75
764.78	2516.95
764.96	2555.86
765.13	2590.68
765.31	2398.17
765.49	2588.63
765.67	2340.83
765.84	2349.02
766.02	2445.27
766.20	2256.86
766.38	2519.00
766.56	2494.43
766.73	2557.91
766.91	2519.00
767.09	2383.84
767.27	2537.43
767.44	2303.96
767.62	2519.00
767.80	2484.19
767.98	2439.13
768.15	2424.80
768.33	2539.48
768.51	2551.77
768.69	2559.96
768.87	2506.71
769.04	2471.90
769.22	2887.64
769.40	2637.78
769.58	2680.79
769.75	2566.10
769.93	2596.82
770.11	2441.18
770.28	2408.41
770.46	2543.58
770.64	2516.95
770.82	2392.03
770.99	2420.70
771.17	2492.38
771.35	2488.28
771.53	2465.75
771.70	2445.27
771.88	2564.06
772.06	2486.23
772.23	2531.29
772.41	2527.19
772.59	2441.18
772.77	2322.40
772.94	2392.03
773.12	2537.43
773.30	2385.88
773.47	2492.38
773.65	2351.07
773.83	2545.63
774.01	2441.18
774.18	2297.82
774.36	2478.04
774.54	2367.45
774.71	2555.86
774.89	2277.34
775.07	2400.22
775.24	2432.99
775.42	2414.56
775.60	2744.28
775.78	2383.84
775.95	2265.05
776.13	2320.35
776.31	2287.58
776.48	2531.29
776.66	2582.49
776.84	2381.79
777.01	2398.17
777.19	2424.80
777.37	2373.60
777.54	2645.98
777.72	2744.28
777.90	2478.04
778.07	2408.41
778.25	2881.49
778.43	2611.16
778.60	2396.12
778.78	2512.86
778.96	2660.31
779.13	2408.41
779.31	2553.82
779.49	2486.23
779.66	2551.77
779.84	2406.36
780.01	2488.28
780.19	2310.11
780.37	2635.74
780.54	2613.21
780.72	2383.84
780.90	2406.36
781.07	2471.90
781.25	2410.46
781.43	2490.33
781.60	2439.13
781.78	2631.64
781.95	2424.80
782.13	2377.69
782.31	2447.32
782.48	2275.29
782.66	2447.32
782.83	2707.41
783.01	2492.38
783.19	2555.86
783.36	2502.62
783.54	2295.77
783.72	2568.15
783.89	2387.93
784.07	2490.33
784.24	2521.05
784.42	2543.58
784.60	2514.91
784.77	2557.91
784.95	2293.72
785.12	2410.46
785.30	2488.28
785.47	2424.80
785.65	2408.41
785.83	2432.99
786.00	2414.56
786.18	2494.43
786.35	2244.57
786.53	2363.36
786.71	2578.39
786.88	2506.71
787.06	2426.84
787.23	2441.18
787.41	2332.64
787.58	2424.80
787.76	2332.64
787.94	2461.66
788.11	2494.43
788.29	2365.40
788.46	2422.75
788.64	2277.34
788.81	2461.66
788.99	2301.92
789.16	2322.40
789.34	2416.60
789.52	2467.80
789.69	2400.22
789.87	2228.19
790.04	2351.07
790.22	2543.58
790.39	2799.57
790.57	2381.79
790.74	2377.69
790.92	2623.45
791.09	2328.54
791.27	2451.42
791.44	2510.81
791.62	2439.13
791.79	2506.71
791.97	2453.47
792.15	2760.66
792.32	2568.15
792.50	2510.81
792.67	2555.86
792.85	2572.25
793.02	2490.33
793.20	2439.13
793.37	2371.55
793.55	2482.14
793.72	2318.30
793.90	2559.96
794.07	2334.68
794.25	2400.22
794.42	2451.42
794.60	2465.75
794.77	2535.39
794.95	2586.58
795.12	2545.63
795.30	2383.84
795.47	2287.58
795.65	2785.24
795.82	2512.86
796.00	2387.93
796.17	2449.37
796.34	2445.27
796.52	2412.51
796.69	2584.54
796.87	2488.28
797.04	2428.89
797.22	2617.30
797.39	2574.30
797.57	2531.29
797.74	2547.67
797.92	2519.00
798.09	2334.68
798.27	2596.82
798.44	2414.56
798.62	2422.75
798.79	2506.71
798.96	2496.47
799.14	2471.90
799.31	2707.41
799.49	2473.95
799.66	2308.06
799.84	2478.04
800.01	2306.01
800.19	2498.52
800.36	2232.29
800.53	2463.71
800.71	2549.72
800.88	2629.59
801.06	2404.32
801.23	2402.27
801.41	2459.61
801.58	2406.36
801.75	2371.55
801.93	2494.43
802.10	2555.86
802.28	2443.23
802.45	2406.36
802.63	2488.28
802.80	2598.87
802.97	2420.70
803.15	2365.40
803.32	2455.51
803.50	2469.85
803.67	2371.55
803.84	2377.69
804.02	2432.99
804.19	2490.33
804.37	2267.10
804.54	2355.16
804.71	2457.56
804.89	2506.71
805.06	2349.02
805.24	2338.78
805.41	2318.30
805.58	2367.45
805.76	2682.84
805.93	2428.89
806.10	2605.02
806.28	2521.05
806.45	2514.91
806.63	2535.39
806.80	2568.15
806.97	2523.10
807.15	2545.63
807.32	2519.00
807.49	2559.96
807.67	2349.02
807.84	2498.52
808.01	2277.34
808.19	2617.30
808.36	2709.46
808.54	2396.12
808.71	2385.88
808.88	2383.84
809.06	2547.67
809.23	2707.41
809.40	2461.66
809.58	2486.23
809.75	2490.33
809.92	2291.68
810.10	2711.51
810.27	2449.37
810.44	2580.44
810.62	2498.52
810.79	2402.27
810.96	2332.64
811.14	2392.03
811.31	2592.73
811.48	2635.74
811.66	2498.52
811.83	2527.19
812.00	2633.69
812.18	2445.27
812.35	2701.27
812.52	2478.04
812.69	2398.17
812.87	2387.93
813.04	2344.92
813.21	2410.46
813.39	2342.88
813.56	2299.87
813.73	2611.16
813.91	2236.38
814.08	2461.66
814.25	2535.39
814.42	2322.40
814.60	2447.32
814.77	2488.28
814.94	2424.80
815.12	2482.14
815.29	2643.93
815.46	2373.60
815.63	2521.05
815.81	2445.27
815.98	2471.90
816.15	2508.76
816.33	2387.93
816.50	2351.07
816.67	2416.60
816.84	2422.75
817.02	2344.92
817.19	2437.08
817.36	2478.04
817.53	2502.62
817.71	2340.83
817.88	2467.80
818.05	2426.84
818.22	2463.71
818.40	2668.50
818.57	2400.22
818.74	2551.77
818.91	2387.93
819.09	2514.91
819.26	2533.34
819.43	2381.79
819.60	2367.45
819.78	2527.19
819.95	2580.44
820.12	2396.12
820.29	2629.59
820.47	2684.89
820.64	2379.74
820.81	2240.48
820.98	2373.60
821.15	2490.33
821.33	2484.19
821.50	2334.68
821.67	2566.10
821.84	2424.80
822.02	2525.15
822.19	2594.78
822.36	2420.70
822.53	2412.51
822.70	2357.21
822.88	2439.13
823.05	2576.34
823.22	2420.70
823.39	2519.00
823.56	2529.24
823.74	2711.51
823.91	2314.20
824.08	2293.72
824.25	2322.40
824.42	2615.26
824.60	2299.87
824.77	2537.43
824.94	2408.41
825.11	2510.81
825.28	2297.82
825.45	2482.14
825.63	2531.29
825.80	2373.60
825.97	2480.09
826.14	2455.51
826.31	2383.84
826.48	2564.06
826.66	2367.45
826.83	2394.08
827.00	2428.89
827.17	2381.79
827.34	2457.56
827.51	2416.60
827.69	2529.24
827.86	2258.91
828.03	2435.03
828.20	2414.56
828.37	2400.22
828.54	2459.61
828.71	2355.16
828.89	2584.54
829.06	2473.95
829.23	2648.02
829.40	2369.50
829.57	2443.23
829.74	2605.02
829.91	2453.47
830.09	2416.60
830.26	2543.58
830.43	2652.12
830.60	2449.37
830.77	2521.05
830.94	2572.25
831.11	2512.86
831.28	2396.12
831.46	2584.54
831.63	2355.16
831.80	2541.53
831.97	2394.08
832.14	2398.17
832.31	2488.28
832.48	2471.90
832.65	2564.06
832.82	2502.62
832.99	2422.75
833.17	2340.83
833.34	2674.65
833.51	2396.12
833.68	2256.86
833.85	2645.98
834.02	2408.41
834.19	2312.16
834.36	2369.50
834.53	2582.49
834.70	2572.25
834.87	2547.67
835.04	2326.49
835.22	2437.08
835.39	2389.98
835.56	2297.82
835.73	2471.90
835.90	2588.63
836.07	2322.40
836.24	2512.86
836.41	2318.30
836.58	2293.72
836.75	2570.20
836.92	2377.69
837.09	2349.02
837.26	2545.63
837.43	2502.62
837.60	2457.56
837.77	2406.36
837.94	2607.06
838.12	2592.73
838.29	2334.68
838.46	2220.00
838.63	2342.88
838.80	2627.54
838.97	2447.32
839.14	2342.88
839.31	2463.71
839.48	2619.35
839.65	2408.41
839.82	2400.22
839.99	2482.14
840.16	2570.20
840.33	2351.07
840.50	2406.36
840.67	2334.68
840.84	2226.14
841.01	2430.94
841.18	2357.21
841.35	2420.70
841.52	2535.39
841.69	2664.41
841.86	2424.80
842.03	2537.43
842.20	2504.67
842.37	2346.97
842.54	2344.92
842.71	2465.75
842.88	2281.44
843.05	2465.75
843.22	2340.83
843.39	2412.51
843.56	2445.27
843.73	2420.70
843.90	2340.83
844.07	2375.64
844.24	2568.15
844.41	2463.71
844.58	2406.36
844.75	2486.23
844.92	2564.06
845.09	2392.03
845.26	2396.12
845.43	2594.78
845.60	2392.03
845.77	2426.84
845.94	2439.13
846.10	2521.05
846.27	2291.68
846.44	2334.68
846.61	2301.92
846.78	2531.29
846.95	2566.10
847.12	2369.50
847.29	2402.27
847.46	2383.84
847.63	2602.97
847.80	2332.64
847.97	2375.64
848.14	2748.37
848.31	2441.18
848.48	2312.16
848.65	2439.13
848.82	2379.74
848.98	2691.03
849.15	2486.23
849.32	2494.43
849.49	2619.35
849.66	2473.95
849.83	2408.41
850.00	2293.72
850.17	2584.54
850.34	2457.56
850.51	2291.68
850.68	2324.44
850.85	2703.32
851.01	2449.37
851.18	2465.75
851.35	2371.55
851.52	2525.15
851.69	2705.37
851.86	2283.49
852.03	2394.08
852.20	2504.67
852.37	2457.56
852.53	2291.68
852.70	2326.49
852.87	2496.47
853.04	2564.06
853.21	2435.03
853.38	2512.86
853.55	2703.32
853.72	2584.54
853.89	2234.33
854.05	2250.72
854.22	2408.41
854.39	2437.08
854.56	2394.08
854.73	2535.39
854.90	2310.11
855.07	2447.32
855.23	2432.99
855.40	2398.17
855.57	2418.65
855.74	2240.48
855.91	2576.34
856.08	2246.62
856.25	2381.79
856.41	2439.13
856.58	2324.44
856.75	2467.80
856.92	2387.93
857.09	2602.97
857.26	2181.09
857.42	2441.18
857.59	2568.15
857.76	2428.89
857.93	2402.27
858.10	2461.66
858.27	2342.88
858.43	2492.38
858.60	2447.32
858.77	2201.57
858.94	2439.13
859.11	2611.16
859.27	2408.41
859.44	2367.45
859.61	2688.98
859.78	2482.14
859.95	2342.88
860.12	2361.31
860.28	2731.99
860.45	2703.32
860.62	2383.84
860.79	2416.60
860.95	2439.13
861.12	2359.26
861.29	2260.96
861.46	2351.07
861.63	2508.76
861.79	2504.67
861.96	2273.25
862.13	2387.93
862.30	2709.46
862.47	2414.56
862.63	2275.29
862.80	2504.67
862.97	2566.10
863.14	2654.17
863.30	2445.27
863.47	2291.68
863.64	2602.97
863.81	2531.29
863.97	2273.25
864.14	2447.32
864.31	2381.79
864.48	2441.18
864.65	2392.03
864.81	2510.81
864.98	2527.19
865.15	2615.26
865.32	2439.13
865.48	2537.43
865.65	2703.32
865.82	2369.50
865.98	2447.32
866.15	2455.51
866.32	2432.99
866.49	2351.07
866.65	2533.34
866.82	2330.59
866.99	2465.75
867.16	2349.02
867.32	2389.98
867.49	2318.30
867.66	2369.50
867.83	2453.47
867.99	2211.81
868.16	2400.22
868.33	2342.88
868.49	2449.37
868.66	2420.70
868.83	2449.37
868.99	2498.52
869.16	2506.71
869.33	2459.61
869.50	2490.33
869.66	2514.91
869.83	2404.32
870.00	2301.92
870.16	2521.05
870.33	2490.33
870.50	2525.15
870.66	2385.88
870.83	2420.70
871.00	2447.32
871.17	2490.33
871.33	2451.42
871.50	2349.02
871.67	2465.75
871.83	2297.82
872.00	2572.25
872.17	2408.41
872.33	2676.70
872.50	2637.78
872.67	2441.18
872.83	2324.44
873.00	2486.23
873.17	2514.91
873.33	2455.51
873.50	2453.47
873.67	2389.98
873.83	2340.83
874.00	2361.31
874.16	2527.19
874.33	2521.05
874.50	2355.16
874.66	2404.32
874.83	2381.79
875.00	2658.26
875.16	2623.45
875.33	2447.32
875.50	2238.43
875.66	2424.80
875.83	2465.75
875.99	2488.28
876.16	2424.80
876.33	2295.77
876.49	2435.03
876.66	2396.12
876.83	2369.50
876.99	2400.22
877.16	2394.08
877.32	2310.11
877.49	2408.41
877.66	2514.91
877.82	2627.54
877.99	2432.99
878.15	2564.06
878.32	2486.23
878.49	2510.81
878.65	2367.45
878.82	2596.82
878.98	2441.18
879.15	2566.10
879.32	2506.71
879.48	2478.04
879.65	2475.99
879.81	2406.36
879.98	2435.03
880.15	2334.68
880.31	2514.91
880.48	2373.60
880.64	2523.10
880.81	2441.18
880.97	2562.01
881.14	2609.11
881.31	2383.84
881.47	2592.73
881.64	2416.60
881.80	2256.86
881.97	2504.67
882.13	2457.56
882.30	2416.60
882.47	2369.50
882.63	2338.78
882.80	2293.72
882.96	2459.61
883.13	2637.78
883.29	2332.64
883.46	2424.80
883.62	2709.46
883.79	2449.37
883.95	2559.96
884.12	2392.03
884.29	2613.21
884.45	2559.96
884.62	2402.27
884.78	2293.72
884.95	2684.89
885.11	2428.89
885.28	2420.70
885.44	2379.74
885.61	2605.02
885.77	2629.59
885.94	2547.67
886.10	2398.17
886.27	2500.57
886.43	2662.36
886.60	2512.86
886.76	2408.41
886.93	2324.44
887.09	2492.38
887.26	2226.14
887.42	2482.14
887.59	2549.72
887.75	2834.39
887.92	2543.58
888.08	2572.25
888.25	2719.70
888.41	2559.96
888.58	2445.27
888.74	2346.97
888.91	2422.75
>>>>>End Processed Spectral Data<<<<<
