SpectraSuite Data File
++++++++++++++++++++++++++++++++++++
Date: Thu May 05 14:41:31 CEST 2016
User: root
Dark Spectrum Present: No
Reference Spectrum Present: No
Number of Sampled Component Spectra: 1
Spectrometers: USB4C02835
Integration Time (usec): 100000 (USB4C02835)
Spectra Averaged: 1 (USB4C02835)
Boxcar Smoothing: 0 (USB4C02835)
Correct for Electrical Dark: No (USB4C02835)
Strobe/Lamp Enabled: No (USB4C02835)
Correct for Detector Non-linearity: No (USB4C02835)
Correct for Stray Light: No (USB4C02835)
Number of Pixels in Processed Spectrum: 3648
>>>>>Begin Processed Spectral Data<<<<<
177.47	1898.47
177.69	1898.47
177.91	1898.47
178.13	1857.51
178.36	1931.23
178.58	2400.22
178.80	2537.43
179.02	2310.11
179.24	2392.03
179.46	2338.78
179.68	2410.46
179.90	2451.42
180.13	2461.66
180.35	2222.05
180.57	2338.78
180.79	2559.96
181.01	2529.24
181.23	2371.55
181.45	2453.47
181.67	2441.18
181.90	2584.54
182.12	2392.03
182.34	2273.25
182.56	2602.97
182.78	2570.20
183.00	2398.17
183.22	2424.80
183.44	2308.06
183.66	2840.53
183.89	2443.23
184.11	2346.97
184.33	2551.77
184.55	2625.50
184.77	2273.25
184.99	2369.50
185.21	2494.43
185.43	2803.67
185.65	2346.97
185.87	2342.88
186.10	2754.52
186.32	2768.85
186.54	2424.80
186.76	2465.75
186.98	2609.11
187.20	2475.99
187.42	2404.32
187.64	2420.70
187.86	2496.47
188.08	2674.65
188.30	2263.01
188.52	2381.79
188.75	2631.64
188.97	2627.54
189.19	2301.92
189.41	2295.77
189.63	2523.10
189.85	2392.03
190.07	2299.87
190.29	2215.90
190.51	2463.71
190.73	2332.64
190.95	2480.09
191.17	2379.74
191.39	2316.25
191.61	2426.84
191.84	2365.40
192.06	2447.32
192.28	2265.05
192.50	2813.91
192.72	2443.23
192.94	2328.54
193.16	2590.68
193.38	2478.04
193.60	2295.77
193.82	2359.26
194.04	2570.20
194.26	2621.40
194.48	2346.97
194.70	2275.29
194.92	2496.47
195.14	2414.56
195.36	2320.35
195.58	2365.40
195.80	2459.61
196.02	2383.84
196.24	2349.02
196.46	2430.94
196.69	2373.60
196.91	2791.38
197.13	2326.49
197.35	2312.16
197.57	2602.97
197.79	2547.67
198.01	2383.84
198.23	2445.27
198.45	2557.91
198.67	2330.59
198.89	2224.09
199.11	2432.99
199.33	2527.19
199.55	2215.90
199.77	2303.96
199.99	2504.67
200.21	2379.74
200.43	2545.63
200.65	2240.48
200.87	2215.90
201.09	2480.09
201.31	2490.33
201.53	2404.32
201.75	2359.26
201.97	2543.58
202.19	2400.22
202.41	2379.74
202.63	2521.05
202.85	2578.39
203.07	2521.05
203.29	2334.68
203.51	2275.29
203.73	2316.25
203.95	2809.81
204.17	2353.12
204.39	2459.61
204.61	2420.70
204.83	2410.46
205.05	2469.85
205.27	2367.45
205.49	2891.73
205.71	2500.57
205.93	2244.57
206.15	2265.05
206.37	2539.48
206.59	2475.99
206.81	2297.82
207.03	2281.44
207.25	2322.40
207.47	2645.98
207.69	2361.31
207.91	2570.20
208.13	2672.60
208.34	2367.45
208.56	2236.38
208.78	2338.78
209.00	2480.09
209.22	2377.69
209.44	2363.36
209.66	2342.88
209.88	2555.86
210.10	2496.47
210.32	2336.73
210.54	2422.75
210.76	2482.14
210.98	2557.91
211.20	2209.76
211.42	2502.62
211.64	2584.54
211.86	2535.39
212.08	2432.99
212.30	2351.07
212.52	2478.04
212.74	2463.71
212.96	2392.03
213.17	2371.55
213.39	2600.92
213.61	2713.56
213.83	2373.60
214.05	2428.89
214.27	2621.40
214.49	2355.16
214.71	2301.92
214.93	2475.99
215.15	2457.56
215.37	2660.31
215.59	2187.23
215.81	2426.84
216.03	2637.78
216.24	2514.91
216.46	2346.97
216.68	2412.51
216.90	2527.19
217.12	2543.58
217.34	2306.01
217.56	2457.56
217.78	2584.54
218.00	2572.25
218.22	2439.13
218.44	2416.60
218.66	2621.40
218.87	2723.80
219.09	2334.68
219.31	2402.27
219.53	2557.91
219.75	2373.60
219.97	2363.36
220.19	2355.16
220.41	2494.43
220.63	2682.84
220.85	2351.07
221.06	2297.82
221.28	2613.21
221.50	2605.02
221.72	2279.39
221.94	2426.84
222.16	2482.14
222.38	2596.82
222.60	2387.93
222.82	2363.36
223.03	2578.39
223.25	2402.27
223.47	2346.97
223.69	2514.91
223.91	2559.96
224.13	2457.56
224.35	2308.06
224.57	2510.81
224.78	2553.82
225.00	2394.08
225.22	2398.17
225.44	2289.63
225.66	2529.24
225.88	2416.60
226.10	2441.18
226.32	2340.83
226.53	2594.78
226.75	2416.60
226.97	2330.59
227.19	2326.49
227.41	2353.12
227.63	2406.36
227.85	2256.86
228.06	2369.50
228.28	2500.57
228.50	2570.20
228.72	2246.62
228.94	2312.16
229.16	2285.53
229.37	2303.96
229.59	2308.06
229.81	2547.67
230.03	2408.41
230.25	2359.26
230.47	2224.09
230.69	2285.53
230.90	2559.96
231.12	2387.93
231.34	2441.18
231.56	2449.37
231.78	2383.84
232.00	2447.32
232.21	2418.65
232.43	2363.36
232.65	2170.85
232.87	2549.72
233.09	2228.19
233.30	2273.25
233.52	2629.59
233.74	2523.10
233.96	2334.68
234.18	2486.23
234.40	2414.56
234.61	2738.13
234.83	2291.68
235.05	2217.95
235.27	2832.34
235.49	2596.82
235.70	2412.51
235.92	2371.55
236.14	2480.09
236.36	2777.05
236.58	2170.85
236.79	2482.14
237.01	2432.99
237.23	2400.22
237.45	2537.43
237.67	2338.78
237.88	2531.29
238.10	2736.09
238.32	2297.82
238.54	2344.92
238.76	2486.23
238.97	2420.70
239.19	2320.35
239.41	2404.32
239.63	2607.06
239.85	2303.96
240.06	2379.74
240.28	2324.44
240.50	2555.86
240.72	2471.90
240.93	2256.86
241.15	2453.47
241.37	2498.52
241.59	2668.50
241.81	2322.40
242.02	2447.32
242.24	2416.60
242.46	2629.59
242.68	2277.34
242.89	2328.54
243.11	2674.65
243.33	2510.81
243.55	2406.36
243.76	2435.03
243.98	2402.27
244.20	2451.42
244.42	2375.64
244.64	2351.07
244.85	2334.68
245.07	2387.93
245.29	2346.97
245.51	2371.55
245.72	2535.39
245.94	2627.54
246.16	2355.16
246.38	2355.16
246.59	2486.23
246.81	2291.68
247.03	2330.59
247.24	2234.33
247.46	2392.03
247.68	2482.14
247.90	2318.30
248.11	2326.49
248.33	2519.00
248.55	2459.61
248.77	2424.80
248.98	2463.71
249.20	2654.17
249.42	2506.71
249.64	2404.32
249.85	2359.26
250.07	2326.49
250.29	2531.29
250.50	2424.80
250.72	2312.16
250.94	2514.91
251.16	2752.47
251.37	2351.07
251.59	2430.94
251.81	2562.01
252.02	2670.55
252.24	2310.11
252.46	2475.99
252.68	2349.02
252.89	2453.47
253.11	2226.14
253.33	2523.10
253.54	2684.89
253.76	2365.40
253.98	2344.92
254.20	2342.88
254.41	2338.78
254.63	2435.03
254.85	2242.53
255.06	2371.55
255.28	2492.38
255.50	2381.79
255.71	2285.53
255.93	2211.81
256.15	2387.93
256.36	2539.48
256.58	2277.34
256.80	2367.45
257.02	2451.42
257.23	2445.27
257.45	2357.21
257.67	2439.13
257.88	2383.84
258.10	2562.01
258.32	2371.55
258.53	2443.23
258.75	2695.13
258.97	2387.93
259.18	2281.44
259.40	2367.45
259.62	2650.07
259.83	2676.70
260.05	2389.98
260.27	3000.27
260.48	2633.69
260.70	2400.22
260.92	2320.35
261.13	2387.93
261.35	2529.24
261.57	2527.19
261.78	2258.91
262.00	2320.35
262.22	2555.86
262.43	2377.69
262.65	2320.35
262.86	2344.92
263.08	2830.29
263.30	2443.23
263.51	2201.57
263.73	2375.64
263.95	2752.47
264.16	2394.08
264.38	2226.14
264.60	2432.99
264.81	2502.62
265.03	2594.78
265.25	2498.52
265.46	2275.29
265.68	2609.11
265.89	2584.54
266.11	2193.37
266.33	2396.12
266.54	2600.92
266.76	2609.11
266.98	2402.27
267.19	2447.32
267.41	2531.29
267.62	2457.56
267.84	2148.32
268.06	2502.62
268.27	2514.91
268.49	2613.21
268.70	2432.99
268.92	2297.82
269.14	2344.92
269.35	2285.53
269.57	2367.45
269.79	2459.61
270.00	2482.14
270.22	2725.85
270.43	2240.48
270.65	2176.99
270.87	2486.23
271.08	2564.06
271.30	2377.69
271.51	2260.96
271.73	2543.58
271.95	2703.32
272.16	2349.02
272.38	2424.80
272.59	2394.08
272.81	2467.80
273.02	2346.97
273.24	2392.03
273.46	2600.92
273.67	2330.59
273.89	2359.26
274.10	2332.64
274.32	2586.58
274.54	2471.90
274.75	2406.36
274.97	2373.60
275.18	2553.82
275.40	2611.16
275.61	2383.84
275.83	2473.95
276.05	2285.53
276.26	2506.71
276.48	2408.41
276.69	2332.64
276.91	2443.23
277.12	2592.73
277.34	2537.43
277.55	2605.02
277.77	2514.91
277.99	2373.60
278.20	2412.51
278.42	2338.78
278.63	2396.12
278.85	2387.93
279.06	2326.49
279.28	2494.43
279.49	2580.44
279.71	2564.06
279.93	2467.80
280.14	2439.13
280.36	2404.32
280.57	2551.77
280.79	2547.67
281.00	2387.93
281.22	2486.23
281.43	2564.06
281.65	2193.37
281.86	2351.07
282.08	2533.34
282.29	2717.65
282.51	2308.06
282.73	2275.29
282.94	2334.68
283.16	2555.86
283.37	2600.92
283.59	2496.47
283.80	2521.05
284.02	2381.79
284.23	2432.99
284.45	2385.88
284.66	2383.84
284.88	2361.31
285.09	2422.75
285.31	2551.77
285.52	2580.44
285.74	2277.34
285.95	2459.61
286.17	2449.37
286.38	2662.36
286.60	2432.99
286.81	2371.55
287.03	2432.99
287.24	2490.33
287.46	2467.80
287.67	2430.94
287.89	2707.41
288.10	2512.86
288.32	2494.43
288.53	2600.92
288.75	2457.56
288.96	2621.40
289.18	2430.94
289.39	2389.98
289.61	2441.18
289.82	2791.38
290.04	2721.75
290.25	2355.16
290.47	2457.56
290.68	2416.60
290.90	2635.74
291.11	2275.29
291.33	2494.43
291.54	2396.12
291.76	2414.56
291.97	2473.95
292.18	2457.56
292.40	2465.75
292.61	2379.74
292.83	2666.46
293.04	2482.14
293.26	2557.91
293.47	2510.81
293.69	2383.84
293.90	2428.89
294.12	2521.05
294.33	2529.24
294.55	2375.64
294.76	2519.00
294.97	2633.69
295.19	2762.71
295.40	2430.94
295.62	2494.43
295.83	2611.16
296.05	2373.60
296.26	2514.91
296.48	2404.32
296.69	2531.29
296.90	2385.88
297.12	2488.28
297.33	2605.02
297.55	2555.86
297.76	2633.69
297.98	2537.43
298.19	2432.99
298.41	2498.52
298.62	2457.56
298.83	2559.96
299.05	2555.86
299.26	2453.47
299.48	2324.44
299.69	2482.14
299.90	2400.22
300.12	2389.98
300.33	2643.93
300.55	2406.36
300.76	2449.37
300.98	2295.77
301.19	2580.44
301.40	2453.47
301.62	2355.16
301.83	2586.58
302.05	2506.71
302.26	2375.64
302.47	2512.86
302.69	2277.34
302.90	2557.91
303.12	2228.19
303.33	2572.25
303.54	2662.36
303.76	2414.56
303.97	2426.84
304.19	2590.68
304.40	2379.74
304.61	2580.44
304.83	2648.02
305.04	2553.82
305.26	2555.86
305.47	2494.43
305.68	2447.32
305.90	2316.25
306.11	2584.54
306.33	2494.43
306.54	2334.68
306.75	2351.07
306.97	2301.92
307.18	2410.46
307.39	2396.12
307.61	2494.43
307.82	2555.86
308.04	2531.29
308.25	2357.21
308.46	2461.66
308.68	2590.68
308.89	2406.36
309.10	2547.67
309.32	2461.66
309.53	2455.51
309.74	2693.08
309.96	2330.59
310.17	2543.58
310.39	2473.95
310.60	2627.54
310.81	2516.95
311.03	2338.78
311.24	2572.25
311.45	2496.47
311.67	2600.92
311.88	2461.66
312.09	2447.32
312.31	2426.84
312.52	2447.32
312.73	2430.94
312.95	2367.45
313.16	2367.45
313.37	2605.02
313.59	2494.43
313.80	2566.10
314.01	2674.65
314.23	2359.26
314.44	2314.20
314.65	2299.87
314.87	2342.88
315.08	2406.36
315.29	2379.74
315.51	2375.64
315.72	2346.97
315.93	2490.33
316.15	2469.85
316.36	2406.36
316.57	2430.94
316.79	2469.85
317.00	2346.97
317.21	2562.01
317.43	2422.75
317.64	2424.80
317.85	2377.69
318.07	2400.22
318.28	2510.81
318.49	2592.73
318.70	2641.88
318.92	2688.98
319.13	2695.13
319.34	2680.79
319.56	2430.94
319.77	2664.41
319.98	2645.98
320.20	2529.24
320.41	2543.58
320.62	2553.82
320.83	2400.22
321.05	2621.40
321.26	2457.56
321.47	2502.62
321.69	2613.21
321.90	2369.50
322.11	2357.21
322.32	2512.86
322.54	2613.21
322.75	2461.66
322.96	2873.30
323.18	2252.77
323.39	2195.42
323.60	2322.40
323.81	2545.63
324.03	2330.59
324.24	2496.47
324.45	2525.15
324.66	2379.74
324.88	2656.22
325.09	2635.74
325.30	2367.45
325.52	2359.26
325.73	2551.77
325.94	2447.32
326.15	2244.57
326.37	2344.92
326.58	2629.59
326.79	2662.36
327.00	2326.49
327.22	2461.66
327.43	2377.69
327.64	2420.70
327.85	2482.14
328.07	2416.60
328.28	2723.80
328.49	2404.32
328.70	2455.51
328.92	2412.51
329.13	2385.88
329.34	2590.68
329.55	2609.11
329.76	2514.91
329.98	2500.57
330.19	2629.59
330.40	2510.81
330.61	2512.86
330.83	2564.06
331.04	2463.71
331.25	2471.90
331.46	2432.99
331.68	2392.03
331.89	2633.69
332.10	2469.85
332.31	2334.68
332.52	2435.03
332.74	2648.02
332.95	2289.63
333.16	2412.51
333.37	2613.21
333.58	2420.70
333.80	2418.65
334.01	2301.92
334.22	2449.37
334.43	2346.97
334.64	2363.36
334.86	2367.45
335.07	2342.88
335.28	2598.87
335.49	2334.68
335.70	2473.95
335.92	2674.65
336.13	2820.05
336.34	2498.52
336.55	2416.60
336.76	2506.71
336.98	2236.38
337.19	2453.47
337.40	2578.39
337.61	2805.72
337.82	2459.61
338.04	2557.91
338.25	2238.43
338.46	2455.51
338.67	2445.27
338.88	2281.44
339.09	2340.83
339.31	2422.75
339.52	2326.49
339.73	2357.21
339.94	2301.92
340.15	2562.01
340.36	2443.23
340.58	2488.28
340.79	2301.92
341.00	2490.33
341.21	2306.01
341.42	2568.15
341.63	2424.80
341.85	2590.68
342.06	2469.85
342.27	2303.96
342.48	2473.95
342.69	2349.02
342.90	2574.30
343.12	2539.48
343.33	2297.82
343.54	2654.17
343.75	2670.55
343.96	2494.43
344.17	2371.55
344.38	2453.47
344.60	2383.84
344.81	2363.36
345.02	2428.89
345.23	2699.22
345.44	2818.00
345.65	2416.60
345.86	2432.99
346.07	2551.77
346.29	2426.84
346.50	2529.24
346.71	2467.80
346.92	2719.70
347.13	2781.14
347.34	2463.71
347.55	2338.78
347.76	2519.00
347.98	2379.74
348.19	2432.99
348.40	2543.58
348.61	2334.68
348.82	2643.93
349.03	2531.29
349.24	2303.96
349.45	2715.61
349.66	2273.25
349.88	2445.27
350.09	2349.02
350.30	2594.78
350.51	2559.96
350.72	2492.38
350.93	2416.60
351.14	2441.18
351.35	2605.02
351.56	2432.99
351.77	2510.81
351.99	2584.54
352.20	2686.94
352.41	2613.21
352.62	2285.53
352.83	2521.05
353.04	2424.80
353.25	2435.03
353.46	2467.80
353.67	2617.30
353.88	2297.82
354.09	2424.80
354.30	2396.12
354.52	2572.25
354.73	2445.27
354.94	2375.64
355.15	2408.41
355.36	2707.41
355.57	2449.37
355.78	2414.56
355.99	2338.78
356.20	2406.36
356.41	2619.35
356.62	2539.48
356.83	2504.67
357.04	2672.60
357.25	2242.53
357.46	2383.84
357.68	2299.87
357.89	2334.68
358.10	2551.77
358.31	2408.41
358.52	2363.36
358.73	2408.41
358.94	2359.26
359.15	2441.18
359.36	2422.75
359.57	2516.95
359.78	2447.32
359.99	2445.27
360.20	2404.32
360.41	2482.14
360.62	2521.05
360.83	2463.71
361.04	2414.56
361.25	2488.28
361.46	2592.73
361.67	2598.87
361.88	2439.13
362.09	2611.16
362.30	2365.40
362.51	2359.26
362.72	2422.75
362.93	2562.01
363.14	2574.30
363.35	2449.37
363.56	2338.78
363.78	2658.26
363.99	2539.48
364.20	2324.44
364.41	2449.37
364.62	2742.23
364.83	2469.85
365.04	2412.51
365.25	2416.60
365.46	2777.05
365.67	2289.63
365.88	2400.22
366.09	2381.79
366.30	2463.71
366.51	2543.58
366.72	2334.68
366.93	2342.88
367.14	2455.51
367.35	2625.50
367.56	2394.08
367.77	2527.19
367.98	2471.90
368.18	2564.06
368.39	2523.10
368.60	2310.11
368.81	2541.53
369.02	2529.24
369.23	2449.37
369.44	2377.69
369.65	2404.32
369.86	2545.63
370.07	2559.96
370.28	2299.87
370.49	2645.98
370.70	2523.10
370.91	2322.40
371.12	2308.06
371.33	2637.78
371.54	2418.65
371.75	2594.78
371.96	2205.66
372.17	2471.90
372.38	2441.18
372.59	2416.60
372.80	2396.12
373.01	2453.47
373.22	2463.71
373.43	2410.46
373.64	2344.92
373.85	2654.17
374.06	2666.46
374.26	2588.63
374.47	2490.33
374.68	2658.26
374.89	2504.67
375.10	2441.18
375.31	2490.33
375.52	2523.10
375.73	2445.27
375.94	2392.03
376.15	2635.74
376.36	2392.03
376.57	2457.56
376.78	2424.80
376.99	2480.09
377.20	2662.36
377.40	2469.85
377.61	2682.84
377.82	2285.53
378.03	2619.35
378.24	2496.47
378.45	2420.70
378.66	2414.56
378.87	2211.81
379.08	2308.06
379.29	2340.83
379.50	2559.96
379.71	2504.67
379.91	2637.78
380.12	2422.75
380.33	2525.15
380.54	2510.81
380.75	2461.66
380.96	2447.32
381.17	2543.58
381.38	2469.85
381.59	2500.57
381.80	2445.27
382.00	2645.98
382.21	2551.77
382.42	2746.33
382.63	2668.50
382.84	2613.21
383.05	2596.82
383.26	2641.88
383.47	2523.10
383.68	2555.86
383.88	2572.25
384.09	2578.39
384.30	2678.74
384.51	2482.14
384.72	2396.12
384.93	2355.16
385.14	2557.91
385.35	2523.10
385.55	2342.88
385.76	2668.50
385.97	2408.41
386.18	2355.16
386.39	2441.18
386.60	2402.27
386.81	2447.32
387.02	2312.16
387.22	2258.91
387.43	2633.69
387.64	2553.82
387.85	2627.54
388.06	2670.55
388.27	4222.91
388.48	8447.87
388.68	12191.56
388.89	14673.70
389.10	15814.41
389.31	14966.56
389.52	11616.08
389.73	9920.36
389.93	9117.56
390.14	8337.28
390.35	7436.17
390.56	6561.69
390.77	5357.49
390.98	4155.33
391.18	3514.31
391.39	2994.13
391.60	2539.48
391.81	2609.11
392.02	2451.42
392.23	2729.94
392.43	2512.86
392.64	2529.24
392.85	2394.08
393.06	2754.52
393.27	2465.75
393.47	2396.12
393.68	2449.37
393.89	2338.78
394.10	2617.30
394.31	2338.78
394.52	2285.53
394.72	2414.56
394.93	2731.99
395.14	2346.97
395.35	2596.82
395.56	2461.66
395.76	2519.00
395.97	2461.66
396.18	2586.58
396.39	2547.67
396.60	2990.03
396.80	2637.78
397.01	2572.25
397.22	2664.41
397.43	2822.10
397.64	2340.83
397.84	2592.73
398.05	2805.72
398.26	2602.97
398.47	2523.10
398.67	2631.64
398.88	2482.14
399.09	2584.54
399.30	2480.09
399.51	2547.67
399.71	2308.06
399.92	2516.95
400.13	2437.08
400.34	2375.64
400.54	2539.48
400.75	2670.55
400.96	2443.23
401.17	2652.12
401.37	2527.19
401.58	2496.47
401.79	2443.23
402.00	2539.48
402.21	2887.64
402.41	2711.51
402.62	2803.67
402.83	2899.92
403.04	2949.08
403.24	3112.91
403.45	2600.92
403.66	2740.18
403.87	2635.74
404.07	2723.80
404.28	2645.98
404.49	2736.09
404.70	2654.17
404.90	2613.21
405.11	2463.71
405.32	2572.25
405.52	2549.72
405.73	2441.18
405.94	2394.08
406.15	2428.89
406.35	2498.52
406.56	2539.48
406.77	2498.52
406.98	2590.68
407.18	2328.54
407.39	2629.59
407.60	2400.22
407.80	2541.53
408.01	2449.37
408.22	2443.23
408.43	2400.22
408.63	2506.71
408.84	2590.68
409.05	2527.19
409.25	2357.21
409.46	2408.41
409.67	2404.32
409.88	2351.07
410.08	2480.09
410.29	2457.56
410.50	2557.91
410.70	2596.82
410.91	2367.45
411.12	2498.52
411.32	2482.14
411.53	2308.06
411.74	2539.48
411.95	2547.67
412.15	2547.67
412.36	2635.74
412.57	2555.86
412.77	2559.96
412.98	2439.13
413.19	2416.60
413.39	2478.04
413.60	2486.23
413.81	2686.94
414.01	2367.45
414.22	2473.95
414.43	2478.04
414.63	2420.70
414.84	2531.29
415.05	2396.12
415.25	2320.35
415.46	2531.29
415.67	2455.51
415.87	2441.18
416.08	2428.89
416.29	2457.56
416.49	2580.44
416.70	2363.36
416.91	2389.98
417.11	2471.90
417.32	2557.91
417.53	2543.58
417.73	2504.67
417.94	2394.08
418.15	2564.06
418.35	2439.13
418.56	2510.81
418.77	2738.13
418.97	2523.10
419.18	2486.23
419.38	2179.04
419.59	2457.56
419.80	2678.74
420.00	2445.27
420.21	2457.56
420.42	2586.58
420.62	2494.43
420.83	2400.22
421.04	2365.40
421.24	2437.08
421.45	2596.82
421.65	2539.48
421.86	2377.69
422.07	2596.82
422.27	2572.25
422.48	2439.13
422.69	2351.07
422.89	2519.00
423.10	2445.27
423.30	2400.22
423.51	2455.51
423.72	2463.71
423.92	2576.34
424.13	2430.94
424.33	2455.51
424.54	2605.02
424.75	2482.14
424.95	2686.94
425.16	2500.57
425.36	2435.03
425.57	2625.50
425.78	2527.19
425.98	2592.73
426.19	2478.04
426.39	2451.42
426.60	2504.67
426.81	2615.26
427.01	2519.00
427.22	2504.67
427.42	2324.44
427.63	2406.36
427.83	2629.59
428.04	2715.61
428.25	2553.82
428.45	2598.87
428.66	2650.07
428.86	2525.15
429.07	2373.60
429.28	2521.05
429.48	2416.60
429.69	2371.55
429.89	2525.15
430.10	2377.69
430.30	2588.63
430.51	2660.31
430.71	2349.02
430.92	2494.43
431.13	2512.86
431.33	2521.05
431.54	2506.71
431.74	2652.12
431.95	2748.37
432.15	2367.45
432.36	2465.75
432.56	2531.29
432.77	2684.89
432.98	2693.08
433.18	2453.47
433.39	2383.84
433.59	2406.36
433.80	2686.94
434.00	2631.64
434.21	2482.14
434.41	2400.22
434.62	2779.09
434.82	2375.64
435.03	2402.27
435.23	2547.67
435.44	2299.87
435.64	2377.69
435.85	2465.75
436.06	2537.43
436.26	2576.34
436.47	2432.99
436.67	2353.12
436.88	2504.67
437.08	2645.98
437.29	2643.93
437.49	2455.51
437.70	2645.98
437.90	2469.85
438.11	2668.50
438.31	2488.28
438.52	2793.43
438.72	2652.12
438.93	2783.19
439.13	2514.91
439.34	2697.17
439.54	2578.39
439.75	2574.30
439.95	2482.14
440.16	2451.42
440.36	2523.10
440.57	2512.86
440.77	2420.70
440.98	2545.63
441.18	2504.67
441.39	2367.45
441.59	2295.77
441.80	2719.70
442.00	2494.43
442.21	2580.44
442.41	2326.49
442.62	2586.58
442.82	2375.64
443.02	2461.66
443.23	2424.80
443.43	2519.00
443.64	2627.54
443.84	2389.98
444.05	2605.02
444.25	2473.95
444.46	2451.42
444.66	2482.14
444.87	2762.71
445.07	2277.34
445.28	2441.18
445.48	2588.63
445.69	2488.28
445.89	2793.43
446.09	2625.50
446.30	2750.42
446.50	2985.94
446.71	4597.69
446.91	5730.22
447.12	6791.06
447.32	7016.34
447.53	6666.14
447.73	5468.08
447.93	4890.55
448.14	4560.83
448.34	4526.01
448.55	3827.65
448.75	3762.12
448.96	3567.56
449.16	3276.75
449.36	3119.06
449.57	2766.81
449.77	2545.63
449.98	2457.56
450.18	2576.34
450.39	2498.52
450.59	2596.82
450.79	2512.86
451.00	2422.75
451.20	2584.54
451.41	2465.75
451.61	2531.29
451.81	2445.27
452.02	2437.08
452.22	2367.45
452.43	2371.55
452.63	2357.21
452.84	2521.05
453.04	2398.17
453.24	2512.86
453.45	2385.88
453.65	2457.56
453.86	2492.38
454.06	2486.23
454.26	2553.82
454.47	2387.93
454.67	2555.86
454.87	2541.53
455.08	2527.19
455.28	2559.96
455.49	2525.15
455.69	2375.64
455.89	2723.80
456.10	2512.86
456.30	2488.28
456.51	2582.49
456.71	2510.81
456.91	2457.56
457.12	2471.90
457.32	2488.28
457.52	2404.32
457.73	2586.58
457.93	2559.96
458.14	2519.00
458.34	2306.01
458.54	2469.85
458.75	2494.43
458.95	2613.21
459.15	2408.41
459.36	2437.08
459.56	2441.18
459.76	2764.76
459.97	2506.71
460.17	2449.37
460.37	2580.44
460.58	2506.71
460.78	2584.54
460.99	2387.93
461.19	2473.95
461.39	2482.14
461.60	2504.67
461.80	2531.29
462.00	2363.36
462.21	2543.58
462.41	2371.55
462.61	2316.25
462.82	2369.50
463.02	2572.25
463.22	2580.44
463.43	2539.48
463.63	2473.95
463.83	2662.36
464.04	2553.82
464.24	2392.03
464.44	2408.41
464.64	2488.28
464.85	2672.60
465.05	2455.51
465.25	2437.08
465.46	2392.03
465.66	2643.93
465.86	2531.29
466.07	2475.99
466.27	2562.01
466.47	2377.69
466.68	2293.72
466.88	2621.40
467.08	2562.01
467.29	2562.01
467.49	2523.10
467.69	2486.23
467.89	2539.48
468.10	2535.39
468.30	2447.32
468.50	2621.40
468.71	2627.54
468.91	2379.74
469.11	2652.12
469.31	2510.81
469.52	2310.11
469.72	2703.32
469.92	2609.11
470.13	2480.09
470.33	2510.81
470.53	2615.26
470.73	2834.39
470.94	3309.52
471.14	3510.22
471.34	3909.57
471.54	3815.37
471.75	3284.94
471.95	3188.69
472.15	2959.31
472.36	3014.61
472.56	2918.36
472.76	2959.31
472.96	2924.50
473.17	2887.64
473.37	2709.46
473.57	2521.05
473.77	2592.73
473.98	2512.86
474.18	2328.54
474.38	2883.54
474.58	2443.23
474.79	2392.03
474.99	2521.05
475.19	2590.68
475.39	2412.51
475.60	2535.39
475.80	2482.14
476.00	2512.86
476.20	2400.22
476.41	2527.19
476.61	2555.86
476.81	2631.64
477.01	2392.03
477.21	2666.46
477.42	2611.16
477.62	2375.64
477.82	2600.92
478.02	2430.94
478.23	2498.52
478.43	2369.50
478.63	2453.47
478.83	2502.62
479.03	2453.47
479.24	2715.61
479.44	2695.13
479.64	2408.41
479.84	2203.61
480.04	2414.56
480.25	2576.34
480.45	2408.41
480.65	2490.33
480.85	2666.46
481.06	2406.36
481.26	2455.51
481.46	2457.56
481.66	2613.21
481.86	2451.42
482.06	2570.20
482.27	2441.18
482.47	2449.37
482.67	2580.44
482.87	2381.79
483.07	2531.29
483.28	2346.97
483.48	2303.96
483.68	2455.51
483.88	2373.60
484.08	2258.91
484.29	2375.64
484.49	2453.47
484.69	2336.73
484.89	2705.37
485.09	2686.94
485.29	2537.43
485.50	2521.05
485.70	2447.32
485.90	2670.55
486.10	2482.14
486.30	2469.85
486.50	2631.64
486.71	2600.92
486.91	2514.91
487.11	2650.07
487.31	2371.55
487.51	2541.53
487.71	2430.94
487.91	2320.35
488.12	2457.56
488.32	2228.19
488.52	2432.99
488.72	2232.29
488.92	2547.67
489.12	2592.73
489.32	2662.36
489.53	2449.37
489.73	2342.88
489.93	2680.79
490.13	2326.49
490.33	2293.72
490.53	2510.81
490.73	2645.98
490.94	2316.25
491.14	2529.24
491.34	2693.08
491.54	2727.89
491.74	3432.40
491.94	3997.64
492.14	4323.26
492.34	4495.29
492.54	4022.21
492.75	3598.28
492.95	3567.56
493.15	3270.61
493.35	3151.82
493.55	3067.86
493.75	2891.73
493.95	3014.61
494.15	2764.76
494.35	2547.67
494.56	2588.63
494.76	2471.90
494.96	2568.15
495.16	2484.19
495.36	2502.62
495.56	2490.33
495.76	2432.99
495.96	2465.75
496.16	2359.26
496.36	2709.46
496.56	2473.95
496.77	2535.39
496.97	2465.75
497.17	2645.98
497.37	2273.25
497.57	2537.43
497.77	2512.86
497.97	2375.64
498.17	2490.33
498.37	2396.12
498.57	2432.99
498.77	2432.99
498.97	2537.43
499.17	2660.31
499.38	2502.62
499.58	2545.63
499.78	2564.06
499.98	2629.59
500.18	2447.32
500.38	2428.89
500.58	2744.28
500.78	3143.63
500.98	5455.79
501.18	7561.10
501.38	9174.90
501.58	10184.55
501.78	10186.60
501.98	8157.06
502.18	6672.28
502.38	5758.89
502.58	5377.97
502.78	4999.09
502.98	4816.82
503.18	4364.22
503.38	4093.89
503.59	3497.93
503.79	3368.91
503.99	3215.31
504.19	3030.99
504.39	3086.29
504.59	3100.62
504.79	3059.67
504.99	3104.72
505.19	2846.68
505.39	2715.61
505.59	2938.84
505.79	2830.29
505.99	2680.79
506.19	2564.06
506.39	2736.09
506.59	2473.95
506.79	2514.91
506.99	2635.74
507.19	2457.56
507.39	2504.67
507.59	2342.88
507.79	2437.08
507.99	2459.61
508.19	2463.71
508.39	2457.56
508.59	2559.96
508.79	2609.11
508.99	2666.46
509.19	2389.98
509.39	2514.91
509.59	2416.60
509.79	2424.80
509.99	2555.86
510.19	2594.78
510.39	2492.38
510.59	2537.43
510.79	2457.56
510.99	2346.97
511.19	2441.18
511.39	2705.37
511.59	2693.08
511.79	2633.69
511.99	2480.09
512.19	2727.89
512.38	2541.53
512.58	2314.20
512.78	2416.60
512.98	2621.40
513.18	2654.17
513.38	2359.26
513.58	2498.52
513.78	2498.52
513.98	2486.23
514.18	2410.46
514.38	2437.08
514.58	2574.30
514.78	2494.43
514.98	2326.49
515.18	2414.56
515.38	2289.63
515.58	2748.37
515.78	2396.12
515.98	2387.93
516.18	2625.50
516.38	2512.86
516.57	2322.40
516.77	2465.75
516.97	2564.06
517.17	2453.47
517.37	2330.59
517.57	2592.73
517.77	2467.80
517.97	2381.79
518.17	2588.63
518.37	2373.60
518.57	2428.89
518.77	2455.51
518.97	2480.09
519.16	2463.71
519.36	2670.55
519.56	2435.03
519.76	2457.56
519.96	2535.39
520.16	2602.97
520.36	2365.40
520.56	2629.59
520.76	2387.93
520.96	2510.81
521.16	2478.04
521.35	2623.45
521.55	2645.98
521.75	2566.10
521.95	2469.85
522.15	2439.13
522.35	2283.49
522.55	2453.47
522.75	2576.34
522.95	2392.03
523.14	2375.64
523.34	2459.61
523.54	2428.89
523.74	2531.29
523.94	2523.10
524.14	2306.01
524.34	2475.99
524.54	2650.07
524.73	2404.32
524.93	2637.78
525.13	2543.58
525.33	2314.20
525.53	2719.70
525.73	2533.34
525.93	2578.39
526.13	2416.60
526.32	2387.93
526.52	2666.46
526.72	2562.01
526.92	2449.37
527.12	2443.23
527.32	2359.26
527.52	2586.58
527.71	2545.63
527.91	2443.23
528.11	2447.32
528.31	2422.75
528.51	2379.74
528.71	2519.00
528.90	2537.43
529.10	2629.59
529.30	2498.52
529.50	2211.81
529.70	2426.84
529.90	2527.19
530.09	2461.66
530.29	2334.68
530.49	2359.26
530.69	2793.43
530.89	2469.85
531.09	2482.14
531.28	2457.56
531.48	2658.26
531.68	2490.33
531.88	2490.33
532.08	2490.33
532.28	2449.37
532.47	2588.63
532.67	2494.43
532.87	2498.52
533.07	2400.22
533.27	2576.34
533.46	2467.80
533.66	2512.86
533.86	2564.06
534.06	2486.23
534.26	2486.23
534.45	2428.89
534.65	2645.98
534.85	2504.67
535.05	2371.55
535.25	2629.59
535.44	2322.40
535.64	2570.20
535.84	2500.57
536.04	2443.23
536.24	2375.64
536.43	2340.83
536.63	2406.36
536.83	2449.37
537.03	2545.63
537.22	2281.44
537.42	2344.92
537.62	2496.47
537.82	2404.32
538.02	2574.30
538.21	2570.20
538.41	2914.26
538.61	2519.00
538.81	2400.22
539.00	2621.40
539.20	2377.69
539.40	2430.94
539.60	2471.90
539.79	2564.06
539.99	2480.09
540.19	2379.74
540.39	2441.18
540.58	2578.39
540.78	2674.65
540.98	2424.80
541.18	2605.02
541.37	2545.63
541.57	2426.84
541.77	2523.10
541.97	2353.12
542.16	2344.92
542.36	2564.06
542.56	2465.75
542.76	2619.35
542.95	2527.19
543.15	2572.25
543.35	2627.54
543.54	2367.45
543.74	2430.94
543.94	2682.84
544.14	2441.18
544.33	2473.95
544.53	2441.18
544.73	2488.28
544.93	2418.65
545.12	2447.32
545.32	2473.95
545.52	2539.48
545.71	2338.78
545.91	2428.89
546.11	2457.56
546.30	2344.92
546.50	2467.80
546.70	2430.94
546.90	2617.30
547.09	2293.72
547.29	2486.23
547.49	2580.44
547.68	2410.46
547.88	2426.84
548.08	2512.86
548.27	2908.12
548.47	2453.47
548.67	2324.44
548.87	2533.34
549.06	2441.18
549.26	2428.89
549.46	2645.98
549.65	2400.22
549.85	2467.80
550.05	2578.39
550.24	2291.68
550.44	2482.14
550.64	2455.51
550.83	2506.71
551.03	2652.12
551.23	2598.87
551.42	2572.25
551.62	2496.47
551.82	2455.51
552.01	2467.80
552.21	2703.32
552.41	2582.49
552.60	2703.32
552.80	2527.19
553.00	2463.71
553.19	2471.90
553.39	2680.79
553.59	2402.27
553.78	2543.58
553.98	2467.80
554.17	2416.60
554.37	2543.58
554.57	2545.63
554.76	2349.02
554.96	2396.12
555.16	2629.59
555.35	2490.33
555.55	2529.24
555.75	2502.62
555.94	2609.11
556.14	2285.53
556.33	2439.13
556.53	2527.19
556.73	2553.82
556.92	2553.82
557.12	2535.39
557.32	2652.12
557.51	2652.12
557.71	2496.47
557.90	2609.11
558.10	2605.02
558.30	2527.19
558.49	2396.12
558.69	2480.09
558.88	2519.00
559.08	2437.08
559.28	2471.90
559.47	2480.09
559.67	2547.67
559.86	2766.81
560.06	2461.66
560.26	2457.56
560.45	2525.15
560.65	2416.60
560.84	2645.98
561.04	2322.40
561.24	2514.91
561.43	2381.79
561.63	2684.89
561.82	2519.00
562.02	2531.29
562.22	2410.46
562.41	2430.94
562.61	2369.50
562.80	2455.51
563.00	2711.51
563.19	2494.43
563.39	2521.05
563.59	2652.12
563.78	2334.68
563.98	2267.10
564.17	2461.66
564.37	2291.68
564.56	2473.95
564.76	2351.07
564.96	2576.34
565.15	2580.44
565.35	2797.53
565.54	2424.80
565.74	2510.81
565.93	2580.44
566.13	2527.19
566.32	2502.62
566.52	2475.99
566.71	2527.19
566.91	2635.74
567.11	2609.11
567.30	2406.36
567.50	2559.96
567.69	2525.15
567.89	2394.08
568.08	2383.84
568.28	2441.18
568.47	2351.07
568.67	2471.90
568.86	2435.03
569.06	2523.10
569.25	2521.05
569.45	2283.49
569.64	2377.69
569.84	2428.89
570.04	2547.67
570.23	2394.08
570.43	2447.32
570.62	2426.84
570.82	2643.93
571.01	2351.07
571.21	2408.41
571.40	2424.80
571.60	2615.26
571.79	2482.14
571.99	2447.32
572.18	2363.36
572.38	2588.63
572.57	2383.84
572.77	2496.47
572.96	2822.10
573.16	2498.52
573.35	2443.23
573.55	2676.70
573.74	2570.20
573.94	2410.46
574.13	2418.65
574.33	2572.25
574.52	2621.40
574.71	2596.82
574.91	2519.00
575.10	2320.35
575.30	2435.03
575.49	2322.40
575.69	2387.93
575.88	2600.92
576.08	2484.19
576.27	2680.79
576.47	2525.15
576.66	2645.98
576.86	2756.57
577.05	2529.24
577.25	2625.50
577.44	2717.65
577.64	2412.51
577.83	2641.88
578.02	2480.09
578.22	2551.77
578.41	2680.79
578.61	2531.29
578.80	2283.49
579.00	2514.91
579.19	2512.86
579.39	2627.54
579.58	2652.12
579.77	2449.37
579.97	2643.93
580.16	2643.93
580.36	2705.37
580.55	2580.44
580.75	2592.73
580.94	2576.34
581.13	2635.74
581.33	2680.79
581.52	2453.47
581.72	2815.96
581.91	2660.31
582.11	2437.08
582.30	2605.02
582.49	2514.91
582.69	2736.09
582.88	2582.49
583.08	2568.15
583.27	2643.93
583.47	2527.19
583.66	2408.41
583.85	2426.84
584.05	2469.85
584.24	2545.63
584.44	2605.02
584.63	2695.13
584.82	2654.17
585.02	2605.02
585.21	2602.97
585.41	2660.31
585.60	2645.98
585.79	2699.22
585.99	2713.56
586.18	2668.50
586.37	3321.81
586.57	4954.04
586.76	15107.87
586.96	34297.33
587.15	47641.90
587.34	56820.89
587.54	61572.18
587.73	55735.47
587.93	39087.53
588.12	29560.38
588.31	23842.45
588.51	21112.51
588.70	19271.39
588.89	17422.07
589.09	14872.35
589.28	12871.48
589.47	10198.88
589.67	7929.74
589.86	6045.60
590.06	4597.69
590.25	3979.20
590.44	3284.94
590.64	3061.71
590.83	2848.72
591.02	2754.52
591.22	2592.73
591.41	2549.72
591.60	2478.04
591.80	2836.44
591.99	2424.80
592.18	2498.52
592.38	2641.88
592.57	2461.66
592.76	2537.43
592.96	2525.15
593.15	2500.57
593.34	2703.32
593.54	2410.46
593.73	2615.26
593.92	2650.07
594.12	2551.77
594.31	2514.91
594.50	2715.61
594.70	2547.67
594.89	2850.77
595.08	2365.40
595.28	2629.59
595.47	2940.88
595.66	2615.26
595.86	2432.99
596.05	2383.84
596.24	2453.47
596.43	2684.89
596.63	2645.98
596.82	2576.34
597.01	2500.57
597.21	2715.61
597.40	2523.10
597.59	2461.66
597.79	2547.67
597.98	2568.15
598.17	2539.48
598.36	2555.86
598.56	2619.35
598.75	2445.27
598.94	2498.52
599.14	2609.11
599.33	2529.24
599.52	2660.31
599.71	2529.24
599.91	2605.02
600.10	2619.35
600.29	2392.03
600.48	2564.06
600.68	2635.74
600.87	2523.10
601.06	2455.51
601.26	2480.09
601.45	2539.48
601.64	2480.09
601.83	2652.12
602.03	2432.99
602.22	2330.59
602.41	2617.30
602.60	2830.29
602.80	2533.34
602.99	2441.18
603.18	2387.93
603.37	2457.56
603.57	2510.81
603.76	2480.09
603.95	2654.17
604.14	2410.46
604.34	2371.55
604.53	2488.28
604.72	2580.44
604.91	2592.73
605.10	2490.33
605.30	2297.82
605.49	2676.70
605.68	2539.48
605.87	2486.23
606.07	2410.46
606.26	2559.96
606.45	2580.44
606.64	2588.63
606.84	2381.79
607.03	2531.29
607.22	2695.13
607.41	2463.71
607.60	2424.80
607.80	2648.02
607.99	2445.27
608.18	2496.47
608.37	2578.39
608.56	2463.71
608.76	2605.02
608.95	2629.59
609.14	2570.20
609.33	2719.70
609.52	2703.32
609.72	2631.64
609.91	2602.97
610.10	2482.14
610.29	2715.61
610.48	2594.78
610.68	2521.05
610.87	2482.14
611.06	2652.12
611.25	2439.13
611.44	2627.54
611.63	2455.51
611.83	2711.51
612.02	2398.17
612.21	2613.21
612.40	2301.92
612.59	2334.68
612.79	2396.12
612.98	2521.05
613.17	2678.74
613.36	2539.48
613.55	2664.41
613.74	2545.63
613.93	2668.50
614.13	2688.98
614.32	2781.14
614.51	2740.18
614.70	2676.70
614.89	2529.24
615.08	2637.78
615.28	2998.23
615.47	2465.75
615.66	2629.59
615.85	2549.72
616.04	2703.32
616.23	2555.86
616.42	2572.25
616.62	2506.71
616.81	2559.96
617.00	2588.63
617.19	2547.67
617.38	2480.09
617.57	2496.47
617.76	2562.01
617.95	2656.22
618.15	2623.45
618.34	2629.59
618.53	2349.02
618.72	2529.24
618.91	2574.30
619.10	2570.20
619.29	2523.10
619.48	2488.28
619.68	2326.49
619.87	2449.37
620.06	2324.44
620.25	2553.82
620.44	2359.26
620.63	2437.08
620.82	2506.71
621.01	2547.67
621.20	2469.85
621.39	2580.44
621.59	2592.73
621.78	2484.19
621.97	2516.95
622.16	2461.66
622.35	2506.71
622.54	2656.22
622.73	2547.67
622.92	2244.57
623.11	2514.91
623.30	2516.95
623.49	2541.53
623.68	2424.80
623.88	2701.27
624.07	2488.28
624.26	2463.71
624.45	2484.19
624.64	2441.18
624.83	2459.61
625.02	2459.61
625.21	2416.60
625.40	2537.43
625.59	2605.02
625.78	2465.75
625.97	2586.58
626.16	2709.46
626.35	2650.07
626.54	2576.34
626.74	2691.03
626.93	2549.72
627.12	2539.48
627.31	2674.65
627.50	2543.58
627.69	2621.40
627.88	2418.65
628.07	2428.89
628.26	2330.59
628.45	2463.71
628.64	2316.25
628.83	2492.38
629.02	2404.32
629.21	2551.77
629.40	2529.24
629.59	2455.51
629.78	2484.19
629.97	2447.32
630.16	2506.71
630.35	2422.75
630.54	2490.33
630.73	2394.08
630.92	2519.00
631.11	2447.32
631.30	2451.42
631.49	2623.45
631.68	2484.19
631.87	2465.75
632.06	2406.36
632.25	2873.30
632.44	2557.91
632.63	2529.24
632.82	2463.71
633.01	2430.94
633.20	2602.97
633.39	2576.34
633.58	2387.93
633.77	2547.67
633.96	2643.93
634.15	2519.00
634.34	2535.39
634.53	2609.11
634.72	2432.99
634.91	2392.03
635.10	2564.06
635.29	2543.58
635.48	2559.96
635.67	2424.80
635.86	2344.92
636.05	2645.98
636.24	2506.71
636.43	2418.65
636.62	2510.81
636.81	2224.09
637.00	2572.25
637.19	2508.76
637.38	2441.18
637.57	2486.23
637.76	2537.43
637.95	2717.65
638.14	2551.77
638.33	2545.63
638.52	2621.40
638.71	2404.32
638.89	2408.41
639.08	2899.92
639.27	2709.46
639.46	2883.54
639.65	3172.30
639.84	3168.21
640.03	3350.48
640.22	3248.08
640.41	3170.26
640.60	2834.39
640.79	2797.53
640.98	2723.80
641.17	2738.13
641.36	2731.99
641.55	2680.79
641.74	2516.95
641.92	2404.32
642.11	2547.67
642.30	2531.29
642.49	2400.22
642.68	2457.56
642.87	2576.34
643.06	2531.29
643.25	2383.84
643.44	2351.07
643.63	2529.24
643.82	2607.06
644.00	2310.11
644.19	2510.81
644.38	2314.20
644.57	2557.91
644.76	2531.29
644.95	2404.32
645.14	2506.71
645.33	2430.94
645.52	2473.95
645.71	2318.30
645.89	2381.79
646.08	2455.51
646.27	2437.08
646.46	2680.79
646.65	2322.40
646.84	2465.75
647.03	2269.15
647.22	2564.06
647.40	2480.09
647.59	2453.47
647.78	2408.41
647.97	2437.08
648.16	2375.64
648.35	2656.22
648.54	2588.63
648.73	2398.17
648.91	2592.73
649.10	2576.34
649.29	2367.45
649.48	2414.56
649.67	2545.63
649.86	2607.06
650.05	2555.86
650.23	2727.89
650.42	2562.01
650.61	2826.20
650.80	2656.22
650.99	2815.96
651.18	2668.50
651.36	2670.55
651.55	2484.19
651.74	2545.63
651.93	2418.65
652.12	2475.99
652.31	2533.34
652.49	2449.37
652.68	2473.95
652.87	2676.70
653.06	2496.47
653.25	2734.04
653.44	2525.15
653.62	2648.02
653.81	2516.95
654.00	2500.57
654.19	2596.82
654.38	2848.72
654.56	2500.57
654.75	2420.70
654.94	2572.25
655.13	2514.91
655.32	2437.08
655.51	2539.48
655.69	2453.47
655.88	2562.01
656.07	2324.44
656.26	2441.18
656.45	2351.07
656.63	2510.81
656.82	2539.48
657.01	2623.45
657.20	2463.71
657.38	2723.80
657.57	2400.22
657.76	2293.72
657.95	2580.44
658.14	2506.71
658.32	2404.32
658.51	2314.20
658.70	2521.05
658.89	2410.46
659.08	2406.36
659.26	2736.09
659.45	2453.47
659.64	2572.25
659.83	2449.37
660.01	2838.48
660.20	2531.29
660.39	2709.46
660.58	2250.72
660.76	2602.97
660.95	2383.84
661.14	2498.52
661.33	2357.21
661.51	2385.88
661.70	2439.13
661.89	2531.29
662.08	2406.36
662.26	2326.49
662.45	2398.17
662.64	2775.00
662.83	2580.44
663.01	2408.41
663.20	2445.27
663.39	2650.07
663.58	2412.51
663.76	2418.65
663.95	2592.73
664.14	2392.03
664.32	2449.37
664.51	2383.84
664.70	2334.68
664.89	2500.57
665.07	2324.44
665.26	2611.16
665.45	2367.45
665.64	2578.39
665.82	2512.86
666.01	2559.96
666.20	2418.65
666.38	2635.74
666.57	2676.70
666.76	3921.86
666.95	9748.33
667.13	18030.32
667.32	22619.81
667.51	26308.21
667.69	27764.31
667.88	24831.62
668.07	17268.47
668.25	14276.39
668.44	11870.03
668.63	10467.17
668.81	9293.68
669.00	7976.84
669.19	7040.92
669.38	6033.32
669.56	5248.94
669.75	4358.08
669.94	3801.03
670.12	3266.51
670.31	2908.12
670.50	2777.05
670.68	2760.66
670.87	2670.55
671.06	2519.00
671.24	2547.67
671.43	2795.48
671.62	2562.01
671.80	2447.32
671.99	2553.82
672.18	2531.29
672.36	2545.63
672.55	2510.81
672.74	2504.67
672.92	2455.51
673.11	2605.02
673.29	2334.68
673.48	2486.23
673.67	2389.98
673.85	2570.20
674.04	2422.75
674.23	2512.86
674.41	2660.31
674.60	2357.21
674.79	2287.58
674.97	2318.30
675.16	2605.02
675.34	2588.63
675.53	2363.36
675.72	2506.71
675.90	2703.32
676.09	2473.95
676.28	2496.47
676.46	2256.86
676.65	2541.53
676.83	2402.27
677.02	2523.10
677.21	2437.08
677.39	2449.37
677.58	2381.79
677.77	2420.70
677.95	2316.25
678.14	2404.32
678.32	2473.95
678.51	2447.32
678.70	2727.89
678.88	2467.80
679.07	2537.43
679.25	2430.94
679.44	2445.27
679.63	2316.25
679.81	2478.04
680.00	2580.44
680.18	2525.15
680.37	2703.32
680.55	2521.05
680.74	2416.60
680.93	2299.87
681.11	2471.90
681.30	2371.55
681.48	2508.76
681.67	2404.32
681.85	2527.19
682.04	2379.74
682.23	2605.02
682.41	2445.27
682.60	2430.94
682.78	2523.10
682.97	2381.79
683.15	2502.62
683.34	2512.86
683.53	2654.17
683.71	2351.07
683.90	2564.06
684.08	2648.02
684.27	2521.05
684.45	2570.20
684.64	2547.67
684.82	2523.10
685.01	2539.48
685.19	2439.13
685.38	2684.89
685.57	2527.19
685.75	2402.27
685.94	2402.27
686.12	2410.46
686.31	2459.61
686.49	2643.93
686.68	2267.10
686.86	2582.49
687.05	2471.90
687.23	2699.22
687.42	2398.17
687.60	2293.72
687.79	2641.88
687.97	2635.74
688.16	2568.15
688.34	2584.54
688.53	2289.63
688.71	2498.52
688.90	2547.67
689.08	2437.08
689.27	2248.67
689.45	2590.68
689.64	2566.10
689.82	2611.16
690.01	2572.25
690.19	2525.15
690.38	2504.67
690.56	2588.63
690.75	2392.03
690.93	2461.66
691.12	2365.40
691.30	2469.85
691.49	2516.95
691.67	2469.85
691.86	2703.32
692.04	2398.17
692.23	2541.53
692.41	2482.14
692.60	2793.43
692.78	2637.78
692.97	2607.06
693.15	2510.81
693.34	2697.17
693.52	2615.26
693.71	2402.27
693.89	2441.18
694.08	2330.59
694.26	2527.19
694.44	2564.06
694.63	2633.69
694.81	2342.88
695.00	2392.03
695.18	2547.67
695.37	2742.23
695.55	2469.85
695.74	2383.84
695.92	2422.75
696.10	2617.30
696.29	2351.07
696.47	2449.37
696.66	2326.49
696.84	2394.08
697.03	2420.70
697.21	2715.61
697.40	3715.02
697.58	2668.50
697.76	2453.47
697.95	2392.03
698.13	2418.65
698.32	2383.84
698.50	2430.94
698.68	2500.57
698.87	2527.19
699.05	2672.60
699.24	2459.61
699.42	2371.55
699.61	2490.33
699.79	2541.53
699.97	2502.62
700.16	2355.16
700.34	2289.63
700.53	2449.37
700.71	2570.20
700.89	2596.82
701.08	2488.28
701.26	2529.24
701.45	3051.47
701.63	2396.12
701.81	2506.71
702.00	2461.66
702.18	2529.24
702.37	2443.23
702.55	2803.67
702.73	2693.08
702.92	2564.06
703.10	2858.96
703.28	2783.19
703.47	2467.80
703.65	2754.52
703.84	2656.22
704.02	2480.09
704.20	2834.39
704.39	2527.19
704.57	2504.67
704.75	2686.94
704.94	2674.65
705.12	2523.10
705.30	2936.79
705.49	5576.62
705.67	12750.65
705.86	21153.47
706.04	24700.55
706.22	27883.09
706.41	28726.86
706.59	22986.40
706.77	16840.45
706.96	14192.42
707.14	12564.29
707.32	10819.42
707.51	9385.84
707.69	7651.21
707.87	6207.39
708.06	4986.80
708.24	3981.25
708.42	3389.39
708.61	3428.30
708.79	2629.59
708.97	2633.69
709.16	2664.41
709.34	2512.86
709.52	2371.55
709.71	2455.51
709.89	2596.82
710.07	2363.36
710.26	2496.47
710.44	2416.60
710.62	2564.06
710.80	2504.67
710.99	2637.78
711.17	2514.91
711.35	2418.65
711.54	2400.22
711.72	2607.06
711.90	2506.71
712.09	2523.10
712.27	2412.51
712.45	2465.75
712.63	2445.27
712.82	2504.67
713.00	2414.56
713.18	2506.71
713.37	2580.44
713.55	2605.02
713.73	2574.30
713.91	2506.71
714.10	2424.80
714.28	2422.75
714.46	2523.10
714.65	2531.29
714.83	2519.00
715.01	2484.19
715.19	2506.71
715.38	2412.51
715.56	2457.56
715.74	2447.32
715.92	2340.83
716.11	2584.54
716.29	2267.10
716.47	2408.41
716.65	2488.28
716.84	2310.11
717.02	2551.77
717.20	2236.38
717.38	2424.80
717.57	2555.86
717.75	2467.80
717.93	2404.32
718.11	2662.36
718.30	2303.96
718.48	2488.28
718.66	2512.86
718.84	2680.79
719.03	2498.52
719.21	2369.50
719.39	2719.70
719.57	2504.67
719.75	2570.20
719.94	2455.51
720.12	2383.84
720.30	2490.33
720.48	2568.15
720.67	2375.64
720.85	2453.47
721.03	2387.93
721.21	2398.17
721.39	2676.70
721.58	2473.95
721.76	2461.66
721.94	2543.58
722.12	2502.62
722.30	2703.32
722.49	2375.64
722.67	2461.66
722.85	2506.71
723.03	2256.86
723.21	2404.32
723.40	2492.38
723.58	2582.49
723.76	2576.34
723.94	2740.18
724.12	2654.17
724.30	2699.22
724.49	2695.13
724.67	2439.13
724.85	2605.02
725.03	2314.20
725.21	2625.50
725.40	2592.73
725.58	2332.64
725.76	2625.50
725.94	2537.43
726.12	2355.16
726.30	2490.33
726.49	2412.51
726.67	2459.61
726.85	2592.73
727.03	3018.71
727.21	4317.12
727.39	5892.01
727.57	6719.39
727.76	7430.03
727.94	7790.47
728.12	7116.69
728.30	5683.11
728.48	4913.08
728.66	4599.74
728.84	4112.32
729.03	3538.89
729.21	3284.94
729.39	2947.03
729.57	2607.06
729.75	2594.78
729.93	2588.63
730.11	2447.32
730.30	2498.52
730.48	2461.66
730.66	2580.44
730.84	2529.24
731.02	2523.10
731.20	2455.51
731.38	2453.47
731.56	2363.36
731.74	2387.93
731.93	2445.27
732.11	2404.32
732.29	2469.85
732.47	2510.81
732.65	2486.23
732.83	2641.88
733.01	2535.39
733.19	2406.36
733.37	2523.10
733.56	2482.14
733.74	2508.76
733.92	2598.87
734.10	2445.27
734.28	2590.68
734.46	2312.16
734.64	2449.37
734.82	2408.41
735.00	2432.99
735.18	2387.93
735.36	2424.80
735.54	2404.32
735.73	2416.60
735.91	2492.38
736.09	2527.19
736.27	2392.03
736.45	2486.23
736.63	2250.72
736.81	2443.23
736.99	2637.78
737.17	2627.54
737.35	2437.08
737.53	2498.52
737.71	2465.75
737.89	2609.11
738.07	2441.18
738.25	2330.59
738.43	2303.96
738.61	2365.40
738.80	2344.92
738.98	2353.12
739.16	2412.51
739.34	2412.51
739.52	2609.11
739.70	2465.75
739.88	2615.26
740.06	2570.20
740.24	2217.95
740.42	2592.73
740.60	2301.92
740.78	2385.88
740.96	2277.34
741.14	2389.98
741.32	2449.37
741.50	2353.12
741.68	2736.09
741.86	2564.06
742.04	2373.60
742.22	2351.07
742.40	2363.36
742.58	2582.49
742.76	2344.92
742.94	2635.74
743.12	2265.05
743.30	2449.37
743.48	2543.58
743.66	2412.51
743.84	2482.14
744.02	2465.75
744.20	2510.81
744.38	2365.40
744.56	2355.16
744.74	2756.57
744.92	2506.71
745.10	2619.35
745.28	2594.78
745.46	2691.03
745.64	2383.84
745.82	2586.58
746.00	2435.03
746.18	2580.44
746.36	2373.60
746.54	2523.10
746.72	2396.12
746.90	2392.03
747.08	2654.17
747.26	2500.57
747.44	2543.58
747.62	2555.86
747.80	2510.81
747.98	2553.82
748.15	2381.79
748.33	2785.24
748.51	2473.95
748.69	2523.10
748.87	2375.64
749.05	2459.61
749.23	2500.57
749.41	2519.00
749.59	2453.47
749.77	2580.44
749.95	2486.23
750.13	2346.97
750.31	2562.01
750.49	2449.37
750.67	2660.31
750.85	2605.02
751.03	2439.13
751.20	2666.46
751.38	2465.75
751.56	2449.37
751.74	2455.51
751.92	2402.27
752.10	2332.64
752.28	2607.06
752.46	2344.92
752.64	2449.37
752.82	2514.91
753.00	2547.67
753.18	2414.56
753.35	2432.99
753.53	2416.60
753.71	2457.56
753.89	2570.20
754.07	2580.44
754.25	2559.96
754.43	2492.38
754.61	2371.55
754.79	2572.25
754.97	2469.85
755.14	2674.65
755.32	2334.68
755.50	2445.27
755.68	2539.48
755.86	2359.26
756.04	2383.84
756.22	2250.72
756.40	2633.69
756.57	2688.98
756.75	2369.50
756.93	2602.97
757.11	2490.33
757.29	2338.78
757.47	2344.92
757.65	2254.81
757.82	2211.81
758.00	2334.68
758.18	2379.74
758.36	2342.88
758.54	2641.88
758.72	2310.11
758.90	2539.48
759.07	2480.09
759.25	2392.03
759.43	2506.71
759.61	2318.30
759.79	3440.59
759.97	2549.72
760.15	2445.27
760.32	2351.07
760.50	2496.47
760.68	2695.13
760.86	2326.49
761.04	2596.82
761.22	2564.06
761.39	2523.10
761.57	2531.29
761.75	2389.98
761.93	2508.76
762.11	2435.03
762.28	2533.34
762.46	2398.17
762.64	2602.97
762.82	2422.75
763.00	2451.42
763.18	2584.54
763.35	2334.68
763.53	2666.46
763.71	2473.95
763.89	2455.51
764.07	2553.82
764.24	2525.15
764.42	2545.63
764.60	2531.29
764.78	2516.95
764.96	2490.33
765.13	2531.29
765.31	2412.51
765.49	2662.36
765.67	2396.12
765.84	2389.98
766.02	2389.98
766.20	2332.64
766.38	2566.10
766.56	2480.09
766.73	2578.39
766.91	2439.13
767.09	2568.15
767.27	2535.39
767.44	2353.12
767.62	2523.10
767.80	2447.32
767.98	2424.80
768.15	2469.85
768.33	2562.01
768.51	2541.53
768.69	2568.15
768.87	2482.14
769.04	2480.09
769.22	2785.24
769.40	2613.21
769.58	2701.27
769.75	2580.44
769.93	2719.70
770.11	2420.70
770.28	2400.22
770.46	2592.73
770.64	2537.43
770.82	2488.28
770.99	2375.64
771.17	2566.10
771.35	2441.18
771.53	2490.33
771.70	2277.34
771.88	2539.48
772.06	2455.51
772.23	2375.64
772.41	2519.00
772.59	2396.12
772.77	2377.69
772.94	2412.51
773.12	2500.57
773.30	2396.12
773.47	2545.63
773.65	2389.98
773.83	2590.68
774.01	2504.67
774.18	2279.39
774.36	2441.18
774.54	2367.45
774.71	2482.14
774.89	2326.49
775.07	2359.26
775.24	2318.30
775.42	2416.60
775.60	2770.90
775.78	2422.75
775.95	2324.44
776.13	2256.86
776.31	2306.01
776.48	2510.81
776.66	2576.34
776.84	2482.14
777.01	2389.98
777.19	2420.70
777.37	2353.12
777.54	2553.82
777.72	2623.45
777.90	2482.14
778.07	2389.98
778.25	2955.22
778.43	2559.96
778.60	2285.53
778.78	2539.48
778.96	2629.59
779.13	2308.06
779.31	2557.91
779.49	2516.95
779.66	2568.15
779.84	2408.41
780.01	2478.04
780.19	2314.20
780.37	2703.32
780.54	2547.67
780.72	2412.51
780.90	2457.56
781.07	2385.88
781.25	2424.80
781.43	2547.67
781.60	2432.99
781.78	2654.17
781.95	2496.47
782.13	2371.55
782.31	2418.65
782.48	2256.86
782.66	2437.08
782.83	2645.98
783.01	2461.66
783.19	2572.25
783.36	2400.22
783.54	2310.11
783.72	2547.67
783.89	2367.45
784.07	2568.15
784.24	2543.58
784.42	2580.44
784.60	2564.06
784.77	2545.63
784.95	2322.40
785.12	2394.08
785.30	2512.86
785.47	2420.70
785.65	2400.22
785.83	2465.75
786.00	2422.75
786.18	2473.95
786.35	2349.02
786.53	2349.02
786.71	2654.17
786.88	2543.58
787.06	2490.33
787.23	2453.47
787.41	2385.88
787.58	2439.13
787.76	2435.03
787.94	2459.61
788.11	2416.60
788.29	2357.21
788.46	2447.32
788.64	2308.06
788.81	2406.36
788.99	2326.49
789.16	2379.74
789.34	2408.41
789.52	2367.45
789.69	2428.89
789.87	2250.72
790.04	2430.94
790.22	2469.85
790.39	2748.37
790.57	2381.79
790.74	2449.37
790.92	2598.87
791.09	2330.59
791.27	2523.10
791.44	2562.01
791.62	2435.03
791.79	2609.11
791.97	2445.27
792.15	2799.57
792.32	2521.05
792.50	2594.78
792.67	2588.63
792.85	2605.02
793.02	2463.71
793.20	2447.32
793.37	2301.92
793.55	2365.40
793.72	2279.39
793.90	2570.20
794.07	2353.12
794.25	2357.21
794.42	2414.56
794.60	2428.89
794.77	2463.71
794.95	2572.25
795.12	2547.67
795.30	2371.55
795.47	2293.72
795.65	2785.24
795.82	2547.67
796.00	2428.89
796.17	2459.61
796.34	2387.93
796.52	2519.00
796.69	2613.21
796.87	2512.86
797.04	2549.72
797.22	2584.54
797.39	2519.00
797.57	2543.58
797.74	2512.86
797.92	2559.96
798.09	2410.46
798.27	2564.06
798.44	2441.18
798.62	2381.79
798.79	2447.32
798.96	2490.33
799.14	2461.66
799.31	2744.28
799.49	2469.85
799.66	2381.79
799.84	2457.56
800.01	2342.88
800.19	2498.52
800.36	2293.72
800.53	2486.23
800.71	2514.91
800.88	2611.16
801.06	2346.97
801.23	2416.60
801.41	2469.85
801.58	2363.36
801.75	2404.32
801.93	2408.41
802.10	2514.91
802.28	2351.07
802.45	2449.37
802.63	2523.10
802.80	2670.55
802.97	2332.64
803.15	2502.62
803.32	2449.37
803.50	2328.54
803.67	2455.51
803.84	2422.75
804.02	2414.56
804.19	2402.27
804.37	2267.10
804.54	2310.11
804.71	2357.21
804.89	2394.08
805.06	2293.72
805.24	2332.64
805.41	2392.03
805.58	2414.56
805.76	2768.85
805.93	2465.75
806.10	2596.82
806.28	2490.33
806.45	2461.66
806.63	2559.96
806.80	2537.43
806.97	2527.19
807.15	2566.10
807.32	2486.23
807.49	2475.99
807.67	2387.93
807.84	2486.23
808.01	2334.68
808.19	2711.51
808.36	2807.77
808.54	2383.84
808.71	2389.98
808.88	2447.32
809.06	2547.67
809.23	2545.63
809.40	2377.69
809.58	2482.14
809.75	2490.33
809.92	2328.54
810.10	2701.27
810.27	2443.23
810.44	2559.96
810.62	2576.34
810.79	2514.91
810.96	2359.26
811.14	2389.98
811.31	2570.20
811.48	2539.48
811.66	2445.27
811.83	2654.17
812.00	2504.67
812.18	2562.01
812.35	2699.22
812.52	2482.14
812.69	2377.69
812.87	2490.33
813.04	2392.03
813.21	2430.94
813.39	2371.55
813.56	2369.50
813.73	2482.14
813.91	2244.57
814.08	2535.39
814.25	2432.99
814.42	2355.16
814.60	2428.89
814.77	2465.75
814.94	2439.13
815.12	2519.00
815.29	2637.78
815.46	2385.88
815.63	2461.66
815.81	2459.61
815.98	2443.23
816.15	2490.33
816.33	2441.18
816.50	2400.22
816.67	2473.95
816.84	2451.42
817.02	2371.55
817.19	2377.69
817.36	2576.34
817.53	2490.33
817.71	2351.07
817.88	2514.91
818.05	2482.14
818.22	2553.82
818.40	2625.50
818.57	2422.75
818.74	2572.25
818.91	2508.76
819.09	2531.29
819.26	2443.23
819.43	2316.25
819.60	2373.60
819.78	2463.71
819.95	2523.10
820.12	2340.83
820.29	2637.78
820.47	2578.39
820.64	2400.22
820.81	2318.30
820.98	2336.73
821.15	2383.84
821.33	2559.96
821.50	2242.53
821.67	2500.57
821.84	2467.80
822.02	2506.71
822.19	2617.30
822.36	2402.27
822.53	2361.31
822.70	2400.22
822.88	2422.75
823.05	2633.69
823.22	2498.52
823.39	2559.96
823.56	2473.95
823.74	2650.07
823.91	2367.45
824.08	2349.02
824.25	2424.80
824.42	2678.74
824.60	2375.64
824.77	2555.86
824.94	2471.90
825.11	2547.67
825.28	2303.96
825.45	2441.18
825.63	2414.56
825.80	2432.99
825.97	2506.71
826.14	2498.52
826.31	2265.05
826.48	2615.26
826.66	2404.32
826.83	2346.97
827.00	2412.51
827.17	2439.13
827.34	2404.32
827.51	2414.56
827.69	2512.86
827.86	2287.58
828.03	2383.84
828.20	2510.81
828.37	2404.32
828.54	2564.06
828.71	2392.03
828.89	2551.77
829.06	2478.04
829.23	2670.55
829.40	2340.83
829.57	2387.93
829.74	2547.67
829.91	2389.98
830.09	2406.36
830.26	2426.84
830.43	2611.16
830.60	2416.60
830.77	2469.85
830.94	2619.35
831.11	2500.57
831.28	2559.96
831.46	2535.39
831.63	2396.12
831.80	2607.06
831.97	2404.32
832.14	2383.84
832.31	2555.86
832.48	2482.14
832.65	2496.47
832.82	2437.08
832.99	2478.04
833.17	2389.98
833.34	2658.26
833.51	2461.66
833.68	2275.29
833.85	2531.29
834.02	2371.55
834.19	2346.97
834.36	2340.83
834.53	2469.85
834.70	2531.29
834.87	2549.72
835.04	2330.59
835.22	2328.54
835.39	2437.08
835.56	2252.77
835.73	2402.27
835.90	2559.96
836.07	2344.92
836.24	2527.19
836.41	2385.88
836.58	2357.21
836.75	2652.12
836.92	2381.79
837.09	2398.17
837.26	2568.15
837.43	2519.00
837.60	2410.46
837.77	2381.79
837.94	2568.15
838.12	2637.78
838.29	2363.36
838.46	2308.06
838.63	2367.45
838.80	2613.21
838.97	2404.32
839.14	2420.70
839.31	2392.03
839.48	2527.19
839.65	2428.89
839.82	2455.51
839.99	2453.47
840.16	2521.05
840.33	2375.64
840.50	2445.27
840.67	2387.93
840.84	2207.71
841.01	2392.03
841.18	2349.02
841.35	2420.70
841.52	2670.55
841.69	2627.54
841.86	2387.93
842.03	2504.67
842.20	2594.78
842.37	2375.64
842.54	2402.27
842.71	2500.57
842.88	2334.68
843.05	2412.51
843.22	2394.08
843.39	2662.36
843.56	2363.36
843.73	2385.88
843.90	2363.36
844.07	2525.15
844.24	2545.63
844.41	2486.23
844.58	2414.56
844.75	2432.99
844.92	2537.43
845.09	2373.60
845.26	2310.11
845.43	2539.48
845.60	2396.12
845.77	2496.47
845.94	2469.85
846.10	2549.72
846.27	2349.02
846.44	2342.88
846.61	2179.04
846.78	2469.85
846.95	2562.01
847.12	2449.37
847.29	2471.90
847.46	2396.12
847.63	2543.58
847.80	2445.27
847.97	2312.16
848.14	2768.85
848.31	2461.66
848.48	2267.10
848.65	2498.52
848.82	2420.70
848.98	2740.18
849.15	2441.18
849.32	2416.60
849.49	2600.92
849.66	2484.19
849.83	2416.60
850.00	2392.03
850.17	2566.10
850.34	2482.14
850.51	2338.78
850.68	2457.56
850.85	2641.88
851.01	2545.63
851.18	2283.49
851.35	2416.60
851.52	2572.25
851.69	2576.34
851.86	2281.44
852.03	2408.41
852.20	2586.58
852.37	2463.71
852.53	2236.38
852.70	2363.36
852.87	2502.62
853.04	2559.96
853.21	2416.60
853.38	2482.14
853.55	2613.21
853.72	2605.02
853.89	2299.87
854.05	2308.06
854.22	2471.90
854.39	2416.60
854.56	2408.41
854.73	2537.43
854.90	2351.07
855.07	2492.38
855.23	2314.20
855.40	2412.51
855.57	2430.94
855.74	2234.33
855.91	2545.63
856.08	2248.67
856.25	2357.21
856.41	2408.41
856.58	2265.05
856.75	2383.84
856.92	2334.68
857.09	2500.57
857.26	2201.57
857.42	2351.07
857.59	2502.62
857.76	2453.47
857.93	2422.75
858.10	2467.80
858.27	2295.77
858.43	2441.18
858.60	2367.45
858.77	2269.15
858.94	2365.40
859.11	2639.83
859.27	2342.88
859.44	2314.20
859.61	2613.21
859.78	2594.78
859.95	2353.12
860.12	2398.17
860.28	2719.70
860.45	2723.80
860.62	2406.36
860.79	2451.42
860.95	2424.80
861.12	2414.56
861.29	2342.88
861.46	2326.49
861.63	2418.65
861.79	2510.81
861.96	2283.49
862.13	2314.20
862.30	2650.07
862.47	2422.75
862.63	2355.16
862.80	2508.76
862.97	2555.86
863.14	2512.86
863.30	2428.89
863.47	2355.16
863.64	2658.26
863.81	2613.21
863.97	2353.12
864.14	2449.37
864.31	2478.04
864.48	2547.67
864.65	2437.08
864.81	2461.66
864.98	2490.33
865.15	2584.54
865.32	2449.37
865.48	2455.51
865.65	2633.69
865.82	2369.50
865.98	2383.84
866.15	2457.56
866.32	2469.85
866.49	2510.81
866.65	2459.61
866.82	2316.25
866.99	2473.95
867.16	2314.20
867.32	2344.92
867.49	2326.49
867.66	2418.65
867.83	2432.99
867.99	2310.11
868.16	2373.60
868.33	2334.68
868.49	2441.18
868.66	2414.56
868.83	2514.91
868.99	2545.63
869.16	2467.80
869.33	2471.90
869.50	2498.52
869.66	2437.08
869.83	2441.18
870.00	2271.20
870.16	2484.19
870.33	2445.27
870.50	2519.00
870.66	2408.41
870.83	2478.04
871.00	2453.47
871.17	2514.91
871.33	2424.80
871.50	2351.07
871.67	2463.71
871.83	2338.78
872.00	2531.29
872.17	2383.84
872.33	2711.51
872.50	2641.88
872.67	2406.36
872.83	2420.70
873.00	2506.71
873.17	2449.37
873.33	2482.14
873.50	2469.85
873.67	2326.49
873.83	2367.45
874.00	2418.65
874.16	2533.34
874.33	2402.27
874.50	2342.88
874.66	2428.89
874.83	2404.32
875.00	2637.78
875.16	2617.30
875.33	2445.27
875.50	2185.18
875.66	2389.98
875.83	2430.94
875.99	2420.70
876.16	2404.32
876.33	2275.29
876.49	2447.32
876.66	2414.56
876.83	2430.94
876.99	2232.29
877.16	2449.37
877.32	2355.16
877.49	2383.84
877.66	2514.91
877.82	2629.59
877.99	2430.94
878.15	2568.15
878.32	2621.40
878.49	2570.20
878.65	2416.60
878.82	2600.92
878.98	2510.81
879.15	2621.40
879.32	2498.52
879.48	2461.66
879.65	2432.99
879.81	2473.95
879.98	2377.69
880.15	2389.98
880.31	2531.29
880.48	2336.73
880.64	2555.86
880.81	2443.23
880.97	2629.59
881.14	2602.97
881.31	2330.59
881.47	2605.02
881.64	2447.32
881.80	2308.06
881.97	2480.09
882.13	2344.92
882.30	2359.26
882.47	2404.32
882.63	2293.72
882.80	2334.68
882.96	2447.32
883.13	2686.94
883.29	2432.99
883.46	2338.78
883.62	2760.66
883.79	2498.52
883.95	2523.10
884.12	2396.12
884.29	2578.39
884.45	2508.76
884.62	2381.79
884.78	2332.64
884.95	2590.68
885.11	2383.84
885.28	2502.62
885.44	2422.75
885.61	2572.25
885.77	2621.40
885.94	2488.28
886.10	2502.62
886.27	2537.43
886.43	2721.75
886.60	2580.44
886.76	2369.50
886.93	2324.44
887.09	2498.52
887.26	2293.72
887.42	2320.35
887.59	2654.17
887.75	2783.19
887.92	2502.62
888.08	2533.34
888.25	2666.46
888.41	2629.59
888.58	2408.41
888.74	2351.07
888.91	2371.55
>>>>>End Processed Spectral Data<<<<<
