SpectraSuite Data File
++++++++++++++++++++++++++++++++++++
Date: Thu May 05 14:42:15 CEST 2016
User: root
Dark Spectrum Present: No
Reference Spectrum Present: No
Number of Sampled Component Spectra: 1
Spectrometers: USB4C02835
Integration Time (usec): 100000 (USB4C02835)
Spectra Averaged: 1 (USB4C02835)
Boxcar Smoothing: 0 (USB4C02835)
Correct for Electrical Dark: No (USB4C02835)
Strobe/Lamp Enabled: No (USB4C02835)
Correct for Detector Non-linearity: No (USB4C02835)
Correct for Stray Light: No (USB4C02835)
Number of Pixels in Processed Spectrum: 3648
>>>>>Begin Processed Spectral Data<<<<<
177.47	1923.04
177.69	1923.04
177.91	1923.04
178.13	1884.13
178.36	1900.52
178.58	2318.30
178.80	2514.91
179.02	2277.34
179.24	2355.16
179.46	2299.87
179.68	2381.79
179.90	2455.51
180.13	2527.19
180.35	2228.19
180.57	2359.26
180.79	2545.63
181.01	2447.32
181.23	2357.21
181.45	2451.42
181.67	2592.73
181.90	2543.58
182.12	2389.98
182.34	2213.85
182.56	2572.25
182.78	2519.00
183.00	2353.12
183.22	2301.92
183.44	2215.90
183.66	2813.91
183.89	2459.61
184.11	2340.83
184.33	2555.86
184.55	2564.06
184.77	2326.49
184.99	2346.97
185.21	2457.56
185.43	2680.79
185.65	2365.40
185.87	2334.68
186.10	2703.32
186.32	2795.48
186.54	2338.78
186.76	2424.80
186.98	2562.01
187.20	2467.80
187.42	2367.45
187.64	2363.36
187.86	2471.90
188.08	2623.45
188.30	2320.35
188.52	2338.78
188.75	2621.40
188.97	2611.16
189.19	2291.68
189.41	2346.97
189.63	2551.77
189.85	2404.32
190.07	2275.29
190.29	2228.19
190.51	2471.90
190.73	2359.26
190.95	2514.91
191.17	2359.26
191.39	2230.24
191.61	2455.51
191.84	2342.88
192.06	2414.56
192.28	2301.92
192.50	2805.72
192.72	2414.56
192.94	2420.70
193.16	2492.38
193.38	2502.62
193.60	2269.15
193.82	2361.31
194.04	2676.70
194.26	2545.63
194.48	2365.40
194.70	2316.25
194.92	2516.95
195.14	2650.07
195.36	2293.72
195.58	2375.64
195.80	2455.51
196.02	2473.95
196.24	2289.63
196.46	2402.27
196.69	2392.03
196.91	2764.76
197.13	2310.11
197.35	2295.77
197.57	2680.79
197.79	2598.87
198.01	2502.62
198.23	2389.98
198.45	2543.58
198.67	2330.59
198.89	2260.96
199.11	2414.56
199.33	2412.51
199.55	2234.33
199.77	2310.11
199.99	2375.64
200.21	2432.99
200.43	2512.86
200.65	2342.88
200.87	2240.48
201.09	2482.14
201.31	2389.98
201.53	2392.03
201.75	2424.80
201.97	2539.48
202.19	2533.34
202.41	2412.51
202.63	2494.43
202.85	2643.93
203.07	2557.91
203.29	2357.21
203.51	2349.02
203.73	2383.84
203.95	2906.07
204.17	2322.40
204.39	2426.84
204.61	2484.19
204.83	2371.55
205.05	2473.95
205.27	2414.56
205.49	2684.89
205.71	2439.13
205.93	2269.15
206.15	2318.30
206.37	2510.81
206.59	2494.43
206.81	2244.57
207.03	2269.15
207.25	2334.68
207.47	2584.54
207.69	2283.49
207.91	2527.19
208.13	2643.93
208.34	2435.03
208.56	2328.54
208.78	2385.88
209.00	2408.41
209.22	2441.18
209.44	2365.40
209.66	2277.34
209.88	2514.91
210.10	2359.26
210.32	2326.49
210.54	2451.42
210.76	2482.14
210.98	2580.44
211.20	2236.38
211.42	2426.84
211.64	2613.21
211.86	2500.57
212.08	2365.40
212.30	2344.92
212.52	2367.45
212.74	2551.77
212.96	2375.64
213.17	2445.27
213.39	2557.91
213.61	2650.07
213.83	2342.88
214.05	2469.85
214.27	2701.27
214.49	2344.92
214.71	2318.30
214.93	2408.41
215.15	2498.52
215.37	2590.68
215.59	2191.33
215.81	2383.84
216.03	2682.84
216.24	2435.03
216.46	2398.17
216.68	2428.89
216.90	2478.04
217.12	2643.93
217.34	2301.92
217.56	2449.37
217.78	2656.22
218.00	2512.86
218.22	2332.64
218.44	2447.32
218.66	2480.09
218.87	2662.36
219.09	2439.13
219.31	2389.98
219.53	2525.15
219.75	2377.69
219.97	2353.12
220.19	2342.88
220.41	2519.00
220.63	2645.98
220.85	2383.84
221.06	2379.74
221.28	2703.32
221.50	2529.24
221.72	2375.64
221.94	2336.73
222.16	2531.29
222.38	2551.77
222.60	2289.63
222.82	2342.88
223.03	2568.15
223.25	2285.53
223.47	2375.64
223.69	2494.43
223.91	2512.86
224.13	2572.25
224.35	2306.01
224.57	2488.28
224.78	2602.97
225.00	2330.59
225.22	2383.84
225.44	2283.49
225.66	2539.48
225.88	2441.18
226.10	2506.71
226.32	2332.64
226.53	2625.50
226.75	2416.60
226.97	2332.64
227.19	2297.82
227.41	2301.92
227.63	2402.27
227.85	2240.48
228.06	2392.03
228.28	2432.99
228.50	2586.58
228.72	2234.33
228.94	2303.96
229.16	2228.19
229.37	2318.30
229.59	2338.78
229.81	2568.15
230.03	2441.18
230.25	2379.74
230.47	2244.57
230.69	2244.57
230.90	2613.21
231.12	2367.45
231.34	2402.27
231.56	2441.18
231.78	2379.74
232.00	2437.08
232.21	2408.41
232.43	2299.87
232.65	2258.91
232.87	2533.34
233.09	2297.82
233.30	2310.11
233.52	2645.98
233.74	2422.75
233.96	2334.68
234.18	2418.65
234.40	2398.17
234.61	2748.37
234.83	2285.53
235.05	2320.35
235.27	2820.05
235.49	2605.02
235.70	2265.05
235.92	2439.13
236.14	2592.73
236.36	2822.10
236.58	2265.05
236.79	2375.64
237.01	2523.10
237.23	2576.34
237.45	2553.82
237.67	2379.74
237.88	2564.06
238.10	2723.80
238.32	2316.25
238.54	2389.98
238.76	2478.04
238.97	2473.95
239.19	2260.96
239.41	2504.67
239.63	2686.94
239.85	2430.94
240.06	2381.79
240.28	2310.11
240.50	2570.20
240.72	2545.63
240.93	2258.91
241.15	2443.23
241.37	2488.28
241.59	2621.40
241.81	2412.51
242.02	2297.82
242.24	2549.72
242.46	2580.44
242.68	2209.76
242.89	2344.92
243.11	2645.98
243.33	2467.80
243.55	2377.69
243.76	2422.75
243.98	2424.80
244.20	2437.08
244.42	2351.07
244.64	2375.64
244.85	2324.44
245.07	2342.88
245.29	2351.07
245.51	2373.60
245.72	2523.10
245.94	2600.92
246.16	2408.41
246.38	2420.70
246.59	2375.64
246.81	2410.46
247.03	2314.20
247.24	2250.72
247.46	2437.08
247.68	2473.95
247.90	2316.25
248.11	2277.34
248.33	2527.19
248.55	2488.28
248.77	2400.22
248.98	2428.89
249.20	2697.17
249.42	2482.14
249.64	2447.32
249.85	2357.21
250.07	2465.75
250.29	2529.24
250.50	2506.71
250.72	2326.49
250.94	2480.09
251.16	2707.41
251.37	2342.88
251.59	2447.32
251.81	2613.21
252.02	2709.46
252.24	2342.88
252.46	2496.47
252.68	2324.44
252.89	2412.51
253.11	2260.96
253.33	2414.56
253.54	2637.78
253.76	2269.15
253.98	2326.49
254.20	2332.64
254.41	2285.53
254.63	2420.70
254.85	2246.62
255.06	2420.70
255.28	2519.00
255.50	2484.19
255.71	2295.77
255.93	2220.00
256.15	2555.86
256.36	2547.67
256.58	2332.64
256.80	2394.08
257.02	2475.99
257.23	2457.56
257.45	2361.31
257.67	2459.61
257.88	2432.99
258.10	2545.63
258.32	2291.68
258.53	2453.47
258.75	2684.89
258.97	2377.69
259.18	2244.57
259.40	2363.36
259.62	2658.26
259.83	2656.22
260.05	2357.21
260.27	2891.73
260.48	2613.21
260.70	2402.27
260.92	2332.64
261.13	2422.75
261.35	2531.29
261.57	2576.34
261.78	2285.53
262.00	2328.54
262.22	2541.53
262.43	2414.56
262.65	2389.98
262.86	2308.06
263.08	2772.95
263.30	2504.67
263.51	2248.67
263.73	2277.34
263.95	2662.36
264.16	2400.22
264.38	2236.38
264.60	2342.88
264.81	2404.32
265.03	2609.11
265.25	2557.91
265.46	2322.40
265.68	2631.64
265.89	2541.53
266.11	2248.67
266.33	2342.88
266.54	2605.02
266.76	2500.57
266.98	2426.84
267.19	2478.04
267.41	2645.98
267.62	2400.22
267.84	2260.96
268.06	2437.08
268.27	2559.96
268.49	2586.58
268.70	2396.12
268.92	2400.22
269.14	2379.74
269.35	2342.88
269.57	2447.32
269.79	2369.50
270.00	2445.27
270.22	2715.61
270.43	2174.94
270.65	2232.29
270.87	2486.23
271.08	2531.29
271.30	2445.27
271.51	2285.53
271.73	2553.82
271.95	2600.92
272.16	2326.49
272.38	2439.13
272.59	2463.71
272.81	2527.19
273.02	2400.22
273.24	2318.30
273.46	2654.17
273.67	2404.32
273.89	2310.11
274.10	2371.55
274.32	2609.11
274.54	2531.29
274.75	2424.80
274.97	2344.92
275.18	2543.58
275.40	2574.30
275.61	2451.42
275.83	2486.23
276.05	2379.74
276.26	2590.68
276.48	2447.32
276.69	2322.40
276.91	2494.43
277.12	2650.07
277.34	2496.47
277.55	2533.34
277.77	2475.99
277.99	2441.18
278.20	2357.21
278.42	2316.25
278.63	2424.80
278.85	2387.93
279.06	2367.45
279.28	2539.48
279.49	2566.10
279.71	2572.25
279.93	2394.08
280.14	2512.86
280.36	2490.33
280.57	2637.78
280.79	2553.82
281.00	2392.03
281.22	2420.70
281.43	2600.92
281.65	2195.42
281.86	2281.44
282.08	2480.09
282.29	2836.44
282.51	2285.53
282.73	2318.30
282.94	2316.25
283.16	2598.87
283.37	2541.53
283.59	2416.60
283.80	2588.63
284.02	2463.71
284.23	2467.80
284.45	2260.96
284.66	2256.86
284.88	2349.02
285.09	2461.66
285.31	2471.90
285.52	2455.51
285.74	2316.25
285.95	2439.13
286.17	2492.38
286.38	2592.73
286.60	2359.26
286.81	2326.49
287.03	2369.50
287.24	2482.14
287.46	2559.96
287.67	2445.27
287.89	2654.17
288.10	2465.75
288.32	2539.48
288.53	2580.44
288.75	2422.75
288.96	2531.29
289.18	2410.46
289.39	2418.65
289.61	2496.47
289.82	2734.04
290.04	2652.12
290.25	2355.16
290.47	2457.56
290.68	2426.84
290.90	2586.58
291.11	2277.34
291.33	2492.38
291.54	2377.69
291.76	2359.26
291.97	2451.42
292.18	2504.67
292.40	2473.95
292.61	2355.16
292.83	2592.73
293.04	2447.32
293.26	2529.24
293.47	2441.18
293.69	2379.74
293.90	2349.02
294.12	2662.36
294.33	2519.00
294.55	2424.80
294.76	2498.52
294.97	2639.83
295.19	2682.84
295.40	2408.41
295.62	2482.14
295.83	2613.21
296.05	2392.03
296.26	2514.91
296.48	2338.78
296.69	2422.75
296.90	2572.25
297.12	2457.56
297.33	2555.86
297.55	2447.32
297.76	2559.96
297.98	2463.71
298.19	2439.13
298.41	2486.23
298.62	2351.07
298.83	2541.53
299.05	2506.71
299.26	2441.18
299.48	2353.12
299.69	2529.24
299.90	2480.09
300.12	2371.55
300.33	2570.20
300.55	2455.51
300.76	2430.94
300.98	2392.03
301.19	2598.87
301.40	2428.89
301.62	2500.57
301.83	2525.15
302.05	2480.09
302.26	2377.69
302.47	2510.81
302.69	2375.64
302.90	2478.04
303.12	2244.57
303.33	2486.23
303.54	2703.32
303.76	2445.27
303.97	2484.19
304.19	2594.78
304.40	2338.78
304.61	2537.43
304.83	2545.63
305.04	2568.15
305.26	2541.53
305.47	2467.80
305.68	2410.46
305.90	2359.26
306.11	2596.82
306.33	2445.27
306.54	2379.74
306.75	2414.56
306.97	2269.15
307.18	2367.45
307.39	2355.16
307.61	2492.38
307.82	2441.18
308.04	2568.15
308.25	2310.11
308.46	2488.28
308.68	2469.85
308.89	2418.65
309.10	2527.19
309.32	2428.89
309.53	2473.95
309.74	2559.96
309.96	2396.12
310.17	2584.54
310.39	2432.99
310.60	2516.95
310.81	2430.94
311.03	2318.30
311.24	2512.86
311.45	2504.67
311.67	2594.78
311.88	2449.37
312.09	2424.80
312.31	2424.80
312.52	2443.23
312.73	2379.74
312.95	2324.44
313.16	2312.16
313.37	2613.21
313.59	2455.51
313.80	2596.82
314.01	2695.13
314.23	2449.37
314.44	2422.75
314.65	2375.64
314.87	2369.50
315.08	2412.51
315.29	2383.84
315.51	2293.72
315.72	2306.01
315.93	2611.16
316.15	2541.53
316.36	2424.80
316.57	2445.27
316.79	2504.67
317.00	2404.32
317.21	2523.10
317.43	2383.84
317.64	2496.47
317.85	2244.57
318.07	2379.74
318.28	2363.36
318.49	2529.24
318.70	2650.07
318.92	2605.02
319.13	2607.06
319.34	2686.94
319.56	2539.48
319.77	2545.63
319.98	2660.31
320.20	2572.25
320.41	2578.39
320.62	2557.91
320.83	2351.07
321.05	2643.93
321.26	2414.56
321.47	2555.86
321.69	2609.11
321.90	2273.25
322.11	2414.56
322.32	2494.43
322.54	2645.98
322.75	2334.68
322.96	2834.39
323.18	2322.40
323.39	2314.20
323.60	2369.50
323.81	2490.33
324.03	2377.69
324.24	2447.32
324.45	2432.99
324.66	2342.88
324.88	2645.98
325.09	2709.46
325.30	2414.56
325.52	2430.94
325.73	2596.82
325.94	2402.27
326.15	2301.92
326.37	2385.88
326.58	2572.25
326.79	2660.31
327.00	2408.41
327.22	2406.36
327.43	2422.75
327.64	2285.53
327.85	2420.70
328.07	2457.56
328.28	2756.57
328.49	2531.29
328.70	2408.41
328.92	2377.69
329.13	2457.56
329.34	2535.39
329.55	2600.92
329.76	2502.62
329.98	2506.71
330.19	2588.63
330.40	2439.13
330.61	2426.84
330.83	2539.48
331.04	2383.84
331.25	2469.85
331.46	2414.56
331.68	2306.01
331.89	2590.68
332.10	2381.79
332.31	2312.16
332.52	2516.95
332.74	2611.16
332.95	2285.53
333.16	2342.88
333.37	2570.20
333.58	2451.42
333.80	2453.47
334.01	2314.20
334.22	2439.13
334.43	2424.80
334.64	2338.78
334.86	2396.12
335.07	2414.56
335.28	2633.69
335.49	2330.59
335.70	2469.85
335.92	2703.32
336.13	2803.67
336.34	2498.52
336.55	2490.33
336.76	2547.67
336.98	2215.90
337.19	2441.18
337.40	2670.55
337.61	2863.06
337.82	2492.38
338.04	2527.19
338.25	2244.57
338.46	2383.84
338.67	2432.99
338.88	2363.36
339.09	2326.49
339.31	2441.18
339.52	2414.56
339.73	2408.41
339.94	2375.64
340.15	2523.10
340.36	2385.88
340.58	2467.80
340.79	2402.27
341.00	2699.22
341.21	2445.27
341.42	2629.59
341.63	2379.74
341.85	2588.63
342.06	2572.25
342.27	2336.73
342.48	2512.86
342.69	2334.68
342.90	2486.23
343.12	2596.82
343.33	2328.54
343.54	2586.58
343.75	2654.17
343.96	2453.47
344.17	2461.66
344.38	2514.91
344.60	2408.41
344.81	2322.40
345.02	2459.61
345.23	2613.21
345.44	2779.09
345.65	2516.95
345.86	2430.94
346.07	2521.05
346.29	2437.08
346.50	2541.53
346.71	2506.71
346.92	2670.55
347.13	2756.57
347.34	2422.75
347.55	2357.21
347.76	2551.77
347.98	2285.53
348.19	2408.41
348.40	2629.59
348.61	2422.75
348.82	2699.22
349.03	2473.95
349.24	2299.87
349.45	2699.22
349.66	2232.29
349.88	2453.47
350.09	2379.74
350.30	2641.88
350.51	2684.89
350.72	2504.67
350.93	2435.03
351.14	2443.23
351.35	2531.29
351.56	2424.80
351.77	2445.27
351.99	2605.02
352.20	2650.07
352.41	2553.82
352.62	2293.72
352.83	2566.10
353.04	2471.90
353.25	2422.75
353.46	2437.08
353.67	2605.02
353.88	2279.39
354.09	2363.36
354.30	2498.52
354.52	2605.02
354.73	2508.76
354.94	2400.22
355.15	2498.52
355.36	2701.27
355.57	2420.70
355.78	2467.80
355.99	2441.18
356.20	2424.80
356.41	2607.06
356.62	2439.13
356.83	2490.33
357.04	2682.84
357.25	2332.64
357.46	2398.17
357.68	2306.01
357.89	2367.45
358.10	2537.43
358.31	2414.56
358.52	2392.03
358.73	2400.22
358.94	2291.68
359.15	2441.18
359.36	2453.47
359.57	2424.80
359.78	2406.36
359.99	2537.43
360.20	2283.49
360.41	2435.03
360.62	2588.63
360.83	2492.38
361.04	2459.61
361.25	2455.51
361.46	2713.56
361.67	2502.62
361.88	2514.91
362.09	2537.43
362.30	2508.76
362.51	2306.01
362.72	2449.37
362.93	2596.82
363.14	2598.87
363.35	2461.66
363.56	2285.53
363.78	2547.67
363.99	2562.01
364.20	2349.02
364.41	2510.81
364.62	2705.37
364.83	2432.99
365.04	2371.55
365.25	2445.27
365.46	2727.89
365.67	2375.64
365.88	2465.75
366.09	2416.60
366.30	2447.32
366.51	2504.67
366.72	2334.68
366.93	2428.89
367.14	2437.08
367.35	2613.21
367.56	2418.65
367.77	2482.14
367.98	2482.14
368.18	2514.91
368.39	2525.15
368.60	2408.41
368.81	2531.29
369.02	2473.95
369.23	2416.60
369.44	2252.77
369.65	2471.90
369.86	2566.10
370.07	2523.10
370.28	2379.74
370.49	2580.44
370.70	2592.73
370.91	2273.25
371.12	2289.63
371.33	2686.94
371.54	2447.32
371.75	2654.17
371.96	2267.10
372.17	2512.86
372.38	2420.70
372.59	2531.29
372.80	2389.98
373.01	2463.71
373.22	2523.10
373.43	2514.91
373.64	2256.86
373.85	2594.78
374.06	2674.65
374.26	2547.67
374.47	2537.43
374.68	2652.12
374.89	2525.15
375.10	2437.08
375.31	2586.58
375.52	2463.71
375.73	2480.09
375.94	2363.36
376.15	2535.39
376.36	2320.35
376.57	2428.89
376.78	2400.22
376.99	2432.99
377.20	2629.59
377.40	2400.22
377.61	2707.41
377.82	2398.17
378.03	2611.16
378.24	2650.07
378.45	2488.28
378.66	2480.09
378.87	2346.97
379.08	2295.77
379.29	2369.50
379.50	2566.10
379.71	2392.03
379.91	2586.58
380.12	2500.57
380.33	2414.56
380.54	2443.23
380.75	2465.75
380.96	2385.88
381.17	2480.09
381.38	2572.25
381.59	2537.43
381.80	2400.22
382.00	2676.70
382.21	2439.13
382.42	2686.94
382.63	2654.17
382.84	2545.63
383.05	2654.17
383.26	2760.66
383.47	2482.14
383.68	2494.43
383.88	2576.34
384.09	2537.43
384.30	2584.54
384.51	2492.38
384.72	2412.51
384.93	2283.49
385.14	2424.80
385.35	2602.97
385.55	2396.12
385.76	2566.10
385.97	2406.36
386.18	2338.78
386.39	2389.98
386.60	2418.65
386.81	2459.61
387.02	2299.87
387.22	2371.55
387.43	2574.30
387.64	2527.19
387.85	2621.40
388.06	2584.54
388.27	4106.18
388.48	8277.89
388.68	12093.26
388.89	14511.91
389.10	15882.00
389.31	14769.95
389.52	11521.87
389.73	9985.90
389.93	9152.37
390.14	8368.00
390.35	7430.03
390.56	6752.15
390.77	5474.22
390.98	4235.20
391.18	3549.13
391.39	2895.83
391.60	2570.20
391.81	2652.12
392.02	2383.84
392.23	2781.14
392.43	2508.76
392.64	2621.40
392.85	2449.37
393.06	2670.55
393.27	2478.04
393.47	2387.93
393.68	2506.71
393.89	2437.08
394.10	2713.56
394.31	2400.22
394.52	2424.80
394.72	2443.23
394.93	2693.08
395.14	2346.97
395.35	2521.05
395.56	2473.95
395.76	2484.19
395.97	2404.32
396.18	2590.68
396.39	2596.82
396.60	3000.27
396.80	2703.32
397.01	2602.97
397.22	2670.55
397.43	2693.08
397.64	2463.71
397.84	2564.06
398.05	2799.57
398.26	2519.00
398.47	2555.86
398.67	2621.40
398.88	2441.18
399.09	2574.30
399.30	2422.75
399.51	2490.33
399.71	2435.03
399.92	2473.95
400.13	2490.33
400.34	2416.60
400.54	2629.59
400.75	2693.08
400.96	2465.75
401.17	2691.03
401.37	2539.48
401.58	2480.09
401.79	2449.37
402.00	2547.67
402.21	2906.07
402.41	2877.40
402.62	2854.87
402.83	2901.97
403.04	2996.18
403.24	3149.78
403.45	2664.41
403.66	2711.51
403.87	2639.83
404.07	2811.86
404.28	2713.56
404.49	2691.03
404.70	2650.07
404.90	2637.78
405.11	2523.10
405.32	2574.30
405.52	2441.18
405.73	2484.19
405.94	2363.36
406.15	2471.90
406.35	2551.77
406.56	2533.34
406.77	2512.86
406.98	2467.80
407.18	2392.03
407.39	2750.42
407.60	2400.22
407.80	2602.97
408.01	2375.64
408.22	2551.77
408.43	2381.79
408.63	2500.57
408.84	2596.82
409.05	2570.20
409.25	2400.22
409.46	2387.93
409.67	2586.58
409.88	2420.70
410.08	2531.29
410.29	2447.32
410.50	2531.29
410.70	2596.82
410.91	2398.17
411.12	2555.86
411.32	2441.18
411.53	2342.88
411.74	2564.06
411.95	2533.34
412.15	2584.54
412.36	2641.88
412.57	2572.25
412.77	2625.50
412.98	2498.52
413.19	2463.71
413.39	2549.72
413.60	2510.81
413.81	2674.65
414.01	2322.40
414.22	2457.56
414.43	2482.14
414.63	2523.10
414.84	2617.30
415.05	2418.65
415.25	2281.44
415.46	2529.24
415.67	2344.92
415.87	2473.95
416.08	2455.51
416.29	2490.33
416.49	2594.78
416.70	2443.23
416.91	2420.70
417.11	2545.63
417.32	2609.11
417.53	2506.71
417.73	2502.62
417.94	2549.72
418.15	2523.10
418.35	2535.39
418.56	2492.38
418.77	2766.81
418.97	2527.19
419.18	2455.51
419.38	2215.90
419.59	2414.56
419.80	2580.44
420.00	2437.08
420.21	2371.55
420.42	2609.11
420.62	2592.73
420.83	2437.08
421.04	2420.70
421.24	2432.99
421.45	2539.48
421.65	2473.95
421.86	2437.08
422.07	2498.52
422.27	2596.82
422.48	2404.32
422.69	2293.72
422.89	2527.19
423.10	2400.22
423.30	2381.79
423.51	2510.81
423.72	2519.00
423.92	2580.44
424.13	2336.73
424.33	2504.67
424.54	2570.20
424.75	2459.61
424.95	2678.74
425.16	2359.26
425.36	2478.04
425.57	2631.64
425.78	2498.52
425.98	2572.25
426.19	2469.85
426.39	2414.56
426.60	2463.71
426.81	2592.73
427.01	2545.63
427.22	2465.75
427.42	2326.49
427.63	2463.71
427.83	2594.78
428.04	2654.17
428.25	2539.48
428.45	2523.10
428.66	2566.10
428.86	2482.14
429.07	2412.51
429.28	2473.95
429.48	2498.52
429.69	2441.18
429.89	2396.12
430.10	2271.20
430.30	2557.91
430.51	2551.77
430.71	2480.09
430.92	2428.89
431.13	2465.75
431.33	2559.96
431.54	2453.47
431.74	2594.78
431.95	2719.70
432.15	2410.46
432.36	2473.95
432.56	2484.19
432.77	2736.09
432.98	2789.33
433.18	2414.56
433.39	2453.47
433.59	2455.51
433.80	2731.99
434.00	2697.17
434.21	2416.60
434.41	2402.27
434.62	2779.09
434.82	2400.22
435.03	2392.03
435.23	2537.43
435.44	2308.06
435.64	2473.95
435.85	2498.52
436.06	2545.63
436.26	2637.78
436.47	2496.47
436.67	2291.68
436.88	2490.33
437.08	2639.83
437.29	2545.63
437.49	2555.86
437.70	2580.44
437.90	2461.66
438.11	2586.58
438.31	2547.67
438.52	2684.89
438.72	2785.24
438.93	2750.42
439.13	2584.54
439.34	2654.17
439.54	2594.78
439.75	2545.63
439.95	2574.30
440.16	2424.80
440.36	2490.33
440.57	2529.24
440.77	2535.39
440.98	2521.05
441.18	2623.45
441.39	2441.18
441.59	2299.87
441.80	2758.61
442.00	2478.04
442.21	2662.36
442.41	2359.26
442.62	2576.34
442.82	2478.04
443.02	2422.75
443.23	2471.90
443.43	2367.45
443.64	2662.36
443.84	2367.45
444.05	2555.86
444.25	2420.70
444.46	2441.18
444.66	2453.47
444.87	2633.69
445.07	2375.64
445.28	2490.33
445.48	2703.32
445.69	2473.95
445.89	2760.66
446.09	2498.52
446.30	2736.09
446.50	2971.60
446.71	4661.18
446.91	5810.09
447.12	6731.67
447.32	7122.84
447.53	6707.10
447.73	5621.67
447.93	4929.46
448.14	4423.61
448.34	4593.59
448.55	3866.56
448.75	3817.41
448.96	3602.38
449.16	3192.78
449.36	3094.48
449.57	2799.57
449.77	2545.63
449.98	2490.33
450.18	2609.11
450.39	2600.92
450.59	2543.58
450.79	2420.70
451.00	2439.13
451.20	2588.63
451.41	2492.38
451.61	2486.23
451.81	2488.28
452.02	2449.37
452.22	2414.56
452.43	2469.85
452.63	2377.69
452.84	2426.84
453.04	2443.23
453.24	2478.04
453.45	2414.56
453.65	2492.38
453.86	2480.09
454.06	2578.39
454.26	2562.01
454.47	2365.40
454.67	2545.63
454.87	2582.49
455.08	2400.22
455.28	2580.44
455.49	2469.85
455.69	2426.84
455.89	2826.20
456.10	2586.58
456.30	2373.60
456.51	2588.63
456.71	2533.34
456.91	2519.00
457.12	2387.93
457.32	2564.06
457.52	2361.31
457.73	2643.93
457.93	2510.81
458.14	2457.56
458.34	2330.59
458.54	2490.33
458.75	2412.51
458.95	2578.39
459.15	2533.34
459.36	2455.51
459.56	2502.62
459.76	2744.28
459.97	2543.58
460.17	2445.27
460.37	2592.73
460.58	2484.19
460.78	2602.97
460.99	2437.08
461.19	2449.37
461.39	2420.70
461.60	2510.81
461.80	2480.09
462.00	2367.45
462.21	2523.10
462.41	2387.93
462.61	2387.93
462.82	2254.81
463.02	2547.67
463.22	2502.62
463.43	2574.30
463.63	2494.43
463.83	2652.12
464.04	2592.73
464.24	2512.86
464.44	2441.18
464.64	2498.52
464.85	2449.37
465.05	2553.82
465.25	2443.23
465.46	2426.84
465.66	2504.67
465.86	2570.20
466.07	2469.85
466.27	2508.76
466.47	2265.05
466.68	2340.83
466.88	2643.93
467.08	2607.06
467.29	2666.46
467.49	2506.71
467.69	2461.66
467.89	2588.63
468.10	2412.51
468.30	2504.67
468.50	2643.93
468.71	2645.98
468.91	2318.30
469.11	2711.51
469.31	2553.82
469.52	2420.70
469.72	2641.88
469.92	2615.26
470.13	2418.65
470.33	2535.39
470.53	2572.25
470.73	2928.60
470.94	3284.94
471.14	3479.50
471.34	3866.56
471.54	3604.42
471.75	3342.28
471.95	3108.82
472.15	3067.86
472.36	3045.33
472.56	3014.61
472.76	3076.05
472.96	2922.45
473.17	2750.42
473.37	2660.31
473.57	2547.67
473.77	2619.35
473.98	2461.66
474.18	2371.55
474.38	2838.48
474.58	2484.19
474.79	2465.75
474.99	2578.39
475.19	2594.78
475.39	2310.11
475.60	2494.43
475.80	2432.99
476.00	2551.77
476.20	2394.08
476.41	2373.60
476.61	2580.44
476.81	2637.78
477.01	2408.41
477.21	2664.41
477.42	2574.30
477.62	2437.08
477.82	2639.83
478.02	2424.80
478.23	2512.86
478.43	2412.51
478.63	2490.33
478.83	2475.99
479.03	2506.71
479.24	2600.92
479.44	2783.19
479.64	2351.07
479.84	2293.72
480.04	2377.69
480.25	2539.48
480.45	2457.56
480.65	2432.99
480.85	2645.98
481.06	2506.71
481.26	2441.18
481.46	2455.51
481.66	2576.34
481.86	2373.60
482.06	2619.35
482.27	2426.84
482.47	2564.06
482.67	2533.34
482.87	2457.56
483.07	2496.47
483.28	2447.32
483.48	2435.03
483.68	2404.32
483.88	2381.79
484.08	2328.54
484.29	2416.60
484.49	2465.75
484.69	2260.96
484.89	2662.36
485.09	2684.89
485.29	2504.67
485.50	2504.67
485.70	2389.98
485.90	2629.59
486.10	2396.12
486.30	2529.24
486.50	2643.93
486.71	2490.33
486.91	2496.47
487.11	2557.91
487.31	2332.64
487.51	2555.86
487.71	2432.99
487.91	2367.45
488.12	2486.23
488.32	2215.90
488.52	2424.80
488.72	2181.09
488.92	2504.67
489.12	2613.21
489.32	2568.15
489.53	2519.00
489.73	2338.78
489.93	2672.60
490.13	2377.69
490.33	2222.05
490.53	2592.73
490.73	2609.11
490.94	2392.03
491.14	2592.73
491.34	2600.92
491.54	2770.90
491.74	3420.11
491.94	4044.74
492.14	4450.24
492.34	4437.95
492.54	4136.90
492.75	3473.36
492.95	3403.72
493.15	3141.58
493.35	3100.62
493.55	3168.21
493.75	2928.60
493.95	3008.47
494.15	2807.77
494.35	2424.80
494.56	2525.15
494.76	2457.56
494.96	2590.68
495.16	2471.90
495.36	2535.39
495.56	2486.23
495.76	2467.80
495.96	2406.36
496.16	2457.56
496.36	2770.90
496.56	2437.08
496.77	2537.43
496.97	2535.39
497.17	2697.17
497.37	2359.26
497.57	2492.38
497.77	2596.82
497.97	2400.22
498.17	2412.51
498.37	2465.75
498.57	2547.67
498.77	2467.80
498.97	2521.05
499.17	2750.42
499.38	2521.05
499.58	2506.71
499.78	2621.40
499.98	2562.01
500.18	2428.89
500.38	2355.16
500.58	2693.08
500.78	3117.01
500.98	5556.14
501.18	7487.37
501.38	9424.75
501.58	10096.49
501.78	9926.50
501.98	8089.48
502.18	6854.55
502.38	5822.38
502.58	5402.54
502.78	5013.43
502.98	4685.75
503.18	4513.72
503.38	4147.14
503.59	3547.08
503.79	3395.53
503.99	3176.40
504.19	3086.29
504.39	3098.58
504.59	3149.78
504.79	3028.95
504.99	3227.60
505.19	2787.29
505.39	2752.47
505.59	2879.44
505.79	2822.10
505.99	2635.74
506.19	2549.72
506.39	2723.80
506.59	2437.08
506.79	2500.57
506.99	2664.41
507.19	2514.91
507.39	2539.48
507.59	2357.21
507.79	2306.01
507.99	2457.56
508.19	2533.34
508.39	2453.47
508.59	2467.80
508.79	2568.15
508.99	2695.13
509.19	2437.08
509.39	2586.58
509.59	2365.40
509.79	2389.98
509.99	2506.71
510.19	2588.63
510.39	2525.15
510.59	2617.30
510.79	2422.75
510.99	2359.26
511.19	2484.19
511.39	2688.98
511.59	2568.15
511.79	2641.88
511.99	2432.99
512.19	2717.65
512.38	2629.59
512.58	2461.66
512.78	2447.32
512.98	2648.02
513.18	2777.05
513.38	2408.41
513.58	2514.91
513.78	2490.33
513.98	2469.85
514.18	2471.90
514.38	2439.13
514.58	2531.29
514.78	2363.36
514.98	2322.40
515.18	2453.47
515.38	2383.84
515.58	2676.70
515.78	2406.36
515.98	2490.33
516.18	2627.54
516.38	2514.91
516.57	2482.14
516.77	2340.83
516.97	2551.77
517.17	2406.36
517.37	2334.68
517.57	2578.39
517.77	2445.27
517.97	2398.17
518.17	2465.75
518.37	2334.68
518.57	2437.08
518.77	2498.52
518.97	2469.85
519.16	2475.99
519.36	2627.54
519.56	2469.85
519.76	2404.32
519.96	2498.52
520.16	2627.54
520.36	2363.36
520.56	2586.58
520.76	2387.93
520.96	2465.75
521.16	2635.74
521.35	2602.97
521.55	2672.60
521.75	2478.04
521.95	2418.65
522.15	2424.80
522.35	2346.97
522.55	2408.41
522.75	2650.07
522.95	2373.60
523.14	2301.92
523.34	2471.90
523.54	2443.23
523.74	2553.82
523.94	2418.65
524.14	2260.96
524.34	2539.48
524.54	2629.59
524.73	2469.85
524.93	2617.30
525.13	2441.18
525.33	2314.20
525.53	2682.84
525.73	2514.91
525.93	2527.19
526.13	2453.47
526.32	2408.41
526.52	2549.72
526.72	2629.59
526.92	2457.56
527.12	2404.32
527.32	2306.01
527.52	2566.10
527.71	2490.33
527.91	2461.66
528.11	2430.94
528.31	2506.71
528.51	2346.97
528.71	2543.58
528.90	2516.95
529.10	2641.88
529.30	2525.15
529.50	2252.77
529.70	2539.48
529.90	2484.19
530.09	2359.26
530.29	2353.12
530.49	2424.80
530.69	2803.67
530.89	2514.91
531.09	2570.20
531.28	2471.90
531.48	2592.73
531.68	2420.70
531.88	2490.33
532.08	2568.15
532.28	2465.75
532.47	2678.74
532.67	2562.01
532.87	2619.35
533.07	2465.75
533.27	2543.58
533.46	2482.14
533.66	2496.47
533.86	2527.19
534.06	2527.19
534.26	2482.14
534.45	2539.48
534.65	2666.46
534.85	2490.33
535.05	2416.60
535.25	2648.02
535.44	2271.20
535.64	2598.87
535.84	2400.22
536.04	2457.56
536.24	2408.41
536.43	2467.80
536.63	2570.20
536.83	2424.80
537.03	2398.17
537.22	2381.79
537.42	2283.49
537.62	2605.02
537.82	2416.60
538.02	2594.78
538.21	2523.10
538.41	2904.02
538.61	2568.15
538.81	2422.75
539.00	2641.88
539.20	2334.68
539.40	2459.61
539.60	2459.61
539.79	2490.33
539.99	2506.71
540.19	2394.08
540.39	2396.12
540.58	2564.06
540.78	2557.91
540.98	2463.71
541.18	2580.44
541.37	2535.39
541.57	2537.43
541.77	2574.30
541.97	2375.64
542.16	2349.02
542.36	2473.95
542.56	2400.22
542.76	2635.74
542.95	2490.33
543.15	2625.50
543.35	2580.44
543.54	2404.32
543.74	2379.74
543.94	2658.26
544.14	2475.99
544.33	2553.82
544.53	2424.80
544.73	2439.13
544.93	2383.84
545.12	2424.80
545.32	2437.08
545.52	2508.76
545.71	2406.36
545.91	2443.23
546.11	2365.40
546.30	2406.36
546.50	2449.37
546.70	2529.24
546.90	2482.14
547.09	2299.87
547.29	2549.72
547.49	2549.72
547.68	2449.37
547.88	2439.13
548.08	2549.72
548.27	2920.40
548.47	2342.88
548.67	2404.32
548.87	2631.64
549.06	2539.48
549.26	2461.66
549.46	2504.67
549.65	2402.27
549.85	2463.71
550.05	2555.86
550.24	2400.22
550.44	2371.55
550.64	2457.56
550.83	2465.75
551.03	2668.50
551.23	2621.40
551.42	2523.10
551.62	2396.12
551.82	2490.33
552.01	2455.51
552.21	2611.16
552.41	2469.85
552.60	2738.13
552.80	2531.29
553.00	2383.84
553.19	2523.10
553.39	2725.85
553.59	2383.84
553.78	2523.10
553.98	2488.28
554.17	2367.45
554.37	2506.71
554.57	2537.43
554.76	2322.40
554.96	2389.98
555.16	2553.82
555.35	2473.95
555.55	2572.25
555.75	2619.35
555.94	2617.30
556.14	2299.87
556.33	2547.67
556.53	2572.25
556.73	2465.75
556.92	2486.23
557.12	2619.35
557.32	2738.13
557.51	2578.39
557.71	2490.33
557.90	2580.44
558.10	2682.84
558.30	2506.71
558.49	2383.84
558.69	2383.84
558.88	2547.67
559.08	2537.43
559.28	2414.56
559.47	2447.32
559.67	2605.02
559.86	2729.94
560.06	2398.17
560.26	2461.66
560.45	2596.82
560.65	2545.63
560.84	2623.45
561.04	2367.45
561.24	2551.77
561.43	2281.44
561.63	2637.78
561.82	2514.91
562.02	2559.96
562.22	2428.89
562.41	2408.41
562.61	2432.99
562.80	2260.96
563.00	2834.39
563.19	2510.81
563.39	2533.34
563.59	2533.34
563.78	2334.68
563.98	2353.12
564.17	2373.60
564.37	2260.96
564.56	2510.81
564.76	2338.78
564.96	2555.86
565.15	2531.29
565.35	2789.33
565.54	2441.18
565.74	2596.82
565.93	2627.54
566.13	2424.80
566.32	2523.10
566.52	2508.76
566.71	2568.15
566.91	2627.54
567.11	2570.20
567.30	2447.32
567.50	2578.39
567.69	2555.86
567.89	2441.18
568.08	2363.36
568.28	2553.82
568.47	2346.97
568.67	2545.63
568.86	2367.45
569.06	2516.95
569.25	2543.58
569.45	2375.64
569.64	2365.40
569.84	2445.27
570.04	2465.75
570.23	2365.40
570.43	2402.27
570.62	2478.04
570.82	2736.09
571.01	2318.30
571.21	2398.17
571.40	2383.84
571.60	2527.19
571.79	2570.20
571.99	2424.80
572.18	2418.65
572.38	2504.67
572.57	2420.70
572.77	2504.67
572.96	2760.66
573.16	2469.85
573.35	2478.04
573.55	2525.15
573.74	2588.63
573.94	2424.80
574.13	2461.66
574.33	2572.25
574.52	2701.27
574.71	2502.62
574.91	2521.05
575.10	2371.55
575.30	2414.56
575.49	2400.22
575.69	2392.03
575.88	2559.96
576.08	2496.47
576.27	2676.70
576.47	2422.75
576.66	2672.60
576.86	2742.23
577.05	2568.15
577.25	2555.86
577.44	2742.23
577.64	2516.95
577.83	2703.32
578.02	2416.60
578.22	2654.17
578.41	2715.61
578.61	2471.90
578.80	2404.32
579.00	2519.00
579.19	2473.95
579.39	2570.20
579.58	2547.67
579.77	2414.56
579.97	2658.26
580.16	2727.89
580.36	2578.39
580.55	2658.26
580.75	2623.45
580.94	2473.95
581.13	2666.46
581.33	2736.09
581.52	2512.86
581.72	2772.95
581.91	2635.74
582.11	2463.71
582.30	2637.78
582.49	2521.05
582.69	2725.85
582.88	2523.10
583.08	2535.39
583.27	2605.02
583.47	2516.95
583.66	2398.17
583.85	2342.88
584.05	2455.51
584.24	2566.10
584.44	2549.72
584.63	2637.78
584.82	2682.84
585.02	2693.08
585.21	2566.10
585.41	2666.46
585.60	2645.98
585.79	2766.81
585.99	2770.90
586.18	2602.97
586.37	3272.65
586.57	5074.87
586.76	15040.28
586.96	35010.03
587.15	48385.31
587.34	57107.61
587.54	62092.36
587.73	56566.94
587.93	39886.24
588.12	30203.44
588.31	24352.40
588.51	21450.42
588.70	19625.68
588.89	17442.55
589.09	15091.48
589.28	12971.83
589.47	10284.90
589.67	8030.09
589.86	6201.25
590.06	4628.41
590.25	3973.06
590.44	3332.05
590.64	2967.51
590.83	2832.34
591.02	2772.95
591.22	2535.39
591.41	2543.58
591.60	2539.48
591.80	2818.00
591.99	2441.18
592.18	2525.15
592.38	2707.41
592.57	2441.18
592.76	2521.05
592.96	2586.58
593.15	2414.56
593.34	2637.78
593.54	2471.90
593.73	2643.93
593.92	2629.59
594.12	2627.54
594.31	2551.77
594.50	2670.55
594.70	2637.78
594.89	2801.62
595.08	2416.60
595.28	2568.15
595.47	2916.31
595.66	2654.17
595.86	2389.98
596.05	2502.62
596.24	2461.66
596.43	2834.39
596.63	2645.98
596.82	2529.24
597.01	2551.77
597.21	2635.74
597.40	2555.86
597.59	2455.51
597.79	2580.44
597.98	2645.98
598.17	2539.48
598.36	2443.23
598.56	2652.12
598.75	2432.99
598.94	2598.87
599.14	2490.33
599.33	2465.75
599.52	2584.54
599.71	2506.71
599.91	2555.86
600.10	2625.50
600.29	2445.27
600.48	2621.40
600.68	2588.63
600.87	2578.39
601.06	2451.42
601.26	2496.47
601.45	2488.28
601.64	2449.37
601.83	2713.56
602.03	2367.45
602.22	2265.05
602.41	2711.51
602.60	2752.47
602.80	2613.21
602.99	2572.25
603.18	2349.02
603.37	2617.30
603.57	2426.84
603.76	2502.62
603.95	2656.22
604.14	2459.61
604.34	2330.59
604.53	2396.12
604.72	2525.15
604.91	2543.58
605.10	2441.18
605.30	2281.44
605.49	2801.62
605.68	2654.17
605.87	2414.56
606.07	2398.17
606.26	2508.76
606.45	2574.30
606.64	2496.47
606.84	2314.20
607.03	2502.62
607.22	2715.61
607.41	2449.37
607.60	2443.23
607.80	2592.73
607.99	2455.51
608.18	2551.77
608.37	2478.04
608.56	2455.51
608.76	2654.17
608.95	2668.50
609.14	2547.67
609.33	2758.61
609.52	2756.57
609.72	2613.21
609.91	2607.06
610.10	2574.30
610.29	2738.13
610.48	2541.53
610.68	2529.24
610.87	2553.82
611.06	2588.63
611.25	2506.71
611.44	2635.74
611.63	2490.33
611.83	2631.64
612.02	2346.97
612.21	2613.21
612.40	2271.20
612.59	2367.45
612.79	2385.88
612.98	2451.42
613.17	2645.98
613.36	2506.71
613.55	2697.17
613.74	2570.20
613.93	2645.98
614.13	2691.03
614.32	2734.04
614.51	2588.63
614.70	2559.96
614.89	2492.38
615.08	2529.24
615.28	2951.12
615.47	2449.37
615.66	2625.50
615.85	2553.82
616.04	2658.26
616.23	2586.58
616.42	2451.42
616.62	2576.34
616.81	2471.90
617.00	2539.48
617.19	2537.43
617.38	2402.27
617.57	2519.00
617.76	2539.48
617.95	2633.69
618.15	2555.86
618.34	2678.74
618.53	2299.87
618.72	2682.84
618.91	2600.92
619.10	2578.39
619.29	2547.67
619.48	2510.81
619.68	2422.75
619.87	2478.04
620.06	2326.49
620.25	2654.17
620.44	2445.27
620.63	2379.74
620.82	2506.71
621.01	2605.02
621.20	2422.75
621.39	2539.48
621.59	2619.35
621.78	2516.95
621.97	2482.14
622.16	2580.44
622.35	2551.77
622.54	2551.77
622.73	2586.58
622.92	2338.78
623.11	2643.93
623.30	2449.37
623.49	2506.71
623.68	2453.47
623.88	2668.50
624.07	2482.14
624.26	2439.13
624.45	2490.33
624.64	2449.37
624.83	2467.80
625.02	2480.09
625.21	2502.62
625.40	2564.06
625.59	2699.22
625.78	2502.62
625.97	2600.92
626.16	2668.50
626.35	2619.35
626.54	2500.57
626.74	2688.98
626.93	2463.71
627.12	2498.52
627.31	2607.06
627.50	2568.15
627.69	2611.16
627.88	2394.08
628.07	2351.07
628.26	2299.87
628.45	2482.14
628.64	2383.84
628.83	2398.17
629.02	2320.35
629.21	2547.67
629.40	2611.16
629.59	2404.32
629.78	2398.17
629.97	2463.71
630.16	2553.82
630.35	2469.85
630.54	2531.29
630.73	2461.66
630.92	2521.05
631.11	2439.13
631.30	2408.41
631.49	2672.60
631.68	2570.20
631.87	2441.18
632.06	2406.36
632.25	2799.57
632.44	2494.43
632.63	2514.91
632.82	2482.14
633.01	2463.71
633.20	2609.11
633.39	2531.29
633.58	2371.55
633.77	2596.82
633.96	2504.67
634.15	2533.34
634.34	2510.81
634.53	2598.87
634.72	2486.23
634.91	2330.59
635.10	2420.70
635.29	2539.48
635.48	2502.62
635.67	2375.64
635.86	2326.49
636.05	2674.65
636.24	2451.42
636.43	2432.99
636.62	2564.06
636.81	2248.67
637.00	2498.52
637.19	2484.19
637.38	2478.04
637.57	2441.18
637.76	2625.50
637.95	2650.07
638.14	2609.11
638.33	2570.20
638.52	2605.02
638.71	2381.79
638.89	2357.21
639.08	2834.39
639.27	2674.65
639.46	2801.62
639.65	3092.43
639.84	3256.27
640.03	3225.55
640.22	3047.38
640.41	3153.87
640.60	2781.14
640.79	2834.39
640.98	2617.30
641.17	2731.99
641.36	2717.65
641.55	2645.98
641.74	2381.79
641.92	2508.76
642.11	2387.93
642.30	2531.29
642.49	2471.90
642.68	2402.27
642.87	2516.95
643.06	2531.29
643.25	2365.40
643.44	2334.68
643.63	2406.36
643.82	2596.82
644.00	2346.97
644.19	2498.52
644.38	2340.83
644.57	2625.50
644.76	2465.75
644.95	2512.86
645.14	2484.19
645.33	2428.89
645.52	2463.71
645.71	2330.59
645.89	2349.02
646.08	2437.08
646.27	2414.56
646.46	2637.78
646.65	2312.16
646.84	2508.76
647.03	2371.55
647.22	2576.34
647.40	2465.75
647.59	2529.24
647.78	2349.02
647.97	2480.09
648.16	2494.43
648.35	2654.17
648.54	2547.67
648.73	2379.74
648.91	2605.02
649.10	2514.91
649.29	2381.79
649.48	2365.40
649.67	2508.76
649.86	2643.93
650.05	2543.58
650.23	2742.23
650.42	2568.15
650.61	2766.81
650.80	2637.78
650.99	2840.53
651.18	2617.30
651.36	2701.27
651.55	2422.75
651.74	2611.16
651.93	2467.80
652.12	2482.14
652.31	2582.49
652.49	2482.14
652.68	2523.10
652.87	2643.93
653.06	2512.86
653.25	2686.94
653.44	2527.19
653.62	2652.12
653.81	2439.13
654.00	2502.62
654.19	2602.97
654.38	2865.11
654.56	2488.28
654.75	2457.56
654.94	2586.58
655.13	2494.43
655.32	2480.09
655.51	2519.00
655.69	2387.93
655.88	2527.19
656.07	2338.78
656.26	2580.44
656.45	2318.30
656.63	2437.08
656.82	2459.61
657.01	2637.78
657.20	2467.80
657.38	2666.46
657.57	2383.84
657.76	2342.88
657.95	2609.11
658.14	2346.97
658.32	2486.23
658.51	2293.72
658.70	2523.10
658.89	2473.95
659.08	2471.90
659.26	2676.70
659.45	2318.30
659.64	2494.43
659.83	2484.19
660.01	2865.11
660.20	2580.44
660.39	2680.79
660.58	2285.53
660.76	2523.10
660.95	2369.50
661.14	2592.73
661.33	2355.16
661.51	2486.23
661.70	2498.52
661.89	2576.34
662.08	2461.66
662.26	2258.91
662.45	2432.99
662.64	2707.41
662.83	2559.96
663.01	2322.40
663.20	2408.41
663.39	2713.56
663.58	2453.47
663.76	2424.80
663.95	2533.34
664.14	2344.92
664.32	2459.61
664.51	2379.74
664.70	2351.07
664.89	2543.58
665.07	2232.29
665.26	2576.34
665.45	2455.51
665.64	2627.54
665.82	2451.42
666.01	2545.63
666.20	2389.98
666.38	2658.26
666.57	2664.41
666.76	3874.76
666.95	9566.06
667.13	17735.41
667.32	22689.45
667.51	26103.41
667.69	27792.98
667.88	24800.90
668.07	17542.90
668.25	14501.67
668.44	11986.76
668.63	10252.13
668.81	9232.24
669.00	7987.08
669.19	7131.03
669.38	6119.33
669.56	5255.09
669.75	4472.76
669.94	3815.37
670.12	3186.64
670.31	2922.45
670.50	2826.20
670.68	2762.71
670.87	2588.63
671.06	2545.63
671.24	2617.30
671.43	2740.18
671.62	2541.53
671.80	2488.28
671.99	2553.82
672.18	2514.91
672.36	2633.69
672.55	2510.81
672.74	2492.38
672.92	2502.62
673.11	2633.69
673.29	2361.31
673.48	2559.96
673.67	2449.37
673.85	2584.54
674.04	2398.17
674.23	2529.24
674.41	2791.38
674.60	2359.26
674.79	2338.78
674.97	2357.21
675.16	2598.87
675.34	2553.82
675.53	2416.60
675.72	2525.15
675.90	2711.51
676.09	2473.95
676.28	2406.36
676.46	2346.97
676.65	2586.58
676.83	2398.17
677.02	2482.14
677.21	2490.33
677.39	2545.63
677.58	2381.79
677.77	2443.23
677.95	2394.08
678.14	2496.47
678.32	2389.98
678.51	2404.32
678.70	2693.08
678.88	2369.50
679.07	2506.71
679.25	2389.98
679.44	2473.95
679.63	2367.45
679.81	2478.04
680.00	2627.54
680.18	2494.43
680.37	2643.93
680.55	2482.14
680.74	2301.92
680.93	2238.43
681.11	2451.42
681.30	2482.14
681.48	2482.14
681.67	2371.55
681.85	2478.04
682.04	2400.22
682.23	2615.26
682.41	2525.15
682.60	2482.14
682.78	2422.75
682.97	2326.49
683.15	2447.32
683.34	2449.37
683.53	2617.30
683.71	2310.11
683.90	2555.86
684.08	2652.12
684.27	2494.43
684.45	2510.81
684.64	2578.39
684.82	2443.23
685.01	2602.97
685.19	2404.32
685.38	2594.78
685.57	2512.86
685.75	2387.93
685.94	2387.93
686.12	2416.60
686.31	2416.60
686.49	2682.84
686.68	2306.01
686.86	2523.10
687.05	2432.99
687.23	2650.07
687.42	2349.02
687.60	2279.39
687.79	2650.07
687.97	2672.60
688.16	2590.68
688.34	2586.58
688.53	2281.44
688.71	2547.67
688.90	2582.49
689.08	2478.04
689.27	2349.02
689.45	2633.69
689.64	2596.82
689.82	2455.51
690.01	2537.43
690.19	2500.57
690.38	2494.43
690.56	2582.49
690.75	2432.99
690.93	2418.65
691.12	2373.60
691.30	2465.75
691.49	2465.75
691.67	2549.72
691.86	2691.03
692.04	2398.17
692.23	2445.27
692.41	2539.48
692.60	2789.33
692.78	2596.82
692.97	2549.72
693.15	2643.93
693.34	2797.53
693.52	2648.02
693.71	2338.78
693.89	2412.51
694.08	2299.87
694.26	2590.68
694.44	2557.91
694.63	2658.26
694.81	2308.06
695.00	2383.84
695.18	2664.41
695.37	2738.13
695.55	2445.27
695.74	2492.38
695.92	2375.64
696.10	2750.42
696.29	2330.59
696.47	2330.59
696.66	2478.04
696.84	2375.64
697.03	2441.18
697.21	2691.03
697.40	3651.53
697.58	2607.06
697.76	2435.03
697.95	2437.08
698.13	2381.79
698.32	2381.79
698.50	2410.46
698.68	2537.43
698.87	2551.77
699.05	2674.65
699.24	2424.80
699.42	2389.98
699.61	2465.75
699.79	2471.90
699.97	2441.18
700.16	2342.88
700.34	2387.93
700.53	2484.19
700.71	2629.59
700.89	2584.54
701.08	2494.43
701.26	2416.60
701.45	2965.46
701.63	2422.75
701.81	2514.91
702.00	2437.08
702.18	2521.05
702.37	2453.47
702.55	2717.65
702.73	2682.84
702.92	2664.41
703.10	2760.66
703.28	2756.57
703.47	2486.23
703.65	2709.46
703.84	2662.36
704.02	2584.54
704.20	2756.57
704.39	2437.08
704.57	2467.80
704.75	2701.27
704.94	2607.06
705.12	2555.86
705.30	2916.31
705.49	5472.17
705.67	12566.34
705.86	20618.95
706.04	24082.06
706.22	27272.80
706.41	28087.89
706.59	22507.18
706.77	16371.46
706.96	13979.43
707.14	12324.68
707.32	10555.23
707.51	9459.57
707.69	7602.06
707.87	6170.53
708.06	4906.93
708.24	4140.99
708.42	3332.05
708.61	3291.09
708.79	2637.78
708.97	2623.45
709.16	2779.09
709.34	2543.58
709.52	2480.09
709.71	2461.66
709.89	2578.39
710.07	2410.46
710.26	2379.74
710.44	2445.27
710.62	2643.93
710.80	2514.91
710.99	2473.95
711.17	2615.26
711.35	2355.16
711.54	2426.84
711.72	2564.06
711.90	2551.77
712.09	2596.82
712.27	2367.45
712.45	2553.82
712.63	2396.12
712.82	2430.94
713.00	2408.41
713.18	2562.01
713.37	2609.11
713.55	2588.63
713.73	2502.62
713.91	2553.82
714.10	2461.66
714.28	2428.89
714.46	2539.48
714.65	2447.32
714.83	2547.67
715.01	2521.05
715.19	2531.29
715.38	2441.18
715.56	2508.76
715.74	2383.84
715.92	2346.97
716.11	2656.22
716.29	2187.23
716.47	2490.33
716.65	2439.13
716.84	2379.74
717.02	2580.44
717.20	2277.34
717.38	2414.56
717.57	2551.77
717.75	2510.81
717.93	2521.05
718.11	2523.10
718.30	2328.54
718.48	2445.27
718.66	2572.25
718.84	2586.58
719.03	2484.19
719.21	2375.64
719.39	2777.05
719.57	2535.39
719.75	2570.20
719.94	2359.26
720.12	2498.52
720.30	2457.56
720.48	2654.17
720.67	2410.46
720.85	2373.60
721.03	2369.50
721.21	2351.07
721.39	2584.54
721.58	2502.62
721.76	2551.77
721.94	2537.43
722.12	2484.19
722.30	2713.56
722.49	2379.74
722.67	2531.29
722.85	2469.85
723.03	2361.31
723.21	2365.40
723.40	2496.47
723.58	2551.77
723.76	2531.29
723.94	2705.37
724.12	2539.48
724.30	2621.40
724.49	2619.35
724.67	2449.37
724.85	2609.11
725.03	2252.77
725.21	2607.06
725.40	2566.10
725.58	2469.85
725.76	2627.54
725.94	2564.06
726.12	2338.78
726.30	2435.03
726.49	2455.51
726.67	2453.47
726.85	2600.92
727.03	2904.02
727.21	4181.95
727.39	5873.57
727.57	6580.12
727.76	7315.34
727.94	7485.33
728.12	6758.30
728.30	5543.85
728.48	4880.31
728.66	4421.56
728.84	4114.37
729.03	3518.41
729.21	3229.65
729.39	2895.83
729.57	2731.99
729.75	2682.84
729.93	2566.10
730.11	2449.37
730.30	2492.38
730.48	2512.86
730.66	2588.63
730.84	2553.82
731.02	2504.67
731.20	2469.85
731.38	2465.75
731.56	2322.40
731.74	2306.01
731.93	2521.05
732.11	2514.91
732.29	2510.81
732.47	2539.48
732.65	2537.43
732.83	2602.97
733.01	2484.19
733.19	2414.56
733.37	2545.63
733.56	2527.19
733.74	2334.68
733.92	2670.55
734.10	2439.13
734.28	2523.10
734.46	2367.45
734.64	2475.99
734.82	2445.27
735.00	2406.36
735.18	2355.16
735.36	2482.14
735.54	2525.15
735.73	2514.91
735.91	2551.77
736.09	2588.63
736.27	2512.86
736.45	2529.24
736.63	2258.91
736.81	2482.14
736.99	2504.67
737.17	2621.40
737.35	2424.80
737.53	2519.00
737.71	2428.89
737.89	2588.63
738.07	2340.83
738.25	2420.70
738.43	2389.98
738.61	2396.12
738.80	2320.35
738.98	2373.60
739.16	2420.70
739.34	2451.42
739.52	2596.82
739.70	2457.56
739.88	2523.10
740.06	2514.91
740.24	2217.95
740.42	2613.21
740.60	2338.78
740.78	2424.80
740.96	2240.48
741.14	2471.90
741.32	2496.47
741.50	2334.68
741.68	2645.98
741.86	2609.11
742.04	2408.41
742.22	2373.60
742.40	2469.85
742.58	2555.86
742.76	2420.70
742.94	2566.10
743.12	2334.68
743.30	2531.29
743.48	2506.71
743.66	2367.45
743.84	2535.39
744.02	2455.51
744.20	2449.37
744.38	2332.64
744.56	2353.12
744.74	2660.31
744.92	2578.39
745.10	2598.87
745.28	2578.39
745.46	2650.07
745.64	2439.13
745.82	2496.47
746.00	2453.47
746.18	2553.82
746.36	2394.08
746.54	2529.24
746.72	2412.51
746.90	2412.51
747.08	2609.11
747.26	2531.29
747.44	2631.64
747.62	2504.67
747.80	2480.09
747.98	2514.91
748.15	2439.13
748.33	2725.85
748.51	2564.06
748.69	2545.63
748.87	2465.75
749.05	2406.36
749.23	2576.34
749.41	2516.95
749.59	2404.32
749.77	2572.25
749.95	2412.51
750.13	2490.33
750.31	2475.99
750.49	2490.33
750.67	2502.62
750.85	2582.49
751.03	2389.98
751.20	2717.65
751.38	2502.62
751.56	2461.66
751.74	2457.56
751.92	2385.88
752.10	2396.12
752.28	2582.49
752.46	2406.36
752.64	2480.09
752.82	2494.43
753.00	2586.58
753.18	2363.36
753.35	2465.75
753.53	2447.32
753.71	2387.93
753.89	2496.47
754.07	2510.81
754.25	2572.25
754.43	2514.91
754.61	2330.59
754.79	2535.39
754.97	2516.95
755.14	2658.26
755.32	2316.25
755.50	2486.23
755.68	2545.63
755.86	2301.92
756.04	2449.37
756.22	2263.01
756.40	2531.29
756.57	2715.61
756.75	2445.27
756.93	2666.46
757.11	2580.44
757.29	2355.16
757.47	2316.25
757.65	2310.11
757.82	2248.67
758.00	2375.64
758.18	2389.98
758.36	2439.13
758.54	2660.31
758.72	2271.20
758.90	2609.11
759.07	2480.09
759.25	2451.42
759.43	2504.67
759.61	2367.45
759.79	3495.88
759.97	2625.50
760.15	2455.51
760.32	2383.84
760.50	2502.62
760.68	2744.28
760.86	2269.15
761.04	2611.16
761.22	2621.40
761.39	2527.19
761.57	2482.14
761.75	2430.94
761.93	2590.68
762.11	2455.51
762.28	2394.08
762.46	2443.23
762.64	2578.39
762.82	2281.44
763.00	2375.64
763.18	2584.54
763.35	2306.01
763.53	2447.32
763.71	2531.29
763.89	2422.75
764.07	2559.96
764.24	2478.04
764.42	2613.21
764.60	2488.28
764.78	2516.95
764.96	2596.82
765.13	2586.58
765.31	2402.27
765.49	2545.63
765.67	2367.45
765.84	2375.64
766.02	2373.60
766.20	2310.11
766.38	2498.52
766.56	2480.09
766.73	2523.10
766.91	2416.60
767.09	2514.91
767.27	2531.29
767.44	2396.12
767.62	2572.25
767.80	2527.19
767.98	2432.99
768.15	2392.03
768.33	2549.72
768.51	2543.58
768.69	2539.48
768.87	2463.71
769.04	2437.08
769.22	2703.32
769.40	2627.54
769.58	2725.85
769.75	2502.62
769.93	2676.70
770.11	2480.09
770.28	2349.02
770.46	2580.44
770.64	2559.96
770.82	2447.32
770.99	2408.41
771.17	2625.50
771.35	2404.32
771.53	2488.28
771.70	2377.69
771.88	2539.48
772.06	2535.39
772.23	2408.41
772.41	2480.09
772.59	2416.60
772.77	2318.30
772.94	2445.27
773.12	2523.10
773.30	2389.98
773.47	2447.32
773.65	2381.79
773.83	2586.58
774.01	2496.47
774.18	2367.45
774.36	2500.57
774.54	2346.97
774.71	2527.19
774.89	2351.07
775.07	2359.26
775.24	2432.99
775.42	2355.16
775.60	2693.08
775.78	2410.46
775.95	2371.55
776.13	2312.16
776.31	2281.44
776.48	2494.43
776.66	2537.43
776.84	2400.22
777.01	2316.25
777.19	2367.45
777.37	2373.60
777.54	2549.72
777.72	2711.51
777.90	2486.23
778.07	2410.46
778.25	2959.31
778.43	2576.34
778.60	2340.83
778.78	2543.58
778.96	2686.94
779.13	2344.92
779.31	2619.35
779.49	2437.08
779.66	2519.00
779.84	2531.29
780.01	2478.04
780.19	2301.92
780.37	2637.78
780.54	2521.05
780.72	2338.78
780.90	2430.94
781.07	2441.18
781.25	2412.51
781.43	2469.85
781.60	2482.14
781.78	2602.97
781.95	2496.47
782.13	2371.55
782.31	2482.14
782.48	2183.13
782.66	2475.99
782.83	2695.13
783.01	2543.58
783.19	2629.59
783.36	2449.37
783.54	2330.59
783.72	2523.10
783.89	2406.36
784.07	2475.99
784.24	2525.15
784.42	2615.26
784.60	2541.53
784.77	2523.10
784.95	2258.91
785.12	2445.27
785.30	2549.72
785.47	2387.93
785.65	2365.40
785.83	2457.56
786.00	2432.99
786.18	2492.38
786.35	2299.87
786.53	2328.54
786.71	2564.06
786.88	2570.20
787.06	2559.96
787.23	2455.51
787.41	2363.36
787.58	2469.85
787.76	2373.60
787.94	2463.71
788.11	2502.62
788.29	2322.40
788.46	2371.55
788.64	2312.16
788.81	2406.36
788.99	2349.02
789.16	2326.49
789.34	2414.56
789.52	2375.64
789.69	2406.36
789.87	2330.59
790.04	2480.09
790.22	2435.03
790.39	2691.03
790.57	2285.53
790.74	2383.84
790.92	2629.59
791.09	2424.80
791.27	2510.81
791.44	2566.10
791.62	2523.10
791.79	2555.86
791.97	2492.38
792.15	2744.28
792.32	2543.58
792.50	2525.15
792.67	2709.46
792.85	2678.74
793.02	2482.14
793.20	2471.90
793.37	2424.80
793.55	2410.46
793.72	2349.02
793.90	2541.53
794.07	2430.94
794.25	2404.32
794.42	2527.19
794.60	2498.52
794.77	2539.48
794.95	2496.47
795.12	2576.34
795.30	2502.62
795.47	2271.20
795.65	2748.37
795.82	2465.75
796.00	2381.79
796.17	2445.27
796.34	2441.18
796.52	2570.20
796.69	2605.02
796.87	2547.67
797.04	2527.19
797.22	2584.54
797.39	2519.00
797.57	2523.10
797.74	2480.09
797.92	2547.67
798.09	2375.64
798.27	2543.58
798.44	2420.70
798.62	2400.22
798.79	2529.24
798.96	2480.09
799.14	2424.80
799.31	2754.52
799.49	2500.57
799.66	2449.37
799.84	2553.82
800.01	2371.55
800.19	2486.23
800.36	2324.44
800.53	2486.23
800.71	2547.67
800.88	2645.98
801.06	2387.93
801.23	2398.17
801.41	2416.60
801.58	2381.79
801.75	2416.60
801.93	2488.28
802.10	2609.11
802.28	2465.75
802.45	2432.99
802.63	2521.05
802.80	2605.02
802.97	2441.18
803.15	2461.66
803.32	2363.36
803.50	2408.41
803.67	2396.12
803.84	2269.15
804.02	2514.91
804.19	2467.80
804.37	2191.33
804.54	2365.40
804.71	2422.75
804.89	2465.75
805.06	2414.56
805.24	2316.25
805.41	2340.83
805.58	2275.29
805.76	2760.66
805.93	2512.86
806.10	2641.88
806.28	2574.30
806.45	2525.15
806.63	2514.91
806.80	2514.91
806.97	2592.73
807.15	2557.91
807.32	2463.71
807.49	2461.66
807.67	2301.92
807.84	2465.75
808.01	2308.06
808.19	2656.22
808.36	2727.89
808.54	2467.80
808.71	2326.49
808.88	2377.69
809.06	2592.73
809.23	2654.17
809.40	2461.66
809.58	2502.62
809.75	2475.99
809.92	2381.79
810.10	2717.65
810.27	2392.03
810.44	2510.81
810.62	2570.20
810.79	2471.90
810.96	2357.21
811.14	2375.64
811.31	2609.11
811.48	2514.91
811.66	2359.26
811.83	2605.02
812.00	2551.77
812.18	2478.04
812.35	2744.28
812.52	2445.27
812.69	2418.65
812.87	2443.23
813.04	2375.64
813.21	2430.94
813.39	2400.22
813.56	2349.02
813.73	2547.67
813.91	2371.55
814.08	2523.10
814.25	2488.28
814.42	2269.15
814.60	2447.32
814.77	2516.95
814.94	2475.99
815.12	2402.27
815.29	2648.02
815.46	2408.41
815.63	2465.75
815.81	2441.18
815.98	2367.45
816.15	2447.32
816.33	2471.90
816.50	2400.22
816.67	2484.19
816.84	2486.23
817.02	2365.40
817.19	2471.90
817.36	2514.91
817.53	2463.71
817.71	2371.55
817.88	2547.67
818.05	2465.75
818.22	2486.23
818.40	2621.40
818.57	2349.02
818.74	2580.44
818.91	2435.03
819.09	2531.29
819.26	2547.67
819.43	2435.03
819.60	2445.27
819.78	2498.52
819.95	2545.63
820.12	2299.87
820.29	2580.44
820.47	2596.82
820.64	2420.70
820.81	2283.49
820.98	2377.69
821.15	2478.04
821.33	2559.96
821.50	2267.10
821.67	2498.52
821.84	2346.97
822.02	2465.75
822.19	2572.25
822.36	2367.45
822.53	2435.03
822.70	2297.82
822.88	2451.42
823.05	2658.26
823.22	2449.37
823.39	2496.47
823.56	2426.84
823.74	2639.83
823.91	2351.07
824.08	2379.74
824.25	2461.66
824.42	2697.17
824.60	2351.07
824.77	2506.71
824.94	2480.09
825.11	2504.67
825.28	2269.15
825.45	2478.04
825.63	2496.47
825.80	2355.16
825.97	2461.66
826.14	2478.04
826.31	2246.62
826.48	2514.91
826.66	2416.60
826.83	2369.50
827.00	2478.04
827.17	2338.78
827.34	2553.82
827.51	2400.22
827.69	2602.97
827.86	2230.24
828.03	2371.55
828.20	2461.66
828.37	2459.61
828.54	2539.48
828.71	2453.47
828.89	2557.91
829.06	2455.51
829.23	2639.83
829.40	2398.17
829.57	2414.56
829.74	2514.91
829.91	2451.42
830.09	2432.99
830.26	2592.73
830.43	2637.78
830.60	2459.61
830.77	2576.34
830.94	2590.68
831.11	2545.63
831.28	2478.04
831.46	2588.63
831.63	2449.37
831.80	2564.06
831.97	2435.03
832.14	2449.37
832.31	2547.67
832.48	2564.06
832.65	2590.68
832.82	2443.23
832.99	2531.29
833.17	2418.65
833.34	2682.84
833.51	2523.10
833.68	2230.24
833.85	2621.40
834.02	2330.59
834.19	2359.26
834.36	2365.40
834.53	2471.90
834.70	2600.92
834.87	2559.96
835.04	2381.79
835.22	2398.17
835.39	2426.84
835.56	2330.59
835.73	2260.96
835.90	2686.94
836.07	2355.16
836.24	2455.51
836.41	2310.11
836.58	2322.40
836.75	2635.74
836.92	2389.98
837.09	2324.44
837.26	2535.39
837.43	2580.44
837.60	2465.75
837.77	2373.60
837.94	2506.71
838.12	2600.92
838.29	2387.93
838.46	2176.99
838.63	2383.84
838.80	2672.60
838.97	2480.09
839.14	2435.03
839.31	2416.60
839.48	2602.97
839.65	2410.46
839.82	2496.47
839.99	2535.39
840.16	2443.23
840.33	2310.11
840.50	2373.60
840.67	2326.49
840.84	2205.66
841.01	2381.79
841.18	2267.10
841.35	2457.56
841.52	2699.22
841.69	2516.95
841.86	2410.46
842.03	2500.57
842.20	2654.17
842.37	2398.17
842.54	2432.99
842.71	2445.27
842.88	2332.64
843.05	2484.19
843.22	2365.40
843.39	2580.44
843.56	2416.60
843.73	2373.60
843.90	2428.89
844.07	2539.48
844.24	2584.54
844.41	2453.47
844.58	2478.04
844.75	2516.95
844.92	2525.15
845.09	2373.60
845.26	2299.87
845.43	2557.91
845.60	2473.95
845.77	2459.61
845.94	2387.93
846.10	2598.87
846.27	2303.96
846.44	2306.01
846.61	2316.25
846.78	2547.67
846.95	2666.46
847.12	2359.26
847.29	2373.60
847.46	2451.42
847.63	2555.86
847.80	2363.36
847.97	2363.36
848.14	2750.42
848.31	2418.65
848.48	2289.63
848.65	2488.28
848.82	2396.12
848.98	2809.81
849.15	2467.80
849.32	2453.47
849.49	2600.92
849.66	2465.75
849.83	2412.51
850.00	2346.97
850.17	2564.06
850.34	2461.66
850.51	2414.56
850.68	2439.13
850.85	2785.24
851.01	2498.52
851.18	2443.23
851.35	2396.12
851.52	2498.52
851.69	2654.17
851.86	2342.88
852.03	2367.45
852.20	2570.20
852.37	2586.58
852.53	2281.44
852.70	2383.84
852.87	2478.04
853.04	2537.43
853.21	2392.03
853.38	2564.06
853.55	2664.41
853.72	2580.44
853.89	2346.97
854.05	2355.16
854.22	2473.95
854.39	2396.12
854.56	2383.84
854.73	2531.29
854.90	2371.55
855.07	2400.22
855.23	2318.30
855.40	2373.60
855.57	2422.75
855.74	2250.72
855.91	2519.00
856.08	2326.49
856.25	2332.64
856.41	2418.65
856.58	2353.12
856.75	2418.65
856.92	2293.72
857.09	2555.86
857.26	2248.67
857.42	2385.88
857.59	2580.44
857.76	2449.37
857.93	2420.70
858.10	2404.32
858.27	2394.08
858.43	2512.86
858.60	2310.11
858.77	2269.15
858.94	2467.80
859.11	2654.17
859.27	2394.08
859.44	2387.93
859.61	2652.12
859.78	2547.67
859.95	2428.89
860.12	2392.03
860.28	2738.13
860.45	2760.66
860.62	2416.60
860.79	2449.37
860.95	2371.55
861.12	2346.97
861.29	2316.25
861.46	2342.88
861.63	2414.56
861.79	2482.14
861.96	2295.77
862.13	2367.45
862.30	2557.91
862.47	2416.60
862.63	2289.63
862.80	2408.41
862.97	2555.86
863.14	2564.06
863.30	2408.41
863.47	2275.29
863.64	2580.44
863.81	2516.95
863.97	2365.40
864.14	2398.17
864.31	2418.65
864.48	2469.85
864.65	2387.93
864.81	2482.14
864.98	2490.33
865.15	2619.35
865.32	2488.28
865.48	2398.17
865.65	2627.54
865.82	2392.03
865.98	2465.75
866.15	2482.14
866.32	2490.33
866.49	2414.56
866.65	2482.14
866.82	2293.72
866.99	2482.14
867.16	2379.74
867.32	2377.69
867.49	2400.22
867.66	2490.33
867.83	2430.94
867.99	2277.34
868.16	2404.32
868.33	2351.07
868.49	2514.91
868.66	2338.78
868.83	2432.99
868.99	2519.00
869.16	2490.33
869.33	2498.52
869.50	2516.95
869.66	2512.86
869.83	2496.47
870.00	2293.72
870.16	2469.85
870.33	2484.19
870.50	2514.91
870.66	2459.61
870.83	2580.44
871.00	2471.90
871.17	2566.10
871.33	2547.67
871.50	2375.64
871.67	2453.47
871.83	2439.13
872.00	2498.52
872.17	2432.99
872.33	2680.79
872.50	2639.83
872.67	2416.60
872.83	2445.27
873.00	2547.67
873.17	2418.65
873.33	2545.63
873.50	2488.28
873.67	2439.13
873.83	2441.18
874.00	2449.37
874.16	2400.22
874.33	2506.71
874.50	2301.92
874.66	2418.65
874.83	2416.60
875.00	2633.69
875.16	2623.45
875.33	2445.27
875.50	2226.14
875.66	2449.37
875.83	2467.80
875.99	2437.08
876.16	2371.55
876.33	2402.27
876.49	2410.46
876.66	2424.80
876.83	2422.75
876.99	2351.07
877.16	2455.51
877.32	2320.35
877.49	2346.97
877.66	2490.33
877.82	2775.00
877.99	2463.71
878.15	2543.58
878.32	2418.65
878.49	2478.04
878.65	2422.75
878.82	2506.71
878.98	2359.26
879.15	2580.44
879.32	2455.51
879.48	2494.43
879.65	2471.90
879.81	2480.09
879.98	2408.41
880.15	2490.33
880.31	2547.67
880.48	2367.45
880.64	2494.43
880.81	2449.37
880.97	2670.55
881.14	2660.31
881.31	2322.40
881.47	2564.06
881.64	2430.94
881.80	2297.82
881.97	2455.51
882.13	2447.32
882.30	2377.69
882.47	2306.01
882.63	2432.99
882.80	2332.64
882.96	2453.47
883.13	2629.59
883.29	2400.22
883.46	2406.36
883.62	2699.22
883.79	2443.23
883.95	2473.95
884.12	2346.97
884.29	2621.40
884.45	2498.52
884.62	2463.71
884.78	2322.40
884.95	2678.74
885.11	2359.26
885.28	2457.56
885.44	2414.56
885.61	2473.95
885.77	2627.54
885.94	2465.75
886.10	2351.07
886.27	2498.52
886.43	2623.45
886.60	2557.91
886.76	2357.21
886.93	2338.78
887.09	2531.29
887.26	2289.63
887.42	2441.18
887.59	2602.97
887.75	2709.46
887.92	2590.68
888.08	2420.70
888.25	2650.07
888.41	2516.95
888.58	2486.23
888.74	2381.79
888.91	2396.12
>>>>>End Processed Spectral Data<<<<<
