SpectraSuite Data File
++++++++++++++++++++++++++++++++++++
Date: Thu May 05 14:41:39 CEST 2016
User: root
Dark Spectrum Present: No
Reference Spectrum Present: No
Number of Sampled Component Spectra: 1
Spectrometers: USB4C02835
Integration Time (usec): 100000 (USB4C02835)
Spectra Averaged: 1 (USB4C02835)
Boxcar Smoothing: 0 (USB4C02835)
Correct for Electrical Dark: No (USB4C02835)
Strobe/Lamp Enabled: No (USB4C02835)
Correct for Detector Non-linearity: No (USB4C02835)
Correct for Stray Light: No (USB4C02835)
Number of Pixels in Processed Spectrum: 3648
>>>>>Begin Processed Spectral Data<<<<<
177.47	1863.65
177.69	1863.65
177.91	1863.65
178.13	1904.61
178.36	1931.23
178.58	2396.12
178.80	2465.75
179.02	2316.25
179.24	2455.51
179.46	2269.15
179.68	2314.20
179.90	2449.37
180.13	2510.81
180.35	2129.89
180.57	2326.49
180.79	2584.54
181.01	2473.95
181.23	2424.80
181.45	2496.47
181.67	2539.48
181.90	2494.43
182.12	2371.55
182.34	2199.52
182.56	2582.49
182.78	2559.96
183.00	2351.07
183.22	2363.36
183.44	2306.01
183.66	2760.66
183.89	2430.94
184.11	2349.02
184.33	2463.71
184.55	2598.87
184.77	2396.12
184.99	2344.92
185.21	2385.88
185.43	2752.47
185.65	2387.93
185.87	2295.77
186.10	2785.24
186.32	2785.24
186.54	2467.80
186.76	2416.60
186.98	2572.25
187.20	2451.42
187.42	2363.36
187.64	2271.20
187.86	2594.78
188.08	2596.82
188.30	2244.57
188.52	2344.92
188.75	2641.88
188.97	2559.96
189.19	2330.59
189.41	2383.84
189.63	2574.30
189.85	2467.80
190.07	2220.00
190.29	2248.67
190.51	2539.48
190.73	2381.79
190.95	2490.33
191.17	2342.88
191.39	2301.92
191.61	2465.75
191.84	2357.21
192.06	2486.23
192.28	2306.01
192.50	2840.53
192.72	2396.12
192.94	2371.55
193.16	2662.36
193.38	2500.57
193.60	2277.34
193.82	2422.75
194.04	2611.16
194.26	2588.63
194.48	2398.17
194.70	2291.68
194.92	2351.07
195.14	2562.01
195.36	2314.20
195.58	2449.37
195.80	2469.85
196.02	2453.47
196.24	2316.25
196.46	2371.55
196.69	2455.51
196.91	2772.95
197.13	2437.08
197.35	2375.64
197.57	2721.75
197.79	2643.93
198.01	2385.88
198.23	2383.84
198.45	2555.86
198.67	2349.02
198.89	2281.44
199.11	2398.17
199.33	2371.55
199.55	2158.56
199.77	2330.59
199.99	2461.66
200.21	2480.09
200.43	2500.57
200.65	2183.13
200.87	2121.70
201.09	2512.86
201.31	2437.08
201.53	2426.84
201.75	2357.21
201.97	2539.48
202.19	2465.75
202.41	2455.51
202.63	2568.15
202.85	2617.30
203.07	2547.67
203.29	2342.88
203.51	2314.20
203.73	2412.51
203.95	2887.64
204.17	2324.44
204.39	2478.04
204.61	2437.08
204.83	2383.84
205.05	2471.90
205.27	2406.36
205.49	2799.57
205.71	2465.75
205.93	2226.14
206.15	2336.73
206.37	2480.09
206.59	2529.24
206.81	2217.95
207.03	2324.44
207.25	2379.74
207.47	2549.72
207.69	2310.11
207.91	2523.10
208.13	2658.26
208.34	2369.50
208.56	2242.53
208.78	2408.41
209.00	2400.22
209.22	2557.91
209.44	2351.07
209.66	2361.31
209.88	2506.71
210.10	2461.66
210.32	2326.49
210.54	2461.66
210.76	2381.79
210.98	2652.12
211.20	2201.57
211.42	2469.85
211.64	2609.11
211.86	2463.71
212.08	2394.08
212.30	2340.83
212.52	2383.84
212.74	2478.04
212.96	2453.47
213.17	2398.17
213.39	2617.30
213.61	2584.54
213.83	2303.96
214.05	2367.45
214.27	2574.30
214.49	2344.92
214.71	2283.49
214.93	2408.41
215.15	2484.19
215.37	2588.63
215.59	2293.72
215.81	2432.99
216.03	2637.78
216.24	2457.56
216.46	2367.45
216.68	2414.56
216.90	2564.06
217.12	2566.10
217.34	2326.49
217.56	2457.56
217.78	2605.02
218.00	2537.43
218.22	2349.02
218.44	2437.08
218.66	2490.33
218.87	2768.85
219.09	2301.92
219.31	2324.44
219.53	2492.38
219.75	2414.56
219.97	2447.32
220.19	2301.92
220.41	2498.52
220.63	2654.17
220.85	2394.08
221.06	2359.26
221.28	2670.55
221.50	2547.67
221.72	2416.60
221.94	2275.29
222.16	2490.33
222.38	2480.09
222.60	2367.45
222.82	2363.36
223.03	2600.92
223.25	2326.49
223.47	2326.49
223.69	2498.52
223.91	2514.91
224.13	2553.82
224.35	2236.38
224.57	2488.28
224.78	2533.34
225.00	2385.88
225.22	2412.51
225.44	2322.40
225.66	2490.33
225.88	2430.94
226.10	2463.71
226.32	2314.20
226.53	2688.98
226.75	2400.22
226.97	2392.03
227.19	2404.32
227.41	2443.23
227.63	2420.70
227.85	2244.57
228.06	2353.12
228.28	2494.43
228.50	2543.58
228.72	2228.19
228.94	2326.49
229.16	2228.19
229.37	2318.30
229.59	2351.07
229.81	2473.95
230.03	2478.04
230.25	2334.68
230.47	2234.33
230.69	2344.92
230.90	2607.06
231.12	2449.37
231.34	2486.23
231.56	2473.95
231.78	2381.79
232.00	2445.27
232.21	2375.64
232.43	2342.88
232.65	2207.71
232.87	2549.72
233.09	2267.10
233.30	2293.72
233.52	2656.22
233.74	2418.65
233.96	2375.64
234.18	2387.93
234.40	2494.43
234.61	2695.13
234.83	2314.20
235.05	2340.83
235.27	2840.53
235.49	2576.34
235.70	2244.57
235.92	2367.45
236.14	2551.77
236.36	2813.91
236.58	2236.38
236.79	2432.99
237.01	2467.80
237.23	2451.42
237.45	2488.28
237.67	2387.93
237.88	2478.04
238.10	2678.74
238.32	2310.11
238.54	2351.07
238.76	2426.84
238.97	2471.90
239.19	2332.64
239.41	2373.60
239.63	2533.34
239.85	2385.88
240.06	2424.80
240.28	2279.39
240.50	2643.93
240.72	2402.27
240.93	2277.34
241.15	2457.56
241.37	2463.71
241.59	2670.55
241.81	2277.34
242.02	2330.59
242.24	2496.47
242.46	2564.06
242.68	2220.00
242.89	2324.44
243.11	2551.77
243.33	2471.90
243.55	2357.21
243.76	2371.55
243.98	2373.60
244.20	2447.32
244.42	2293.72
244.64	2363.36
244.85	2346.97
245.07	2342.88
245.29	2367.45
245.51	2346.97
245.72	2543.58
245.94	2615.26
246.16	2338.78
246.38	2445.27
246.59	2494.43
246.81	2455.51
247.03	2279.39
247.24	2213.85
247.46	2377.69
247.68	2428.89
247.90	2308.06
248.11	2379.74
248.33	2574.30
248.55	2482.14
248.77	2408.41
248.98	2443.23
249.20	2645.98
249.42	2555.86
249.64	2346.97
249.85	2324.44
250.07	2420.70
250.29	2543.58
250.50	2367.45
250.72	2240.48
250.94	2570.20
251.16	2711.51
251.37	2342.88
251.59	2455.51
251.81	2557.91
252.02	2588.63
252.24	2334.68
252.46	2453.47
252.68	2289.63
252.89	2402.27
253.11	2250.72
253.33	2488.28
253.54	2652.12
253.76	2332.64
253.98	2359.26
254.20	2303.96
254.41	2308.06
254.63	2514.91
254.85	2297.82
255.06	2383.84
255.28	2504.67
255.50	2488.28
255.71	2316.25
255.93	2248.67
256.15	2445.27
256.36	2531.29
256.58	2340.83
256.80	2383.84
257.02	2416.60
257.23	2408.41
257.45	2318.30
257.67	2406.36
257.88	2455.51
258.10	2490.33
258.32	2334.68
258.53	2351.07
258.75	2666.46
258.97	2490.33
259.18	2326.49
259.40	2465.75
259.62	2629.59
259.83	2703.32
260.05	2349.02
260.27	2865.11
260.48	2627.54
260.70	2420.70
260.92	2291.68
261.13	2291.68
261.35	2422.75
261.57	2521.05
261.78	2226.14
262.00	2269.15
262.22	2564.06
262.43	2394.08
262.65	2295.77
262.86	2318.30
263.08	2768.85
263.30	2457.56
263.51	2236.38
263.73	2338.78
263.95	2672.60
264.16	2412.51
264.38	2299.87
264.60	2289.63
264.81	2432.99
265.03	2555.86
265.25	2566.10
265.46	2346.97
265.68	2658.26
265.89	2568.15
266.11	2240.48
266.33	2363.36
266.54	2600.92
266.76	2523.10
266.98	2398.17
267.19	2471.90
267.41	2668.50
267.62	2422.75
267.84	2240.48
268.06	2465.75
268.27	2521.05
268.49	2600.92
268.70	2387.93
268.92	2306.01
269.14	2336.73
269.35	2340.83
269.57	2375.64
269.79	2463.71
270.00	2469.85
270.22	2682.84
270.43	2308.06
270.65	2144.22
270.87	2439.13
271.08	2562.01
271.30	2455.51
271.51	2392.03
271.73	2527.19
271.95	2643.93
272.16	2359.26
272.38	2432.99
272.59	2422.75
272.81	2570.20
273.02	2332.64
273.24	2449.37
273.46	2592.73
273.67	2383.84
273.89	2252.77
274.10	2306.01
274.32	2611.16
274.54	2455.51
274.75	2512.86
274.97	2375.64
275.18	2478.04
275.40	2600.92
275.61	2392.03
275.83	2463.71
276.05	2351.07
276.26	2430.94
276.48	2482.14
276.69	2377.69
276.91	2457.56
277.12	2643.93
277.34	2482.14
277.55	2510.81
277.77	2492.38
277.99	2498.52
278.20	2340.83
278.42	2326.49
278.63	2455.51
278.85	2412.51
279.06	2336.73
279.28	2441.18
279.49	2594.78
279.71	2529.24
279.93	2408.41
280.14	2392.03
280.36	2369.50
280.57	2594.78
280.79	2519.00
281.00	2269.15
281.22	2363.36
281.43	2625.50
281.65	2240.48
281.86	2369.50
282.08	2494.43
282.29	2719.70
282.51	2293.72
282.73	2334.68
282.94	2363.36
283.16	2506.71
283.37	2590.68
283.59	2404.32
283.80	2523.10
284.02	2506.71
284.23	2453.47
284.45	2506.71
284.66	2324.44
284.88	2361.31
285.09	2412.51
285.31	2473.95
285.52	2562.01
285.74	2291.68
285.95	2514.91
286.17	2420.70
286.38	2588.63
286.60	2418.65
286.81	2349.02
287.03	2422.75
287.24	2439.13
287.46	2578.39
287.67	2435.03
287.89	2619.35
288.10	2502.62
288.32	2494.43
288.53	2531.29
288.75	2545.63
288.96	2600.92
289.18	2396.12
289.39	2373.60
289.61	2562.01
289.82	2772.95
290.04	2734.04
290.25	2351.07
290.47	2449.37
290.68	2506.71
290.90	2619.35
291.11	2310.11
291.33	2514.91
291.54	2435.03
291.76	2510.81
291.97	2449.37
292.18	2478.04
292.40	2342.88
292.61	2392.03
292.83	2637.78
293.04	2418.65
293.26	2494.43
293.47	2465.75
293.69	2392.03
293.90	2389.98
294.12	2635.74
294.33	2455.51
294.55	2465.75
294.76	2570.20
294.97	2629.59
295.19	2777.05
295.40	2461.66
295.62	2422.75
295.83	2514.91
296.05	2301.92
296.26	2523.10
296.48	2291.68
296.69	2521.05
296.90	2480.09
297.12	2555.86
297.33	2521.05
297.55	2498.52
297.76	2551.77
297.98	2547.67
298.19	2449.37
298.41	2484.19
298.62	2377.69
298.83	2652.12
299.05	2457.56
299.26	2353.12
299.48	2408.41
299.69	2473.95
299.90	2371.55
300.12	2453.47
300.33	2514.91
300.55	2531.29
300.76	2539.48
300.98	2359.26
301.19	2494.43
301.40	2437.08
301.62	2455.51
301.83	2498.52
302.05	2506.71
302.26	2381.79
302.47	2453.47
302.69	2424.80
302.90	2572.25
303.12	2318.30
303.33	2584.54
303.54	2711.51
303.76	2461.66
303.97	2439.13
304.19	2580.44
304.40	2379.74
304.61	2486.23
304.83	2625.50
305.04	2527.19
305.26	2586.58
305.47	2471.90
305.68	2418.65
305.90	2353.12
306.11	2666.46
306.33	2414.56
306.54	2297.82
306.75	2316.25
306.97	2334.68
307.18	2316.25
307.39	2406.36
307.61	2457.56
307.82	2465.75
308.04	2529.24
308.25	2297.82
308.46	2519.00
308.68	2469.85
308.89	2494.43
309.10	2504.67
309.32	2367.45
309.53	2553.82
309.74	2543.58
309.96	2414.56
310.17	2502.62
310.39	2359.26
310.60	2662.36
310.81	2469.85
311.03	2238.43
311.24	2539.48
311.45	2572.25
311.67	2691.03
311.88	2451.42
312.09	2420.70
312.31	2396.12
312.52	2424.80
312.73	2387.93
312.95	2303.96
313.16	2414.56
313.37	2545.63
313.59	2531.29
313.80	2535.39
314.01	2688.98
314.23	2451.42
314.44	2324.44
314.65	2310.11
314.87	2312.16
315.08	2406.36
315.29	2424.80
315.51	2363.36
315.72	2289.63
315.93	2564.06
316.15	2480.09
316.36	2383.84
316.57	2480.09
316.79	2512.86
317.00	2445.27
317.21	2572.25
317.43	2412.51
317.64	2381.79
317.85	2357.21
318.07	2392.03
318.28	2521.05
318.49	2553.82
318.70	2666.46
318.92	2686.94
319.13	2605.02
319.34	2734.04
319.56	2469.85
319.77	2633.69
319.98	2656.22
320.20	2621.40
320.41	2619.35
320.62	2541.53
320.83	2375.64
321.05	2555.86
321.26	2498.52
321.47	2535.39
321.69	2668.50
321.90	2295.77
322.11	2349.02
322.32	2439.13
322.54	2775.00
322.75	2432.99
322.96	2813.91
323.18	2330.59
323.39	2232.29
323.60	2385.88
323.81	2447.32
324.03	2375.64
324.24	2441.18
324.45	2453.47
324.66	2353.12
324.88	2668.50
325.09	2656.22
325.30	2400.22
325.52	2420.70
325.73	2559.96
325.94	2346.97
326.15	2320.35
326.37	2435.03
326.58	2506.71
326.79	2605.02
327.00	2301.92
327.22	2488.28
327.43	2457.56
327.64	2322.40
327.85	2430.94
328.07	2471.90
328.28	2754.52
328.49	2398.17
328.70	2357.21
328.92	2392.03
329.13	2482.14
329.34	2619.35
329.55	2656.22
329.76	2531.29
329.98	2498.52
330.19	2645.98
330.40	2406.36
330.61	2449.37
330.83	2566.10
331.04	2377.69
331.25	2400.22
331.46	2369.50
331.68	2344.92
331.89	2674.65
332.10	2408.41
332.31	2236.38
332.52	2510.81
332.74	2635.74
332.95	2301.92
333.16	2486.23
333.37	2566.10
333.58	2418.65
333.80	2404.32
334.01	2217.95
334.22	2426.84
334.43	2371.55
334.64	2361.31
334.86	2308.06
335.07	2437.08
335.28	2670.55
335.49	2267.10
335.70	2533.34
335.92	2619.35
336.13	2758.61
336.34	2539.48
336.55	2453.47
336.76	2535.39
336.98	2303.96
337.19	2398.17
337.40	2480.09
337.61	2744.28
337.82	2525.15
338.04	2527.19
338.25	2355.16
338.46	2484.19
338.67	2445.27
338.88	2297.82
339.09	2330.59
339.31	2389.98
339.52	2342.88
339.73	2316.25
339.94	2355.16
340.15	2500.57
340.36	2369.50
340.58	2457.56
340.79	2287.58
341.00	2580.44
341.21	2367.45
341.42	2594.78
341.63	2408.41
341.85	2666.46
342.06	2543.58
342.27	2363.36
342.48	2519.00
342.69	2355.16
342.90	2584.54
343.12	2570.20
343.33	2416.60
343.54	2549.72
343.75	2611.16
343.96	2490.33
344.17	2371.55
344.38	2432.99
344.60	2357.21
344.81	2318.30
345.02	2408.41
345.23	2613.21
345.44	2764.76
345.65	2449.37
345.86	2420.70
346.07	2484.19
346.29	2406.36
346.50	2461.66
346.71	2553.82
346.92	2680.79
347.13	2772.95
347.34	2416.60
347.55	2375.64
347.76	2568.15
347.98	2201.57
348.19	2377.69
348.40	2588.63
348.61	2447.32
348.82	2756.57
349.03	2488.28
349.24	2334.68
349.45	2703.32
349.66	2185.18
349.88	2414.56
350.09	2404.32
350.30	2693.08
350.51	2625.50
350.72	2545.63
350.93	2400.22
351.14	2377.69
351.35	2547.67
351.56	2373.60
351.77	2428.89
351.99	2529.24
352.20	2605.02
352.41	2590.68
352.62	2244.57
352.83	2455.51
353.04	2519.00
353.25	2422.75
353.46	2504.67
353.67	2701.27
353.88	2318.30
354.09	2381.79
354.30	2523.10
354.52	2473.95
354.73	2400.22
354.94	2357.21
355.15	2451.42
355.36	2686.94
355.57	2445.27
355.78	2394.08
355.99	2363.36
356.20	2471.90
356.41	2600.92
356.62	2387.93
356.83	2435.03
357.04	2660.31
357.25	2324.44
357.46	2375.64
357.68	2260.96
357.89	2367.45
358.10	2463.71
358.31	2445.27
358.52	2441.18
358.73	2351.07
358.94	2371.55
359.15	2359.26
359.36	2521.05
359.57	2445.27
359.78	2449.37
359.99	2533.34
360.20	2426.84
360.41	2529.24
360.62	2662.36
360.83	2457.56
361.04	2461.66
361.25	2541.53
361.46	2654.17
361.67	2484.19
361.88	2473.95
362.09	2574.30
362.30	2486.23
362.51	2387.93
362.72	2414.56
362.93	2611.16
363.14	2471.90
363.35	2469.85
363.56	2351.07
363.78	2686.94
363.99	2609.11
364.20	2408.41
364.41	2537.43
364.62	2734.04
364.83	2588.63
365.04	2422.75
365.25	2432.99
365.46	2736.09
365.67	2424.80
365.88	2508.76
366.09	2506.71
366.30	2420.70
366.51	2527.19
366.72	2234.33
366.93	2508.76
367.14	2494.43
367.35	2559.96
367.56	2396.12
367.77	2545.63
367.98	2416.60
368.18	2521.05
368.39	2502.62
368.60	2326.49
368.81	2523.10
369.02	2508.76
369.23	2473.95
369.44	2291.68
369.65	2396.12
369.86	2521.05
370.07	2502.62
370.28	2279.39
370.49	2490.33
370.70	2529.24
370.91	2404.32
371.12	2228.19
371.33	2643.93
371.54	2396.12
371.75	2570.20
371.96	2215.90
372.17	2488.28
372.38	2523.10
372.59	2435.03
372.80	2422.75
373.01	2437.08
373.22	2516.95
373.43	2437.08
373.64	2359.26
373.85	2617.30
374.06	2723.80
374.26	2566.10
374.47	2512.86
374.68	2654.17
374.89	2463.71
375.10	2404.32
375.31	2500.57
375.52	2504.67
375.73	2392.03
375.94	2326.49
376.15	2592.73
376.36	2441.18
376.57	2453.47
376.78	2453.47
376.99	2435.03
377.20	2658.26
377.40	2416.60
377.61	2555.86
377.82	2355.16
378.03	2641.88
378.24	2607.06
378.45	2473.95
378.66	2445.27
378.87	2258.91
379.08	2267.10
379.29	2383.84
379.50	2494.43
379.71	2498.52
379.91	2641.88
380.12	2467.80
380.33	2461.66
380.54	2531.29
380.75	2445.27
380.96	2469.85
381.17	2535.39
381.38	2537.43
381.59	2535.39
381.80	2459.61
382.00	2617.30
382.21	2502.62
382.42	2672.60
382.63	2672.60
382.84	2492.38
383.05	2652.12
383.26	2676.70
383.47	2527.19
383.68	2488.28
383.88	2559.96
384.09	2480.09
384.30	2668.50
384.51	2383.84
384.72	2498.52
384.93	2361.31
385.14	2486.23
385.35	2473.95
385.55	2375.64
385.76	2605.02
385.97	2478.04
386.18	2342.88
386.39	2394.08
386.60	2375.64
386.81	2449.37
387.02	2312.16
387.22	2316.25
387.43	2555.86
387.64	2480.09
387.85	2605.02
388.06	2682.84
388.27	4102.08
388.48	8351.62
388.68	12205.89
388.89	14348.07
389.10	15841.04
389.31	14663.46
389.52	11503.44
389.73	9934.70
389.93	9027.45
390.14	8189.83
390.35	7196.56
390.56	6791.06
390.77	5496.75
390.98	4136.90
391.18	3334.09
391.39	2942.93
391.60	2619.35
391.81	2594.78
392.02	2400.22
392.23	2809.81
392.43	2467.80
392.64	2613.21
392.85	2486.23
393.06	2672.60
393.27	2469.85
393.47	2332.64
393.68	2492.38
393.89	2422.75
394.10	2652.12
394.31	2387.93
394.52	2293.72
394.72	2357.21
394.93	2656.22
395.14	2383.84
395.35	2516.95
395.56	2455.51
395.76	2394.08
395.97	2455.51
396.18	2625.50
396.39	2678.74
396.60	3004.37
396.80	2727.89
397.01	2660.31
397.22	2613.21
397.43	2648.02
397.64	2363.36
397.84	2559.96
398.05	2772.95
398.26	2484.19
398.47	2572.25
398.67	2564.06
398.88	2496.47
399.09	2654.17
399.30	2293.72
399.51	2514.91
399.71	2392.03
399.92	2451.42
400.13	2492.38
400.34	2402.27
400.54	2506.71
400.75	2707.41
400.96	2465.75
401.17	2729.94
401.37	2613.21
401.58	2498.52
401.79	2467.80
402.00	2631.64
402.21	2926.55
402.41	2762.71
402.62	2809.81
402.83	2848.72
403.04	2932.69
403.24	3125.20
403.45	2629.59
403.66	2809.81
403.87	2746.33
404.07	2793.43
404.28	2787.29
404.49	2600.92
404.70	2555.86
404.90	2648.02
405.11	2471.90
405.32	2578.39
405.52	2465.75
405.73	2418.65
405.94	2383.84
406.15	2473.95
406.35	2531.29
406.56	2568.15
406.77	2502.62
406.98	2478.04
407.18	2394.08
407.39	2662.36
407.60	2527.19
407.80	2473.95
408.01	2420.70
408.22	2484.19
408.43	2408.41
408.63	2480.09
408.84	2631.64
409.05	2639.83
409.25	2351.07
409.46	2455.51
409.67	2334.68
409.88	2422.75
410.08	2482.14
410.29	2381.79
410.50	2605.02
410.70	2553.82
410.91	2461.66
411.12	2443.23
411.32	2514.91
411.53	2412.51
411.74	2529.24
411.95	2523.10
412.15	2510.81
412.36	2580.44
412.57	2566.10
412.77	2637.78
412.98	2529.24
413.19	2416.60
413.39	2568.15
413.60	2488.28
413.81	2615.26
414.01	2435.03
414.22	2541.53
414.43	2535.39
414.63	2400.22
414.84	2523.10
415.05	2443.23
415.25	2260.96
415.46	2605.02
415.67	2451.42
415.87	2521.05
416.08	2482.14
416.29	2478.04
416.49	2535.39
416.70	2414.56
416.91	2408.41
417.11	2461.66
417.32	2625.50
417.53	2535.39
417.73	2494.43
417.94	2523.10
418.15	2588.63
418.35	2457.56
418.56	2387.93
418.77	2746.33
418.97	2478.04
419.18	2426.84
419.38	2275.29
419.59	2484.19
419.80	2662.36
420.00	2480.09
420.21	2445.27
420.42	2621.40
420.62	2516.95
420.83	2373.60
421.04	2387.93
421.24	2488.28
421.45	2539.48
421.65	2424.80
421.86	2385.88
422.07	2635.74
422.27	2555.86
422.48	2416.60
422.69	2326.49
422.89	2576.34
423.10	2459.61
423.30	2387.93
423.51	2482.14
423.72	2609.11
423.92	2559.96
424.13	2392.03
424.33	2498.52
424.54	2596.82
424.75	2455.51
424.95	2621.40
425.16	2463.71
425.36	2463.71
425.57	2566.10
425.78	2559.96
425.98	2525.15
426.19	2478.04
426.39	2381.79
426.60	2519.00
426.81	2590.68
427.01	2461.66
427.22	2342.88
427.42	2324.44
427.63	2322.40
427.83	2674.65
428.04	2654.17
428.25	2523.10
428.45	2559.96
428.66	2631.64
428.86	2392.03
429.07	2455.51
429.28	2459.61
429.48	2420.70
429.69	2365.40
429.89	2502.62
430.10	2351.07
430.30	2506.71
430.51	2580.44
430.71	2457.56
430.92	2437.08
431.13	2355.16
431.33	2562.01
431.54	2480.09
431.74	2584.54
431.95	2768.85
432.15	2412.51
432.36	2426.84
432.56	2588.63
432.77	2662.36
432.98	2697.17
433.18	2457.56
433.39	2432.99
433.59	2443.23
433.80	2793.43
434.00	2691.03
434.21	2385.88
434.41	2428.89
434.62	2789.33
434.82	2338.78
435.03	2381.79
435.23	2559.96
435.44	2316.25
435.64	2420.70
435.85	2480.09
436.06	2506.71
436.26	2625.50
436.47	2414.56
436.67	2351.07
436.88	2461.66
437.08	2588.63
437.29	2566.10
437.49	2586.58
437.70	2670.55
437.90	2521.05
438.11	2645.98
438.31	2564.06
438.52	2654.17
438.72	2721.75
438.93	2785.24
439.13	2572.25
439.34	2635.74
439.54	2535.39
439.75	2541.53
439.95	2576.34
440.16	2437.08
440.36	2437.08
440.57	2457.56
440.77	2441.18
440.98	2533.34
441.18	2570.20
441.39	2445.27
441.59	2385.88
441.80	2754.52
442.00	2525.15
442.21	2557.91
442.41	2318.30
442.62	2629.59
442.82	2441.18
443.02	2449.37
443.23	2535.39
443.43	2432.99
443.64	2691.03
443.84	2367.45
444.05	2605.02
444.25	2566.10
444.46	2504.67
444.66	2465.75
444.87	2654.17
445.07	2314.20
445.28	2525.15
445.48	2523.10
445.69	2443.23
445.89	2793.43
446.09	2490.33
446.30	2775.00
446.50	3030.99
446.71	4560.83
446.91	5726.12
447.12	6614.94
447.32	7155.60
447.53	6590.36
447.73	5461.93
447.93	4718.52
448.14	4509.63
448.34	4267.97
448.55	3762.12
448.75	3760.07
448.96	3508.17
449.16	3256.27
449.36	3053.52
449.57	2805.72
449.77	2568.15
449.98	2471.90
450.18	2643.93
450.39	2547.67
450.59	2637.78
450.79	2519.00
451.00	2430.94
451.20	2514.91
451.41	2461.66
451.61	2621.40
451.81	2490.33
452.02	2416.60
452.22	2445.27
452.43	2432.99
452.63	2383.84
452.84	2512.86
453.04	2392.03
453.24	2496.47
453.45	2482.14
453.65	2447.32
453.86	2547.67
454.06	2496.47
454.26	2512.86
454.47	2410.46
454.67	2662.36
454.87	2537.43
455.08	2469.85
455.28	2596.82
455.49	2559.96
455.69	2367.45
455.89	2818.00
456.10	2611.16
456.30	2389.98
456.51	2650.07
456.71	2555.86
456.91	2519.00
457.12	2539.48
457.32	2525.15
457.52	2426.84
457.73	2590.68
457.93	2631.64
458.14	2424.80
458.34	2357.21
458.54	2424.80
458.75	2443.23
458.95	2564.06
459.15	2488.28
459.36	2539.48
459.56	2473.95
459.76	2858.96
459.97	2590.68
460.17	2480.09
460.37	2559.96
460.58	2439.13
460.78	2574.30
460.99	2412.51
461.19	2480.09
461.39	2496.47
461.60	2496.47
461.80	2488.28
462.00	2340.83
462.21	2457.56
462.41	2400.22
462.61	2410.46
462.82	2338.78
463.02	2566.10
463.22	2547.67
463.43	2568.15
463.63	2498.52
463.83	2670.55
464.04	2588.63
464.24	2449.37
464.44	2320.35
464.64	2586.58
464.85	2666.46
465.05	2469.85
465.25	2447.32
465.46	2404.32
465.66	2609.11
465.86	2514.91
466.07	2412.51
466.27	2453.47
466.47	2342.88
466.68	2355.16
466.88	2535.39
467.08	2574.30
467.29	2596.82
467.49	2482.14
467.69	2537.43
467.89	2549.72
468.10	2457.56
468.30	2457.56
468.50	2662.36
468.71	2660.31
468.91	2314.20
469.11	2695.13
469.31	2525.15
469.52	2381.79
469.72	2672.60
469.92	2723.80
470.13	2473.95
470.33	2553.82
470.53	2576.34
470.73	2904.02
470.94	3198.93
471.14	3452.88
471.34	3887.04
471.54	3784.65
471.75	3344.33
471.95	3069.91
472.15	3020.75
472.36	3026.90
472.56	2957.27
472.76	2965.46
472.96	2850.77
473.17	2791.38
473.37	2662.36
473.57	2592.73
473.77	2586.58
473.98	2545.63
474.18	2338.78
474.38	2797.53
474.58	2432.99
474.79	2418.65
474.99	2529.24
475.19	2539.48
475.39	2379.74
475.60	2516.95
475.80	2432.99
476.00	2523.10
476.20	2441.18
476.41	2424.80
476.61	2580.44
476.81	2674.65
477.01	2361.31
477.21	2725.85
477.42	2607.06
477.62	2373.60
477.82	2605.02
478.02	2334.68
478.23	2508.76
478.43	2316.25
478.63	2461.66
478.83	2480.09
479.03	2424.80
479.24	2648.02
479.44	2711.51
479.64	2394.08
479.84	2209.76
480.04	2428.89
480.25	2559.96
480.45	2430.94
480.65	2424.80
480.85	2621.40
481.06	2443.23
481.26	2473.95
481.46	2510.81
481.66	2490.33
481.86	2389.98
482.06	2643.93
482.27	2441.18
482.47	2381.79
482.67	2572.25
482.87	2424.80
483.07	2547.67
483.28	2422.75
483.48	2387.93
483.68	2441.18
483.88	2400.22
484.08	2265.05
484.29	2318.30
484.49	2496.47
484.69	2330.59
484.89	2611.16
485.09	2605.02
485.29	2555.86
485.50	2519.00
485.70	2400.22
485.90	2672.60
486.10	2521.05
486.30	2463.71
486.50	2607.06
486.71	2519.00
486.91	2633.69
487.11	2578.39
487.31	2357.21
487.51	2553.82
487.71	2400.22
487.91	2455.51
488.12	2353.12
488.32	2189.28
488.52	2424.80
488.72	2314.20
488.92	2521.05
489.12	2674.65
489.32	2562.01
489.53	2519.00
489.73	2383.84
489.93	2641.88
490.13	2400.22
490.33	2369.50
490.53	2527.19
490.73	2641.88
490.94	2326.49
491.14	2519.00
491.34	2602.97
491.54	2818.00
491.74	3405.77
491.94	3971.01
492.14	4290.49
492.34	4419.52
492.54	4009.92
492.75	3411.92
492.95	3456.97
493.15	3203.02
493.35	3133.39
493.55	3002.32
493.75	2887.64
493.95	3071.95
494.15	2795.48
494.35	2584.54
494.56	2602.97
494.76	2398.17
494.96	2523.10
495.16	2394.08
495.36	2504.67
495.56	2484.19
495.76	2449.37
495.96	2506.71
496.16	2402.27
496.36	2750.42
496.56	2457.56
496.77	2572.25
496.97	2475.99
497.17	2676.70
497.37	2359.26
497.57	2555.86
497.77	2584.54
497.97	2424.80
498.17	2512.86
498.37	2392.03
498.57	2670.55
498.77	2469.85
498.97	2592.73
499.17	2639.83
499.38	2568.15
499.58	2504.67
499.78	2555.86
499.98	2613.21
500.18	2410.46
500.38	2453.47
500.58	2654.17
500.78	3076.05
500.98	5521.32
501.18	7509.90
501.38	9156.47
501.58	10020.71
501.78	9824.11
501.98	7886.73
502.18	6799.26
502.38	5756.84
502.58	5633.96
502.78	4968.37
502.98	4773.82
503.18	4419.52
503.38	3983.30
503.59	3577.80
503.79	3440.59
503.99	3160.02
504.19	3110.86
504.39	3063.76
504.59	3047.38
504.79	3039.19
504.99	3145.68
505.19	2840.53
505.39	2760.66
505.59	2916.31
505.79	2799.57
505.99	2691.03
506.19	2541.53
506.39	2645.98
506.59	2502.62
506.79	2461.66
506.99	2670.55
507.19	2461.66
507.39	2615.26
507.59	2293.72
507.79	2359.26
507.99	2355.16
508.19	2529.24
508.39	2459.61
508.59	2492.38
508.79	2607.06
508.99	2750.42
509.19	2349.02
509.39	2602.97
509.59	2363.36
509.79	2359.26
509.99	2557.91
510.19	2619.35
510.39	2543.58
510.59	2441.18
510.79	2435.03
510.99	2344.92
511.19	2473.95
511.39	2662.36
511.59	2678.74
511.79	2701.27
511.99	2416.60
512.19	2713.56
512.38	2543.58
512.58	2379.74
512.78	2432.99
512.98	2613.21
513.18	2695.13
513.38	2336.73
513.58	2572.25
513.78	2461.66
513.98	2430.94
514.18	2490.33
514.38	2443.23
514.58	2510.81
514.78	2449.37
514.98	2326.49
515.18	2449.37
515.38	2383.84
515.58	2703.32
515.78	2498.52
515.98	2398.17
516.18	2555.86
516.38	2486.23
516.57	2441.18
516.77	2432.99
516.97	2652.12
517.17	2420.70
517.37	2267.10
517.57	2625.50
517.77	2455.51
517.97	2441.18
518.17	2547.67
518.37	2308.06
518.57	2406.36
518.77	2449.37
518.97	2430.94
519.16	2432.99
519.36	2600.92
519.56	2416.60
519.76	2400.22
519.96	2465.75
520.16	2674.65
520.36	2332.64
520.56	2674.65
520.76	2336.73
520.96	2521.05
521.16	2570.20
521.35	2543.58
521.55	2605.02
521.75	2404.32
521.95	2471.90
522.15	2504.67
522.35	2412.51
522.55	2398.17
522.75	2621.40
522.95	2428.89
523.14	2353.12
523.34	2424.80
523.54	2451.42
523.74	2512.86
523.94	2455.51
524.14	2332.64
524.34	2553.82
524.54	2568.15
524.73	2471.90
524.93	2574.30
525.13	2453.47
525.33	2349.02
525.53	2717.65
525.73	2613.21
525.93	2514.91
526.13	2371.55
526.32	2414.56
526.52	2602.97
526.72	2551.77
526.92	2420.70
527.12	2416.60
527.32	2355.16
527.52	2598.87
527.71	2473.95
527.91	2502.62
528.11	2412.51
528.31	2508.76
528.51	2424.80
528.71	2496.47
528.90	2584.54
529.10	2662.36
529.30	2596.82
529.50	2248.67
529.70	2537.43
529.90	2330.59
530.09	2367.45
530.29	2349.02
530.49	2469.85
530.69	2850.77
530.89	2514.91
531.09	2535.39
531.28	2387.93
531.48	2668.50
531.68	2469.85
531.88	2426.84
532.08	2555.86
532.28	2457.56
532.47	2521.05
532.67	2553.82
532.87	2580.44
533.07	2500.57
533.27	2629.59
533.46	2498.52
533.66	2527.19
533.86	2482.14
534.06	2449.37
534.26	2467.80
534.45	2432.99
534.65	2709.46
534.85	2529.24
535.05	2404.32
535.25	2664.41
535.44	2351.07
535.64	2521.05
535.84	2457.56
536.04	2453.47
536.24	2471.90
536.43	2379.74
536.63	2498.52
536.83	2416.60
537.03	2465.75
537.22	2351.07
537.42	2314.20
537.62	2527.19
537.82	2478.04
538.02	2609.11
538.21	2613.21
538.41	2871.25
538.61	2535.39
538.81	2449.37
539.00	2576.34
539.20	2445.27
539.40	2383.84
539.60	2465.75
539.79	2521.05
539.99	2447.32
540.19	2361.31
540.39	2351.07
540.58	2471.90
540.78	2500.57
540.98	2514.91
541.18	2699.22
541.37	2463.71
541.57	2490.33
541.77	2553.82
541.97	2424.80
542.16	2383.84
542.36	2408.41
542.56	2392.03
542.76	2666.46
542.95	2443.23
543.15	2564.06
543.35	2566.10
543.54	2389.98
543.74	2310.11
543.94	2641.88
544.14	2412.51
544.33	2525.15
544.53	2398.17
544.73	2531.29
544.93	2445.27
545.12	2449.37
545.32	2482.14
545.52	2478.04
545.71	2299.87
545.91	2447.32
546.11	2449.37
546.30	2332.64
546.50	2453.47
546.70	2541.53
546.90	2441.18
547.09	2250.72
547.29	2494.43
547.49	2568.15
547.68	2482.14
547.88	2396.12
548.08	2600.92
548.27	2897.88
548.47	2369.50
548.67	2408.41
548.87	2531.29
549.06	2344.92
549.26	2478.04
549.46	2510.81
549.65	2449.37
549.85	2535.39
550.05	2537.43
550.24	2359.26
550.44	2549.72
550.64	2459.61
550.83	2404.32
551.03	2652.12
551.23	2607.06
551.42	2514.91
551.62	2400.22
551.82	2473.95
552.01	2457.56
552.21	2686.94
552.41	2590.68
552.60	2627.54
552.80	2533.34
553.00	2432.99
553.19	2449.37
553.39	2723.80
553.59	2392.03
553.78	2506.71
553.98	2471.90
554.17	2267.10
554.37	2553.82
554.57	2557.91
554.76	2322.40
554.96	2398.17
555.16	2543.58
555.35	2543.58
555.55	2523.10
555.75	2535.39
555.94	2549.72
556.14	2250.72
556.33	2478.04
556.53	2437.08
556.73	2559.96
556.92	2488.28
557.12	2449.37
557.32	2691.03
557.51	2717.65
557.71	2523.10
557.90	2600.92
558.10	2621.40
558.30	2441.18
558.49	2439.13
558.69	2459.61
558.88	2521.05
559.08	2498.52
559.28	2457.56
559.47	2467.80
559.67	2502.62
559.86	2752.47
560.06	2439.13
560.26	2478.04
560.45	2570.20
560.65	2412.51
560.84	2613.21
561.04	2387.93
561.24	2584.54
561.43	2355.16
561.63	2639.83
561.82	2512.86
562.02	2586.58
562.22	2402.27
562.41	2355.16
562.61	2346.97
562.80	2351.07
563.00	2764.76
563.19	2498.52
563.39	2506.71
563.59	2535.39
563.78	2392.03
563.98	2211.81
564.17	2346.97
564.37	2236.38
564.56	2473.95
564.76	2408.41
564.96	2598.87
565.15	2500.57
565.35	2926.55
565.54	2478.04
565.74	2498.52
565.93	2588.63
566.13	2551.77
566.32	2482.14
566.52	2424.80
566.71	2498.52
566.91	2590.68
567.11	2496.47
567.30	2420.70
567.50	2510.81
567.69	2506.71
567.89	2480.09
568.08	2310.11
568.28	2514.91
568.47	2355.16
568.67	2488.28
568.86	2445.27
569.06	2609.11
569.25	2453.47
569.45	2351.07
569.64	2463.71
569.84	2426.84
570.04	2502.62
570.23	2371.55
570.43	2445.27
570.62	2496.47
570.82	2695.13
571.01	2375.64
571.21	2396.12
571.40	2342.88
571.60	2594.78
571.79	2549.72
571.99	2545.63
572.18	2414.56
572.38	2521.05
572.57	2406.36
572.77	2494.43
572.96	2779.09
573.16	2523.10
573.35	2463.71
573.55	2633.69
573.74	2586.58
573.94	2394.08
574.13	2469.85
574.33	2537.43
574.52	2715.61
574.71	2492.38
574.91	2586.58
575.10	2357.21
575.30	2510.81
575.49	2478.04
575.69	2473.95
575.88	2498.52
576.08	2508.76
576.27	2625.50
576.47	2451.42
576.66	2662.36
576.86	2645.98
577.05	2580.44
577.25	2600.92
577.44	2668.50
577.64	2383.84
577.83	2519.00
578.02	2537.43
578.22	2711.51
578.41	2731.99
578.61	2461.66
578.80	2326.49
579.00	2549.72
579.19	2539.48
579.39	2588.63
579.58	2555.86
579.77	2465.75
579.97	2662.36
580.16	2566.10
580.36	2625.50
580.55	2588.63
580.75	2637.78
580.94	2535.39
581.13	2619.35
581.33	2648.02
581.52	2459.61
581.72	2799.57
581.91	2508.76
582.11	2494.43
582.30	2701.27
582.49	2527.19
582.69	2648.02
582.88	2547.67
583.08	2564.06
583.27	2613.21
583.47	2535.39
583.66	2414.56
583.85	2410.46
584.05	2490.33
584.24	2637.78
584.44	2574.30
584.63	2717.65
584.82	2721.75
585.02	2691.03
585.21	2664.41
585.41	2623.45
585.60	2629.59
585.79	2750.42
585.99	2754.52
586.18	2572.25
586.37	3272.65
586.57	4958.13
586.76	14792.48
586.96	33834.49
587.15	47217.97
587.34	56143.02
587.54	60916.83
587.73	55219.38
587.93	38888.88
588.12	29556.28
588.31	23748.25
588.51	20817.60
588.70	19164.89
588.89	17452.79
589.09	14823.20
589.28	12558.14
589.47	10035.05
589.67	7753.61
589.86	6072.23
590.06	4587.45
590.25	3856.33
590.44	3354.57
590.64	2971.60
590.83	2895.83
591.02	2803.67
591.22	2584.54
591.41	2615.26
591.60	2537.43
591.80	2865.11
591.99	2445.27
592.18	2441.18
592.38	2668.50
592.57	2508.76
592.76	2439.13
592.96	2506.71
593.15	2463.71
593.34	2637.78
593.54	2467.80
593.73	2602.97
593.92	2531.29
594.12	2543.58
594.31	2584.54
594.50	2660.31
594.70	2588.63
594.89	2875.35
595.08	2357.21
595.28	2600.92
595.47	2924.50
595.66	2719.70
595.86	2461.66
596.05	2453.47
596.24	2490.33
596.43	2783.19
596.63	2568.15
596.82	2566.10
597.01	2562.01
597.21	2727.89
597.40	2572.25
597.59	2568.15
597.79	2475.99
597.98	2660.31
598.17	2541.53
598.36	2531.29
598.56	2539.48
598.75	2453.47
598.94	2473.95
599.14	2475.99
599.33	2432.99
599.52	2600.92
599.71	2553.82
599.91	2570.20
600.10	2512.86
600.29	2531.29
600.48	2545.63
600.68	2490.33
600.87	2523.10
601.06	2389.98
601.26	2482.14
601.45	2467.80
601.64	2506.71
601.83	2699.22
602.03	2377.69
602.22	2375.64
602.41	2602.97
602.60	2772.95
602.80	2570.20
602.99	2484.19
603.18	2463.71
603.37	2473.95
603.57	2498.52
603.76	2488.28
603.95	2658.26
604.14	2416.60
604.34	2396.12
604.53	2490.33
604.72	2580.44
604.91	2684.89
605.10	2465.75
605.30	2299.87
605.49	2813.91
605.68	2541.53
605.87	2500.57
606.07	2473.95
606.26	2547.67
606.45	2562.01
606.64	2512.86
606.84	2514.91
607.03	2506.71
607.22	2629.59
607.41	2469.85
607.60	2523.10
607.80	2693.08
607.99	2480.09
608.18	2445.27
608.37	2490.33
608.56	2441.18
608.76	2641.88
608.95	2791.38
609.14	2549.72
609.33	2719.70
609.52	2752.47
609.72	2551.77
609.91	2631.64
610.10	2559.96
610.29	2654.17
610.48	2500.57
610.68	2584.54
610.87	2531.29
611.06	2629.59
611.25	2469.85
611.44	2666.46
611.63	2494.43
611.83	2688.98
612.02	2310.11
612.21	2600.92
612.40	2291.68
612.59	2383.84
612.79	2394.08
612.98	2451.42
613.17	2703.32
613.36	2492.38
613.55	2703.32
613.74	2539.48
613.93	2574.30
614.13	2760.66
614.32	2615.26
614.51	2715.61
614.70	2580.44
614.89	2482.14
615.08	2596.82
615.28	3030.99
615.47	2463.71
615.66	2652.12
615.85	2594.78
616.04	2734.04
616.23	2527.19
616.42	2648.02
616.62	2535.39
616.81	2547.67
617.00	2519.00
617.19	2592.73
617.38	2447.32
617.57	2469.85
617.76	2596.82
617.95	2633.69
618.15	2535.39
618.34	2611.16
618.53	2346.97
618.72	2574.30
618.91	2670.55
619.10	2637.78
619.29	2480.09
619.48	2510.81
619.68	2416.60
619.87	2439.13
620.06	2328.54
620.25	2576.34
620.44	2398.17
620.63	2461.66
620.82	2527.19
621.01	2529.24
621.20	2453.47
621.39	2541.53
621.59	2531.29
621.78	2531.29
621.97	2451.42
622.16	2580.44
622.35	2533.34
622.54	2576.34
622.73	2602.97
622.92	2375.64
623.11	2621.40
623.30	2488.28
623.49	2521.05
623.68	2455.51
623.88	2652.12
624.07	2461.66
624.26	2531.29
624.45	2514.91
624.64	2463.71
624.83	2527.19
625.02	2408.41
625.21	2498.52
625.40	2504.67
625.59	2607.06
625.78	2490.33
625.97	2590.68
626.16	2688.98
626.35	2605.02
626.54	2547.67
626.74	2605.02
626.93	2514.91
627.12	2498.52
627.31	2580.44
627.50	2498.52
627.69	2633.69
627.88	2457.56
628.07	2367.45
628.26	2256.86
628.45	2375.64
628.64	2420.70
628.83	2510.81
629.02	2344.92
629.21	2580.44
629.40	2504.67
629.59	2461.66
629.78	2408.41
629.97	2564.06
630.16	2463.71
630.35	2437.08
630.54	2574.30
630.73	2404.32
630.92	2457.56
631.11	2314.20
631.30	2523.10
631.49	2629.59
631.68	2422.75
631.87	2600.92
632.06	2381.79
632.25	2756.57
632.44	2504.67
632.63	2564.06
632.82	2551.77
633.01	2498.52
633.20	2578.39
633.39	2488.28
633.58	2488.28
633.77	2588.63
633.96	2660.31
634.15	2564.06
634.34	2541.53
634.53	2502.62
634.72	2463.71
634.91	2326.49
635.10	2529.24
635.29	2611.16
635.48	2480.09
635.67	2367.45
635.86	2338.78
636.05	2652.12
636.24	2486.23
636.43	2516.95
636.62	2531.29
636.81	2220.00
637.00	2465.75
637.19	2564.06
637.38	2488.28
637.57	2451.42
637.76	2500.57
637.95	2590.68
638.14	2570.20
638.33	2613.21
638.52	2572.25
638.71	2461.66
638.89	2400.22
639.08	2895.83
639.27	2701.27
639.46	2654.17
639.65	3176.40
639.84	3207.12
640.03	3381.20
640.22	3170.26
640.41	3094.48
640.60	2760.66
640.79	2768.85
640.98	2715.61
641.17	2742.23
641.36	2752.47
641.55	2693.08
641.74	2508.76
641.92	2439.13
642.11	2514.91
642.30	2521.05
642.49	2410.46
642.68	2451.42
642.87	2539.48
643.06	2594.78
643.25	2373.60
643.44	2392.03
643.63	2351.07
643.82	2615.26
644.00	2320.35
644.19	2504.67
644.38	2383.84
644.57	2576.34
644.76	2508.76
644.95	2457.56
645.14	2523.10
645.33	2459.61
645.52	2439.13
645.71	2273.25
645.89	2365.40
646.08	2437.08
646.27	2492.38
646.46	2654.17
646.65	2363.36
646.84	2613.21
647.03	2297.82
647.22	2529.24
647.40	2510.81
647.59	2471.90
647.78	2260.96
647.97	2402.27
648.16	2449.37
648.35	2672.60
648.54	2623.45
648.73	2437.08
648.91	2600.92
649.10	2523.10
649.29	2416.60
649.48	2430.94
649.67	2463.71
649.86	2504.67
650.05	2531.29
650.23	2668.50
650.42	2465.75
650.61	2799.57
650.80	2699.22
650.99	2762.71
651.18	2721.75
651.36	2598.87
651.55	2408.41
651.74	2537.43
651.93	2535.39
652.12	2502.62
652.31	2527.19
652.49	2502.62
652.68	2492.38
652.87	2645.98
653.06	2443.23
653.25	2691.03
653.44	2510.81
653.62	2703.32
653.81	2498.52
654.00	2457.56
654.19	2602.97
654.38	2846.68
654.56	2510.81
654.75	2392.03
654.94	2627.54
655.13	2592.73
655.32	2482.14
655.51	2478.04
655.69	2445.27
655.88	2570.20
656.07	2318.30
656.26	2514.91
656.45	2256.86
656.63	2572.25
656.82	2455.51
657.01	2631.64
657.20	2383.84
657.38	2678.74
657.57	2502.62
657.76	2383.84
657.95	2568.15
658.14	2453.47
658.32	2463.71
658.51	2392.03
658.70	2459.61
658.89	2525.15
659.08	2531.29
659.26	2662.36
659.45	2437.08
659.64	2588.63
659.83	2473.95
660.01	2904.02
660.20	2519.00
660.39	2676.70
660.58	2201.57
660.76	2527.19
660.95	2371.55
661.14	2594.78
661.33	2258.91
661.51	2443.23
661.70	2441.18
661.89	2500.57
662.08	2498.52
662.26	2322.40
662.45	2379.74
662.64	2672.60
662.83	2447.32
663.01	2346.97
663.20	2326.49
663.39	2643.93
663.58	2357.21
663.76	2428.89
663.95	2473.95
664.14	2439.13
664.32	2435.03
664.51	2355.16
664.70	2334.68
664.89	2514.91
665.07	2297.82
665.26	2584.54
665.45	2404.32
665.64	2510.81
665.82	2426.84
666.01	2605.02
666.20	2371.55
666.38	2592.73
666.57	2607.06
666.76	3825.61
666.95	9289.59
667.13	17731.31
667.32	22546.09
667.51	26041.97
667.69	27676.25
667.88	24641.16
668.07	17348.34
668.25	14321.45
668.44	12005.19
668.63	10182.50
668.81	9064.31
669.00	8025.99
669.19	7006.10
669.38	6207.39
669.56	5183.41
669.75	4452.28
669.94	3854.28
670.12	3280.85
670.31	2904.02
670.50	2801.62
670.68	2645.98
670.87	2695.13
671.06	2512.86
671.24	2596.82
671.43	2670.55
671.62	2625.50
671.80	2396.12
671.99	2512.86
672.18	2572.25
672.36	2547.67
672.55	2570.20
672.74	2492.38
672.92	2445.27
673.11	2586.58
673.29	2371.55
673.48	2576.34
673.67	2424.80
673.85	2582.49
674.04	2422.75
674.23	2559.96
674.41	2795.48
674.60	2402.27
674.79	2310.11
674.97	2252.77
675.16	2592.73
675.34	2580.44
675.53	2424.80
675.72	2545.63
675.90	2682.84
676.09	2469.85
676.28	2523.10
676.46	2285.53
676.65	2637.78
676.83	2400.22
677.02	2381.79
677.21	2449.37
677.39	2555.86
677.58	2326.49
677.77	2416.60
677.95	2414.56
678.14	2422.75
678.32	2432.99
678.51	2424.80
678.70	2707.41
678.88	2447.32
679.07	2496.47
679.25	2408.41
679.44	2408.41
679.63	2355.16
679.81	2514.91
680.00	2590.68
680.18	2482.14
680.37	2602.97
680.55	2449.37
680.74	2306.01
680.93	2236.38
681.11	2469.85
681.30	2537.43
681.48	2478.04
681.67	2504.67
681.85	2547.67
682.04	2422.75
682.23	2559.96
682.41	2381.79
682.60	2367.45
682.78	2457.56
682.97	2359.26
683.15	2465.75
683.34	2512.86
683.53	2744.28
683.71	2359.26
683.90	2598.87
684.08	2686.94
684.27	2457.56
684.45	2461.66
684.64	2588.63
684.82	2424.80
685.01	2521.05
685.19	2475.99
685.38	2676.70
685.57	2512.86
685.75	2424.80
685.94	2338.78
686.12	2404.32
686.31	2408.41
686.49	2654.17
686.68	2306.01
686.86	2498.52
687.05	2529.24
687.23	2676.70
687.42	2422.75
687.60	2285.53
687.79	2586.58
687.97	2645.98
688.16	2615.26
688.34	2562.01
688.53	2277.34
688.71	2494.43
688.90	2670.55
689.08	2432.99
689.27	2285.53
689.45	2541.53
689.64	2537.43
689.82	2478.04
690.01	2531.29
690.19	2486.23
690.38	2473.95
690.56	2582.49
690.75	2310.11
690.93	2439.13
691.12	2490.33
691.30	2424.80
691.49	2447.32
691.67	2484.19
691.86	2684.89
692.04	2512.86
692.23	2457.56
692.41	2525.15
692.60	2758.61
692.78	2539.48
692.97	2527.19
693.15	2578.39
693.34	2654.17
693.52	2658.26
693.71	2471.90
693.89	2545.63
694.08	2361.31
694.26	2506.71
694.44	2572.25
694.63	2547.67
694.81	2410.46
695.00	2439.13
695.18	2539.48
695.37	2725.85
695.55	2531.29
695.74	2428.89
695.92	2383.84
696.10	2684.89
696.29	2361.31
696.47	2402.27
696.66	2349.02
696.84	2373.60
697.03	2478.04
697.21	2680.79
697.40	3700.68
697.58	2719.70
697.76	2408.41
697.95	2406.36
698.13	2398.17
698.32	2387.93
698.50	2496.47
698.68	2496.47
698.87	2519.00
699.05	2662.36
699.24	2449.37
699.42	2324.44
699.61	2562.01
699.79	2478.04
699.97	2506.71
700.16	2338.78
700.34	2342.88
700.53	2523.10
700.71	2652.12
700.89	2602.97
701.08	2447.32
701.26	2490.33
701.45	3043.28
701.63	2377.69
701.81	2355.16
702.00	2365.40
702.18	2453.47
702.37	2500.57
702.55	2682.84
702.73	2676.70
702.92	2510.81
703.10	2785.24
703.28	2734.04
703.47	2605.02
703.65	2727.89
703.84	2740.18
704.02	2451.42
704.20	2658.26
704.39	2512.86
704.57	2480.09
704.75	2707.41
704.94	2600.92
705.12	2619.35
705.30	2955.22
705.49	5679.02
705.67	12709.69
705.86	20602.57
706.04	24336.01
706.22	27549.28
706.41	28065.36
706.59	22806.18
706.77	16414.47
706.96	14081.83
707.14	12304.20
707.32	10592.09
707.51	9236.34
707.69	7643.02
707.87	6166.43
708.06	4974.52
708.24	4116.42
708.42	3436.49
708.61	3270.61
708.79	2682.84
708.97	2537.43
709.16	2529.24
709.34	2539.48
709.52	2471.90
709.71	2473.95
709.89	2568.15
710.07	2416.60
710.26	2430.94
710.44	2512.86
710.62	2619.35
710.80	2447.32
710.99	2547.67
711.17	2578.39
711.35	2482.14
711.54	2404.32
711.72	2648.02
711.90	2494.43
712.09	2537.43
712.27	2414.56
712.45	2605.02
712.63	2443.23
712.82	2514.91
713.00	2537.43
713.18	2572.25
713.37	2588.63
713.55	2656.22
713.73	2572.25
713.91	2588.63
714.10	2447.32
714.28	2445.27
714.46	2547.67
714.65	2514.91
714.83	2475.99
715.01	2531.29
715.19	2572.25
715.38	2353.12
715.56	2525.15
715.74	2435.03
715.92	2416.60
716.11	2629.59
716.29	2285.53
716.47	2432.99
716.65	2422.75
716.84	2322.40
717.02	2480.09
717.20	2293.72
717.38	2449.37
717.57	2494.43
717.75	2465.75
717.93	2383.84
718.11	2576.34
718.30	2346.97
718.48	2551.77
718.66	2627.54
718.84	2654.17
719.03	2443.23
719.21	2322.40
719.39	2736.09
719.57	2541.53
719.75	2510.81
719.94	2408.41
720.12	2437.08
720.30	2539.48
720.48	2562.01
720.67	2478.04
720.85	2379.74
721.03	2457.56
721.21	2385.88
721.39	2629.59
721.58	2592.73
721.76	2508.76
721.94	2449.37
722.12	2506.71
722.30	2662.36
722.49	2324.44
722.67	2478.04
722.85	2469.85
723.03	2330.59
723.21	2471.90
723.40	2473.95
723.58	2633.69
723.76	2543.58
723.94	2650.07
724.12	2596.82
724.30	2691.03
724.49	2629.59
724.67	2467.80
724.85	2625.50
725.03	2375.64
725.21	2596.82
725.40	2588.63
725.58	2457.56
725.76	2629.59
725.94	2531.29
726.12	2285.53
726.30	2439.13
726.49	2463.71
726.67	2387.93
726.85	2621.40
727.03	2906.07
727.21	4145.09
727.39	5865.38
727.57	6817.69
727.76	7364.50
727.94	7542.67
728.12	7139.22
728.30	5611.43
728.48	4931.51
728.66	4644.79
728.84	4161.47
729.03	3565.51
729.21	3213.26
729.39	2998.23
729.57	2727.89
729.75	2641.88
729.93	2598.87
730.11	2453.47
730.30	2547.67
730.48	2527.19
730.66	2502.62
730.84	2551.77
731.02	2557.91
731.20	2449.37
731.38	2437.08
731.56	2283.49
731.74	2387.93
731.93	2545.63
732.11	2453.47
732.29	2475.99
732.47	2576.34
732.65	2463.71
732.83	2572.25
733.01	2551.77
733.19	2346.97
733.37	2547.67
733.56	2496.47
733.74	2400.22
733.92	2668.50
734.10	2463.71
734.28	2547.67
734.46	2226.14
734.64	2430.94
734.82	2379.74
735.00	2365.40
735.18	2373.60
735.36	2559.96
735.54	2484.19
735.73	2375.64
735.91	2504.67
736.09	2621.40
736.27	2457.56
736.45	2559.96
736.63	2254.81
736.81	2451.42
736.99	2564.06
737.17	2504.67
737.35	2392.03
737.53	2496.47
737.71	2461.66
737.89	2660.31
738.07	2306.01
738.25	2316.25
738.43	2344.92
738.61	2351.07
738.80	2326.49
738.98	2351.07
739.16	2521.05
739.34	2330.59
739.52	2695.13
739.70	2467.80
739.88	2531.29
740.06	2535.39
740.24	2240.48
740.42	2611.16
740.60	2306.01
740.78	2447.32
740.96	2285.53
741.14	2506.71
741.32	2512.86
741.50	2246.62
741.68	2701.27
741.86	2746.33
742.04	2355.16
742.22	2488.28
742.40	2449.37
742.58	2521.05
742.76	2445.27
742.94	2553.82
743.12	2277.34
743.30	2420.70
743.48	2615.26
743.66	2340.83
743.84	2463.71
744.02	2367.45
744.20	2547.67
744.38	2299.87
744.56	2404.32
744.74	2711.51
744.92	2615.26
745.10	2617.30
745.28	2559.96
745.46	2648.02
745.64	2416.60
745.82	2572.25
746.00	2424.80
746.18	2494.43
746.36	2351.07
746.54	2432.99
746.72	2447.32
746.90	2432.99
747.08	2684.89
747.26	2359.26
747.44	2605.02
747.62	2482.14
747.80	2488.28
747.98	2588.63
748.15	2441.18
748.33	2727.89
748.51	2557.91
748.69	2482.14
748.87	2389.98
749.05	2459.61
749.23	2502.62
749.41	2527.19
749.59	2469.85
749.77	2666.46
749.95	2439.13
750.13	2349.02
750.31	2486.23
750.49	2420.70
750.67	2564.06
750.85	2635.74
751.03	2490.33
751.20	2705.37
751.38	2451.42
751.56	2394.08
751.74	2455.51
751.92	2457.56
752.10	2344.92
752.28	2574.30
752.46	2375.64
752.64	2445.27
752.82	2473.95
753.00	2645.98
753.18	2416.60
753.35	2414.56
753.53	2486.23
753.71	2344.92
753.89	2478.04
754.07	2545.63
754.25	2590.68
754.43	2500.57
754.61	2287.58
754.79	2570.20
754.97	2486.23
755.14	2578.39
755.32	2336.73
755.50	2432.99
755.68	2527.19
755.86	2392.03
756.04	2375.64
756.22	2203.61
756.40	2521.05
756.57	2742.23
756.75	2473.95
756.93	2623.45
757.11	2519.00
757.29	2363.36
757.47	2383.84
757.65	2346.97
757.82	2240.48
758.00	2389.98
758.18	2328.54
758.36	2387.93
758.54	2697.17
758.72	2349.02
758.90	2514.91
759.07	2551.77
759.25	2371.55
759.43	2537.43
759.61	2320.35
759.79	3506.12
759.97	2564.06
760.15	2430.94
760.32	2396.12
760.50	2521.05
760.68	2662.36
760.86	2381.79
761.04	2588.63
761.22	2523.10
761.39	2502.62
761.57	2584.54
761.75	2414.56
761.93	2547.67
762.11	2363.36
762.28	2545.63
762.46	2346.97
762.64	2576.34
762.82	2375.64
763.00	2416.60
763.18	2619.35
763.35	2299.87
763.53	2508.76
763.71	2510.81
763.89	2410.46
764.07	2461.66
764.24	2527.19
764.42	2568.15
764.60	2439.13
764.78	2478.04
764.96	2572.25
765.13	2555.86
765.31	2383.84
765.49	2547.67
765.67	2375.64
765.84	2392.03
766.02	2373.60
766.20	2361.31
766.38	2482.14
766.56	2545.63
766.73	2627.54
766.91	2447.32
767.09	2459.61
767.27	2512.86
767.44	2381.79
767.62	2557.91
767.80	2500.57
767.98	2295.77
768.15	2514.91
768.33	2572.25
768.51	2576.34
768.69	2576.34
768.87	2455.51
769.04	2465.75
769.22	2793.43
769.40	2623.45
769.58	2631.64
769.75	2535.39
769.93	2723.80
770.11	2420.70
770.28	2363.36
770.46	2508.76
770.64	2578.39
770.82	2447.32
770.99	2420.70
771.17	2478.04
771.35	2400.22
771.53	2451.42
771.70	2412.51
771.88	2574.30
772.06	2443.23
772.23	2463.71
772.41	2498.52
772.59	2482.14
772.77	2295.77
772.94	2394.08
773.12	2502.62
773.30	2396.12
773.47	2512.86
773.65	2361.31
773.83	2580.44
774.01	2498.52
774.18	2197.47
774.36	2484.19
774.54	2389.98
774.71	2496.47
774.89	2367.45
775.07	2396.12
775.24	2406.36
775.42	2480.09
775.60	2662.36
775.78	2445.27
775.95	2252.77
776.13	2277.34
776.31	2230.24
776.48	2580.44
776.66	2607.06
776.84	2361.31
777.01	2383.84
777.19	2379.74
777.37	2353.12
777.54	2523.10
777.72	2715.61
777.90	2471.90
778.07	2316.25
778.25	2795.48
778.43	2539.48
778.60	2306.01
778.78	2486.23
778.96	2609.11
779.13	2318.30
779.31	2531.29
779.49	2400.22
779.66	2523.10
779.84	2449.37
780.01	2408.41
780.19	2256.86
780.37	2633.69
780.54	2660.31
780.72	2371.55
780.90	2381.79
781.07	2422.75
781.25	2342.88
781.43	2537.43
781.60	2383.84
781.78	2570.20
781.95	2557.91
782.13	2437.08
782.31	2424.80
782.48	2340.83
782.66	2451.42
782.83	2613.21
783.01	2545.63
783.19	2516.95
783.36	2502.62
783.54	2285.53
783.72	2570.20
783.89	2439.13
784.07	2451.42
784.24	2533.34
784.42	2566.10
784.60	2451.42
784.77	2482.14
784.95	2242.53
785.12	2351.07
785.30	2435.03
785.47	2303.96
785.65	2396.12
785.83	2387.93
786.00	2422.75
786.18	2512.86
786.35	2283.49
786.53	2301.92
786.71	2502.62
786.88	2555.86
787.06	2496.47
787.23	2496.47
787.41	2363.36
787.58	2480.09
787.76	2373.60
787.94	2504.67
788.11	2473.95
788.29	2453.47
788.46	2439.13
788.64	2281.44
788.81	2465.75
788.99	2353.12
789.16	2316.25
789.34	2484.19
789.52	2430.94
789.69	2414.56
789.87	2293.72
790.04	2457.56
790.22	2457.56
790.39	2740.18
790.57	2299.87
790.74	2349.02
790.92	2543.58
791.09	2291.68
791.27	2496.47
791.44	2547.67
791.62	2445.27
791.79	2566.10
791.97	2504.67
792.15	2830.29
792.32	2590.68
792.50	2562.01
792.67	2582.49
792.85	2623.45
793.02	2506.71
793.20	2297.82
793.37	2320.35
793.55	2465.75
793.72	2332.64
793.90	2533.34
794.07	2392.03
794.25	2379.74
794.42	2523.10
794.60	2512.86
794.77	2500.57
794.95	2508.76
795.12	2504.67
795.30	2529.24
795.47	2203.61
795.65	2756.57
795.82	2531.29
796.00	2416.60
796.17	2404.32
796.34	2389.98
796.52	2496.47
796.69	2592.73
796.87	2521.05
797.04	2508.76
797.22	2529.24
797.39	2471.90
797.57	2541.53
797.74	2379.74
797.92	2533.34
798.09	2373.60
798.27	2633.69
798.44	2465.75
798.62	2400.22
798.79	2549.72
798.96	2504.67
799.14	2422.75
799.31	2818.00
799.49	2521.05
799.66	2392.03
799.84	2510.81
800.01	2338.78
800.19	2531.29
800.36	2236.38
800.53	2406.36
800.71	2514.91
800.88	2615.26
801.06	2346.97
801.23	2432.99
801.41	2432.99
801.58	2314.20
801.75	2461.66
801.93	2494.43
802.10	2570.20
802.28	2389.98
802.45	2428.89
802.63	2613.21
802.80	2584.54
802.97	2406.36
803.15	2498.52
803.32	2451.42
803.50	2379.74
803.67	2435.03
803.84	2394.08
804.02	2498.52
804.19	2439.13
804.37	2250.72
804.54	2392.03
804.71	2396.12
804.89	2447.32
805.06	2381.79
805.24	2316.25
805.41	2340.83
805.58	2369.50
805.76	2764.76
805.93	2562.01
806.10	2602.97
806.28	2490.33
806.45	2519.00
806.63	2531.29
806.80	2502.62
806.97	2555.86
807.15	2451.42
807.32	2521.05
807.49	2531.29
807.67	2349.02
807.84	2521.05
808.01	2326.49
808.19	2621.40
808.36	2721.75
808.54	2398.17
808.71	2367.45
808.88	2471.90
809.06	2578.39
809.23	2678.74
809.40	2346.97
809.58	2486.23
809.75	2482.14
809.92	2340.83
810.10	2707.41
810.27	2459.61
810.44	2521.05
810.62	2512.86
810.79	2457.56
810.96	2363.36
811.14	2430.94
811.31	2416.60
811.48	2613.21
811.66	2496.47
811.83	2672.60
812.00	2437.08
812.18	2471.90
812.35	2691.03
812.52	2400.22
812.69	2459.61
812.87	2355.16
813.04	2344.92
813.21	2496.47
813.39	2400.22
813.56	2392.03
813.73	2609.11
813.91	2324.44
814.08	2426.84
814.25	2439.13
814.42	2285.53
814.60	2471.90
814.77	2455.51
814.94	2463.71
815.12	2557.91
815.29	2701.27
815.46	2412.51
815.63	2514.91
815.81	2459.61
815.98	2449.37
816.15	2469.85
816.33	2482.14
816.50	2424.80
816.67	2508.76
816.84	2426.84
817.02	2349.02
817.19	2435.03
817.36	2494.43
817.53	2564.06
817.71	2349.02
817.88	2562.01
818.05	2469.85
818.22	2467.80
818.40	2666.46
818.57	2375.64
818.74	2541.53
818.91	2385.88
819.09	2506.71
819.26	2508.76
819.43	2353.12
819.60	2357.21
819.78	2506.71
819.95	2557.91
820.12	2306.01
820.29	2709.46
820.47	2564.06
820.64	2359.26
820.81	2312.16
820.98	2408.41
821.15	2412.51
821.33	2525.15
821.50	2361.31
821.67	2613.21
821.84	2463.71
822.02	2469.85
822.19	2613.21
822.36	2428.89
822.53	2428.89
822.70	2328.54
822.88	2373.60
823.05	2697.17
823.22	2449.37
823.39	2437.08
823.56	2484.19
823.74	2693.08
823.91	2310.11
824.08	2279.39
824.25	2293.72
824.42	2650.07
824.60	2295.77
824.77	2455.51
824.94	2424.80
825.11	2498.52
825.28	2299.87
825.45	2492.38
825.63	2490.33
825.80	2334.68
825.97	2506.71
826.14	2490.33
826.31	2324.44
826.48	2539.48
826.66	2355.16
826.83	2449.37
827.00	2422.75
827.17	2349.02
827.34	2437.08
827.51	2400.22
827.69	2480.09
827.86	2293.72
828.03	2373.60
828.20	2496.47
828.37	2416.60
828.54	2584.54
828.71	2410.46
828.89	2574.30
829.06	2422.75
829.23	2691.03
829.40	2330.59
829.57	2369.50
829.74	2594.78
829.91	2365.40
830.09	2338.78
830.26	2545.63
830.43	2600.92
830.60	2392.03
830.77	2463.71
830.94	2629.59
831.11	2547.67
831.28	2375.64
831.46	2619.35
831.63	2359.26
831.80	2609.11
831.97	2367.45
832.14	2459.61
832.31	2439.13
832.48	2570.20
832.65	2570.20
832.82	2504.67
832.99	2506.71
833.17	2308.06
833.34	2615.26
833.51	2506.71
833.68	2263.01
833.85	2607.06
834.02	2320.35
834.19	2367.45
834.36	2371.55
834.53	2504.67
834.70	2553.82
834.87	2547.67
835.04	2340.83
835.22	2492.38
835.39	2400.22
835.56	2332.64
835.73	2353.12
835.90	2654.17
836.07	2422.75
836.24	2549.72
836.41	2322.40
836.58	2338.78
836.75	2559.96
836.92	2506.71
837.09	2299.87
837.26	2619.35
837.43	2486.23
837.60	2416.60
837.77	2414.56
837.94	2586.58
838.12	2584.54
838.29	2379.74
838.46	2291.68
838.63	2320.35
838.80	2637.78
838.97	2461.66
839.14	2349.02
839.31	2478.04
839.48	2643.93
839.65	2385.88
839.82	2387.93
839.99	2420.70
840.16	2574.30
840.33	2289.63
840.50	2408.41
840.67	2377.69
840.84	2232.29
841.01	2400.22
841.18	2322.40
841.35	2465.75
841.52	2641.88
841.69	2648.02
841.86	2471.90
842.03	2482.14
842.20	2586.58
842.37	2383.84
842.54	2416.60
842.71	2430.94
842.88	2312.16
843.05	2355.16
843.22	2332.64
843.39	2652.12
843.56	2398.17
843.73	2381.79
843.90	2430.94
844.07	2424.80
844.24	2570.20
844.41	2430.94
844.58	2445.27
844.75	2478.04
844.92	2490.33
845.09	2445.27
845.26	2402.27
845.43	2576.34
845.60	2463.71
845.77	2416.60
845.94	2404.32
846.10	2588.63
846.27	2269.15
846.44	2279.39
846.61	2226.14
846.78	2471.90
846.95	2555.86
847.12	2383.84
847.29	2377.69
847.46	2373.60
847.63	2576.34
847.80	2359.26
847.97	2371.55
848.14	2758.61
848.31	2406.36
848.48	2301.92
848.65	2455.51
848.82	2432.99
848.98	2785.24
849.15	2504.67
849.32	2533.34
849.49	2596.82
849.66	2455.51
849.83	2318.30
850.00	2242.53
850.17	2625.50
850.34	2404.32
850.51	2332.64
850.68	2387.93
850.85	2766.81
851.01	2416.60
851.18	2426.84
851.35	2418.65
851.52	2521.05
851.69	2602.97
851.86	2250.72
852.03	2322.40
852.20	2652.12
852.37	2439.13
852.53	2224.09
852.70	2369.50
852.87	2496.47
853.04	2578.39
853.21	2406.36
853.38	2506.71
853.55	2637.78
853.72	2533.34
853.89	2351.07
854.05	2363.36
854.22	2455.51
854.39	2494.43
854.56	2351.07
854.73	2533.34
854.90	2400.22
855.07	2422.75
855.23	2359.26
855.40	2293.72
855.57	2383.84
855.74	2256.86
855.91	2588.63
856.08	2299.87
856.25	2269.15
856.41	2416.60
856.58	2449.37
856.75	2387.93
856.92	2363.36
857.09	2627.54
857.26	2170.85
857.42	2424.80
857.59	2570.20
857.76	2443.23
857.93	2424.80
858.10	2527.19
858.27	2351.07
858.43	2461.66
858.60	2357.21
858.77	2254.81
858.94	2324.44
859.11	2613.21
859.27	2396.12
859.44	2326.49
859.61	2752.47
859.78	2588.63
859.95	2400.22
860.12	2310.11
860.28	2805.72
860.45	2611.16
860.62	2306.01
860.79	2408.41
860.95	2394.08
861.12	2428.89
861.29	2404.32
861.46	2375.64
861.63	2367.45
861.79	2486.23
861.96	2236.38
862.13	2400.22
862.30	2547.67
862.47	2375.64
862.63	2346.97
862.80	2490.33
862.97	2580.44
863.14	2629.59
863.30	2373.60
863.47	2340.83
863.64	2629.59
863.81	2553.82
863.97	2328.54
864.14	2439.13
864.31	2471.90
864.48	2422.75
864.65	2379.74
864.81	2531.29
864.98	2545.63
865.15	2519.00
865.32	2449.37
865.48	2414.56
865.65	2695.13
865.82	2412.51
865.98	2435.03
866.15	2416.60
866.32	2449.37
866.49	2396.12
866.65	2545.63
866.82	2301.92
866.99	2459.61
867.16	2412.51
867.32	2287.58
867.49	2367.45
867.66	2449.37
867.83	2496.47
867.99	2187.23
868.16	2373.60
868.33	2371.55
868.49	2449.37
868.66	2432.99
868.83	2439.13
868.99	2506.71
869.16	2437.08
869.33	2504.67
869.50	2469.85
869.66	2455.51
869.83	2455.51
870.00	2291.68
870.16	2437.08
870.33	2457.56
870.50	2529.24
870.66	2398.17
870.83	2357.21
871.00	2449.37
871.17	2559.96
871.33	2449.37
871.50	2379.74
871.67	2414.56
871.83	2291.68
872.00	2500.57
872.17	2373.60
872.33	2650.07
872.50	2629.59
872.67	2326.49
872.83	2357.21
873.00	2496.47
873.17	2486.23
873.33	2463.71
873.50	2400.22
873.67	2392.03
873.83	2428.89
874.00	2351.07
874.16	2514.91
874.33	2418.65
874.50	2301.92
874.66	2375.64
874.83	2428.89
875.00	2629.59
875.16	2592.73
875.33	2418.65
875.50	2242.53
875.66	2398.17
875.83	2478.04
875.99	2418.65
876.16	2367.45
876.33	2408.41
876.49	2490.33
876.66	2471.90
876.83	2316.25
876.99	2285.53
877.16	2482.14
877.32	2342.88
877.49	2353.12
877.66	2549.72
877.82	2643.93
877.99	2488.28
878.15	2551.77
878.32	2512.86
878.49	2490.33
878.65	2412.51
878.82	2553.82
878.98	2359.26
879.15	2596.82
879.32	2430.94
879.48	2502.62
879.65	2439.13
879.81	2377.69
879.98	2404.32
880.15	2469.85
880.31	2574.30
880.48	2406.36
880.64	2473.95
880.81	2428.89
880.97	2633.69
881.14	2703.32
881.31	2398.17
881.47	2543.58
881.64	2394.08
881.80	2336.73
881.97	2527.19
882.13	2387.93
882.30	2299.87
882.47	2355.16
882.63	2244.57
882.80	2396.12
882.96	2428.89
883.13	2576.34
883.29	2392.03
883.46	2451.42
883.62	2703.32
883.79	2486.23
883.95	2514.91
884.12	2330.59
884.29	2609.11
884.45	2496.47
884.62	2459.61
884.78	2330.59
884.95	2654.17
885.11	2392.03
885.28	2449.37
885.44	2400.22
885.61	2584.54
885.77	2625.50
885.94	2473.95
886.10	2486.23
886.27	2543.58
886.43	2670.55
886.60	2545.63
886.76	2322.40
886.93	2392.03
887.09	2465.75
887.26	2273.25
887.42	2441.18
887.59	2641.88
887.75	2723.80
887.92	2502.62
888.08	2478.04
888.25	2777.05
888.41	2580.44
888.58	2471.90
888.74	2283.49
888.91	2463.71
>>>>>End Processed Spectral Data<<<<<
