SpectraSuite Data File
++++++++++++++++++++++++++++++++++++
Date: Thu May 05 14:41:43 CEST 2016
User: root
Dark Spectrum Present: No
Reference Spectrum Present: No
Number of Sampled Component Spectra: 1
Spectrometers: USB4C02835
Integration Time (usec): 100000 (USB4C02835)
Spectra Averaged: 1 (USB4C02835)
Boxcar Smoothing: 0 (USB4C02835)
Correct for Electrical Dark: No (USB4C02835)
Strobe/Lamp Enabled: No (USB4C02835)
Correct for Detector Non-linearity: No (USB4C02835)
Correct for Stray Light: No (USB4C02835)
Number of Pixels in Processed Spectrum: 3648
>>>>>Begin Processed Spectral Data<<<<<
177.47	1912.80
177.69	1912.80
177.91	1912.80
178.13	1910.75
178.36	1890.28
178.58	2299.87
178.80	2443.23
179.02	2295.77
179.24	2414.56
179.46	2369.50
179.68	2375.64
179.90	2424.80
180.13	2523.10
180.35	2203.61
180.57	2351.07
180.79	2570.20
181.01	2406.36
181.23	2365.40
181.45	2494.43
181.67	2586.58
181.90	2600.92
182.12	2334.68
182.34	2187.23
182.56	2490.33
182.78	2439.13
183.00	2301.92
183.22	2392.03
183.44	2340.83
183.66	2805.72
183.89	2506.71
184.11	2392.03
184.33	2547.67
184.55	2611.16
184.77	2363.36
184.99	2367.45
185.21	2473.95
185.43	2781.14
185.65	2310.11
185.87	2295.77
186.10	2742.23
186.32	2791.38
186.54	2389.98
186.76	2449.37
186.98	2678.74
187.20	2482.14
187.42	2297.82
187.64	2381.79
187.86	2445.27
188.08	2590.68
188.30	2312.16
188.52	2336.73
188.75	2619.35
188.97	2654.17
189.19	2318.30
189.41	2416.60
189.63	2527.19
189.85	2465.75
190.07	2263.01
190.29	2252.77
190.51	2545.63
190.73	2291.68
190.95	2537.43
191.17	2295.77
191.39	2367.45
191.61	2506.71
191.84	2275.29
192.06	2498.52
192.28	2252.77
192.50	2842.58
192.72	2428.89
192.94	2394.08
193.16	2588.63
193.38	2502.62
193.60	2275.29
193.82	2396.12
194.04	2588.63
194.26	2443.23
194.48	2340.83
194.70	2373.60
194.92	2392.03
195.14	2451.42
195.36	2398.17
195.58	2488.28
195.80	2387.93
196.02	2430.94
196.24	2299.87
196.46	2512.86
196.69	2408.41
196.91	2779.09
197.13	2371.55
197.35	2418.65
197.57	2631.64
197.79	2519.00
198.01	2430.94
198.23	2326.49
198.45	2519.00
198.67	2312.16
198.89	2273.25
199.11	2404.32
199.33	2361.31
199.55	2224.09
199.77	2400.22
199.99	2457.56
200.21	2486.23
200.43	2523.10
200.65	2283.49
200.87	2162.66
201.09	2514.91
201.31	2400.22
201.53	2349.02
201.75	2365.40
201.97	2516.95
202.19	2482.14
202.41	2400.22
202.63	2484.19
202.85	2461.66
203.07	2512.86
203.29	2389.98
203.51	2265.05
203.73	2394.08
203.95	2885.59
204.17	2342.88
204.39	2455.51
204.61	2437.08
204.83	2373.60
205.05	2494.43
205.27	2385.88
205.49	2768.85
205.71	2459.61
205.93	2254.81
206.15	2359.26
206.37	2531.29
206.59	2422.75
206.81	2195.42
207.03	2248.67
207.25	2412.51
207.47	2607.06
207.69	2371.55
207.91	2504.67
208.13	2629.59
208.34	2449.37
208.56	2332.64
208.78	2344.92
209.00	2422.75
209.22	2392.03
209.44	2400.22
209.66	2254.81
209.88	2535.39
210.10	2478.04
210.32	2381.79
210.54	2398.17
210.76	2430.94
210.98	2625.50
211.20	2138.08
211.42	2455.51
211.64	2637.78
211.86	2486.23
212.08	2420.70
212.30	2398.17
212.52	2394.08
212.74	2510.81
212.96	2387.93
213.17	2424.80
213.39	2566.10
213.61	2684.89
213.83	2326.49
214.05	2351.07
214.27	2594.78
214.49	2346.97
214.71	2277.34
214.93	2435.03
215.15	2437.08
215.37	2627.54
215.59	2273.25
215.81	2387.93
216.03	2656.22
216.24	2496.47
216.46	2389.98
216.68	2418.65
216.90	2643.93
217.12	2582.49
217.34	2357.21
217.56	2443.23
217.78	2637.78
218.00	2588.63
218.22	2351.07
218.44	2402.27
218.66	2510.81
218.87	2777.05
219.09	2322.40
219.31	2383.84
219.53	2467.80
219.75	2426.84
219.97	2383.84
220.19	2324.44
220.41	2465.75
220.63	2658.26
220.85	2392.03
221.06	2457.56
221.28	2609.11
221.50	2588.63
221.72	2408.41
221.94	2285.53
222.16	2488.28
222.38	2596.82
222.60	2338.78
222.82	2373.60
223.03	2623.45
223.25	2392.03
223.47	2357.21
223.69	2492.38
223.91	2602.97
224.13	2533.34
224.35	2228.19
224.57	2519.00
224.78	2609.11
225.00	2346.97
225.22	2383.84
225.44	2334.68
225.66	2555.86
225.88	2445.27
226.10	2500.57
226.32	2336.73
226.53	2668.50
226.75	2445.27
226.97	2363.36
227.19	2369.50
227.41	2473.95
227.63	2488.28
227.85	2250.72
228.06	2404.32
228.28	2514.91
228.50	2617.30
228.72	2232.29
228.94	2275.29
229.16	2373.60
229.37	2342.88
229.59	2273.25
229.81	2484.19
230.03	2459.61
230.25	2246.62
230.47	2252.77
230.69	2254.81
230.90	2512.86
231.12	2357.21
231.34	2406.36
231.56	2465.75
231.78	2353.12
232.00	2449.37
232.21	2375.64
232.43	2371.55
232.65	2191.33
232.87	2508.76
233.09	2324.44
233.30	2308.06
233.52	2617.30
233.74	2498.52
233.96	2326.49
234.18	2459.61
234.40	2521.05
234.61	2758.61
234.83	2265.05
235.05	2252.77
235.27	2762.71
235.49	2701.27
235.70	2301.92
235.92	2439.13
236.14	2506.71
236.36	2826.20
236.58	2211.81
236.79	2373.60
237.01	2496.47
237.23	2543.58
237.45	2553.82
237.67	2334.68
237.88	2547.67
238.10	2688.98
238.32	2281.44
238.54	2373.60
238.76	2506.71
238.97	2383.84
239.19	2291.68
239.41	2412.51
239.63	2627.54
239.85	2402.27
240.06	2420.70
240.28	2252.77
240.50	2590.68
240.72	2492.38
240.93	2314.20
241.15	2412.51
241.37	2482.14
241.59	2621.40
241.81	2392.03
242.02	2363.36
242.24	2498.52
242.46	2516.95
242.68	2301.92
242.89	2273.25
243.11	2549.72
243.33	2478.04
243.55	2342.88
243.76	2404.32
243.98	2414.56
244.20	2416.60
244.42	2312.16
244.64	2418.65
244.85	2260.96
245.07	2406.36
245.29	2367.45
245.51	2394.08
245.72	2486.23
245.94	2637.78
246.16	2361.31
246.38	2428.89
246.59	2478.04
246.81	2389.98
247.03	2322.40
247.24	2248.67
247.46	2426.84
247.68	2502.62
247.90	2297.82
248.11	2314.20
248.33	2572.25
248.55	2416.60
248.77	2334.68
248.98	2396.12
249.20	2631.64
249.42	2469.85
249.64	2457.56
249.85	2367.45
250.07	2408.41
250.29	2578.39
250.50	2416.60
250.72	2256.86
250.94	2381.79
251.16	2666.46
251.37	2293.72
251.59	2414.56
251.81	2523.10
252.02	2637.78
252.24	2240.48
252.46	2488.28
252.68	2381.79
252.89	2430.94
253.11	2260.96
253.33	2473.95
253.54	2650.07
253.76	2301.92
253.98	2344.92
254.20	2336.73
254.41	2365.40
254.63	2416.60
254.85	2342.88
255.06	2406.36
255.28	2488.28
255.50	2424.80
255.71	2293.72
255.93	2160.61
256.15	2355.16
256.36	2566.10
256.58	2308.06
256.80	2377.69
257.02	2486.23
257.23	2379.74
257.45	2379.74
257.67	2449.37
257.88	2443.23
258.10	2521.05
258.32	2344.92
258.53	2453.47
258.75	2641.88
258.97	2400.22
259.18	2293.72
259.40	2297.82
259.62	2682.84
259.83	2588.63
260.05	2381.79
260.27	2881.49
260.48	2613.21
260.70	2363.36
260.92	2365.40
261.13	2260.96
261.35	2402.27
261.57	2480.09
261.78	2224.09
262.00	2273.25
262.22	2523.10
262.43	2461.66
262.65	2346.97
262.86	2385.88
263.08	2772.95
263.30	2475.99
263.51	2226.14
263.73	2357.21
263.95	2609.11
264.16	2301.92
264.38	2256.86
264.60	2383.84
264.81	2453.47
265.03	2549.72
265.25	2523.10
265.46	2359.26
265.68	2623.45
265.89	2578.39
266.11	2224.09
266.33	2381.79
266.54	2531.29
266.76	2426.84
266.98	2361.31
267.19	2469.85
267.41	2635.74
267.62	2424.80
267.84	2185.18
268.06	2471.90
268.27	2562.01
268.49	2572.25
268.70	2449.37
268.92	2373.60
269.14	2416.60
269.35	2371.55
269.57	2455.51
269.79	2484.19
270.00	2422.75
270.22	2699.22
270.43	2299.87
270.65	2250.72
270.87	2613.21
271.08	2580.44
271.30	2404.32
271.51	2412.51
271.73	2572.25
271.95	2670.55
272.16	2349.02
272.38	2437.08
272.59	2447.32
272.81	2582.49
273.02	2314.20
273.24	2422.75
273.46	2621.40
273.67	2299.87
273.89	2222.05
274.10	2326.49
274.32	2674.65
274.54	2473.95
274.75	2449.37
274.97	2430.94
275.18	2580.44
275.40	2562.01
275.61	2404.32
275.83	2529.24
276.05	2392.03
276.26	2392.03
276.48	2406.36
276.69	2375.64
276.91	2424.80
277.12	2643.93
277.34	2539.48
277.55	2557.91
277.77	2539.48
277.99	2418.65
278.20	2387.93
278.42	2252.77
278.63	2406.36
278.85	2424.80
279.06	2349.02
279.28	2486.23
279.49	2527.19
279.71	2637.78
279.93	2385.88
280.14	2457.56
280.36	2422.75
280.57	2533.34
280.79	2533.34
281.00	2400.22
281.22	2365.40
281.43	2543.58
281.65	2187.23
281.86	2318.30
282.08	2553.82
282.29	2764.76
282.51	2258.91
282.73	2387.93
282.94	2359.26
283.16	2596.82
283.37	2455.51
283.59	2447.32
283.80	2488.28
284.02	2461.66
284.23	2420.70
284.45	2451.42
284.66	2379.74
284.88	2414.56
285.09	2437.08
285.31	2525.15
285.52	2502.62
285.74	2285.53
285.95	2553.82
286.17	2492.38
286.38	2684.89
286.60	2533.34
286.81	2340.83
287.03	2408.41
287.24	2469.85
287.46	2527.19
287.67	2490.33
287.89	2592.73
288.10	2449.37
288.32	2506.71
288.53	2609.11
288.75	2383.84
288.96	2584.54
289.18	2502.62
289.39	2402.27
289.61	2459.61
289.82	2662.36
290.04	2715.61
290.25	2363.36
290.47	2449.37
290.68	2447.32
290.90	2582.49
291.11	2222.05
291.33	2559.96
291.54	2332.64
291.76	2392.03
291.97	2473.95
292.18	2389.98
292.40	2514.91
292.61	2328.54
292.83	2707.41
293.04	2510.81
293.26	2609.11
293.47	2453.47
293.69	2324.44
293.90	2349.02
294.12	2699.22
294.33	2523.10
294.55	2488.28
294.76	2490.33
294.97	2668.50
295.19	2744.28
295.40	2469.85
295.62	2447.32
295.83	2600.92
296.05	2373.60
296.26	2625.50
296.48	2422.75
296.69	2437.08
296.90	2457.56
297.12	2570.20
297.33	2570.20
297.55	2475.99
297.76	2584.54
297.98	2490.33
298.19	2449.37
298.41	2496.47
298.62	2439.13
298.83	2633.69
299.05	2451.42
299.26	2453.47
299.48	2416.60
299.69	2492.38
299.90	2400.22
300.12	2359.26
300.33	2557.91
300.55	2447.32
300.76	2359.26
300.98	2379.74
301.19	2588.63
301.40	2330.59
301.62	2457.56
301.83	2510.81
302.05	2488.28
302.26	2414.56
302.47	2432.99
302.69	2359.26
302.90	2461.66
303.12	2228.19
303.33	2424.80
303.54	2711.51
303.76	2494.43
303.97	2392.03
304.19	2543.58
304.40	2326.49
304.61	2555.86
304.83	2547.67
305.04	2539.48
305.26	2533.34
305.47	2490.33
305.68	2484.19
305.90	2336.73
306.11	2623.45
306.33	2510.81
306.54	2383.84
306.75	2342.88
306.97	2357.21
307.18	2457.56
307.39	2363.36
307.61	2576.34
307.82	2432.99
308.04	2541.53
308.25	2314.20
308.46	2451.42
308.68	2439.13
308.89	2449.37
309.10	2539.48
309.32	2504.67
309.53	2500.57
309.74	2516.95
309.96	2414.56
310.17	2564.06
310.39	2359.26
310.60	2506.71
310.81	2490.33
311.03	2301.92
311.24	2586.58
311.45	2488.28
311.67	2621.40
311.88	2418.65
312.09	2381.79
312.31	2310.11
312.52	2478.04
312.73	2383.84
312.95	2285.53
313.16	2373.60
313.37	2506.71
313.59	2521.05
313.80	2584.54
314.01	2623.45
314.23	2424.80
314.44	2332.64
314.65	2371.55
314.87	2402.27
315.08	2418.65
315.29	2424.80
315.51	2281.44
315.72	2332.64
315.93	2543.58
316.15	2516.95
316.36	2381.79
316.57	2435.03
316.79	2437.08
317.00	2404.32
317.21	2500.57
317.43	2404.32
317.64	2420.70
317.85	2379.74
318.07	2424.80
318.28	2473.95
318.49	2529.24
318.70	2668.50
318.92	2686.94
319.13	2643.93
319.34	2645.98
319.56	2525.15
319.77	2617.30
319.98	2680.79
320.20	2535.39
320.41	2564.06
320.62	2521.05
320.83	2324.44
321.05	2572.25
321.26	2432.99
321.47	2527.19
321.69	2598.87
321.90	2236.38
322.11	2437.08
322.32	2430.94
322.54	2688.98
322.75	2375.64
322.96	2883.54
323.18	2291.68
323.39	2234.33
323.60	2349.02
323.81	2562.01
324.03	2400.22
324.24	2453.47
324.45	2461.66
324.66	2400.22
324.88	2605.02
325.09	2684.89
325.30	2437.08
325.52	2457.56
325.73	2459.61
325.94	2271.20
326.15	2252.77
326.37	2322.40
326.58	2572.25
326.79	2654.17
327.00	2400.22
327.22	2402.27
327.43	2453.47
327.64	2375.64
327.85	2473.95
328.07	2432.99
328.28	2664.41
328.49	2447.32
328.70	2467.80
328.92	2392.03
329.13	2437.08
329.34	2465.75
329.55	2617.30
329.76	2473.95
329.98	2480.09
330.19	2594.78
330.40	2533.34
330.61	2455.51
330.83	2596.82
331.04	2406.36
331.25	2473.95
331.46	2355.16
331.68	2349.02
331.89	2598.87
332.10	2465.75
332.31	2330.59
332.52	2480.09
332.74	2592.73
332.95	2346.97
333.16	2445.27
333.37	2570.20
333.58	2457.56
333.80	2406.36
334.01	2185.18
334.22	2439.13
334.43	2498.52
334.64	2375.64
334.86	2334.68
335.07	2375.64
335.28	2613.21
335.49	2252.77
335.70	2435.03
335.92	2674.65
336.13	2785.24
336.34	2414.56
336.55	2351.07
336.76	2531.29
336.98	2209.76
337.19	2357.21
337.40	2504.67
337.61	2799.57
337.82	2408.41
338.04	2482.14
338.25	2267.10
338.46	2490.33
338.67	2543.58
338.88	2342.88
339.09	2314.20
339.31	2424.80
339.52	2435.03
339.73	2340.83
339.94	2359.26
340.15	2566.10
340.36	2338.78
340.58	2482.14
340.79	2326.49
341.00	2523.10
341.21	2396.12
341.42	2564.06
341.63	2375.64
341.85	2611.16
342.06	2514.91
342.27	2377.69
342.48	2473.95
342.69	2330.59
342.90	2547.67
343.12	2596.82
343.33	2377.69
343.54	2596.82
343.75	2654.17
343.96	2416.60
344.17	2371.55
344.38	2521.05
344.60	2361.31
344.81	2275.29
345.02	2412.51
345.23	2586.58
345.44	2807.77
345.65	2455.51
345.86	2486.23
346.07	2512.86
346.29	2367.45
346.50	2578.39
346.71	2488.28
346.92	2600.92
347.13	2670.55
347.34	2482.14
347.55	2355.16
347.76	2588.63
347.98	2344.92
348.19	2412.51
348.40	2572.25
348.61	2375.64
348.82	2686.94
349.03	2500.57
349.24	2349.02
349.45	2695.13
349.66	2256.86
349.88	2420.70
350.09	2340.83
350.30	2680.79
350.51	2666.46
350.72	2437.08
350.93	2482.14
351.14	2432.99
351.35	2539.48
351.56	2375.64
351.77	2500.57
351.99	2514.91
352.20	2719.70
352.41	2547.67
352.62	2267.10
352.83	2443.23
353.04	2432.99
353.25	2310.11
353.46	2531.29
353.67	2572.25
353.88	2236.38
354.09	2418.65
354.30	2394.08
354.52	2580.44
354.73	2498.52
354.94	2400.22
355.15	2437.08
355.36	2717.65
355.57	2416.60
355.78	2334.68
355.99	2369.50
356.20	2445.27
356.41	2637.78
356.62	2490.33
356.83	2422.75
357.04	2678.74
357.25	2346.97
357.46	2314.20
357.68	2273.25
357.89	2385.88
358.10	2537.43
358.31	2463.71
358.52	2482.14
358.73	2326.49
358.94	2291.68
359.15	2367.45
359.36	2486.23
359.57	2523.10
359.78	2490.33
359.99	2506.71
360.20	2389.98
360.41	2457.56
360.62	2547.67
360.83	2469.85
361.04	2465.75
361.25	2439.13
361.46	2645.98
361.67	2572.25
361.88	2498.52
362.09	2545.63
362.30	2559.96
362.51	2428.89
362.72	2406.36
362.93	2549.72
363.14	2588.63
363.35	2453.47
363.56	2316.25
363.78	2645.98
363.99	2584.54
364.20	2330.59
364.41	2494.43
364.62	2676.70
364.83	2486.23
365.04	2447.32
365.25	2430.94
365.46	2744.28
365.67	2351.07
365.88	2432.99
366.09	2314.20
366.30	2424.80
366.51	2490.33
366.72	2275.29
366.93	2387.93
367.14	2519.00
367.35	2629.59
367.56	2338.78
367.77	2564.06
367.98	2478.04
368.18	2576.34
368.39	2521.05
368.60	2371.55
368.81	2580.44
369.02	2531.29
369.23	2437.08
369.44	2310.11
369.65	2373.60
369.86	2586.58
370.07	2510.81
370.28	2349.02
370.49	2590.68
370.70	2478.04
370.91	2371.55
371.12	2281.44
371.33	2605.02
371.54	2457.56
371.75	2512.86
371.96	2224.09
372.17	2502.62
372.38	2457.56
372.59	2523.10
372.80	2357.21
373.01	2402.27
373.22	2416.60
373.43	2400.22
373.64	2351.07
373.85	2637.78
374.06	2586.58
374.26	2559.96
374.47	2504.67
374.68	2678.74
374.89	2537.43
375.10	2432.99
375.31	2533.34
375.52	2445.27
375.73	2394.08
375.94	2387.93
376.15	2617.30
376.36	2455.51
376.57	2402.27
376.78	2424.80
376.99	2482.14
377.20	2670.55
377.40	2480.09
377.61	2609.11
377.82	2316.25
378.03	2611.16
378.24	2570.20
378.45	2455.51
378.66	2482.14
378.87	2299.87
379.08	2301.92
379.29	2398.17
379.50	2574.30
379.71	2504.67
379.91	2660.31
380.12	2293.72
380.33	2392.03
380.54	2498.52
380.75	2480.09
380.96	2437.08
381.17	2504.67
381.38	2543.58
381.59	2457.56
381.80	2463.71
382.00	2664.41
382.21	2523.10
382.42	2725.85
382.63	2754.52
382.84	2504.67
383.05	2617.30
383.26	2715.61
383.47	2539.48
383.68	2394.08
383.88	2605.02
384.09	2512.86
384.30	2600.92
384.51	2432.99
384.72	2445.27
384.93	2392.03
385.14	2463.71
385.35	2584.54
385.55	2332.64
385.76	2629.59
385.97	2455.51
386.18	2312.16
386.39	2322.40
386.60	2379.74
386.81	2381.79
387.02	2310.11
387.22	2330.59
387.43	2617.30
387.64	2582.49
387.85	2633.69
388.06	2572.25
388.27	3997.64
388.48	8152.96
388.68	12023.62
388.89	14753.57
389.10	15875.85
389.31	14769.95
389.52	11419.47
389.73	9805.67
389.93	8982.39
390.14	8339.33
390.35	7389.07
390.56	6651.80
390.77	5437.36
390.98	4169.66
391.18	3409.87
391.39	3000.27
391.60	2590.68
391.81	2625.50
392.02	2494.43
392.23	2752.47
392.43	2435.03
392.64	2547.67
392.85	2471.90
393.06	2719.70
393.27	2465.75
393.47	2289.63
393.68	2471.90
393.89	2424.80
394.10	2699.22
394.31	2385.88
394.52	2371.55
394.72	2338.78
394.93	2707.41
395.14	2334.68
395.35	2641.88
395.56	2369.50
395.76	2486.23
395.97	2529.24
396.18	2611.16
396.39	2588.63
396.60	2899.92
396.80	2695.13
397.01	2609.11
397.22	2693.08
397.43	2682.84
397.64	2451.42
397.84	2576.34
398.05	2768.85
398.26	2463.71
398.47	2564.06
398.67	2576.34
398.88	2471.90
399.09	2523.10
399.30	2459.61
399.51	2529.24
399.71	2404.32
399.92	2498.52
400.13	2471.90
400.34	2494.43
400.54	2564.06
400.75	2662.36
400.96	2469.85
401.17	2684.89
401.37	2506.71
401.58	2363.36
401.79	2465.75
402.00	2580.44
402.21	2869.20
402.41	2775.00
402.62	2785.24
402.83	2916.31
403.04	2899.92
403.24	3145.68
403.45	2629.59
403.66	2746.33
403.87	2693.08
404.07	2740.18
404.28	2729.94
404.49	2668.50
404.70	2543.58
404.90	2559.96
405.11	2490.33
405.32	2529.24
405.52	2402.27
405.73	2346.97
405.94	2377.69
406.15	2422.75
406.35	2523.10
406.56	2602.97
406.77	2463.71
406.98	2496.47
407.18	2443.23
407.39	2744.28
407.60	2420.70
407.80	2504.67
408.01	2414.56
408.22	2543.58
408.43	2396.12
408.63	2424.80
408.84	2627.54
409.05	2519.00
409.25	2463.71
409.46	2422.75
409.67	2478.04
409.88	2473.95
410.08	2551.77
410.29	2447.32
410.50	2639.83
410.70	2572.25
410.91	2408.41
411.12	2478.04
411.32	2457.56
411.53	2408.41
411.74	2545.63
411.95	2461.66
412.15	2555.86
412.36	2652.12
412.57	2527.19
412.77	2586.58
412.98	2504.67
413.19	2385.88
413.39	2519.00
413.60	2467.80
413.81	2590.68
414.01	2326.49
414.22	2568.15
414.43	2564.06
414.63	2443.23
414.84	2527.19
415.05	2404.32
415.25	2303.96
415.46	2602.97
415.67	2351.07
415.87	2506.71
416.08	2435.03
416.29	2461.66
416.49	2502.62
416.70	2435.03
416.91	2439.13
417.11	2441.18
417.32	2629.59
417.53	2539.48
417.73	2424.80
417.94	2512.86
418.15	2422.75
418.35	2410.46
418.56	2430.94
418.77	2783.19
418.97	2531.29
419.18	2430.94
419.38	2207.71
419.59	2482.14
419.80	2678.74
420.00	2402.27
420.21	2453.47
420.42	2605.02
420.62	2480.09
420.83	2387.93
421.04	2346.97
421.24	2490.33
421.45	2564.06
421.65	2588.63
421.86	2392.03
422.07	2650.07
422.27	2555.86
422.48	2449.37
422.69	2363.36
422.89	2500.57
423.10	2439.13
423.30	2316.25
423.51	2527.19
423.72	2424.80
423.92	2488.28
424.13	2349.02
424.33	2375.64
424.54	2545.63
424.75	2525.15
424.95	2605.02
425.16	2455.51
425.36	2441.18
425.57	2688.98
425.78	2484.19
425.98	2584.54
426.19	2414.56
426.39	2410.46
426.60	2484.19
426.81	2564.06
427.01	2504.67
427.22	2435.03
427.42	2301.92
427.63	2314.20
427.83	2553.82
428.04	2680.79
428.25	2502.62
428.45	2547.67
428.66	2625.50
428.86	2541.53
429.07	2430.94
429.28	2412.51
429.48	2457.56
429.69	2367.45
429.89	2506.71
430.10	2291.68
430.30	2564.06
430.51	2668.50
430.71	2379.74
430.92	2416.60
431.13	2412.51
431.33	2521.05
431.54	2504.67
431.74	2656.22
431.95	2758.61
432.15	2404.32
432.36	2432.99
432.56	2502.62
432.77	2682.84
432.98	2762.71
433.18	2502.62
433.39	2385.88
433.59	2418.65
433.80	2719.70
434.00	2678.74
434.21	2465.75
434.41	2480.09
434.62	2801.62
434.82	2346.97
435.03	2392.03
435.23	2490.33
435.44	2242.53
435.64	2480.09
435.85	2469.85
436.06	2553.82
436.26	2605.02
436.47	2406.36
436.67	2308.06
436.88	2469.85
437.08	2625.50
437.29	2566.10
437.49	2531.29
437.70	2703.32
437.90	2523.10
438.11	2611.16
438.31	2449.37
438.52	2738.13
438.72	2717.65
438.93	2725.85
439.13	2539.48
439.34	2727.89
439.54	2461.66
439.75	2537.43
439.95	2535.39
440.16	2416.60
440.36	2586.58
440.57	2551.77
440.77	2473.95
440.98	2473.95
441.18	2562.01
441.39	2400.22
441.59	2291.68
441.80	2768.85
442.00	2478.04
442.21	2631.64
442.41	2297.82
442.62	2680.79
442.82	2394.08
443.02	2465.75
443.23	2422.75
443.43	2519.00
443.64	2666.46
443.84	2418.65
444.05	2574.30
444.25	2574.30
444.46	2519.00
444.66	2396.12
444.87	2621.40
445.07	2338.78
445.28	2492.38
445.48	2600.92
445.69	2488.28
445.89	2813.91
446.09	2492.38
446.30	2805.72
446.50	2975.70
446.71	4583.35
446.91	5826.47
447.12	6621.08
447.32	6913.94
447.53	6508.44
447.73	5511.08
447.93	4849.59
448.14	4546.49
448.34	4444.09
448.55	3784.65
448.75	3788.74
448.96	3592.14
449.16	3284.94
449.36	3078.10
449.57	2731.99
449.77	2605.02
449.98	2424.80
450.18	2574.30
450.39	2531.29
450.59	2506.71
450.79	2482.14
451.00	2396.12
451.20	2613.21
451.41	2482.14
451.61	2625.50
451.81	2480.09
452.02	2383.84
452.22	2408.41
452.43	2463.71
452.63	2473.95
452.84	2461.66
453.04	2385.88
453.24	2514.91
453.45	2326.49
453.65	2430.94
453.86	2478.04
454.06	2502.62
454.26	2555.86
454.47	2359.26
454.67	2576.34
454.87	2580.44
455.08	2451.42
455.28	2643.93
455.49	2451.42
455.69	2402.27
455.89	2734.04
456.10	2586.58
456.30	2428.89
456.51	2586.58
456.71	2500.57
456.91	2478.04
457.12	2531.29
457.32	2529.24
457.52	2377.69
457.73	2609.11
457.93	2609.11
458.14	2521.05
458.34	2156.51
458.54	2449.37
458.75	2373.60
458.95	2600.92
459.15	2578.39
459.36	2480.09
459.56	2498.52
459.76	2770.90
459.97	2525.15
460.17	2437.08
460.37	2480.09
460.58	2467.80
460.78	2498.52
460.99	2482.14
461.19	2404.32
461.39	2367.45
461.60	2437.08
461.80	2424.80
462.00	2371.55
462.21	2422.75
462.41	2435.03
462.61	2389.98
462.82	2201.57
463.02	2576.34
463.22	2439.13
463.43	2529.24
463.63	2400.22
463.83	2719.70
464.04	2564.06
464.24	2516.95
464.44	2310.11
464.64	2488.28
464.85	2607.06
465.05	2523.10
465.25	2463.71
465.46	2416.60
465.66	2541.53
465.86	2535.39
466.07	2449.37
466.27	2473.95
466.47	2297.82
466.68	2301.92
466.88	2512.86
467.08	2609.11
467.29	2605.02
467.49	2502.62
467.69	2461.66
467.89	2486.23
468.10	2424.80
468.30	2480.09
468.50	2609.11
468.71	2637.78
468.91	2426.84
469.11	2576.34
469.31	2449.37
469.52	2428.89
469.72	2650.07
469.92	2654.17
470.13	2457.56
470.33	2506.71
470.53	2564.06
470.73	2938.84
470.94	3280.85
471.14	3403.72
471.34	3899.33
471.54	3702.73
471.75	3325.90
471.95	3131.34
472.15	3043.28
472.36	3012.56
472.56	2947.03
472.76	3047.38
472.96	2947.03
473.17	2752.47
473.37	2775.00
473.57	2531.29
473.77	2666.46
473.98	2457.56
474.18	2310.11
474.38	2910.16
474.58	2453.47
474.79	2430.94
474.99	2498.52
475.19	2613.21
475.39	2371.55
475.60	2480.09
475.80	2402.27
476.00	2502.62
476.20	2439.13
476.41	2471.90
476.61	2545.63
476.81	2609.11
477.01	2381.79
477.21	2721.75
477.42	2580.44
477.62	2430.94
477.82	2650.07
478.02	2408.41
478.23	2508.76
478.43	2326.49
478.63	2441.18
478.83	2430.94
479.03	2482.14
479.24	2639.83
479.44	2762.71
479.64	2408.41
479.84	2297.82
480.04	2408.41
480.25	2584.54
480.45	2441.18
480.65	2459.61
480.85	2695.13
481.06	2482.14
481.26	2498.52
481.46	2494.43
481.66	2553.82
481.86	2406.36
482.06	2605.02
482.27	2457.56
482.47	2428.89
482.67	2506.71
482.87	2478.04
483.07	2584.54
483.28	2506.71
483.48	2373.60
483.68	2465.75
483.88	2330.59
484.08	2254.81
484.29	2359.26
484.49	2480.09
484.69	2252.77
484.89	2605.02
485.09	2635.74
485.29	2557.91
485.50	2514.91
485.70	2455.51
485.90	2645.98
486.10	2463.71
486.30	2494.43
486.50	2582.49
486.71	2486.23
486.91	2547.67
487.11	2582.49
487.31	2371.55
487.51	2449.37
487.71	2351.07
487.91	2375.64
488.12	2463.71
488.32	2279.39
488.52	2357.21
488.72	2279.39
488.92	2596.82
489.12	2574.30
489.32	2605.02
489.53	2494.43
489.73	2400.22
489.93	2697.17
490.13	2365.40
490.33	2324.44
490.53	2539.48
490.73	2516.95
490.94	2293.72
491.14	2541.53
491.34	2621.40
491.54	2779.09
491.74	3416.01
491.94	4085.70
492.14	4306.88
492.34	4429.76
492.54	3911.62
492.75	3399.63
492.95	3444.68
493.15	3225.55
493.35	3194.83
493.55	3112.91
493.75	2949.08
493.95	3002.32
494.15	2684.89
494.35	2598.87
494.56	2523.10
494.76	2449.37
494.96	2607.06
495.16	2473.95
495.36	2521.05
495.56	2512.86
495.76	2389.98
495.96	2400.22
496.16	2324.44
496.36	2791.38
496.56	2455.51
496.77	2611.16
496.97	2514.91
497.17	2635.74
497.37	2353.12
497.57	2506.71
497.77	2531.29
497.97	2389.98
498.17	2408.41
498.37	2412.51
498.57	2555.86
498.77	2437.08
498.97	2617.30
499.17	2662.36
499.38	2473.95
499.58	2605.02
499.78	2557.91
499.98	2613.21
500.18	2545.63
500.38	2396.12
500.58	2715.61
500.78	3112.91
500.98	5326.77
501.18	7561.10
501.38	9258.87
501.58	10127.21
501.78	9842.54
501.98	7870.34
502.18	6786.97
502.38	5750.70
502.58	5351.34
502.78	4769.72
502.98	4650.94
503.18	4392.89
503.38	4079.55
503.59	3534.79
503.79	3442.64
503.99	3188.69
504.19	3061.71
504.39	3080.14
504.59	3076.05
504.79	3094.48
504.99	3135.44
505.19	2813.91
505.39	2600.92
505.59	2899.92
505.79	2832.34
505.99	2742.23
506.19	2576.34
506.39	2818.00
506.59	2459.61
506.79	2463.71
506.99	2674.65
507.19	2457.56
507.39	2519.00
507.59	2322.40
507.79	2408.41
507.99	2369.50
508.19	2449.37
508.39	2453.47
508.59	2473.95
508.79	2572.25
508.99	2670.55
509.19	2424.80
509.39	2521.05
509.59	2408.41
509.79	2357.21
509.99	2480.09
510.19	2598.87
510.39	2527.19
510.59	2613.21
510.79	2392.03
510.99	2355.16
511.19	2342.88
511.39	2627.54
511.59	2637.78
511.79	2596.82
511.99	2451.42
512.19	2643.93
512.38	2504.67
512.58	2439.13
512.78	2428.89
512.98	2619.35
513.18	2697.17
513.38	2328.54
513.58	2473.95
513.78	2504.67
513.98	2465.75
514.18	2463.71
514.38	2355.16
514.58	2545.63
514.78	2394.08
514.98	2310.11
515.18	2504.67
515.38	2314.20
515.58	2729.94
515.78	2473.95
515.98	2508.76
516.18	2598.87
516.38	2437.08
516.57	2392.03
516.77	2453.47
516.97	2662.36
517.17	2422.75
517.37	2248.67
517.57	2562.01
517.77	2443.23
517.97	2381.79
518.17	2467.80
518.37	2363.36
518.57	2361.31
518.77	2426.84
518.97	2437.08
519.16	2549.72
519.36	2633.69
519.56	2443.23
519.76	2447.32
519.96	2496.47
520.16	2750.42
520.36	2379.74
520.56	2617.30
520.76	2383.84
520.96	2430.94
521.16	2662.36
521.35	2598.87
521.55	2648.02
521.75	2484.19
521.95	2445.27
522.15	2424.80
522.35	2340.83
522.55	2398.17
522.75	2574.30
522.95	2514.91
523.14	2371.55
523.34	2559.96
523.54	2404.32
523.74	2531.29
523.94	2512.86
524.14	2281.44
524.34	2533.34
524.54	2627.54
524.73	2510.81
524.93	2605.02
525.13	2473.95
525.33	2416.60
525.53	2736.09
525.73	2576.34
525.93	2527.19
526.13	2412.51
526.32	2408.41
526.52	2609.11
526.72	2621.40
526.92	2383.84
527.12	2424.80
527.32	2332.64
527.52	2531.29
527.71	2578.39
527.91	2461.66
528.11	2500.57
528.31	2478.04
528.51	2408.41
528.71	2543.58
528.90	2482.14
529.10	2650.07
529.30	2635.74
529.50	2234.33
529.70	2539.48
529.90	2443.23
530.09	2555.86
530.29	2441.18
530.49	2392.03
530.69	2822.10
530.89	2519.00
531.09	2580.44
531.28	2432.99
531.48	2613.21
531.68	2490.33
531.88	2441.18
532.08	2502.62
532.28	2398.17
532.47	2600.92
532.67	2504.67
532.87	2535.39
533.07	2400.22
533.27	2660.31
533.46	2486.23
533.66	2594.78
533.86	2410.46
534.06	2523.10
534.26	2447.32
534.45	2488.28
534.65	2592.73
534.85	2525.15
535.05	2416.60
535.25	2584.54
535.44	2252.77
535.64	2510.81
535.84	2392.03
536.04	2531.29
536.24	2475.99
536.43	2375.64
536.63	2504.67
536.83	2514.91
537.03	2465.75
537.22	2342.88
537.42	2326.49
537.62	2471.90
537.82	2398.17
538.02	2594.78
538.21	2551.77
538.41	2822.10
538.61	2580.44
538.81	2441.18
539.00	2590.68
539.20	2365.40
539.40	2488.28
539.60	2512.86
539.79	2576.34
539.99	2490.33
540.19	2416.60
540.39	2482.14
540.58	2465.75
540.78	2658.26
540.98	2486.23
541.18	2594.78
541.37	2555.86
541.57	2437.08
541.77	2545.63
541.97	2349.02
542.16	2361.31
542.36	2494.43
542.56	2457.56
542.76	2662.36
542.95	2578.39
543.15	2631.64
543.35	2574.30
543.54	2404.32
543.74	2365.40
543.94	2662.36
544.14	2418.65
544.33	2609.11
544.53	2379.74
544.73	2451.42
544.93	2424.80
545.12	2406.36
545.32	2420.70
545.52	2437.08
545.71	2418.65
545.91	2385.88
546.11	2367.45
546.30	2371.55
546.50	2455.51
546.70	2498.52
546.90	2467.80
547.09	2293.72
547.29	2549.72
547.49	2570.20
547.68	2500.57
547.88	2430.94
548.08	2551.77
548.27	2895.83
548.47	2443.23
548.67	2392.03
548.87	2592.73
549.06	2498.52
549.26	2494.43
549.46	2557.91
549.65	2465.75
549.85	2449.37
550.05	2523.10
550.24	2346.97
550.44	2406.36
550.64	2400.22
550.83	2533.34
551.03	2641.88
551.23	2559.96
551.42	2514.91
551.62	2441.18
551.82	2488.28
552.01	2510.81
552.21	2570.20
552.41	2457.56
552.60	2629.59
552.80	2490.33
553.00	2367.45
553.19	2496.47
553.39	2652.12
553.59	2314.20
553.78	2463.71
553.98	2547.67
554.17	2316.25
554.37	2553.82
554.57	2602.97
554.76	2326.49
554.96	2447.32
555.16	2566.10
555.35	2451.42
555.55	2559.96
555.75	2547.67
555.94	2641.88
556.14	2301.92
556.33	2424.80
556.53	2514.91
556.73	2539.48
556.92	2543.58
557.12	2551.77
557.32	2775.00
557.51	2703.32
557.71	2527.19
557.90	2654.17
558.10	2662.36
558.30	2463.71
558.49	2406.36
558.69	2404.32
558.88	2637.78
559.08	2480.09
559.28	2383.84
559.47	2437.08
559.67	2531.29
559.86	2717.65
560.06	2392.03
560.26	2447.32
560.45	2516.95
560.65	2504.67
560.84	2650.07
561.04	2416.60
561.24	2582.49
561.43	2361.31
561.63	2660.31
561.82	2541.53
562.02	2539.48
562.22	2363.36
562.41	2406.36
562.61	2430.94
562.80	2480.09
563.00	2707.41
563.19	2512.86
563.39	2559.96
563.59	2590.68
563.78	2392.03
563.98	2236.38
564.17	2392.03
564.37	2252.77
564.56	2453.47
564.76	2285.53
564.96	2584.54
565.15	2471.90
565.35	2750.42
565.54	2418.65
565.74	2543.58
565.93	2449.37
566.13	2432.99
566.32	2545.63
566.52	2516.95
566.71	2590.68
566.91	2600.92
567.11	2557.91
567.30	2424.80
567.50	2539.48
567.69	2594.78
567.89	2484.19
568.08	2371.55
568.28	2555.86
568.47	2416.60
568.67	2519.00
568.86	2455.51
569.06	2592.73
569.25	2475.99
569.45	2265.05
569.64	2377.69
569.84	2502.62
570.04	2529.24
570.23	2365.40
570.43	2437.08
570.62	2541.53
570.82	2625.50
571.01	2281.44
571.21	2441.18
571.40	2322.40
571.60	2613.21
571.79	2457.56
571.99	2412.51
572.18	2369.50
572.38	2525.15
572.57	2467.80
572.77	2592.73
572.96	2875.35
573.16	2533.34
573.35	2445.27
573.55	2633.69
573.74	2531.29
573.94	2373.60
574.13	2424.80
574.33	2545.63
574.52	2635.74
574.71	2514.91
574.91	2498.52
575.10	2383.84
575.30	2451.42
575.49	2410.46
575.69	2330.59
575.88	2469.85
576.08	2594.78
576.27	2619.35
576.47	2455.51
576.66	2691.03
576.86	2670.55
577.05	2592.73
577.25	2574.30
577.44	2725.85
577.64	2482.14
577.83	2650.07
578.02	2439.13
578.22	2596.82
578.41	2762.71
578.61	2502.62
578.80	2381.79
579.00	2496.47
579.19	2547.67
579.39	2506.71
579.58	2555.86
579.77	2369.50
579.97	2568.15
580.16	2615.26
580.36	2613.21
580.55	2537.43
580.75	2531.29
580.94	2514.91
581.13	2676.70
581.33	2752.47
581.52	2482.14
581.72	2861.01
581.91	2666.46
582.11	2500.57
582.30	2588.63
582.49	2549.72
582.69	2736.09
582.88	2543.58
583.08	2506.71
583.27	2643.93
583.47	2547.67
583.66	2412.51
583.85	2416.60
584.05	2459.61
584.24	2527.19
584.44	2514.91
584.63	2607.06
584.82	2754.52
585.02	2670.55
585.21	2695.13
585.41	2750.42
585.60	2613.21
585.79	2744.28
585.99	2822.10
586.18	2588.63
586.37	3188.69
586.57	4997.04
586.76	14747.42
586.96	33932.79
587.15	47588.65
587.34	56544.42
587.54	61537.36
587.73	55592.11
587.93	38954.41
588.12	29724.22
588.31	23813.78
588.51	21044.93
588.70	19336.92
588.89	17420.02
589.09	14939.93
589.28	12588.86
589.47	10090.34
589.67	7999.37
589.86	6072.23
590.06	4640.70
590.25	3948.48
590.44	3350.48
590.64	2969.55
590.83	2867.16
591.02	2824.15
591.22	2541.53
591.41	2559.96
591.60	2531.29
591.80	2826.20
591.99	2357.21
592.18	2488.28
592.38	2703.32
592.57	2418.65
592.76	2488.28
592.96	2588.63
593.15	2523.10
593.34	2678.74
593.54	2428.89
593.73	2586.58
593.92	2584.54
594.12	2541.53
594.31	2590.68
594.50	2670.55
594.70	2586.58
594.89	2842.58
595.08	2371.55
595.28	2578.39
595.47	2797.53
595.66	2684.89
595.86	2469.85
596.05	2451.42
596.24	2502.62
596.43	2660.31
596.63	2578.39
596.82	2449.37
597.01	2473.95
597.21	2822.10
597.40	2543.58
597.59	2504.67
597.79	2553.82
597.98	2588.63
598.17	2516.95
598.36	2529.24
598.56	2654.17
598.75	2439.13
598.94	2539.48
599.14	2519.00
599.33	2453.47
599.52	2568.15
599.71	2539.48
599.91	2578.39
600.10	2553.82
600.29	2523.10
600.48	2519.00
600.68	2537.43
600.87	2541.53
601.06	2432.99
601.26	2502.62
601.45	2547.67
601.64	2527.19
601.83	2727.89
602.03	2381.79
602.22	2340.83
602.41	2674.65
602.60	2822.10
602.80	2580.44
602.99	2537.43
603.18	2457.56
603.37	2459.61
603.57	2451.42
603.76	2512.86
603.95	2652.12
604.14	2465.75
604.34	2359.26
604.53	2465.75
604.72	2519.00
604.91	2570.20
605.10	2523.10
605.30	2322.40
605.49	2719.70
605.68	2527.19
605.87	2502.62
606.07	2351.07
606.26	2482.14
606.45	2602.97
606.64	2523.10
606.84	2428.89
607.03	2578.39
607.22	2580.44
607.41	2478.04
607.60	2437.08
607.80	2637.78
607.99	2523.10
608.18	2445.27
608.37	2441.18
608.56	2445.27
608.76	2600.92
608.95	2662.36
609.14	2568.15
609.33	2629.59
609.52	2738.13
609.72	2590.68
609.91	2668.50
610.10	2510.81
610.29	2746.33
610.48	2654.17
610.68	2514.91
610.87	2404.32
611.06	2598.87
611.25	2506.71
611.44	2590.68
611.63	2535.39
611.83	2686.94
612.02	2301.92
612.21	2568.15
612.40	2312.16
612.59	2363.36
612.79	2416.60
612.98	2488.28
613.17	2731.99
613.36	2478.04
613.55	2691.03
613.74	2580.44
613.93	2635.74
614.13	2775.00
614.32	2768.85
614.51	2602.97
614.70	2566.10
614.89	2527.19
615.08	2545.63
615.28	2965.46
615.47	2430.94
615.66	2553.82
615.85	2527.19
616.04	2766.81
616.23	2564.06
616.42	2500.57
616.62	2586.58
616.81	2467.80
617.00	2478.04
617.19	2551.77
617.38	2500.57
617.57	2590.68
617.76	2613.21
617.95	2578.39
618.15	2615.26
618.34	2621.40
618.53	2297.82
618.72	2562.01
618.91	2613.21
619.10	2555.86
619.29	2441.18
619.48	2500.57
619.68	2310.11
619.87	2408.41
620.06	2371.55
620.25	2521.05
620.44	2445.27
620.63	2543.58
620.82	2535.39
621.01	2523.10
621.20	2410.46
621.39	2529.24
621.59	2592.73
621.78	2482.14
621.97	2514.91
622.16	2523.10
622.35	2516.95
622.54	2650.07
622.73	2594.78
622.92	2336.73
623.11	2600.92
623.30	2478.04
623.49	2473.95
623.68	2326.49
623.88	2709.46
624.07	2514.91
624.26	2422.75
624.45	2527.19
624.64	2363.36
624.83	2490.33
625.02	2435.03
625.21	2387.93
625.40	2471.90
625.59	2582.49
625.78	2535.39
625.97	2635.74
626.16	2637.78
626.35	2701.27
626.54	2586.58
626.74	2652.12
626.93	2531.29
627.12	2432.99
627.31	2641.88
627.50	2457.56
627.69	2619.35
627.88	2377.69
628.07	2365.40
628.26	2324.44
628.45	2432.99
628.64	2383.84
628.83	2449.37
629.02	2363.36
629.21	2537.43
629.40	2508.76
629.59	2471.90
629.78	2504.67
629.97	2523.10
630.16	2428.89
630.35	2424.80
630.54	2478.04
630.73	2475.99
630.92	2512.86
631.11	2346.97
631.30	2469.85
631.49	2594.78
631.68	2437.08
631.87	2430.94
632.06	2338.78
632.25	2701.27
632.44	2531.29
632.63	2463.71
632.82	2506.71
633.01	2492.38
633.20	2633.69
633.39	2549.72
633.58	2432.99
633.77	2625.50
633.96	2635.74
634.15	2555.86
634.34	2531.29
634.53	2510.81
634.72	2396.12
634.91	2297.82
635.10	2437.08
635.29	2643.93
635.48	2498.52
635.67	2373.60
635.86	2326.49
636.05	2537.43
636.24	2498.52
636.43	2492.38
636.62	2545.63
636.81	2211.81
637.00	2488.28
637.19	2545.63
637.38	2519.00
637.57	2490.33
637.76	2590.68
637.95	2658.26
638.14	2580.44
638.33	2574.30
638.52	2488.28
638.71	2396.12
638.89	2363.36
639.08	2850.77
639.27	2688.98
639.46	2731.99
639.65	3108.82
639.84	3231.69
640.03	3301.33
640.22	3200.98
640.41	3215.31
640.60	2793.43
640.79	2834.39
640.98	2654.17
641.17	2721.75
641.36	2736.09
641.55	2660.31
641.74	2469.85
641.92	2439.13
642.11	2379.74
642.30	2447.32
642.49	2441.18
642.68	2359.26
642.87	2551.77
643.06	2514.91
643.25	2392.03
643.44	2408.41
643.63	2465.75
643.82	2555.86
644.00	2330.59
644.19	2484.19
644.38	2353.12
644.57	2521.05
644.76	2504.67
644.95	2445.27
645.14	2437.08
645.33	2492.38
645.52	2562.01
645.71	2318.30
645.89	2408.41
646.08	2465.75
646.27	2447.32
646.46	2674.65
646.65	2287.58
646.84	2463.71
647.03	2308.06
647.22	2572.25
647.40	2469.85
647.59	2457.56
647.78	2260.96
647.97	2394.08
648.16	2283.49
648.35	2662.36
648.54	2668.50
648.73	2389.98
648.91	2641.88
649.10	2478.04
649.29	2455.51
649.48	2408.41
649.67	2455.51
649.86	2541.53
650.05	2547.67
650.23	2695.13
650.42	2547.67
650.61	2785.24
650.80	2660.31
650.99	2840.53
651.18	2650.07
651.36	2684.89
651.55	2475.99
651.74	2590.68
651.93	2432.99
652.12	2512.86
652.31	2482.14
652.49	2488.28
652.68	2500.57
652.87	2686.94
653.06	2529.24
653.25	2678.74
653.44	2545.63
653.62	2639.83
653.81	2422.75
654.00	2490.33
654.19	2578.39
654.38	2777.05
654.56	2570.20
654.75	2416.60
654.94	2641.88
655.13	2547.67
655.32	2498.52
655.51	2486.23
655.69	2461.66
655.88	2576.34
656.07	2357.21
656.26	2523.10
656.45	2310.11
656.63	2527.19
656.82	2514.91
657.01	2590.68
657.20	2414.56
657.38	2682.84
657.57	2416.60
657.76	2308.06
657.95	2576.34
658.14	2396.12
658.32	2408.41
658.51	2320.35
658.70	2549.72
658.89	2457.56
659.08	2422.75
659.26	2707.41
659.45	2392.03
659.64	2584.54
659.83	2461.66
660.01	2820.05
660.20	2549.72
660.39	2699.22
660.58	2293.72
660.76	2564.06
660.95	2422.75
661.14	2527.19
661.33	2320.35
661.51	2420.70
661.70	2465.75
661.89	2498.52
662.08	2449.37
662.26	2349.02
662.45	2424.80
662.64	2738.13
662.83	2531.29
663.01	2363.36
663.20	2461.66
663.39	2658.26
663.58	2375.64
663.76	2471.90
663.95	2557.91
664.14	2383.84
664.32	2414.56
664.51	2332.64
664.70	2346.97
664.89	2531.29
665.07	2293.72
665.26	2629.59
665.45	2273.25
665.64	2574.30
665.82	2414.56
666.01	2521.05
666.20	2299.87
666.38	2600.92
666.57	2637.78
666.76	4009.92
666.95	9697.13
667.13	17704.69
667.32	22793.89
667.51	25880.18
667.69	27655.77
667.88	24573.58
668.07	17354.49
668.25	14274.34
668.44	11921.23
668.63	10362.72
668.81	9162.61
669.00	7913.35
669.19	7112.60
669.38	6102.95
669.56	5054.39
669.75	4370.37
669.94	3833.80
670.12	3172.30
670.31	2942.93
670.50	2766.81
670.68	2750.42
670.87	2660.31
671.06	2562.01
671.24	2596.82
671.43	2705.37
671.62	2621.40
671.80	2494.43
671.99	2519.00
672.18	2537.43
672.36	2627.54
672.55	2547.67
672.74	2449.37
672.92	2406.36
673.11	2584.54
673.29	2377.69
673.48	2500.57
673.67	2488.28
673.85	2578.39
674.04	2430.94
674.23	2607.06
674.41	2691.03
674.60	2383.84
674.79	2277.34
674.97	2334.68
675.16	2588.63
675.34	2598.87
675.53	2406.36
675.72	2572.25
675.90	2658.26
676.09	2422.75
676.28	2545.63
676.46	2346.97
676.65	2498.52
676.83	2320.35
677.02	2420.70
677.21	2494.43
677.39	2469.85
677.58	2303.96
677.77	2447.32
677.95	2377.69
678.14	2392.03
678.32	2432.99
678.51	2473.95
678.70	2680.79
678.88	2418.65
679.07	2508.76
679.25	2465.75
679.44	2467.80
679.63	2367.45
679.81	2508.76
680.00	2670.55
680.18	2568.15
680.37	2643.93
680.55	2559.96
680.74	2349.02
680.93	2320.35
681.11	2531.29
681.30	2523.10
681.48	2523.10
681.67	2441.18
681.85	2539.48
682.04	2396.12
682.23	2523.10
682.41	2432.99
682.60	2465.75
682.78	2498.52
682.97	2314.20
683.15	2445.27
683.34	2572.25
683.53	2734.04
683.71	2398.17
683.90	2564.06
684.08	2760.66
684.27	2498.52
684.45	2553.82
684.64	2615.26
684.82	2396.12
685.01	2506.71
685.19	2420.70
685.38	2658.26
685.57	2492.38
685.75	2351.07
685.94	2437.08
686.12	2387.93
686.31	2459.61
686.49	2815.96
686.68	2250.72
686.86	2547.67
687.05	2488.28
687.23	2740.18
687.42	2363.36
687.60	2252.77
687.79	2584.54
687.97	2686.94
688.16	2682.84
688.34	2676.70
688.53	2297.82
688.71	2555.86
688.90	2643.93
689.08	2402.27
689.27	2351.07
689.45	2586.58
689.64	2588.63
689.82	2478.04
690.01	2537.43
690.19	2506.71
690.38	2490.33
690.56	2512.86
690.75	2371.55
690.93	2422.75
691.12	2392.03
691.30	2459.61
691.49	2478.04
691.67	2455.51
691.86	2684.89
692.04	2447.32
692.23	2498.52
692.41	2449.37
692.60	2834.39
692.78	2668.50
692.97	2465.75
693.15	2635.74
693.34	2658.26
693.52	2641.88
693.71	2418.65
693.89	2498.52
694.08	2322.40
694.26	2572.25
694.44	2582.49
694.63	2586.58
694.81	2277.34
695.00	2328.54
695.18	2574.30
695.37	2719.70
695.55	2527.19
695.74	2480.09
695.92	2500.57
696.10	2678.74
696.29	2334.68
696.47	2420.70
696.66	2359.26
696.84	2394.08
697.03	2521.05
697.21	2637.78
697.40	3733.45
697.58	2541.53
697.76	2408.41
697.95	2422.75
698.13	2422.75
698.32	2469.85
698.50	2516.95
698.68	2457.56
698.87	2609.11
699.05	2637.78
699.24	2455.51
699.42	2328.54
699.61	2566.10
699.79	2482.14
699.97	2473.95
700.16	2277.34
700.34	2406.36
700.53	2533.34
700.71	2662.36
700.89	2545.63
701.08	2473.95
701.26	2449.37
701.45	3045.33
701.63	2383.84
701.81	2529.24
702.00	2467.80
702.18	2488.28
702.37	2514.91
702.55	2801.62
702.73	2699.22
702.92	2570.20
703.10	2830.29
703.28	2736.09
703.47	2424.80
703.65	2727.89
703.84	2643.93
704.02	2469.85
704.20	2785.24
704.39	2482.14
704.57	2504.67
704.75	2672.60
704.94	2623.45
705.12	2512.86
705.30	2957.27
705.49	5509.04
705.67	12660.54
705.86	20960.96
706.04	24571.53
706.22	27313.76
706.41	28040.79
706.59	22847.14
706.77	16541.44
706.96	14073.64
707.14	12253.00
707.32	10491.74
707.51	9205.62
707.69	7595.92
707.87	6033.32
708.06	4888.50
708.24	4122.56
708.42	3475.40
708.61	3280.85
708.79	2695.13
708.97	2611.16
709.16	2588.63
709.34	2523.10
709.52	2508.76
709.71	2508.76
709.89	2559.96
710.07	2432.99
710.26	2392.03
710.44	2420.70
710.62	2572.25
710.80	2559.96
710.99	2615.26
711.17	2617.30
711.35	2369.50
711.54	2398.17
711.72	2590.68
711.90	2576.34
712.09	2545.63
712.27	2465.75
712.45	2527.19
712.63	2506.71
712.82	2488.28
713.00	2469.85
713.18	2500.57
713.37	2498.52
713.55	2535.39
713.73	2537.43
713.91	2570.20
714.10	2439.13
714.28	2465.75
714.46	2502.62
714.65	2592.73
714.83	2478.04
715.01	2461.66
715.19	2506.71
715.38	2402.27
715.56	2547.67
715.74	2400.22
715.92	2457.56
716.11	2582.49
716.29	2332.64
716.47	2471.90
716.65	2459.61
716.84	2279.39
717.02	2535.39
717.20	2297.82
717.38	2340.83
717.57	2496.47
717.75	2467.80
717.93	2424.80
718.11	2559.96
718.30	2361.31
718.48	2420.70
718.66	2695.13
718.84	2637.78
719.03	2437.08
719.21	2443.23
719.39	2705.37
719.57	2596.82
719.75	2543.58
719.94	2385.88
720.12	2430.94
720.30	2525.15
720.48	2580.44
720.67	2377.69
720.85	2301.92
721.03	2408.41
721.21	2346.97
721.39	2559.96
721.58	2498.52
721.76	2488.28
721.94	2494.43
722.12	2447.32
722.30	2656.22
722.49	2389.98
722.67	2463.71
722.85	2572.25
723.03	2314.20
723.21	2500.57
723.40	2465.75
723.58	2613.21
723.76	2555.86
723.94	2623.45
724.12	2529.24
724.30	2580.44
724.49	2625.50
724.67	2432.99
724.85	2666.46
725.03	2332.64
725.21	2588.63
725.40	2670.55
725.58	2449.37
725.76	2615.26
725.94	2576.34
726.12	2381.79
726.30	2383.84
726.49	2494.43
726.67	2465.75
726.85	2592.73
727.03	2863.06
727.21	4218.82
727.39	6004.64
727.57	6758.30
727.76	7307.15
727.94	7661.45
728.12	7051.16
728.30	5580.71
728.48	4923.32
728.66	4419.52
728.84	4132.80
729.03	3528.65
729.21	3321.81
729.39	2924.50
729.57	2686.94
729.75	2736.09
729.93	2519.00
730.11	2475.99
730.30	2432.99
730.48	2519.00
730.66	2623.45
730.84	2545.63
731.02	2539.48
731.20	2404.32
731.38	2568.15
731.56	2342.88
731.74	2346.97
731.93	2529.24
732.11	2404.32
732.29	2441.18
732.47	2551.77
732.65	2562.01
732.83	2537.43
733.01	2537.43
733.19	2392.03
733.37	2631.64
733.56	2451.42
733.74	2387.93
733.92	2623.45
734.10	2443.23
734.28	2549.72
734.46	2318.30
734.64	2453.47
734.82	2453.47
735.00	2482.14
735.18	2383.84
735.36	2525.15
735.54	2482.14
735.73	2496.47
735.91	2539.48
736.09	2535.39
736.27	2486.23
736.45	2482.14
736.63	2252.77
736.81	2416.60
736.99	2482.14
737.17	2627.54
737.35	2412.51
737.53	2586.58
737.71	2459.61
737.89	2633.69
738.07	2392.03
738.25	2414.56
738.43	2277.34
738.61	2396.12
738.80	2320.35
738.98	2359.26
739.16	2389.98
739.34	2367.45
739.52	2662.36
739.70	2488.28
739.88	2594.78
740.06	2557.91
740.24	2332.64
740.42	2619.35
740.60	2258.91
740.78	2424.80
740.96	2330.59
741.14	2367.45
741.32	2547.67
741.50	2195.42
741.68	2764.76
741.86	2621.40
742.04	2301.92
742.22	2320.35
742.40	2355.16
742.58	2531.29
742.76	2385.88
742.94	2555.86
743.12	2355.16
743.30	2506.71
743.48	2572.25
743.66	2355.16
743.84	2494.43
744.02	2510.81
744.20	2451.42
744.38	2400.22
744.56	2412.51
744.74	2727.89
744.92	2553.82
745.10	2645.98
745.28	2545.63
745.46	2693.08
745.64	2396.12
745.82	2572.25
746.00	2385.88
746.18	2465.75
746.36	2445.27
746.54	2521.05
746.72	2467.80
746.90	2359.26
747.08	2652.12
747.26	2490.33
747.44	2553.82
747.62	2488.28
747.80	2523.10
747.98	2639.83
748.15	2406.36
748.33	2686.94
748.51	2506.71
748.69	2555.86
748.87	2424.80
749.05	2449.37
749.23	2449.37
749.41	2471.90
749.59	2439.13
749.77	2539.48
749.95	2451.42
750.13	2389.98
750.31	2475.99
750.49	2435.03
750.67	2605.02
750.85	2654.17
751.03	2381.79
751.20	2717.65
751.38	2451.42
751.56	2545.63
751.74	2418.65
751.92	2465.75
752.10	2334.68
752.28	2629.59
752.46	2420.70
752.64	2416.60
752.82	2387.93
753.00	2553.82
753.18	2420.70
753.35	2480.09
753.53	2510.81
753.71	2404.32
753.89	2559.96
754.07	2555.86
754.25	2627.54
754.43	2488.28
754.61	2340.83
754.79	2537.43
754.97	2492.38
755.14	2551.77
755.32	2334.68
755.50	2525.15
755.68	2527.19
755.86	2353.12
756.04	2371.55
756.22	2263.01
756.40	2559.96
756.57	2684.89
756.75	2422.75
756.93	2564.06
757.11	2562.01
757.29	2359.26
757.47	2312.16
757.65	2287.58
757.82	2203.61
758.00	2342.88
758.18	2389.98
758.36	2326.49
758.54	2643.93
758.72	2254.81
758.90	2637.78
759.07	2525.15
759.25	2404.32
759.43	2529.24
759.61	2381.79
759.79	3538.89
759.97	2584.54
760.15	2392.03
760.32	2437.08
760.50	2506.71
760.68	2629.59
760.86	2283.49
761.04	2695.13
761.22	2562.01
761.39	2428.89
761.57	2521.05
761.75	2387.93
761.93	2445.27
762.11	2418.65
762.28	2455.51
762.46	2416.60
762.64	2631.64
762.82	2322.40
763.00	2414.56
763.18	2611.16
763.35	2355.16
763.53	2605.02
763.71	2461.66
763.89	2420.70
764.07	2461.66
764.24	2473.95
764.42	2584.54
764.60	2471.90
764.78	2551.77
764.96	2582.49
765.13	2584.54
765.31	2432.99
765.49	2545.63
765.67	2353.12
765.84	2379.74
766.02	2400.22
766.20	2357.21
766.38	2543.58
766.56	2549.72
766.73	2568.15
766.91	2482.14
767.09	2480.09
767.27	2496.47
767.44	2383.84
767.62	2582.49
767.80	2498.52
767.98	2373.60
768.15	2402.27
768.33	2531.29
768.51	2566.10
768.69	2506.71
768.87	2557.91
769.04	2525.15
769.22	2742.23
769.40	2613.21
769.58	2656.22
769.75	2512.86
769.93	2666.46
770.11	2418.65
770.28	2381.79
770.46	2619.35
770.64	2502.62
770.82	2361.31
770.99	2435.03
771.17	2547.67
771.35	2422.75
771.53	2420.70
771.70	2389.98
771.88	2553.82
772.06	2469.85
772.23	2408.41
772.41	2508.76
772.59	2447.32
772.77	2363.36
772.94	2418.65
773.12	2521.05
773.30	2383.84
773.47	2598.87
773.65	2375.64
773.83	2588.63
774.01	2531.29
774.18	2265.05
774.36	2457.56
774.54	2285.53
774.71	2506.71
774.89	2332.64
775.07	2375.64
775.24	2449.37
775.42	2416.60
775.60	2736.09
775.78	2330.59
775.95	2224.09
776.13	2318.30
776.31	2256.86
776.48	2471.90
776.66	2650.07
776.84	2469.85
777.01	2389.98
777.19	2363.36
777.37	2496.47
777.54	2584.54
777.72	2795.48
777.90	2502.62
778.07	2422.75
778.25	2891.73
778.43	2545.63
778.60	2369.50
778.78	2512.86
778.96	2566.10
779.13	2351.07
779.31	2496.47
779.49	2392.03
779.66	2531.29
779.84	2461.66
780.01	2455.51
780.19	2199.52
780.37	2605.02
780.54	2570.20
780.72	2293.72
780.90	2435.03
781.07	2480.09
781.25	2455.51
781.43	2555.86
781.60	2392.03
781.78	2643.93
781.95	2500.57
782.13	2334.68
782.31	2475.99
782.48	2301.92
782.66	2488.28
782.83	2738.13
783.01	2478.04
783.19	2525.15
783.36	2394.08
783.54	2283.49
783.72	2553.82
783.89	2469.85
784.07	2506.71
784.24	2502.62
784.42	2617.30
784.60	2449.37
784.77	2449.37
784.95	2242.53
785.12	2424.80
785.30	2512.86
785.47	2349.02
785.65	2332.64
785.83	2402.27
786.00	2408.41
786.18	2465.75
786.35	2371.55
786.53	2281.44
786.71	2633.69
786.88	2537.43
787.06	2449.37
787.23	2475.99
787.41	2326.49
787.58	2445.27
787.76	2441.18
787.94	2408.41
788.11	2553.82
788.29	2385.88
788.46	2389.98
788.64	2398.17
788.81	2422.75
788.99	2379.74
789.16	2318.30
789.34	2475.99
789.52	2486.23
789.69	2408.41
789.87	2324.44
790.04	2383.84
790.22	2443.23
790.39	2772.95
790.57	2342.88
790.74	2338.78
790.92	2539.48
791.09	2361.31
791.27	2453.47
791.44	2539.48
791.62	2416.60
791.79	2656.22
791.97	2447.32
792.15	2766.81
792.32	2519.00
792.50	2525.15
792.67	2637.78
792.85	2619.35
793.02	2506.71
793.20	2416.60
793.37	2293.72
793.55	2389.98
793.72	2353.12
793.90	2547.67
794.07	2355.16
794.25	2398.17
794.42	2512.86
794.60	2426.84
794.77	2490.33
794.95	2535.39
795.12	2555.86
795.30	2463.71
795.47	2220.00
795.65	2736.09
795.82	2570.20
796.00	2375.64
796.17	2449.37
796.34	2404.32
796.52	2539.48
796.69	2674.65
796.87	2545.63
797.04	2535.39
797.22	2602.97
797.39	2463.71
797.57	2572.25
797.74	2406.36
797.92	2471.90
798.09	2441.18
798.27	2521.05
798.44	2355.16
798.62	2461.66
798.79	2451.42
798.96	2506.71
799.14	2490.33
799.31	2760.66
799.49	2512.86
799.66	2375.64
799.84	2510.81
800.01	2291.68
800.19	2432.99
800.36	2299.87
800.53	2539.48
800.71	2566.10
800.88	2637.78
801.06	2349.02
801.23	2357.21
801.41	2519.00
801.58	2367.45
801.75	2400.22
801.93	2490.33
802.10	2555.86
802.28	2537.43
802.45	2392.03
802.63	2504.67
802.80	2686.94
802.97	2490.33
803.15	2457.56
803.32	2453.47
803.50	2375.64
803.67	2336.73
803.84	2316.25
804.02	2422.75
804.19	2471.90
804.37	2215.90
804.54	2293.72
804.71	2340.83
804.89	2453.47
805.06	2394.08
805.24	2277.34
805.41	2250.72
805.58	2365.40
805.76	2707.41
805.93	2432.99
806.10	2627.54
806.28	2527.19
806.45	2457.56
806.63	2523.10
806.80	2496.47
806.97	2416.60
807.15	2463.71
807.32	2492.38
807.49	2457.56
807.67	2267.10
807.84	2553.82
808.01	2308.06
808.19	2588.63
808.36	2740.18
808.54	2406.36
808.71	2303.96
808.88	2449.37
809.06	2621.40
809.23	2658.26
809.40	2465.75
809.58	2527.19
809.75	2512.86
809.92	2392.03
810.10	2668.50
810.27	2412.51
810.44	2480.09
810.62	2490.33
810.79	2486.23
810.96	2416.60
811.14	2432.99
811.31	2547.67
811.48	2502.62
811.66	2383.84
811.83	2578.39
812.00	2615.26
812.18	2533.34
812.35	2711.51
812.52	2396.12
812.69	2453.47
812.87	2437.08
813.04	2297.82
813.21	2461.66
813.39	2394.08
813.56	2359.26
813.73	2549.72
813.91	2273.25
814.08	2494.43
814.25	2504.67
814.42	2322.40
814.60	2484.19
814.77	2498.52
814.94	2486.23
815.12	2539.48
815.29	2627.54
815.46	2467.80
815.63	2465.75
815.81	2396.12
815.98	2424.80
816.15	2486.23
816.33	2383.84
816.50	2400.22
816.67	2453.47
816.84	2451.42
817.02	2314.20
817.19	2361.31
817.36	2527.19
817.53	2559.96
817.71	2387.93
817.88	2494.43
818.05	2480.09
818.22	2453.47
818.40	2629.59
818.57	2398.17
818.74	2551.77
818.91	2398.17
819.09	2473.95
819.26	2543.58
819.43	2379.74
819.60	2375.64
819.78	2545.63
819.95	2553.82
820.12	2299.87
820.29	2633.69
820.47	2633.69
820.64	2346.97
820.81	2336.73
820.98	2453.47
821.15	2496.47
821.33	2584.54
821.50	2281.44
821.67	2525.15
821.84	2461.66
822.02	2471.90
822.19	2594.78
822.36	2361.31
822.53	2349.02
822.70	2359.26
822.88	2396.12
823.05	2572.25
823.22	2447.32
823.39	2467.80
823.56	2473.95
823.74	2678.74
823.91	2412.51
824.08	2355.16
824.25	2398.17
824.42	2695.13
824.60	2316.25
824.77	2494.43
824.94	2498.52
825.11	2619.35
825.28	2318.30
825.45	2547.67
825.63	2480.09
825.80	2357.21
825.97	2459.61
826.14	2447.32
826.31	2220.00
826.48	2523.10
826.66	2383.84
826.83	2342.88
827.00	2402.27
827.17	2355.16
827.34	2351.07
827.51	2414.56
827.69	2420.70
827.86	2289.63
828.03	2453.47
828.20	2463.71
828.37	2367.45
828.54	2463.71
828.71	2359.26
828.89	2594.78
829.06	2545.63
829.23	2572.25
829.40	2375.64
829.57	2424.80
829.74	2615.26
829.91	2408.41
830.09	2271.20
830.26	2617.30
830.43	2691.03
830.60	2387.93
830.77	2535.39
830.94	2607.06
831.11	2574.30
831.28	2453.47
831.46	2498.52
831.63	2437.08
831.80	2512.86
831.97	2369.50
832.14	2404.32
832.31	2525.15
832.48	2424.80
832.65	2588.63
832.82	2484.19
832.99	2531.29
833.17	2367.45
833.34	2666.46
833.51	2486.23
833.68	2293.72
833.85	2623.45
834.02	2408.41
834.19	2301.92
834.36	2371.55
834.53	2529.24
834.70	2545.63
834.87	2551.77
835.04	2361.31
835.22	2467.80
835.39	2455.51
835.56	2330.59
835.73	2359.26
835.90	2602.97
836.07	2445.27
836.24	2480.09
836.41	2260.96
836.58	2441.18
836.75	2539.48
836.92	2480.09
837.09	2349.02
837.26	2594.78
837.43	2557.91
837.60	2498.52
837.77	2392.03
837.94	2582.49
838.12	2623.45
838.29	2404.32
838.46	2187.23
838.63	2320.35
838.80	2627.54
838.97	2445.27
839.14	2346.97
839.31	2482.14
839.48	2590.68
839.65	2355.16
839.82	2467.80
839.99	2457.56
840.16	2447.32
840.33	2310.11
840.50	2400.22
840.67	2285.53
840.84	2203.61
841.01	2408.41
841.18	2367.45
841.35	2414.56
841.52	2529.24
841.69	2637.78
841.86	2412.51
842.03	2478.04
842.20	2551.77
842.37	2371.55
842.54	2412.51
842.71	2467.80
842.88	2258.91
843.05	2359.26
843.22	2373.60
843.39	2482.14
843.56	2334.68
843.73	2379.74
843.90	2377.69
844.07	2424.80
844.24	2525.15
844.41	2455.51
844.58	2402.27
844.75	2469.85
844.92	2539.48
845.09	2392.03
845.26	2334.68
845.43	2523.10
845.60	2453.47
845.77	2482.14
845.94	2435.03
846.10	2650.07
846.27	2301.92
846.44	2371.55
846.61	2306.01
846.78	2523.10
846.95	2627.54
847.12	2394.08
847.29	2412.51
847.46	2428.89
847.63	2643.93
847.80	2351.07
847.97	2383.84
848.14	2799.57
848.31	2416.60
848.48	2332.64
848.65	2488.28
848.82	2353.12
848.98	2766.81
849.15	2439.13
849.32	2443.23
849.49	2621.40
849.66	2467.80
849.83	2432.99
850.00	2400.22
850.17	2547.67
850.34	2547.67
850.51	2338.78
850.68	2301.92
850.85	2703.32
851.01	2557.91
851.18	2426.84
851.35	2336.73
851.52	2549.72
851.69	2664.41
851.86	2287.58
852.03	2351.07
852.20	2633.69
852.37	2414.56
852.53	2176.99
852.70	2383.84
852.87	2523.10
853.04	2588.63
853.21	2385.88
853.38	2527.19
853.55	2635.74
853.72	2654.17
853.89	2230.24
854.05	2316.25
854.22	2408.41
854.39	2465.75
854.56	2504.67
854.73	2498.52
854.90	2365.40
855.07	2469.85
855.23	2244.57
855.40	2400.22
855.57	2420.70
855.74	2207.71
855.91	2611.16
856.08	2238.43
856.25	2383.84
856.41	2332.64
856.58	2357.21
856.75	2424.80
856.92	2324.44
857.09	2652.12
857.26	2293.72
857.42	2402.27
857.59	2562.01
857.76	2469.85
857.93	2416.60
858.10	2492.38
858.27	2334.68
858.43	2441.18
858.60	2402.27
858.77	2283.49
858.94	2422.75
859.11	2551.77
859.27	2361.31
859.44	2336.73
859.61	2697.17
859.78	2506.71
859.95	2371.55
860.12	2283.49
860.28	2684.89
860.45	2734.04
860.62	2338.78
860.79	2453.47
860.95	2371.55
861.12	2342.88
861.29	2295.77
861.46	2367.45
861.63	2416.60
861.79	2488.28
861.96	2254.81
862.13	2408.41
862.30	2594.78
862.47	2396.12
862.63	2242.53
862.80	2414.56
862.97	2635.74
863.14	2572.25
863.30	2471.90
863.47	2318.30
863.64	2703.32
863.81	2492.38
863.97	2334.68
864.14	2516.95
864.31	2447.32
864.48	2531.29
864.65	2381.79
864.81	2461.66
864.98	2512.86
865.15	2510.81
865.32	2449.37
865.48	2508.76
865.65	2705.37
865.82	2412.51
865.98	2416.60
866.15	2449.37
866.32	2547.67
866.49	2400.22
866.65	2490.33
866.82	2338.78
866.99	2402.27
867.16	2416.60
867.32	2447.32
867.49	2273.25
867.66	2334.68
867.83	2396.12
867.99	2324.44
868.16	2365.40
868.33	2389.98
868.49	2510.81
868.66	2322.40
868.83	2400.22
868.99	2480.09
869.16	2478.04
869.33	2516.95
869.50	2367.45
869.66	2437.08
869.83	2478.04
870.00	2344.92
870.16	2465.75
870.33	2465.75
870.50	2543.58
870.66	2478.04
870.83	2469.85
871.00	2486.23
871.17	2539.48
871.33	2400.22
871.50	2336.73
871.67	2475.99
871.83	2441.18
872.00	2566.10
872.17	2418.65
872.33	2682.84
872.50	2650.07
872.67	2357.21
872.83	2422.75
873.00	2576.34
873.17	2496.47
873.33	2416.60
873.50	2529.24
873.67	2449.37
873.83	2406.36
874.00	2484.19
874.16	2443.23
874.33	2519.00
874.50	2387.93
874.66	2432.99
874.83	2510.81
875.00	2607.06
875.16	2607.06
875.33	2488.28
875.50	2187.23
875.66	2465.75
875.83	2510.81
875.99	2484.19
876.16	2404.32
876.33	2383.84
876.49	2449.37
876.66	2422.75
876.83	2383.84
876.99	2293.72
877.16	2473.95
877.32	2334.68
877.49	2416.60
877.66	2473.95
877.82	2629.59
877.99	2461.66
878.15	2502.62
878.32	2492.38
878.49	2498.52
878.65	2365.40
878.82	2545.63
878.98	2424.80
879.15	2547.67
879.32	2490.33
879.48	2498.52
879.65	2469.85
879.81	2410.46
879.98	2375.64
880.15	2344.92
880.31	2592.73
880.48	2453.47
880.64	2498.52
880.81	2408.41
880.97	2611.16
881.14	2619.35
881.31	2340.83
881.47	2588.63
881.64	2467.80
881.80	2334.68
881.97	2430.94
882.13	2410.46
882.30	2332.64
882.47	2398.17
882.63	2361.31
882.80	2355.16
882.96	2445.27
883.13	2582.49
883.29	2336.73
883.46	2396.12
883.62	2691.03
883.79	2461.66
883.95	2490.33
884.12	2355.16
884.29	2605.02
884.45	2488.28
884.62	2400.22
884.78	2283.49
884.95	2672.60
885.11	2396.12
885.28	2461.66
885.44	2351.07
885.61	2605.02
885.77	2668.50
885.94	2475.99
886.10	2396.12
886.27	2523.10
886.43	2664.41
886.60	2490.33
886.76	2330.59
886.93	2351.07
887.09	2471.90
887.26	2271.20
887.42	2404.32
887.59	2551.77
887.75	2795.48
887.92	2600.92
888.08	2519.00
888.25	2631.64
888.41	2539.48
888.58	2443.23
888.74	2308.06
888.91	2412.51
>>>>>End Processed Spectral Data<<<<<
