SpectraSuite Data File
++++++++++++++++++++++++++++++++++++
Date: Thu May 05 14:42:17 CEST 2016
User: root
Dark Spectrum Present: No
Reference Spectrum Present: No
Number of Sampled Component Spectra: 1
Spectrometers: USB4C02835
Integration Time (usec): 100000 (USB4C02835)
Spectra Averaged: 1 (USB4C02835)
Boxcar Smoothing: 0 (USB4C02835)
Correct for Electrical Dark: No (USB4C02835)
Strobe/Lamp Enabled: No (USB4C02835)
Correct for Detector Non-linearity: No (USB4C02835)
Correct for Stray Light: No (USB4C02835)
Number of Pixels in Processed Spectrum: 3648
>>>>>Begin Processed Spectral Data<<<<<
177.47	1908.71
177.69	1908.71
177.91	1908.71
178.13	1916.90
178.36	1961.95
178.58	2342.88
178.80	2500.57
179.02	2254.81
179.24	2330.59
179.46	2349.02
179.68	2338.78
179.90	2439.13
180.13	2396.12
180.35	2271.20
180.57	2332.64
180.79	2547.67
181.01	2486.23
181.23	2400.22
181.45	2490.33
181.67	2465.75
181.90	2623.45
182.12	2314.20
182.34	2297.82
182.56	2564.06
182.78	2449.37
183.00	2324.44
183.22	2449.37
183.44	2226.14
183.66	2785.24
183.89	2457.56
184.11	2340.83
184.33	2498.52
184.55	2666.46
184.77	2400.22
184.99	2375.64
185.21	2396.12
185.43	2848.72
185.65	2342.88
185.87	2330.59
186.10	2824.15
186.32	2813.91
186.54	2441.18
186.76	2441.18
186.98	2607.06
187.20	2334.68
187.42	2406.36
187.64	2338.78
187.86	2555.86
188.08	2600.92
188.30	2332.64
188.52	2473.95
188.75	2580.44
188.97	2695.13
189.19	2361.31
189.41	2273.25
189.63	2486.23
189.85	2420.70
190.07	2250.72
190.29	2326.49
190.51	2549.72
190.73	2318.30
190.95	2570.20
191.17	2344.92
191.39	2371.55
191.61	2463.71
191.84	2408.41
192.06	2449.37
192.28	2299.87
192.50	2912.21
192.72	2457.56
192.94	2398.17
193.16	2578.39
193.38	2519.00
193.60	2285.53
193.82	2406.36
194.04	2596.82
194.26	2588.63
194.48	2377.69
194.70	2342.88
194.92	2365.40
195.14	2551.77
195.36	2389.98
195.58	2408.41
195.80	2412.51
196.02	2285.53
196.24	2316.25
196.46	2385.88
196.69	2414.56
196.91	2742.23
197.13	2426.84
197.35	2359.26
197.57	2695.13
197.79	2576.34
198.01	2371.55
198.23	2361.31
198.45	2584.54
198.67	2193.37
198.89	2277.34
199.11	2408.41
199.33	2441.18
199.55	2258.91
199.77	2328.54
199.99	2478.04
200.21	2406.36
200.43	2486.23
200.65	2275.29
200.87	2203.61
201.09	2422.75
201.31	2498.52
201.53	2414.56
201.75	2406.36
201.97	2537.43
202.19	2453.47
202.41	2441.18
202.63	2539.48
202.85	2531.29
203.07	2555.86
203.29	2400.22
203.51	2297.82
203.73	2355.16
203.95	2764.76
204.17	2326.49
204.39	2496.47
204.61	2416.60
204.83	2389.98
205.05	2494.43
205.27	2400.22
205.49	2764.76
205.71	2424.80
205.93	2203.61
206.15	2254.81
206.37	2418.65
206.59	2463.71
206.81	2269.15
207.03	2246.62
207.25	2408.41
207.47	2486.23
207.69	2349.02
207.91	2557.91
208.13	2678.74
208.34	2363.36
208.56	2279.39
208.78	2385.88
209.00	2488.28
209.22	2404.32
209.44	2392.03
209.66	2312.16
209.88	2396.12
210.10	2437.08
210.32	2299.87
210.54	2467.80
210.76	2389.98
210.98	2539.48
211.20	2138.08
211.42	2428.89
211.64	2619.35
211.86	2609.11
212.08	2385.88
212.30	2328.54
212.52	2426.84
212.74	2629.59
212.96	2387.93
213.17	2482.14
213.39	2594.78
213.61	2688.98
213.83	2373.60
214.05	2363.36
214.27	2674.65
214.49	2400.22
214.71	2318.30
214.93	2439.13
215.15	2469.85
215.37	2576.34
215.59	2256.86
215.81	2404.32
216.03	2605.02
216.24	2494.43
216.46	2316.25
216.68	2402.27
216.90	2588.63
217.12	2578.39
217.34	2289.63
217.56	2441.18
217.78	2674.65
218.00	2627.54
218.22	2383.84
218.44	2408.41
218.66	2490.33
218.87	2766.81
219.09	2312.16
219.31	2420.70
219.53	2488.28
219.75	2371.55
219.97	2346.97
220.19	2408.41
220.41	2467.80
220.63	2678.74
220.85	2336.73
221.06	2310.11
221.28	2707.41
221.50	2531.29
221.72	2342.88
221.94	2330.59
222.16	2465.75
222.38	2523.10
222.60	2314.20
222.82	2385.88
223.03	2621.40
223.25	2316.25
223.47	2340.83
223.69	2588.63
223.91	2529.24
224.13	2516.95
224.35	2342.88
224.57	2521.05
224.78	2508.76
225.00	2375.64
225.22	2342.88
225.44	2355.16
225.66	2570.20
225.88	2400.22
226.10	2492.38
226.32	2371.55
226.53	2676.70
226.75	2480.09
226.97	2439.13
227.19	2330.59
227.41	2387.93
227.63	2392.03
227.85	2170.85
228.06	2334.68
228.28	2527.19
228.50	2576.34
228.72	2220.00
228.94	2359.26
229.16	2357.21
229.37	2435.03
229.59	2297.82
229.81	2543.58
230.03	2449.37
230.25	2326.49
230.47	2248.67
230.69	2203.61
230.90	2613.21
231.12	2389.98
231.34	2414.56
231.56	2506.71
231.78	2359.26
232.00	2535.39
232.21	2326.49
232.43	2322.40
232.65	2152.42
232.87	2543.58
233.09	2252.77
233.30	2322.40
233.52	2672.60
233.74	2510.81
233.96	2355.16
234.18	2443.23
234.40	2441.18
234.61	2746.33
234.83	2283.49
235.05	2310.11
235.27	2748.37
235.49	2705.37
235.70	2244.57
235.92	2392.03
236.14	2531.29
236.36	2803.67
236.58	2232.29
236.79	2424.80
237.01	2512.86
237.23	2508.76
237.45	2576.34
237.67	2316.25
237.88	2586.58
238.10	2668.50
238.32	2260.96
238.54	2351.07
238.76	2441.18
238.97	2406.36
239.19	2267.10
239.41	2394.08
239.63	2658.26
239.85	2385.88
240.06	2428.89
240.28	2271.20
240.50	2539.48
240.72	2424.80
240.93	2256.86
241.15	2469.85
241.37	2531.29
241.59	2631.64
241.81	2340.83
242.02	2383.84
242.24	2537.43
242.46	2510.81
242.68	2228.19
242.89	2326.49
243.11	2562.01
243.33	2430.94
243.55	2375.64
243.76	2363.36
243.98	2365.40
244.20	2418.65
244.42	2453.47
244.64	2398.17
244.85	2342.88
245.07	2367.45
245.29	2400.22
245.51	2340.83
245.72	2564.06
245.94	2613.21
246.16	2328.54
246.38	2424.80
246.59	2430.94
246.81	2398.17
247.03	2340.83
247.24	2195.42
247.46	2416.60
247.68	2496.47
247.90	2252.77
248.11	2293.72
248.33	2562.01
248.55	2490.33
248.77	2359.26
248.98	2396.12
249.20	2652.12
249.42	2537.43
249.64	2430.94
249.85	2379.74
250.07	2381.79
250.29	2537.43
250.50	2443.23
250.72	2273.25
250.94	2594.78
251.16	2707.41
251.37	2367.45
251.59	2410.46
251.81	2539.48
252.02	2672.60
252.24	2346.97
252.46	2490.33
252.68	2324.44
252.89	2363.36
253.11	2209.76
253.33	2482.14
253.54	2699.22
253.76	2353.12
253.98	2373.60
254.20	2314.20
254.41	2310.11
254.63	2379.74
254.85	2183.13
255.06	2396.12
255.28	2480.09
255.50	2359.26
255.71	2256.86
255.93	2156.51
256.15	2383.84
256.36	2617.30
256.58	2222.05
256.80	2277.34
257.02	2441.18
257.23	2408.41
257.45	2418.65
257.67	2408.41
257.88	2441.18
258.10	2543.58
258.32	2324.44
258.53	2351.07
258.75	2686.94
258.97	2418.65
259.18	2263.01
259.40	2279.39
259.62	2711.51
259.83	2760.66
260.05	2377.69
260.27	2856.92
260.48	2658.26
260.70	2377.69
260.92	2346.97
261.13	2441.18
261.35	2531.29
261.57	2512.86
261.78	2244.57
262.00	2297.82
262.22	2611.16
262.43	2349.02
262.65	2398.17
262.86	2363.36
263.08	2772.95
263.30	2531.29
263.51	2267.10
263.73	2326.49
263.95	2678.74
264.16	2359.26
264.38	2306.01
264.60	2410.46
264.81	2494.43
265.03	2607.06
265.25	2523.10
265.46	2371.55
265.68	2625.50
265.89	2580.44
266.11	2281.44
266.33	2291.68
266.54	2568.15
266.76	2611.16
266.98	2512.86
267.19	2473.95
267.41	2656.22
267.62	2547.67
267.84	2205.66
268.06	2490.33
268.27	2459.61
268.49	2598.87
268.70	2387.93
268.92	2408.41
269.14	2346.97
269.35	2265.05
269.57	2408.41
269.79	2502.62
270.00	2471.90
270.22	2676.70
270.43	2269.15
270.65	2154.46
270.87	2514.91
271.08	2508.76
271.30	2432.99
271.51	2385.88
271.73	2592.73
271.95	2623.45
272.16	2375.64
272.38	2385.88
272.59	2373.60
272.81	2590.68
273.02	2351.07
273.24	2400.22
273.46	2613.21
273.67	2365.40
273.89	2205.66
274.10	2316.25
274.32	2633.69
274.54	2547.67
274.75	2432.99
274.97	2387.93
275.18	2623.45
275.40	2654.17
275.61	2430.94
275.83	2420.70
276.05	2359.26
276.26	2471.90
276.48	2445.27
276.69	2365.40
276.91	2379.74
277.12	2654.17
277.34	2484.19
277.55	2478.04
277.77	2502.62
277.99	2424.80
278.20	2375.64
278.42	2240.48
278.63	2435.03
278.85	2404.32
279.06	2340.83
279.28	2502.62
279.49	2557.91
279.71	2582.49
279.93	2482.14
280.14	2447.32
280.36	2359.26
280.57	2584.54
280.79	2543.58
281.00	2314.20
281.22	2351.07
281.43	2658.26
281.65	2140.13
281.86	2310.11
282.08	2516.95
282.29	2695.13
282.51	2326.49
282.73	2381.79
282.94	2285.53
283.16	2568.15
283.37	2494.43
283.59	2367.45
283.80	2568.15
284.02	2488.28
284.23	2553.82
284.45	2402.27
284.66	2449.37
284.88	2412.51
285.09	2441.18
285.31	2527.19
285.52	2519.00
285.74	2330.59
285.95	2523.10
286.17	2355.16
286.38	2555.86
286.60	2396.12
286.81	2416.60
287.03	2355.16
287.24	2510.81
287.46	2531.29
287.67	2506.71
287.89	2602.97
288.10	2475.99
288.32	2523.10
288.53	2555.86
288.75	2430.94
288.96	2498.52
289.18	2355.16
289.39	2392.03
289.61	2500.57
289.82	2693.08
290.04	2715.61
290.25	2357.21
290.47	2439.13
290.68	2453.47
290.90	2668.50
291.11	2279.39
291.33	2547.67
291.54	2379.74
291.76	2435.03
291.97	2539.48
292.18	2424.80
292.40	2408.41
292.61	2480.09
292.83	2686.94
293.04	2400.22
293.26	2486.23
293.47	2392.03
293.69	2412.51
293.90	2430.94
294.12	2619.35
294.33	2514.91
294.55	2351.07
294.76	2559.96
294.97	2617.30
295.19	2734.04
295.40	2392.03
295.62	2473.95
295.83	2531.29
296.05	2424.80
296.26	2551.77
296.48	2338.78
296.69	2553.82
296.90	2453.47
297.12	2596.82
297.33	2545.63
297.55	2514.91
297.76	2541.53
297.98	2506.71
298.19	2490.33
298.41	2428.89
298.62	2416.60
298.83	2596.82
299.05	2457.56
299.26	2443.23
299.48	2389.98
299.69	2498.52
299.90	2439.13
300.12	2424.80
300.33	2576.34
300.55	2373.60
300.76	2519.00
300.98	2338.78
301.19	2539.48
301.40	2473.95
301.62	2480.09
301.83	2551.77
302.05	2473.95
302.26	2473.95
302.47	2514.91
302.69	2394.08
302.90	2465.75
303.12	2244.57
303.33	2494.43
303.54	2736.09
303.76	2408.41
303.97	2400.22
304.19	2586.58
304.40	2398.17
304.61	2523.10
304.83	2637.78
305.04	2478.04
305.26	2537.43
305.47	2467.80
305.68	2469.85
305.90	2342.88
306.11	2555.86
306.33	2488.28
306.54	2328.54
306.75	2408.41
306.97	2258.91
307.18	2447.32
307.39	2371.55
307.61	2428.89
307.82	2430.94
308.04	2480.09
308.25	2324.44
308.46	2502.62
308.68	2541.53
308.89	2473.95
309.10	2467.80
309.32	2480.09
309.53	2398.17
309.74	2605.02
309.96	2400.22
310.17	2564.06
310.39	2422.75
310.60	2578.39
310.81	2502.62
311.03	2328.54
311.24	2521.05
311.45	2475.99
311.67	2678.74
311.88	2504.67
312.09	2412.51
312.31	2414.56
312.52	2400.22
312.73	2346.97
312.95	2277.34
313.16	2340.83
313.37	2527.19
313.59	2537.43
313.80	2570.20
314.01	2678.74
314.23	2494.43
314.44	2355.16
314.65	2355.16
314.87	2408.41
315.08	2432.99
315.29	2422.75
315.51	2291.68
315.72	2328.54
315.93	2600.92
316.15	2555.86
316.36	2471.90
316.57	2523.10
316.79	2465.75
317.00	2291.68
317.21	2572.25
317.43	2299.87
317.64	2459.61
317.85	2371.55
318.07	2367.45
318.28	2400.22
318.49	2594.78
318.70	2678.74
318.92	2570.20
319.13	2555.86
319.34	2713.56
319.56	2586.58
319.77	2566.10
319.98	2623.45
320.20	2557.91
320.41	2494.43
320.62	2449.37
320.83	2418.65
321.05	2652.12
321.26	2514.91
321.47	2437.08
321.69	2586.58
321.90	2379.74
322.11	2412.51
322.32	2539.48
322.54	2627.54
322.75	2420.70
322.96	2891.73
323.18	2291.68
323.39	2285.53
323.60	2383.84
323.81	2521.05
324.03	2383.84
324.24	2500.57
324.45	2478.04
324.66	2338.78
324.88	2654.17
325.09	2668.50
325.30	2422.75
325.52	2445.27
325.73	2510.81
325.94	2420.70
326.15	2281.44
326.37	2248.67
326.58	2473.95
326.79	2682.84
327.00	2371.55
327.22	2432.99
327.43	2408.41
327.64	2367.45
327.85	2392.03
328.07	2418.65
328.28	2756.57
328.49	2455.51
328.70	2396.12
328.92	2396.12
329.13	2408.41
329.34	2510.81
329.55	2580.44
329.76	2486.23
329.98	2447.32
330.19	2670.55
330.40	2504.67
330.61	2418.65
330.83	2602.97
331.04	2402.27
331.25	2488.28
331.46	2365.40
331.68	2314.20
331.89	2594.78
332.10	2424.80
332.31	2211.81
332.52	2482.14
332.74	2564.06
332.95	2277.34
333.16	2371.55
333.37	2555.86
333.58	2414.56
333.80	2394.08
334.01	2269.15
334.22	2488.28
334.43	2428.89
334.64	2349.02
334.86	2242.53
335.07	2314.20
335.28	2672.60
335.49	2211.81
335.70	2451.42
335.92	2617.30
336.13	2711.51
336.34	2512.86
336.55	2432.99
336.76	2502.62
336.98	2254.81
337.19	2426.84
337.40	2557.91
337.61	2783.19
337.82	2449.37
338.04	2502.62
338.25	2310.11
338.46	2406.36
338.67	2439.13
338.88	2375.64
339.09	2289.63
339.31	2451.42
339.52	2359.26
339.73	2318.30
339.94	2394.08
340.15	2615.26
340.36	2478.04
340.58	2416.60
340.79	2379.74
341.00	2506.71
341.21	2359.26
341.42	2576.34
341.63	2416.60
341.85	2676.70
342.06	2465.75
342.27	2318.30
342.48	2572.25
342.69	2271.20
342.90	2551.77
343.12	2539.48
343.33	2381.79
343.54	2691.03
343.75	2611.16
343.96	2424.80
344.17	2375.64
344.38	2457.56
344.60	2412.51
344.81	2349.02
345.02	2428.89
345.23	2586.58
345.44	2791.38
345.65	2504.67
345.86	2494.43
346.07	2473.95
346.29	2385.88
346.50	2488.28
346.71	2406.36
346.92	2678.74
347.13	2883.54
347.34	2457.56
347.55	2381.79
347.76	2506.71
347.98	2295.77
348.19	2414.56
348.40	2627.54
348.61	2441.18
348.82	2670.55
349.03	2512.86
349.24	2404.32
349.45	2717.65
349.66	2291.68
349.88	2383.84
350.09	2338.78
350.30	2715.61
350.51	2557.91
350.72	2488.28
350.93	2416.60
351.14	2379.74
351.35	2539.48
351.56	2508.76
351.77	2523.10
351.99	2600.92
352.20	2682.84
352.41	2605.02
352.62	2271.20
352.83	2445.27
353.04	2508.76
353.25	2445.27
353.46	2545.63
353.67	2664.41
353.88	2285.53
354.09	2467.80
354.30	2461.66
354.52	2525.15
354.73	2451.42
354.94	2389.98
355.15	2461.66
355.36	2695.13
355.57	2400.22
355.78	2443.23
355.99	2334.68
356.20	2480.09
356.41	2531.29
356.62	2490.33
356.83	2523.10
357.04	2645.98
357.25	2246.62
357.46	2375.64
357.68	2252.77
357.89	2328.54
358.10	2445.27
358.31	2478.04
358.52	2420.70
358.73	2318.30
358.94	2293.72
359.15	2367.45
359.36	2441.18
359.57	2494.43
359.78	2449.37
359.99	2523.10
360.20	2369.50
360.41	2373.60
360.62	2535.39
360.83	2449.37
361.04	2420.70
361.25	2551.77
361.46	2637.78
361.67	2506.71
361.88	2490.33
362.09	2590.68
362.30	2553.82
362.51	2342.88
362.72	2410.46
362.93	2553.82
363.14	2504.67
363.35	2523.10
363.56	2281.44
363.78	2568.15
363.99	2482.14
364.20	2351.07
364.41	2494.43
364.62	2719.70
364.83	2521.05
365.04	2490.33
365.25	2486.23
365.46	2787.29
365.67	2453.47
365.88	2506.71
366.09	2389.98
366.30	2435.03
366.51	2510.81
366.72	2301.92
366.93	2480.09
367.14	2471.90
367.35	2559.96
367.56	2439.13
367.77	2555.86
367.98	2521.05
368.18	2529.24
368.39	2512.86
368.60	2324.44
368.81	2549.72
369.02	2549.72
369.23	2531.29
369.44	2283.49
369.65	2396.12
369.86	2562.01
370.07	2471.90
370.28	2371.55
370.49	2480.09
370.70	2531.29
370.91	2371.55
371.12	2379.74
371.33	2594.78
371.54	2373.60
371.75	2576.34
371.96	2195.42
372.17	2478.04
372.38	2498.52
372.59	2521.05
372.80	2424.80
373.01	2406.36
373.22	2506.71
373.43	2441.18
373.64	2342.88
373.85	2613.21
374.06	2650.07
374.26	2566.10
374.47	2494.43
374.68	2666.46
374.89	2527.19
375.10	2449.37
375.31	2523.10
375.52	2473.95
375.73	2459.61
375.94	2330.59
376.15	2562.01
376.36	2428.89
376.57	2437.08
376.78	2375.64
376.99	2455.51
377.20	2668.50
377.40	2414.56
377.61	2684.89
377.82	2379.74
378.03	2633.69
378.24	2523.10
378.45	2367.45
378.66	2482.14
378.87	2342.88
379.08	2326.49
379.29	2367.45
379.50	2519.00
379.71	2463.71
379.91	2572.25
380.12	2373.60
380.33	2430.94
380.54	2555.86
380.75	2414.56
380.96	2406.36
381.17	2484.19
381.38	2508.76
381.59	2529.24
381.80	2463.71
382.00	2621.40
382.21	2541.53
382.42	2699.22
382.63	2766.81
382.84	2514.91
383.05	2637.78
383.26	2699.22
383.47	2516.95
383.68	2404.32
383.88	2619.35
384.09	2482.14
384.30	2613.21
384.51	2482.14
384.72	2535.39
384.93	2316.25
385.14	2369.50
385.35	2529.24
385.55	2297.82
385.76	2670.55
385.97	2437.08
386.18	2293.72
386.39	2396.12
386.60	2457.56
386.81	2453.47
387.02	2357.21
387.22	2416.60
387.43	2521.05
387.64	2473.95
387.85	2633.69
388.06	2660.31
388.27	4067.27
388.48	8273.79
388.68	12306.24
388.89	14649.12
389.10	15914.77
389.31	15064.86
389.52	11693.90
389.73	10133.35
389.93	9314.16
390.14	8372.10
390.35	7518.09
390.56	6590.36
390.77	5578.67
390.98	4267.97
391.18	3420.11
391.39	2965.46
391.60	2637.78
391.81	2592.73
392.02	2400.22
392.23	2830.29
392.43	2445.27
392.64	2564.06
392.85	2432.99
393.06	2668.50
393.27	2437.08
393.47	2424.80
393.68	2422.75
393.89	2420.70
394.10	2641.88
394.31	2351.07
394.52	2363.36
394.72	2437.08
394.93	2631.64
395.14	2308.06
395.35	2486.23
395.56	2410.46
395.76	2502.62
395.97	2510.81
396.18	2586.58
396.39	2656.22
396.60	3086.29
396.80	2691.03
397.01	2686.94
397.22	2652.12
397.43	2609.11
397.64	2469.85
397.84	2525.15
398.05	2715.61
398.26	2553.82
398.47	2465.75
398.67	2623.45
398.88	2494.43
399.09	2553.82
399.30	2371.55
399.51	2510.81
399.71	2392.03
399.92	2519.00
400.13	2531.29
400.34	2445.27
400.54	2553.82
400.75	2680.79
400.96	2539.48
401.17	2668.50
401.37	2527.19
401.58	2457.56
401.79	2463.71
402.00	2598.87
402.21	2910.16
402.41	2734.04
402.62	2842.58
402.83	2955.22
403.04	2910.16
403.24	3104.72
403.45	2578.39
403.66	2772.95
403.87	2711.51
404.07	2807.77
404.28	2635.74
404.49	2779.09
404.70	2602.97
404.90	2562.01
405.11	2437.08
405.32	2529.24
405.52	2381.79
405.73	2389.98
405.94	2406.36
406.15	2430.94
406.35	2621.40
406.56	2531.29
406.77	2443.23
406.98	2490.33
407.18	2457.56
407.39	2619.35
407.60	2414.56
407.80	2533.34
408.01	2523.10
408.22	2541.53
408.43	2349.02
408.63	2451.42
408.84	2619.35
409.05	2580.44
409.25	2389.98
409.46	2301.92
409.67	2490.33
409.88	2398.17
410.08	2496.47
410.29	2471.90
410.50	2605.02
410.70	2492.38
410.91	2303.96
411.12	2490.33
411.32	2539.48
411.53	2463.71
411.74	2572.25
411.95	2504.67
412.15	2613.21
412.36	2641.88
412.57	2588.63
412.77	2527.19
412.98	2506.71
413.19	2486.23
413.39	2572.25
413.60	2498.52
413.81	2607.06
414.01	2320.35
414.22	2498.52
414.43	2559.96
414.63	2498.52
414.84	2580.44
415.05	2480.09
415.25	2293.72
415.46	2592.73
415.67	2394.08
415.87	2559.96
416.08	2475.99
416.29	2449.37
416.49	2592.73
416.70	2496.47
416.91	2412.51
417.11	2457.56
417.32	2641.88
417.53	2559.96
417.73	2435.03
417.94	2400.22
418.15	2484.19
418.35	2506.71
418.56	2498.52
418.77	2793.43
418.97	2533.34
419.18	2437.08
419.38	2201.57
419.59	2523.10
419.80	2613.21
420.00	2465.75
420.21	2451.42
420.42	2633.69
420.62	2586.58
420.83	2326.49
421.04	2400.22
421.24	2559.96
421.45	2629.59
421.65	2490.33
421.86	2465.75
422.07	2555.86
422.27	2535.39
422.48	2432.99
422.69	2363.36
422.89	2504.67
423.10	2478.04
423.30	2310.11
423.51	2457.56
423.72	2461.66
423.92	2625.50
424.13	2275.29
424.33	2420.70
424.54	2656.22
424.75	2500.57
424.95	2660.31
425.16	2478.04
425.36	2588.63
425.57	2605.02
425.78	2545.63
425.98	2486.23
426.19	2385.88
426.39	2389.98
426.60	2492.38
426.81	2551.77
427.01	2559.96
427.22	2455.51
427.42	2342.88
427.63	2377.69
427.83	2543.58
428.04	2742.23
428.25	2580.44
428.45	2576.34
428.66	2500.57
428.86	2447.32
429.07	2432.99
429.28	2449.37
429.48	2482.14
429.69	2389.98
429.89	2496.47
430.10	2326.49
430.30	2613.21
430.51	2582.49
430.71	2359.26
430.92	2498.52
431.13	2432.99
431.33	2469.85
431.54	2521.05
431.74	2676.70
431.95	2760.66
432.15	2349.02
432.36	2473.95
432.56	2451.42
432.77	2676.70
432.98	2588.63
433.18	2564.06
433.39	2357.21
433.59	2441.18
433.80	2740.18
434.00	2668.50
434.21	2371.55
434.41	2400.22
434.62	2785.24
434.82	2308.06
435.03	2389.98
435.23	2475.99
435.44	2316.25
435.64	2400.22
435.85	2531.29
436.06	2600.92
436.26	2523.10
436.47	2342.88
436.67	2430.94
436.88	2467.80
437.08	2598.87
437.29	2588.63
437.49	2492.38
437.70	2611.16
437.90	2457.56
438.11	2678.74
438.31	2576.34
438.52	2668.50
438.72	2682.84
438.93	2779.09
439.13	2527.19
439.34	2723.80
439.54	2478.04
439.75	2555.86
439.95	2510.81
440.16	2375.64
440.36	2570.20
440.57	2498.52
440.77	2514.91
440.98	2652.12
441.18	2519.00
441.39	2441.18
441.59	2392.03
441.80	2815.96
442.00	2574.30
442.21	2555.86
442.41	2392.03
442.62	2586.58
442.82	2521.05
443.02	2506.71
443.23	2486.23
443.43	2437.08
443.64	2680.79
443.84	2373.60
444.05	2533.34
444.25	2629.59
444.46	2459.61
444.66	2459.61
444.87	2602.97
445.07	2273.25
445.28	2484.19
445.48	2596.82
445.69	2502.62
445.89	2772.95
446.09	2435.03
446.30	2711.51
446.50	2977.75
446.71	4667.32
446.91	5808.04
447.12	6526.88
447.32	7045.01
447.53	6725.53
447.73	5396.40
447.93	4775.86
448.14	4491.20
448.34	4345.79
448.55	3743.69
448.75	3768.26
448.96	3620.81
449.16	3237.84
449.36	3137.49
449.57	2715.61
449.77	2613.21
449.98	2469.85
450.18	2535.39
450.39	2549.72
450.59	2531.29
450.79	2469.85
451.00	2424.80
451.20	2631.64
451.41	2402.27
451.61	2533.34
451.81	2392.03
452.02	2422.75
452.22	2443.23
452.43	2389.98
452.63	2422.75
452.84	2559.96
453.04	2406.36
453.24	2576.34
453.45	2432.99
453.65	2402.27
453.86	2506.71
454.06	2502.62
454.26	2471.90
454.47	2387.93
454.67	2602.97
454.87	2496.47
455.08	2453.47
455.28	2576.34
455.49	2576.34
455.69	2404.32
455.89	2750.42
456.10	2613.21
456.30	2387.93
456.51	2580.44
456.71	2494.43
456.91	2502.62
457.12	2482.14
457.32	2572.25
457.52	2357.21
457.73	2557.91
457.93	2588.63
458.14	2414.56
458.34	2406.36
458.54	2373.60
458.75	2412.51
458.95	2605.02
459.15	2492.38
459.36	2555.86
459.56	2471.90
459.76	2709.46
459.97	2449.37
460.17	2371.55
460.37	2514.91
460.58	2498.52
460.78	2650.07
460.99	2447.32
461.19	2471.90
461.39	2439.13
461.60	2568.15
461.80	2547.67
462.00	2385.88
462.21	2455.51
462.41	2420.70
462.61	2340.83
462.82	2277.34
463.02	2594.78
463.22	2461.66
463.43	2572.25
463.63	2414.56
463.83	2553.82
464.04	2516.95
464.24	2494.43
464.44	2359.26
464.64	2398.17
464.85	2650.07
465.05	2549.72
465.25	2441.18
465.46	2373.60
465.66	2527.19
465.86	2490.33
466.07	2430.94
466.27	2469.85
466.47	2424.80
466.68	2338.78
466.88	2676.70
467.08	2551.77
467.29	2512.86
467.49	2590.68
467.69	2541.53
467.89	2592.73
468.10	2381.79
468.30	2449.37
468.50	2564.06
468.71	2684.89
468.91	2392.03
469.11	2584.54
469.31	2471.90
469.52	2371.55
469.72	2742.23
469.92	2699.22
470.13	2447.32
470.33	2508.76
470.53	2590.68
470.73	2916.31
470.94	3239.89
471.14	3471.31
471.34	3839.94
471.54	3704.78
471.75	3358.67
471.95	3096.53
472.15	2998.23
472.36	3035.09
472.56	2983.89
472.76	2981.84
472.96	2897.88
473.17	2844.63
473.37	2695.13
473.57	2494.43
473.77	2613.21
473.98	2420.70
474.18	2293.72
474.38	2895.83
474.58	2430.94
474.79	2367.45
474.99	2572.25
475.19	2631.64
475.39	2402.27
475.60	2492.38
475.80	2414.56
476.00	2609.11
476.20	2478.04
476.41	2529.24
476.61	2549.72
476.81	2596.82
477.01	2357.21
477.21	2611.16
477.42	2594.78
477.62	2478.04
477.82	2664.41
478.02	2373.60
478.23	2449.37
478.43	2326.49
478.63	2430.94
478.83	2512.86
479.03	2439.13
479.24	2627.54
479.44	2768.85
479.64	2359.26
479.84	2281.44
480.04	2400.22
480.25	2543.58
480.45	2344.92
480.65	2506.71
480.85	2662.36
481.06	2449.37
481.26	2482.14
481.46	2498.52
481.66	2494.43
481.86	2412.51
482.06	2639.83
482.27	2549.72
482.47	2498.52
482.67	2498.52
482.87	2418.65
483.07	2539.48
483.28	2396.12
483.48	2330.59
483.68	2410.46
483.88	2377.69
484.08	2299.87
484.29	2297.82
484.49	2441.18
484.69	2297.82
484.89	2662.36
485.09	2613.21
485.29	2457.56
485.50	2506.71
485.70	2439.13
485.90	2625.50
486.10	2512.86
486.30	2537.43
486.50	2586.58
486.71	2435.03
486.91	2512.86
487.11	2578.39
487.31	2334.68
487.51	2555.86
487.71	2357.21
487.91	2408.41
488.12	2367.45
488.32	2244.57
488.52	2424.80
488.72	2267.10
488.92	2529.24
489.12	2578.39
489.32	2525.15
489.53	2516.95
489.73	2301.92
489.93	2668.50
490.13	2367.45
490.33	2402.27
490.53	2555.86
490.73	2594.78
490.94	2322.40
491.14	2588.63
491.34	2586.58
491.54	2645.98
491.74	3456.97
491.94	4061.12
492.14	4300.73
492.34	4425.66
492.54	4034.50
492.75	3465.16
492.95	3452.88
493.15	3360.72
493.35	3200.98
493.55	3035.09
493.75	2947.03
493.95	3078.10
494.15	2715.61
494.35	2592.73
494.56	2592.73
494.76	2459.61
494.96	2562.01
495.16	2498.52
495.36	2471.90
495.56	2545.63
495.76	2453.47
495.96	2428.89
496.16	2351.07
496.36	2760.66
496.56	2383.84
496.77	2531.29
496.97	2506.71
497.17	2641.88
497.37	2346.97
497.57	2500.57
497.77	2514.91
497.97	2406.36
498.17	2437.08
498.37	2389.98
498.57	2529.24
498.77	2441.18
498.97	2611.16
499.17	2691.03
499.38	2422.75
499.58	2564.06
499.78	2586.58
499.98	2617.30
500.18	2498.52
500.38	2494.43
500.58	2555.86
500.78	3084.24
500.98	5513.13
501.18	7569.29
501.38	9338.74
501.58	10344.29
501.78	10069.86
501.98	8167.30
502.18	6733.72
502.38	5808.04
502.58	5414.83
502.78	5040.05
502.98	4759.48
503.18	4431.80
503.38	4050.88
503.59	3547.08
503.79	3344.33
503.99	3153.87
504.19	3047.38
504.39	3028.95
504.59	3100.62
504.79	3035.09
504.99	3162.06
505.19	2848.72
505.39	2654.17
505.59	2834.39
505.79	2830.29
505.99	2674.65
506.19	2496.47
506.39	2740.18
506.59	2547.67
506.79	2467.80
506.99	2693.08
507.19	2432.99
507.39	2572.25
507.59	2324.44
507.79	2441.18
507.99	2330.59
508.19	2506.71
508.39	2437.08
508.59	2457.56
508.79	2551.77
508.99	2727.89
509.19	2437.08
509.39	2541.53
509.59	2320.35
509.79	2424.80
509.99	2510.81
510.19	2541.53
510.39	2539.48
510.59	2498.52
510.79	2531.29
510.99	2324.44
511.19	2465.75
511.39	2760.66
511.59	2676.70
511.79	2623.45
511.99	2416.60
512.19	2684.89
512.38	2553.82
512.58	2396.12
512.78	2367.45
512.98	2682.84
513.18	2709.46
513.38	2277.34
513.58	2547.67
513.78	2453.47
513.98	2484.19
514.18	2484.19
514.38	2467.80
514.58	2547.67
514.78	2435.03
514.98	2453.47
515.18	2355.16
515.38	2396.12
515.58	2756.57
515.78	2457.56
515.98	2461.66
516.18	2523.10
516.38	2494.43
516.57	2469.85
516.77	2430.94
516.97	2502.62
517.17	2381.79
517.37	2240.48
517.57	2519.00
517.77	2424.80
517.97	2562.01
518.17	2545.63
518.37	2283.49
518.57	2340.83
518.77	2473.95
518.97	2506.71
519.16	2564.06
519.36	2645.98
519.56	2439.13
519.76	2461.66
519.96	2451.42
520.16	2668.50
520.36	2404.32
520.56	2680.79
520.76	2357.21
520.96	2387.93
521.16	2596.82
521.35	2582.49
521.55	2658.26
521.75	2490.33
521.95	2453.47
522.15	2367.45
522.35	2334.68
522.55	2424.80
522.75	2547.67
522.95	2404.32
523.14	2428.89
523.34	2457.56
523.54	2322.40
523.74	2549.72
523.94	2514.91
524.14	2275.29
524.34	2512.86
524.54	2572.25
524.73	2480.09
524.93	2519.00
525.13	2506.71
525.33	2359.26
525.53	2719.70
525.73	2588.63
525.93	2535.39
526.13	2418.65
526.32	2408.41
526.52	2590.68
526.72	2539.48
526.92	2363.36
527.12	2428.89
527.32	2328.54
527.52	2562.01
527.71	2543.58
527.91	2523.10
528.11	2482.14
528.31	2459.61
528.51	2375.64
528.71	2568.15
528.90	2600.92
529.10	2596.82
529.30	2584.54
529.50	2277.34
529.70	2588.63
529.90	2496.47
530.09	2437.08
530.29	2379.74
530.49	2428.89
530.69	2883.54
530.89	2498.52
531.09	2617.30
531.28	2449.37
531.48	2678.74
531.68	2402.27
531.88	2471.90
532.08	2564.06
532.28	2445.27
532.47	2580.44
532.67	2555.86
532.87	2506.71
533.07	2389.98
533.27	2514.91
533.46	2463.71
533.66	2580.44
533.86	2490.33
534.06	2475.99
534.26	2521.05
534.45	2482.14
534.65	2645.98
534.85	2547.67
535.05	2336.73
535.25	2645.98
535.44	2273.25
535.64	2527.19
535.84	2447.32
536.04	2482.14
536.24	2363.36
536.43	2510.81
536.63	2516.95
536.83	2492.38
537.03	2457.56
537.22	2338.78
537.42	2293.72
537.62	2512.86
537.82	2379.74
538.02	2588.63
538.21	2527.19
538.41	2822.10
538.61	2572.25
538.81	2465.75
539.00	2678.74
539.20	2389.98
539.40	2480.09
539.60	2484.19
539.79	2525.15
539.99	2469.85
540.19	2414.56
540.39	2430.94
540.58	2535.39
540.78	2654.17
540.98	2519.00
541.18	2578.39
541.37	2447.32
541.57	2447.32
541.77	2484.19
541.97	2355.16
542.16	2330.59
542.36	2406.36
542.56	2475.99
542.76	2627.54
542.95	2545.63
543.15	2580.44
543.35	2588.63
543.54	2351.07
543.74	2355.16
543.94	2629.59
544.14	2396.12
544.33	2508.76
544.53	2465.75
544.73	2557.91
544.93	2398.17
545.12	2492.38
545.32	2533.34
545.52	2465.75
545.71	2340.83
545.91	2545.63
546.11	2424.80
546.30	2432.99
546.50	2559.96
546.70	2568.15
546.90	2443.23
547.09	2330.59
547.29	2469.85
547.49	2639.83
547.68	2469.85
547.88	2422.75
548.08	2543.58
548.27	2953.17
548.47	2437.08
548.67	2455.51
548.87	2580.44
549.06	2502.62
549.26	2492.38
549.46	2496.47
549.65	2412.51
549.85	2576.34
550.05	2545.63
550.24	2349.02
550.44	2478.04
550.64	2482.14
550.83	2482.14
551.03	2662.36
551.23	2545.63
551.42	2549.72
551.62	2396.12
551.82	2375.64
552.01	2420.70
552.21	2586.58
552.41	2459.61
552.60	2699.22
552.80	2549.72
553.00	2375.64
553.19	2510.81
553.39	2707.41
553.59	2392.03
553.78	2482.14
553.98	2455.51
554.17	2389.98
554.37	2629.59
554.57	2496.47
554.76	2359.26
554.96	2359.26
555.16	2545.63
555.35	2437.08
555.55	2566.10
555.75	2508.76
555.94	2543.58
556.14	2308.06
556.33	2588.63
556.53	2484.19
556.73	2519.00
556.92	2537.43
557.12	2537.43
557.32	2678.74
557.51	2729.94
557.71	2490.33
557.90	2551.77
558.10	2625.50
558.30	2424.80
558.49	2488.28
558.69	2486.23
558.88	2566.10
559.08	2523.10
559.28	2437.08
559.47	2539.48
559.67	2537.43
559.86	2693.08
560.06	2416.60
560.26	2441.18
560.45	2537.43
560.65	2428.89
560.84	2605.02
561.04	2420.70
561.24	2637.78
561.43	2392.03
561.63	2678.74
561.82	2463.71
562.02	2592.73
562.22	2392.03
562.41	2316.25
562.61	2402.27
562.80	2332.64
563.00	2826.20
563.19	2463.71
563.39	2461.66
563.59	2613.21
563.78	2365.40
563.98	2273.25
564.17	2420.70
564.37	2207.71
564.56	2498.52
564.76	2283.49
564.96	2555.86
565.15	2576.34
565.35	2807.77
565.54	2369.50
565.74	2545.63
565.93	2531.29
566.13	2508.76
566.32	2572.25
566.52	2490.33
566.71	2537.43
566.91	2662.36
567.11	2559.96
567.30	2469.85
567.50	2574.30
567.69	2570.20
567.89	2416.60
568.08	2324.44
568.28	2523.10
568.47	2404.32
568.67	2551.77
568.86	2410.46
569.06	2611.16
569.25	2457.56
569.45	2375.64
569.64	2459.61
569.84	2523.10
570.04	2527.19
570.23	2441.18
570.43	2492.38
570.62	2557.91
570.82	2645.98
571.01	2443.23
571.21	2432.99
571.40	2394.08
571.60	2553.82
571.79	2562.01
571.99	2498.52
572.18	2365.40
572.38	2543.58
572.57	2408.41
572.77	2600.92
572.96	2748.37
573.16	2455.51
573.35	2441.18
573.55	2607.06
573.74	2598.87
573.94	2492.38
574.13	2492.38
574.33	2541.53
574.52	2670.55
574.71	2469.85
574.91	2514.91
575.10	2359.26
575.30	2428.89
575.49	2373.60
575.69	2424.80
575.88	2570.20
576.08	2510.81
576.27	2654.17
576.47	2488.28
576.66	2652.12
576.86	2621.40
577.05	2510.81
577.25	2557.91
577.44	2674.65
577.64	2361.31
577.83	2670.55
578.02	2420.70
578.22	2621.40
578.41	2715.61
578.61	2482.14
578.80	2375.64
579.00	2475.99
579.19	2469.85
579.39	2580.44
579.58	2578.39
579.77	2488.28
579.97	2691.03
580.16	2691.03
580.36	2660.31
580.55	2654.17
580.75	2582.49
580.94	2535.39
581.13	2650.07
581.33	2639.83
581.52	2555.86
581.72	2754.52
581.91	2629.59
582.11	2502.62
582.30	2602.97
582.49	2521.05
582.69	2709.46
582.88	2525.15
583.08	2519.00
583.27	2709.46
583.47	2516.95
583.66	2449.37
583.85	2408.41
584.05	2418.65
584.24	2555.86
584.44	2549.72
584.63	2662.36
584.82	2799.57
585.02	2744.28
585.21	2637.78
585.41	2697.17
585.60	2662.36
585.79	2764.76
585.99	2754.52
586.18	2643.93
586.37	3170.26
586.57	5126.07
586.76	14808.86
586.96	34590.19
587.15	48137.51
587.34	57580.69
587.54	62121.04
587.73	56421.54
587.93	39742.88
588.12	30336.56
588.31	24505.99
588.51	21284.54
588.70	19752.66
588.89	17540.85
589.09	15013.66
589.28	12889.92
589.47	10403.68
589.67	7868.30
589.86	6184.87
590.06	4743.10
590.25	3956.68
590.44	3379.15
590.64	3020.75
590.83	2865.11
591.02	2787.29
591.22	2586.58
591.41	2639.83
591.60	2506.71
591.80	2820.05
591.99	2406.36
592.18	2461.66
592.38	2512.86
592.57	2471.90
592.76	2557.91
592.96	2580.44
593.15	2494.43
593.34	2648.02
593.54	2510.81
593.73	2605.02
593.92	2582.49
594.12	2652.12
594.31	2568.15
594.50	2672.60
594.70	2637.78
594.89	2826.20
595.08	2396.12
595.28	2637.78
595.47	2965.46
595.66	2654.17
595.86	2437.08
596.05	2453.47
596.24	2441.18
596.43	2707.41
596.63	2643.93
596.82	2529.24
597.01	2545.63
597.21	2746.33
597.40	2555.86
597.59	2572.25
597.79	2568.15
597.98	2539.48
598.17	2531.29
598.36	2541.53
598.56	2635.74
598.75	2449.37
598.94	2465.75
599.14	2564.06
599.33	2488.28
599.52	2676.70
599.71	2543.58
599.91	2539.48
600.10	2580.44
600.29	2498.52
600.48	2529.24
600.68	2527.19
600.87	2471.90
601.06	2428.89
601.26	2490.33
601.45	2545.63
601.64	2521.05
601.83	2701.27
602.03	2424.80
602.22	2340.83
602.41	2637.78
602.60	2834.39
602.80	2564.06
602.99	2537.43
603.18	2414.56
603.37	2535.39
603.57	2510.81
603.76	2580.44
603.95	2695.13
604.14	2412.51
604.34	2363.36
604.53	2471.90
604.72	2498.52
604.91	2686.94
605.10	2545.63
605.30	2340.83
605.49	2738.13
605.68	2588.63
605.87	2555.86
606.07	2322.40
606.26	2572.25
606.45	2629.59
606.64	2539.48
606.84	2486.23
607.03	2535.39
607.22	2598.87
607.41	2475.99
607.60	2506.71
607.80	2578.39
607.99	2535.39
608.18	2424.80
608.37	2496.47
608.56	2457.56
608.76	2631.64
608.95	2688.98
609.14	2580.44
609.33	2719.70
609.52	2656.22
609.72	2645.98
609.91	2621.40
610.10	2570.20
610.29	2768.85
610.48	2504.67
610.68	2486.23
610.87	2555.86
611.06	2570.20
611.25	2482.14
611.44	2600.92
611.63	2445.27
611.83	2582.49
612.02	2355.16
612.21	2602.97
612.40	2275.29
612.59	2359.26
612.79	2349.02
612.98	2486.23
613.17	2693.08
613.36	2502.62
613.55	2693.08
613.74	2609.11
613.93	2602.97
614.13	2650.07
614.32	2723.80
614.51	2605.02
614.70	2609.11
614.89	2547.67
615.08	2623.45
615.28	3018.71
615.47	2400.22
615.66	2609.11
615.85	2547.67
616.04	2680.79
616.23	2543.58
616.42	2535.39
616.62	2529.24
616.81	2459.61
617.00	2484.19
617.19	2570.20
617.38	2389.98
617.57	2473.95
617.76	2555.86
617.95	2545.63
618.15	2592.73
618.34	2676.70
618.53	2342.88
618.72	2572.25
618.91	2572.25
619.10	2576.34
619.29	2504.67
619.48	2506.71
619.68	2303.96
619.87	2523.10
620.06	2379.74
620.25	2568.15
620.44	2478.04
620.63	2422.75
620.82	2459.61
621.01	2551.77
621.20	2533.34
621.39	2488.28
621.59	2545.63
621.78	2523.10
621.97	2514.91
622.16	2559.96
622.35	2514.91
622.54	2666.46
622.73	2514.91
622.92	2349.02
623.11	2660.31
623.30	2432.99
623.49	2498.52
623.68	2318.30
623.88	2670.55
624.07	2500.57
624.26	2365.40
624.45	2527.19
624.64	2473.95
624.83	2498.52
625.02	2402.27
625.21	2494.43
625.40	2570.20
625.59	2625.50
625.78	2490.33
625.97	2699.22
626.16	2637.78
626.35	2617.30
626.54	2549.72
626.74	2693.08
626.93	2553.82
627.12	2547.67
627.31	2553.82
627.50	2480.09
627.69	2602.97
627.88	2439.13
628.07	2383.84
628.26	2324.44
628.45	2349.02
628.64	2383.84
628.83	2496.47
629.02	2367.45
629.21	2600.92
629.40	2484.19
629.59	2459.61
629.78	2461.66
629.97	2564.06
630.16	2525.15
630.35	2461.66
630.54	2424.80
630.73	2441.18
630.92	2531.29
631.11	2306.01
631.30	2568.15
631.49	2596.82
631.68	2537.43
631.87	2537.43
632.06	2400.22
632.25	2777.05
632.44	2519.00
632.63	2584.54
632.82	2463.71
633.01	2545.63
633.20	2584.54
633.39	2523.10
633.58	2371.55
633.77	2564.06
633.96	2576.34
634.15	2643.93
634.34	2527.19
634.53	2635.74
634.72	2504.67
634.91	2330.59
635.10	2504.67
635.29	2576.34
635.48	2484.19
635.67	2318.30
635.86	2334.68
636.05	2674.65
636.24	2510.81
636.43	2562.01
636.62	2467.80
636.81	2226.14
637.00	2432.99
637.19	2568.15
637.38	2494.43
637.57	2471.90
637.76	2494.43
637.95	2582.49
638.14	2478.04
638.33	2613.21
638.52	2602.97
638.71	2428.89
638.89	2332.64
639.08	2832.34
639.27	2635.74
639.46	2725.85
639.65	3117.01
639.84	3176.40
640.03	3385.29
640.22	3143.63
640.41	3127.25
640.60	2772.95
640.79	2842.58
640.98	2707.41
641.17	2777.05
641.36	2715.61
641.55	2707.41
641.74	2400.22
641.92	2361.31
642.11	2467.80
642.30	2473.95
642.49	2371.55
642.68	2510.81
642.87	2496.47
643.06	2529.24
643.25	2486.23
643.44	2373.60
643.63	2492.38
643.82	2559.96
644.00	2310.11
644.19	2527.19
644.38	2432.99
644.57	2570.20
644.76	2514.91
644.95	2410.46
645.14	2467.80
645.33	2418.65
645.52	2498.52
645.71	2338.78
645.89	2355.16
646.08	2441.18
646.27	2494.43
646.46	2693.08
646.65	2326.49
646.84	2473.95
647.03	2375.64
647.22	2619.35
647.40	2500.57
647.59	2437.08
647.78	2367.45
647.97	2349.02
648.16	2332.64
648.35	2625.50
648.54	2529.24
648.73	2428.89
648.91	2494.43
649.10	2531.29
649.29	2396.12
649.48	2447.32
649.67	2570.20
649.86	2596.82
650.05	2490.33
650.23	2693.08
650.42	2553.82
650.61	2736.09
650.80	2736.09
650.99	2734.04
651.18	2629.59
651.36	2676.70
651.55	2486.23
651.74	2631.64
651.93	2553.82
652.12	2461.66
652.31	2432.99
652.49	2441.18
652.68	2465.75
652.87	2637.78
653.06	2531.29
653.25	2602.97
653.44	2521.05
653.62	2734.04
653.81	2473.95
654.00	2461.66
654.19	2545.63
654.38	2858.96
654.56	2566.10
654.75	2492.38
654.94	2527.19
655.13	2535.39
655.32	2469.85
655.51	2566.10
655.69	2430.94
655.88	2572.25
656.07	2326.49
656.26	2455.51
656.45	2392.03
656.63	2506.71
656.82	2514.91
657.01	2654.17
657.20	2371.55
657.38	2625.50
657.57	2451.42
657.76	2322.40
657.95	2549.72
658.14	2357.21
658.32	2475.99
658.51	2281.44
658.70	2619.35
658.89	2535.39
659.08	2469.85
659.26	2623.45
659.45	2469.85
659.64	2539.48
659.83	2461.66
660.01	2869.20
660.20	2531.29
660.39	2752.47
660.58	2316.25
660.76	2473.95
660.95	2293.72
661.14	2486.23
661.33	2371.55
661.51	2412.51
661.70	2416.60
661.89	2555.86
662.08	2467.80
662.26	2389.98
662.45	2308.06
662.64	2740.18
662.83	2521.05
663.01	2353.12
663.20	2381.79
663.39	2645.98
663.58	2338.78
663.76	2363.36
663.95	2582.49
664.14	2342.88
664.32	2402.27
664.51	2371.55
664.70	2359.26
664.89	2510.81
665.07	2342.88
665.26	2633.69
665.45	2334.68
665.64	2537.43
665.82	2498.52
666.01	2512.86
666.20	2357.21
666.38	2615.26
666.57	2654.17
666.76	3889.09
666.95	9723.76
667.13	17759.98
667.32	22791.84
667.51	26150.51
667.69	27856.47
667.88	24725.13
668.07	17428.21
668.25	14266.15
668.44	12025.67
668.63	10370.91
668.81	9195.38
669.00	7974.79
669.19	7004.05
669.38	6162.34
669.56	5263.28
669.75	4374.46
669.94	3817.41
670.12	3194.83
670.31	3020.75
670.50	2846.68
670.68	2686.94
670.87	2674.65
671.06	2441.18
671.24	2535.39
671.43	2703.32
671.62	2605.02
671.80	2453.47
671.99	2617.30
672.18	2596.82
672.36	2645.98
672.55	2584.54
672.74	2531.29
672.92	2457.56
673.11	2600.92
673.29	2418.65
673.48	2547.67
673.67	2478.04
673.85	2605.02
674.04	2369.50
674.23	2580.44
674.41	2715.61
674.60	2361.31
674.79	2224.09
674.97	2387.93
675.16	2559.96
675.34	2539.48
675.53	2396.12
675.72	2566.10
675.90	2777.05
676.09	2430.94
676.28	2445.27
676.46	2281.44
676.65	2588.63
676.83	2418.65
677.02	2449.37
677.21	2473.95
677.39	2506.71
677.58	2416.60
677.77	2365.40
677.95	2338.78
678.14	2439.13
678.32	2437.08
678.51	2435.03
678.70	2674.65
678.88	2400.22
679.07	2562.01
679.25	2430.94
679.44	2377.69
679.63	2363.36
679.81	2543.58
680.00	2650.07
680.18	2482.14
680.37	2637.78
680.55	2498.52
680.74	2334.68
680.93	2256.86
681.11	2473.95
681.30	2443.23
681.48	2478.04
681.67	2449.37
681.85	2504.67
682.04	2351.07
682.23	2469.85
682.41	2496.47
682.60	2465.75
682.78	2480.09
682.97	2365.40
683.15	2408.41
683.34	2523.10
683.53	2625.50
683.71	2297.82
683.90	2641.88
684.08	2662.36
684.27	2512.86
684.45	2559.96
684.64	2553.82
684.82	2523.10
685.01	2478.04
685.19	2437.08
685.38	2619.35
685.57	2512.86
685.75	2330.59
685.94	2420.70
686.12	2392.03
686.31	2432.99
686.49	2682.84
686.68	2260.96
686.86	2467.80
687.05	2494.43
687.23	2662.36
687.42	2430.94
687.60	2228.19
687.79	2652.12
687.97	2672.60
688.16	2621.40
688.34	2555.86
688.53	2244.57
688.71	2570.20
688.90	2621.40
689.08	2381.79
689.27	2326.49
689.45	2543.58
689.64	2523.10
689.82	2543.58
690.01	2494.43
690.19	2504.67
690.38	2473.95
690.56	2570.20
690.75	2400.22
690.93	2418.65
691.12	2396.12
691.30	2473.95
691.49	2416.60
691.67	2543.58
691.86	2662.36
692.04	2396.12
692.23	2430.94
692.41	2414.56
692.60	2856.92
692.78	2619.35
692.97	2531.29
693.15	2568.15
693.34	2734.04
693.52	2592.73
693.71	2449.37
693.89	2437.08
694.08	2322.40
694.26	2541.53
694.44	2586.58
694.63	2533.34
694.81	2396.12
695.00	2392.03
695.18	2652.12
695.37	2828.24
695.55	2504.67
695.74	2484.19
695.92	2428.89
696.10	2715.61
696.29	2263.01
696.47	2416.60
696.66	2375.64
696.84	2408.41
697.03	2396.12
697.21	2748.37
697.40	3633.10
697.58	2576.34
697.76	2379.74
697.95	2398.17
698.13	2355.16
698.32	2447.32
698.50	2547.67
698.68	2527.19
698.87	2570.20
699.05	2691.03
699.24	2463.71
699.42	2344.92
699.61	2602.97
699.79	2519.00
699.97	2381.79
700.16	2310.11
700.34	2291.68
700.53	2523.10
700.71	2648.02
700.89	2547.67
701.08	2494.43
701.26	2473.95
701.45	2924.50
701.63	2467.80
701.81	2437.08
702.00	2318.30
702.18	2514.91
702.37	2480.09
702.55	2918.36
702.73	2660.31
702.92	2697.17
703.10	2754.52
703.28	2731.99
703.47	2523.10
703.65	2711.51
703.84	2686.94
704.02	2486.23
704.20	2658.26
704.39	2408.41
704.57	2469.85
704.75	2625.50
704.94	2717.65
705.12	2568.15
705.30	2869.20
705.49	5470.12
705.67	12758.85
705.86	20682.44
706.04	24579.72
706.22	27326.05
706.41	27856.47
706.59	22509.22
706.77	16367.37
706.96	14004.01
707.14	12242.76
707.32	10471.26
707.51	9254.77
707.69	7548.81
707.87	6117.28
708.06	4960.18
708.24	4040.64
708.42	3405.77
708.61	3301.33
708.79	2662.36
708.97	2695.13
709.16	2682.84
709.34	2592.73
709.52	2469.85
709.71	2521.05
709.89	2615.26
710.07	2482.14
710.26	2355.16
710.44	2385.88
710.62	2625.50
710.80	2539.48
710.99	2504.67
711.17	2564.06
711.35	2392.03
711.54	2416.60
711.72	2670.55
711.90	2572.25
712.09	2512.86
712.27	2478.04
712.45	2531.29
712.63	2383.84
712.82	2508.76
713.00	2514.91
713.18	2543.58
713.37	2600.92
713.55	2521.05
713.73	2539.48
713.91	2572.25
714.10	2412.51
714.28	2478.04
714.46	2523.10
714.65	2484.19
714.83	2539.48
715.01	2465.75
715.19	2506.71
715.38	2432.99
715.56	2547.67
715.74	2367.45
715.92	2332.64
716.11	2664.41
716.29	2252.77
716.47	2490.33
716.65	2527.19
716.84	2359.26
717.02	2547.67
717.20	2283.49
717.38	2408.41
717.57	2521.05
717.75	2437.08
717.93	2512.86
718.11	2600.92
718.30	2322.40
718.48	2547.67
718.66	2553.82
718.84	2662.36
719.03	2426.84
719.21	2324.44
719.39	2668.50
719.57	2519.00
719.75	2619.35
719.94	2424.80
720.12	2406.36
720.30	2494.43
720.48	2566.10
720.67	2424.80
720.85	2385.88
721.03	2396.12
721.21	2385.88
721.39	2566.10
721.58	2527.19
721.76	2449.37
721.94	2523.10
722.12	2506.71
722.30	2674.65
722.49	2383.84
722.67	2463.71
722.85	2447.32
723.03	2332.64
723.21	2373.60
723.40	2523.10
723.58	2629.59
723.76	2578.39
723.94	2727.89
724.12	2459.61
724.30	2691.03
724.49	2586.58
724.67	2424.80
724.85	2648.02
725.03	2342.88
725.21	2625.50
725.40	2629.59
725.58	2439.13
725.76	2590.68
725.94	2490.33
726.12	2396.12
726.30	2449.37
726.49	2465.75
726.67	2488.28
726.85	2502.62
727.03	2887.64
727.21	4083.65
727.39	5857.19
727.57	6598.56
727.76	7143.32
727.94	7614.35
728.12	6875.03
728.30	5554.09
728.48	4976.56
728.66	4476.86
728.84	4134.85
729.03	3497.93
729.21	3319.76
729.39	2922.45
729.57	2723.80
729.75	2668.50
729.93	2600.92
730.11	2461.66
730.30	2478.04
730.48	2531.29
730.66	2586.58
730.84	2574.30
731.02	2531.29
731.20	2394.08
731.38	2502.62
731.56	2383.84
731.74	2357.21
731.93	2488.28
732.11	2471.90
732.29	2379.74
732.47	2572.25
732.65	2428.89
732.83	2662.36
733.01	2543.58
733.19	2449.37
733.37	2512.86
733.56	2465.75
733.74	2389.98
733.92	2627.54
734.10	2306.01
734.28	2576.34
734.46	2295.77
734.64	2465.75
734.82	2420.70
735.00	2432.99
735.18	2334.68
735.36	2516.95
735.54	2576.34
735.73	2496.47
735.91	2482.14
736.09	2580.44
736.27	2408.41
736.45	2568.15
736.63	2295.77
736.81	2383.84
736.99	2666.46
737.17	2574.30
737.35	2414.56
737.53	2486.23
737.71	2463.71
737.89	2629.59
738.07	2418.65
738.25	2379.74
738.43	2353.12
738.61	2469.85
738.80	2297.82
738.98	2342.88
739.16	2430.94
739.34	2373.60
739.52	2656.22
739.70	2342.88
739.88	2519.00
740.06	2559.96
740.24	2240.48
740.42	2588.63
740.60	2322.40
740.78	2387.93
740.96	2297.82
741.14	2441.18
741.32	2521.05
741.50	2314.20
741.68	2731.99
741.86	2656.22
742.04	2328.54
742.22	2353.12
742.40	2469.85
742.58	2525.15
742.76	2406.36
742.94	2564.06
743.12	2285.53
743.30	2498.52
743.48	2547.67
743.66	2424.80
743.84	2506.71
744.02	2467.80
744.20	2441.18
744.38	2367.45
744.56	2385.88
744.74	2713.56
744.92	2580.44
745.10	2643.93
745.28	2475.99
745.46	2633.69
745.64	2439.13
745.82	2576.34
746.00	2420.70
746.18	2539.48
746.36	2338.78
746.54	2455.51
746.72	2445.27
746.90	2367.45
747.08	2619.35
747.26	2414.56
747.44	2512.86
747.62	2613.21
747.80	2449.37
747.98	2523.10
748.15	2422.75
748.33	2740.18
748.51	2545.63
748.69	2580.44
748.87	2367.45
749.05	2512.86
749.23	2508.76
749.41	2445.27
749.59	2457.56
749.77	2619.35
749.95	2422.75
750.13	2396.12
750.31	2424.80
750.49	2410.46
750.67	2568.15
750.85	2658.26
751.03	2570.20
751.20	2742.23
751.38	2418.65
751.56	2475.99
751.74	2435.03
751.92	2437.08
752.10	2383.84
752.28	2508.76
752.46	2375.64
752.64	2480.09
752.82	2396.12
753.00	2588.63
753.18	2412.51
753.35	2402.27
753.53	2475.99
753.71	2435.03
753.89	2531.29
754.07	2607.06
754.25	2643.93
754.43	2441.18
754.61	2244.57
754.79	2545.63
754.97	2414.56
755.14	2660.31
755.32	2373.60
755.50	2586.58
755.68	2588.63
755.86	2408.41
756.04	2408.41
756.22	2306.01
756.40	2615.26
756.57	2664.41
756.75	2381.79
756.93	2576.34
757.11	2598.87
757.29	2344.92
757.47	2367.45
757.65	2281.44
757.82	2293.72
758.00	2398.17
758.18	2439.13
758.36	2422.75
758.54	2654.17
758.72	2375.64
758.90	2549.72
759.07	2545.63
759.25	2383.84
759.43	2498.52
759.61	2363.36
759.79	3497.93
759.97	2523.10
760.15	2392.03
760.32	2437.08
760.50	2539.48
760.68	2643.93
760.86	2340.83
761.04	2629.59
761.22	2572.25
761.39	2537.43
761.57	2510.81
761.75	2432.99
761.93	2488.28
762.11	2568.15
762.28	2496.47
762.46	2342.88
762.64	2586.58
762.82	2322.40
763.00	2379.74
763.18	2605.02
763.35	2328.54
763.53	2590.68
763.71	2387.93
763.89	2498.52
764.07	2506.71
764.24	2551.77
764.42	2525.15
764.60	2439.13
764.78	2568.15
764.96	2594.78
765.13	2469.85
765.31	2400.22
765.49	2592.73
765.67	2373.60
765.84	2478.04
766.02	2371.55
766.20	2293.72
766.38	2463.71
766.56	2500.57
766.73	2490.33
766.91	2478.04
767.09	2447.32
767.27	2547.67
767.44	2297.82
767.62	2504.67
767.80	2537.43
767.98	2324.44
768.15	2353.12
768.33	2592.73
768.51	2527.19
768.69	2498.52
768.87	2539.48
769.04	2461.66
769.22	2746.33
769.40	2645.98
769.58	2662.36
769.75	2494.43
769.93	2617.30
770.11	2389.98
770.28	2365.40
770.46	2545.63
770.64	2504.67
770.82	2449.37
770.99	2381.79
771.17	2578.39
771.35	2473.95
771.53	2410.46
771.70	2432.99
771.88	2582.49
772.06	2430.94
772.23	2494.43
772.41	2375.64
772.59	2521.05
772.77	2312.16
772.94	2449.37
773.12	2504.67
773.30	2351.07
773.47	2512.86
773.65	2328.54
773.83	2623.45
774.01	2529.24
774.18	2228.19
774.36	2488.28
774.54	2385.88
774.71	2490.33
774.89	2244.57
775.07	2334.68
775.24	2416.60
775.42	2361.31
775.60	2723.80
775.78	2355.16
775.95	2355.16
776.13	2326.49
776.31	2279.39
776.48	2416.60
776.66	2676.70
776.84	2490.33
777.01	2381.79
777.19	2353.12
777.37	2414.56
777.54	2500.57
777.72	2805.72
777.90	2590.68
778.07	2338.78
778.25	2826.20
778.43	2498.52
778.60	2369.50
778.78	2521.05
778.96	2648.02
779.13	2408.41
779.31	2559.96
779.49	2502.62
779.66	2549.72
779.84	2506.71
780.01	2469.85
780.19	2365.40
780.37	2619.35
780.54	2529.24
780.72	2404.32
780.90	2437.08
781.07	2416.60
781.25	2418.65
781.43	2547.67
781.60	2451.42
781.78	2572.25
781.95	2471.90
782.13	2430.94
782.31	2494.43
782.48	2299.87
782.66	2510.81
782.83	2633.69
783.01	2475.99
783.19	2611.16
783.36	2447.32
783.54	2289.63
783.72	2586.58
783.89	2416.60
784.07	2488.28
784.24	2455.51
784.42	2674.65
784.60	2480.09
784.77	2572.25
784.95	2322.40
785.12	2400.22
785.30	2519.00
785.47	2432.99
785.65	2359.26
785.83	2439.13
786.00	2336.73
786.18	2521.05
786.35	2351.07
786.53	2353.12
786.71	2611.16
786.88	2631.64
787.06	2514.91
787.23	2502.62
787.41	2420.70
787.58	2473.95
787.76	2334.68
787.94	2439.13
788.11	2494.43
788.29	2340.83
788.46	2387.93
788.64	2265.05
788.81	2422.75
788.99	2340.83
789.16	2363.36
789.34	2381.79
789.52	2432.99
789.69	2459.61
789.87	2250.72
790.04	2412.51
790.22	2465.75
790.39	2668.50
790.57	2293.72
790.74	2365.40
790.92	2523.10
791.09	2326.49
791.27	2490.33
791.44	2562.01
791.62	2490.33
791.79	2564.06
791.97	2488.28
792.15	2729.94
792.32	2525.15
792.50	2572.25
792.67	2637.78
792.85	2744.28
793.02	2502.62
793.20	2428.89
793.37	2336.73
793.55	2449.37
793.72	2385.88
793.90	2551.77
794.07	2326.49
794.25	2330.59
794.42	2396.12
794.60	2463.71
794.77	2543.58
794.95	2514.91
795.12	2527.19
795.30	2406.36
795.47	2275.29
795.65	2748.37
795.82	2498.52
796.00	2428.89
796.17	2392.03
796.34	2465.75
796.52	2504.67
796.69	2617.30
796.87	2580.44
797.04	2439.13
797.22	2549.72
797.39	2533.34
797.57	2539.48
797.74	2408.41
797.92	2512.86
798.09	2465.75
798.27	2580.44
798.44	2441.18
798.62	2375.64
798.79	2519.00
798.96	2488.28
799.14	2428.89
799.31	2801.62
799.49	2494.43
799.66	2416.60
799.84	2523.10
800.01	2246.62
800.19	2545.63
800.36	2273.25
800.53	2475.99
800.71	2547.67
800.88	2674.65
801.06	2334.68
801.23	2349.02
801.41	2420.70
801.58	2396.12
801.75	2342.88
801.93	2451.42
802.10	2531.29
802.28	2449.37
802.45	2338.78
802.63	2529.24
802.80	2637.78
802.97	2435.03
803.15	2439.13
803.32	2359.26
803.50	2351.07
803.67	2279.39
803.84	2359.26
804.02	2537.43
804.19	2432.99
804.37	2197.47
804.54	2310.11
804.71	2373.60
804.89	2484.19
805.06	2334.68
805.24	2342.88
805.41	2359.26
805.58	2365.40
805.76	2748.37
805.93	2496.47
806.10	2574.30
806.28	2572.25
806.45	2506.71
806.63	2459.61
806.80	2523.10
806.97	2465.75
807.15	2494.43
807.32	2473.95
807.49	2531.29
807.67	2293.72
807.84	2580.44
808.01	2260.96
808.19	2627.54
808.36	2750.42
808.54	2392.03
808.71	2322.40
808.88	2447.32
809.06	2527.19
809.23	2674.65
809.40	2383.84
809.58	2535.39
809.75	2432.99
809.92	2351.07
810.10	2637.78
810.27	2408.41
810.44	2496.47
810.62	2531.29
810.79	2529.24
810.96	2361.31
811.14	2400.22
811.31	2549.72
811.48	2523.10
811.66	2480.09
811.83	2648.02
812.00	2521.05
812.18	2629.59
812.35	2686.94
812.52	2406.36
812.69	2428.89
812.87	2396.12
813.04	2375.64
813.21	2463.71
813.39	2408.41
813.56	2367.45
813.73	2635.74
813.91	2445.27
814.08	2504.67
814.25	2453.47
814.42	2351.07
814.60	2510.81
814.77	2453.47
814.94	2521.05
815.12	2568.15
815.29	2670.55
815.46	2326.49
815.63	2459.61
815.81	2441.18
815.98	2496.47
816.15	2439.13
816.33	2398.17
816.50	2412.51
816.67	2527.19
816.84	2420.70
817.02	2367.45
817.19	2449.37
817.36	2551.77
817.53	2467.80
817.71	2367.45
817.88	2512.86
818.05	2504.67
818.22	2447.32
818.40	2641.88
818.57	2330.59
818.74	2500.57
818.91	2498.52
819.09	2568.15
819.26	2633.69
819.43	2443.23
819.60	2426.84
819.78	2490.33
819.95	2566.10
820.12	2406.36
820.29	2674.65
820.47	2625.50
820.64	2342.88
820.81	2383.84
820.98	2402.27
821.15	2416.60
821.33	2459.61
821.50	2267.10
821.67	2506.71
821.84	2432.99
822.02	2494.43
822.19	2605.02
822.36	2439.13
822.53	2367.45
822.70	2355.16
822.88	2443.23
823.05	2684.89
823.22	2453.47
823.39	2504.67
823.56	2437.08
823.74	2678.74
823.91	2293.72
824.08	2295.77
824.25	2398.17
824.42	2672.60
824.60	2361.31
824.77	2519.00
824.94	2471.90
825.11	2543.58
825.28	2318.30
825.45	2592.73
825.63	2510.81
825.80	2385.88
825.97	2424.80
826.14	2371.55
826.31	2242.53
826.48	2516.95
826.66	2439.13
826.83	2406.36
827.00	2426.84
827.17	2392.03
827.34	2437.08
827.51	2459.61
827.69	2527.19
827.86	2322.40
828.03	2490.33
828.20	2398.17
828.37	2447.32
828.54	2566.10
828.71	2281.44
828.89	2598.87
829.06	2424.80
829.23	2613.21
829.40	2344.92
829.57	2396.12
829.74	2514.91
829.91	2416.60
830.09	2353.12
830.26	2480.09
830.43	2637.78
830.60	2449.37
830.77	2506.71
830.94	2605.02
831.11	2582.49
831.28	2463.71
831.46	2494.43
831.63	2371.55
831.80	2594.78
831.97	2400.22
832.14	2455.51
832.31	2439.13
832.48	2463.71
832.65	2605.02
832.82	2408.41
832.99	2580.44
833.17	2410.46
833.34	2635.74
833.51	2519.00
833.68	2310.11
833.85	2500.57
834.02	2357.21
834.19	2414.56
834.36	2363.36
834.53	2457.56
834.70	2549.72
834.87	2525.15
835.04	2375.64
835.22	2408.41
835.39	2445.27
835.56	2291.68
835.73	2318.30
835.90	2617.30
836.07	2371.55
836.24	2437.08
836.41	2375.64
836.58	2373.60
836.75	2617.30
836.92	2396.12
837.09	2342.88
837.26	2559.96
837.43	2570.20
837.60	2490.33
837.77	2365.40
837.94	2609.11
838.12	2680.79
838.29	2373.60
838.46	2263.01
838.63	2279.39
838.80	2723.80
838.97	2404.32
839.14	2469.85
839.31	2490.33
839.48	2564.06
839.65	2379.74
839.82	2375.64
839.99	2480.09
840.16	2523.10
840.33	2308.06
840.50	2406.36
840.67	2342.88
840.84	2242.53
841.01	2406.36
841.18	2322.40
841.35	2437.08
841.52	2527.19
841.69	2645.98
841.86	2334.68
842.03	2465.75
842.20	2582.49
842.37	2371.55
842.54	2443.23
842.71	2498.52
842.88	2351.07
843.05	2414.56
843.22	2463.71
843.39	2564.06
843.56	2445.27
843.73	2383.84
843.90	2492.38
844.07	2359.26
844.24	2559.96
844.41	2428.89
844.58	2502.62
844.75	2471.90
844.92	2574.30
845.09	2410.46
845.26	2324.44
845.43	2545.63
845.60	2432.99
845.77	2455.51
845.94	2394.08
846.10	2619.35
846.27	2414.56
846.44	2287.58
846.61	2275.29
846.78	2594.78
846.95	2643.93
847.12	2412.51
847.29	2471.90
847.46	2400.22
847.63	2588.63
847.80	2373.60
847.97	2363.36
848.14	2727.89
848.31	2406.36
848.48	2244.57
848.65	2455.51
848.82	2508.76
848.98	2803.67
849.15	2430.94
849.32	2543.58
849.49	2621.40
849.66	2500.57
849.83	2408.41
850.00	2240.48
850.17	2519.00
850.34	2416.60
850.51	2420.70
850.68	2387.93
850.85	2770.90
851.01	2486.23
851.18	2363.36
851.35	2277.34
851.52	2523.10
851.69	2611.16
851.86	2228.19
852.03	2451.42
852.20	2533.34
852.37	2428.89
852.53	2310.11
852.70	2381.79
852.87	2486.23
853.04	2473.95
853.21	2504.67
853.38	2605.02
853.55	2574.30
853.72	2658.26
853.89	2306.01
854.05	2289.63
854.22	2424.80
854.39	2486.23
854.56	2422.75
854.73	2527.19
854.90	2447.32
855.07	2416.60
855.23	2330.59
855.40	2373.60
855.57	2359.26
855.74	2258.91
855.91	2551.77
856.08	2297.82
856.25	2314.20
856.41	2455.51
856.58	2332.64
856.75	2449.37
856.92	2340.83
857.09	2551.77
857.26	2234.33
857.42	2373.60
857.59	2621.40
857.76	2381.79
857.93	2373.60
858.10	2574.30
858.27	2344.92
858.43	2480.09
858.60	2349.02
858.77	2291.68
858.94	2408.41
859.11	2525.15
859.27	2373.60
859.44	2408.41
859.61	2658.26
859.78	2525.15
859.95	2301.92
860.12	2291.68
860.28	2699.22
860.45	2723.80
860.62	2359.26
860.79	2461.66
860.95	2443.23
861.12	2385.88
861.29	2342.88
861.46	2250.72
861.63	2465.75
861.79	2500.57
861.96	2349.02
862.13	2379.74
862.30	2586.58
862.47	2363.36
862.63	2326.49
862.80	2422.75
862.97	2580.44
863.14	2572.25
863.30	2406.36
863.47	2346.97
863.64	2611.16
863.81	2492.38
863.97	2357.21
864.14	2379.74
864.31	2367.45
864.48	2416.60
864.65	2443.23
864.81	2557.91
864.98	2543.58
865.15	2578.39
865.32	2441.18
865.48	2439.13
865.65	2674.65
865.82	2430.94
865.98	2473.95
866.15	2392.03
866.32	2404.32
866.49	2406.36
866.65	2492.38
866.82	2414.56
866.99	2406.36
867.16	2402.27
867.32	2336.73
867.49	2359.26
867.66	2439.13
867.83	2400.22
867.99	2310.11
868.16	2379.74
868.33	2310.11
868.49	2392.03
868.66	2371.55
868.83	2504.67
868.99	2535.39
869.16	2504.67
869.33	2439.13
869.50	2463.71
869.66	2480.09
869.83	2564.06
870.00	2277.34
870.16	2471.90
870.33	2455.51
870.50	2545.63
870.66	2430.94
870.83	2445.27
871.00	2420.70
871.17	2523.10
871.33	2482.14
871.50	2353.12
871.67	2445.27
871.83	2412.51
872.00	2568.15
872.17	2342.88
872.33	2779.09
872.50	2521.05
872.67	2359.26
872.83	2285.53
873.00	2490.33
873.17	2467.80
873.33	2465.75
873.50	2445.27
873.67	2367.45
873.83	2400.22
874.00	2314.20
874.16	2486.23
874.33	2475.99
874.50	2342.88
874.66	2363.36
874.83	2404.32
875.00	2572.25
875.16	2643.93
875.33	2400.22
875.50	2195.42
875.66	2412.51
875.83	2383.84
875.99	2465.75
876.16	2492.38
876.33	2381.79
876.49	2441.18
876.66	2463.71
876.83	2428.89
876.99	2285.53
877.16	2475.99
877.32	2375.64
877.49	2324.44
877.66	2555.86
877.82	2664.41
877.99	2416.60
878.15	2521.05
878.32	2529.24
878.49	2510.81
878.65	2326.49
878.82	2582.49
878.98	2412.51
879.15	2551.77
879.32	2490.33
879.48	2473.95
879.65	2342.88
879.81	2451.42
879.98	2373.60
880.15	2445.27
880.31	2611.16
880.48	2289.63
880.64	2531.29
880.81	2498.52
880.97	2693.08
881.14	2605.02
881.31	2320.35
881.47	2592.73
881.64	2490.33
881.80	2389.98
881.97	2478.04
882.13	2396.12
882.30	2295.77
882.47	2400.22
882.63	2392.03
882.80	2334.68
882.96	2496.47
883.13	2600.92
883.29	2482.14
883.46	2463.71
883.62	2789.33
883.79	2449.37
883.95	2562.01
884.12	2308.06
884.29	2613.21
884.45	2535.39
884.62	2492.38
884.78	2285.53
884.95	2635.74
885.11	2453.47
885.28	2465.75
885.44	2418.65
885.61	2537.43
885.77	2633.69
885.94	2490.33
886.10	2396.12
886.27	2525.15
886.43	2709.46
886.60	2500.57
886.76	2306.01
886.93	2396.12
887.09	2500.57
887.26	2201.57
887.42	2490.33
887.59	2674.65
887.75	2717.65
887.92	2494.43
888.08	2488.28
888.25	2691.03
888.41	2521.05
888.58	2449.37
888.74	2285.53
888.91	2428.89
>>>>>End Processed Spectral Data<<<<<
