SpectraSuite Data File
++++++++++++++++++++++++++++++++++++
Date: Thu May 05 14:42:20 CEST 2016
User: root
Dark Spectrum Present: No
Reference Spectrum Present: No
Number of Sampled Component Spectra: 1
Spectrometers: USB4C02835
Integration Time (usec): 100000 (USB4C02835)
Spectra Averaged: 1 (USB4C02835)
Boxcar Smoothing: 0 (USB4C02835)
Correct for Electrical Dark: No (USB4C02835)
Strobe/Lamp Enabled: No (USB4C02835)
Correct for Detector Non-linearity: No (USB4C02835)
Correct for Stray Light: No (USB4C02835)
Number of Pixels in Processed Spectrum: 3648
>>>>>Begin Processed Spectral Data<<<<<
177.47	1892.32
177.69	1892.32
177.91	1892.32
178.13	1906.66
178.36	1869.80
178.58	2410.46
178.80	2488.28
179.02	2293.72
179.24	2365.40
179.46	2299.87
179.68	2420.70
179.90	2469.85
180.13	2404.32
180.35	2316.25
180.57	2250.72
180.79	2555.86
181.01	2459.61
181.23	2338.78
181.45	2445.27
181.67	2613.21
181.90	2547.67
182.12	2326.49
182.34	2242.53
182.56	2506.71
182.78	2596.82
183.00	2320.35
183.22	2355.16
183.44	2293.72
183.66	2793.43
183.89	2504.67
184.11	2375.64
184.33	2611.16
184.55	2668.50
184.77	2385.88
184.99	2332.64
185.21	2408.41
185.43	2740.18
185.65	2355.16
185.87	2389.98
186.10	2748.37
186.32	2725.85
186.54	2351.07
186.76	2443.23
186.98	2580.44
187.20	2445.27
187.42	2289.63
187.64	2416.60
187.86	2557.91
188.08	2652.12
188.30	2277.34
188.52	2361.31
188.75	2584.54
188.97	2658.26
189.19	2322.40
189.41	2371.55
189.63	2568.15
189.85	2441.18
190.07	2215.90
190.29	2215.90
190.51	2449.37
190.73	2297.82
190.95	2469.85
191.17	2392.03
191.39	2351.07
191.61	2445.27
191.84	2373.60
192.06	2453.47
192.28	2289.63
192.50	2899.92
192.72	2514.91
192.94	2437.08
193.16	2609.11
193.38	2480.09
193.60	2260.96
193.82	2365.40
194.04	2607.06
194.26	2588.63
194.48	2455.51
194.70	2318.30
194.92	2424.80
195.14	2564.06
195.36	2330.59
195.58	2406.36
195.80	2447.32
196.02	2373.60
196.24	2367.45
196.46	2408.41
196.69	2314.20
196.91	2854.87
197.13	2283.49
197.35	2375.64
197.57	2627.54
197.79	2545.63
198.01	2447.32
198.23	2336.73
198.45	2537.43
198.67	2359.26
198.89	2332.64
199.11	2430.94
199.33	2371.55
199.55	2246.62
199.77	2355.16
199.99	2539.48
200.21	2371.55
200.43	2539.48
200.65	2295.77
200.87	2201.57
201.09	2445.27
201.31	2488.28
201.53	2387.93
201.75	2383.84
201.97	2570.20
202.19	2514.91
202.41	2379.74
202.63	2559.96
202.85	2586.58
203.07	2519.00
203.29	2285.53
203.51	2236.38
203.73	2424.80
203.95	2777.05
204.17	2353.12
204.39	2455.51
204.61	2498.52
204.83	2445.27
205.05	2473.95
205.27	2355.16
205.49	2711.51
205.71	2424.80
205.93	2279.39
206.15	2267.10
206.37	2500.57
206.59	2432.99
206.81	2277.34
207.03	2316.25
207.25	2379.74
207.47	2555.86
207.69	2398.17
207.91	2439.13
208.13	2654.17
208.34	2351.07
208.56	2324.44
208.78	2420.70
209.00	2408.41
209.22	2494.43
209.44	2330.59
209.66	2326.49
209.88	2523.10
210.10	2428.89
210.32	2283.49
210.54	2449.37
210.76	2473.95
210.98	2658.26
211.20	2226.14
211.42	2486.23
211.64	2627.54
211.86	2564.06
212.08	2398.17
212.30	2383.84
212.52	2404.32
212.74	2572.25
212.96	2375.64
213.17	2412.51
213.39	2512.86
213.61	2682.84
213.83	2308.06
214.05	2371.55
214.27	2568.15
214.49	2396.12
214.71	2260.96
214.93	2422.75
215.15	2502.62
215.37	2664.41
215.59	2248.67
215.81	2375.64
216.03	2654.17
216.24	2574.30
216.46	2377.69
216.68	2385.88
216.90	2656.22
217.12	2519.00
217.34	2369.50
217.56	2490.33
217.78	2707.41
218.00	2519.00
218.22	2385.88
218.44	2473.95
218.66	2504.67
218.87	2762.71
219.09	2248.67
219.31	2398.17
219.53	2551.77
219.75	2392.03
219.97	2373.60
220.19	2377.69
220.41	2498.52
220.63	2723.80
220.85	2392.03
221.06	2406.36
221.28	2633.69
221.50	2547.67
221.72	2346.97
221.94	2301.92
222.16	2484.19
222.38	2531.29
222.60	2281.44
222.82	2332.64
223.03	2598.87
223.25	2357.21
223.47	2389.98
223.69	2580.44
223.91	2615.26
224.13	2475.99
224.35	2275.29
224.57	2523.10
224.78	2512.86
225.00	2373.60
225.22	2365.40
225.44	2263.01
225.66	2609.11
225.88	2426.84
226.10	2422.75
226.32	2371.55
226.53	2617.30
226.75	2404.32
226.97	2422.75
227.19	2326.49
227.41	2422.75
227.63	2420.70
227.85	2252.77
228.06	2334.68
228.28	2449.37
228.50	2629.59
228.72	2129.89
228.94	2324.44
229.16	2232.29
229.37	2359.26
229.59	2306.01
229.81	2473.95
230.03	2412.51
230.25	2293.72
230.47	2267.10
230.69	2240.48
230.90	2619.35
231.12	2314.20
231.34	2404.32
231.56	2392.03
231.78	2289.63
232.00	2424.80
232.21	2396.12
232.43	2308.06
232.65	2256.86
232.87	2514.91
233.09	2283.49
233.30	2285.53
233.52	2566.10
233.74	2473.95
233.96	2328.54
234.18	2414.56
234.40	2453.47
234.61	2734.04
234.83	2228.19
235.05	2271.20
235.27	2760.66
235.49	2588.63
235.70	2351.07
235.92	2441.18
236.14	2502.62
236.36	2746.33
236.58	2273.25
236.79	2461.66
237.01	2465.75
237.23	2500.57
237.45	2508.76
237.67	2316.25
237.88	2486.23
238.10	2723.80
238.32	2308.06
238.54	2398.17
238.76	2519.00
238.97	2371.55
239.19	2220.00
239.41	2455.51
239.63	2590.68
239.85	2402.27
240.06	2363.36
240.28	2314.20
240.50	2572.25
240.72	2484.19
240.93	2359.26
241.15	2422.75
241.37	2478.04
241.59	2605.02
241.81	2453.47
242.02	2418.65
242.24	2633.69
242.46	2580.44
242.68	2220.00
242.89	2258.91
243.11	2602.97
243.33	2492.38
243.55	2344.92
243.76	2394.08
243.98	2312.16
244.20	2424.80
244.42	2375.64
244.64	2396.12
244.85	2291.68
245.07	2435.03
245.29	2322.40
245.51	2334.68
245.72	2496.47
245.94	2578.39
246.16	2488.28
246.38	2430.94
246.59	2445.27
246.81	2283.49
247.03	2340.83
247.24	2258.91
247.46	2457.56
247.68	2512.86
247.90	2267.10
248.11	2351.07
248.33	2631.64
248.55	2482.14
248.77	2422.75
248.98	2414.56
249.20	2719.70
249.42	2502.62
249.64	2398.17
249.85	2281.44
250.07	2482.14
250.29	2586.58
250.50	2414.56
250.72	2275.29
250.94	2506.71
251.16	2770.90
251.37	2375.64
251.59	2445.27
251.81	2592.73
252.02	2613.21
252.24	2332.64
252.46	2471.90
252.68	2398.17
252.89	2381.79
253.11	2179.04
253.33	2441.18
253.54	2693.08
253.76	2363.36
253.98	2426.84
254.20	2344.92
254.41	2314.20
254.63	2494.43
254.85	2220.00
255.06	2400.22
255.28	2496.47
255.50	2455.51
255.71	2383.84
255.93	2236.38
256.15	2463.71
256.36	2486.23
256.58	2310.11
256.80	2428.89
257.02	2490.33
257.23	2471.90
257.45	2367.45
257.67	2418.65
257.88	2418.65
258.10	2519.00
258.32	2338.78
258.53	2424.80
258.75	2717.65
258.97	2451.42
259.18	2297.82
259.40	2293.72
259.62	2650.07
259.83	2725.85
260.05	2385.88
260.27	2813.91
260.48	2637.78
260.70	2389.98
260.92	2301.92
261.13	2359.26
261.35	2498.52
261.57	2510.81
261.78	2244.57
262.00	2246.62
262.22	2605.02
262.43	2303.96
262.65	2389.98
262.86	2357.21
263.08	2785.24
263.30	2519.00
263.51	2170.85
263.73	2289.63
263.95	2564.06
264.16	2428.89
264.38	2271.20
264.60	2349.02
264.81	2506.71
265.03	2617.30
265.25	2605.02
265.46	2277.34
265.68	2621.40
265.89	2621.40
266.11	2187.23
266.33	2342.88
266.54	2523.10
266.76	2578.39
266.98	2457.56
267.19	2449.37
267.41	2703.32
267.62	2482.14
267.84	2285.53
268.06	2461.66
268.27	2516.95
268.49	2572.25
268.70	2404.32
268.92	2385.88
269.14	2344.92
269.35	2326.49
269.57	2398.17
269.79	2363.36
270.00	2369.50
270.22	2668.50
270.43	2303.96
270.65	2187.23
270.87	2478.04
271.08	2566.10
271.30	2432.99
271.51	2303.96
271.73	2484.19
271.95	2619.35
272.16	2412.51
272.38	2490.33
272.59	2533.34
272.81	2564.06
273.02	2308.06
273.24	2463.71
273.46	2629.59
273.67	2289.63
273.89	2199.52
274.10	2344.92
274.32	2664.41
274.54	2510.81
274.75	2467.80
274.97	2353.12
275.18	2559.96
275.40	2566.10
275.61	2422.75
275.83	2404.32
276.05	2379.74
276.26	2471.90
276.48	2418.65
276.69	2314.20
276.91	2422.75
277.12	2756.57
277.34	2428.89
277.55	2525.15
277.77	2412.51
277.99	2514.91
278.20	2398.17
278.42	2256.86
278.63	2383.84
278.85	2430.94
279.06	2389.98
279.28	2502.62
279.49	2557.91
279.71	2602.97
279.93	2502.62
280.14	2488.28
280.36	2353.12
280.57	2594.78
280.79	2482.14
281.00	2400.22
281.22	2398.17
281.43	2619.35
281.65	2211.81
281.86	2297.82
282.08	2527.19
282.29	2828.24
282.51	2334.68
282.73	2265.05
282.94	2310.11
283.16	2568.15
283.37	2592.73
283.59	2396.12
283.80	2498.52
284.02	2469.85
284.23	2445.27
284.45	2418.65
284.66	2334.68
284.88	2453.47
285.09	2480.09
285.31	2498.52
285.52	2504.67
285.74	2273.25
285.95	2516.95
286.17	2398.17
286.38	2580.44
286.60	2363.36
286.81	2338.78
287.03	2457.56
287.24	2449.37
287.46	2539.48
287.67	2463.71
287.89	2691.03
288.10	2465.75
288.32	2469.85
288.53	2576.34
288.75	2496.47
288.96	2588.63
289.18	2461.66
289.39	2457.56
289.61	2527.19
289.82	2684.89
290.04	2785.24
290.25	2373.60
290.47	2451.42
290.68	2412.51
290.90	2574.30
291.11	2299.87
291.33	2539.48
291.54	2412.51
291.76	2396.12
291.97	2545.63
292.18	2449.37
292.40	2412.51
292.61	2400.22
292.83	2668.50
293.04	2496.47
293.26	2512.86
293.47	2432.99
293.69	2414.56
293.90	2392.03
294.12	2574.30
294.33	2525.15
294.55	2418.65
294.76	2502.62
294.97	2662.36
295.19	2785.24
295.40	2453.47
295.62	2449.37
295.83	2596.82
296.05	2389.98
296.26	2547.67
296.48	2408.41
296.69	2441.18
296.90	2463.71
297.12	2500.57
297.33	2537.43
297.55	2498.52
297.76	2490.33
297.98	2486.23
298.19	2480.09
298.41	2451.42
298.62	2414.56
298.83	2559.96
299.05	2453.47
299.26	2385.88
299.48	2389.98
299.69	2523.10
299.90	2451.42
300.12	2363.36
300.33	2588.63
300.55	2422.75
300.76	2496.47
300.98	2412.51
301.19	2559.96
301.40	2367.45
301.62	2402.27
301.83	2439.13
302.05	2654.17
302.26	2400.22
302.47	2451.42
302.69	2283.49
302.90	2473.95
303.12	2248.67
303.33	2545.63
303.54	2748.37
303.76	2461.66
303.97	2432.99
304.19	2555.86
304.40	2412.51
304.61	2523.10
304.83	2580.44
305.04	2629.59
305.26	2541.53
305.47	2504.67
305.68	2396.12
305.90	2326.49
306.11	2621.40
306.33	2516.95
306.54	2371.55
306.75	2279.39
306.97	2316.25
307.18	2389.98
307.39	2387.93
307.61	2553.82
307.82	2441.18
308.04	2541.53
308.25	2342.88
308.46	2482.14
308.68	2430.94
308.89	2562.01
309.10	2564.06
309.32	2408.41
309.53	2457.56
309.74	2639.83
309.96	2326.49
310.17	2596.82
310.39	2422.75
310.60	2611.16
310.81	2379.74
311.03	2287.58
311.24	2613.21
311.45	2482.14
311.67	2605.02
311.88	2463.71
312.09	2445.27
312.31	2361.31
312.52	2432.99
312.73	2406.36
312.95	2273.25
313.16	2404.32
313.37	2559.96
313.59	2449.37
313.80	2516.95
314.01	2738.13
314.23	2414.56
314.44	2355.16
314.65	2379.74
314.87	2383.84
315.08	2387.93
315.29	2387.93
315.51	2349.02
315.72	2269.15
315.93	2578.39
316.15	2516.95
316.36	2383.84
316.57	2441.18
316.79	2486.23
317.00	2394.08
317.21	2537.43
317.43	2351.07
317.64	2451.42
317.85	2377.69
318.07	2432.99
318.28	2383.84
318.49	2666.46
318.70	2721.75
318.92	2592.73
319.13	2648.02
319.34	2736.09
319.56	2527.19
319.77	2553.82
319.98	2602.97
320.20	2643.93
320.41	2529.24
320.62	2527.19
320.83	2375.64
321.05	2619.35
321.26	2439.13
321.47	2500.57
321.69	2658.26
321.90	2328.54
322.11	2279.39
322.32	2553.82
322.54	2715.61
322.75	2473.95
322.96	2924.50
323.18	2330.59
323.39	2234.33
323.60	2342.88
323.81	2570.20
324.03	2357.21
324.24	2469.85
324.45	2482.14
324.66	2412.51
324.88	2650.07
325.09	2635.74
325.30	2389.98
325.52	2408.41
325.73	2498.52
325.94	2336.73
326.15	2273.25
326.37	2359.26
326.58	2551.77
326.79	2650.07
327.00	2357.21
327.22	2387.93
327.43	2432.99
327.64	2381.79
327.85	2459.61
328.07	2418.65
328.28	2764.76
328.49	2449.37
328.70	2478.04
328.92	2418.65
329.13	2455.51
329.34	2535.39
329.55	2615.26
329.76	2537.43
329.98	2392.03
330.19	2645.98
330.40	2527.19
330.61	2469.85
330.83	2568.15
331.04	2379.74
331.25	2383.84
331.46	2408.41
331.68	2346.97
331.89	2609.11
332.10	2461.66
332.31	2322.40
332.52	2473.95
332.74	2582.49
332.95	2301.92
333.16	2412.51
333.37	2506.71
333.58	2430.94
333.80	2471.90
334.01	2334.68
334.22	2389.98
334.43	2400.22
334.64	2277.34
334.86	2314.20
335.07	2424.80
335.28	2590.68
335.49	2334.68
335.70	2527.19
335.92	2637.78
336.13	2705.37
336.34	2521.05
336.55	2441.18
336.76	2467.80
336.98	2244.57
337.19	2463.71
337.40	2570.20
337.61	2701.27
337.82	2531.29
338.04	2463.71
338.25	2267.10
338.46	2457.56
338.67	2521.05
338.88	2398.17
339.09	2379.74
339.31	2465.75
339.52	2404.32
339.73	2277.34
339.94	2447.32
340.15	2617.30
340.36	2396.12
340.58	2480.09
340.79	2387.93
341.00	2551.77
341.21	2289.63
341.42	2617.30
341.63	2363.36
341.85	2635.74
342.06	2539.48
342.27	2330.59
342.48	2506.71
342.69	2326.49
342.90	2523.10
343.12	2580.44
343.33	2326.49
343.54	2592.73
343.75	2625.50
343.96	2349.02
344.17	2396.12
344.38	2459.61
344.60	2357.21
344.81	2353.12
345.02	2430.94
345.23	2613.21
345.44	2793.43
345.65	2387.93
345.86	2478.04
346.07	2510.81
346.29	2389.98
346.50	2498.52
346.71	2486.23
346.92	2703.32
347.13	2719.70
347.34	2420.70
347.55	2357.21
347.76	2498.52
347.98	2275.29
348.19	2506.71
348.40	2596.82
348.61	2371.55
348.82	2725.85
349.03	2455.51
349.24	2357.21
349.45	2766.81
349.66	2209.76
349.88	2551.77
350.09	2346.97
350.30	2717.65
350.51	2670.55
350.72	2519.00
350.93	2416.60
351.14	2398.17
351.35	2566.10
351.56	2490.33
351.77	2383.84
351.99	2580.44
352.20	2650.07
352.41	2525.15
352.62	2236.38
352.83	2527.19
353.04	2463.71
353.25	2426.84
353.46	2531.29
353.67	2658.26
353.88	2191.33
354.09	2471.90
354.30	2482.14
354.52	2559.96
354.73	2471.90
354.94	2418.65
355.15	2445.27
355.36	2699.22
355.57	2381.79
355.78	2330.59
355.99	2416.60
356.20	2408.41
356.41	2707.41
356.62	2447.32
356.83	2461.66
357.04	2684.89
357.25	2295.77
357.46	2482.14
357.68	2248.67
357.89	2387.93
358.10	2424.80
358.31	2455.51
358.52	2445.27
358.73	2277.34
358.94	2312.16
359.15	2402.27
359.36	2496.47
359.57	2453.47
359.78	2494.43
359.99	2553.82
360.20	2402.27
360.41	2494.43
360.62	2580.44
360.83	2478.04
361.04	2449.37
361.25	2535.39
361.46	2693.08
361.67	2572.25
361.88	2500.57
362.09	2619.35
362.30	2516.95
362.51	2422.75
362.72	2441.18
362.93	2570.20
363.14	2582.49
363.35	2486.23
363.56	2338.78
363.78	2596.82
363.99	2719.70
364.20	2369.50
364.41	2484.19
364.62	2623.45
364.83	2584.54
365.04	2381.79
365.25	2439.13
365.46	2727.89
365.67	2445.27
365.88	2432.99
366.09	2326.49
366.30	2416.60
366.51	2451.42
366.72	2400.22
366.93	2342.88
367.14	2512.86
367.35	2605.02
367.56	2406.36
367.77	2572.25
367.98	2480.09
368.18	2539.48
368.39	2424.80
368.60	2363.36
368.81	2545.63
369.02	2519.00
369.23	2428.89
369.44	2260.96
369.65	2457.56
369.86	2545.63
370.07	2578.39
370.28	2379.74
370.49	2549.72
370.70	2516.95
370.91	2312.16
371.12	2320.35
371.33	2654.17
371.54	2459.61
371.75	2576.34
371.96	2191.33
372.17	2527.19
372.38	2457.56
372.59	2418.65
372.80	2404.32
373.01	2469.85
373.22	2527.19
373.43	2428.89
373.64	2273.25
373.85	2619.35
374.06	2645.98
374.26	2527.19
374.47	2582.49
374.68	2605.02
374.89	2510.81
375.10	2443.23
375.31	2504.67
375.52	2519.00
375.73	2488.28
375.94	2312.16
376.15	2596.82
376.36	2396.12
376.57	2469.85
376.78	2465.75
376.99	2504.67
377.20	2674.65
377.40	2455.51
377.61	2605.02
377.82	2281.44
378.03	2711.51
378.24	2547.67
378.45	2504.67
378.66	2394.08
378.87	2340.83
379.08	2371.55
379.29	2387.93
379.50	2506.71
379.71	2441.18
379.91	2580.44
380.12	2375.64
380.33	2514.91
380.54	2432.99
380.75	2492.38
380.96	2340.83
381.17	2465.75
381.38	2502.62
381.59	2500.57
381.80	2465.75
382.00	2621.40
382.21	2580.44
382.42	2727.89
382.63	2781.14
382.84	2531.29
383.05	2602.97
383.26	2650.07
383.47	2566.10
383.68	2453.47
383.88	2619.35
384.09	2441.18
384.30	2695.13
384.51	2441.18
384.72	2324.44
384.93	2394.08
385.14	2467.80
385.35	2547.67
385.55	2349.02
385.76	2600.92
385.97	2453.47
386.18	2318.30
386.39	2414.56
386.60	2412.51
386.81	2353.12
387.02	2387.93
387.22	2324.44
387.43	2617.30
387.64	2553.82
387.85	2637.78
388.06	2637.78
388.27	3979.20
388.48	8376.19
388.68	12042.06
388.89	14561.06
389.10	15757.07
389.31	14753.57
389.52	11503.44
389.73	10028.90
389.93	9150.32
390.14	8288.13
390.35	7589.77
390.56	6659.99
390.77	5492.65
390.98	4302.78
391.18	3389.39
391.39	2977.75
391.60	2648.02
391.81	2572.25
392.02	2512.86
392.23	2813.91
392.43	2551.77
392.64	2514.91
392.85	2484.19
393.06	2619.35
393.27	2500.57
393.47	2392.03
393.68	2484.19
393.89	2463.71
394.10	2617.30
394.31	2416.60
394.52	2406.36
394.72	2455.51
394.93	2654.17
395.14	2385.88
395.35	2537.43
395.56	2404.32
395.76	2537.43
395.97	2508.76
396.18	2586.58
396.39	2562.01
396.60	2979.79
396.80	2711.51
397.01	2617.30
397.22	2588.63
397.43	2592.73
397.64	2467.80
397.84	2551.77
398.05	2822.10
398.26	2486.23
398.47	2559.96
398.67	2586.58
398.88	2531.29
399.09	2613.21
399.30	2422.75
399.51	2469.85
399.71	2420.70
399.92	2488.28
400.13	2523.10
400.34	2471.90
400.54	2490.33
400.75	2705.37
400.96	2430.94
401.17	2654.17
401.37	2555.86
401.58	2412.51
401.79	2447.32
402.00	2555.86
402.21	2820.05
402.41	2783.19
402.62	2736.09
402.83	2963.41
403.04	2963.41
403.24	3102.67
403.45	2547.67
403.66	2758.61
403.87	2742.23
404.07	2658.26
404.28	2666.46
404.49	2801.62
404.70	2541.53
404.90	2635.74
405.11	2451.42
405.32	2590.68
405.52	2428.89
405.73	2396.12
405.94	2306.01
406.15	2498.52
406.35	2512.86
406.56	2586.58
406.77	2410.46
406.98	2414.56
407.18	2424.80
407.39	2678.74
407.60	2428.89
407.80	2514.91
408.01	2428.89
408.22	2576.34
408.43	2375.64
408.63	2580.44
408.84	2549.72
409.05	2578.39
409.25	2351.07
409.46	2424.80
409.67	2553.82
409.88	2424.80
410.08	2539.48
410.29	2396.12
410.50	2641.88
410.70	2514.91
410.91	2373.60
411.12	2484.19
411.32	2541.53
411.53	2439.13
411.74	2471.90
411.95	2570.20
412.15	2611.16
412.36	2568.15
412.57	2562.01
412.77	2627.54
412.98	2535.39
413.19	2387.93
413.39	2539.48
413.60	2478.04
413.81	2621.40
414.01	2357.21
414.22	2455.51
414.43	2568.15
414.63	2398.17
414.84	2621.40
415.05	2457.56
415.25	2326.49
415.46	2631.64
415.67	2420.70
415.87	2457.56
416.08	2504.67
416.29	2459.61
416.49	2566.10
416.70	2447.32
416.91	2410.46
417.11	2519.00
417.32	2607.06
417.53	2543.58
417.73	2506.71
417.94	2478.04
418.15	2465.75
418.35	2523.10
418.56	2432.99
418.77	2762.71
418.97	2480.09
419.18	2521.05
419.38	2209.76
419.59	2480.09
419.80	2768.85
420.00	2424.80
420.21	2549.72
420.42	2637.78
420.62	2617.30
420.83	2437.08
421.04	2404.32
421.24	2482.14
421.45	2557.91
421.65	2457.56
421.86	2473.95
422.07	2627.54
422.27	2484.19
422.48	2400.22
422.69	2392.03
422.89	2416.60
423.10	2420.70
423.30	2389.98
423.51	2478.04
423.72	2494.43
423.92	2584.54
424.13	2353.12
424.33	2453.47
424.54	2605.02
424.75	2586.58
424.95	2543.58
425.16	2377.69
425.36	2478.04
425.57	2605.02
425.78	2494.43
425.98	2570.20
426.19	2498.52
426.39	2408.41
426.60	2521.05
426.81	2574.30
427.01	2432.99
427.22	2389.98
427.42	2285.53
427.63	2447.32
427.83	2588.63
428.04	2670.55
428.25	2504.67
428.45	2592.73
428.66	2627.54
428.86	2529.24
429.07	2408.41
429.28	2471.90
429.48	2473.95
429.69	2457.56
429.89	2521.05
430.10	2310.11
430.30	2633.69
430.51	2643.93
430.71	2338.78
430.92	2482.14
431.13	2473.95
431.33	2600.92
431.54	2514.91
431.74	2566.10
431.95	2686.94
432.15	2445.27
432.36	2514.91
432.56	2512.86
432.77	2711.51
432.98	2686.94
433.18	2482.14
433.39	2387.93
433.59	2439.13
433.80	2789.33
434.00	2645.98
434.21	2400.22
434.41	2416.60
434.62	2766.81
434.82	2310.11
435.03	2291.68
435.23	2488.28
435.44	2310.11
435.64	2488.28
435.85	2473.95
436.06	2564.06
436.26	2688.98
436.47	2416.60
436.67	2328.54
436.88	2471.90
437.08	2639.83
437.29	2648.02
437.49	2471.90
437.70	2615.26
437.90	2424.80
438.11	2654.17
438.31	2531.29
438.52	2701.27
438.72	2699.22
438.93	2678.74
439.13	2514.91
439.34	2641.88
439.54	2486.23
439.75	2627.54
439.95	2500.57
440.16	2461.66
440.36	2422.75
440.57	2465.75
440.77	2441.18
440.98	2498.52
441.18	2619.35
441.39	2424.80
441.59	2277.34
441.80	2752.47
442.00	2533.34
442.21	2639.83
442.41	2369.50
442.62	2615.26
442.82	2355.16
443.02	2422.75
443.23	2430.94
443.43	2463.71
443.64	2654.17
443.84	2432.99
444.05	2596.82
444.25	2512.86
444.46	2439.13
444.66	2398.17
444.87	2736.09
445.07	2277.34
445.28	2521.05
445.48	2602.97
445.69	2459.61
445.89	2883.54
446.09	2484.19
446.30	2813.91
446.50	3057.62
446.71	4620.22
446.91	5760.94
447.12	6608.80
447.32	6909.85
447.53	6578.08
447.73	5431.21
447.93	4847.54
448.14	4519.87
448.34	4360.13
448.55	3850.18
448.75	3760.07
448.96	3600.33
449.16	3252.17
449.36	3112.91
449.57	2734.04
449.77	2531.29
449.98	2523.10
450.18	2570.20
450.39	2457.56
450.59	2535.39
450.79	2449.37
451.00	2357.21
451.20	2553.82
451.41	2461.66
451.61	2588.63
451.81	2469.85
452.02	2430.94
452.22	2471.90
452.43	2457.56
452.63	2375.64
452.84	2545.63
453.04	2426.84
453.24	2562.01
453.45	2424.80
453.65	2416.60
453.86	2387.93
454.06	2578.39
454.26	2519.00
454.47	2480.09
454.67	2562.01
454.87	2494.43
455.08	2478.04
455.28	2637.78
455.49	2539.48
455.69	2381.79
455.89	2777.05
456.10	2537.43
456.30	2531.29
456.51	2572.25
456.71	2486.23
456.91	2580.44
457.12	2478.04
457.32	2482.14
457.52	2375.64
457.73	2527.19
457.93	2596.82
458.14	2428.89
458.34	2267.10
458.54	2414.56
458.75	2451.42
458.95	2654.17
459.15	2392.03
459.36	2478.04
459.56	2531.29
459.76	2762.71
459.97	2596.82
460.17	2449.37
460.37	2537.43
460.58	2553.82
460.78	2578.39
460.99	2508.76
461.19	2473.95
461.39	2383.84
461.60	2547.67
461.80	2514.91
462.00	2365.40
462.21	2392.03
462.41	2400.22
462.61	2365.40
462.82	2316.25
463.02	2547.67
463.22	2512.86
463.43	2580.44
463.63	2465.75
463.83	2713.56
464.04	2623.45
464.24	2494.43
464.44	2371.55
464.64	2545.63
464.85	2629.59
465.05	2564.06
465.25	2512.86
465.46	2498.52
465.66	2535.39
465.86	2566.10
466.07	2414.56
466.27	2445.27
466.47	2349.02
466.68	2324.44
466.88	2713.56
467.08	2547.67
467.29	2648.02
467.49	2502.62
467.69	2506.71
467.89	2580.44
468.10	2389.98
468.30	2564.06
468.50	2658.26
468.71	2697.17
468.91	2332.64
469.11	2662.36
469.31	2480.09
469.52	2416.60
469.72	2756.57
469.92	2693.08
470.13	2439.13
470.33	2525.15
470.53	2588.63
470.73	2889.68
470.94	3325.90
471.14	3399.63
471.34	3866.56
471.54	3729.35
471.75	3383.24
471.95	3047.38
472.15	3049.43
472.36	2987.99
472.56	3037.14
472.76	3018.71
472.96	2904.02
473.17	2758.61
473.37	2711.51
473.57	2498.52
473.77	2562.01
473.98	2514.91
474.18	2312.16
474.38	2914.26
474.58	2406.36
474.79	2398.17
474.99	2406.36
475.19	2545.63
475.39	2367.45
475.60	2422.75
475.80	2447.32
476.00	2437.08
476.20	2416.60
476.41	2519.00
476.61	2576.34
476.81	2627.54
477.01	2406.36
477.21	2650.07
477.42	2602.97
477.62	2344.92
477.82	2605.02
478.02	2416.60
478.23	2484.19
478.43	2383.84
478.63	2521.05
478.83	2535.39
479.03	2406.36
479.24	2701.27
479.44	2754.52
479.64	2392.03
479.84	2211.81
480.04	2392.03
480.25	2586.58
480.45	2349.02
480.65	2426.84
480.85	2594.78
481.06	2412.51
481.26	2496.47
481.46	2588.63
481.66	2553.82
481.86	2387.93
482.06	2549.72
482.27	2494.43
482.47	2502.62
482.67	2514.91
482.87	2475.99
483.07	2510.81
483.28	2473.95
483.48	2389.98
483.68	2496.47
483.88	2379.74
484.08	2232.29
484.29	2373.60
484.49	2553.82
484.69	2314.20
484.89	2748.37
485.09	2615.26
485.29	2519.00
485.50	2432.99
485.70	2430.94
485.90	2635.74
486.10	2514.91
486.30	2547.67
486.50	2594.78
486.71	2555.86
486.91	2562.01
487.11	2527.19
487.31	2310.11
487.51	2553.82
487.71	2389.98
487.91	2381.79
488.12	2381.79
488.32	2301.92
488.52	2478.04
488.72	2252.77
488.92	2553.82
489.12	2662.36
489.32	2572.25
489.53	2494.43
489.73	2398.17
489.93	2691.03
490.13	2377.69
490.33	2357.21
490.53	2490.33
490.73	2668.50
490.94	2260.96
491.14	2559.96
491.34	2660.31
491.54	2697.17
491.74	3391.44
491.94	3985.35
492.14	4292.54
492.34	4425.66
492.54	4143.04
492.75	3416.01
492.95	3579.85
493.15	3186.64
493.35	3243.98
493.55	3020.75
493.75	2969.55
493.95	3012.56
494.15	2691.03
494.35	2576.34
494.56	2506.71
494.76	2494.43
494.96	2543.58
495.16	2443.23
495.36	2553.82
495.56	2486.23
495.76	2482.14
495.96	2383.84
496.16	2465.75
496.36	2719.70
496.56	2416.60
496.77	2514.91
496.97	2496.47
497.17	2650.07
497.37	2371.55
497.57	2508.76
497.77	2533.34
497.97	2432.99
498.17	2502.62
498.37	2453.47
498.57	2566.10
498.77	2490.33
498.97	2602.97
499.17	2660.31
499.38	2478.04
499.58	2506.71
499.78	2613.21
499.98	2678.74
500.18	2449.37
500.38	2494.43
500.58	2670.55
500.78	3063.76
500.98	5345.20
501.18	7509.90
501.38	9222.00
501.58	10272.61
501.78	9940.84
501.98	7880.58
502.18	6754.20
502.38	5722.02
502.58	5250.99
502.78	4847.54
502.98	4749.24
503.18	4480.96
503.38	4132.80
503.59	3551.18
503.79	3354.57
503.99	3217.36
504.19	3033.04
504.39	3104.72
504.59	3127.25
504.79	2987.99
504.99	3121.10
505.19	2883.54
505.39	2652.12
505.59	2887.64
505.79	2727.89
505.99	2748.37
506.19	2510.81
506.39	2756.57
506.59	2473.95
506.79	2467.80
506.99	2654.17
507.19	2459.61
507.39	2531.29
507.59	2371.55
507.79	2367.45
507.99	2400.22
508.19	2488.28
508.39	2437.08
508.59	2498.52
508.79	2531.29
508.99	2693.08
509.19	2379.74
509.39	2414.56
509.59	2338.78
509.79	2404.32
509.99	2514.91
510.19	2539.48
510.39	2545.63
510.59	2422.75
510.79	2572.25
510.99	2258.91
511.19	2426.84
511.39	2697.17
511.59	2592.73
511.79	2576.34
511.99	2529.24
512.19	2736.09
512.38	2590.68
512.58	2445.27
512.78	2465.75
512.98	2635.74
513.18	2684.89
513.38	2283.49
513.58	2559.96
513.78	2490.33
513.98	2482.14
514.18	2478.04
514.38	2453.47
514.58	2570.20
514.78	2441.18
514.98	2320.35
515.18	2455.51
515.38	2420.70
515.58	2709.46
515.78	2437.08
515.98	2482.14
516.18	2514.91
516.38	2449.37
516.57	2461.66
516.77	2459.61
516.97	2588.63
517.17	2412.51
517.37	2303.96
517.57	2619.35
517.77	2521.05
517.97	2437.08
518.17	2625.50
518.37	2299.87
518.57	2402.27
518.77	2488.28
518.97	2412.51
519.16	2576.34
519.36	2723.80
519.56	2447.32
519.76	2455.51
519.96	2445.27
520.16	2725.85
520.36	2430.94
520.56	2596.82
520.76	2379.74
520.96	2490.33
521.16	2570.20
521.35	2617.30
521.55	2660.31
521.75	2519.00
521.95	2408.41
522.15	2465.75
522.35	2314.20
522.55	2359.26
522.75	2594.78
522.95	2422.75
523.14	2283.49
523.34	2521.05
523.54	2449.37
523.74	2572.25
523.94	2451.42
524.14	2334.68
524.34	2543.58
524.54	2648.02
524.73	2432.99
524.93	2527.19
525.13	2492.38
525.33	2371.55
525.53	2592.73
525.73	2641.88
525.93	2447.32
526.13	2406.36
526.32	2457.56
526.52	2652.12
526.72	2519.00
526.92	2463.71
527.12	2432.99
527.32	2338.78
527.52	2547.67
527.71	2514.91
527.91	2547.67
528.11	2506.71
528.31	2459.61
528.51	2349.02
528.71	2531.29
528.90	2574.30
529.10	2652.12
529.30	2566.10
529.50	2146.27
529.70	2519.00
529.90	2457.56
530.09	2469.85
530.29	2351.07
530.49	2441.18
530.69	2908.12
530.89	2504.67
531.09	2494.43
531.28	2404.32
531.48	2578.39
531.68	2514.91
531.88	2584.54
532.08	2562.01
532.28	2473.95
532.47	2570.20
532.67	2693.08
532.87	2613.21
533.07	2367.45
533.27	2588.63
533.46	2555.86
533.66	2588.63
533.86	2539.48
534.06	2490.33
534.26	2586.58
534.45	2443.23
534.65	2682.84
534.85	2506.71
535.05	2432.99
535.25	2590.68
535.44	2303.96
535.64	2559.96
535.84	2445.27
536.04	2441.18
536.24	2471.90
536.43	2424.80
536.63	2316.25
536.83	2445.27
537.03	2478.04
537.22	2301.92
537.42	2242.53
537.62	2473.95
537.82	2340.83
538.02	2580.44
538.21	2635.74
538.41	2883.54
538.61	2555.86
538.81	2504.67
539.00	2559.96
539.20	2365.40
539.40	2418.65
539.60	2557.91
539.79	2584.54
539.99	2469.85
540.19	2379.74
540.39	2430.94
540.58	2547.67
540.78	2570.20
540.98	2510.81
541.18	2594.78
541.37	2488.28
541.57	2514.91
541.77	2473.95
541.97	2410.46
542.16	2299.87
542.36	2498.52
542.56	2443.23
542.76	2621.40
542.95	2547.67
543.15	2521.05
543.35	2602.97
543.54	2355.16
543.74	2400.22
543.94	2641.88
544.14	2412.51
544.33	2523.10
544.53	2469.85
544.73	2404.32
544.93	2494.43
545.12	2490.33
545.32	2441.18
545.52	2432.99
545.71	2338.78
545.91	2357.21
546.11	2465.75
546.30	2461.66
546.50	2482.14
546.70	2582.49
546.90	2521.05
547.09	2269.15
547.29	2535.39
547.49	2541.53
547.68	2441.18
547.88	2441.18
548.08	2656.22
548.27	2918.36
548.47	2375.64
548.67	2457.56
548.87	2469.85
549.06	2449.37
549.26	2424.80
549.46	2580.44
549.65	2453.47
549.85	2514.91
550.05	2482.14
550.24	2320.35
550.44	2504.67
550.64	2455.51
550.83	2478.04
551.03	2666.46
551.23	2584.54
551.42	2547.67
551.62	2396.12
551.82	2502.62
552.01	2506.71
552.21	2621.40
552.41	2422.75
552.60	2695.13
552.80	2408.41
553.00	2371.55
553.19	2473.95
553.39	2676.70
553.59	2365.40
553.78	2537.43
553.98	2435.03
554.17	2314.20
554.37	2514.91
554.57	2465.75
554.76	2322.40
554.96	2453.47
555.16	2457.56
555.35	2514.91
555.55	2535.39
555.75	2492.38
555.94	2619.35
556.14	2293.72
556.33	2490.33
556.53	2512.86
556.73	2531.29
556.92	2586.58
557.12	2535.39
557.32	2684.89
557.51	2652.12
557.71	2645.98
557.90	2686.94
558.10	2619.35
558.30	2447.32
558.49	2441.18
558.69	2459.61
558.88	2598.87
559.08	2537.43
559.28	2367.45
559.47	2463.71
559.67	2639.83
559.86	2676.70
560.06	2531.29
560.26	2394.08
560.45	2512.86
560.65	2473.95
560.84	2676.70
561.04	2330.59
561.24	2564.06
561.43	2373.60
561.63	2727.89
561.82	2574.30
562.02	2578.39
562.22	2424.80
562.41	2412.51
562.61	2490.33
562.80	2363.36
563.00	2848.72
563.19	2502.62
563.39	2447.32
563.59	2574.30
563.78	2394.08
563.98	2252.77
564.17	2346.97
564.37	2334.68
564.56	2500.57
564.76	2295.77
564.96	2609.11
565.15	2588.63
565.35	2822.10
565.54	2441.18
565.74	2527.19
565.93	2580.44
566.13	2480.09
566.32	2523.10
566.52	2508.76
566.71	2488.28
566.91	2609.11
567.11	2576.34
567.30	2385.88
567.50	2588.63
567.69	2645.98
567.89	2416.60
568.08	2326.49
568.28	2535.39
568.47	2404.32
568.67	2535.39
568.86	2443.23
569.06	2654.17
569.25	2457.56
569.45	2361.31
569.64	2402.27
569.84	2469.85
570.04	2535.39
570.23	2424.80
570.43	2453.47
570.62	2545.63
570.82	2684.89
571.01	2353.12
571.21	2471.90
571.40	2383.84
571.60	2607.06
571.79	2576.34
571.99	2432.99
572.18	2326.49
572.38	2523.10
572.57	2383.84
572.77	2496.47
572.96	2801.62
573.16	2523.10
573.35	2461.66
573.55	2602.97
573.74	2662.36
573.94	2430.94
574.13	2432.99
574.33	2596.82
574.52	2629.59
574.71	2559.96
574.91	2519.00
575.10	2412.51
575.30	2553.82
575.49	2408.41
575.69	2338.78
575.88	2555.86
576.08	2512.86
576.27	2578.39
576.47	2531.29
576.66	2643.93
576.86	2717.65
577.05	2631.64
577.25	2592.73
577.44	2701.27
577.64	2488.28
577.83	2568.15
578.02	2428.89
578.22	2619.35
578.41	2723.80
578.61	2437.08
578.80	2318.30
579.00	2508.76
579.19	2543.58
579.39	2519.00
579.58	2500.57
579.77	2453.47
579.97	2699.22
580.16	2725.85
580.36	2621.40
580.55	2605.02
580.75	2496.47
580.94	2502.62
581.13	2711.51
581.33	2629.59
581.52	2539.48
581.72	2744.28
581.91	2670.55
582.11	2412.51
582.30	2684.89
582.49	2578.39
582.69	2734.04
582.88	2580.44
583.08	2521.05
583.27	2588.63
583.47	2617.30
583.66	2414.56
583.85	2461.66
584.05	2510.81
584.24	2596.82
584.44	2594.78
584.63	2709.46
584.82	2785.24
585.02	2750.42
585.21	2662.36
585.41	2672.60
585.60	2584.54
585.79	2707.41
585.99	2768.85
586.18	2674.65
586.37	3248.08
586.57	5001.14
586.76	15040.28
586.96	34371.06
587.15	47734.06
587.34	57083.03
587.54	61615.19
587.73	55911.59
587.93	39724.45
588.12	29439.55
588.31	23996.05
588.51	20917.95
588.70	19388.12
588.89	17483.51
589.09	14905.12
589.28	13061.94
589.47	10368.87
589.67	7952.26
589.86	6053.80
590.06	4595.64
590.25	3801.03
590.44	3375.05
590.64	3053.52
590.83	2848.72
591.02	2744.28
591.22	2496.47
591.41	2605.02
591.60	2570.20
591.80	2840.53
591.99	2457.56
592.18	2514.91
592.38	2645.98
592.57	2523.10
592.76	2529.24
592.96	2512.86
593.15	2502.62
593.34	2596.82
593.54	2463.71
593.73	2562.01
593.92	2596.82
594.12	2562.01
594.31	2600.92
594.50	2678.74
594.70	2566.10
594.89	2875.35
595.08	2398.17
595.28	2617.30
595.47	2901.97
595.66	2605.02
595.86	2351.07
596.05	2406.36
596.24	2531.29
596.43	2715.61
596.63	2582.49
596.82	2531.29
597.01	2570.20
597.21	2703.32
597.40	2480.09
597.59	2469.85
597.79	2480.09
597.98	2527.19
598.17	2547.67
598.36	2418.65
598.56	2613.21
598.75	2453.47
598.94	2498.52
599.14	2537.43
599.33	2457.56
599.52	2645.98
599.71	2531.29
599.91	2527.19
600.10	2609.11
600.29	2529.24
600.48	2596.82
600.68	2523.10
600.87	2535.39
601.06	2394.08
601.26	2533.34
601.45	2588.63
601.64	2453.47
601.83	2650.07
602.03	2428.89
602.22	2428.89
602.41	2574.30
602.60	2676.70
602.80	2619.35
602.99	2559.96
603.18	2418.65
603.37	2463.71
603.57	2469.85
603.76	2555.86
603.95	2625.50
604.14	2484.19
604.34	2387.93
604.53	2484.19
604.72	2514.91
604.91	2555.86
605.10	2494.43
605.30	2330.59
605.49	2762.71
605.68	2594.78
605.87	2490.33
606.07	2414.56
606.26	2512.86
606.45	2580.44
606.64	2484.19
606.84	2430.94
607.03	2564.06
607.22	2654.17
607.41	2449.37
607.60	2502.62
607.80	2676.70
607.99	2498.52
608.18	2490.33
608.37	2451.42
608.56	2459.61
608.76	2711.51
608.95	2643.93
609.14	2539.48
609.33	2619.35
609.52	2768.85
609.72	2578.39
609.91	2707.41
610.10	2598.87
610.29	2715.61
610.48	2619.35
610.68	2531.29
610.87	2521.05
611.06	2621.40
611.25	2521.05
611.44	2555.86
611.63	2457.56
611.83	2656.22
612.02	2385.88
612.21	2584.54
612.40	2269.15
612.59	2459.61
612.79	2369.50
612.98	2480.09
613.17	2764.76
613.36	2389.98
613.55	2668.50
613.74	2418.65
613.93	2523.10
614.13	2723.80
614.32	2691.03
614.51	2621.40
614.70	2602.97
614.89	2566.10
615.08	2531.29
615.28	2961.36
615.47	2502.62
615.66	2602.97
615.85	2570.20
616.04	2742.23
616.23	2605.02
616.42	2564.06
616.62	2502.62
616.81	2521.05
617.00	2445.27
617.19	2609.11
617.38	2463.71
617.57	2525.15
617.76	2611.16
617.95	2586.58
618.15	2461.66
618.34	2691.03
618.53	2408.41
618.72	2621.40
618.91	2586.58
619.10	2508.76
619.29	2619.35
619.48	2492.38
619.68	2398.17
619.87	2486.23
620.06	2342.88
620.25	2580.44
620.44	2426.84
620.63	2486.23
620.82	2488.28
621.01	2473.95
621.20	2424.80
621.39	2564.06
621.59	2580.44
621.78	2467.80
621.97	2543.58
622.16	2580.44
622.35	2648.02
622.54	2641.88
622.73	2523.10
622.92	2324.44
623.11	2621.40
623.30	2488.28
623.49	2600.92
623.68	2437.08
623.88	2629.59
624.07	2482.14
624.26	2392.03
624.45	2514.91
624.64	2523.10
624.83	2615.26
625.02	2414.56
625.21	2465.75
625.40	2578.39
625.59	2645.98
625.78	2496.47
625.97	2582.49
626.16	2674.65
626.35	2654.17
626.54	2527.19
626.74	2740.18
626.93	2422.75
627.12	2475.99
627.31	2572.25
627.50	2523.10
627.69	2605.02
627.88	2455.51
628.07	2432.99
628.26	2293.72
628.45	2449.37
628.64	2437.08
628.83	2408.41
629.02	2373.60
629.21	2578.39
629.40	2514.91
629.59	2379.74
629.78	2443.23
629.97	2541.53
630.16	2533.34
630.35	2504.67
630.54	2478.04
630.73	2506.71
630.92	2531.29
631.11	2396.12
631.30	2475.99
631.49	2625.50
631.68	2498.52
631.87	2484.19
632.06	2367.45
632.25	2783.19
632.44	2529.24
632.63	2537.43
632.82	2414.56
633.01	2473.95
633.20	2652.12
633.39	2576.34
633.58	2457.56
633.77	2559.96
633.96	2580.44
634.15	2539.48
634.34	2562.01
634.53	2586.58
634.72	2355.16
634.91	2228.19
635.10	2531.29
635.29	2594.78
635.48	2471.90
635.67	2424.80
635.86	2332.64
636.05	2564.06
636.24	2471.90
636.43	2445.27
636.62	2533.34
636.81	2191.33
637.00	2402.27
637.19	2572.25
637.38	2475.99
637.57	2502.62
637.76	2496.47
637.95	2668.50
638.14	2539.48
638.33	2557.91
638.52	2574.30
638.71	2424.80
638.89	2467.80
639.08	2891.73
639.27	2703.32
639.46	2754.52
639.65	3028.95
639.84	3143.63
640.03	3317.71
640.22	3119.06
640.41	3170.26
640.60	2740.18
640.79	2654.17
640.98	2691.03
641.17	2750.42
641.36	2719.70
641.55	2650.07
641.74	2488.28
641.92	2486.23
642.11	2465.75
642.30	2514.91
642.49	2424.80
642.68	2383.84
642.87	2527.19
643.06	2576.34
643.25	2359.26
643.44	2371.55
643.63	2449.37
643.82	2551.77
644.00	2445.27
644.19	2449.37
644.38	2408.41
644.57	2582.49
644.76	2480.09
644.95	2385.88
645.14	2580.44
645.33	2424.80
645.52	2488.28
645.71	2267.10
645.89	2365.40
646.08	2441.18
646.27	2410.46
646.46	2605.02
646.65	2408.41
646.84	2564.06
647.03	2349.02
647.22	2547.67
647.40	2504.67
647.59	2453.47
647.78	2338.78
647.97	2443.23
648.16	2359.26
648.35	2670.55
648.54	2531.29
648.73	2332.64
648.91	2637.78
649.10	2527.19
649.29	2357.21
649.48	2437.08
649.67	2605.02
649.86	2551.77
650.05	2498.52
650.23	2660.31
650.42	2527.19
650.61	2772.95
650.80	2650.07
650.99	2834.39
651.18	2658.26
651.36	2615.26
651.55	2547.67
651.74	2635.74
651.93	2471.90
652.12	2457.56
652.31	2502.62
652.49	2447.32
652.68	2459.61
652.87	2643.93
653.06	2539.48
653.25	2672.60
653.44	2439.13
653.62	2736.09
653.81	2478.04
654.00	2402.27
654.19	2678.74
654.38	2873.30
654.56	2492.38
654.75	2418.65
654.94	2598.87
655.13	2510.81
655.32	2428.89
655.51	2627.54
655.69	2473.95
655.88	2551.77
656.07	2224.09
656.26	2492.38
656.45	2367.45
656.63	2508.76
656.82	2519.00
657.01	2668.50
657.20	2334.68
657.38	2656.22
657.57	2437.08
657.76	2387.93
657.95	2564.06
658.14	2449.37
658.32	2473.95
658.51	2248.67
658.70	2482.14
658.89	2480.09
659.08	2473.95
659.26	2686.94
659.45	2406.36
659.64	2531.29
659.83	2424.80
660.01	2936.79
660.20	2572.25
660.39	2764.76
660.58	2250.72
660.76	2523.10
660.95	2349.02
661.14	2459.61
661.33	2269.15
661.51	2439.13
661.70	2488.28
661.89	2564.06
662.08	2553.82
662.26	2299.87
662.45	2340.83
662.64	2758.61
662.83	2570.20
663.01	2293.72
663.20	2392.03
663.39	2609.11
663.58	2502.62
663.76	2408.41
663.95	2537.43
664.14	2381.79
664.32	2453.47
664.51	2277.34
664.70	2334.68
664.89	2533.34
665.07	2314.20
665.26	2641.88
665.45	2279.39
665.64	2600.92
665.82	2408.41
666.01	2635.74
666.20	2332.64
666.38	2551.77
666.57	2697.17
666.76	3915.72
666.95	9602.93
667.13	17536.76
667.32	22965.92
667.51	26044.02
667.69	27774.55
667.88	24505.99
668.07	17411.83
668.25	14219.05
668.44	11878.22
668.63	10282.85
668.81	8935.29
669.00	7741.32
669.19	7002.01
669.38	6180.77
669.56	5404.59
669.75	4440.00
669.94	3805.13
670.12	3149.78
670.31	2877.40
670.50	2830.29
670.68	2717.65
670.87	2592.73
671.06	2482.14
671.24	2547.67
671.43	2768.85
671.62	2547.67
671.80	2525.15
671.99	2568.15
672.18	2557.91
672.36	2490.33
672.55	2506.71
672.74	2566.10
672.92	2457.56
673.11	2658.26
673.29	2389.98
673.48	2592.73
673.67	2512.86
673.85	2586.58
674.04	2330.59
674.23	2482.14
674.41	2666.46
674.60	2301.92
674.79	2285.53
674.97	2340.83
675.16	2473.95
675.34	2600.92
675.53	2367.45
675.72	2539.48
675.90	2678.74
676.09	2432.99
676.28	2568.15
676.46	2301.92
676.65	2611.16
676.83	2375.64
677.02	2512.86
677.21	2498.52
677.39	2478.04
677.58	2406.36
677.77	2428.89
677.95	2351.07
678.14	2459.61
678.32	2463.71
678.51	2377.69
678.70	2668.50
678.88	2394.08
679.07	2490.33
679.25	2480.09
679.44	2508.76
679.63	2334.68
679.81	2506.71
680.00	2568.15
680.18	2516.95
680.37	2680.79
680.55	2496.47
680.74	2353.12
680.93	2336.73
681.11	2523.10
681.30	2510.81
681.48	2533.34
681.67	2424.80
681.85	2543.58
682.04	2408.41
682.23	2533.34
682.41	2490.33
682.60	2408.41
682.78	2430.94
682.97	2428.89
683.15	2473.95
683.34	2490.33
683.53	2641.88
683.71	2326.49
683.90	2562.01
684.08	2635.74
684.27	2424.80
684.45	2465.75
684.64	2588.63
684.82	2441.18
685.01	2531.29
685.19	2453.47
685.38	2703.32
685.57	2490.33
685.75	2365.40
685.94	2420.70
686.12	2369.50
686.31	2471.90
686.49	2635.74
686.68	2269.15
686.86	2471.90
687.05	2514.91
687.23	2652.12
687.42	2375.64
687.60	2312.16
687.79	2578.39
687.97	2666.46
688.16	2545.63
688.34	2514.91
688.53	2349.02
688.71	2574.30
688.90	2641.88
689.08	2430.94
689.27	2324.44
689.45	2539.48
689.64	2645.98
689.82	2516.95
690.01	2598.87
690.19	2557.91
690.38	2514.91
690.56	2502.62
690.75	2318.30
690.93	2478.04
691.12	2392.03
691.30	2439.13
691.49	2432.99
691.67	2443.23
691.86	2701.27
692.04	2432.99
692.23	2402.27
692.41	2588.63
692.60	2760.66
692.78	2672.60
692.97	2590.68
693.15	2596.82
693.34	2715.61
693.52	2605.02
693.71	2426.84
693.89	2310.11
694.08	2359.26
694.26	2580.44
694.44	2619.35
694.63	2506.71
694.81	2424.80
695.00	2379.74
695.18	2672.60
695.37	2824.15
695.55	2455.51
695.74	2467.80
695.92	2375.64
696.10	2572.25
696.29	2371.55
696.47	2432.99
696.66	2326.49
696.84	2430.94
697.03	2467.80
697.21	2748.37
697.40	3655.62
697.58	2605.02
697.76	2457.56
697.95	2418.65
698.13	2385.88
698.32	2480.09
698.50	2490.33
698.68	2482.14
698.87	2602.97
699.05	2674.65
699.24	2392.03
699.42	2398.17
699.61	2502.62
699.79	2471.90
699.97	2457.56
700.16	2363.36
700.34	2346.97
700.53	2498.52
700.71	2586.58
700.89	2582.49
701.08	2465.75
701.26	2486.23
701.45	2899.92
701.63	2351.07
701.81	2392.03
702.00	2402.27
702.18	2547.67
702.37	2473.95
702.55	2703.32
702.73	2580.44
702.92	2545.63
703.10	2813.91
703.28	2848.72
703.47	2449.37
703.65	2695.13
703.84	2691.03
704.02	2512.86
704.20	2688.98
704.39	2449.37
704.57	2396.12
704.75	2648.02
704.94	2631.64
705.12	2557.91
705.30	2824.15
705.49	5455.79
705.67	12502.85
705.86	20698.82
706.04	24084.11
706.22	26834.53
706.41	27711.07
706.59	22509.22
706.77	16187.14
706.96	13936.43
707.14	12144.45
707.32	10497.89
707.51	9348.98
707.69	7604.11
707.87	6133.67
708.06	5038.00
708.24	4118.47
708.42	3442.64
708.61	3356.62
708.79	2637.78
708.97	2691.03
709.16	2656.22
709.34	2521.05
709.52	2547.67
709.71	2490.33
709.89	2551.77
710.07	2379.74
710.26	2486.23
710.44	2457.56
710.62	2605.02
710.80	2486.23
710.99	2590.68
711.17	2467.80
711.35	2437.08
711.54	2379.74
711.72	2645.98
711.90	2539.48
712.09	2514.91
712.27	2432.99
712.45	2568.15
712.63	2430.94
712.82	2496.47
713.00	2430.94
713.18	2555.86
713.37	2590.68
713.55	2570.20
713.73	2490.33
713.91	2537.43
714.10	2394.08
714.28	2500.57
714.46	2529.24
714.65	2488.28
714.83	2447.32
715.01	2510.81
715.19	2512.86
715.38	2453.47
715.56	2545.63
715.74	2349.02
715.92	2461.66
716.11	2660.31
716.29	2271.20
716.47	2400.22
716.65	2486.23
716.84	2349.02
717.02	2527.19
717.20	2308.06
717.38	2408.41
717.57	2609.11
717.75	2490.33
717.93	2502.62
718.11	2553.82
718.30	2228.19
718.48	2514.91
718.66	2576.34
718.84	2580.44
719.03	2392.03
719.21	2330.59
719.39	2693.08
719.57	2605.02
719.75	2535.39
719.94	2367.45
720.12	2432.99
720.30	2519.00
720.48	2521.05
720.67	2424.80
720.85	2414.56
721.03	2383.84
721.21	2316.25
721.39	2584.54
721.58	2523.10
721.76	2488.28
721.94	2461.66
722.12	2432.99
722.30	2672.60
722.49	2457.56
722.67	2484.19
722.85	2439.13
723.03	2342.88
723.21	2437.08
723.40	2480.09
723.58	2674.65
723.76	2504.67
723.94	2693.08
724.12	2619.35
724.30	2635.74
724.49	2676.70
724.67	2455.51
724.85	2633.69
725.03	2406.36
725.21	2590.68
725.40	2725.85
725.58	2416.60
725.76	2613.21
725.94	2482.14
726.12	2428.89
726.30	2469.85
726.49	2439.13
726.67	2455.51
726.85	2674.65
727.03	2963.41
727.21	4177.86
727.39	5963.68
727.57	6561.69
727.76	7208.85
727.94	7694.22
728.12	6852.50
728.30	5625.77
728.48	4859.83
728.66	4538.30
728.84	4030.40
729.03	3438.54
729.21	3248.08
729.39	2918.36
729.57	2748.37
729.75	2693.08
729.93	2568.15
730.11	2432.99
730.30	2449.37
730.48	2471.90
730.66	2570.20
730.84	2631.64
731.02	2486.23
731.20	2414.56
731.38	2457.56
731.56	2359.26
731.74	2353.12
731.93	2514.91
732.11	2469.85
732.29	2336.73
732.47	2529.24
732.65	2539.48
732.83	2611.16
733.01	2562.01
733.19	2363.36
733.37	2596.82
733.56	2465.75
733.74	2379.74
733.92	2645.98
734.10	2473.95
734.28	2473.95
734.46	2306.01
734.64	2449.37
734.82	2490.33
735.00	2416.60
735.18	2451.42
735.36	2428.89
735.54	2500.57
735.73	2432.99
735.91	2549.72
736.09	2506.71
736.27	2441.18
736.45	2514.91
736.63	2310.11
736.81	2439.13
736.99	2643.93
737.17	2562.01
737.35	2400.22
737.53	2478.04
737.71	2465.75
737.89	2660.31
738.07	2443.23
738.25	2359.26
738.43	2330.59
738.61	2428.89
738.80	2338.78
738.98	2310.11
739.16	2490.33
739.34	2375.64
739.52	2678.74
739.70	2504.67
739.88	2588.63
740.06	2564.06
740.24	2189.28
740.42	2619.35
740.60	2281.44
740.78	2410.46
740.96	2340.83
741.14	2469.85
741.32	2557.91
741.50	2312.16
741.68	2670.55
741.86	2621.40
742.04	2383.84
742.22	2328.54
742.40	2371.55
742.58	2473.95
742.76	2349.02
742.94	2586.58
743.12	2277.34
743.30	2441.18
743.48	2578.39
743.66	2318.30
743.84	2498.52
744.02	2463.71
744.20	2443.23
744.38	2351.07
744.56	2381.79
744.74	2668.50
744.92	2621.40
745.10	2625.50
745.28	2574.30
745.46	2660.31
745.64	2420.70
745.82	2609.11
746.00	2394.08
746.18	2547.67
746.36	2404.32
746.54	2496.47
746.72	2471.90
746.90	2375.64
747.08	2625.50
747.26	2414.56
747.44	2535.39
747.62	2473.95
747.80	2572.25
747.98	2588.63
748.15	2441.18
748.33	2650.07
748.51	2523.10
748.69	2539.48
748.87	2420.70
749.05	2484.19
749.23	2480.09
749.41	2482.14
749.59	2484.19
749.77	2592.73
749.95	2387.93
750.13	2398.17
750.31	2559.96
750.49	2437.08
750.67	2523.10
750.85	2641.88
751.03	2461.66
751.20	2672.60
751.38	2537.43
751.56	2473.95
751.74	2373.60
751.92	2441.18
752.10	2328.54
752.28	2568.15
752.46	2457.56
752.64	2432.99
752.82	2504.67
753.00	2562.01
753.18	2328.54
753.35	2463.71
753.53	2494.43
753.71	2420.70
753.89	2496.47
754.07	2559.96
754.25	2654.17
754.43	2555.86
754.61	2301.92
754.79	2582.49
754.97	2416.60
755.14	2631.64
755.32	2351.07
755.50	2469.85
755.68	2553.82
755.86	2383.84
756.04	2357.21
756.22	2248.67
756.40	2588.63
756.57	2660.31
756.75	2398.17
756.93	2580.44
757.11	2570.20
757.29	2392.03
757.47	2363.36
757.65	2375.64
757.82	2226.14
758.00	2349.02
758.18	2424.80
758.36	2461.66
758.54	2701.27
758.72	2310.11
758.90	2584.54
759.07	2498.52
759.25	2310.11
759.43	2521.05
759.61	2416.60
759.79	3563.47
759.97	2623.45
760.15	2471.90
760.32	2406.36
760.50	2461.66
760.68	2740.18
760.86	2383.84
761.04	2592.73
761.22	2602.97
761.39	2453.47
761.57	2529.24
761.75	2486.23
761.93	2525.15
762.11	2443.23
762.28	2525.15
762.46	2340.83
762.64	2609.11
762.82	2392.03
763.00	2383.84
763.18	2594.78
763.35	2402.27
763.53	2500.57
763.71	2494.43
763.89	2383.84
764.07	2506.71
764.24	2473.95
764.42	2645.98
764.60	2416.60
764.78	2506.71
764.96	2596.82
765.13	2637.78
765.31	2355.16
765.49	2564.06
765.67	2252.77
765.84	2437.08
766.02	2398.17
766.20	2275.29
766.38	2506.71
766.56	2494.43
766.73	2510.81
766.91	2506.71
767.09	2545.63
767.27	2535.39
767.44	2439.13
767.62	2441.18
767.80	2449.37
767.98	2416.60
768.15	2465.75
768.33	2648.02
768.51	2521.05
768.69	2570.20
768.87	2432.99
769.04	2519.00
769.22	2832.34
769.40	2629.59
769.58	2676.70
769.75	2535.39
769.93	2670.55
770.11	2465.75
770.28	2387.93
770.46	2637.78
770.64	2539.48
770.82	2469.85
770.99	2437.08
771.17	2613.21
771.35	2439.13
771.53	2453.47
771.70	2469.85
771.88	2568.15
772.06	2482.14
772.23	2430.94
772.41	2514.91
772.59	2441.18
772.77	2379.74
772.94	2453.47
773.12	2488.28
773.30	2426.84
773.47	2566.10
773.65	2379.74
773.83	2578.39
774.01	2455.51
774.18	2287.58
774.36	2381.79
774.54	2291.68
774.71	2562.01
774.89	2363.36
775.07	2367.45
775.24	2414.56
775.42	2467.80
775.60	2789.33
775.78	2412.51
775.95	2361.31
776.13	2318.30
776.31	2258.91
776.48	2527.19
776.66	2576.34
776.84	2424.80
777.01	2377.69
777.19	2303.96
777.37	2375.64
777.54	2574.30
777.72	2684.89
777.90	2488.28
778.07	2375.64
778.25	2887.64
778.43	2564.06
778.60	2377.69
778.78	2473.95
778.96	2621.40
779.13	2351.07
779.31	2430.94
779.49	2494.43
779.66	2469.85
779.84	2387.93
780.01	2371.55
780.19	2316.25
780.37	2668.50
780.54	2555.86
780.72	2324.44
780.90	2516.95
781.07	2359.26
781.25	2322.40
781.43	2594.78
781.60	2439.13
781.78	2619.35
781.95	2519.00
782.13	2377.69
782.31	2492.38
782.48	2232.29
782.66	2467.80
782.83	2695.13
783.01	2465.75
783.19	2521.05
783.36	2455.51
783.54	2265.05
783.72	2504.67
783.89	2437.08
784.07	2533.34
784.24	2506.71
784.42	2664.41
784.60	2498.52
784.77	2494.43
784.95	2271.20
785.12	2435.03
785.30	2469.85
785.47	2357.21
785.65	2373.60
785.83	2428.89
786.00	2445.27
786.18	2490.33
786.35	2308.06
786.53	2387.93
786.71	2633.69
786.88	2463.71
787.06	2521.05
787.23	2408.41
787.41	2334.68
787.58	2478.04
787.76	2383.84
787.94	2484.19
788.11	2422.75
788.29	2406.36
788.46	2385.88
788.64	2342.88
788.81	2465.75
788.99	2291.68
789.16	2387.93
789.34	2441.18
789.52	2488.28
789.69	2408.41
789.87	2301.92
790.04	2334.68
790.22	2463.71
790.39	2643.93
790.57	2420.70
790.74	2389.98
790.92	2527.19
791.09	2301.92
791.27	2441.18
791.44	2594.78
791.62	2537.43
791.79	2512.86
791.97	2535.39
792.15	2680.79
792.32	2490.33
792.50	2594.78
792.67	2564.06
792.85	2578.39
793.02	2551.77
793.20	2387.93
793.37	2373.60
793.55	2385.88
793.72	2342.88
793.90	2480.09
794.07	2379.74
794.25	2432.99
794.42	2506.71
794.60	2439.13
794.77	2496.47
794.95	2590.68
795.12	2539.48
795.30	2457.56
795.47	2244.57
795.65	2736.09
795.82	2496.47
796.00	2357.21
796.17	2412.51
796.34	2457.56
796.52	2463.71
796.69	2529.24
796.87	2547.67
797.04	2465.75
797.22	2564.06
797.39	2523.10
797.57	2519.00
797.74	2486.23
797.92	2480.09
798.09	2428.89
798.27	2607.06
798.44	2375.64
798.62	2416.60
798.79	2482.14
798.96	2545.63
799.14	2445.27
799.31	2768.85
799.49	2471.90
799.66	2461.66
799.84	2574.30
800.01	2346.97
800.19	2510.81
800.36	2260.96
800.53	2449.37
800.71	2602.97
800.88	2572.25
801.06	2424.80
801.23	2402.27
801.41	2428.89
801.58	2457.56
801.75	2453.47
801.93	2562.01
802.10	2613.21
802.28	2490.33
802.45	2398.17
802.63	2467.80
802.80	2676.70
802.97	2392.03
803.15	2473.95
803.32	2473.95
803.50	2424.80
803.67	2461.66
803.84	2383.84
804.02	2463.71
804.19	2416.60
804.37	2168.80
804.54	2318.30
804.71	2365.40
804.89	2453.47
805.06	2381.79
805.24	2394.08
805.41	2365.40
805.58	2439.13
805.76	2707.41
805.93	2422.75
806.10	2627.54
806.28	2488.28
806.45	2469.85
806.63	2490.33
806.80	2525.15
806.97	2523.10
807.15	2525.15
807.32	2521.05
807.49	2490.33
807.67	2359.26
807.84	2547.67
808.01	2318.30
808.19	2686.94
808.36	2803.67
808.54	2338.78
808.71	2521.05
808.88	2523.10
809.06	2621.40
809.23	2588.63
809.40	2437.08
809.58	2537.43
809.75	2430.94
809.92	2404.32
810.10	2676.70
810.27	2437.08
810.44	2496.47
810.62	2519.00
810.79	2510.81
810.96	2422.75
811.14	2383.84
811.31	2514.91
811.48	2539.48
811.66	2400.22
811.83	2613.21
812.00	2609.11
812.18	2498.52
812.35	2719.70
812.52	2478.04
812.69	2500.57
812.87	2389.98
813.04	2408.41
813.21	2506.71
813.39	2351.07
813.56	2265.05
813.73	2572.25
813.91	2371.55
814.08	2578.39
814.25	2467.80
814.42	2338.78
814.60	2420.70
814.77	2414.56
814.94	2484.19
815.12	2510.81
815.29	2613.21
815.46	2379.74
815.63	2457.56
815.81	2523.10
815.98	2430.94
816.15	2424.80
816.33	2488.28
816.50	2420.70
816.67	2418.65
816.84	2457.56
817.02	2363.36
817.19	2414.56
817.36	2510.81
817.53	2568.15
817.71	2369.50
817.88	2586.58
818.05	2541.53
818.22	2367.45
818.40	2674.65
818.57	2410.46
818.74	2527.19
818.91	2392.03
819.09	2588.63
819.26	2568.15
819.43	2359.26
819.60	2346.97
819.78	2539.48
819.95	2605.02
820.12	2344.92
820.29	2553.82
820.47	2656.22
820.64	2306.01
820.81	2353.12
820.98	2359.26
821.15	2461.66
821.33	2529.24
821.50	2232.29
821.67	2514.91
821.84	2398.17
822.02	2510.81
822.19	2572.25
822.36	2404.32
822.53	2439.13
822.70	2389.98
822.88	2392.03
823.05	2699.22
823.22	2529.24
823.39	2414.56
823.56	2490.33
823.74	2668.50
823.91	2383.84
824.08	2289.63
824.25	2318.30
824.42	2721.75
824.60	2199.52
824.77	2445.27
824.94	2441.18
825.11	2572.25
825.28	2244.57
825.45	2529.24
825.63	2506.71
825.80	2400.22
825.97	2506.71
826.14	2498.52
826.31	2314.20
826.48	2529.24
826.66	2379.74
826.83	2480.09
827.00	2439.13
827.17	2383.84
827.34	2371.55
827.51	2373.60
827.69	2416.60
827.86	2306.01
828.03	2455.51
828.20	2494.43
828.37	2357.21
828.54	2547.67
828.71	2375.64
828.89	2588.63
829.06	2432.99
829.23	2715.61
829.40	2453.47
829.57	2373.60
829.74	2523.10
829.91	2349.02
830.09	2408.41
830.26	2578.39
830.43	2613.21
830.60	2416.60
830.77	2535.39
830.94	2625.50
831.11	2488.28
831.28	2488.28
831.46	2570.20
831.63	2336.73
831.80	2613.21
831.97	2416.60
832.14	2371.55
832.31	2457.56
832.48	2519.00
832.65	2490.33
832.82	2533.34
832.99	2523.10
833.17	2420.70
833.34	2613.21
833.51	2480.09
833.68	2236.38
833.85	2584.54
834.02	2400.22
834.19	2424.80
834.36	2420.70
834.53	2480.09
834.70	2588.63
834.87	2463.71
835.04	2318.30
835.22	2365.40
835.39	2392.03
835.56	2371.55
835.73	2336.73
835.90	2494.43
836.07	2422.75
836.24	2475.99
836.41	2293.72
836.58	2383.84
836.75	2580.44
836.92	2418.65
837.09	2392.03
837.26	2531.29
837.43	2510.81
837.60	2424.80
837.77	2310.11
837.94	2492.38
838.12	2609.11
838.29	2357.21
838.46	2285.53
838.63	2361.31
838.80	2609.11
838.97	2414.56
839.14	2332.64
839.31	2492.38
839.48	2621.40
839.65	2396.12
839.82	2457.56
839.99	2539.48
840.16	2457.56
840.33	2375.64
840.50	2441.18
840.67	2351.07
840.84	2203.61
841.01	2408.41
841.18	2277.34
841.35	2494.43
841.52	2613.21
841.69	2584.54
841.86	2379.74
842.03	2469.85
842.20	2523.10
842.37	2416.60
842.54	2408.41
842.71	2445.27
842.88	2351.07
843.05	2439.13
843.22	2365.40
843.39	2570.20
843.56	2383.84
843.73	2396.12
843.90	2463.71
844.07	2394.08
844.24	2623.45
844.41	2533.34
844.58	2432.99
844.75	2461.66
844.92	2537.43
845.09	2412.51
845.26	2306.01
845.43	2490.33
845.60	2410.46
845.77	2469.85
845.94	2404.32
846.10	2600.92
846.27	2355.16
846.44	2332.64
846.61	2349.02
846.78	2559.96
846.95	2535.39
847.12	2424.80
847.29	2320.35
847.46	2420.70
847.63	2492.38
847.80	2355.16
847.97	2349.02
848.14	2791.38
848.31	2385.88
848.48	2279.39
848.65	2482.14
848.82	2363.36
848.98	2785.24
849.15	2469.85
849.32	2461.66
849.49	2637.78
849.66	2484.19
849.83	2432.99
850.00	2258.91
850.17	2496.47
850.34	2541.53
850.51	2277.34
850.68	2326.49
850.85	2697.17
851.01	2471.90
851.18	2367.45
851.35	2398.17
851.52	2463.71
851.69	2594.78
851.86	2299.87
852.03	2355.16
852.20	2557.91
852.37	2394.08
852.53	2224.09
852.70	2363.36
852.87	2531.29
853.04	2535.39
853.21	2332.64
853.38	2588.63
853.55	2654.17
853.72	2674.65
853.89	2260.96
854.05	2297.82
854.22	2475.99
854.39	2465.75
854.56	2381.79
854.73	2539.48
854.90	2428.89
855.07	2400.22
855.23	2205.66
855.40	2387.93
855.57	2435.03
855.74	2176.99
855.91	2547.67
856.08	2287.58
856.25	2310.11
856.41	2359.26
856.58	2392.03
856.75	2457.56
856.92	2299.87
857.09	2611.16
857.26	2222.05
857.42	2420.70
857.59	2590.68
857.76	2373.60
857.93	2402.27
858.10	2420.70
858.27	2277.34
858.43	2488.28
858.60	2326.49
858.77	2277.34
858.94	2439.13
859.11	2691.03
859.27	2318.30
859.44	2412.51
859.61	2707.41
859.78	2555.86
859.95	2342.88
860.12	2359.26
860.28	2738.13
860.45	2758.61
860.62	2379.74
860.79	2408.41
860.95	2478.04
861.12	2373.60
861.29	2285.53
861.46	2320.35
861.63	2496.47
861.79	2480.09
861.96	2349.02
862.13	2322.40
862.30	2633.69
862.47	2373.60
862.63	2351.07
862.80	2519.00
862.97	2539.48
863.14	2514.91
863.30	2416.60
863.47	2250.72
863.64	2572.25
863.81	2539.48
863.97	2359.26
864.14	2416.60
864.31	2447.32
864.48	2574.30
864.65	2418.65
864.81	2529.24
864.98	2465.75
865.15	2504.67
865.32	2453.47
865.48	2555.86
865.65	2676.70
865.82	2381.79
865.98	2473.95
866.15	2512.86
866.32	2428.89
866.49	2498.52
866.65	2490.33
866.82	2334.68
866.99	2480.09
867.16	2412.51
867.32	2340.83
867.49	2416.60
867.66	2461.66
867.83	2428.89
867.99	2344.92
868.16	2375.64
868.33	2314.20
868.49	2375.64
868.66	2340.83
868.83	2486.23
868.99	2500.57
869.16	2437.08
869.33	2568.15
869.50	2389.98
869.66	2521.05
869.83	2478.04
870.00	2318.30
870.16	2486.23
870.33	2455.51
870.50	2559.96
870.66	2410.46
870.83	2527.19
871.00	2490.33
871.17	2539.48
871.33	2510.81
871.50	2371.55
871.67	2523.10
871.83	2420.70
872.00	2508.76
872.17	2387.93
872.33	2662.36
872.50	2562.01
872.67	2416.60
872.83	2283.49
873.00	2535.39
873.17	2457.56
873.33	2504.67
873.50	2475.99
873.67	2453.47
873.83	2504.67
874.00	2482.14
874.16	2473.95
874.33	2531.29
874.50	2322.40
874.66	2316.25
874.83	2494.43
875.00	2629.59
875.16	2621.40
875.33	2416.60
875.50	2146.27
875.66	2439.13
875.83	2465.75
875.99	2572.25
876.16	2424.80
876.33	2342.88
876.49	2439.13
876.66	2381.79
876.83	2406.36
876.99	2306.01
877.16	2451.42
877.32	2336.73
877.49	2351.07
877.66	2519.00
877.82	2564.06
877.99	2473.95
878.15	2514.91
878.32	2539.48
878.49	2453.47
878.65	2336.73
878.82	2572.25
878.98	2398.17
879.15	2547.67
879.32	2496.47
879.48	2418.65
879.65	2494.43
879.81	2506.71
879.98	2432.99
880.15	2404.32
880.31	2564.06
880.48	2277.34
880.64	2498.52
880.81	2486.23
880.97	2658.26
881.14	2590.68
881.31	2322.40
881.47	2598.87
881.64	2398.17
881.80	2248.67
881.97	2400.22
882.13	2439.13
882.30	2385.88
882.47	2441.18
882.63	2392.03
882.80	2381.79
882.96	2424.80
883.13	2580.44
883.29	2392.03
883.46	2469.85
883.62	2678.74
883.79	2430.94
883.95	2512.86
884.12	2310.11
884.29	2619.35
884.45	2449.37
884.62	2449.37
884.78	2324.44
884.95	2578.39
885.11	2416.60
885.28	2449.37
885.44	2359.26
885.61	2551.77
885.77	2519.00
885.94	2484.19
886.10	2465.75
886.27	2463.71
886.43	2674.65
886.60	2547.67
886.76	2346.97
886.93	2373.60
887.09	2523.10
887.26	2220.00
887.42	2392.03
887.59	2623.45
887.75	2760.66
887.92	2512.86
888.08	2453.47
888.25	2670.55
888.41	2559.96
888.58	2437.08
888.74	2332.64
888.91	2478.04
>>>>>End Processed Spectral Data<<<<<
