SpectraSuite Data File
++++++++++++++++++++++++++++++++++++
Date: Thu May 05 14:41:42 CEST 2016
User: root
Dark Spectrum Present: No
Reference Spectrum Present: No
Number of Sampled Component Spectra: 1
Spectrometers: USB4C02835
Integration Time (usec): 100000 (USB4C02835)
Spectra Averaged: 1 (USB4C02835)
Boxcar Smoothing: 0 (USB4C02835)
Correct for Electrical Dark: No (USB4C02835)
Strobe/Lamp Enabled: No (USB4C02835)
Correct for Detector Non-linearity: No (USB4C02835)
Correct for Stray Light: No (USB4C02835)
Number of Pixels in Processed Spectrum: 3648
>>>>>Begin Processed Spectral Data<<<<<
177.47	1961.95
177.69	1961.95
177.91	1961.95
178.13	1884.13
178.36	1912.80
178.58	2416.60
178.80	2441.18
179.02	2318.30
179.24	2408.41
179.46	2342.88
179.68	2447.32
179.90	2394.08
180.13	2453.47
180.35	2232.29
180.57	2303.96
180.79	2545.63
181.01	2508.76
181.23	2322.40
181.45	2514.91
181.67	2514.91
181.90	2678.74
182.12	2367.45
182.34	2246.62
182.56	2498.52
182.78	2490.33
183.00	2324.44
183.22	2422.75
183.44	2291.68
183.66	2852.82
183.89	2514.91
184.11	2400.22
184.33	2549.72
184.55	2670.55
184.77	2277.34
184.99	2338.78
185.21	2418.65
185.43	2772.95
185.65	2301.92
185.87	2318.30
186.10	2766.81
186.32	2852.82
186.54	2441.18
186.76	2402.27
186.98	2564.06
187.20	2490.33
187.42	2365.40
187.64	2316.25
187.86	2514.91
188.08	2557.91
188.30	2252.77
188.52	2332.64
188.75	2672.60
188.97	2693.08
189.19	2342.88
189.41	2322.40
189.63	2607.06
189.85	2441.18
190.07	2248.67
190.29	2230.24
190.51	2580.44
190.73	2260.96
190.95	2547.67
191.17	2398.17
191.39	2232.29
191.61	2443.23
191.84	2293.72
192.06	2465.75
192.28	2334.68
192.50	2918.36
192.72	2400.22
192.94	2381.79
193.16	2621.40
193.38	2521.05
193.60	2326.49
193.82	2404.32
194.04	2666.46
194.26	2508.76
194.48	2377.69
194.70	2330.59
194.92	2400.22
195.14	2551.77
195.36	2371.55
195.58	2355.16
195.80	2445.27
196.02	2451.42
196.24	2236.38
196.46	2408.41
196.69	2334.68
196.91	2781.14
197.13	2392.03
197.35	2418.65
197.57	2664.41
197.79	2525.15
198.01	2396.12
198.23	2398.17
198.45	2455.51
198.67	2375.64
198.89	2187.23
199.11	2363.36
199.33	2387.93
199.55	2250.72
199.77	2381.79
199.99	2531.29
200.21	2408.41
200.43	2617.30
200.65	2285.53
200.87	2199.52
201.09	2428.89
201.31	2441.18
201.53	2424.80
201.75	2408.41
201.97	2588.63
202.19	2537.43
202.41	2426.84
202.63	2449.37
202.85	2492.38
203.07	2498.52
203.29	2303.96
203.51	2234.33
203.73	2328.54
203.95	2873.30
204.17	2375.64
204.39	2420.70
204.61	2516.95
204.83	2394.08
205.05	2408.41
205.27	2389.98
205.49	2793.43
205.71	2473.95
205.93	2260.96
206.15	2281.44
206.37	2473.95
206.59	2482.14
206.81	2254.81
207.03	2269.15
207.25	2277.34
207.47	2553.82
207.69	2344.92
207.91	2539.48
208.13	2627.54
208.34	2398.17
208.56	2301.92
208.78	2375.64
209.00	2402.27
209.22	2400.22
209.44	2357.21
209.66	2271.20
209.88	2531.29
210.10	2469.85
210.32	2277.34
210.54	2555.86
210.76	2543.58
210.98	2643.93
211.20	2250.72
211.42	2389.98
211.64	2682.84
211.86	2475.99
212.08	2422.75
212.30	2379.74
212.52	2357.21
212.74	2535.39
212.96	2416.60
213.17	2418.65
213.39	2557.91
213.61	2723.80
213.83	2359.26
214.05	2351.07
214.27	2539.48
214.49	2359.26
214.71	2306.01
214.93	2394.08
215.15	2416.60
215.37	2570.20
215.59	2228.19
215.81	2363.36
216.03	2699.22
216.24	2449.37
216.46	2336.73
216.68	2410.46
216.90	2611.16
217.12	2570.20
217.34	2269.15
217.56	2461.66
217.78	2625.50
218.00	2510.81
218.22	2457.56
218.44	2469.85
218.66	2535.39
218.87	2793.43
219.09	2322.40
219.31	2334.68
219.53	2555.86
219.75	2447.32
219.97	2416.60
220.19	2400.22
220.41	2471.90
220.63	2719.70
220.85	2299.87
221.06	2306.01
221.28	2641.88
221.50	2523.10
221.72	2324.44
221.94	2220.00
222.16	2496.47
222.38	2519.00
222.60	2367.45
222.82	2469.85
223.03	2582.49
223.25	2371.55
223.47	2383.84
223.69	2469.85
223.91	2502.62
224.13	2559.96
224.35	2252.77
224.57	2490.33
224.78	2547.67
225.00	2394.08
225.22	2371.55
225.44	2340.83
225.66	2553.82
225.88	2424.80
226.10	2400.22
226.32	2394.08
226.53	2623.45
226.75	2445.27
226.97	2385.88
227.19	2287.58
227.41	2392.03
227.63	2457.56
227.85	2217.95
228.06	2359.26
228.28	2416.60
228.50	2621.40
228.72	2174.94
228.94	2326.49
229.16	2316.25
229.37	2269.15
229.59	2306.01
229.81	2523.10
230.03	2467.80
230.25	2306.01
230.47	2277.34
230.69	2293.72
230.90	2533.34
231.12	2422.75
231.34	2367.45
231.56	2512.86
231.78	2375.64
232.00	2555.86
232.21	2273.25
232.43	2332.64
232.65	2209.76
232.87	2531.29
233.09	2258.91
233.30	2361.31
233.52	2695.13
233.74	2424.80
233.96	2303.96
234.18	2424.80
234.40	2523.10
234.61	2824.15
234.83	2336.73
235.05	2260.96
235.27	2813.91
235.49	2619.35
235.70	2303.96
235.92	2432.99
236.14	2535.39
236.36	2695.13
236.58	2299.87
236.79	2389.98
237.01	2451.42
237.23	2437.08
237.45	2469.85
237.67	2379.74
237.88	2539.48
238.10	2695.13
238.32	2310.11
238.54	2332.64
238.76	2482.14
238.97	2402.27
239.19	2228.19
239.41	2412.51
239.63	2672.60
239.85	2435.03
240.06	2334.68
240.28	2277.34
240.50	2590.68
240.72	2480.09
240.93	2340.83
241.15	2496.47
241.37	2500.57
241.59	2641.88
241.81	2359.26
242.02	2381.79
242.24	2523.10
242.46	2574.30
242.68	2283.49
242.89	2398.17
243.11	2551.77
243.33	2467.80
243.55	2406.36
243.76	2490.33
243.98	2422.75
244.20	2512.86
244.42	2334.68
244.64	2377.69
244.85	2342.88
245.07	2377.69
245.29	2420.70
245.51	2357.21
245.72	2478.04
245.94	2617.30
246.16	2357.21
246.38	2428.89
246.59	2463.71
246.81	2312.16
247.03	2293.72
247.24	2238.43
247.46	2457.56
247.68	2473.95
247.90	2312.16
248.11	2359.26
248.33	2600.92
248.55	2535.39
248.77	2383.84
248.98	2459.61
249.20	2648.02
249.42	2521.05
249.64	2357.21
249.85	2359.26
250.07	2418.65
250.29	2559.96
250.50	2494.43
250.72	2271.20
250.94	2527.19
251.16	2684.89
251.37	2377.69
251.59	2443.23
251.81	2547.67
252.02	2648.02
252.24	2289.63
252.46	2480.09
252.68	2324.44
252.89	2490.33
253.11	2146.27
253.33	2504.67
253.54	2719.70
253.76	2316.25
253.98	2351.07
254.20	2322.40
254.41	2310.11
254.63	2449.37
254.85	2285.53
255.06	2349.02
255.28	2545.63
255.50	2367.45
255.71	2314.20
255.93	2217.95
256.15	2426.84
256.36	2527.19
256.58	2332.64
256.80	2402.27
257.02	2398.17
257.23	2428.89
257.45	2330.59
257.67	2379.74
257.88	2439.13
258.10	2504.67
258.32	2365.40
258.53	2418.65
258.75	2645.98
258.97	2469.85
259.18	2306.01
259.40	2297.82
259.62	2707.41
259.83	2686.94
260.05	2424.80
260.27	2959.31
260.48	2594.78
260.70	2346.97
260.92	2273.25
261.13	2404.32
261.35	2459.61
261.57	2537.43
261.78	2207.71
262.00	2379.74
262.22	2555.86
262.43	2441.18
262.65	2314.20
262.86	2353.12
263.08	2791.38
263.30	2435.03
263.51	2156.51
263.73	2281.44
263.95	2627.54
264.16	2318.30
264.38	2287.58
264.60	2340.83
264.81	2465.75
265.03	2629.59
265.25	2594.78
265.46	2351.07
265.68	2719.70
265.89	2531.29
266.11	2263.01
266.33	2355.16
266.54	2555.86
266.76	2529.24
266.98	2400.22
267.19	2432.99
267.41	2596.82
267.62	2510.81
267.84	2260.96
268.06	2447.32
268.27	2471.90
268.49	2701.27
268.70	2445.27
268.92	2357.21
269.14	2416.60
269.35	2303.96
269.57	2428.89
269.79	2404.32
270.00	2349.02
270.22	2676.70
270.43	2306.01
270.65	2195.42
270.87	2500.57
271.08	2588.63
271.30	2463.71
271.51	2375.64
271.73	2625.50
271.95	2670.55
272.16	2381.79
272.38	2435.03
272.59	2445.27
272.81	2545.63
273.02	2332.64
273.24	2353.12
273.46	2623.45
273.67	2389.98
273.89	2316.25
274.10	2277.34
274.32	2660.31
274.54	2506.71
274.75	2449.37
274.97	2367.45
275.18	2590.68
275.40	2537.43
275.61	2471.90
275.83	2424.80
276.05	2435.03
276.26	2510.81
276.48	2410.46
276.69	2383.84
276.91	2445.27
277.12	2662.36
277.34	2529.24
277.55	2555.86
277.77	2506.71
277.99	2492.38
278.20	2316.25
278.42	2328.54
278.63	2336.73
278.85	2420.70
279.06	2293.72
279.28	2535.39
279.49	2658.26
279.71	2578.39
279.93	2424.80
280.14	2461.66
280.36	2502.62
280.57	2600.92
280.79	2496.47
281.00	2328.54
281.22	2383.84
281.43	2635.74
281.65	2279.39
281.86	2443.23
282.08	2541.53
282.29	2744.28
282.51	2207.71
282.73	2332.64
282.94	2258.91
283.16	2584.54
283.37	2512.86
283.59	2375.64
283.80	2523.10
284.02	2435.03
284.23	2465.75
284.45	2334.68
284.66	2408.41
284.88	2383.84
285.09	2465.75
285.31	2531.29
285.52	2557.91
285.74	2238.43
285.95	2525.15
286.17	2445.27
286.38	2629.59
286.60	2355.16
286.81	2406.36
287.03	2375.64
287.24	2498.52
287.46	2582.49
287.67	2482.14
287.89	2557.91
288.10	2437.08
288.32	2465.75
288.53	2549.72
288.75	2539.48
288.96	2543.58
289.18	2392.03
289.39	2416.60
289.61	2449.37
289.82	2818.00
290.04	2772.95
290.25	2312.16
290.47	2428.89
290.68	2506.71
290.90	2615.26
291.11	2195.42
291.33	2492.38
291.54	2420.70
291.76	2353.12
291.97	2549.72
292.18	2437.08
292.40	2379.74
292.61	2371.55
292.83	2629.59
293.04	2521.05
293.26	2488.28
293.47	2504.67
293.69	2406.36
293.90	2396.12
294.12	2588.63
294.33	2408.41
294.55	2365.40
294.76	2562.01
294.97	2639.83
295.19	2799.57
295.40	2385.88
295.62	2478.04
295.83	2572.25
296.05	2416.60
296.26	2512.86
296.48	2357.21
296.69	2455.51
296.90	2486.23
297.12	2531.29
297.33	2615.26
297.55	2592.73
297.76	2514.91
297.98	2535.39
298.19	2541.53
298.41	2482.14
298.62	2422.75
298.83	2512.86
299.05	2420.70
299.26	2392.03
299.48	2480.09
299.69	2457.56
299.90	2437.08
300.12	2381.79
300.33	2666.46
300.55	2492.38
300.76	2486.23
300.98	2377.69
301.19	2537.43
301.40	2404.32
301.62	2338.78
301.83	2564.06
302.05	2420.70
302.26	2355.16
302.47	2400.22
302.69	2389.98
302.90	2512.86
303.12	2279.39
303.33	2504.67
303.54	2672.60
303.76	2478.04
303.97	2439.13
304.19	2545.63
304.40	2392.03
304.61	2459.61
304.83	2572.25
305.04	2527.19
305.26	2602.97
305.47	2486.23
305.68	2367.45
305.90	2334.68
306.11	2605.02
306.33	2437.08
306.54	2346.97
306.75	2383.84
306.97	2334.68
307.18	2342.88
307.39	2357.21
307.61	2564.06
307.82	2441.18
308.04	2613.21
308.25	2324.44
308.46	2451.42
308.68	2449.37
308.89	2475.99
309.10	2555.86
309.32	2416.60
309.53	2441.18
309.74	2523.10
309.96	2387.93
310.17	2537.43
310.39	2461.66
310.60	2553.82
310.81	2432.99
311.03	2312.16
311.24	2574.30
311.45	2373.60
311.67	2635.74
311.88	2469.85
312.09	2338.78
312.31	2383.84
312.52	2400.22
312.73	2371.55
312.95	2330.59
313.16	2377.69
313.37	2586.58
313.59	2482.14
313.80	2572.25
314.01	2658.26
314.23	2408.41
314.44	2318.30
314.65	2310.11
314.87	2330.59
315.08	2392.03
315.29	2441.18
315.51	2359.26
315.72	2289.63
315.93	2514.91
316.15	2396.12
316.36	2445.27
316.57	2510.81
316.79	2482.14
317.00	2422.75
317.21	2543.58
317.43	2435.03
317.64	2451.42
317.85	2371.55
318.07	2455.51
318.28	2459.61
318.49	2543.58
318.70	2715.61
318.92	2617.30
319.13	2611.16
319.34	2652.12
319.56	2514.91
319.77	2654.17
319.98	2703.32
320.20	2580.44
320.41	2516.95
320.62	2482.14
320.83	2422.75
321.05	2650.07
321.26	2506.71
321.47	2441.18
321.69	2725.85
321.90	2394.08
322.11	2367.45
322.32	2484.19
322.54	2723.80
322.75	2422.75
322.96	2955.22
323.18	2322.40
323.39	2224.09
323.60	2383.84
323.81	2512.86
324.03	2404.32
324.24	2394.08
324.45	2510.81
324.66	2389.98
324.88	2701.27
325.09	2662.36
325.30	2443.23
325.52	2416.60
325.73	2596.82
325.94	2365.40
326.15	2244.57
326.37	2414.56
326.58	2580.44
326.79	2596.82
327.00	2330.59
327.22	2457.56
327.43	2430.94
327.64	2328.54
327.85	2510.81
328.07	2469.85
328.28	2697.17
328.49	2447.32
328.70	2449.37
328.92	2414.56
329.13	2424.80
329.34	2512.86
329.55	2490.33
329.76	2525.15
329.98	2492.38
330.19	2570.20
330.40	2467.80
330.61	2428.89
330.83	2621.40
331.04	2342.88
331.25	2498.52
331.46	2383.84
331.68	2355.16
331.89	2621.40
332.10	2482.14
332.31	2320.35
332.52	2457.56
332.74	2600.92
332.95	2248.67
333.16	2428.89
333.37	2584.54
333.58	2408.41
333.80	2406.36
334.01	2230.24
334.22	2506.71
334.43	2338.78
334.64	2334.68
334.86	2338.78
335.07	2340.83
335.28	2629.59
335.49	2287.58
335.70	2480.09
335.92	2680.79
336.13	2789.33
336.34	2469.85
336.55	2420.70
336.76	2504.67
336.98	2226.14
337.19	2398.17
337.40	2586.58
337.61	2785.24
337.82	2455.51
338.04	2473.95
338.25	2248.67
338.46	2400.22
338.67	2453.47
338.88	2414.56
339.09	2437.08
339.31	2412.51
339.52	2404.32
339.73	2340.83
339.94	2445.27
340.15	2570.20
340.36	2398.17
340.58	2506.71
340.79	2328.54
341.00	2539.48
341.21	2351.07
341.42	2594.78
341.63	2349.02
341.85	2629.59
342.06	2535.39
342.27	2367.45
342.48	2512.86
342.69	2265.05
342.90	2490.33
343.12	2584.54
343.33	2363.36
343.54	2615.26
343.75	2643.93
343.96	2437.08
344.17	2414.56
344.38	2541.53
344.60	2308.06
344.81	2383.84
345.02	2396.12
345.23	2609.11
345.44	2746.33
345.65	2510.81
345.86	2498.52
346.07	2494.43
346.29	2412.51
346.50	2617.30
346.71	2447.32
346.92	2650.07
347.13	2789.33
347.34	2490.33
347.55	2375.64
347.76	2531.29
347.98	2244.57
348.19	2404.32
348.40	2537.43
348.61	2519.00
348.82	2654.17
349.03	2480.09
349.24	2383.84
349.45	2748.37
349.66	2289.63
349.88	2441.18
350.09	2430.94
350.30	2648.02
350.51	2643.93
350.72	2416.60
350.93	2363.36
351.14	2414.56
351.35	2594.78
351.56	2416.60
351.77	2428.89
351.99	2566.10
352.20	2693.08
352.41	2514.91
352.62	2279.39
352.83	2482.14
353.04	2455.51
353.25	2455.51
353.46	2445.27
353.67	2609.11
353.88	2283.49
354.09	2447.32
354.30	2539.48
354.52	2631.64
354.73	2447.32
354.94	2451.42
355.15	2394.08
355.36	2719.70
355.57	2478.04
355.78	2449.37
355.99	2447.32
356.20	2473.95
356.41	2559.96
356.62	2451.42
356.83	2502.62
357.04	2625.50
357.25	2324.44
357.46	2357.21
357.68	2299.87
357.89	2316.25
358.10	2432.99
358.31	2430.94
358.52	2371.55
358.73	2326.49
358.94	2306.01
359.15	2408.41
359.36	2437.08
359.57	2516.95
359.78	2478.04
359.99	2537.43
360.20	2367.45
360.41	2461.66
360.62	2621.40
360.83	2463.71
361.04	2449.37
361.25	2529.24
361.46	2613.21
361.67	2498.52
361.88	2490.33
362.09	2592.73
362.30	2514.91
362.51	2396.12
362.72	2478.04
362.93	2650.07
363.14	2549.72
363.35	2535.39
363.56	2387.93
363.78	2547.67
363.99	2658.26
364.20	2430.94
364.41	2465.75
364.62	2707.41
364.83	2531.29
365.04	2432.99
365.25	2400.22
365.46	2727.89
365.67	2338.78
365.88	2410.46
366.09	2410.46
366.30	2424.80
366.51	2512.86
366.72	2314.20
366.93	2490.33
367.14	2500.57
367.35	2670.55
367.56	2400.22
367.77	2535.39
367.98	2512.86
368.18	2547.67
368.39	2539.48
368.60	2367.45
368.81	2578.39
369.02	2576.34
369.23	2344.92
369.44	2303.96
369.65	2494.43
369.86	2510.81
370.07	2506.71
370.28	2308.06
370.49	2537.43
370.70	2582.49
370.91	2383.84
371.12	2326.49
371.33	2555.86
371.54	2461.66
371.75	2514.91
371.96	2211.81
372.17	2549.72
372.38	2480.09
372.59	2539.48
372.80	2367.45
373.01	2422.75
373.22	2514.91
373.43	2455.51
373.64	2318.30
373.85	2686.94
374.06	2676.70
374.26	2559.96
374.47	2490.33
374.68	2623.45
374.89	2510.81
375.10	2457.56
375.31	2537.43
375.52	2461.66
375.73	2449.37
375.94	2332.64
376.15	2543.58
376.36	2408.41
376.57	2453.47
376.78	2351.07
376.99	2414.56
377.20	2697.17
377.40	2383.84
377.61	2701.27
377.82	2359.26
378.03	2564.06
378.24	2645.98
378.45	2535.39
378.66	2512.86
378.87	2232.29
379.08	2291.68
379.29	2408.41
379.50	2609.11
379.71	2480.09
379.91	2492.38
380.12	2432.99
380.33	2465.75
380.54	2406.36
380.75	2398.17
380.96	2441.18
381.17	2488.28
381.38	2480.09
381.59	2453.47
381.80	2404.32
382.00	2652.12
382.21	2547.67
382.42	2711.51
382.63	2664.41
382.84	2572.25
383.05	2607.06
383.26	2678.74
383.47	2547.67
383.68	2543.58
383.88	2549.72
384.09	2514.91
384.30	2643.93
384.51	2480.09
384.72	2432.99
384.93	2424.80
385.14	2402.27
385.35	2568.15
385.55	2334.68
385.76	2648.02
385.97	2420.70
386.18	2334.68
386.39	2422.75
386.60	2486.23
386.81	2412.51
387.02	2383.84
387.22	2377.69
387.43	2596.82
387.64	2576.34
387.85	2629.59
388.06	2699.22
388.27	4100.03
388.48	8312.71
388.68	11925.32
388.89	14733.09
389.10	15869.71
389.31	14761.76
389.52	11624.27
389.73	10125.16
389.93	8976.25
390.14	8392.58
390.35	7518.09
390.56	6789.02
390.77	5273.52
390.98	4134.85
391.18	3340.24
391.39	2940.88
391.60	2557.91
391.81	2570.20
392.02	2469.85
392.23	2840.53
392.43	2475.99
392.64	2559.96
392.85	2473.95
393.06	2695.13
393.27	2512.86
393.47	2385.88
393.68	2488.28
393.89	2504.67
394.10	2709.46
394.31	2424.80
394.52	2330.59
394.72	2402.27
394.93	2717.65
395.14	2320.35
395.35	2531.29
395.56	2349.02
395.76	2506.71
395.97	2478.04
396.18	2607.06
396.39	2672.60
396.60	2996.18
396.80	2750.42
397.01	2555.86
397.22	2623.45
397.43	2695.13
397.64	2488.28
397.84	2539.48
398.05	2795.48
398.26	2420.70
398.47	2547.67
398.67	2572.25
398.88	2525.15
399.09	2559.96
399.30	2398.17
399.51	2559.96
399.71	2408.41
399.92	2541.53
400.13	2537.43
400.34	2449.37
400.54	2545.63
400.75	2701.27
400.96	2453.47
401.17	2654.17
401.37	2572.25
401.58	2537.43
401.79	2369.50
402.00	2570.20
402.21	2838.48
402.41	2723.80
402.62	2789.33
402.83	2893.78
403.04	2951.12
403.24	3143.63
403.45	2629.59
403.66	2768.85
403.87	2684.89
404.07	2834.39
404.28	2674.65
404.49	2750.42
404.70	2523.10
404.90	2635.74
405.11	2535.39
405.32	2516.95
405.52	2406.36
405.73	2357.21
405.94	2400.22
406.15	2432.99
406.35	2594.78
406.56	2541.53
406.77	2494.43
406.98	2435.03
407.18	2408.41
407.39	2674.65
407.60	2414.56
407.80	2541.53
408.01	2392.03
408.22	2582.49
408.43	2369.50
408.63	2408.41
408.84	2555.86
409.05	2531.29
409.25	2353.12
409.46	2383.84
409.67	2439.13
409.88	2412.51
410.08	2510.81
410.29	2453.47
410.50	2547.67
410.70	2547.67
410.91	2318.30
411.12	2494.43
411.32	2404.32
411.53	2355.16
411.74	2564.06
411.95	2623.45
412.15	2523.10
412.36	2650.07
412.57	2588.63
412.77	2562.01
412.98	2482.14
413.19	2367.45
413.39	2500.57
413.60	2555.86
413.81	2588.63
414.01	2412.51
414.22	2502.62
414.43	2625.50
414.63	2504.67
414.84	2629.59
415.05	2445.27
415.25	2324.44
415.46	2555.86
415.67	2387.93
415.87	2510.81
416.08	2439.13
416.29	2355.16
416.49	2592.73
416.70	2457.56
416.91	2371.55
417.11	2443.23
417.32	2598.87
417.53	2557.91
417.73	2547.67
417.94	2484.19
418.15	2498.52
418.35	2406.36
418.56	2535.39
418.77	2807.77
418.97	2463.71
419.18	2430.94
419.38	2183.13
419.59	2496.47
419.80	2629.59
420.00	2445.27
420.21	2510.81
420.42	2695.13
420.62	2592.73
420.83	2365.40
421.04	2406.36
421.24	2492.38
421.45	2568.15
421.65	2525.15
421.86	2363.36
422.07	2596.82
422.27	2609.11
422.48	2480.09
422.69	2326.49
422.89	2488.28
423.10	2367.45
423.30	2336.73
423.51	2469.85
423.72	2502.62
423.92	2609.11
424.13	2256.86
424.33	2439.13
424.54	2613.21
424.75	2508.76
424.95	2676.70
425.16	2439.13
425.36	2506.71
425.57	2623.45
425.78	2572.25
425.98	2539.48
426.19	2478.04
426.39	2367.45
426.60	2510.81
426.81	2572.25
427.01	2506.71
427.22	2342.88
427.42	2285.53
427.63	2392.03
427.83	2609.11
428.04	2691.03
428.25	2609.11
428.45	2543.58
428.66	2641.88
428.86	2478.04
429.07	2400.22
429.28	2453.47
429.48	2437.08
429.69	2353.12
429.89	2451.42
430.10	2332.64
430.30	2580.44
430.51	2633.69
430.71	2426.84
430.92	2484.19
431.13	2457.56
431.33	2519.00
431.54	2465.75
431.74	2615.26
431.95	2770.90
432.15	2396.12
432.36	2426.84
432.56	2586.58
432.77	2662.36
432.98	2725.85
433.18	2457.56
433.39	2439.13
433.59	2490.33
433.80	2736.09
434.00	2658.26
434.21	2389.98
434.41	2400.22
434.62	2850.77
434.82	2396.12
435.03	2344.92
435.23	2562.01
435.44	2273.25
435.64	2402.27
435.85	2457.56
436.06	2605.02
436.26	2512.86
436.47	2408.41
436.67	2383.84
436.88	2408.41
437.08	2754.52
437.29	2615.26
437.49	2469.85
437.70	2625.50
437.90	2469.85
438.11	2613.21
438.31	2508.76
438.52	2627.54
438.72	2717.65
438.93	2734.04
439.13	2551.77
439.34	2619.35
439.54	2510.81
439.75	2572.25
439.95	2506.71
440.16	2428.89
440.36	2494.43
440.57	2469.85
440.77	2500.57
440.98	2527.19
441.18	2551.77
441.39	2351.07
441.59	2367.45
441.80	2725.85
442.00	2506.71
442.21	2551.77
442.41	2303.96
442.62	2637.78
442.82	2435.03
443.02	2424.80
443.23	2465.75
443.43	2490.33
443.64	2711.51
443.84	2355.16
444.05	2570.20
444.25	2480.09
444.46	2406.36
444.66	2437.08
444.87	2684.89
445.07	2330.59
445.28	2529.24
445.48	2674.65
445.69	2502.62
445.89	2793.43
446.09	2478.04
446.30	2756.57
446.50	2979.79
446.71	4665.27
446.91	5746.60
447.12	6713.24
447.32	7012.24
447.53	6664.09
447.73	5527.47
447.93	4870.07
448.14	4442.04
448.34	4341.69
448.55	3827.65
448.75	3866.56
448.96	3637.19
449.16	3272.65
449.36	3094.48
449.57	2846.68
449.77	2562.01
449.98	2471.90
450.18	2605.02
450.39	2564.06
450.59	2582.49
450.79	2564.06
451.00	2418.65
451.20	2539.48
451.41	2422.75
451.61	2496.47
451.81	2420.70
452.02	2441.18
452.22	2402.27
452.43	2516.95
452.63	2373.60
452.84	2490.33
453.04	2441.18
453.24	2543.58
453.45	2373.60
453.65	2502.62
453.86	2465.75
454.06	2580.44
454.26	2596.82
454.47	2408.41
454.67	2631.64
454.87	2559.96
455.08	2473.95
455.28	2596.82
455.49	2488.28
455.69	2414.56
455.89	2811.86
456.10	2570.20
456.30	2467.80
456.51	2539.48
456.71	2486.23
456.91	2467.80
457.12	2469.85
457.32	2553.82
457.52	2379.74
457.73	2643.93
457.93	2586.58
458.14	2408.41
458.34	2297.82
458.54	2414.56
458.75	2441.18
458.95	2623.45
459.15	2490.33
459.36	2480.09
459.56	2441.18
459.76	2811.86
459.97	2582.49
460.17	2416.60
460.37	2531.29
460.58	2484.19
460.78	2543.58
460.99	2478.04
461.19	2504.67
461.39	2383.84
461.60	2498.52
461.80	2502.62
462.00	2375.64
462.21	2469.85
462.41	2400.22
462.61	2359.26
462.82	2244.57
463.02	2580.44
463.22	2527.19
463.43	2486.23
463.63	2455.51
463.83	2641.88
464.04	2602.97
464.24	2461.66
464.44	2400.22
464.64	2488.28
464.85	2510.81
465.05	2564.06
465.25	2377.69
465.46	2500.57
465.66	2537.43
465.86	2545.63
466.07	2504.67
466.27	2404.32
466.47	2258.91
466.68	2279.39
466.88	2586.58
467.08	2580.44
467.29	2598.87
467.49	2541.53
467.69	2469.85
467.89	2529.24
468.10	2389.98
468.30	2389.98
468.50	2592.73
468.71	2635.74
468.91	2367.45
469.11	2596.82
469.31	2435.03
469.52	2361.31
469.72	2703.32
469.92	2711.51
470.13	2424.80
470.33	2516.95
470.53	2688.98
470.73	2797.53
470.94	3241.93
471.14	3481.55
471.34	3848.13
471.54	3796.93
471.75	3391.44
471.95	3100.62
472.15	3063.76
472.36	3059.67
472.56	2990.03
472.76	2938.84
472.96	2916.31
473.17	2777.05
473.37	2752.47
473.57	2586.58
473.77	2549.72
473.98	2562.01
474.18	2289.63
474.38	2928.60
474.58	2484.19
474.79	2398.17
474.99	2490.33
475.19	2596.82
475.39	2385.88
475.60	2506.71
475.80	2488.28
476.00	2498.52
476.20	2457.56
476.41	2473.95
476.61	2519.00
476.81	2691.03
477.01	2432.99
477.21	2617.30
477.42	2605.02
477.62	2365.40
477.82	2615.26
478.02	2428.89
478.23	2494.43
478.43	2371.55
478.63	2445.27
478.83	2473.95
479.03	2465.75
479.24	2641.88
479.44	2789.33
479.64	2351.07
479.84	2258.91
480.04	2330.59
480.25	2584.54
480.45	2416.60
480.65	2441.18
480.85	2662.36
481.06	2480.09
481.26	2562.01
481.46	2555.86
481.66	2521.05
481.86	2387.93
482.06	2596.82
482.27	2504.67
482.47	2480.09
482.67	2514.91
482.87	2398.17
483.07	2551.77
483.28	2428.89
483.48	2330.59
483.68	2449.37
483.88	2301.92
484.08	2248.67
484.29	2363.36
484.49	2564.06
484.69	2373.60
484.89	2654.17
485.09	2684.89
485.29	2547.67
485.50	2498.52
485.70	2404.32
485.90	2602.97
486.10	2453.47
486.30	2494.43
486.50	2594.78
486.71	2519.00
486.91	2578.39
487.11	2527.19
487.31	2351.07
487.51	2555.86
487.71	2363.36
487.91	2447.32
488.12	2377.69
488.32	2301.92
488.52	2392.03
488.72	2242.53
488.92	2562.01
489.12	2666.46
489.32	2588.63
489.53	2568.15
489.73	2346.97
489.93	2703.32
490.13	2422.75
490.33	2308.06
490.53	2463.71
490.73	2637.78
490.94	2234.33
491.14	2533.34
491.34	2607.06
491.54	2779.09
491.74	3432.40
491.94	3981.25
492.14	4364.22
492.34	4394.94
492.54	4003.78
492.75	3438.54
492.95	3461.07
493.15	3297.23
493.35	3147.73
493.55	3043.28
493.75	2957.27
493.95	3045.33
494.15	2818.00
494.35	2574.30
494.56	2631.64
494.76	2463.71
494.96	2592.73
495.16	2533.34
495.36	2510.81
495.56	2582.49
495.76	2543.58
495.96	2422.75
496.16	2463.71
496.36	2684.89
496.56	2449.37
496.77	2482.14
496.97	2449.37
497.17	2588.63
497.37	2297.82
497.57	2516.95
497.77	2484.19
497.97	2394.08
498.17	2514.91
498.37	2506.71
498.57	2596.82
498.77	2457.56
498.97	2568.15
499.17	2670.55
499.38	2416.60
499.58	2588.63
499.78	2596.82
499.98	2598.87
500.18	2465.75
500.38	2447.32
500.58	2627.54
500.78	3170.26
500.98	5345.20
501.18	7526.29
501.38	9131.89
501.58	10116.97
501.78	10096.49
501.98	7962.50
502.18	6719.39
502.38	5846.95
502.58	5412.78
502.78	4833.21
502.98	4771.77
503.18	4599.74
503.38	4079.55
503.59	3520.46
503.79	3401.68
503.99	3166.16
504.19	3153.87
504.39	3088.34
504.59	3151.82
504.79	3096.53
504.99	3137.49
505.19	2908.12
505.39	2688.98
505.59	2916.31
505.79	2865.11
505.99	2725.85
506.19	2490.33
506.39	2736.09
506.59	2432.99
506.79	2490.33
506.99	2719.70
507.19	2428.89
507.39	2629.59
507.59	2367.45
507.79	2441.18
507.99	2357.21
508.19	2596.82
508.39	2426.84
508.59	2422.75
508.79	2674.65
508.99	2795.48
509.19	2457.56
509.39	2514.91
509.59	2338.78
509.79	2443.23
509.99	2551.77
510.19	2555.86
510.39	2529.24
510.59	2449.37
510.79	2432.99
510.99	2277.34
511.19	2473.95
511.39	2758.61
511.59	2590.68
511.79	2600.92
511.99	2486.23
512.19	2693.08
512.38	2500.57
512.58	2297.82
512.78	2420.70
512.98	2596.82
513.18	2785.24
513.38	2285.53
513.58	2541.53
513.78	2430.94
513.98	2439.13
514.18	2441.18
514.38	2373.60
514.58	2602.97
514.78	2406.36
514.98	2359.26
515.18	2402.27
515.38	2244.57
515.58	2727.89
515.78	2469.85
515.98	2482.14
516.18	2551.77
516.38	2555.86
516.57	2461.66
516.77	2420.70
516.97	2494.43
517.17	2533.34
517.37	2238.43
517.57	2504.67
517.77	2486.23
517.97	2363.36
518.17	2564.06
518.37	2400.22
518.57	2453.47
518.77	2439.13
518.97	2443.23
519.16	2490.33
519.36	2605.02
519.56	2392.03
519.76	2484.19
519.96	2492.38
520.16	2637.78
520.36	2396.12
520.56	2586.58
520.76	2445.27
520.96	2478.04
521.16	2553.82
521.35	2605.02
521.55	2633.69
521.75	2449.37
521.95	2473.95
522.15	2375.64
522.35	2322.40
522.55	2392.03
522.75	2619.35
522.95	2473.95
523.14	2328.54
523.34	2494.43
523.54	2441.18
523.74	2412.51
523.94	2527.19
524.14	2310.11
524.34	2605.02
524.54	2637.78
524.73	2379.74
524.93	2578.39
525.13	2498.52
525.33	2340.83
525.53	2686.94
525.73	2617.30
525.93	2486.23
526.13	2392.03
526.32	2402.27
526.52	2719.70
526.72	2617.30
526.92	2426.84
527.12	2422.75
527.32	2332.64
527.52	2484.19
527.71	2521.05
527.91	2488.28
528.11	2408.41
528.31	2410.46
528.51	2408.41
528.71	2580.44
528.90	2514.91
529.10	2578.39
529.30	2578.39
529.50	2250.72
529.70	2504.67
529.90	2406.36
530.09	2533.34
530.29	2285.53
530.49	2432.99
530.69	2785.24
530.89	2492.38
531.09	2541.53
531.28	2441.18
531.48	2670.55
531.68	2516.95
531.88	2547.67
532.08	2701.27
532.28	2451.42
532.47	2416.60
532.67	2609.11
532.87	2637.78
533.07	2408.41
533.27	2539.48
533.46	2537.43
533.66	2490.33
533.86	2635.74
534.06	2465.75
534.26	2555.86
534.45	2568.15
534.65	2596.82
534.85	2496.47
535.05	2414.56
535.25	2625.50
535.44	2342.88
535.64	2539.48
535.84	2404.32
536.04	2420.70
536.24	2480.09
536.43	2410.46
536.63	2469.85
536.83	2451.42
537.03	2527.19
537.22	2340.83
537.42	2273.25
537.62	2574.30
537.82	2396.12
538.02	2605.02
538.21	2598.87
538.41	2797.53
538.61	2598.87
538.81	2512.86
539.00	2584.54
539.20	2357.21
539.40	2473.95
539.60	2459.61
539.79	2537.43
539.99	2506.71
540.19	2398.17
540.39	2453.47
540.58	2510.81
540.78	2584.54
540.98	2514.91
541.18	2672.60
541.37	2469.85
541.57	2514.91
541.77	2564.06
541.97	2338.78
542.16	2342.88
542.36	2471.90
542.56	2439.13
542.76	2686.94
542.95	2447.32
543.15	2596.82
543.35	2549.72
543.54	2383.84
543.74	2363.36
543.94	2625.50
544.14	2379.74
544.33	2535.39
544.53	2435.03
544.73	2529.24
544.93	2338.78
545.12	2512.86
545.32	2449.37
545.52	2467.80
545.71	2322.40
545.91	2424.80
546.11	2392.03
546.30	2408.41
546.50	2465.75
546.70	2545.63
546.90	2514.91
547.09	2394.08
547.29	2463.71
547.49	2527.19
547.68	2494.43
547.88	2402.27
548.08	2547.67
548.27	2949.08
548.47	2387.93
548.67	2392.03
548.87	2588.63
549.06	2398.17
549.26	2461.66
549.46	2564.06
549.65	2441.18
549.85	2473.95
550.05	2584.54
550.24	2359.26
550.44	2498.52
550.64	2414.56
550.83	2392.03
551.03	2607.06
551.23	2607.06
551.42	2506.71
551.62	2537.43
551.82	2443.23
552.01	2455.51
552.21	2662.36
552.41	2422.75
552.60	2648.02
552.80	2514.91
553.00	2389.98
553.19	2455.51
553.39	2693.08
553.59	2357.21
553.78	2537.43
553.98	2451.42
554.17	2318.30
554.37	2584.54
554.57	2553.82
554.76	2322.40
554.96	2402.27
555.16	2484.19
555.35	2461.66
555.55	2498.52
555.75	2496.47
555.94	2643.93
556.14	2291.68
556.33	2508.76
556.53	2592.73
556.73	2506.71
556.92	2621.40
557.12	2535.39
557.32	2725.85
557.51	2668.50
557.71	2562.01
557.90	2684.89
558.10	2658.26
558.30	2492.38
558.49	2478.04
558.69	2420.70
558.88	2559.96
559.08	2539.48
559.28	2408.41
559.47	2463.71
559.67	2559.96
559.86	2838.48
560.06	2461.66
560.26	2420.70
560.45	2490.33
560.65	2498.52
560.84	2631.64
561.04	2369.50
561.24	2490.33
561.43	2412.51
561.63	2695.13
561.82	2512.86
562.02	2547.67
562.22	2404.32
562.41	2355.16
562.61	2424.80
562.80	2375.64
563.00	2772.95
563.19	2455.51
563.39	2584.54
563.59	2529.24
563.78	2349.02
563.98	2269.15
564.17	2447.32
564.37	2336.73
564.56	2527.19
564.76	2373.60
564.96	2551.77
565.15	2600.92
565.35	2826.20
565.54	2394.08
565.74	2523.10
565.93	2596.82
566.13	2512.86
566.32	2539.48
566.52	2486.23
566.71	2537.43
566.91	2645.98
567.11	2541.53
567.30	2392.03
567.50	2537.43
567.69	2539.48
567.89	2392.03
568.08	2363.36
568.28	2482.14
568.47	2353.12
568.67	2547.67
568.86	2475.99
569.06	2570.20
569.25	2463.71
569.45	2349.02
569.64	2471.90
569.84	2416.60
570.04	2547.67
570.23	2463.71
570.43	2498.52
570.62	2498.52
570.82	2697.17
571.01	2336.73
571.21	2465.75
571.40	2355.16
571.60	2551.77
571.79	2463.71
571.99	2494.43
572.18	2387.93
572.38	2570.20
572.57	2439.13
572.77	2467.80
572.96	2791.38
573.16	2594.78
573.35	2441.18
573.55	2607.06
573.74	2539.48
573.94	2531.29
574.13	2512.86
574.33	2594.78
574.52	2709.46
574.71	2555.86
574.91	2519.00
575.10	2314.20
575.30	2490.33
575.49	2420.70
575.69	2371.55
575.88	2555.86
576.08	2619.35
576.27	2760.66
576.47	2562.01
576.66	2652.12
576.86	2731.99
577.05	2572.25
577.25	2512.86
577.44	2715.61
577.64	2404.32
577.83	2578.39
578.02	2469.85
578.22	2682.84
578.41	2775.00
578.61	2547.67
578.80	2324.44
579.00	2467.80
579.19	2523.10
579.39	2715.61
579.58	2500.57
579.77	2490.33
579.97	2654.17
580.16	2611.16
580.36	2578.39
580.55	2549.72
580.75	2559.96
580.94	2605.02
581.13	2662.36
581.33	2650.07
581.52	2531.29
581.72	2760.66
581.91	2605.02
582.11	2432.99
582.30	2580.44
582.49	2512.86
582.69	2772.95
582.88	2619.35
583.08	2564.06
583.27	2617.30
583.47	2566.10
583.66	2349.02
583.85	2361.31
584.05	2516.95
584.24	2582.49
584.44	2516.95
584.63	2648.02
584.82	2648.02
585.02	2639.83
585.21	2705.37
585.41	2645.98
585.60	2580.44
585.79	2731.99
585.99	2652.12
586.18	2668.50
586.37	3256.27
586.57	4997.04
586.76	14964.51
586.96	34635.25
587.15	47969.57
587.34	57248.92
587.54	61838.42
587.73	55764.14
587.93	39200.17
588.12	29961.78
588.31	24229.52
588.51	21167.80
588.70	19369.69
588.89	17481.46
589.09	14960.41
589.28	12709.69
589.47	10215.27
589.67	7937.93
589.86	6244.26
590.06	4560.83
590.25	3833.80
590.44	3299.28
590.64	3043.28
590.83	2863.06
591.02	2787.29
591.22	2637.78
591.41	2627.54
591.60	2488.28
591.80	2936.79
591.99	2375.64
592.18	2506.71
592.38	2609.11
592.57	2424.80
592.76	2523.10
592.96	2605.02
593.15	2490.33
593.34	2715.61
593.54	2486.23
593.73	2516.95
593.92	2637.78
594.12	2654.17
594.31	2539.48
594.50	2729.94
594.70	2588.63
594.89	2848.72
595.08	2346.97
595.28	2613.21
595.47	2949.08
595.66	2641.88
595.86	2471.90
596.05	2467.80
596.24	2441.18
596.43	2736.09
596.63	2635.74
596.82	2621.40
597.01	2576.34
597.21	2727.89
597.40	2535.39
597.59	2545.63
597.79	2539.48
597.98	2590.68
598.17	2543.58
598.36	2549.72
598.56	2574.30
598.75	2430.94
598.94	2596.82
599.14	2531.29
599.33	2494.43
599.52	2631.64
599.71	2580.44
599.91	2572.25
600.10	2625.50
600.29	2582.49
600.48	2578.39
600.68	2555.86
600.87	2557.91
601.06	2486.23
601.26	2455.51
601.45	2562.01
601.64	2453.47
601.83	2709.46
602.03	2428.89
602.22	2412.51
602.41	2555.86
602.60	2848.72
602.80	2523.10
602.99	2576.34
603.18	2504.67
603.37	2500.57
603.57	2465.75
603.76	2568.15
603.95	2672.60
604.14	2455.51
604.34	2299.87
604.53	2480.09
604.72	2492.38
604.91	2600.92
605.10	2498.52
605.30	2344.92
605.49	2637.78
605.68	2574.30
605.87	2545.63
606.07	2383.84
606.26	2547.67
606.45	2543.58
606.64	2519.00
606.84	2424.80
607.03	2602.97
607.22	2617.30
607.41	2508.76
607.60	2496.47
607.80	2623.45
607.99	2445.27
608.18	2443.23
608.37	2478.04
608.56	2412.51
608.76	2693.08
608.95	2746.33
609.14	2562.01
609.33	2717.65
609.52	2699.22
609.72	2525.15
609.91	2648.02
610.10	2539.48
610.29	2639.83
610.48	2512.86
610.68	2514.91
610.87	2545.63
611.06	2611.16
611.25	2473.95
611.44	2527.19
611.63	2410.46
611.83	2703.32
612.02	2353.12
612.21	2508.76
612.40	2258.91
612.59	2416.60
612.79	2312.16
612.98	2531.29
613.17	2678.74
613.36	2514.91
613.55	2682.84
613.74	2486.23
613.93	2686.94
614.13	2793.43
614.32	2707.41
614.51	2643.93
614.70	2605.02
614.89	2480.09
615.08	2615.26
615.28	2961.36
615.47	2422.75
615.66	2631.64
615.85	2555.86
616.04	2748.37
616.23	2478.04
616.42	2504.67
616.62	2539.48
616.81	2506.71
617.00	2469.85
617.19	2588.63
617.38	2420.70
617.57	2555.86
617.76	2525.15
617.95	2666.46
618.15	2586.58
618.34	2754.52
618.53	2334.68
618.72	2680.79
618.91	2551.77
619.10	2596.82
619.29	2496.47
619.48	2514.91
619.68	2400.22
619.87	2545.63
620.06	2465.75
620.25	2572.25
620.44	2416.60
620.63	2525.15
620.82	2523.10
621.01	2514.91
621.20	2359.26
621.39	2533.34
621.59	2531.29
621.78	2424.80
621.97	2451.42
622.16	2564.06
622.35	2557.91
622.54	2584.54
622.73	2555.86
622.92	2244.57
623.11	2590.68
623.30	2496.47
623.49	2543.58
623.68	2416.60
623.88	2641.88
624.07	2435.03
624.26	2400.22
624.45	2443.23
624.64	2496.47
624.83	2549.72
625.02	2461.66
625.21	2588.63
625.40	2576.34
625.59	2623.45
625.78	2519.00
625.97	2625.50
626.16	2707.41
626.35	2613.21
626.54	2619.35
626.74	2688.98
626.93	2514.91
627.12	2496.47
627.31	2621.40
627.50	2611.16
627.69	2619.35
627.88	2457.56
628.07	2363.36
628.26	2328.54
628.45	2389.98
628.64	2377.69
628.83	2404.32
629.02	2369.50
629.21	2588.63
629.40	2570.20
629.59	2322.40
629.78	2473.95
629.97	2475.99
630.16	2512.86
630.35	2461.66
630.54	2494.43
630.73	2443.23
630.92	2557.91
631.11	2394.08
631.30	2482.14
631.49	2605.02
631.68	2512.86
631.87	2502.62
632.06	2318.30
632.25	2795.48
632.44	2553.82
632.63	2523.10
632.82	2590.68
633.01	2435.03
633.20	2672.60
633.39	2545.63
633.58	2428.89
633.77	2576.34
633.96	2529.24
634.15	2576.34
634.34	2533.34
634.53	2602.97
634.72	2457.56
634.91	2363.36
635.10	2514.91
635.29	2617.30
635.48	2533.34
635.67	2396.12
635.86	2314.20
636.05	2633.69
636.24	2519.00
636.43	2478.04
636.62	2551.77
636.81	2199.52
637.00	2465.75
637.19	2504.67
637.38	2482.14
637.57	2488.28
637.76	2549.72
637.95	2621.40
638.14	2545.63
638.33	2592.73
638.52	2615.26
638.71	2498.52
638.89	2367.45
639.08	2807.77
639.27	2705.37
639.46	2752.47
639.65	3145.68
639.84	3129.30
640.03	3342.28
640.22	3196.88
640.41	3071.95
640.60	2717.65
640.79	2766.81
640.98	2656.22
641.17	2760.66
641.36	2754.52
641.55	2664.41
641.74	2365.40
641.92	2449.37
642.11	2420.70
642.30	2516.95
642.49	2475.99
642.68	2455.51
642.87	2588.63
643.06	2551.77
643.25	2416.60
643.44	2398.17
643.63	2480.09
643.82	2619.35
644.00	2342.88
644.19	2469.85
644.38	2383.84
644.57	2637.78
644.76	2498.52
644.95	2445.27
645.14	2527.19
645.33	2459.61
645.52	2463.71
645.71	2318.30
645.89	2385.88
646.08	2486.23
646.27	2424.80
646.46	2693.08
646.65	2357.21
646.84	2449.37
647.03	2289.63
647.22	2547.67
647.40	2512.86
647.59	2441.18
647.78	2287.58
647.97	2416.60
648.16	2383.84
648.35	2594.78
648.54	2547.67
648.73	2416.60
648.91	2586.58
649.10	2451.42
649.29	2404.32
649.48	2467.80
649.67	2512.86
649.86	2521.05
650.05	2506.71
650.23	2779.09
650.42	2490.33
650.61	2754.52
650.80	2658.26
650.99	2777.05
651.18	2617.30
651.36	2592.73
651.55	2471.90
651.74	2652.12
651.93	2494.43
652.12	2498.52
652.31	2498.52
652.49	2432.99
652.68	2428.89
652.87	2713.56
653.06	2478.04
653.25	2617.30
653.44	2529.24
653.62	2668.50
653.81	2465.75
654.00	2488.28
654.19	2588.63
654.38	2809.81
654.56	2545.63
654.75	2469.85
654.94	2609.11
655.13	2422.75
655.32	2488.28
655.51	2547.67
655.69	2320.35
655.88	2650.07
656.07	2349.02
656.26	2510.81
656.45	2336.73
656.63	2537.43
656.82	2473.95
657.01	2559.96
657.20	2375.64
657.38	2672.60
657.57	2424.80
657.76	2314.20
657.95	2621.40
658.14	2404.32
658.32	2500.57
658.51	2318.30
658.70	2559.96
658.89	2543.58
659.08	2490.33
659.26	2674.65
659.45	2449.37
659.64	2609.11
659.83	2424.80
660.01	2832.34
660.20	2473.95
660.39	2734.04
660.58	2283.49
660.76	2478.04
660.95	2336.73
661.14	2467.80
661.33	2289.63
661.51	2498.52
661.70	2437.08
661.89	2549.72
662.08	2475.99
662.26	2392.03
662.45	2410.46
662.64	2719.70
662.83	2512.86
663.01	2381.79
663.20	2482.14
663.39	2584.54
663.58	2467.80
663.76	2385.88
663.95	2521.05
664.14	2398.17
664.32	2473.95
664.51	2373.60
664.70	2267.10
664.89	2432.99
665.07	2338.78
665.26	2475.99
665.45	2246.62
665.64	2541.53
665.82	2488.28
666.01	2564.06
666.20	2306.01
666.38	2607.06
666.57	2643.93
666.76	3971.01
666.95	9711.47
667.13	17979.12
667.32	22714.02
667.51	26535.53
667.69	27584.09
667.88	24942.21
668.07	17516.28
668.25	14255.91
668.44	12099.40
668.63	10178.40
668.81	9119.60
669.00	7880.58
669.19	7026.58
669.38	6162.34
669.56	5218.22
669.75	4419.52
669.94	3872.71
670.12	3252.17
670.31	2873.30
670.50	2740.18
670.68	2699.22
670.87	2643.93
671.06	2504.67
671.24	2625.50
671.43	2777.05
671.62	2609.11
671.80	2418.65
671.99	2576.34
672.18	2545.63
672.36	2572.25
672.55	2512.86
672.74	2531.29
672.92	2453.47
673.11	2562.01
673.29	2355.16
673.48	2582.49
673.67	2426.84
673.85	2619.35
674.04	2447.32
674.23	2488.28
674.41	2750.42
674.60	2389.98
674.79	2207.71
674.97	2351.07
675.16	2654.17
675.34	2615.26
675.53	2398.17
675.72	2490.33
675.90	2777.05
676.09	2428.89
676.28	2492.38
676.46	2308.06
676.65	2584.54
676.83	2344.92
677.02	2490.33
677.21	2486.23
677.39	2514.91
677.58	2359.26
677.77	2392.03
677.95	2400.22
678.14	2482.14
678.32	2490.33
678.51	2334.68
678.70	2693.08
678.88	2457.56
679.07	2576.34
679.25	2389.98
679.44	2432.99
679.63	2363.36
679.81	2553.82
680.00	2596.82
680.18	2519.00
680.37	2621.40
680.55	2490.33
680.74	2295.77
680.93	2158.56
681.11	2514.91
681.30	2469.85
681.48	2494.43
681.67	2426.84
681.85	2465.75
682.04	2432.99
682.23	2625.50
682.41	2478.04
682.60	2424.80
682.78	2475.99
682.97	2404.32
683.15	2394.08
683.34	2463.71
683.53	2627.54
683.71	2303.96
683.90	2543.58
684.08	2711.51
684.27	2441.18
684.45	2519.00
684.64	2541.53
684.82	2414.56
685.01	2527.19
685.19	2443.23
685.38	2615.26
685.57	2553.82
685.75	2375.64
685.94	2392.03
686.12	2398.17
686.31	2443.23
686.49	2670.55
686.68	2263.01
686.86	2482.14
687.05	2416.60
687.23	2682.84
687.42	2424.80
687.60	2252.77
687.79	2592.73
687.97	2588.63
688.16	2547.67
688.34	2582.49
688.53	2260.96
688.71	2537.43
688.90	2607.06
689.08	2465.75
689.27	2359.26
689.45	2539.48
689.64	2469.85
689.82	2484.19
690.01	2519.00
690.19	2596.82
690.38	2480.09
690.56	2584.54
690.75	2426.84
690.93	2461.66
691.12	2498.52
691.30	2457.56
691.49	2492.38
691.67	2424.80
691.86	2729.94
692.04	2365.40
692.23	2392.03
692.41	2555.86
692.60	2850.77
692.78	2668.50
692.97	2531.29
693.15	2549.72
693.34	2705.37
693.52	2695.13
693.71	2482.14
693.89	2443.23
694.08	2279.39
694.26	2529.24
694.44	2596.82
694.63	2539.48
694.81	2297.82
695.00	2400.22
695.18	2613.21
695.37	2709.46
695.55	2400.22
695.74	2416.60
695.92	2383.84
696.10	2703.32
696.29	2265.05
696.47	2439.13
696.66	2375.64
696.84	2340.83
697.03	2453.47
697.21	2688.98
697.40	3702.73
697.58	2625.50
697.76	2416.60
697.95	2379.74
698.13	2441.18
698.32	2463.71
698.50	2461.66
698.68	2545.63
698.87	2519.00
699.05	2703.32
699.24	2514.91
699.42	2357.21
699.61	2488.28
699.79	2492.38
699.97	2467.80
700.16	2334.68
700.34	2340.83
700.53	2553.82
700.71	2648.02
700.89	2547.67
701.08	2465.75
701.26	2416.60
701.45	3002.32
701.63	2412.51
701.81	2310.11
702.00	2404.32
702.18	2439.13
702.37	2441.18
702.55	2707.41
702.73	2637.78
702.92	2627.54
703.10	2795.48
703.28	2777.05
703.47	2480.09
703.65	2727.89
703.84	2701.27
704.02	2559.96
704.20	2680.79
704.39	2516.95
704.57	2502.62
704.75	2559.96
704.94	2650.07
705.12	2510.81
705.30	2947.03
705.49	5570.48
705.67	13002.55
705.86	21143.23
706.04	24510.09
706.22	28003.92
706.41	28423.76
706.59	22896.29
706.77	16633.60
706.96	14118.70
707.14	12443.46
707.32	10657.63
707.51	9283.44
707.69	7665.55
707.87	6045.60
708.06	4911.03
708.24	4124.61
708.42	3407.82
708.61	3375.05
708.79	2639.83
708.97	2596.82
709.16	2645.98
709.34	2557.91
709.52	2480.09
709.71	2457.56
709.89	2586.58
710.07	2453.47
710.26	2383.84
710.44	2461.66
710.62	2611.16
710.80	2457.56
710.99	2553.82
711.17	2545.63
711.35	2455.51
711.54	2406.36
711.72	2533.34
711.90	2510.81
712.09	2463.71
712.27	2455.51
712.45	2529.24
712.63	2404.32
712.82	2521.05
713.00	2418.65
713.18	2555.86
713.37	2578.39
713.55	2586.58
713.73	2545.63
713.91	2490.33
714.10	2455.51
714.28	2447.32
714.46	2482.14
714.65	2512.86
714.83	2480.09
715.01	2512.86
715.19	2572.25
715.38	2478.04
715.56	2498.52
715.74	2385.88
715.92	2357.21
716.11	2650.07
716.29	2244.57
716.47	2504.67
716.65	2471.90
716.84	2308.06
717.02	2605.02
717.20	2267.10
717.38	2377.69
717.57	2498.52
717.75	2545.63
717.93	2383.84
718.11	2539.48
718.30	2346.97
718.48	2531.29
718.66	2627.54
718.84	2635.74
719.03	2437.08
719.21	2293.72
719.39	2727.89
719.57	2475.99
719.75	2564.06
719.94	2322.40
720.12	2455.51
720.30	2457.56
720.48	2514.91
720.67	2420.70
720.85	2428.89
721.03	2416.60
721.21	2355.16
721.39	2531.29
721.58	2586.58
721.76	2457.56
721.94	2512.86
722.12	2529.24
722.30	2570.20
722.49	2424.80
722.67	2449.37
722.85	2553.82
723.03	2301.92
723.21	2353.12
723.40	2543.58
723.58	2596.82
723.76	2512.86
723.94	2693.08
724.12	2564.06
724.30	2658.26
724.49	2613.21
724.67	2445.27
724.85	2525.15
725.03	2441.18
725.21	2543.58
725.40	2680.79
725.58	2383.84
725.76	2637.78
725.94	2502.62
726.12	2365.40
726.30	2557.91
726.49	2389.98
726.67	2404.32
726.85	2588.63
727.03	3026.90
727.21	4261.82
727.39	5963.68
727.57	6735.77
727.76	7376.78
727.94	7739.27
728.12	7190.42
728.30	5636.01
728.48	4908.98
728.66	4566.97
728.84	4169.66
729.03	3530.70
729.21	3211.22
729.39	3014.61
729.57	2731.99
729.75	2707.41
729.93	2570.20
730.11	2492.38
730.30	2437.08
730.48	2475.99
730.66	2605.02
730.84	2621.40
731.02	2506.71
731.20	2473.95
731.38	2416.60
731.56	2363.36
731.74	2324.44
731.93	2521.05
732.11	2551.77
732.29	2406.36
732.47	2465.75
732.65	2453.47
732.83	2656.22
733.01	2611.16
733.19	2381.79
733.37	2512.86
733.56	2523.10
733.74	2420.70
733.92	2643.93
734.10	2432.99
734.28	2547.67
734.46	2320.35
734.64	2521.05
734.82	2432.99
735.00	2441.18
735.18	2451.42
735.36	2504.67
735.54	2457.56
735.73	2475.99
735.91	2478.04
736.09	2611.16
736.27	2492.38
736.45	2588.63
736.63	2291.68
736.81	2480.09
736.99	2551.77
737.17	2623.45
737.35	2441.18
737.53	2568.15
737.71	2478.04
737.89	2559.96
738.07	2400.22
738.25	2367.45
738.43	2346.97
738.61	2404.32
738.80	2377.69
738.98	2285.53
739.16	2387.93
739.34	2293.72
739.52	2666.46
739.70	2408.41
739.88	2572.25
740.06	2633.69
740.24	2172.89
740.42	2670.55
740.60	2234.33
740.78	2439.13
740.96	2207.71
741.14	2387.93
741.32	2473.95
741.50	2301.92
741.68	2678.74
741.86	2656.22
742.04	2375.64
742.22	2318.30
742.40	2367.45
742.58	2498.52
742.76	2363.36
742.94	2576.34
743.12	2295.77
743.30	2529.24
743.48	2494.43
743.66	2432.99
743.84	2449.37
744.02	2373.60
744.20	2416.60
744.38	2365.40
744.56	2359.26
744.74	2658.26
744.92	2521.05
745.10	2637.78
745.28	2553.82
745.46	2641.88
745.64	2480.09
745.82	2584.54
746.00	2469.85
746.18	2547.67
746.36	2439.13
746.54	2523.10
746.72	2453.47
746.90	2404.32
747.08	2695.13
747.26	2404.32
747.44	2545.63
747.62	2512.86
747.80	2584.54
747.98	2475.99
748.15	2465.75
748.33	2807.77
748.51	2457.56
748.69	2523.10
748.87	2291.68
749.05	2494.43
749.23	2441.18
749.41	2533.34
749.59	2402.27
749.77	2650.07
749.95	2461.66
750.13	2428.89
750.31	2582.49
750.49	2408.41
750.67	2555.86
750.85	2611.16
751.03	2480.09
751.20	2703.32
751.38	2527.19
751.56	2445.27
751.74	2455.51
751.92	2478.04
752.10	2334.68
752.28	2627.54
752.46	2383.84
752.64	2455.51
752.82	2533.34
753.00	2613.21
753.18	2396.12
753.35	2414.56
753.53	2471.90
753.71	2445.27
753.89	2500.57
754.07	2467.80
754.25	2613.21
754.43	2473.95
754.61	2328.54
754.79	2570.20
754.97	2465.75
755.14	2572.25
755.32	2387.93
755.50	2443.23
755.68	2557.91
755.86	2318.30
756.04	2373.60
756.22	2281.44
756.40	2611.16
756.57	2607.06
756.75	2418.65
756.93	2551.77
757.11	2531.29
757.29	2383.84
757.47	2377.69
757.65	2316.25
757.82	2252.77
758.00	2377.69
758.18	2379.74
758.36	2351.07
758.54	2691.03
758.72	2236.38
758.90	2557.91
759.07	2529.24
759.25	2332.64
759.43	2508.76
759.61	2285.53
759.79	3516.36
759.97	2621.40
760.15	2367.45
760.32	2519.00
760.50	2609.11
760.68	2637.78
760.86	2324.44
761.04	2592.73
761.22	2514.91
761.39	2519.00
761.57	2473.95
761.75	2394.08
761.93	2572.25
762.11	2392.03
762.28	2469.85
762.46	2320.35
762.64	2519.00
762.82	2346.97
763.00	2529.24
763.18	2627.54
763.35	2371.55
763.53	2582.49
763.71	2383.84
763.89	2478.04
764.07	2486.23
764.24	2492.38
764.42	2602.97
764.60	2426.84
764.78	2576.34
764.96	2572.25
765.13	2596.82
765.31	2430.94
765.49	2605.02
765.67	2332.64
765.84	2381.79
766.02	2320.35
766.20	2303.96
766.38	2486.23
766.56	2385.88
766.73	2549.72
766.91	2428.89
767.09	2459.61
767.27	2527.19
767.44	2299.87
767.62	2559.96
767.80	2482.14
767.98	2416.60
768.15	2475.99
768.33	2506.71
768.51	2621.40
768.69	2527.19
768.87	2453.47
769.04	2486.23
769.22	2781.14
769.40	2594.78
769.58	2670.55
769.75	2588.63
769.93	2588.63
770.11	2519.00
770.28	2410.46
770.46	2590.68
770.64	2537.43
770.82	2367.45
770.99	2453.47
771.17	2545.63
771.35	2426.84
771.53	2482.14
771.70	2396.12
771.88	2576.34
772.06	2486.23
772.23	2342.88
772.41	2568.15
772.59	2473.95
772.77	2332.64
772.94	2457.56
773.12	2473.95
773.30	2451.42
773.47	2502.62
773.65	2260.96
773.83	2635.74
774.01	2432.99
774.18	2246.62
774.36	2408.41
774.54	2349.02
774.71	2553.82
774.89	2322.40
775.07	2244.57
775.24	2430.94
775.42	2340.83
775.60	2686.94
775.78	2424.80
775.95	2269.15
776.13	2310.11
776.31	2254.81
776.48	2510.81
776.66	2602.97
776.84	2496.47
777.01	2389.98
777.19	2396.12
777.37	2404.32
777.54	2592.73
777.72	2662.36
777.90	2519.00
778.07	2365.40
778.25	2914.26
778.43	2619.35
778.60	2367.45
778.78	2539.48
778.96	2613.21
779.13	2303.96
779.31	2521.05
779.49	2414.56
779.66	2580.44
779.84	2406.36
780.01	2453.47
780.19	2357.21
780.37	2619.35
780.54	2613.21
780.72	2373.60
780.90	2471.90
781.07	2426.84
781.25	2424.80
781.43	2654.17
781.60	2478.04
781.78	2549.72
781.95	2539.48
782.13	2392.03
782.31	2455.51
782.48	2240.48
782.66	2471.90
782.83	2684.89
783.01	2406.36
783.19	2533.34
783.36	2400.22
783.54	2359.26
783.72	2543.58
783.89	2355.16
784.07	2473.95
784.24	2523.10
784.42	2607.06
784.60	2473.95
784.77	2435.03
784.95	2258.91
785.12	2461.66
785.30	2537.43
785.47	2400.22
785.65	2404.32
785.83	2473.95
786.00	2428.89
786.18	2527.19
786.35	2359.26
786.53	2371.55
786.71	2596.82
786.88	2553.82
787.06	2441.18
787.23	2410.46
787.41	2342.88
787.58	2453.47
787.76	2387.93
787.94	2535.39
788.11	2496.47
788.29	2351.07
788.46	2400.22
788.64	2340.83
788.81	2404.32
788.99	2359.26
789.16	2306.01
789.34	2406.36
789.52	2359.26
789.69	2432.99
789.87	2199.52
790.04	2408.41
790.22	2453.47
790.39	2676.70
790.57	2283.49
790.74	2359.26
790.92	2598.87
791.09	2310.11
791.27	2478.04
791.44	2566.10
791.62	2414.56
791.79	2596.82
791.97	2459.61
792.15	2752.47
792.32	2508.76
792.50	2506.71
792.67	2559.96
792.85	2584.54
793.02	2537.43
793.20	2387.93
793.37	2306.01
793.55	2502.62
793.72	2308.06
793.90	2600.92
794.07	2367.45
794.25	2346.97
794.42	2414.56
794.60	2418.65
794.77	2455.51
794.95	2498.52
795.12	2596.82
795.30	2387.93
795.47	2252.77
795.65	2777.05
795.82	2519.00
796.00	2373.60
796.17	2457.56
796.34	2422.75
796.52	2480.09
796.69	2582.49
796.87	2525.15
797.04	2551.77
797.22	2545.63
797.39	2473.95
797.57	2527.19
797.74	2498.52
797.92	2564.06
798.09	2389.98
798.27	2621.40
798.44	2379.74
798.62	2420.70
798.79	2502.62
798.96	2463.71
799.14	2408.41
799.31	2856.92
799.49	2445.27
799.66	2349.02
799.84	2443.23
800.01	2330.59
800.19	2498.52
800.36	2279.39
800.53	2432.99
800.71	2576.34
800.88	2727.89
801.06	2355.16
801.23	2398.17
801.41	2455.51
801.58	2428.89
801.75	2445.27
801.93	2426.84
802.10	2576.34
802.28	2459.61
802.45	2377.69
802.63	2482.14
802.80	2641.88
802.97	2447.32
803.15	2367.45
803.32	2351.07
803.50	2375.64
803.67	2443.23
803.84	2334.68
804.02	2471.90
804.19	2443.23
804.37	2187.23
804.54	2308.06
804.71	2359.26
804.89	2463.71
805.06	2406.36
805.24	2332.64
805.41	2346.97
805.58	2445.27
805.76	2777.05
805.93	2367.45
806.10	2605.02
806.28	2512.86
806.45	2562.01
806.63	2490.33
806.80	2498.52
806.97	2521.05
807.15	2514.91
807.32	2494.43
807.49	2441.18
807.67	2299.87
807.84	2498.52
808.01	2342.88
808.19	2629.59
808.36	2793.43
808.54	2359.26
808.71	2355.16
808.88	2473.95
809.06	2680.79
809.23	2615.26
809.40	2297.82
809.58	2430.94
809.75	2572.25
809.92	2346.97
810.10	2639.83
810.27	2424.80
810.44	2480.09
810.62	2535.39
810.79	2500.57
810.96	2437.08
811.14	2457.56
811.31	2480.09
811.48	2564.06
811.66	2422.75
811.83	2609.11
812.00	2471.90
812.18	2486.23
812.35	2691.03
812.52	2373.60
812.69	2437.08
812.87	2449.37
813.04	2449.37
813.21	2445.27
813.39	2408.41
813.56	2375.64
813.73	2662.36
813.91	2324.44
814.08	2494.43
814.25	2420.70
814.42	2306.01
814.60	2437.08
814.77	2516.95
814.94	2498.52
815.12	2500.57
815.29	2633.69
815.46	2398.17
815.63	2531.29
815.81	2412.51
815.98	2445.27
816.15	2428.89
816.33	2492.38
816.50	2418.65
816.67	2455.51
816.84	2400.22
817.02	2379.74
817.19	2398.17
817.36	2449.37
817.53	2586.58
817.71	2359.26
817.88	2506.71
818.05	2467.80
818.22	2435.03
818.40	2674.65
818.57	2381.79
818.74	2514.91
818.91	2473.95
819.09	2510.81
819.26	2486.23
819.43	2453.47
819.60	2412.51
819.78	2490.33
819.95	2570.20
820.12	2351.07
820.29	2668.50
820.47	2691.03
820.64	2369.50
820.81	2265.05
820.98	2392.03
821.15	2473.95
821.33	2531.29
821.50	2326.49
821.67	2559.96
821.84	2351.07
822.02	2512.86
822.19	2635.74
822.36	2424.80
822.53	2346.97
822.70	2332.64
822.88	2441.18
823.05	2664.41
823.22	2467.80
823.39	2516.95
823.56	2396.12
823.74	2670.55
823.91	2275.29
824.08	2320.35
824.25	2377.69
824.42	2703.32
824.60	2349.02
824.77	2480.09
824.94	2494.43
825.11	2475.99
825.28	2297.82
825.45	2496.47
825.63	2482.14
825.80	2359.26
825.97	2570.20
826.14	2486.23
826.31	2236.38
826.48	2529.24
826.66	2326.49
826.83	2359.26
827.00	2498.52
827.17	2398.17
827.34	2463.71
827.51	2340.83
827.69	2488.28
827.86	2346.97
828.03	2408.41
828.20	2349.02
828.37	2357.21
828.54	2580.44
828.71	2404.32
828.89	2557.91
829.06	2498.52
829.23	2602.97
829.40	2340.83
829.57	2463.71
829.74	2602.97
829.91	2359.26
830.09	2404.32
830.26	2531.29
830.43	2723.80
830.60	2439.13
830.77	2605.02
830.94	2555.86
831.11	2519.00
831.28	2400.22
831.46	2650.07
831.63	2346.97
831.80	2605.02
831.97	2340.83
832.14	2475.99
832.31	2422.75
832.48	2473.95
832.65	2562.01
832.82	2478.04
832.99	2529.24
833.17	2334.68
833.34	2586.58
833.51	2539.48
833.68	2207.71
833.85	2627.54
834.02	2297.82
834.19	2387.93
834.36	2344.92
834.53	2494.43
834.70	2531.29
834.87	2486.23
835.04	2355.16
835.22	2359.26
835.39	2424.80
835.56	2367.45
835.73	2306.01
835.90	2611.16
836.07	2373.60
836.24	2553.82
836.41	2303.96
836.58	2322.40
836.75	2539.48
836.92	2441.18
837.09	2316.25
837.26	2586.58
837.43	2486.23
837.60	2457.56
837.77	2371.55
837.94	2555.86
838.12	2701.27
838.29	2357.21
838.46	2330.59
838.63	2328.54
838.80	2676.70
838.97	2443.23
839.14	2383.84
839.31	2527.19
839.48	2617.30
839.65	2340.83
839.82	2486.23
839.99	2615.26
840.16	2471.90
840.33	2236.38
840.50	2461.66
840.67	2361.31
840.84	2174.94
841.01	2398.17
841.18	2349.02
841.35	2441.18
841.52	2541.53
841.69	2686.94
841.86	2406.36
842.03	2441.18
842.20	2564.06
842.37	2324.44
842.54	2379.74
842.71	2512.86
842.88	2357.21
843.05	2420.70
843.22	2418.65
843.39	2584.54
843.56	2420.70
843.73	2330.59
843.90	2392.03
844.07	2461.66
844.24	2592.73
844.41	2463.71
844.58	2498.52
844.75	2529.24
844.92	2547.67
845.09	2418.65
845.26	2275.29
845.43	2529.24
845.60	2408.41
845.77	2473.95
845.94	2396.12
846.10	2545.63
846.27	2330.59
846.44	2271.20
846.61	2281.44
846.78	2523.10
846.95	2564.06
847.12	2379.74
847.29	2402.27
847.46	2367.45
847.63	2570.20
847.80	2254.81
847.97	2334.68
848.14	2725.85
848.31	2457.56
848.48	2349.02
848.65	2432.99
848.82	2416.60
848.98	2750.42
849.15	2484.19
849.32	2496.47
849.49	2619.35
849.66	2465.75
849.83	2457.56
850.00	2285.53
850.17	2576.34
850.34	2447.32
850.51	2349.02
850.68	2402.27
850.85	2674.65
851.01	2547.67
851.18	2394.08
851.35	2303.96
851.52	2559.96
851.69	2584.54
851.86	2252.77
852.03	2344.92
852.20	2535.39
852.37	2422.75
852.53	2267.10
852.70	2340.83
852.87	2449.37
853.04	2592.73
853.21	2420.70
853.38	2510.81
853.55	2635.74
853.72	2715.61
853.89	2357.21
854.05	2379.74
854.22	2432.99
854.39	2416.60
854.56	2441.18
854.73	2516.95
854.90	2308.06
855.07	2428.89
855.23	2283.49
855.40	2377.69
855.57	2447.32
855.74	2244.57
855.91	2557.91
856.08	2326.49
856.25	2281.44
856.41	2457.56
856.58	2357.21
856.75	2439.13
856.92	2326.49
857.09	2619.35
857.26	2211.81
857.42	2353.12
857.59	2553.82
857.76	2473.95
857.93	2416.60
858.10	2453.47
858.27	2310.11
858.43	2492.38
858.60	2318.30
858.77	2320.35
858.94	2424.80
859.11	2664.41
859.27	2402.27
859.44	2371.55
859.61	2684.89
859.78	2596.82
859.95	2369.50
860.12	2392.03
860.28	2691.03
860.45	2670.55
860.62	2318.30
860.79	2449.37
860.95	2451.42
861.12	2328.54
861.29	2320.35
861.46	2271.20
861.63	2451.42
861.79	2535.39
861.96	2228.19
862.13	2375.64
862.30	2559.96
862.47	2465.75
862.63	2275.29
862.80	2359.26
862.97	2523.10
863.14	2435.03
863.30	2371.55
863.47	2287.58
863.64	2648.02
863.81	2416.60
863.97	2316.25
864.14	2441.18
864.31	2510.81
864.48	2539.48
864.65	2392.03
864.81	2531.29
864.98	2498.52
865.15	2658.26
865.32	2422.75
865.48	2396.12
865.65	2627.54
865.82	2400.22
865.98	2441.18
866.15	2461.66
866.32	2490.33
866.49	2432.99
866.65	2463.71
866.82	2367.45
866.99	2490.33
867.16	2430.94
867.32	2326.49
867.49	2408.41
867.66	2467.80
867.83	2381.79
867.99	2258.91
868.16	2418.65
868.33	2379.74
868.49	2521.05
868.66	2404.32
868.83	2465.75
868.99	2531.29
869.16	2441.18
869.33	2514.91
869.50	2465.75
869.66	2543.58
869.83	2502.62
870.00	2267.10
870.16	2447.32
870.33	2488.28
870.50	2596.82
870.66	2506.71
870.83	2508.76
871.00	2467.80
871.17	2453.47
871.33	2465.75
871.50	2400.22
871.67	2422.75
871.83	2369.50
872.00	2488.28
872.17	2365.40
872.33	2744.28
872.50	2615.26
872.67	2383.84
872.83	2361.31
873.00	2527.19
873.17	2432.99
873.33	2506.71
873.50	2480.09
873.67	2330.59
873.83	2396.12
874.00	2324.44
874.16	2502.62
874.33	2455.51
874.50	2314.20
874.66	2414.56
874.83	2443.23
875.00	2600.92
875.16	2578.39
875.33	2486.23
875.50	2215.90
875.66	2455.51
875.83	2525.15
875.99	2422.75
876.16	2449.37
876.33	2346.97
876.49	2349.02
876.66	2451.42
876.83	2443.23
876.99	2334.68
877.16	2432.99
877.32	2359.26
877.49	2404.32
877.66	2529.24
877.82	2572.25
877.99	2437.08
878.15	2488.28
878.32	2486.23
878.49	2494.43
878.65	2363.36
878.82	2551.77
878.98	2408.41
879.15	2519.00
879.32	2473.95
879.48	2521.05
879.65	2445.27
879.81	2457.56
879.98	2392.03
880.15	2330.59
880.31	2617.30
880.48	2332.64
880.64	2510.81
880.81	2439.13
880.97	2639.83
881.14	2605.02
881.31	2367.45
881.47	2527.19
881.64	2398.17
881.80	2303.96
881.97	2533.34
882.13	2408.41
882.30	2306.01
882.47	2367.45
882.63	2320.35
882.80	2375.64
882.96	2424.80
883.13	2678.74
883.29	2375.64
883.46	2387.93
883.62	2775.00
883.79	2486.23
883.95	2555.86
884.12	2332.64
884.29	2541.53
884.45	2482.14
884.62	2459.61
884.78	2332.64
884.95	2641.88
885.11	2381.79
885.28	2445.27
885.44	2314.20
885.61	2523.10
885.77	2639.83
885.94	2490.33
886.10	2398.17
886.27	2469.85
886.43	2734.04
886.60	2490.33
886.76	2430.94
886.93	2416.60
887.09	2523.10
887.26	2199.52
887.42	2428.89
887.59	2613.21
887.75	2766.81
887.92	2549.72
888.08	2441.18
888.25	2762.71
888.41	2547.67
888.58	2514.91
888.74	2322.40
888.91	2420.70
>>>>>End Processed Spectral Data<<<<<
