SpectraSuite Data File
++++++++++++++++++++++++++++++++++++
Date: Thu May 05 14:42:02 CEST 2016
User: root
Dark Spectrum Present: No
Reference Spectrum Present: No
Number of Sampled Component Spectra: 1
Spectrometers: USB4C02835
Integration Time (usec): 100000 (USB4C02835)
Spectra Averaged: 1 (USB4C02835)
Boxcar Smoothing: 0 (USB4C02835)
Correct for Electrical Dark: No (USB4C02835)
Strobe/Lamp Enabled: No (USB4C02835)
Correct for Detector Non-linearity: No (USB4C02835)
Correct for Stray Light: No (USB4C02835)
Number of Pixels in Processed Spectrum: 3648
>>>>>Begin Processed Spectral Data<<<<<
177.47	1931.23
177.69	1931.23
177.91	1931.23
178.13	1832.93
178.36	1900.52
178.58	2334.68
178.80	2453.47
179.02	2328.54
179.24	2328.54
179.46	2283.49
179.68	2457.56
179.90	2500.57
180.13	2473.95
180.35	2269.15
180.57	2402.27
180.79	2572.25
181.01	2467.80
181.23	2299.87
181.45	2430.94
181.67	2490.33
181.90	2602.97
182.12	2285.53
182.34	2185.18
182.56	2578.39
182.78	2523.10
183.00	2365.40
183.22	2381.79
183.44	2285.53
183.66	2772.95
183.89	2457.56
184.11	2332.64
184.33	2539.48
184.55	2553.82
184.77	2277.34
184.99	2344.92
185.21	2430.94
185.43	2719.70
185.65	2387.93
185.87	2349.02
186.10	2760.66
186.32	2807.77
186.54	2408.41
186.76	2396.12
186.98	2602.97
187.20	2432.99
187.42	2416.60
187.64	2379.74
187.86	2570.20
188.08	2637.78
188.30	2326.49
188.52	2367.45
188.75	2633.69
188.97	2701.27
189.19	2314.20
189.41	2359.26
189.63	2555.86
189.85	2430.94
190.07	2234.33
190.29	2244.57
190.51	2605.02
190.73	2342.88
190.95	2510.81
191.17	2406.36
191.39	2271.20
191.61	2453.47
191.84	2359.26
192.06	2400.22
192.28	2316.25
192.50	2861.01
192.72	2381.79
192.94	2414.56
193.16	2574.30
193.38	2559.96
193.60	2263.01
193.82	2445.27
194.04	2629.59
194.26	2506.71
194.48	2381.79
194.70	2336.73
194.92	2410.46
195.14	2572.25
195.36	2349.02
195.58	2394.08
195.80	2443.23
196.02	2371.55
196.24	2277.34
196.46	2353.12
196.69	2406.36
196.91	2818.00
197.13	2375.64
197.35	2324.44
197.57	2682.84
197.79	2562.01
198.01	2414.56
198.23	2349.02
198.45	2525.15
198.67	2308.06
198.89	2334.68
199.11	2488.28
199.33	2414.56
199.55	2244.57
199.77	2342.88
199.99	2453.47
200.21	2441.18
200.43	2537.43
200.65	2252.77
200.87	2207.71
201.09	2467.80
201.31	2400.22
201.53	2441.18
201.75	2349.02
201.97	2531.29
202.19	2506.71
202.41	2420.70
202.63	2555.86
202.85	2529.24
203.07	2473.95
203.29	2445.27
203.51	2263.01
203.73	2455.51
203.95	2856.92
204.17	2387.93
204.39	2459.61
204.61	2519.00
204.83	2467.80
205.05	2512.86
205.27	2392.03
205.49	2764.76
205.71	2486.23
205.93	2211.81
206.15	2248.67
206.37	2547.67
206.59	2475.99
206.81	2232.29
207.03	2299.87
207.25	2357.21
207.47	2473.95
207.69	2334.68
207.91	2582.49
208.13	2740.18
208.34	2408.41
208.56	2238.43
208.78	2318.30
209.00	2527.19
209.22	2389.98
209.44	2293.72
209.66	2330.59
209.88	2486.23
210.10	2363.36
210.32	2328.54
210.54	2441.18
210.76	2486.23
210.98	2594.78
211.20	2205.66
211.42	2463.71
211.64	2682.84
211.86	2574.30
212.08	2420.70
212.30	2353.12
212.52	2521.05
212.74	2494.43
212.96	2308.06
213.17	2375.64
213.39	2545.63
213.61	2729.94
213.83	2285.53
214.05	2408.41
214.27	2580.44
214.49	2359.26
214.71	2324.44
214.93	2404.32
215.15	2498.52
215.37	2611.16
215.59	2275.29
215.81	2449.37
216.03	2617.30
216.24	2478.04
216.46	2336.73
216.68	2406.36
216.90	2566.10
217.12	2664.41
217.34	2349.02
217.56	2412.51
217.78	2578.39
218.00	2590.68
218.22	2455.51
218.44	2461.66
218.66	2469.85
218.87	2631.64
219.09	2322.40
219.31	2355.16
219.53	2580.44
219.75	2441.18
219.97	2355.16
220.19	2320.35
220.41	2516.95
220.63	2650.07
220.85	2342.88
221.06	2340.83
221.28	2611.16
221.50	2566.10
221.72	2375.64
221.94	2281.44
222.16	2514.91
222.38	2598.87
222.60	2383.84
222.82	2361.31
223.03	2641.88
223.25	2299.87
223.47	2428.89
223.69	2498.52
223.91	2578.39
224.13	2519.00
224.35	2289.63
224.57	2523.10
224.78	2590.68
225.00	2510.81
225.22	2377.69
225.44	2351.07
225.66	2564.06
225.88	2330.59
226.10	2453.47
226.32	2400.22
226.53	2666.46
226.75	2412.51
226.97	2422.75
227.19	2424.80
227.41	2371.55
227.63	2394.08
227.85	2170.85
228.06	2412.51
228.28	2482.14
228.50	2555.86
228.72	2283.49
228.94	2363.36
229.16	2301.92
229.37	2322.40
229.59	2334.68
229.81	2580.44
230.03	2494.43
230.25	2363.36
230.47	2310.11
230.69	2320.35
230.90	2582.49
231.12	2412.51
231.34	2449.37
231.56	2398.17
231.78	2361.31
232.00	2424.80
232.21	2420.70
232.43	2336.73
232.65	2258.91
232.87	2572.25
233.09	2297.82
233.30	2263.01
233.52	2590.68
233.74	2455.51
233.96	2402.27
234.18	2420.70
234.40	2469.85
234.61	2801.62
234.83	2310.11
235.05	2326.49
235.27	2758.61
235.49	2705.37
235.70	2361.31
235.92	2473.95
236.14	2500.57
236.36	2785.24
236.58	2250.72
236.79	2435.03
237.01	2506.71
237.23	2506.71
237.45	2586.58
237.67	2371.55
237.88	2531.29
238.10	2750.42
238.32	2303.96
238.54	2371.55
238.76	2465.75
238.97	2353.12
239.19	2306.01
239.41	2402.27
239.63	2625.50
239.85	2377.69
240.06	2357.21
240.28	2338.78
240.50	2605.02
240.72	2451.42
240.93	2283.49
241.15	2490.33
241.37	2529.24
241.59	2621.40
241.81	2314.20
242.02	2357.21
242.24	2521.05
242.46	2557.91
242.68	2285.53
242.89	2353.12
243.11	2633.69
243.33	2389.98
243.55	2318.30
243.76	2379.74
243.98	2424.80
244.20	2463.71
244.42	2359.26
244.64	2398.17
244.85	2316.25
245.07	2363.36
245.29	2392.03
245.51	2392.03
245.72	2547.67
245.94	2529.24
246.16	2398.17
246.38	2416.60
246.59	2408.41
246.81	2367.45
247.03	2359.26
247.24	2183.13
247.46	2457.56
247.68	2537.43
247.90	2291.68
248.11	2359.26
248.33	2564.06
248.55	2498.52
248.77	2338.78
248.98	2496.47
249.20	2621.40
249.42	2519.00
249.64	2326.49
249.85	2363.36
250.07	2519.00
250.29	2605.02
250.50	2367.45
250.72	2273.25
250.94	2541.53
251.16	2758.61
251.37	2394.08
251.59	2469.85
251.81	2580.44
252.02	2613.21
252.24	2240.48
252.46	2439.13
252.68	2414.56
252.89	2496.47
253.11	2226.14
253.33	2519.00
253.54	2680.79
253.76	2334.68
253.98	2332.64
254.20	2400.22
254.41	2334.68
254.63	2451.42
254.85	2215.90
255.06	2449.37
255.28	2453.47
255.50	2539.48
255.71	2332.64
255.93	2252.77
256.15	2414.56
256.36	2514.91
256.58	2293.72
256.80	2340.83
257.02	2504.67
257.23	2334.68
257.45	2361.31
257.67	2465.75
257.88	2351.07
258.10	2527.19
258.32	2373.60
258.53	2383.84
258.75	2707.41
258.97	2398.17
259.18	2322.40
259.40	2236.38
259.62	2686.94
259.83	2682.84
260.05	2414.56
260.27	2918.36
260.48	2592.73
260.70	2373.60
260.92	2310.11
261.13	2402.27
261.35	2586.58
261.57	2527.19
261.78	2236.38
262.00	2342.88
262.22	2510.81
262.43	2353.12
262.65	2394.08
262.86	2340.83
263.08	2760.66
263.30	2512.86
263.51	2279.39
263.73	2277.34
263.95	2635.74
264.16	2404.32
264.38	2291.68
264.60	2412.51
264.81	2494.43
265.03	2654.17
265.25	2553.82
265.46	2342.88
265.68	2580.44
265.89	2543.58
266.11	2273.25
266.33	2320.35
266.54	2633.69
266.76	2529.24
266.98	2359.26
267.19	2465.75
267.41	2635.74
267.62	2521.05
267.84	2201.57
268.06	2383.84
268.27	2504.67
268.49	2635.74
268.70	2367.45
268.92	2371.55
269.14	2416.60
269.35	2351.07
269.57	2342.88
269.79	2414.56
270.00	2457.56
270.22	2678.74
270.43	2260.96
270.65	2179.04
270.87	2531.29
271.08	2578.39
271.30	2406.36
271.51	2375.64
271.73	2609.11
271.95	2695.13
272.16	2410.46
272.38	2471.90
272.59	2400.22
272.81	2574.30
273.02	2414.56
273.24	2396.12
273.46	2551.77
273.67	2332.64
273.89	2310.11
274.10	2396.12
274.32	2611.16
274.54	2490.33
274.75	2426.84
274.97	2394.08
275.18	2490.33
275.40	2562.01
275.61	2400.22
275.83	2500.57
276.05	2361.31
276.26	2535.39
276.48	2420.70
276.69	2424.80
276.91	2414.56
277.12	2637.78
277.34	2498.52
277.55	2545.63
277.77	2504.67
277.99	2502.62
278.20	2349.02
278.42	2340.83
278.63	2396.12
278.85	2363.36
279.06	2355.16
279.28	2547.67
279.49	2600.92
279.71	2527.19
279.93	2490.33
280.14	2410.46
280.36	2410.46
280.57	2611.16
280.79	2447.32
281.00	2285.53
281.22	2359.26
281.43	2701.27
281.65	2193.37
281.86	2301.92
282.08	2539.48
282.29	2766.81
282.51	2314.20
282.73	2310.11
282.94	2320.35
283.16	2629.59
283.37	2559.96
283.59	2471.90
283.80	2496.47
284.02	2486.23
284.23	2504.67
284.45	2418.65
284.66	2326.49
284.88	2392.03
285.09	2383.84
285.31	2441.18
285.52	2566.10
285.74	2263.01
285.95	2551.77
286.17	2453.47
286.38	2605.02
286.60	2447.32
286.81	2389.98
287.03	2375.64
287.24	2478.04
287.46	2566.10
287.67	2455.51
287.89	2605.02
288.10	2498.52
288.32	2527.19
288.53	2572.25
288.75	2465.75
288.96	2568.15
289.18	2381.79
289.39	2383.84
289.61	2463.71
289.82	2760.66
290.04	2656.22
290.25	2340.83
290.47	2400.22
290.68	2465.75
290.90	2584.54
291.11	2293.72
291.33	2478.04
291.54	2312.16
291.76	2392.03
291.97	2449.37
292.18	2389.98
292.40	2443.23
292.61	2338.78
292.83	2625.50
293.04	2467.80
293.26	2443.23
293.47	2469.85
293.69	2346.97
293.90	2422.75
294.12	2658.26
294.33	2441.18
294.55	2424.80
294.76	2523.10
294.97	2684.89
295.19	2686.94
295.40	2387.93
295.62	2461.66
295.83	2637.78
296.05	2357.21
296.26	2619.35
296.48	2381.79
296.69	2473.95
296.90	2473.95
297.12	2486.23
297.33	2533.34
297.55	2510.81
297.76	2557.91
297.98	2494.43
298.19	2463.71
298.41	2535.39
298.62	2326.49
298.83	2553.82
299.05	2453.47
299.26	2379.74
299.48	2404.32
299.69	2605.02
299.90	2430.94
300.12	2359.26
300.33	2588.63
300.55	2396.12
300.76	2471.90
300.98	2326.49
301.19	2611.16
301.40	2387.93
301.62	2437.08
301.83	2592.73
302.05	2535.39
302.26	2437.08
302.47	2361.31
302.69	2310.11
302.90	2500.57
303.12	2326.49
303.33	2576.34
303.54	2654.17
303.76	2432.99
303.97	2414.56
304.19	2623.45
304.40	2351.07
304.61	2531.29
304.83	2596.82
305.04	2523.10
305.26	2531.29
305.47	2453.47
305.68	2449.37
305.90	2410.46
306.11	2643.93
306.33	2482.14
306.54	2338.78
306.75	2371.55
306.97	2308.06
307.18	2330.59
307.39	2398.17
307.61	2414.56
307.82	2445.27
308.04	2527.19
308.25	2375.64
308.46	2457.56
308.68	2475.99
308.89	2484.19
309.10	2621.40
309.32	2455.51
309.53	2426.84
309.74	2545.63
309.96	2408.41
310.17	2510.81
310.39	2383.84
310.60	2539.48
310.81	2514.91
311.03	2299.87
311.24	2600.92
311.45	2543.58
311.67	2621.40
311.88	2478.04
312.09	2422.75
312.31	2445.27
312.52	2400.22
312.73	2406.36
312.95	2365.40
313.16	2437.08
313.37	2510.81
313.59	2570.20
313.80	2586.58
314.01	2592.73
314.23	2455.51
314.44	2326.49
314.65	2320.35
314.87	2379.74
315.08	2383.84
315.29	2396.12
315.51	2359.26
315.72	2344.92
315.93	2598.87
316.15	2539.48
316.36	2373.60
316.57	2510.81
316.79	2502.62
317.00	2373.60
317.21	2547.67
317.43	2410.46
317.64	2486.23
317.85	2375.64
318.07	2402.27
318.28	2459.61
318.49	2547.67
318.70	2711.51
318.92	2654.17
319.13	2625.50
319.34	2641.88
319.56	2506.71
319.77	2533.34
319.98	2596.82
320.20	2578.39
320.41	2594.78
320.62	2574.30
320.83	2334.68
321.05	2709.46
321.26	2441.18
321.47	2471.90
321.69	2553.82
321.90	2260.96
322.11	2340.83
322.32	2609.11
322.54	2709.46
322.75	2398.17
322.96	2842.58
323.18	2297.82
323.39	2267.10
323.60	2291.68
323.81	2510.81
324.03	2379.74
324.24	2535.39
324.45	2480.09
324.66	2447.32
324.88	2617.30
325.09	2686.94
325.30	2498.52
325.52	2392.03
325.73	2525.15
325.94	2322.40
326.15	2240.48
326.37	2279.39
326.58	2570.20
326.79	2670.55
327.00	2295.77
327.22	2422.75
327.43	2445.27
327.64	2367.45
327.85	2416.60
328.07	2459.61
328.28	2721.75
328.49	2435.03
328.70	2355.16
328.92	2410.46
329.13	2455.51
329.34	2549.72
329.55	2633.69
329.76	2502.62
329.98	2490.33
330.19	2678.74
330.40	2531.29
330.61	2519.00
330.83	2613.21
331.04	2373.60
331.25	2408.41
331.46	2420.70
331.68	2412.51
331.89	2678.74
332.10	2392.03
332.31	2308.06
332.52	2482.14
332.74	2643.93
332.95	2228.19
333.16	2447.32
333.37	2588.63
333.58	2381.79
333.80	2400.22
334.01	2252.77
334.22	2453.47
334.43	2346.97
334.64	2406.36
334.86	2316.25
335.07	2324.44
335.28	2641.88
335.49	2316.25
335.70	2519.00
335.92	2668.50
336.13	2738.13
336.34	2549.72
336.55	2555.86
336.76	2527.19
336.98	2271.20
337.19	2432.99
337.40	2588.63
337.61	2756.57
337.82	2461.66
338.04	2537.43
338.25	2260.96
338.46	2414.56
338.67	2539.48
338.88	2385.88
339.09	2318.30
339.31	2365.40
339.52	2295.77
339.73	2367.45
339.94	2369.50
340.15	2523.10
340.36	2455.51
340.58	2488.28
340.79	2379.74
341.00	2523.10
341.21	2392.03
341.42	2643.93
341.63	2404.32
341.85	2627.54
342.06	2473.95
342.27	2344.92
342.48	2502.62
342.69	2355.16
342.90	2463.71
343.12	2602.97
343.33	2367.45
343.54	2662.36
343.75	2576.34
343.96	2482.14
344.17	2318.30
344.38	2482.14
344.60	2322.40
344.81	2299.87
345.02	2439.13
345.23	2648.02
345.44	2822.10
345.65	2478.04
345.86	2535.39
346.07	2504.67
346.29	2420.70
346.50	2555.86
346.71	2424.80
346.92	2584.54
347.13	2764.76
347.34	2441.18
347.55	2404.32
347.76	2564.06
347.98	2301.92
348.19	2394.08
348.40	2519.00
348.61	2457.56
348.82	2617.30
349.03	2465.75
349.24	2406.36
349.45	2760.66
349.66	2265.05
349.88	2363.36
350.09	2330.59
350.30	2631.64
350.51	2609.11
350.72	2469.85
350.93	2482.14
351.14	2381.79
351.35	2521.05
351.56	2480.09
351.77	2387.93
351.99	2555.86
352.20	2703.32
352.41	2512.86
352.62	2248.67
352.83	2437.08
353.04	2486.23
353.25	2349.02
353.46	2506.71
353.67	2654.17
353.88	2279.39
354.09	2396.12
354.30	2437.08
354.52	2531.29
354.73	2480.09
354.94	2430.94
355.15	2428.89
355.36	2750.42
355.57	2408.41
355.78	2478.04
355.99	2379.74
356.20	2512.86
356.41	2680.79
356.62	2539.48
356.83	2412.51
357.04	2697.17
357.25	2310.11
357.46	2392.03
357.68	2355.16
357.89	2445.27
358.10	2516.95
358.31	2404.32
358.52	2428.89
358.73	2365.40
358.94	2389.98
359.15	2424.80
359.36	2514.91
359.57	2523.10
359.78	2422.75
359.99	2555.86
360.20	2326.49
360.41	2469.85
360.62	2570.20
360.83	2439.13
361.04	2465.75
361.25	2482.14
361.46	2693.08
361.67	2457.56
361.88	2486.23
362.09	2613.21
362.30	2594.78
362.51	2346.97
362.72	2465.75
362.93	2564.06
363.14	2574.30
363.35	2432.99
363.56	2359.26
363.78	2678.74
363.99	2570.20
364.20	2396.12
364.41	2455.51
364.62	2674.65
364.83	2418.65
365.04	2400.22
365.25	2369.50
365.46	2842.58
365.67	2420.70
365.88	2435.03
366.09	2367.45
366.30	2488.28
366.51	2420.70
366.72	2293.72
366.93	2365.40
367.14	2387.93
367.35	2607.06
367.56	2396.12
367.77	2473.95
367.98	2463.71
368.18	2488.28
368.39	2519.00
368.60	2303.96
368.81	2562.01
369.02	2535.39
369.23	2387.93
369.44	2349.02
369.65	2494.43
369.86	2521.05
370.07	2514.91
370.28	2310.11
370.49	2521.05
370.70	2572.25
370.91	2365.40
371.12	2242.53
371.33	2586.58
371.54	2471.90
371.75	2506.71
371.96	2220.00
372.17	2537.43
372.38	2428.89
372.59	2457.56
372.80	2430.94
373.01	2469.85
373.22	2424.80
373.43	2459.61
373.64	2363.36
373.85	2680.79
374.06	2721.75
374.26	2521.05
374.47	2498.52
374.68	2637.78
374.89	2482.14
375.10	2406.36
375.31	2592.73
375.52	2463.71
375.73	2400.22
375.94	2334.68
376.15	2492.38
376.36	2398.17
376.57	2406.36
376.78	2381.79
376.99	2367.45
377.20	2619.35
377.40	2478.04
377.61	2633.69
377.82	2349.02
378.03	2549.72
378.24	2580.44
378.45	2432.99
378.66	2537.43
378.87	2289.63
379.08	2342.88
379.29	2473.95
379.50	2562.01
379.71	2432.99
379.91	2568.15
380.12	2385.88
380.33	2455.51
380.54	2516.95
380.75	2432.99
380.96	2428.89
381.17	2496.47
381.38	2545.63
381.59	2557.91
381.80	2445.27
382.00	2576.34
382.21	2529.24
382.42	2723.80
382.63	2744.28
382.84	2553.82
383.05	2596.82
383.26	2746.33
383.47	2471.90
383.68	2453.47
383.88	2611.16
384.09	2506.71
384.30	2617.30
384.51	2582.49
384.72	2473.95
384.93	2346.97
385.14	2469.85
385.35	2619.35
385.55	2277.34
385.76	2658.26
385.97	2461.66
386.18	2346.97
386.39	2332.64
386.60	2445.27
386.81	2389.98
387.02	2312.16
387.22	2355.16
387.43	2549.72
387.64	2531.29
387.85	2676.70
388.06	2654.17
388.27	4018.11
388.48	8384.38
388.68	11970.38
388.89	14542.63
389.10	15617.81
389.31	14659.36
389.52	11575.12
389.73	9901.93
389.93	9082.74
390.14	8355.71
390.35	7380.88
390.56	6565.79
390.77	5463.98
390.98	4118.47
391.18	3389.39
391.39	3055.57
391.60	2588.63
391.81	2664.41
392.02	2396.12
392.23	2775.00
392.43	2512.86
392.64	2574.30
392.85	2420.70
393.06	2725.85
393.27	2451.42
393.47	2389.98
393.68	2449.37
393.89	2516.95
394.10	2635.74
394.31	2404.32
394.52	2369.50
394.72	2381.79
394.93	2709.46
395.14	2365.40
395.35	2580.44
395.56	2367.45
395.76	2478.04
395.97	2490.33
396.18	2588.63
396.39	2506.71
396.60	2977.75
396.80	2725.85
397.01	2584.54
397.22	2713.56
397.43	2707.41
397.64	2375.64
397.84	2502.62
398.05	2760.66
398.26	2439.13
398.47	2543.58
398.67	2576.34
398.88	2473.95
399.09	2590.68
399.30	2408.41
399.51	2486.23
399.71	2392.03
399.92	2541.53
400.13	2469.85
400.34	2412.51
400.54	2482.14
400.75	2654.17
400.96	2467.80
401.17	2666.46
401.37	2523.10
401.58	2432.99
401.79	2459.61
402.00	2553.82
402.21	2932.69
402.41	2803.67
402.62	2791.38
402.83	2850.77
403.04	2947.03
403.24	3137.49
403.45	2623.45
403.66	2684.89
403.87	2678.74
404.07	2725.85
404.28	2721.75
404.49	2750.42
404.70	2617.30
404.90	2600.92
405.11	2545.63
405.32	2594.78
405.52	2439.13
405.73	2443.23
405.94	2392.03
406.15	2457.56
406.35	2602.97
406.56	2582.49
406.77	2484.19
406.98	2461.66
407.18	2340.83
407.39	2723.80
407.60	2422.75
407.80	2463.71
408.01	2369.50
408.22	2568.15
408.43	2340.83
408.63	2465.75
408.84	2553.82
409.05	2613.21
409.25	2408.41
409.46	2439.13
409.67	2471.90
409.88	2428.89
410.08	2465.75
410.29	2392.03
410.50	2566.10
410.70	2572.25
410.91	2308.06
411.12	2547.67
411.32	2496.47
411.53	2447.32
411.74	2562.01
411.95	2553.82
412.15	2498.52
412.36	2637.78
412.57	2588.63
412.77	2602.97
412.98	2502.62
413.19	2512.86
413.39	2619.35
413.60	2523.10
413.81	2580.44
414.01	2455.51
414.22	2498.52
414.43	2543.58
414.63	2482.14
414.84	2617.30
415.05	2457.56
415.25	2346.97
415.46	2562.01
415.67	2367.45
415.87	2471.90
416.08	2400.22
416.29	2482.14
416.49	2627.54
416.70	2398.17
416.91	2394.08
417.11	2418.65
417.32	2611.16
417.53	2564.06
417.73	2467.80
417.94	2432.99
418.15	2553.82
418.35	2459.61
418.56	2457.56
418.77	2752.47
418.97	2529.24
419.18	2545.63
419.38	2183.13
419.59	2453.47
419.80	2717.65
420.00	2359.26
420.21	2428.89
420.42	2645.98
420.62	2467.80
420.83	2430.94
421.04	2398.17
421.24	2502.62
421.45	2519.00
421.65	2451.42
421.86	2363.36
422.07	2635.74
422.27	2519.00
422.48	2490.33
422.69	2365.40
422.89	2428.89
423.10	2396.12
423.30	2361.31
423.51	2469.85
423.72	2555.86
423.92	2607.06
424.13	2351.07
424.33	2455.51
424.54	2592.73
424.75	2488.28
424.95	2670.55
425.16	2445.27
425.36	2455.51
425.57	2557.91
425.78	2529.24
425.98	2578.39
426.19	2490.33
426.39	2328.54
426.60	2432.99
426.81	2584.54
427.01	2510.81
427.22	2404.32
427.42	2375.64
427.63	2314.20
427.83	2553.82
428.04	2721.75
428.25	2549.72
428.45	2580.44
428.66	2643.93
428.86	2486.23
429.07	2369.50
429.28	2435.03
429.48	2457.56
429.69	2365.40
429.89	2531.29
430.10	2387.93
430.30	2619.35
430.51	2637.78
430.71	2418.65
430.92	2410.46
431.13	2502.62
431.33	2568.15
431.54	2494.43
431.74	2643.93
431.95	2752.47
432.15	2334.68
432.36	2402.27
432.56	2557.91
432.77	2760.66
432.98	2705.37
433.18	2471.90
433.39	2396.12
433.59	2359.26
433.80	2740.18
434.00	2670.55
434.21	2420.70
434.41	2424.80
434.62	2772.95
434.82	2359.26
435.03	2424.80
435.23	2516.95
435.44	2340.83
435.64	2445.27
435.85	2416.60
436.06	2629.59
436.26	2588.63
436.47	2437.08
436.67	2406.36
436.88	2414.56
437.08	2664.41
437.29	2609.11
437.49	2498.52
437.70	2590.68
437.90	2398.17
438.11	2631.64
438.31	2531.29
438.52	2768.85
438.72	2760.66
438.93	2723.80
439.13	2578.39
439.34	2605.02
439.54	2459.61
439.75	2625.50
439.95	2506.71
440.16	2437.08
440.36	2605.02
440.57	2441.18
440.77	2494.43
440.98	2430.94
441.18	2570.20
441.39	2408.41
441.59	2357.21
441.80	2744.28
442.00	2437.08
442.21	2547.67
442.41	2332.64
442.62	2545.63
442.82	2398.17
443.02	2514.91
443.23	2422.75
443.43	2498.52
443.64	2713.56
443.84	2359.26
444.05	2559.96
444.25	2480.09
444.46	2498.52
444.66	2457.56
444.87	2631.64
445.07	2383.84
445.28	2510.81
445.48	2555.86
445.69	2545.63
445.89	2807.77
446.09	2486.23
446.30	2762.71
446.50	2981.84
446.71	4702.14
446.91	5846.95
447.12	6623.13
447.32	7141.27
447.53	6641.56
447.73	5390.25
447.93	4710.33
448.14	4509.63
448.34	4296.64
448.55	3801.03
448.75	3776.45
448.96	3520.46
449.16	3250.13
449.36	3157.97
449.57	2686.94
449.77	2605.02
449.98	2490.33
450.18	2592.73
450.39	2428.89
450.59	2519.00
450.79	2486.23
451.00	2494.43
451.20	2531.29
451.41	2428.89
451.61	2566.10
451.81	2404.32
452.02	2412.51
452.22	2326.49
452.43	2416.60
452.63	2375.64
452.84	2516.95
453.04	2404.32
453.24	2510.81
453.45	2381.79
453.65	2471.90
453.86	2494.43
454.06	2543.58
454.26	2480.09
454.47	2396.12
454.67	2551.77
454.87	2514.91
455.08	2473.95
455.28	2631.64
455.49	2562.01
455.69	2392.03
455.89	2734.04
456.10	2576.34
456.30	2412.51
456.51	2594.78
456.71	2510.81
456.91	2471.90
457.12	2459.61
457.32	2496.47
457.52	2361.31
457.73	2566.10
457.93	2547.67
458.14	2365.40
458.34	2316.25
458.54	2441.18
458.75	2500.57
458.95	2543.58
459.15	2490.33
459.36	2510.81
459.56	2482.14
459.76	2746.33
459.97	2459.61
460.17	2465.75
460.37	2605.02
460.58	2523.10
460.78	2586.58
460.99	2363.36
461.19	2383.84
461.39	2459.61
461.60	2432.99
461.80	2506.71
462.00	2346.97
462.21	2502.62
462.41	2424.80
462.61	2375.64
462.82	2291.68
463.02	2576.34
463.22	2457.56
463.43	2512.86
463.63	2416.60
463.83	2652.12
464.04	2531.29
464.24	2424.80
464.44	2392.03
464.64	2467.80
464.85	2645.98
465.05	2547.67
465.25	2410.46
465.46	2387.93
465.66	2578.39
465.86	2514.91
466.07	2537.43
466.27	2484.19
466.47	2322.40
466.68	2338.78
466.88	2588.63
467.08	2621.40
467.29	2498.52
467.49	2430.94
467.69	2498.52
467.89	2613.21
468.10	2387.93
468.30	2416.60
468.50	2547.67
468.71	2662.36
468.91	2381.79
469.11	2617.30
469.31	2449.37
469.52	2351.07
469.72	2658.26
469.92	2727.89
470.13	2414.56
470.33	2525.15
470.53	2537.43
470.73	2850.77
470.94	3340.24
471.14	3389.39
471.34	3891.14
471.54	3737.54
471.75	3334.09
471.95	3121.10
472.15	2996.18
472.36	3059.67
472.56	2965.46
472.76	2987.99
472.96	2998.23
473.17	2713.56
473.37	2672.60
473.57	2584.54
473.77	2559.96
473.98	2451.42
474.18	2336.73
474.38	2920.40
474.58	2408.41
474.79	2381.79
474.99	2504.67
475.19	2555.86
475.39	2543.58
475.60	2525.15
475.80	2469.85
476.00	2566.10
476.20	2465.75
476.41	2500.57
476.61	2551.77
476.81	2686.94
477.01	2445.27
477.21	2666.46
477.42	2580.44
477.62	2435.03
477.82	2668.50
478.02	2369.50
478.23	2463.71
478.43	2373.60
478.63	2439.13
478.83	2447.32
479.03	2412.51
479.24	2656.22
479.44	2744.28
479.64	2381.79
479.84	2312.16
480.04	2426.84
480.25	2633.69
480.45	2392.03
480.65	2394.08
480.85	2686.94
481.06	2385.88
481.26	2459.61
481.46	2514.91
481.66	2514.91
481.86	2392.03
482.06	2658.26
482.27	2445.27
482.47	2412.51
482.67	2570.20
482.87	2404.32
483.07	2609.11
483.28	2473.95
483.48	2400.22
483.68	2455.51
483.88	2316.25
484.08	2224.09
484.29	2320.35
484.49	2420.70
484.69	2365.40
484.89	2629.59
485.09	2650.07
485.29	2478.04
485.50	2557.91
485.70	2408.41
485.90	2703.32
486.10	2486.23
486.30	2502.62
486.50	2641.88
486.71	2463.71
486.91	2553.82
487.11	2588.63
487.31	2367.45
487.51	2508.76
487.71	2371.55
487.91	2363.36
488.12	2414.56
488.32	2246.62
488.52	2369.50
488.72	2289.63
488.92	2519.00
489.12	2482.14
489.32	2635.74
489.53	2484.19
489.73	2285.53
489.93	2734.04
490.13	2455.51
490.33	2336.73
490.53	2527.19
490.73	2662.36
490.94	2281.44
491.14	2455.51
491.34	2621.40
491.54	2717.65
491.74	3313.61
491.94	4034.50
492.14	4345.79
492.34	4386.75
492.54	4067.27
492.75	3502.03
492.95	3471.31
493.15	3182.54
493.35	3174.35
493.55	3137.49
493.75	3092.43
493.95	3057.62
494.15	2736.09
494.35	2592.73
494.56	2521.05
494.76	2463.71
494.96	2504.67
495.16	2484.19
495.36	2420.70
495.56	2543.58
495.76	2496.47
495.96	2387.93
496.16	2412.51
496.36	2699.22
496.56	2445.27
496.77	2555.86
496.97	2453.47
497.17	2650.07
497.37	2295.77
497.57	2570.20
497.77	2502.62
497.97	2346.97
498.17	2519.00
498.37	2400.22
498.57	2635.74
498.77	2457.56
498.97	2637.78
499.17	2703.32
499.38	2459.61
499.58	2555.86
499.78	2627.54
499.98	2488.28
500.18	2496.47
500.38	2375.64
500.58	2621.40
500.78	3104.72
500.98	5418.93
501.18	7571.34
501.38	9256.82
501.58	10045.29
501.78	10192.74
501.98	7942.02
502.18	6784.92
502.38	5668.78
502.58	5431.21
502.78	4739.00
502.98	4593.59
503.18	4478.91
503.38	4157.38
503.59	3606.47
503.79	3436.49
503.99	3121.10
504.19	2998.23
504.39	2998.23
504.59	3071.95
504.79	3088.34
504.99	3219.41
505.19	2818.00
505.39	2715.61
505.59	2891.73
505.79	2815.96
505.99	2623.45
506.19	2570.20
506.39	2688.98
506.59	2453.47
506.79	2512.86
506.99	2600.92
507.19	2492.38
507.39	2562.01
507.59	2361.31
507.79	2359.26
507.99	2432.99
508.19	2455.51
508.39	2498.52
508.59	2478.04
508.79	2586.58
508.99	2723.80
509.19	2402.27
509.39	2455.51
509.59	2463.71
509.79	2455.51
509.99	2502.62
510.19	2637.78
510.39	2564.06
510.59	2471.90
510.79	2400.22
510.99	2357.21
511.19	2367.45
511.39	2711.51
511.59	2674.65
511.79	2633.69
511.99	2447.32
512.19	2695.13
512.38	2543.58
512.58	2400.22
512.78	2396.12
512.98	2691.03
513.18	2660.31
513.38	2322.40
513.58	2572.25
513.78	2453.47
513.98	2521.05
514.18	2392.03
514.38	2478.04
514.58	2566.10
514.78	2475.99
514.98	2414.56
515.18	2451.42
515.38	2398.17
515.58	2676.70
515.78	2441.18
515.98	2533.34
516.18	2596.82
516.38	2463.71
516.57	2404.32
516.77	2375.64
516.97	2588.63
517.17	2383.84
517.37	2256.86
517.57	2508.76
517.77	2469.85
517.97	2406.36
518.17	2510.81
518.37	2414.56
518.57	2449.37
518.77	2478.04
518.97	2432.99
519.16	2494.43
519.36	2588.63
519.56	2375.64
519.76	2473.95
519.96	2387.93
520.16	2686.94
520.36	2445.27
520.56	2629.59
520.76	2449.37
520.96	2457.56
521.16	2625.50
521.35	2512.86
521.55	2531.29
521.75	2564.06
521.95	2381.79
522.15	2414.56
522.35	2226.14
522.55	2396.12
522.75	2660.31
522.95	2375.64
523.14	2357.21
523.34	2537.43
523.54	2478.04
523.74	2553.82
523.94	2482.14
524.14	2359.26
524.34	2611.16
524.54	2584.54
524.73	2463.71
524.93	2506.71
525.13	2482.14
525.33	2346.97
525.53	2740.18
525.73	2551.77
525.93	2465.75
526.13	2344.92
526.32	2432.99
526.52	2670.55
526.72	2691.03
526.92	2469.85
527.12	2357.21
527.32	2320.35
527.52	2590.68
527.71	2576.34
527.91	2449.37
528.11	2478.04
528.31	2416.60
528.51	2367.45
528.71	2492.38
528.90	2514.91
529.10	2617.30
529.30	2574.30
529.50	2283.49
529.70	2504.67
529.90	2500.57
530.09	2531.29
530.29	2418.65
530.49	2463.71
530.69	2846.68
530.89	2488.28
531.09	2519.00
531.28	2400.22
531.48	2605.02
531.68	2484.19
531.88	2486.23
532.08	2652.12
532.28	2496.47
532.47	2580.44
532.67	2525.15
532.87	2537.43
533.07	2422.75
533.27	2555.86
533.46	2471.90
533.66	2451.42
533.86	2525.15
534.06	2473.95
534.26	2478.04
534.45	2527.19
534.65	2588.63
534.85	2555.86
535.05	2314.20
535.25	2680.79
535.44	2322.40
535.64	2570.20
535.84	2459.61
536.04	2490.33
536.24	2473.95
536.43	2355.16
536.63	2459.61
536.83	2478.04
537.03	2519.00
537.22	2281.44
537.42	2326.49
537.62	2523.10
537.82	2424.80
538.02	2619.35
538.21	2605.02
538.41	2949.08
538.61	2598.87
538.81	2500.57
539.00	2545.63
539.20	2314.20
539.40	2437.08
539.60	2482.14
539.79	2531.29
539.99	2547.67
540.19	2363.36
540.39	2488.28
540.58	2533.34
540.78	2621.40
540.98	2508.76
541.18	2654.17
541.37	2488.28
541.57	2500.57
541.77	2578.39
541.97	2383.84
542.16	2383.84
542.36	2488.28
542.56	2349.02
542.76	2660.31
542.95	2594.78
543.15	2586.58
543.35	2557.91
543.54	2432.99
543.74	2387.93
543.94	2627.54
544.14	2457.56
544.33	2549.72
544.53	2453.47
544.73	2564.06
544.93	2514.91
545.12	2471.90
545.32	2443.23
545.52	2457.56
545.71	2328.54
545.91	2392.03
546.11	2469.85
546.30	2355.16
546.50	2486.23
546.70	2473.95
546.90	2480.09
547.09	2293.72
547.29	2566.10
547.49	2588.63
547.68	2439.13
547.88	2375.64
548.08	2592.73
548.27	2906.07
548.47	2385.88
548.67	2422.75
548.87	2609.11
549.06	2510.81
549.26	2527.19
549.46	2562.01
549.65	2432.99
549.85	2459.61
550.05	2498.52
550.24	2342.88
550.44	2473.95
550.64	2445.27
550.83	2416.60
551.03	2682.84
551.23	2645.98
551.42	2523.10
551.62	2480.09
551.82	2471.90
552.01	2453.47
552.21	2639.83
552.41	2416.60
552.60	2682.84
552.80	2480.09
553.00	2430.94
553.19	2459.61
553.39	2691.03
553.59	2342.88
553.78	2537.43
553.98	2467.80
554.17	2285.53
554.37	2590.68
554.57	2529.24
554.76	2338.78
554.96	2398.17
555.16	2576.34
555.35	2523.10
555.55	2545.63
555.75	2564.06
555.94	2623.45
556.14	2275.29
556.33	2471.90
556.53	2488.28
556.73	2521.05
556.92	2500.57
557.12	2498.52
557.32	2736.09
557.51	2574.30
557.71	2512.86
557.90	2697.17
558.10	2740.18
558.30	2439.13
558.49	2432.99
558.69	2394.08
558.88	2592.73
559.08	2422.75
559.28	2506.71
559.47	2453.47
559.67	2656.22
559.86	2768.85
560.06	2490.33
560.26	2478.04
560.45	2539.48
560.65	2453.47
560.84	2650.07
561.04	2400.22
561.24	2557.91
561.43	2387.93
561.63	2682.84
561.82	2492.38
562.02	2602.97
562.22	2338.78
562.41	2349.02
562.61	2371.55
562.80	2398.17
563.00	2879.44
563.19	2529.24
563.39	2576.34
563.59	2551.77
563.78	2387.93
563.98	2269.15
564.17	2521.05
564.37	2301.92
564.56	2414.56
564.76	2295.77
564.96	2627.54
565.15	2475.99
565.35	2719.70
565.54	2437.08
565.74	2621.40
565.93	2488.28
566.13	2463.71
566.32	2473.95
566.52	2582.49
566.71	2574.30
566.91	2650.07
567.11	2545.63
567.30	2330.59
567.50	2580.44
567.69	2637.78
567.89	2412.51
568.08	2371.55
568.28	2566.10
568.47	2318.30
568.67	2510.81
568.86	2455.51
569.06	2588.63
569.25	2416.60
569.45	2342.88
569.64	2471.90
569.84	2457.56
570.04	2521.05
570.23	2432.99
570.43	2457.56
570.62	2490.33
570.82	2680.79
571.01	2324.44
571.21	2349.02
571.40	2465.75
571.60	2625.50
571.79	2484.19
571.99	2519.00
572.18	2359.26
572.38	2531.29
572.57	2363.36
572.77	2580.44
572.96	2830.29
573.16	2516.95
573.35	2451.42
573.55	2559.96
573.74	2521.05
573.94	2381.79
574.13	2488.28
574.33	2605.02
574.52	2693.08
574.71	2482.14
574.91	2574.30
575.10	2334.68
575.30	2416.60
575.49	2412.51
575.69	2344.92
575.88	2545.63
576.08	2465.75
576.27	2695.13
576.47	2566.10
576.66	2691.03
576.86	2719.70
577.05	2488.28
577.25	2611.16
577.44	2711.51
577.64	2506.71
577.83	2471.90
578.02	2490.33
578.22	2625.50
578.41	2701.27
578.61	2416.60
578.80	2326.49
579.00	2473.95
579.19	2545.63
579.39	2568.15
579.58	2598.87
579.77	2451.42
579.97	2662.36
580.16	2629.59
580.36	2656.22
580.55	2564.06
580.75	2572.25
580.94	2574.30
581.13	2590.68
581.33	2711.51
581.52	2486.23
581.72	2727.89
581.91	2664.41
582.11	2498.52
582.30	2609.11
582.49	2648.02
582.69	2678.74
582.88	2500.57
583.08	2486.23
583.27	2635.74
583.47	2498.52
583.66	2457.56
583.85	2320.35
584.05	2461.66
584.24	2539.48
584.44	2547.67
584.63	2709.46
584.82	2654.17
585.02	2666.46
585.21	2652.12
585.41	2684.89
585.60	2621.40
585.79	2801.62
585.99	2799.57
586.18	2611.16
586.37	3286.99
586.57	5056.43
586.76	15052.57
586.96	34520.56
587.15	47918.37
587.34	56939.68
587.54	61838.42
587.73	55870.64
587.93	39359.91
588.12	30019.13
588.31	24041.11
588.51	21083.84
588.70	19693.27
588.89	17514.23
589.09	14995.23
589.28	12922.68
589.47	10241.89
589.67	7919.50
589.86	6258.59
590.06	4730.81
590.25	3735.50
590.44	3352.52
590.64	3037.14
590.83	2846.68
591.02	2854.87
591.22	2592.73
591.41	2576.34
591.60	2541.53
591.80	2815.96
591.99	2381.79
592.18	2473.95
592.38	2578.39
592.57	2461.66
592.76	2463.71
592.96	2580.44
593.15	2564.06
593.34	2633.69
593.54	2541.53
593.73	2582.49
593.92	2637.78
594.12	2578.39
594.31	2562.01
594.50	2752.47
594.70	2637.78
594.89	2891.73
595.08	2340.83
595.28	2539.48
595.47	2977.75
595.66	2654.17
595.86	2416.60
596.05	2457.56
596.24	2465.75
596.43	2748.37
596.63	2607.06
596.82	2523.10
597.01	2592.73
597.21	2756.57
597.40	2514.91
597.59	2539.48
597.79	2519.00
597.98	2570.20
598.17	2549.72
598.36	2367.45
598.56	2643.93
598.75	2447.32
598.94	2523.10
599.14	2463.71
599.33	2428.89
599.52	2609.11
599.71	2523.10
599.91	2535.39
600.10	2596.82
600.29	2512.86
600.48	2568.15
600.68	2490.33
600.87	2629.59
601.06	2418.65
601.26	2559.96
601.45	2555.86
601.64	2428.89
601.83	2703.32
602.03	2465.75
602.22	2396.12
602.41	2639.83
602.60	2850.77
602.80	2607.06
602.99	2555.86
603.18	2471.90
603.37	2602.97
603.57	2469.85
603.76	2523.10
603.95	2652.12
604.14	2482.14
604.34	2371.55
604.53	2439.13
604.72	2441.18
604.91	2619.35
605.10	2504.67
605.30	2297.82
605.49	2820.05
605.68	2545.63
605.87	2525.15
606.07	2430.94
606.26	2482.14
606.45	2629.59
606.64	2506.71
606.84	2424.80
607.03	2564.06
607.22	2719.70
607.41	2545.63
607.60	2424.80
607.80	2607.06
607.99	2490.33
608.18	2488.28
608.37	2535.39
608.56	2486.23
608.76	2697.17
608.95	2652.12
609.14	2533.34
609.33	2703.32
609.52	2744.28
609.72	2537.43
609.91	2582.49
610.10	2586.58
610.29	2686.94
610.48	2641.88
610.68	2609.11
610.87	2562.01
611.06	2580.44
611.25	2473.95
611.44	2588.63
611.63	2365.40
611.83	2703.32
612.02	2318.30
612.21	2584.54
612.40	2258.91
612.59	2379.74
612.79	2357.21
612.98	2461.66
613.17	2637.78
613.36	2545.63
613.55	2613.21
613.74	2543.58
613.93	2592.73
614.13	2723.80
614.32	2820.05
614.51	2709.46
614.70	2545.63
614.89	2523.10
615.08	2582.49
615.28	3004.37
615.47	2473.95
615.66	2641.88
615.85	2568.15
616.04	2629.59
616.23	2539.48
616.42	2551.77
616.62	2492.38
616.81	2545.63
617.00	2519.00
617.19	2578.39
617.38	2367.45
617.57	2521.05
617.76	2564.06
617.95	2668.50
618.15	2639.83
618.34	2650.07
618.53	2334.68
618.72	2602.97
618.91	2570.20
619.10	2629.59
619.29	2539.48
619.48	2502.62
619.68	2424.80
619.87	2449.37
620.06	2342.88
620.25	2514.91
620.44	2473.95
620.63	2443.23
620.82	2506.71
621.01	2570.20
621.20	2498.52
621.39	2512.86
621.59	2572.25
621.78	2508.76
621.97	2445.27
622.16	2576.34
622.35	2580.44
622.54	2512.86
622.73	2572.25
622.92	2277.34
623.11	2609.11
623.30	2457.56
623.49	2531.29
623.68	2412.51
623.88	2602.97
624.07	2449.37
624.26	2445.27
624.45	2475.99
624.64	2465.75
624.83	2480.09
625.02	2310.11
625.21	2430.94
625.40	2490.33
625.59	2625.50
625.78	2486.23
625.97	2623.45
626.16	2752.47
626.35	2703.32
626.54	2615.26
626.74	2713.56
626.93	2432.99
627.12	2465.75
627.31	2637.78
627.50	2541.53
627.69	2600.92
627.88	2392.03
628.07	2449.37
628.26	2328.54
628.45	2379.74
628.64	2371.55
628.83	2478.04
629.02	2334.68
629.21	2555.86
629.40	2650.07
629.59	2404.32
629.78	2480.09
629.97	2473.95
630.16	2523.10
630.35	2521.05
630.54	2521.05
630.73	2453.47
630.92	2498.52
631.11	2338.78
631.30	2478.04
631.49	2600.92
631.68	2406.36
631.87	2576.34
632.06	2310.11
632.25	2879.44
632.44	2521.05
632.63	2506.71
632.82	2598.87
633.01	2555.86
633.20	2641.88
633.39	2496.47
633.58	2451.42
633.77	2598.87
633.96	2658.26
634.15	2582.49
634.34	2564.06
634.53	2574.30
634.72	2500.57
634.91	2338.78
635.10	2422.75
635.29	2625.50
635.48	2449.37
635.67	2373.60
635.86	2387.93
636.05	2611.16
636.24	2445.27
636.43	2445.27
636.62	2535.39
636.81	2244.57
637.00	2570.20
637.19	2465.75
637.38	2551.77
637.57	2396.12
637.76	2547.67
637.95	2549.72
638.14	2537.43
638.33	2643.93
638.52	2594.78
638.71	2326.49
638.89	2435.03
639.08	2867.16
639.27	2711.51
639.46	2727.89
639.65	3135.44
639.84	3186.64
640.03	3411.92
640.22	3086.29
640.41	3170.26
640.60	2824.15
640.79	2846.68
640.98	2660.31
641.17	2596.82
641.36	2738.13
641.55	2703.32
641.74	2449.37
641.92	2521.05
642.11	2461.66
642.30	2471.90
642.49	2408.41
642.68	2369.50
642.87	2582.49
643.06	2551.77
643.25	2402.27
643.44	2359.26
643.63	2457.56
643.82	2584.54
644.00	2299.87
644.19	2475.99
644.38	2398.17
644.57	2486.23
644.76	2465.75
644.95	2430.94
645.14	2486.23
645.33	2498.52
645.52	2465.75
645.71	2301.92
645.89	2297.82
646.08	2441.18
646.27	2334.68
646.46	2686.94
646.65	2250.72
646.84	2463.71
647.03	2334.68
647.22	2535.39
647.40	2588.63
647.59	2441.18
647.78	2322.40
647.97	2355.16
648.16	2377.69
648.35	2668.50
648.54	2523.10
648.73	2502.62
648.91	2621.40
649.10	2547.67
649.29	2414.56
649.48	2375.64
649.67	2566.10
649.86	2553.82
650.05	2555.86
650.23	2719.70
650.42	2486.23
650.61	2783.19
650.80	2715.61
650.99	2748.37
651.18	2666.46
651.36	2695.13
651.55	2457.56
651.74	2576.34
651.93	2480.09
652.12	2473.95
652.31	2559.96
652.49	2457.56
652.68	2449.37
652.87	2654.17
653.06	2498.52
653.25	2699.22
653.44	2500.57
653.62	2660.31
653.81	2523.10
654.00	2500.57
654.19	2613.21
654.38	2916.31
654.56	2490.33
654.75	2447.32
654.94	2580.44
655.13	2502.62
655.32	2420.70
655.51	2498.52
655.69	2432.99
655.88	2523.10
656.07	2400.22
656.26	2461.66
656.45	2396.12
656.63	2422.75
656.82	2510.81
657.01	2506.71
657.20	2418.65
657.38	2625.50
657.57	2467.80
657.76	2295.77
657.95	2596.82
658.14	2441.18
658.32	2453.47
658.51	2301.92
658.70	2555.86
658.89	2564.06
659.08	2514.91
659.26	2676.70
659.45	2449.37
659.64	2627.54
659.83	2445.27
660.01	2899.92
660.20	2512.86
660.39	2738.13
660.58	2293.72
660.76	2621.40
660.95	2379.74
661.14	2519.00
661.33	2330.59
661.51	2437.08
661.70	2506.71
661.89	2588.63
662.08	2375.64
662.26	2346.97
662.45	2357.21
662.64	2703.32
662.83	2568.15
663.01	2457.56
663.20	2365.40
663.39	2639.83
663.58	2457.56
663.76	2463.71
663.95	2547.67
664.14	2404.32
664.32	2375.64
664.51	2330.59
664.70	2314.20
664.89	2547.67
665.07	2314.20
665.26	2543.58
665.45	2326.49
665.64	2572.25
665.82	2449.37
666.01	2598.87
666.20	2461.66
666.38	2611.16
666.57	2756.57
666.76	3909.57
666.95	9600.88
667.13	17721.07
667.32	22697.64
667.51	26113.65
667.69	27868.76
667.88	24696.46
668.07	17186.55
668.25	14303.01
668.44	11745.10
668.63	10385.25
668.81	9172.85
669.00	7878.54
669.19	7069.59
669.38	6168.48
669.56	5304.24
669.75	4284.35
669.94	3798.98
670.12	3217.36
670.31	2904.02
670.50	2805.72
670.68	2697.17
670.87	2633.69
671.06	2498.52
671.24	2514.91
671.43	2639.83
671.62	2613.21
671.80	2457.56
671.99	2514.91
672.18	2498.52
672.36	2576.34
672.55	2473.95
672.74	2400.22
672.92	2512.86
673.11	2592.73
673.29	2375.64
673.48	2523.10
673.67	2465.75
673.85	2631.64
674.04	2336.73
674.23	2471.90
674.41	2715.61
674.60	2301.92
674.79	2252.77
674.97	2385.88
675.16	2553.82
675.34	2633.69
675.53	2424.80
675.72	2510.81
675.90	2631.64
676.09	2447.32
676.28	2478.04
676.46	2355.16
676.65	2539.48
676.83	2383.84
677.02	2541.53
677.21	2529.24
677.39	2502.62
677.58	2365.40
677.77	2400.22
677.95	2383.84
678.14	2475.99
678.32	2414.56
678.51	2365.40
678.70	2686.94
678.88	2414.56
679.07	2570.20
679.25	2418.65
679.44	2439.13
679.63	2318.30
679.81	2527.19
680.00	2588.63
680.18	2602.97
680.37	2676.70
680.55	2475.99
680.74	2322.40
680.93	2267.10
681.11	2521.05
681.30	2508.76
681.48	2480.09
681.67	2496.47
681.85	2486.23
682.04	2389.98
682.23	2519.00
682.41	2529.24
682.60	2416.60
682.78	2445.27
682.97	2363.36
683.15	2514.91
683.34	2494.43
683.53	2635.74
683.71	2236.38
683.90	2566.10
684.08	2645.98
684.27	2449.37
684.45	2467.80
684.64	2586.58
684.82	2496.47
685.01	2568.15
685.19	2426.84
685.38	2619.35
685.57	2480.09
685.75	2453.47
685.94	2392.03
686.12	2406.36
686.31	2449.37
686.49	2643.93
686.68	2254.81
686.86	2482.14
687.05	2449.37
687.23	2674.65
687.42	2406.36
687.60	2269.15
687.79	2627.54
687.97	2648.02
688.16	2580.44
688.34	2584.54
688.53	2215.90
688.71	2496.47
688.90	2619.35
689.08	2455.51
689.27	2334.68
689.45	2578.39
689.64	2637.78
689.82	2506.71
690.01	2519.00
690.19	2551.77
690.38	2473.95
690.56	2562.01
690.75	2308.06
690.93	2383.84
691.12	2381.79
691.30	2482.14
691.49	2453.47
691.67	2402.27
691.86	2652.12
692.04	2445.27
692.23	2471.90
692.41	2512.86
692.60	2742.23
692.78	2674.65
692.97	2473.95
693.15	2559.96
693.34	2701.27
693.52	2545.63
693.71	2498.52
693.89	2494.43
694.08	2383.84
694.26	2582.49
694.44	2666.46
694.63	2596.82
694.81	2334.68
695.00	2318.30
695.18	2596.82
695.37	2883.54
695.55	2453.47
695.74	2494.43
695.92	2422.75
696.10	2658.26
696.29	2248.67
696.47	2400.22
696.66	2346.97
696.84	2310.11
697.03	2490.33
697.21	2695.13
697.40	3629.00
697.58	2711.51
697.76	2420.70
697.95	2439.13
698.13	2383.84
698.32	2422.75
698.50	2490.33
698.68	2553.82
698.87	2531.29
699.05	2637.78
699.24	2535.39
699.42	2299.87
699.61	2516.95
699.79	2424.80
699.97	2437.08
700.16	2357.21
700.34	2357.21
700.53	2564.06
700.71	2596.82
700.89	2508.76
701.08	2463.71
701.26	2523.10
701.45	2934.74
701.63	2351.07
701.81	2435.03
702.00	2473.95
702.18	2467.80
702.37	2490.33
702.55	2705.37
702.73	2703.32
702.92	2568.15
703.10	2861.01
703.28	2758.61
703.47	2531.29
703.65	2701.27
703.84	2656.22
704.02	2510.81
704.20	2746.33
704.39	2465.75
704.57	2473.95
704.75	2635.74
704.94	2641.88
705.12	2564.06
705.30	2895.83
705.49	5562.28
705.67	12676.93
705.86	20621.00
706.04	24133.26
706.22	27414.11
706.41	27739.74
706.59	22441.64
706.77	16414.47
706.96	13915.95
707.14	12427.07
707.32	10432.35
707.51	9353.07
707.69	7647.12
707.87	6045.60
708.06	4978.61
708.24	4186.05
708.42	3348.43
708.61	3373.00
708.79	2670.55
708.97	2695.13
709.16	2588.63
709.34	2553.82
709.52	2439.13
709.71	2441.18
709.89	2584.54
710.07	2342.88
710.26	2437.08
710.44	2445.27
710.62	2615.26
710.80	2523.10
710.99	2547.67
711.17	2545.63
711.35	2408.41
711.54	2392.03
711.72	2645.98
711.90	2531.29
712.09	2486.23
712.27	2394.08
712.45	2529.24
712.63	2449.37
712.82	2519.00
713.00	2422.75
713.18	2562.01
713.37	2623.45
713.55	2605.02
713.73	2568.15
713.91	2492.38
714.10	2445.27
714.28	2473.95
714.46	2498.52
714.65	2445.27
714.83	2510.81
715.01	2428.89
715.19	2584.54
715.38	2367.45
715.56	2492.38
715.74	2437.08
715.92	2355.16
716.11	2596.82
716.29	2207.71
716.47	2471.90
716.65	2426.84
716.84	2295.77
717.02	2545.63
717.20	2314.20
717.38	2453.47
717.57	2496.47
717.75	2437.08
717.93	2363.36
718.11	2482.14
718.30	2336.73
718.48	2412.51
718.66	2605.02
718.84	2545.63
719.03	2467.80
719.21	2357.21
719.39	2711.51
719.57	2570.20
719.75	2580.44
719.94	2338.78
720.12	2410.46
720.30	2471.90
720.48	2615.26
720.67	2293.72
720.85	2338.78
721.03	2455.51
721.21	2404.32
721.39	2578.39
721.58	2516.95
721.76	2510.81
721.94	2545.63
722.12	2576.34
722.30	2746.33
722.49	2469.85
722.67	2480.09
722.85	2498.52
723.03	2299.87
723.21	2357.21
723.40	2488.28
723.58	2600.92
723.76	2590.68
723.94	2713.56
724.12	2508.76
724.30	2613.21
724.49	2658.26
724.67	2459.61
724.85	2580.44
725.03	2320.35
725.21	2578.39
725.40	2693.08
725.58	2396.12
725.76	2543.58
725.94	2498.52
726.12	2369.50
726.30	2379.74
726.49	2469.85
726.67	2408.41
726.85	2609.11
727.03	2912.21
727.21	4227.01
727.39	5744.55
727.57	6555.55
727.76	7344.02
727.94	7499.66
728.12	6907.80
728.30	5480.36
728.48	4951.99
728.66	4562.87
728.84	4145.09
729.03	3538.89
729.21	3200.98
729.39	2914.26
729.57	2729.94
729.75	2619.35
729.93	2539.48
730.11	2363.36
730.30	2484.19
730.48	2387.93
730.66	2551.77
730.84	2570.20
731.02	2475.99
731.20	2494.43
731.38	2475.99
731.56	2435.03
731.74	2359.26
731.93	2562.01
732.11	2486.23
732.29	2441.18
732.47	2490.33
732.65	2537.43
732.83	2555.86
733.01	2551.77
733.19	2457.56
733.37	2510.81
733.56	2523.10
733.74	2441.18
733.92	2662.36
734.10	2410.46
734.28	2576.34
734.46	2301.92
734.64	2426.84
734.82	2461.66
735.00	2459.61
735.18	2437.08
735.36	2484.19
735.54	2402.27
735.73	2498.52
735.91	2519.00
736.09	2482.14
736.27	2424.80
736.45	2586.58
736.63	2328.54
736.81	2424.80
736.99	2621.40
737.17	2686.94
737.35	2435.03
737.53	2543.58
737.71	2408.41
737.89	2553.82
738.07	2342.88
738.25	2361.31
738.43	2318.30
738.61	2346.97
738.80	2269.15
738.98	2406.36
739.16	2299.87
739.34	2418.65
739.52	2660.31
739.70	2478.04
739.88	2619.35
740.06	2564.06
740.24	2289.63
740.42	2678.74
740.60	2322.40
740.78	2365.40
740.96	2285.53
741.14	2396.12
741.32	2441.18
741.50	2351.07
741.68	2748.37
741.86	2617.30
742.04	2357.21
742.22	2359.26
742.40	2488.28
742.58	2572.25
742.76	2355.16
742.94	2572.25
743.12	2330.59
743.30	2498.52
743.48	2519.00
743.66	2422.75
743.84	2584.54
744.02	2506.71
744.20	2398.17
744.38	2363.36
744.56	2314.20
744.74	2686.94
744.92	2516.95
745.10	2688.98
745.28	2539.48
745.46	2682.84
745.64	2473.95
745.82	2525.15
746.00	2478.04
746.18	2492.38
746.36	2445.27
746.54	2516.95
746.72	2447.32
746.90	2359.26
747.08	2551.77
747.26	2359.26
747.44	2648.02
747.62	2557.91
747.80	2461.66
747.98	2486.23
748.15	2508.76
748.33	2711.51
748.51	2463.71
748.69	2588.63
748.87	2383.84
749.05	2398.17
749.23	2443.23
749.41	2482.14
749.59	2435.03
749.77	2605.02
749.95	2445.27
750.13	2349.02
750.31	2457.56
750.49	2482.14
750.67	2594.78
750.85	2641.88
751.03	2449.37
751.20	2719.70
751.38	2457.56
751.56	2400.22
751.74	2506.71
751.92	2514.91
752.10	2338.78
752.28	2580.44
752.46	2392.03
752.64	2410.46
752.82	2465.75
753.00	2635.74
753.18	2408.41
753.35	2437.08
753.53	2480.09
753.71	2373.60
753.89	2504.67
754.07	2504.67
754.25	2535.39
754.43	2566.10
754.61	2359.26
754.79	2576.34
754.97	2385.88
755.14	2656.22
755.32	2297.82
755.50	2514.91
755.68	2516.95
755.86	2346.97
756.04	2430.94
756.22	2281.44
756.40	2531.29
756.57	2629.59
756.75	2412.51
756.93	2502.62
757.11	2568.15
757.29	2367.45
757.47	2469.85
757.65	2275.29
757.82	2273.25
758.00	2416.60
758.18	2306.01
758.36	2404.32
758.54	2684.89
758.72	2285.53
758.90	2566.10
759.07	2562.01
759.25	2400.22
759.43	2494.43
759.61	2283.49
759.79	3518.41
759.97	2703.32
760.15	2447.32
760.32	2306.01
760.50	2467.80
760.68	2693.08
760.86	2318.30
761.04	2539.48
761.22	2570.20
761.39	2555.86
761.57	2519.00
761.75	2463.71
761.93	2512.86
762.11	2435.03
762.28	2527.19
762.46	2346.97
762.64	2617.30
762.82	2367.45
763.00	2377.69
763.18	2621.40
763.35	2404.32
763.53	2594.78
763.71	2441.18
763.89	2492.38
764.07	2482.14
764.24	2453.47
764.42	2537.43
764.60	2375.64
764.78	2564.06
764.96	2584.54
765.13	2562.01
765.31	2410.46
765.49	2568.15
765.67	2375.64
765.84	2420.70
766.02	2377.69
766.20	2297.82
766.38	2539.48
766.56	2498.52
766.73	2582.49
766.91	2482.14
767.09	2523.10
767.27	2510.81
767.44	2324.44
767.62	2578.39
767.80	2496.47
767.98	2404.32
768.15	2410.46
768.33	2557.91
768.51	2525.15
768.69	2441.18
768.87	2457.56
769.04	2553.82
769.22	2785.24
769.40	2648.02
769.58	2662.36
769.75	2588.63
769.93	2688.98
770.11	2480.09
770.28	2318.30
770.46	2559.96
770.64	2514.91
770.82	2373.60
770.99	2455.51
771.17	2553.82
771.35	2437.08
771.53	2400.22
771.70	2521.05
771.88	2545.63
772.06	2443.23
772.23	2404.32
772.41	2506.71
772.59	2449.37
772.77	2328.54
772.94	2449.37
773.12	2547.67
773.30	2496.47
773.47	2531.29
773.65	2416.60
773.83	2633.69
774.01	2467.80
774.18	2248.67
774.36	2469.85
774.54	2375.64
774.71	2553.82
774.89	2353.12
775.07	2342.88
775.24	2475.99
775.42	2406.36
775.60	2666.46
775.78	2432.99
775.95	2267.10
776.13	2349.02
776.31	2299.87
776.48	2506.71
776.66	2584.54
776.84	2506.71
777.01	2398.17
777.19	2332.64
777.37	2473.95
777.54	2596.82
777.72	2777.05
777.90	2531.29
778.07	2330.59
778.25	2815.96
778.43	2592.73
778.60	2400.22
778.78	2473.95
778.96	2672.60
779.13	2326.49
779.31	2553.82
779.49	2519.00
779.66	2488.28
779.84	2408.41
780.01	2379.74
780.19	2373.60
780.37	2580.44
780.54	2461.66
780.72	2404.32
780.90	2385.88
781.07	2406.36
781.25	2488.28
781.43	2588.63
781.60	2420.70
781.78	2551.77
781.95	2461.66
782.13	2424.80
782.31	2459.61
782.48	2326.49
782.66	2455.51
782.83	2621.40
783.01	2459.61
783.19	2564.06
783.36	2490.33
783.54	2324.44
783.72	2592.73
783.89	2469.85
784.07	2553.82
784.24	2498.52
784.42	2662.36
784.60	2535.39
784.77	2488.28
784.95	2234.33
785.12	2475.99
785.30	2492.38
785.47	2316.25
785.65	2314.20
785.83	2453.47
786.00	2342.88
786.18	2469.85
786.35	2291.68
786.53	2375.64
786.71	2627.54
786.88	2531.29
787.06	2592.73
787.23	2424.80
787.41	2359.26
787.58	2473.95
787.76	2430.94
787.94	2400.22
788.11	2514.91
788.29	2365.40
788.46	2371.55
788.64	2285.53
788.81	2510.81
788.99	2387.93
789.16	2332.64
789.34	2424.80
789.52	2453.47
789.69	2414.56
789.87	2275.29
790.04	2441.18
790.22	2502.62
790.39	2713.56
790.57	2316.25
790.74	2353.12
790.92	2592.73
791.09	2340.83
791.27	2463.71
791.44	2564.06
791.62	2488.28
791.79	2543.58
791.97	2428.89
792.15	2734.04
792.32	2553.82
792.50	2568.15
792.67	2549.72
792.85	2650.07
793.02	2502.62
793.20	2412.51
793.37	2439.13
793.55	2385.88
793.72	2260.96
793.90	2564.06
794.07	2367.45
794.25	2383.84
794.42	2490.33
794.60	2445.27
794.77	2473.95
794.95	2576.34
795.12	2557.91
795.30	2488.28
795.47	2324.44
795.65	2760.66
795.82	2553.82
796.00	2392.03
796.17	2365.40
796.34	2432.99
796.52	2465.75
796.69	2586.58
796.87	2576.34
797.04	2473.95
797.22	2531.29
797.39	2488.28
797.57	2607.06
797.74	2531.29
797.92	2529.24
798.09	2424.80
798.27	2619.35
798.44	2338.78
798.62	2310.11
798.79	2519.00
798.96	2525.15
799.14	2400.22
799.31	2863.06
799.49	2422.75
799.66	2363.36
799.84	2572.25
800.01	2363.36
800.19	2475.99
800.36	2211.81
800.53	2502.62
800.71	2465.75
800.88	2723.80
801.06	2260.96
801.23	2379.74
801.41	2430.94
801.58	2478.04
801.75	2449.37
801.93	2498.52
802.10	2635.74
802.28	2525.15
802.45	2430.94
802.63	2496.47
802.80	2617.30
802.97	2396.12
803.15	2459.61
803.32	2408.41
803.50	2355.16
803.67	2389.98
803.84	2357.21
804.02	2416.60
804.19	2402.27
804.37	2197.47
804.54	2351.07
804.71	2396.12
804.89	2369.50
805.06	2418.65
805.24	2342.88
805.41	2324.44
805.58	2357.21
805.76	2727.89
805.93	2523.10
806.10	2592.73
806.28	2539.48
806.45	2414.56
806.63	2502.62
806.80	2451.42
806.97	2506.71
807.15	2633.69
807.32	2432.99
807.49	2521.05
807.67	2269.15
807.84	2490.33
808.01	2263.01
808.19	2627.54
808.36	2768.85
808.54	2449.37
808.71	2389.98
808.88	2441.18
809.06	2523.10
809.23	2648.02
809.40	2408.41
809.58	2478.04
809.75	2461.66
809.92	2228.19
810.10	2684.89
810.27	2398.17
810.44	2537.43
810.62	2586.58
810.79	2502.62
810.96	2441.18
811.14	2414.56
811.31	2574.30
811.48	2545.63
811.66	2519.00
811.83	2705.37
812.00	2562.01
812.18	2545.63
812.35	2715.61
812.52	2441.18
812.69	2375.64
812.87	2420.70
813.04	2330.59
813.21	2430.94
813.39	2445.27
813.56	2383.84
813.73	2543.58
813.91	2205.66
814.08	2473.95
814.25	2535.39
814.42	2248.67
814.60	2461.66
814.77	2478.04
814.94	2432.99
815.12	2461.66
815.29	2641.88
815.46	2455.51
815.63	2449.37
815.81	2424.80
815.98	2377.69
816.15	2488.28
816.33	2432.99
816.50	2396.12
816.67	2430.94
816.84	2457.56
817.02	2342.88
817.19	2463.71
817.36	2510.81
817.53	2486.23
817.71	2346.97
817.88	2572.25
818.05	2482.14
818.22	2389.98
818.40	2658.26
818.57	2351.07
818.74	2512.86
818.91	2441.18
819.09	2588.63
819.26	2545.63
819.43	2361.31
819.60	2383.84
819.78	2502.62
819.95	2574.30
820.12	2322.40
820.29	2576.34
820.47	2627.54
820.64	2396.12
820.81	2379.74
820.98	2346.97
821.15	2371.55
821.33	2578.39
821.50	2254.81
821.67	2551.77
821.84	2437.08
822.02	2473.95
822.19	2539.48
822.36	2469.85
822.53	2457.56
822.70	2289.63
822.88	2461.66
823.05	2658.26
823.22	2521.05
823.39	2490.33
823.56	2498.52
823.74	2666.46
823.91	2328.54
824.08	2340.83
824.25	2363.36
824.42	2719.70
824.60	2306.01
824.77	2490.33
824.94	2432.99
825.11	2457.56
825.28	2326.49
825.45	2475.99
825.63	2457.56
825.80	2455.51
825.97	2586.58
826.14	2510.81
826.31	2367.45
826.48	2557.91
826.66	2351.07
826.83	2402.27
827.00	2430.94
827.17	2353.12
827.34	2439.13
827.51	2416.60
827.69	2463.71
827.86	2283.49
828.03	2432.99
828.20	2449.37
828.37	2389.98
828.54	2486.23
828.71	2353.12
828.89	2525.15
829.06	2441.18
829.23	2686.94
829.40	2412.51
829.57	2387.93
829.74	2643.93
829.91	2385.88
830.09	2418.65
830.26	2643.93
830.43	2637.78
830.60	2439.13
830.77	2572.25
830.94	2537.43
831.11	2592.73
831.28	2461.66
831.46	2506.71
831.63	2521.05
831.80	2662.36
831.97	2424.80
832.14	2478.04
832.31	2492.38
832.48	2504.67
832.65	2584.54
832.82	2496.47
832.99	2506.71
833.17	2306.01
833.34	2693.08
833.51	2486.23
833.68	2228.19
833.85	2562.01
834.02	2373.60
834.19	2326.49
834.36	2346.97
834.53	2496.47
834.70	2547.67
834.87	2482.14
835.04	2387.93
835.22	2441.18
835.39	2463.71
835.56	2369.50
835.73	2330.59
835.90	2613.21
836.07	2430.94
836.24	2482.14
836.41	2387.93
836.58	2385.88
836.75	2555.86
836.92	2418.65
837.09	2373.60
837.26	2572.25
837.43	2471.90
837.60	2498.52
837.77	2375.64
837.94	2627.54
838.12	2582.49
838.29	2389.98
838.46	2285.53
838.63	2320.35
838.80	2662.36
838.97	2473.95
839.14	2346.97
839.31	2478.04
839.48	2519.00
839.65	2324.44
839.82	2494.43
839.99	2512.86
840.16	2478.04
840.33	2320.35
840.50	2408.41
840.67	2369.50
840.84	2174.94
841.01	2389.98
841.18	2283.49
841.35	2420.70
841.52	2559.96
841.69	2670.55
841.86	2408.41
842.03	2461.66
842.20	2566.10
842.37	2400.22
842.54	2346.97
842.71	2492.38
842.88	2326.49
843.05	2383.84
843.22	2338.78
843.39	2512.86
843.56	2383.84
843.73	2277.34
843.90	2490.33
844.07	2482.14
844.24	2553.82
844.41	2488.28
844.58	2488.28
844.75	2455.51
844.92	2539.48
845.09	2404.32
845.26	2379.74
845.43	2549.72
845.60	2392.03
845.77	2463.71
845.94	2422.75
846.10	2635.74
846.27	2279.39
846.44	2301.92
846.61	2334.68
846.78	2484.19
846.95	2637.78
847.12	2371.55
847.29	2346.97
847.46	2400.22
847.63	2617.30
847.80	2281.44
847.97	2310.11
848.14	2705.37
848.31	2502.62
848.48	2299.87
848.65	2463.71
848.82	2326.49
848.98	2701.27
849.15	2504.67
849.32	2535.39
849.49	2547.67
849.66	2451.42
849.83	2332.64
850.00	2322.40
850.17	2582.49
850.34	2398.17
850.51	2277.34
850.68	2502.62
850.85	2748.37
851.01	2613.21
851.18	2365.40
851.35	2383.84
851.52	2617.30
851.69	2633.69
851.86	2271.20
852.03	2330.59
852.20	2680.79
852.37	2469.85
852.53	2254.81
852.70	2316.25
852.87	2527.19
853.04	2590.68
853.21	2334.68
853.38	2537.43
853.55	2588.63
853.72	2631.64
853.89	2334.68
854.05	2379.74
854.22	2447.32
854.39	2447.32
854.56	2406.36
854.73	2488.28
854.90	2340.83
855.07	2512.86
855.23	2359.26
855.40	2293.72
855.57	2443.23
855.74	2265.05
855.91	2639.83
856.08	2234.33
856.25	2332.64
856.41	2398.17
856.58	2435.03
856.75	2453.47
856.92	2338.78
857.09	2543.58
857.26	2324.44
857.42	2398.17
857.59	2531.29
857.76	2463.71
857.93	2359.26
858.10	2432.99
858.27	2326.49
858.43	2490.33
858.60	2447.32
858.77	2209.76
858.94	2422.75
859.11	2535.39
859.27	2441.18
859.44	2328.54
859.61	2711.51
859.78	2545.63
859.95	2349.02
860.12	2324.44
860.28	2707.41
860.45	2658.26
860.62	2312.16
860.79	2514.91
860.95	2398.17
861.12	2328.54
861.29	2287.58
861.46	2289.63
861.63	2367.45
861.79	2457.56
861.96	2285.53
862.13	2387.93
862.30	2658.26
862.47	2420.70
862.63	2285.53
862.80	2521.05
862.97	2482.14
863.14	2523.10
863.30	2445.27
863.47	2326.49
863.64	2645.98
863.81	2500.57
863.97	2357.21
864.14	2389.98
864.31	2420.70
864.48	2543.58
864.65	2344.92
864.81	2545.63
864.98	2529.24
865.15	2531.29
865.32	2383.84
865.48	2449.37
865.65	2676.70
865.82	2488.28
865.98	2455.51
866.15	2506.71
866.32	2461.66
866.49	2392.03
866.65	2605.02
866.82	2408.41
866.99	2424.80
867.16	2367.45
867.32	2297.82
867.49	2426.84
867.66	2519.00
867.83	2371.55
867.99	2299.87
868.16	2322.40
868.33	2424.80
868.49	2555.86
868.66	2332.64
868.83	2473.95
868.99	2439.13
869.16	2467.80
869.33	2529.24
869.50	2498.52
869.66	2516.95
869.83	2473.95
870.00	2254.81
870.16	2422.75
870.33	2457.56
870.50	2617.30
870.66	2398.17
870.83	2494.43
871.00	2428.89
871.17	2684.89
871.33	2383.84
871.50	2389.98
871.67	2449.37
871.83	2488.28
872.00	2453.47
872.17	2322.40
872.33	2717.65
872.50	2668.50
872.67	2355.16
872.83	2430.94
873.00	2447.32
873.17	2504.67
873.33	2404.32
873.50	2412.51
873.67	2430.94
873.83	2383.84
874.00	2443.23
874.16	2484.19
874.33	2580.44
874.50	2392.03
874.66	2359.26
874.83	2420.70
875.00	2586.58
875.16	2619.35
875.33	2494.43
875.50	2142.18
875.66	2469.85
875.83	2486.23
875.99	2459.61
876.16	2473.95
876.33	2430.94
876.49	2478.04
876.66	2396.12
876.83	2432.99
876.99	2291.68
877.16	2471.90
877.32	2359.26
877.49	2424.80
877.66	2439.13
877.82	2672.60
877.99	2432.99
878.15	2562.01
878.32	2588.63
878.49	2523.10
878.65	2375.64
878.82	2580.44
878.98	2377.69
879.15	2580.44
879.32	2547.67
879.48	2478.04
879.65	2441.18
879.81	2428.89
879.98	2306.01
880.15	2379.74
880.31	2564.06
880.48	2432.99
880.64	2496.47
880.81	2469.85
880.97	2660.31
881.14	2574.30
881.31	2338.78
881.47	2666.46
881.64	2420.70
881.80	2236.38
881.97	2535.39
882.13	2396.12
882.30	2324.44
882.47	2379.74
882.63	2338.78
882.80	2428.89
882.96	2465.75
883.13	2580.44
883.29	2467.80
883.46	2408.41
883.62	2648.02
883.79	2459.61
883.95	2486.23
884.12	2461.66
884.29	2695.13
884.45	2457.56
884.62	2387.93
884.78	2326.49
884.95	2711.51
885.11	2357.21
885.28	2400.22
885.44	2400.22
885.61	2531.29
885.77	2725.85
885.94	2482.14
886.10	2424.80
886.27	2430.94
886.43	2682.84
886.60	2394.08
886.76	2461.66
886.93	2484.19
887.09	2500.57
887.26	2246.62
887.42	2410.46
887.59	2625.50
887.75	2744.28
887.92	2572.25
888.08	2473.95
888.25	2680.79
888.41	2543.58
888.58	2422.75
888.74	2285.53
888.91	2447.32
>>>>>End Processed Spectral Data<<<<<
