SpectraSuite Data File
++++++++++++++++++++++++++++++++++++
Date: Thu May 05 14:42:12 CEST 2016
User: root
Dark Spectrum Present: No
Reference Spectrum Present: No
Number of Sampled Component Spectra: 1
Spectrometers: USB4C02835
Integration Time (usec): 100000 (USB4C02835)
Spectra Averaged: 1 (USB4C02835)
Boxcar Smoothing: 0 (USB4C02835)
Correct for Electrical Dark: No (USB4C02835)
Strobe/Lamp Enabled: No (USB4C02835)
Correct for Detector Non-linearity: No (USB4C02835)
Correct for Stray Light: No (USB4C02835)
Number of Pixels in Processed Spectrum: 3648
>>>>>Begin Processed Spectral Data<<<<<
177.47	1916.90
177.69	1916.90
177.91	1916.90
178.13	1875.94
178.36	1892.32
178.58	2349.02
178.80	2512.86
179.02	2334.68
179.24	2383.84
179.46	2322.40
179.68	2387.93
179.90	2463.71
180.13	2473.95
180.35	2170.85
180.57	2281.44
180.79	2605.02
181.01	2482.14
181.23	2375.64
181.45	2504.67
181.67	2566.10
181.90	2584.54
182.12	2346.97
182.34	2285.53
182.56	2633.69
182.78	2519.00
183.00	2381.79
183.22	2383.84
183.44	2265.05
183.66	2869.20
183.89	2439.13
184.11	2392.03
184.33	2512.86
184.55	2658.26
184.77	2367.45
184.99	2383.84
185.21	2420.70
185.43	2764.76
185.65	2346.97
185.87	2289.63
186.10	2699.22
186.32	2781.14
186.54	2418.65
186.76	2449.37
186.98	2621.40
187.20	2406.36
187.42	2332.64
187.64	2363.36
187.86	2547.67
188.08	2514.91
188.30	2299.87
188.52	2392.03
188.75	2592.73
188.97	2650.07
189.19	2398.17
189.41	2346.97
189.63	2586.58
189.85	2340.83
190.07	2273.25
190.29	2263.01
190.51	2539.48
190.73	2375.64
190.95	2414.56
191.17	2392.03
191.39	2301.92
191.61	2422.75
191.84	2297.82
192.06	2514.91
192.28	2287.58
192.50	2842.58
192.72	2412.51
192.94	2340.83
193.16	2605.02
193.38	2498.52
193.60	2301.92
193.82	2482.14
194.04	2676.70
194.26	2523.10
194.48	2316.25
194.70	2310.11
194.92	2445.27
195.14	2605.02
195.36	2275.29
195.58	2406.36
195.80	2441.18
196.02	2445.27
196.24	2246.62
196.46	2371.55
196.69	2392.03
196.91	2754.52
197.13	2297.82
197.35	2324.44
197.57	2676.70
197.79	2559.96
198.01	2449.37
198.23	2408.41
198.45	2596.82
198.67	2275.29
198.89	2279.39
199.11	2428.89
199.33	2467.80
199.55	2211.81
199.77	2312.16
199.99	2510.81
200.21	2445.27
200.43	2521.05
200.65	2201.57
200.87	2254.81
201.09	2504.67
201.31	2400.22
201.53	2375.64
201.75	2375.64
201.97	2445.27
202.19	2504.67
202.41	2408.41
202.63	2562.01
202.85	2625.50
203.07	2465.75
203.29	2336.73
203.51	2308.06
203.73	2426.84
203.95	2830.29
204.17	2373.60
204.39	2459.61
204.61	2449.37
204.83	2525.15
205.05	2457.56
205.27	2416.60
205.49	2768.85
205.71	2465.75
205.93	2232.29
206.15	2250.72
206.37	2447.32
206.59	2418.65
206.81	2332.64
207.03	2297.82
207.25	2316.25
207.47	2541.53
207.69	2342.88
207.91	2557.91
208.13	2578.39
208.34	2406.36
208.56	2310.11
208.78	2394.08
209.00	2445.27
209.22	2422.75
209.44	2334.68
209.66	2349.02
209.88	2516.95
210.10	2492.38
210.32	2316.25
210.54	2428.89
210.76	2475.99
210.98	2551.77
211.20	2211.81
211.42	2439.13
211.64	2621.40
211.86	2568.15
212.08	2408.41
212.30	2328.54
212.52	2439.13
212.74	2465.75
212.96	2369.50
213.17	2385.88
213.39	2578.39
213.61	2645.98
213.83	2318.30
214.05	2453.47
214.27	2594.78
214.49	2328.54
214.71	2396.12
214.93	2535.39
215.15	2426.84
215.37	2627.54
215.59	2260.96
215.81	2437.08
216.03	2680.79
216.24	2478.04
216.46	2357.21
216.68	2461.66
216.90	2652.12
217.12	2641.88
217.34	2340.83
217.56	2381.79
217.78	2621.40
218.00	2539.48
218.22	2359.26
218.44	2394.08
218.66	2564.06
218.87	2703.32
219.09	2406.36
219.31	2369.50
219.53	2490.33
219.75	2467.80
219.97	2408.41
220.19	2334.68
220.41	2461.66
220.63	2672.60
220.85	2355.16
221.06	2420.70
221.28	2607.06
221.50	2584.54
221.72	2383.84
221.94	2314.20
222.16	2535.39
222.38	2645.98
222.60	2332.64
222.82	2445.27
223.03	2570.20
223.25	2389.98
223.47	2400.22
223.69	2506.71
223.91	2529.24
224.13	2555.86
224.35	2254.81
224.57	2455.51
224.78	2523.10
225.00	2402.27
225.22	2422.75
225.44	2303.96
225.66	2498.52
225.88	2404.32
226.10	2365.40
226.32	2424.80
226.53	2615.26
226.75	2424.80
226.97	2359.26
227.19	2392.03
227.41	2400.22
227.63	2381.79
227.85	2258.91
228.06	2392.03
228.28	2514.91
228.50	2602.97
228.72	2207.71
228.94	2342.88
229.16	2326.49
229.37	2400.22
229.59	2246.62
229.81	2510.81
230.03	2432.99
230.25	2275.29
230.47	2281.44
230.69	2293.72
230.90	2605.02
231.12	2392.03
231.34	2310.11
231.56	2457.56
231.78	2461.66
232.00	2480.09
232.21	2377.69
232.43	2303.96
232.65	2197.47
232.87	2482.14
233.09	2303.96
233.30	2353.12
233.52	2514.91
233.74	2457.56
233.96	2353.12
234.18	2439.13
234.40	2469.85
234.61	2674.65
234.83	2306.01
235.05	2306.01
235.27	2805.72
235.49	2680.79
235.70	2273.25
235.92	2367.45
236.14	2559.96
236.36	2805.72
236.58	2308.06
236.79	2463.71
237.01	2514.91
237.23	2461.66
237.45	2523.10
237.67	2297.82
237.88	2467.80
238.10	2666.46
238.32	2287.58
238.54	2334.68
238.76	2525.15
238.97	2387.93
239.19	2260.96
239.41	2394.08
239.63	2596.82
239.85	2381.79
240.06	2396.12
240.28	2297.82
240.50	2553.82
240.72	2457.56
240.93	2322.40
241.15	2453.47
241.37	2498.52
241.59	2592.73
241.81	2355.16
242.02	2418.65
242.24	2523.10
242.46	2641.88
242.68	2199.52
242.89	2269.15
243.11	2623.45
243.33	2463.71
243.55	2367.45
243.76	2416.60
243.98	2361.31
244.20	2475.99
244.42	2363.36
244.64	2410.46
244.85	2316.25
245.07	2367.45
245.29	2400.22
245.51	2383.84
245.72	2441.18
245.94	2572.25
246.16	2400.22
246.38	2377.69
246.59	2443.23
246.81	2375.64
247.03	2265.05
247.24	2263.01
247.46	2318.30
247.68	2510.81
247.90	2310.11
248.11	2293.72
248.33	2588.63
248.55	2500.57
248.77	2359.26
248.98	2441.18
249.20	2772.95
249.42	2535.39
249.64	2332.64
249.85	2338.78
250.07	2418.65
250.29	2564.06
250.50	2383.84
250.72	2275.29
250.94	2596.82
251.16	2793.43
251.37	2406.36
251.59	2478.04
251.81	2555.86
252.02	2500.57
252.24	2258.91
252.46	2437.08
252.68	2406.36
252.89	2437.08
253.11	2203.61
253.33	2414.56
253.54	2637.78
253.76	2383.84
253.98	2316.25
254.20	2275.29
254.41	2293.72
254.63	2500.57
254.85	2220.00
255.06	2469.85
255.28	2553.82
255.50	2373.60
255.71	2293.72
255.93	2213.85
256.15	2490.33
256.36	2551.77
256.58	2263.01
256.80	2416.60
257.02	2500.57
257.23	2392.03
257.45	2314.20
257.67	2404.32
257.88	2416.60
258.10	2605.02
258.32	2316.25
258.53	2426.84
258.75	2723.80
258.97	2373.60
259.18	2318.30
259.40	2383.84
259.62	2727.89
259.83	2703.32
260.05	2387.93
260.27	2895.83
260.48	2629.59
260.70	2398.17
260.92	2355.16
261.13	2367.45
261.35	2494.43
261.57	2465.75
261.78	2299.87
262.00	2250.72
262.22	2557.91
262.43	2412.51
262.65	2334.68
262.86	2306.01
263.08	2873.30
263.30	2482.14
263.51	2166.75
263.73	2234.33
263.95	2662.36
264.16	2424.80
264.38	2265.05
264.60	2328.54
264.81	2531.29
265.03	2635.74
265.25	2523.10
265.46	2359.26
265.68	2629.59
265.89	2619.35
266.11	2267.10
266.33	2383.84
266.54	2666.46
266.76	2576.34
266.98	2389.98
267.19	2400.22
267.41	2602.97
267.62	2500.57
267.84	2250.72
268.06	2404.32
268.27	2496.47
268.49	2613.21
268.70	2478.04
268.92	2336.73
269.14	2398.17
269.35	2297.82
269.57	2471.90
269.79	2453.47
270.00	2435.03
270.22	2686.94
270.43	2283.49
270.65	2189.28
270.87	2590.68
271.08	2529.24
271.30	2332.64
271.51	2379.74
271.73	2582.49
271.95	2602.97
272.16	2359.26
272.38	2453.47
272.59	2432.99
272.81	2545.63
273.02	2387.93
273.24	2439.13
273.46	2627.54
273.67	2422.75
273.89	2283.49
274.10	2267.10
274.32	2623.45
274.54	2469.85
274.75	2445.27
274.97	2377.69
275.18	2555.86
275.40	2531.29
275.61	2326.49
275.83	2402.27
276.05	2346.97
276.26	2484.19
276.48	2449.37
276.69	2443.23
276.91	2340.83
277.12	2695.13
277.34	2494.43
277.55	2500.57
277.77	2562.01
277.99	2398.17
278.20	2377.69
278.42	2320.35
278.63	2441.18
278.85	2363.36
279.06	2340.83
279.28	2527.19
279.49	2553.82
279.71	2473.95
279.93	2445.27
280.14	2457.56
280.36	2408.41
280.57	2684.89
280.79	2527.19
281.00	2344.92
281.22	2447.32
281.43	2596.82
281.65	2176.99
281.86	2301.92
282.08	2584.54
282.29	2760.66
282.51	2275.29
282.73	2342.88
282.94	2310.11
283.16	2607.06
283.37	2535.39
283.59	2404.32
283.80	2568.15
284.02	2547.67
284.23	2469.85
284.45	2430.94
284.66	2342.88
284.88	2349.02
285.09	2371.55
285.31	2471.90
285.52	2539.48
285.74	2349.02
285.95	2559.96
286.17	2496.47
286.38	2645.98
286.60	2361.31
286.81	2346.97
287.03	2383.84
287.24	2498.52
287.46	2605.02
287.67	2414.56
287.89	2551.77
288.10	2480.09
288.32	2478.04
288.53	2582.49
288.75	2455.51
288.96	2584.54
289.18	2387.93
289.39	2445.27
289.61	2478.04
289.82	2715.61
290.04	2668.50
290.25	2310.11
290.47	2480.09
290.68	2455.51
290.90	2662.36
291.11	2199.52
291.33	2469.85
291.54	2422.75
291.76	2400.22
291.97	2533.34
292.18	2412.51
292.40	2480.09
292.61	2367.45
292.83	2686.94
293.04	2531.29
293.26	2480.09
293.47	2453.47
293.69	2310.11
293.90	2346.97
294.12	2613.21
294.33	2480.09
294.55	2381.79
294.76	2529.24
294.97	2686.94
295.19	2750.42
295.40	2459.61
295.62	2510.81
295.83	2590.68
296.05	2443.23
296.26	2514.91
296.48	2365.40
296.69	2473.95
296.90	2543.58
297.12	2547.67
297.33	2566.10
297.55	2523.10
297.76	2510.81
297.98	2602.97
298.19	2367.45
298.41	2471.90
298.62	2338.78
298.83	2566.10
299.05	2473.95
299.26	2332.64
299.48	2355.16
299.69	2562.01
299.90	2379.74
300.12	2371.55
300.33	2600.92
300.55	2453.47
300.76	2519.00
300.98	2379.74
301.19	2500.57
301.40	2375.64
301.62	2389.98
301.83	2463.71
302.05	2424.80
302.26	2422.75
302.47	2543.58
302.69	2428.89
302.90	2535.39
303.12	2365.40
303.33	2490.33
303.54	2715.61
303.76	2449.37
303.97	2422.75
304.19	2564.06
304.40	2385.88
304.61	2494.43
304.83	2547.67
305.04	2514.91
305.26	2516.95
305.47	2502.62
305.68	2381.79
305.90	2299.87
306.11	2609.11
306.33	2443.23
306.54	2392.03
306.75	2353.12
306.97	2346.97
307.18	2414.56
307.39	2400.22
307.61	2480.09
307.82	2449.37
308.04	2568.15
308.25	2318.30
308.46	2519.00
308.68	2562.01
308.89	2490.33
309.10	2529.24
309.32	2471.90
309.53	2459.61
309.74	2557.91
309.96	2371.55
310.17	2516.95
310.39	2465.75
310.60	2572.25
310.81	2447.32
311.03	2318.30
311.24	2500.57
311.45	2453.47
311.67	2625.50
311.88	2471.90
312.09	2496.47
312.31	2418.65
312.52	2428.89
312.73	2385.88
312.95	2371.55
313.16	2392.03
313.37	2582.49
313.59	2527.19
313.80	2557.91
314.01	2731.99
314.23	2371.55
314.44	2392.03
314.65	2342.88
314.87	2359.26
315.08	2441.18
315.29	2381.79
315.51	2396.12
315.72	2349.02
315.93	2625.50
316.15	2447.32
316.36	2383.84
316.57	2424.80
316.79	2488.28
317.00	2367.45
317.21	2580.44
317.43	2316.25
317.64	2473.95
317.85	2332.64
318.07	2465.75
318.28	2418.65
318.49	2584.54
318.70	2645.98
318.92	2613.21
319.13	2619.35
319.34	2662.36
319.56	2539.48
319.77	2660.31
319.98	2633.69
320.20	2521.05
320.41	2441.18
320.62	2529.24
320.83	2367.45
321.05	2654.17
321.26	2449.37
321.47	2453.47
321.69	2615.26
321.90	2340.83
322.11	2346.97
322.32	2541.53
322.54	2701.27
322.75	2457.56
322.96	2830.29
323.18	2248.67
323.39	2236.38
323.60	2291.68
323.81	2529.24
324.03	2392.03
324.24	2455.51
324.45	2447.32
324.66	2351.07
324.88	2580.44
325.09	2738.13
325.30	2457.56
325.52	2494.43
325.73	2498.52
325.94	2394.08
326.15	2277.34
326.37	2342.88
326.58	2654.17
326.79	2729.94
327.00	2279.39
327.22	2445.27
327.43	2441.18
327.64	2346.97
327.85	2531.29
328.07	2449.37
328.28	2734.04
328.49	2355.16
328.70	2469.85
328.92	2410.46
329.13	2416.60
329.34	2588.63
329.55	2684.89
329.76	2543.58
329.98	2432.99
330.19	2686.94
330.40	2441.18
330.61	2486.23
330.83	2586.58
331.04	2365.40
331.25	2414.56
331.46	2402.27
331.68	2269.15
331.89	2615.26
332.10	2445.27
332.31	2301.92
332.52	2478.04
332.74	2664.41
332.95	2258.91
333.16	2361.31
333.37	2566.10
333.58	2430.94
333.80	2406.36
334.01	2308.06
334.22	2521.05
334.43	2357.21
334.64	2389.98
334.86	2338.78
335.07	2353.12
335.28	2697.17
335.49	2271.20
335.70	2449.37
335.92	2588.63
336.13	2785.24
336.34	2484.19
336.55	2400.22
336.76	2514.91
336.98	2248.67
337.19	2406.36
337.40	2582.49
337.61	2777.05
337.82	2392.03
338.04	2465.75
338.25	2232.29
338.46	2424.80
338.67	2443.23
338.88	2365.40
339.09	2326.49
339.31	2394.08
339.52	2312.16
339.73	2367.45
339.94	2430.94
340.15	2645.98
340.36	2406.36
340.58	2475.99
340.79	2301.92
341.00	2584.54
341.21	2396.12
341.42	2545.63
341.63	2363.36
341.85	2650.07
342.06	2537.43
342.27	2422.75
342.48	2574.30
342.69	2324.44
342.90	2463.71
343.12	2535.39
343.33	2320.35
343.54	2613.21
343.75	2684.89
343.96	2465.75
344.17	2338.78
344.38	2420.70
344.60	2383.84
344.81	2344.92
345.02	2469.85
345.23	2611.16
345.44	2842.58
345.65	2547.67
345.86	2478.04
346.07	2455.51
346.29	2400.22
346.50	2570.20
346.71	2494.43
346.92	2592.73
347.13	2764.76
347.34	2490.33
347.55	2392.03
347.76	2519.00
347.98	2349.02
348.19	2400.22
348.40	2553.82
348.61	2449.37
348.82	2654.17
349.03	2549.72
349.24	2334.68
349.45	2697.17
349.66	2236.38
349.88	2430.94
350.09	2242.53
350.30	2711.51
350.51	2631.64
350.72	2545.63
350.93	2349.02
351.14	2457.56
351.35	2553.82
351.56	2426.84
351.77	2410.46
351.99	2555.86
352.20	2699.22
352.41	2572.25
352.62	2234.33
352.83	2447.32
353.04	2467.80
353.25	2422.75
353.46	2508.76
353.67	2611.16
353.88	2228.19
354.09	2371.55
354.30	2406.36
354.52	2629.59
354.73	2449.37
354.94	2441.18
355.15	2389.98
355.36	2713.56
355.57	2326.49
355.78	2412.51
355.99	2336.73
356.20	2385.88
356.41	2662.36
356.62	2486.23
356.83	2414.56
357.04	2621.40
357.25	2310.11
357.46	2373.60
357.68	2277.34
357.89	2285.53
358.10	2519.00
358.31	2445.27
358.52	2373.60
358.73	2359.26
358.94	2351.07
359.15	2392.03
359.36	2506.71
359.57	2478.04
359.78	2506.71
359.99	2576.34
360.20	2324.44
360.41	2396.12
360.62	2469.85
360.83	2469.85
361.04	2455.51
361.25	2498.52
361.46	2744.28
361.67	2514.91
361.88	2473.95
362.09	2564.06
362.30	2559.96
362.51	2500.57
362.72	2463.71
362.93	2506.71
363.14	2500.57
363.35	2584.54
363.56	2346.97
363.78	2596.82
363.99	2596.82
364.20	2394.08
364.41	2490.33
364.62	2633.69
364.83	2508.76
365.04	2435.03
365.25	2432.99
365.46	2775.00
365.67	2373.60
365.88	2475.99
366.09	2410.46
366.30	2400.22
366.51	2463.71
366.72	2381.79
366.93	2475.99
367.14	2555.86
367.35	2629.59
367.56	2490.33
367.77	2529.24
367.98	2473.95
368.18	2568.15
368.39	2576.34
368.60	2375.64
368.81	2545.63
369.02	2482.14
369.23	2349.02
369.44	2271.20
369.65	2404.32
369.86	2482.14
370.07	2453.47
370.28	2314.20
370.49	2578.39
370.70	2586.58
370.91	2381.79
371.12	2338.78
371.33	2572.25
371.54	2398.17
371.75	2516.95
371.96	2226.14
372.17	2543.58
372.38	2500.57
372.59	2396.12
372.80	2363.36
373.01	2398.17
373.22	2596.82
373.43	2465.75
373.64	2320.35
373.85	2625.50
374.06	2648.02
374.26	2504.67
374.47	2510.81
374.68	2691.03
374.89	2504.67
375.10	2400.22
375.31	2519.00
375.52	2502.62
375.73	2486.23
375.94	2244.57
376.15	2602.97
376.36	2398.17
376.57	2432.99
376.78	2451.42
376.99	2473.95
377.20	2615.26
377.40	2400.22
377.61	2625.50
377.82	2361.31
378.03	2613.21
378.24	2584.54
378.45	2453.47
378.66	2420.70
378.87	2318.30
379.08	2308.06
379.29	2422.75
379.50	2611.16
379.71	2490.33
379.91	2492.38
380.12	2441.18
380.33	2469.85
380.54	2455.51
380.75	2445.27
380.96	2441.18
381.17	2496.47
381.38	2541.53
381.59	2559.96
381.80	2498.52
382.00	2596.82
382.21	2506.71
382.42	2705.37
382.63	2678.74
382.84	2498.52
383.05	2627.54
383.26	2740.18
383.47	2494.43
383.68	2410.46
383.88	2555.86
384.09	2508.76
384.30	2611.16
384.51	2512.86
384.72	2467.80
384.93	2363.36
385.14	2473.95
385.35	2498.52
385.55	2381.79
385.76	2701.27
385.97	2342.88
386.18	2324.44
386.39	2377.69
386.60	2439.13
386.81	2424.80
387.02	2387.93
387.22	2342.88
387.43	2578.39
387.64	2547.67
387.85	2631.64
388.06	2643.93
388.27	4030.40
388.48	8271.75
388.68	11935.56
388.89	14442.28
389.10	15597.33
389.31	14677.79
389.52	11462.48
389.73	9838.44
389.93	9031.54
390.14	8251.27
390.35	7352.21
390.56	6662.04
390.77	5396.40
390.98	4149.18
391.18	3461.07
391.39	2899.92
391.60	2602.97
391.81	2619.35
392.02	2453.47
392.23	2686.94
392.43	2539.48
392.64	2602.97
392.85	2392.03
393.06	2658.26
393.27	2469.85
393.47	2396.12
393.68	2492.38
393.89	2432.99
394.10	2559.96
394.31	2422.75
394.52	2371.55
394.72	2406.36
394.93	2574.30
395.14	2365.40
395.35	2519.00
395.56	2441.18
395.76	2441.18
395.97	2486.23
396.18	2602.97
396.39	2633.69
396.60	3018.71
396.80	2766.81
397.01	2592.73
397.22	2584.54
397.43	2562.01
397.64	2471.90
397.84	2535.39
398.05	2783.19
398.26	2473.95
398.47	2602.97
398.67	2559.96
398.88	2451.42
399.09	2629.59
399.30	2400.22
399.51	2494.43
399.71	2482.14
399.92	2506.71
400.13	2535.39
400.34	2449.37
400.54	2478.04
400.75	2736.09
400.96	2424.80
401.17	2662.36
401.37	2592.73
401.58	2545.63
401.79	2521.05
402.00	2605.02
402.21	2940.88
402.41	2805.72
402.62	2826.20
402.83	2885.59
403.04	2908.12
403.24	3102.67
403.45	2609.11
403.66	2727.89
403.87	2654.17
404.07	2775.00
404.28	2760.66
404.49	2731.99
404.70	2570.20
404.90	2588.63
405.11	2484.19
405.32	2502.62
405.52	2420.70
405.73	2455.51
405.94	2398.17
406.15	2453.47
406.35	2574.30
406.56	2512.86
406.77	2482.14
406.98	2521.05
407.18	2406.36
407.39	2678.74
407.60	2387.93
407.80	2445.27
408.01	2412.51
408.22	2559.96
408.43	2363.36
408.63	2568.15
408.84	2641.88
409.05	2594.78
409.25	2283.49
409.46	2402.27
409.67	2459.61
409.88	2371.55
410.08	2555.86
410.29	2430.94
410.50	2602.97
410.70	2500.57
410.91	2353.12
411.12	2478.04
411.32	2508.76
411.53	2381.79
411.74	2648.02
411.95	2584.54
412.15	2609.11
412.36	2607.06
412.57	2609.11
412.77	2584.54
412.98	2545.63
413.19	2379.74
413.39	2531.29
413.60	2451.42
413.81	2605.02
414.01	2469.85
414.22	2519.00
414.43	2553.82
414.63	2447.32
414.84	2594.78
415.05	2437.08
415.25	2355.16
415.46	2609.11
415.67	2394.08
415.87	2457.56
416.08	2471.90
416.29	2424.80
416.49	2559.96
416.70	2457.56
416.91	2439.13
417.11	2461.66
417.32	2637.78
417.53	2531.29
417.73	2559.96
417.94	2422.75
418.15	2512.86
418.35	2516.95
418.56	2467.80
418.77	2731.99
418.97	2459.61
419.18	2430.94
419.38	2187.23
419.59	2463.71
419.80	2666.46
420.00	2506.71
420.21	2469.85
420.42	2600.92
420.62	2576.34
420.83	2367.45
421.04	2498.52
421.24	2465.75
421.45	2510.81
421.65	2568.15
421.86	2342.88
422.07	2570.20
422.27	2473.95
422.48	2463.71
422.69	2301.92
422.89	2498.52
423.10	2441.18
423.30	2293.72
423.51	2562.01
423.72	2510.81
423.92	2598.87
424.13	2316.25
424.33	2420.70
424.54	2576.34
424.75	2516.95
424.95	2648.02
425.16	2480.09
425.36	2539.48
425.57	2613.21
425.78	2449.37
425.98	2529.24
426.19	2447.32
426.39	2351.07
426.60	2525.15
426.81	2668.50
427.01	2502.62
427.22	2316.25
427.42	2269.15
427.63	2373.60
427.83	2609.11
428.04	2717.65
428.25	2498.52
428.45	2605.02
428.66	2600.92
428.86	2488.28
429.07	2449.37
429.28	2467.80
429.48	2414.56
429.69	2340.83
429.89	2471.90
430.10	2312.16
430.30	2625.50
430.51	2629.59
430.71	2324.44
430.92	2404.32
431.13	2496.47
431.33	2465.75
431.54	2482.14
431.74	2672.60
431.95	2781.14
432.15	2404.32
432.36	2412.51
432.56	2502.62
432.77	2734.04
432.98	2711.51
433.18	2453.47
433.39	2418.65
433.59	2473.95
433.80	2684.89
434.00	2658.26
434.21	2375.64
434.41	2420.70
434.62	2779.09
434.82	2404.32
435.03	2326.49
435.23	2527.19
435.44	2281.44
435.64	2457.56
435.85	2535.39
436.06	2625.50
436.26	2605.02
436.47	2406.36
436.67	2383.84
436.88	2463.71
437.08	2602.97
437.29	2629.59
437.49	2547.67
437.70	2586.58
437.90	2508.76
438.11	2555.86
438.31	2494.43
438.52	2766.81
438.72	2711.51
438.93	2758.61
439.13	2510.81
439.34	2680.79
439.54	2502.62
439.75	2496.47
439.95	2486.23
440.16	2416.60
440.36	2602.97
440.57	2543.58
440.77	2506.71
440.98	2471.90
441.18	2572.25
441.39	2465.75
441.59	2389.98
441.80	2840.53
442.00	2527.19
442.21	2660.31
442.41	2383.84
442.62	2727.89
442.82	2441.18
443.02	2379.74
443.23	2441.18
443.43	2377.69
443.64	2666.46
443.84	2387.93
444.05	2633.69
444.25	2521.05
444.46	2373.60
444.66	2473.95
444.87	2598.87
445.07	2287.58
445.28	2478.04
445.48	2641.88
445.69	2562.01
445.89	2779.09
446.09	2504.67
446.30	2729.94
446.50	2977.75
446.71	4644.79
446.91	5853.09
447.12	6690.71
447.32	7026.58
447.53	6479.77
447.73	5527.47
447.93	4685.75
448.14	4366.27
448.34	4399.04
448.55	3858.37
448.75	3774.41
448.96	3629.00
449.16	3215.31
449.36	3209.17
449.57	2756.57
449.77	2527.19
449.98	2521.05
450.18	2629.59
450.39	2488.28
450.59	2555.86
450.79	2502.62
451.00	2410.46
451.20	2588.63
451.41	2418.65
451.61	2490.33
451.81	2422.75
452.02	2398.17
452.22	2430.94
452.43	2414.56
452.63	2451.42
452.84	2510.81
453.04	2371.55
453.24	2488.28
453.45	2324.44
453.65	2484.19
453.86	2443.23
454.06	2525.15
454.26	2502.62
454.47	2392.03
454.67	2611.16
454.87	2537.43
455.08	2420.70
455.28	2629.59
455.49	2504.67
455.69	2379.74
455.89	2807.77
456.10	2553.82
456.30	2482.14
456.51	2568.15
456.71	2475.99
456.91	2430.94
457.12	2445.27
457.32	2557.91
457.52	2324.44
457.73	2592.73
457.93	2490.33
458.14	2459.61
458.34	2385.88
458.54	2435.03
458.75	2514.91
458.95	2684.89
459.15	2447.32
459.36	2504.67
459.56	2475.99
459.76	2854.87
459.97	2519.00
460.17	2465.75
460.37	2547.67
460.58	2473.95
460.78	2621.40
460.99	2367.45
461.19	2461.66
461.39	2392.03
461.60	2533.34
461.80	2484.19
462.00	2334.68
462.21	2414.56
462.41	2420.70
462.61	2314.20
462.82	2277.34
463.02	2521.05
463.22	2465.75
463.43	2564.06
463.63	2496.47
463.83	2707.41
464.04	2482.14
464.24	2432.99
464.44	2387.93
464.64	2496.47
464.85	2539.48
465.05	2529.24
465.25	2449.37
465.46	2373.60
465.66	2529.24
465.86	2572.25
466.07	2387.93
466.27	2512.86
466.47	2338.78
466.68	2359.26
466.88	2607.06
467.08	2627.54
467.29	2609.11
467.49	2553.82
467.69	2465.75
467.89	2537.43
468.10	2512.86
468.30	2500.57
468.50	2562.01
468.71	2717.65
468.91	2414.56
469.11	2519.00
469.31	2588.63
469.52	2383.84
469.72	2721.75
469.92	2688.98
470.13	2418.65
470.33	2492.38
470.53	2676.70
470.73	2842.58
470.94	3313.61
471.14	3311.57
471.34	3831.75
471.54	3717.06
471.75	3317.71
471.95	3045.33
472.15	3010.51
472.36	2998.23
472.56	2965.46
472.76	3069.91
472.96	3049.43
473.17	2709.46
473.37	2680.79
473.57	2492.38
473.77	2555.86
473.98	2430.94
474.18	2418.65
474.38	2756.57
474.58	2449.37
474.79	2430.94
474.99	2469.85
475.19	2656.22
475.39	2367.45
475.60	2508.76
475.80	2486.23
476.00	2494.43
476.20	2572.25
476.41	2441.18
476.61	2574.30
476.81	2697.17
477.01	2408.41
477.21	2641.88
477.42	2635.74
477.62	2389.98
477.82	2613.21
478.02	2465.75
478.23	2498.52
478.43	2389.98
478.63	2435.03
478.83	2441.18
479.03	2432.99
479.24	2715.61
479.44	2711.51
479.64	2322.40
479.84	2269.15
480.04	2510.81
480.25	2568.15
480.45	2381.79
480.65	2422.75
480.85	2605.02
481.06	2387.93
481.26	2482.14
481.46	2549.72
481.66	2504.67
481.86	2402.27
482.06	2578.39
482.27	2369.50
482.47	2410.46
482.67	2506.71
482.87	2414.56
483.07	2506.71
483.28	2463.71
483.48	2365.40
483.68	2486.23
483.88	2394.08
484.08	2285.53
484.29	2346.97
484.49	2459.61
484.69	2289.63
484.89	2615.26
485.09	2662.36
485.29	2521.05
485.50	2498.52
485.70	2512.86
485.90	2662.36
486.10	2529.24
486.30	2463.71
486.50	2664.41
486.71	2572.25
486.91	2572.25
487.11	2508.76
487.31	2383.84
487.51	2496.47
487.71	2400.22
487.91	2377.69
488.12	2408.41
488.32	2205.66
488.52	2381.79
488.72	2224.09
488.92	2559.96
489.12	2627.54
489.32	2598.87
489.53	2547.67
489.73	2316.25
489.93	2715.61
490.13	2385.88
490.33	2271.20
490.53	2506.71
490.73	2586.58
490.94	2250.72
491.14	2531.29
491.34	2596.82
491.54	2838.48
491.74	3397.58
491.94	3985.35
492.14	4298.69
492.34	4294.59
492.54	3987.40
492.75	3475.40
492.95	3350.48
493.15	3127.25
493.35	3160.02
493.55	3117.01
493.75	2904.02
493.95	3080.14
494.15	2744.28
494.35	2572.25
494.56	2551.77
494.76	2367.45
494.96	2557.91
495.16	2443.23
495.36	2510.81
495.56	2453.47
495.76	2408.41
495.96	2432.99
496.16	2373.60
496.36	2725.85
496.56	2365.40
496.77	2494.43
496.97	2445.27
497.17	2670.55
497.37	2289.63
497.57	2527.19
497.77	2523.10
497.97	2281.44
498.17	2465.75
498.37	2414.56
498.57	2596.82
498.77	2342.88
498.97	2545.63
499.17	2686.94
499.38	2451.42
499.58	2605.02
499.78	2588.63
499.98	2574.30
500.18	2488.28
500.38	2443.23
500.58	2607.06
500.78	3096.53
500.98	5443.50
501.18	7366.54
501.38	9006.97
501.58	10227.56
501.78	9744.24
501.98	7956.36
502.18	6774.68
502.38	5803.94
502.58	5418.93
502.78	4890.55
502.98	4663.22
503.18	4440.00
503.38	4153.28
503.59	3553.23
503.79	3370.96
503.99	3112.91
504.19	2990.03
504.39	3121.10
504.59	3114.96
504.79	3022.80
504.99	3162.06
505.19	2822.10
505.39	2709.46
505.59	2861.01
505.79	2881.49
505.99	2760.66
506.19	2609.11
506.39	2727.89
506.59	2482.14
506.79	2533.34
506.99	2641.88
507.19	2465.75
507.39	2488.28
507.59	2359.26
507.79	2469.85
507.99	2424.80
508.19	2555.86
508.39	2435.03
508.59	2422.75
508.79	2584.54
508.99	2719.70
509.19	2478.04
509.39	2508.76
509.59	2443.23
509.79	2535.39
509.99	2578.39
510.19	2539.48
510.39	2516.95
510.59	2514.91
510.79	2369.50
510.99	2359.26
511.19	2435.03
511.39	2699.22
511.59	2648.02
511.79	2635.74
511.99	2428.89
512.19	2768.85
512.38	2533.34
512.58	2441.18
512.78	2375.64
512.98	2645.98
513.18	2627.54
513.38	2254.81
513.58	2564.06
513.78	2396.12
513.98	2508.76
514.18	2443.23
514.38	2389.98
514.58	2580.44
514.78	2449.37
514.98	2375.64
515.18	2459.61
515.38	2320.35
515.58	2703.32
515.78	2475.99
515.98	2389.98
516.18	2617.30
516.38	2480.09
516.57	2396.12
516.77	2459.61
516.97	2607.06
517.17	2461.66
517.37	2244.57
517.57	2570.20
517.77	2539.48
517.97	2437.08
518.17	2514.91
518.37	2408.41
518.57	2441.18
518.77	2422.75
518.97	2492.38
519.16	2453.47
519.36	2598.87
519.56	2441.18
519.76	2437.08
519.96	2453.47
520.16	2676.70
520.36	2416.60
520.56	2596.82
520.76	2361.31
520.96	2473.95
521.16	2607.06
521.35	2592.73
521.55	2605.02
521.75	2498.52
521.95	2435.03
522.15	2402.27
522.35	2367.45
522.55	2396.12
522.75	2617.30
522.95	2371.55
523.14	2324.44
523.34	2467.80
523.54	2412.51
523.74	2459.61
523.94	2432.99
524.14	2316.25
524.34	2510.81
524.54	2625.50
524.73	2461.66
524.93	2596.82
525.13	2443.23
525.33	2416.60
525.53	2670.55
525.73	2557.91
525.93	2592.73
526.13	2381.79
526.32	2408.41
526.52	2611.16
526.72	2623.45
526.92	2445.27
527.12	2381.79
527.32	2338.78
527.52	2504.67
527.71	2449.37
527.91	2486.23
528.11	2443.23
528.31	2506.71
528.51	2334.68
528.71	2471.90
528.90	2584.54
529.10	2562.01
529.30	2551.77
529.50	2271.20
529.70	2510.81
529.90	2457.56
530.09	2445.27
530.29	2314.20
530.49	2432.99
530.69	2858.96
530.89	2475.99
531.09	2555.86
531.28	2359.26
531.48	2697.17
531.68	2496.47
531.88	2430.94
532.08	2586.58
532.28	2424.80
532.47	2473.95
532.67	2572.25
532.87	2586.58
533.07	2408.41
533.27	2562.01
533.46	2543.58
533.66	2482.14
533.86	2469.85
534.06	2506.71
534.26	2449.37
534.45	2375.64
534.65	2600.92
534.85	2543.58
535.05	2400.22
535.25	2633.69
535.44	2385.88
535.64	2559.96
535.84	2492.38
536.04	2445.27
536.24	2471.90
536.43	2381.79
536.63	2523.10
536.83	2535.39
537.03	2449.37
537.22	2293.72
537.42	2254.81
537.62	2535.39
537.82	2400.22
538.02	2619.35
538.21	2594.78
538.41	2826.20
538.61	2514.91
538.81	2457.56
539.00	2648.02
539.20	2346.97
539.40	2459.61
539.60	2480.09
539.79	2564.06
539.99	2514.91
540.19	2314.20
540.39	2441.18
540.58	2490.33
540.78	2611.16
540.98	2455.51
541.18	2549.72
541.37	2463.71
541.57	2555.86
541.77	2572.25
541.97	2308.06
542.16	2293.72
542.36	2473.95
542.56	2449.37
542.76	2631.64
542.95	2514.91
543.15	2514.91
543.35	2574.30
543.54	2375.64
543.74	2371.55
543.94	2596.82
544.14	2439.13
544.33	2527.19
544.53	2416.60
544.73	2484.19
544.93	2463.71
545.12	2394.08
545.32	2486.23
545.52	2430.94
545.71	2400.22
545.91	2502.62
546.11	2400.22
546.30	2349.02
546.50	2453.47
546.70	2582.49
546.90	2488.28
547.09	2295.77
547.29	2533.34
547.49	2586.58
547.68	2346.97
547.88	2379.74
548.08	2598.87
548.27	2916.31
548.47	2367.45
548.67	2400.22
548.87	2471.90
549.06	2367.45
549.26	2445.27
549.46	2584.54
549.65	2367.45
549.85	2439.13
550.05	2590.68
550.24	2420.70
550.44	2537.43
550.64	2539.48
550.83	2451.42
551.03	2684.89
551.23	2625.50
551.42	2504.67
551.62	2432.99
551.82	2531.29
552.01	2541.53
552.21	2617.30
552.41	2469.85
552.60	2592.73
552.80	2559.96
553.00	2457.56
553.19	2484.19
553.39	2785.24
553.59	2371.55
553.78	2533.34
553.98	2510.81
554.17	2361.31
554.37	2525.15
554.57	2494.43
554.76	2318.30
554.96	2424.80
555.16	2572.25
555.35	2506.71
555.55	2510.81
555.75	2496.47
555.94	2521.05
556.14	2252.77
556.33	2482.14
556.53	2562.01
556.73	2451.42
556.92	2535.39
557.12	2537.43
557.32	2670.55
557.51	2658.26
557.71	2473.95
557.90	2697.17
558.10	2609.11
558.30	2465.75
558.49	2465.75
558.69	2435.03
558.88	2629.59
559.08	2482.14
559.28	2420.70
559.47	2478.04
559.67	2580.44
559.86	2684.89
560.06	2441.18
560.26	2392.03
560.45	2490.33
560.65	2490.33
560.84	2600.92
561.04	2328.54
561.24	2562.01
561.43	2396.12
561.63	2670.55
561.82	2463.71
562.02	2596.82
562.22	2408.41
562.41	2398.17
562.61	2465.75
562.80	2451.42
563.00	2756.57
563.19	2455.51
563.39	2580.44
563.59	2600.92
563.78	2351.07
563.98	2195.42
564.17	2422.75
564.37	2277.34
564.56	2453.47
564.76	2306.01
564.96	2613.21
565.15	2555.86
565.35	2815.96
565.54	2449.37
565.74	2580.44
565.93	2531.29
566.13	2510.81
566.32	2492.38
566.52	2574.30
566.71	2568.15
566.91	2453.47
567.11	2555.86
567.30	2365.40
567.50	2576.34
567.69	2539.48
567.89	2519.00
568.08	2349.02
568.28	2572.25
568.47	2383.84
568.67	2480.09
568.86	2379.74
569.06	2625.50
569.25	2469.85
569.45	2369.50
569.64	2457.56
569.84	2504.67
570.04	2461.66
570.23	2381.79
570.43	2412.51
570.62	2494.43
570.82	2707.41
571.01	2303.96
571.21	2361.31
571.40	2414.56
571.60	2588.63
571.79	2500.57
571.99	2506.71
572.18	2432.99
572.38	2588.63
572.57	2488.28
572.77	2486.23
572.96	2889.68
573.16	2523.10
573.35	2498.52
573.55	2605.02
573.74	2586.58
573.94	2387.93
574.13	2400.22
574.33	2570.20
574.52	2645.98
574.71	2553.82
574.91	2525.15
575.10	2301.92
575.30	2496.47
575.49	2371.55
575.69	2414.56
575.88	2498.52
576.08	2465.75
576.27	2629.59
576.47	2506.71
576.66	2680.79
576.86	2652.12
577.05	2516.95
577.25	2512.86
577.44	2717.65
577.64	2480.09
577.83	2600.92
578.02	2469.85
578.22	2600.92
578.41	2744.28
578.61	2428.89
578.80	2355.16
579.00	2488.28
579.19	2596.82
579.39	2543.58
579.58	2531.29
579.77	2473.95
579.97	2523.10
580.16	2602.97
580.36	2643.93
580.55	2602.97
580.75	2572.25
580.94	2510.81
581.13	2662.36
581.33	2676.70
581.52	2537.43
581.72	2742.23
581.91	2660.31
582.11	2473.95
582.30	2635.74
582.49	2486.23
582.69	2731.99
582.88	2512.86
583.08	2539.48
583.27	2734.04
583.47	2482.14
583.66	2451.42
583.85	2361.31
584.05	2531.29
584.24	2582.49
584.44	2551.77
584.63	2703.32
584.82	2752.47
585.02	2592.73
585.21	2627.54
585.41	2580.44
585.60	2582.49
585.79	2744.28
585.99	2791.38
586.18	2662.36
586.37	3340.24
586.57	5038.00
586.76	14622.50
586.96	33838.59
587.15	47719.72
587.34	56280.23
587.54	61125.72
587.73	55129.27
587.93	38897.07
588.12	29668.92
588.31	23844.50
588.51	20868.80
588.70	19095.26
588.89	17354.49
589.09	14923.55
589.28	12795.71
589.47	10209.12
589.67	7903.11
589.86	6164.39
590.06	4607.93
590.25	3985.35
590.44	3377.10
590.64	2955.22
590.83	2805.72
591.02	2762.71
591.22	2490.33
591.41	2566.10
591.60	2519.00
591.80	2826.20
591.99	2328.54
592.18	2400.22
592.38	2650.07
592.57	2453.47
592.76	2490.33
592.96	2531.29
593.15	2406.36
593.34	2594.78
593.54	2492.38
593.73	2519.00
593.92	2699.22
594.12	2627.54
594.31	2564.06
594.50	2631.64
594.70	2551.77
594.89	2881.49
595.08	2367.45
595.28	2598.87
595.47	2916.31
595.66	2596.82
595.86	2392.03
596.05	2498.52
596.24	2459.61
596.43	2701.27
596.63	2658.26
596.82	2537.43
597.01	2594.78
597.21	2719.70
597.40	2545.63
597.59	2480.09
597.79	2525.15
597.98	2629.59
598.17	2514.91
598.36	2455.51
598.56	2549.72
598.75	2449.37
598.94	2498.52
599.14	2578.39
599.33	2441.18
599.52	2529.24
599.71	2478.04
599.91	2494.43
600.10	2674.65
600.29	2510.81
600.48	2531.29
600.68	2574.30
600.87	2570.20
601.06	2490.33
601.26	2549.72
601.45	2512.86
601.64	2414.56
601.83	2607.06
602.03	2414.56
602.22	2392.03
602.41	2621.40
602.60	2775.00
602.80	2572.25
602.99	2570.20
603.18	2508.76
603.37	2553.82
603.57	2441.18
603.76	2545.63
603.95	2562.01
604.14	2570.20
604.34	2389.98
604.53	2478.04
604.72	2539.48
604.91	2613.21
605.10	2430.94
605.30	2324.44
605.49	2832.34
605.68	2582.49
605.87	2512.86
606.07	2375.64
606.26	2461.66
606.45	2633.69
606.64	2512.86
606.84	2404.32
607.03	2574.30
607.22	2629.59
607.41	2523.10
607.60	2514.91
607.80	2719.70
607.99	2510.81
608.18	2531.29
608.37	2537.43
608.56	2523.10
608.76	2641.88
608.95	2629.59
609.14	2553.82
609.33	2654.17
609.52	2697.17
609.72	2471.90
609.91	2627.54
610.10	2615.26
610.29	2711.51
610.48	2613.21
610.68	2535.39
610.87	2469.85
611.06	2617.30
611.25	2473.95
611.44	2639.83
611.63	2389.98
611.83	2729.94
612.02	2330.59
612.21	2570.20
612.40	2306.01
612.59	2373.60
612.79	2422.75
612.98	2514.91
613.17	2729.94
613.36	2463.71
613.55	2633.69
613.74	2498.52
613.93	2717.65
614.13	2703.32
614.32	2713.56
614.51	2678.74
614.70	2447.32
614.89	2506.71
615.08	2580.44
615.28	2990.03
615.47	2463.71
615.66	2637.78
615.85	2607.06
616.04	2639.83
616.23	2602.97
616.42	2543.58
616.62	2465.75
616.81	2602.97
617.00	2529.24
617.19	2648.02
617.38	2467.80
617.57	2512.86
617.76	2539.48
617.95	2580.44
618.15	2572.25
618.34	2641.88
618.53	2340.83
618.72	2588.63
618.91	2600.92
619.10	2619.35
619.29	2473.95
619.48	2471.90
619.68	2295.77
619.87	2404.32
620.06	2359.26
620.25	2445.27
620.44	2398.17
620.63	2408.41
620.82	2504.67
621.01	2502.62
621.20	2521.05
621.39	2574.30
621.59	2602.97
621.78	2617.30
621.97	2457.56
622.16	2555.86
622.35	2572.25
622.54	2576.34
622.73	2543.58
622.92	2312.16
623.11	2535.39
623.30	2449.37
623.49	2555.86
623.68	2353.12
623.88	2600.92
624.07	2490.33
624.26	2502.62
624.45	2482.14
624.64	2490.33
624.83	2557.91
625.02	2441.18
625.21	2414.56
625.40	2539.48
625.59	2615.26
625.78	2578.39
625.97	2590.68
626.16	2736.09
626.35	2619.35
626.54	2557.91
626.74	2719.70
626.93	2469.85
627.12	2498.52
627.31	2627.54
627.50	2537.43
627.69	2588.63
627.88	2416.60
628.07	2424.80
628.26	2297.82
628.45	2422.75
628.64	2451.42
628.83	2441.18
629.02	2351.07
629.21	2572.25
629.40	2519.00
629.59	2379.74
629.78	2496.47
629.97	2512.86
630.16	2504.67
630.35	2437.08
630.54	2445.27
630.73	2389.98
630.92	2527.19
631.11	2441.18
631.30	2461.66
631.49	2609.11
631.68	2514.91
631.87	2512.86
632.06	2342.88
632.25	2760.66
632.44	2473.95
632.63	2617.30
632.82	2435.03
633.01	2506.71
633.20	2650.07
633.39	2484.19
633.58	2408.41
633.77	2637.78
633.96	2551.77
634.15	2619.35
634.34	2543.58
634.53	2514.91
634.72	2404.32
634.91	2324.44
635.10	2547.67
635.29	2627.54
635.48	2627.54
635.67	2355.16
635.86	2369.50
636.05	2650.07
636.24	2504.67
636.43	2537.43
636.62	2469.85
636.81	2244.57
637.00	2576.34
637.19	2443.23
637.38	2478.04
637.57	2369.50
637.76	2553.82
637.95	2594.78
638.14	2549.72
638.33	2605.02
638.52	2519.00
638.71	2430.94
638.89	2381.79
639.08	2836.44
639.27	2760.66
639.46	2822.10
639.65	3188.69
639.84	3162.06
640.03	3309.52
640.22	3065.81
640.41	3063.76
640.60	2824.15
640.79	2760.66
640.98	2613.21
641.17	2736.09
641.36	2725.85
641.55	2727.89
641.74	2510.81
641.92	2420.70
642.11	2389.98
642.30	2494.43
642.49	2381.79
642.68	2383.84
642.87	2555.86
643.06	2512.86
643.25	2449.37
643.44	2367.45
643.63	2543.58
643.82	2592.73
644.00	2293.72
644.19	2496.47
644.38	2375.64
644.57	2609.11
644.76	2484.19
644.95	2435.03
645.14	2609.11
645.33	2516.95
645.52	2523.10
645.71	2234.33
645.89	2404.32
646.08	2439.13
646.27	2422.75
646.46	2713.56
646.65	2332.64
646.84	2447.32
647.03	2351.07
647.22	2555.86
647.40	2459.61
647.59	2555.86
647.78	2289.63
647.97	2369.50
648.16	2369.50
648.35	2637.78
648.54	2605.02
648.73	2418.65
648.91	2611.16
649.10	2449.37
649.29	2455.51
649.48	2488.28
649.67	2555.86
649.86	2527.19
650.05	2496.47
650.23	2637.78
650.42	2572.25
650.61	2805.72
650.80	2748.37
650.99	2781.14
651.18	2721.75
651.36	2656.22
651.55	2465.75
651.74	2662.36
651.93	2465.75
652.12	2490.33
652.31	2535.39
652.49	2426.84
652.68	2416.60
652.87	2684.89
653.06	2512.86
653.25	2695.13
653.44	2533.34
653.62	2658.26
653.81	2432.99
654.00	2469.85
654.19	2619.35
654.38	2768.85
654.56	2594.78
654.75	2418.65
654.94	2650.07
655.13	2478.04
655.32	2451.42
655.51	2600.92
655.69	2441.18
655.88	2475.99
656.07	2375.64
656.26	2482.14
656.45	2326.49
656.63	2480.09
656.82	2453.47
657.01	2607.06
657.20	2351.07
657.38	2729.94
657.57	2457.56
657.76	2293.72
657.95	2586.58
658.14	2449.37
658.32	2443.23
658.51	2260.96
658.70	2504.67
658.89	2439.13
659.08	2531.29
659.26	2635.74
659.45	2412.51
659.64	2531.29
659.83	2392.03
660.01	2908.12
660.20	2453.47
660.39	2729.94
660.58	2191.33
660.76	2488.28
660.95	2260.96
661.14	2502.62
661.33	2332.64
661.51	2396.12
661.70	2455.51
661.89	2570.20
662.08	2463.71
662.26	2326.49
662.45	2351.07
662.64	2703.32
662.83	2580.44
663.01	2301.92
663.20	2432.99
663.39	2668.50
663.58	2465.75
663.76	2449.37
663.95	2570.20
664.14	2404.32
664.32	2400.22
664.51	2367.45
664.70	2308.06
664.89	2555.86
665.07	2332.64
665.26	2592.73
665.45	2308.06
665.64	2537.43
665.82	2437.08
666.01	2682.84
666.20	2322.40
666.38	2666.46
666.57	2635.74
666.76	3983.30
666.95	9582.45
667.13	17456.89
667.32	22515.37
667.51	25960.05
667.69	27496.03
667.88	24282.77
668.07	17151.74
668.25	13950.76
668.44	12044.10
668.63	10127.21
668.81	9021.30
669.00	7851.91
669.19	6987.67
669.38	6156.19
669.56	5158.83
669.75	4419.52
669.94	3725.26
670.12	3188.69
670.31	2910.16
670.50	2850.77
670.68	2766.81
670.87	2688.98
671.06	2480.09
671.24	2590.68
671.43	2701.27
671.62	2662.36
671.80	2523.10
671.99	2652.12
672.18	2523.10
672.36	2553.82
672.55	2498.52
672.74	2435.03
672.92	2459.61
673.11	2641.88
673.29	2383.84
673.48	2533.34
673.67	2432.99
673.85	2619.35
674.04	2357.21
674.23	2402.27
674.41	2736.09
674.60	2314.20
674.79	2277.34
674.97	2299.87
675.16	2605.02
675.34	2594.78
675.53	2412.51
675.72	2508.76
675.90	2637.78
676.09	2457.56
676.28	2508.76
676.46	2318.30
676.65	2617.30
676.83	2342.88
677.02	2428.89
677.21	2521.05
677.39	2521.05
677.58	2357.21
677.77	2516.95
677.95	2396.12
678.14	2463.71
678.32	2457.56
678.51	2432.99
678.70	2715.61
678.88	2428.89
679.07	2508.76
679.25	2371.55
679.44	2465.75
679.63	2371.55
679.81	2492.38
680.00	2580.44
680.18	2496.47
680.37	2635.74
680.55	2500.57
680.74	2299.87
680.93	2322.40
681.11	2519.00
681.30	2455.51
681.48	2465.75
681.67	2457.56
681.85	2432.99
682.04	2383.84
682.23	2557.91
682.41	2453.47
682.60	2504.67
682.78	2516.95
682.97	2369.50
683.15	2426.84
683.34	2500.57
683.53	2676.70
683.71	2338.78
683.90	2547.67
684.08	2662.36
684.27	2478.04
684.45	2482.14
684.64	2607.06
684.82	2500.57
685.01	2490.33
685.19	2447.32
685.38	2697.17
685.57	2457.56
685.75	2398.17
685.94	2414.56
686.12	2365.40
686.31	2432.99
686.49	2643.93
686.68	2316.25
686.86	2514.91
687.05	2424.80
687.23	2678.74
687.42	2357.21
687.60	2281.44
687.79	2570.20
687.97	2648.02
688.16	2566.10
688.34	2568.15
688.53	2346.97
688.71	2553.82
688.90	2674.65
689.08	2445.27
689.27	2377.69
689.45	2553.82
689.64	2535.39
689.82	2537.43
690.01	2469.85
690.19	2514.91
690.38	2469.85
690.56	2588.63
690.75	2324.44
690.93	2416.60
691.12	2498.52
691.30	2533.34
691.49	2490.33
691.67	2531.29
691.86	2670.55
692.04	2455.51
692.23	2498.52
692.41	2600.92
692.60	2791.38
692.78	2596.82
692.97	2490.33
693.15	2650.07
693.34	2668.50
693.52	2623.45
693.71	2525.15
693.89	2404.32
694.08	2301.92
694.26	2564.06
694.44	2609.11
694.63	2613.21
694.81	2392.03
695.00	2457.56
695.18	2625.50
695.37	2793.43
695.55	2506.71
695.74	2473.95
695.92	2457.56
696.10	2678.74
696.29	2349.02
696.47	2379.74
696.66	2416.60
696.84	2377.69
697.03	2430.94
697.21	2701.27
697.40	3669.96
697.58	2598.87
697.76	2400.22
697.95	2381.79
698.13	2365.40
698.32	2398.17
698.50	2500.57
698.68	2553.82
698.87	2498.52
699.05	2623.45
699.24	2379.74
699.42	2353.12
699.61	2562.01
699.79	2514.91
699.97	2457.56
700.16	2277.34
700.34	2308.06
700.53	2492.38
700.71	2580.44
700.89	2619.35
701.08	2471.90
701.26	2435.03
701.45	3018.71
701.63	2373.60
701.81	2381.79
702.00	2502.62
702.18	2533.34
702.37	2392.03
702.55	2719.70
702.73	2686.94
702.92	2613.21
703.10	2803.67
703.28	2721.75
703.47	2490.33
703.65	2674.65
703.84	2723.80
704.02	2478.04
704.20	2752.47
704.39	2418.65
704.57	2396.12
704.75	2744.28
704.94	2617.30
705.12	2508.76
705.30	2944.98
705.49	5480.36
705.67	12566.34
705.86	20371.15
706.04	24028.82
706.22	27205.22
706.41	27694.68
706.59	22142.64
706.77	15986.44
706.96	13831.98
707.14	12128.07
707.32	10575.71
707.51	9191.28
707.69	7534.48
707.87	6039.46
708.06	4861.88
708.24	4075.46
708.42	3377.10
708.61	3325.90
708.79	2623.45
708.97	2633.69
709.16	2615.26
709.34	2514.91
709.52	2512.86
709.71	2449.37
709.89	2469.85
710.07	2412.51
710.26	2349.02
710.44	2441.18
710.62	2535.39
710.80	2549.72
710.99	2611.16
711.17	2512.86
711.35	2392.03
711.54	2435.03
711.72	2633.69
711.90	2519.00
712.09	2588.63
712.27	2381.79
712.45	2465.75
712.63	2453.47
712.82	2529.24
713.00	2494.43
713.18	2588.63
713.37	2580.44
713.55	2568.15
713.73	2531.29
713.91	2490.33
714.10	2471.90
714.28	2525.15
714.46	2482.14
714.65	2490.33
714.83	2512.86
715.01	2502.62
715.19	2516.95
715.38	2322.40
715.56	2457.56
715.74	2539.48
715.92	2394.08
716.11	2652.12
716.29	2236.38
716.47	2473.95
716.65	2471.90
716.84	2297.82
717.02	2445.27
717.20	2310.11
717.38	2494.43
717.57	2541.53
717.75	2432.99
717.93	2424.80
718.11	2568.15
718.30	2299.87
718.48	2447.32
718.66	2605.02
718.84	2564.06
719.03	2424.80
719.21	2400.22
719.39	2717.65
719.57	2555.86
719.75	2570.20
719.94	2392.03
720.12	2414.56
720.30	2467.80
720.48	2605.02
720.67	2471.90
720.85	2367.45
721.03	2430.94
721.21	2381.79
721.39	2551.77
721.58	2482.14
721.76	2508.76
721.94	2490.33
722.12	2508.76
722.30	2674.65
722.49	2469.85
722.67	2545.63
722.85	2541.53
723.03	2316.25
723.21	2435.03
723.40	2422.75
723.58	2586.58
723.76	2629.59
723.94	2633.69
724.12	2519.00
724.30	2652.12
724.49	2717.65
724.67	2484.19
724.85	2695.13
725.03	2330.59
725.21	2578.39
725.40	2559.96
725.58	2346.97
725.76	2693.08
725.94	2531.29
726.12	2480.09
726.30	2459.61
726.49	2400.22
726.67	2467.80
726.85	2459.61
727.03	2981.84
727.21	4218.82
727.39	5754.79
727.57	6512.54
727.76	7370.64
727.94	7591.82
728.12	6889.37
728.30	5537.71
728.48	4878.26
728.66	4593.59
728.84	4087.75
729.03	3575.75
729.21	3264.46
729.39	2897.88
729.57	2672.60
729.75	2598.87
729.93	2609.11
730.11	2508.76
730.30	2449.37
730.48	2531.29
730.66	2637.78
730.84	2602.97
731.02	2527.19
731.20	2408.41
731.38	2523.10
731.56	2277.34
731.74	2414.56
731.93	2519.00
732.11	2400.22
732.29	2369.50
732.47	2602.97
732.65	2498.52
732.83	2598.87
733.01	2553.82
733.19	2371.55
733.37	2619.35
733.56	2508.76
733.74	2375.64
733.92	2676.70
734.10	2510.81
734.28	2521.05
734.46	2279.39
734.64	2373.60
734.82	2514.91
735.00	2471.90
735.18	2406.36
735.36	2533.34
735.54	2400.22
735.73	2514.91
735.91	2422.75
736.09	2635.74
736.27	2482.14
736.45	2590.68
736.63	2234.33
736.81	2435.03
736.99	2580.44
737.17	2664.41
737.35	2326.49
737.53	2508.76
737.71	2453.47
737.89	2641.88
738.07	2375.64
738.25	2383.84
738.43	2359.26
738.61	2437.08
738.80	2297.82
738.98	2342.88
739.16	2457.56
739.34	2355.16
739.52	2627.54
739.70	2490.33
739.88	2611.16
740.06	2674.65
740.24	2269.15
740.42	2641.88
740.60	2213.85
740.78	2455.51
740.96	2293.72
741.14	2404.32
741.32	2473.95
741.50	2252.77
741.68	2639.83
741.86	2744.28
742.04	2400.22
742.22	2303.96
742.40	2457.56
742.58	2572.25
742.76	2320.35
742.94	2529.24
743.12	2303.96
743.30	2469.85
743.48	2545.63
743.66	2432.99
743.84	2471.90
744.02	2521.05
744.20	2482.14
744.38	2371.55
744.56	2359.26
744.74	2645.98
744.92	2521.05
745.10	2779.09
745.28	2512.86
745.46	2713.56
745.64	2475.99
745.82	2551.77
746.00	2400.22
746.18	2506.71
746.36	2387.93
746.54	2443.23
746.72	2420.70
746.90	2373.60
747.08	2605.02
747.26	2471.90
747.44	2574.30
747.62	2572.25
747.80	2525.15
747.98	2531.29
748.15	2426.84
748.33	2629.59
748.51	2447.32
748.69	2535.39
748.87	2430.94
749.05	2578.39
749.23	2453.47
749.41	2465.75
749.59	2385.88
749.77	2592.73
749.95	2539.48
750.13	2383.84
750.31	2508.76
750.49	2432.99
750.67	2535.39
750.85	2660.31
751.03	2449.37
751.20	2777.05
751.38	2488.28
751.56	2387.93
751.74	2482.14
751.92	2449.37
752.10	2340.83
752.28	2641.88
752.46	2330.59
752.64	2551.77
752.82	2449.37
753.00	2547.67
753.18	2396.12
753.35	2502.62
753.53	2473.95
753.71	2432.99
753.89	2576.34
754.07	2551.77
754.25	2629.59
754.43	2455.51
754.61	2297.82
754.79	2619.35
754.97	2453.47
755.14	2588.63
755.32	2363.36
755.50	2449.37
755.68	2465.75
755.86	2365.40
756.04	2408.41
756.22	2289.63
756.40	2519.00
756.57	2752.47
756.75	2314.20
756.93	2652.12
757.11	2541.53
757.29	2322.40
757.47	2369.50
757.65	2367.45
757.82	2203.61
758.00	2371.55
758.18	2387.93
758.36	2441.18
758.54	2639.83
758.72	2316.25
758.90	2578.39
759.07	2457.56
759.25	2373.60
759.43	2510.81
759.61	2320.35
759.79	3514.31
759.97	2592.73
760.15	2414.56
760.32	2435.03
760.50	2523.10
760.68	2674.65
760.86	2324.44
761.04	2570.20
761.22	2584.54
761.39	2482.14
761.57	2537.43
761.75	2494.43
761.93	2502.62
762.11	2439.13
762.28	2461.66
762.46	2445.27
762.64	2609.11
762.82	2340.83
763.00	2324.44
763.18	2600.92
763.35	2371.55
763.53	2490.33
763.71	2422.75
763.89	2504.67
764.07	2514.91
764.24	2545.63
764.42	2494.43
764.60	2439.13
764.78	2621.40
764.96	2621.40
765.13	2537.43
765.31	2394.08
765.49	2609.11
765.67	2357.21
765.84	2306.01
766.02	2330.59
766.20	2297.82
766.38	2531.29
766.56	2547.67
766.73	2523.10
766.91	2426.84
767.09	2512.86
767.27	2539.48
767.44	2279.39
767.62	2504.67
767.80	2547.67
767.98	2455.51
768.15	2420.70
768.33	2578.39
768.51	2539.48
768.69	2435.03
768.87	2459.61
769.04	2508.76
769.22	2750.42
769.40	2727.89
769.58	2711.51
769.75	2527.19
769.93	2572.25
770.11	2439.13
770.28	2373.60
770.46	2572.25
770.64	2469.85
770.82	2510.81
770.99	2363.36
771.17	2645.98
771.35	2463.71
771.53	2502.62
771.70	2414.56
771.88	2547.67
772.06	2402.27
772.23	2406.36
772.41	2463.71
772.59	2478.04
772.77	2332.64
772.94	2414.56
773.12	2521.05
773.30	2392.03
773.47	2529.24
773.65	2394.08
773.83	2572.25
774.01	2490.33
774.18	2232.29
774.36	2508.76
774.54	2269.15
774.71	2586.58
774.89	2365.40
775.07	2418.65
775.24	2365.40
775.42	2392.03
775.60	2785.24
775.78	2406.36
775.95	2398.17
776.13	2287.58
776.31	2213.85
776.48	2572.25
776.66	2602.97
776.84	2381.79
777.01	2449.37
777.19	2303.96
777.37	2408.41
777.54	2557.91
777.72	2699.22
777.90	2508.76
778.07	2314.20
778.25	2850.77
778.43	2627.54
778.60	2447.32
778.78	2547.67
778.96	2588.63
779.13	2363.36
779.31	2547.67
779.49	2432.99
779.66	2572.25
779.84	2482.14
780.01	2379.74
780.19	2330.59
780.37	2635.74
780.54	2502.62
780.72	2375.64
780.90	2447.32
781.07	2469.85
781.25	2410.46
781.43	2572.25
781.60	2412.51
781.78	2602.97
781.95	2473.95
782.13	2424.80
782.31	2396.12
782.48	2228.19
782.66	2471.90
782.83	2629.59
783.01	2416.60
783.19	2625.50
783.36	2439.13
783.54	2285.53
783.72	2549.72
783.89	2498.52
784.07	2570.20
784.24	2539.48
784.42	2627.54
784.60	2588.63
784.77	2539.48
784.95	2269.15
785.12	2496.47
785.30	2457.56
785.47	2359.26
785.65	2312.16
785.83	2461.66
786.00	2324.44
786.18	2510.81
786.35	2369.50
786.53	2326.49
786.71	2684.89
786.88	2467.80
787.06	2572.25
787.23	2457.56
787.41	2316.25
787.58	2480.09
787.76	2396.12
787.94	2457.56
788.11	2457.56
788.29	2324.44
788.46	2424.80
788.64	2232.29
788.81	2453.47
788.99	2394.08
789.16	2365.40
789.34	2404.32
789.52	2346.97
789.69	2432.99
789.87	2277.34
790.04	2428.89
790.22	2521.05
790.39	2713.56
790.57	2367.45
790.74	2381.79
790.92	2592.73
791.09	2308.06
791.27	2457.56
791.44	2529.24
791.62	2426.84
791.79	2592.73
791.97	2504.67
792.15	2719.70
792.32	2553.82
792.50	2527.19
792.67	2680.79
792.85	2660.31
793.02	2502.62
793.20	2416.60
793.37	2295.77
793.55	2396.12
793.72	2326.49
793.90	2570.20
794.07	2328.54
794.25	2338.78
794.42	2496.47
794.60	2406.36
794.77	2482.14
794.95	2566.10
795.12	2609.11
795.30	2424.80
795.47	2215.90
795.65	2760.66
795.82	2437.08
796.00	2400.22
796.17	2478.04
796.34	2334.68
796.52	2471.90
796.69	2594.78
796.87	2447.32
797.04	2535.39
797.22	2580.44
797.39	2529.24
797.57	2490.33
797.74	2492.38
797.92	2484.19
798.09	2367.45
798.27	2531.29
798.44	2439.13
798.62	2424.80
798.79	2490.33
798.96	2596.82
799.14	2471.90
799.31	2764.76
799.49	2500.57
799.66	2424.80
799.84	2486.23
800.01	2316.25
800.19	2490.33
800.36	2275.29
800.53	2482.14
800.71	2578.39
800.88	2672.60
801.06	2252.77
801.23	2394.08
801.41	2439.13
801.58	2500.57
801.75	2332.64
801.93	2523.10
802.10	2600.92
802.28	2482.14
802.45	2455.51
802.63	2447.32
802.80	2637.78
802.97	2467.80
803.15	2482.14
803.32	2363.36
803.50	2373.60
803.67	2410.46
803.84	2408.41
804.02	2527.19
804.19	2443.23
804.37	2152.42
804.54	2320.35
804.71	2453.47
804.89	2449.37
805.06	2363.36
805.24	2349.02
805.41	2283.49
805.58	2369.50
805.76	2789.33
805.93	2437.08
806.10	2588.63
806.28	2482.14
806.45	2498.52
806.63	2471.90
806.80	2545.63
806.97	2531.29
807.15	2525.15
807.32	2447.32
807.49	2504.67
807.67	2332.64
807.84	2516.95
808.01	2246.62
808.19	2631.64
808.36	2783.19
808.54	2414.56
808.71	2361.31
808.88	2414.56
809.06	2512.86
809.23	2666.46
809.40	2375.64
809.58	2521.05
809.75	2316.25
809.92	2349.02
810.10	2691.03
810.27	2406.36
810.44	2598.87
810.62	2600.92
810.79	2486.23
810.96	2428.89
811.14	2398.17
811.31	2492.38
811.48	2564.06
811.66	2504.67
811.83	2715.61
812.00	2539.48
812.18	2473.95
812.35	2678.74
812.52	2365.40
812.69	2514.91
812.87	2381.79
813.04	2396.12
813.21	2459.61
813.39	2426.84
813.56	2334.68
813.73	2590.68
813.91	2336.73
814.08	2486.23
814.25	2531.29
814.42	2351.07
814.60	2453.47
814.77	2445.27
814.94	2480.09
815.12	2519.00
815.29	2584.54
815.46	2457.56
815.63	2469.85
815.81	2449.37
815.98	2428.89
816.15	2461.66
816.33	2367.45
816.50	2414.56
816.67	2441.18
816.84	2498.52
817.02	2346.97
817.19	2410.46
817.36	2414.56
817.53	2539.48
817.71	2422.75
817.88	2465.75
818.05	2439.13
818.22	2375.64
818.40	2648.02
818.57	2406.36
818.74	2488.28
818.91	2482.14
819.09	2592.73
819.26	2576.34
819.43	2410.46
819.60	2420.70
819.78	2514.91
819.95	2543.58
820.12	2318.30
820.29	2580.44
820.47	2598.87
820.64	2404.32
820.81	2336.73
820.98	2387.93
821.15	2387.93
821.33	2514.91
821.50	2281.44
821.67	2478.04
821.84	2392.03
822.02	2439.13
822.19	2600.92
822.36	2432.99
822.53	2422.75
822.70	2291.68
822.88	2465.75
823.05	2662.36
823.22	2375.64
823.39	2559.96
823.56	2465.75
823.74	2719.70
823.91	2297.82
824.08	2293.72
824.25	2457.56
824.42	2662.36
824.60	2461.66
824.77	2537.43
824.94	2416.60
825.11	2570.20
825.28	2277.34
825.45	2473.95
825.63	2506.71
825.80	2408.41
825.97	2568.15
826.14	2412.51
826.31	2275.29
826.48	2475.99
826.66	2408.41
826.83	2367.45
827.00	2355.16
827.17	2402.27
827.34	2506.71
827.51	2430.94
827.69	2459.61
827.86	2287.58
828.03	2475.99
828.20	2557.91
828.37	2392.03
828.54	2510.81
828.71	2359.26
828.89	2549.72
829.06	2578.39
829.23	2615.26
829.40	2404.32
829.57	2375.64
829.74	2527.19
829.91	2381.79
830.09	2416.60
830.26	2557.91
830.43	2727.89
830.60	2402.27
830.77	2498.52
830.94	2584.54
831.11	2598.87
831.28	2471.90
831.46	2605.02
831.63	2361.31
831.80	2605.02
831.97	2375.64
832.14	2432.99
832.31	2498.52
832.48	2475.99
832.65	2594.78
832.82	2469.85
832.99	2459.61
833.17	2340.83
833.34	2609.11
833.51	2498.52
833.68	2244.57
833.85	2660.31
834.02	2377.69
834.19	2349.02
834.36	2371.55
834.53	2564.06
834.70	2514.91
834.87	2435.03
835.04	2322.40
835.22	2471.90
835.39	2392.03
835.56	2275.29
835.73	2326.49
835.90	2600.92
836.07	2392.03
836.24	2570.20
836.41	2285.53
836.58	2379.74
836.75	2578.39
836.92	2387.93
837.09	2402.27
837.26	2533.34
837.43	2512.86
837.60	2457.56
837.77	2387.93
837.94	2576.34
838.12	2674.65
838.29	2353.12
838.46	2234.33
838.63	2414.56
838.80	2623.45
838.97	2416.60
839.14	2416.60
839.31	2449.37
839.48	2576.34
839.65	2359.26
839.82	2475.99
839.99	2502.62
840.16	2473.95
840.33	2340.83
840.50	2383.84
840.67	2404.32
840.84	2213.85
841.01	2400.22
841.18	2328.54
841.35	2410.46
841.52	2613.21
841.69	2756.57
841.86	2375.64
842.03	2449.37
842.20	2590.68
842.37	2400.22
842.54	2412.51
842.71	2473.95
842.88	2269.15
843.05	2371.55
843.22	2461.66
843.39	2596.82
843.56	2301.92
843.73	2410.46
843.90	2410.46
844.07	2537.43
844.24	2529.24
844.41	2471.90
844.58	2408.41
844.75	2414.56
844.92	2453.47
845.09	2349.02
845.26	2367.45
845.43	2539.48
845.60	2531.29
845.77	2469.85
845.94	2529.24
846.10	2494.43
846.27	2285.53
846.44	2277.34
846.61	2379.74
846.78	2564.06
846.95	2568.15
847.12	2336.73
847.29	2389.98
847.46	2387.93
847.63	2668.50
847.80	2387.93
847.97	2453.47
848.14	2701.27
848.31	2490.33
848.48	2215.90
848.65	2471.90
848.82	2457.56
848.98	2711.51
849.15	2449.37
849.32	2473.95
849.49	2584.54
849.66	2480.09
849.83	2408.41
850.00	2392.03
850.17	2547.67
850.34	2430.94
850.51	2414.56
850.68	2414.56
850.85	2725.85
851.01	2463.71
851.18	2346.97
851.35	2400.22
851.52	2580.44
851.69	2654.17
851.86	2258.91
852.03	2400.22
852.20	2553.82
852.37	2445.27
852.53	2320.35
852.70	2301.92
852.87	2480.09
853.04	2607.06
853.21	2385.88
853.38	2506.71
853.55	2607.06
853.72	2586.58
853.89	2367.45
854.05	2346.97
854.22	2420.70
854.39	2394.08
854.56	2412.51
854.73	2519.00
854.90	2342.88
855.07	2488.28
855.23	2277.34
855.40	2371.55
855.57	2437.08
855.74	2150.37
855.91	2625.50
856.08	2228.19
856.25	2334.68
856.41	2369.50
856.58	2373.60
856.75	2441.18
856.92	2381.79
857.09	2613.21
857.26	2252.77
857.42	2455.51
857.59	2506.71
857.76	2469.85
857.93	2441.18
858.10	2488.28
858.27	2236.38
858.43	2451.42
858.60	2273.25
858.77	2220.00
858.94	2389.98
859.11	2578.39
859.27	2351.07
859.44	2404.32
859.61	2678.74
859.78	2580.44
859.95	2408.41
860.12	2389.98
860.28	2824.15
860.45	2707.41
860.62	2340.83
860.79	2404.32
860.95	2447.32
861.12	2455.51
861.29	2316.25
861.46	2349.02
861.63	2478.04
861.79	2555.86
861.96	2330.59
862.13	2367.45
862.30	2611.16
862.47	2428.89
862.63	2340.83
862.80	2412.51
862.97	2564.06
863.14	2574.30
863.30	2432.99
863.47	2275.29
863.64	2625.50
863.81	2506.71
863.97	2312.16
864.14	2385.88
864.31	2449.37
864.48	2551.77
864.65	2340.83
864.81	2389.98
864.98	2568.15
865.15	2572.25
865.32	2482.14
865.48	2523.10
865.65	2633.69
865.82	2424.80
865.98	2445.27
866.15	2387.93
866.32	2408.41
866.49	2426.84
866.65	2490.33
866.82	2320.35
866.99	2441.18
867.16	2406.36
867.32	2353.12
867.49	2287.58
867.66	2463.71
867.83	2398.17
867.99	2351.07
868.16	2375.64
868.33	2351.07
868.49	2467.80
868.66	2416.60
868.83	2387.93
868.99	2406.36
869.16	2471.90
869.33	2506.71
869.50	2396.12
869.66	2424.80
869.83	2529.24
870.00	2318.30
870.16	2480.09
870.33	2375.64
870.50	2596.82
870.66	2414.56
870.83	2621.40
871.00	2441.18
871.17	2564.06
871.33	2383.84
871.50	2287.58
871.67	2490.33
871.83	2346.97
872.00	2555.86
872.17	2334.68
872.33	2746.33
872.50	2654.17
872.67	2351.07
872.83	2392.03
873.00	2492.38
873.17	2486.23
873.33	2498.52
873.50	2486.23
873.67	2371.55
873.83	2428.89
874.00	2412.51
874.16	2488.28
874.33	2512.86
874.50	2326.49
874.66	2412.51
874.83	2439.13
875.00	2586.58
875.16	2596.82
875.33	2471.90
875.50	2197.47
875.66	2349.02
875.83	2461.66
875.99	2482.14
876.16	2424.80
876.33	2363.36
876.49	2408.41
876.66	2445.27
876.83	2353.12
876.99	2232.29
877.16	2502.62
877.32	2306.01
877.49	2387.93
877.66	2469.85
877.82	2596.82
877.99	2420.70
878.15	2570.20
878.32	2539.48
878.49	2523.10
878.65	2412.51
878.82	2594.78
878.98	2398.17
879.15	2635.74
879.32	2469.85
879.48	2432.99
879.65	2500.57
879.81	2381.79
879.98	2316.25
880.15	2396.12
880.31	2557.91
880.48	2342.88
880.64	2428.89
880.81	2557.91
880.97	2656.22
881.14	2658.26
881.31	2301.92
881.47	2531.29
881.64	2432.99
881.80	2301.92
881.97	2516.95
882.13	2410.46
882.30	2363.36
882.47	2416.60
882.63	2359.26
882.80	2373.60
882.96	2445.27
883.13	2607.06
883.29	2404.32
883.46	2377.69
883.62	2711.51
883.79	2527.19
883.95	2566.10
884.12	2363.36
884.29	2553.82
884.45	2504.67
884.62	2373.60
884.78	2377.69
884.95	2627.54
885.11	2367.45
885.28	2439.13
885.44	2385.88
885.61	2572.25
885.77	2668.50
885.94	2473.95
886.10	2396.12
886.27	2523.10
886.43	2658.26
886.60	2455.51
886.76	2392.03
886.93	2385.88
887.09	2504.67
887.26	2365.40
887.42	2469.85
887.59	2602.97
887.75	2744.28
887.92	2553.82
888.08	2498.52
888.25	2648.02
888.41	2641.88
888.58	2398.17
888.74	2412.51
888.91	2465.75
>>>>>End Processed Spectral Data<<<<<
