SpectraSuite Data File
++++++++++++++++++++++++++++++++++++
Date: Thu May 05 14:41:57 CEST 2016
User: root
Dark Spectrum Present: No
Reference Spectrum Present: No
Number of Sampled Component Spectra: 1
Spectrometers: USB4C02835
Integration Time (usec): 100000 (USB4C02835)
Spectra Averaged: 1 (USB4C02835)
Boxcar Smoothing: 0 (USB4C02835)
Correct for Electrical Dark: No (USB4C02835)
Strobe/Lamp Enabled: No (USB4C02835)
Correct for Detector Non-linearity: No (USB4C02835)
Correct for Stray Light: No (USB4C02835)
Number of Pixels in Processed Spectrum: 3648
>>>>>Begin Processed Spectral Data<<<<<
177.47	1867.75
177.69	1867.75
177.91	1867.75
178.13	1875.94
178.36	1943.52
178.58	2369.50
178.80	2584.54
179.02	2277.34
179.24	2344.92
179.46	2359.26
179.68	2363.36
179.90	2392.03
180.13	2437.08
180.35	2230.24
180.57	2279.39
180.79	2586.58
181.01	2441.18
181.23	2373.60
181.45	2449.37
181.67	2478.04
181.90	2609.11
182.12	2355.16
182.34	2217.95
182.56	2498.52
182.78	2580.44
183.00	2396.12
183.22	2426.84
183.44	2215.90
183.66	2832.34
183.89	2484.19
184.11	2400.22
184.33	2619.35
184.55	2662.36
184.77	2277.34
184.99	2400.22
185.21	2445.27
185.43	2729.94
185.65	2332.64
185.87	2318.30
186.10	2799.57
186.32	2766.81
186.54	2430.94
186.76	2519.00
186.98	2613.21
187.20	2441.18
187.42	2342.88
187.64	2297.82
187.86	2506.71
188.08	2598.87
188.30	2260.96
188.52	2404.32
188.75	2699.22
188.97	2709.46
189.19	2320.35
189.41	2355.16
189.63	2543.58
189.85	2406.36
190.07	2326.49
190.29	2252.77
190.51	2482.14
190.73	2320.35
190.95	2488.28
191.17	2387.93
191.39	2287.58
191.61	2506.71
191.84	2267.10
192.06	2439.13
192.28	2275.29
192.50	2858.96
192.72	2424.80
192.94	2461.66
193.16	2588.63
193.38	2537.43
193.60	2217.95
193.82	2408.41
194.04	2588.63
194.26	2529.24
194.48	2326.49
194.70	2340.83
194.92	2443.23
195.14	2539.48
195.36	2269.15
195.58	2381.79
195.80	2408.41
196.02	2359.26
196.24	2265.05
196.46	2418.65
196.69	2326.49
196.91	2783.19
197.13	2240.48
197.35	2326.49
197.57	2643.93
197.79	2514.91
198.01	2406.36
198.23	2363.36
198.45	2539.48
198.67	2359.26
198.89	2236.38
199.11	2367.45
199.33	2422.75
199.55	2199.52
199.77	2279.39
199.99	2521.05
200.21	2478.04
200.43	2578.39
200.65	2217.95
200.87	2213.85
201.09	2480.09
201.31	2488.28
201.53	2416.60
201.75	2351.07
201.97	2562.01
202.19	2488.28
202.41	2408.41
202.63	2609.11
202.85	2447.32
203.07	2547.67
203.29	2375.64
203.51	2310.11
203.73	2359.26
203.95	2820.05
204.17	2312.16
204.39	2465.75
204.61	2486.23
204.83	2488.28
205.05	2490.33
205.27	2398.17
205.49	2750.42
205.71	2527.19
205.93	2207.71
206.15	2336.73
206.37	2467.80
206.59	2457.56
206.81	2306.01
207.03	2267.10
207.25	2349.02
207.47	2478.04
207.69	2334.68
207.91	2502.62
208.13	2705.37
208.34	2422.75
208.56	2310.11
208.78	2346.97
209.00	2445.27
209.22	2379.74
209.44	2342.88
209.66	2260.96
209.88	2545.63
210.10	2412.51
210.32	2375.64
210.54	2527.19
210.76	2424.80
210.98	2619.35
211.20	2162.66
211.42	2451.42
211.64	2670.55
211.86	2545.63
212.08	2424.80
212.30	2404.32
212.52	2449.37
212.74	2568.15
212.96	2400.22
213.17	2367.45
213.39	2633.69
213.61	2645.98
213.83	2402.27
214.05	2389.98
214.27	2602.97
214.49	2400.22
214.71	2267.10
214.93	2465.75
215.15	2422.75
215.37	2615.26
215.59	2263.01
215.81	2449.37
216.03	2637.78
216.24	2480.09
216.46	2473.95
216.68	2383.84
216.90	2588.63
217.12	2578.39
217.34	2299.87
217.56	2424.80
217.78	2596.82
218.00	2545.63
218.22	2437.08
218.44	2492.38
218.66	2473.95
218.87	2701.27
219.09	2334.68
219.31	2359.26
219.53	2486.23
219.75	2424.80
219.97	2463.71
220.19	2392.03
220.41	2539.48
220.63	2635.74
220.85	2416.60
221.06	2394.08
221.28	2676.70
221.50	2598.87
221.72	2324.44
221.94	2277.34
222.16	2422.75
222.38	2625.50
222.60	2359.26
222.82	2334.68
223.03	2613.21
223.25	2318.30
223.47	2289.63
223.69	2492.38
223.91	2529.24
224.13	2506.71
224.35	2312.16
224.57	2473.95
224.78	2504.67
225.00	2367.45
225.22	2451.42
225.44	2297.82
225.66	2576.34
225.88	2490.33
226.10	2490.33
226.32	2400.22
226.53	2629.59
226.75	2412.51
226.97	2285.53
227.19	2346.97
227.41	2385.88
227.63	2420.70
227.85	2267.10
228.06	2365.40
228.28	2535.39
228.50	2594.78
228.72	2228.19
228.94	2308.06
229.16	2324.44
229.37	2383.84
229.59	2240.48
229.81	2414.56
230.03	2396.12
230.25	2260.96
230.47	2226.14
230.69	2285.53
230.90	2572.25
231.12	2373.60
231.34	2426.84
231.56	2432.99
231.78	2324.44
232.00	2490.33
232.21	2400.22
232.43	2338.78
232.65	2289.63
232.87	2562.01
233.09	2295.77
233.30	2363.36
233.52	2584.54
233.74	2316.25
233.96	2334.68
234.18	2375.64
234.40	2574.30
234.61	2731.99
234.83	2332.64
235.05	2275.29
235.27	2783.19
235.49	2650.07
235.70	2297.82
235.92	2406.36
236.14	2539.48
236.36	2842.58
236.58	2252.77
236.79	2349.02
237.01	2494.43
237.23	2422.75
237.45	2629.59
237.67	2367.45
237.88	2519.00
238.10	2750.42
238.32	2297.82
238.54	2291.68
238.76	2437.08
238.97	2349.02
239.19	2299.87
239.41	2412.51
239.63	2596.82
239.85	2449.37
240.06	2455.51
240.28	2283.49
240.50	2660.31
240.72	2473.95
240.93	2314.20
241.15	2379.74
241.37	2486.23
241.59	2635.74
241.81	2308.06
242.02	2299.87
242.24	2611.16
242.46	2514.91
242.68	2187.23
242.89	2410.46
243.11	2609.11
243.33	2428.89
243.55	2381.79
243.76	2406.36
243.98	2336.73
244.20	2516.95
244.42	2449.37
244.64	2428.89
244.85	2406.36
245.07	2338.78
245.29	2392.03
245.51	2349.02
245.72	2482.14
245.94	2625.50
246.16	2389.98
246.38	2422.75
246.59	2385.88
246.81	2430.94
247.03	2240.48
247.24	2287.58
247.46	2363.36
247.68	2478.04
247.90	2301.92
248.11	2263.01
248.33	2580.44
248.55	2465.75
248.77	2365.40
248.98	2480.09
249.20	2717.65
249.42	2488.28
249.64	2310.11
249.85	2322.40
250.07	2473.95
250.29	2613.21
250.50	2381.79
250.72	2166.75
250.94	2527.19
251.16	2695.13
251.37	2301.92
251.59	2500.57
251.81	2605.02
252.02	2744.28
252.24	2283.49
252.46	2486.23
252.68	2400.22
252.89	2285.53
253.11	2236.38
253.33	2469.85
253.54	2619.35
253.76	2351.07
253.98	2389.98
254.20	2287.58
254.41	2295.77
254.63	2482.14
254.85	2242.53
255.06	2318.30
255.28	2498.52
255.50	2373.60
255.71	2303.96
255.93	2303.96
256.15	2383.84
256.36	2514.91
256.58	2334.68
256.80	2357.21
257.02	2449.37
257.23	2471.90
257.45	2396.12
257.67	2428.89
257.88	2422.75
258.10	2478.04
258.32	2385.88
258.53	2402.27
258.75	2668.50
258.97	2422.75
259.18	2277.34
259.40	2361.31
259.62	2719.70
259.83	2635.74
260.05	2398.17
260.27	2961.36
260.48	2611.16
260.70	2346.97
260.92	2310.11
261.13	2387.93
261.35	2512.86
261.57	2557.91
261.78	2267.10
262.00	2291.68
262.22	2562.01
262.43	2385.88
262.65	2285.53
262.86	2357.21
263.08	2873.30
263.30	2492.38
263.51	2185.18
263.73	2297.82
263.95	2709.46
264.16	2349.02
264.38	2355.16
264.60	2363.36
264.81	2453.47
265.03	2686.94
265.25	2502.62
265.46	2215.90
265.68	2666.46
265.89	2592.73
266.11	2260.96
266.33	2410.46
266.54	2574.30
266.76	2613.21
266.98	2408.41
267.19	2502.62
267.41	2664.41
267.62	2406.36
267.84	2258.91
268.06	2424.80
268.27	2527.19
268.49	2672.60
268.70	2430.94
268.92	2373.60
269.14	2424.80
269.35	2326.49
269.57	2375.64
269.79	2414.56
270.00	2453.47
270.22	2680.79
270.43	2277.34
270.65	2148.32
270.87	2553.82
271.08	2500.57
271.30	2383.84
271.51	2383.84
271.73	2611.16
271.95	2682.84
272.16	2277.34
272.38	2406.36
272.59	2414.56
272.81	2494.43
273.02	2346.97
273.24	2441.18
273.46	2609.11
273.67	2324.44
273.89	2246.62
274.10	2328.54
274.32	2547.67
274.54	2486.23
274.75	2392.03
274.97	2396.12
275.18	2514.91
275.40	2609.11
275.61	2396.12
275.83	2410.46
276.05	2394.08
276.26	2469.85
276.48	2441.18
276.69	2398.17
276.91	2344.92
277.12	2699.22
277.34	2512.86
277.55	2533.34
277.77	2480.09
277.99	2480.09
278.20	2371.55
278.42	2269.15
278.63	2443.23
278.85	2410.46
279.06	2324.44
279.28	2467.80
279.49	2584.54
279.71	2588.63
279.93	2471.90
280.14	2412.51
280.36	2379.74
280.57	2576.34
280.79	2480.09
281.00	2318.30
281.22	2396.12
281.43	2510.81
281.65	2269.15
281.86	2328.54
282.08	2570.20
282.29	2750.42
282.51	2363.36
282.73	2293.72
282.94	2293.72
283.16	2590.68
283.37	2574.30
283.59	2334.68
283.80	2553.82
284.02	2455.51
284.23	2453.47
284.45	2445.27
284.66	2379.74
284.88	2369.50
285.09	2457.56
285.31	2463.71
285.52	2492.38
285.74	2293.72
285.95	2523.10
286.17	2457.56
286.38	2637.78
286.60	2451.42
286.81	2387.93
287.03	2439.13
287.24	2445.27
287.46	2551.77
287.67	2469.85
287.89	2592.73
288.10	2494.43
288.32	2512.86
288.53	2535.39
288.75	2408.41
288.96	2531.29
289.18	2406.36
289.39	2330.59
289.61	2459.61
289.82	2801.62
290.04	2662.36
290.25	2324.44
290.47	2445.27
290.68	2383.84
290.90	2559.96
291.11	2291.68
291.33	2504.67
291.54	2506.71
291.76	2389.98
291.97	2488.28
292.18	2512.86
292.40	2357.21
292.61	2469.85
292.83	2625.50
293.04	2506.71
293.26	2498.52
293.47	2355.16
293.69	2400.22
293.90	2365.40
294.12	2652.12
294.33	2457.56
294.55	2351.07
294.76	2521.05
294.97	2631.64
295.19	2789.33
295.40	2373.60
295.62	2564.06
295.83	2588.63
296.05	2478.04
296.26	2600.92
296.48	2420.70
296.69	2473.95
296.90	2428.89
297.12	2441.18
297.33	2559.96
297.55	2439.13
297.76	2502.62
297.98	2475.99
298.19	2486.23
298.41	2557.91
298.62	2330.59
298.83	2531.29
299.05	2443.23
299.26	2406.36
299.48	2328.54
299.69	2516.95
299.90	2465.75
300.12	2363.36
300.33	2566.10
300.55	2435.03
300.76	2473.95
300.98	2314.20
301.19	2531.29
301.40	2482.14
301.62	2381.79
301.83	2594.78
302.05	2445.27
302.26	2410.46
302.47	2420.70
302.69	2289.63
302.90	2469.85
303.12	2203.61
303.33	2473.95
303.54	2678.74
303.76	2469.85
303.97	2449.37
304.19	2547.67
304.40	2414.56
304.61	2588.63
304.83	2549.72
305.04	2549.72
305.26	2611.16
305.47	2498.52
305.68	2392.03
305.90	2301.92
306.11	2553.82
306.33	2435.03
306.54	2316.25
306.75	2396.12
306.97	2269.15
307.18	2381.79
307.39	2441.18
307.61	2539.48
307.82	2465.75
308.04	2519.00
308.25	2281.44
308.46	2449.37
308.68	2463.71
308.89	2441.18
309.10	2572.25
309.32	2435.03
309.53	2400.22
309.74	2631.64
309.96	2437.08
310.17	2527.19
310.39	2340.83
310.60	2580.44
310.81	2453.47
311.03	2299.87
311.24	2568.15
311.45	2445.27
311.67	2590.68
311.88	2519.00
312.09	2420.70
312.31	2424.80
312.52	2383.84
312.73	2447.32
312.95	2326.49
313.16	2361.31
313.37	2574.30
313.59	2582.49
313.80	2547.67
314.01	2684.89
314.23	2445.27
314.44	2365.40
314.65	2273.25
314.87	2349.02
315.08	2365.40
315.29	2359.26
315.51	2285.53
315.72	2332.64
315.93	2562.01
316.15	2553.82
316.36	2445.27
316.57	2404.32
316.79	2432.99
317.00	2367.45
317.21	2545.63
317.43	2420.70
317.64	2478.04
317.85	2392.03
318.07	2389.98
318.28	2418.65
318.49	2545.63
318.70	2668.50
318.92	2691.03
319.13	2621.40
319.34	2592.73
319.56	2424.80
319.77	2670.55
319.98	2633.69
320.20	2586.58
320.41	2553.82
320.62	2605.02
320.83	2340.83
321.05	2578.39
321.26	2426.84
321.47	2447.32
321.69	2619.35
321.90	2316.25
322.11	2344.92
322.32	2492.38
322.54	2623.45
322.75	2367.45
322.96	2908.12
323.18	2303.96
323.39	2244.57
323.60	2381.79
323.81	2566.10
324.03	2424.80
324.24	2406.36
324.45	2469.85
324.66	2375.64
324.88	2662.36
325.09	2656.22
325.30	2422.75
325.52	2369.50
325.73	2572.25
325.94	2383.84
326.15	2281.44
326.37	2334.68
326.58	2553.82
326.79	2660.31
327.00	2349.02
327.22	2383.84
327.43	2445.27
327.64	2318.30
327.85	2492.38
328.07	2455.51
328.28	2822.10
328.49	2428.89
328.70	2478.04
328.92	2406.36
329.13	2404.32
329.34	2504.67
329.55	2605.02
329.76	2508.76
329.98	2486.23
330.19	2705.37
330.40	2469.85
330.61	2486.23
330.83	2519.00
331.04	2424.80
331.25	2432.99
331.46	2336.73
331.68	2367.45
331.89	2465.75
332.10	2398.17
332.31	2303.96
332.52	2486.23
332.74	2652.12
332.95	2254.81
333.16	2451.42
333.37	2621.40
333.58	2408.41
333.80	2463.71
334.01	2312.16
334.22	2387.93
334.43	2349.02
334.64	2314.20
334.86	2293.72
335.07	2392.03
335.28	2654.17
335.49	2232.29
335.70	2432.99
335.92	2682.84
336.13	2715.61
336.34	2480.09
336.55	2529.24
336.76	2539.48
336.98	2301.92
337.19	2373.60
337.40	2592.73
337.61	2799.57
337.82	2457.56
338.04	2490.33
338.25	2228.19
338.46	2455.51
338.67	2469.85
338.88	2359.26
339.09	2371.55
339.31	2414.56
339.52	2387.93
339.73	2381.79
339.94	2406.36
340.15	2557.91
340.36	2428.89
340.58	2535.39
340.79	2383.84
341.00	2475.99
341.21	2322.40
341.42	2549.72
341.63	2422.75
341.85	2586.58
342.06	2527.19
342.27	2396.12
342.48	2539.48
342.69	2291.68
342.90	2510.81
343.12	2596.82
343.33	2361.31
343.54	2605.02
343.75	2648.02
343.96	2424.80
344.17	2340.83
344.38	2498.52
344.60	2396.12
344.81	2324.44
345.02	2373.60
345.23	2654.17
345.44	2815.96
345.65	2480.09
345.86	2428.89
346.07	2559.96
346.29	2430.94
346.50	2527.19
346.71	2496.47
346.92	2580.44
347.13	2717.65
347.34	2455.51
347.55	2349.02
347.76	2541.53
347.98	2334.68
348.19	2406.36
348.40	2535.39
348.61	2465.75
348.82	2660.31
349.03	2570.20
349.24	2346.97
349.45	2725.85
349.66	2318.30
349.88	2375.64
350.09	2326.49
350.30	2631.64
350.51	2559.96
350.72	2537.43
350.93	2514.91
351.14	2418.65
351.35	2523.10
351.56	2439.13
351.77	2416.60
351.99	2586.58
352.20	2662.36
352.41	2562.01
352.62	2240.48
352.83	2457.56
353.04	2504.67
353.25	2316.25
353.46	2508.76
353.67	2639.83
353.88	2215.90
354.09	2406.36
354.30	2428.89
354.52	2537.43
354.73	2490.33
354.94	2394.08
355.15	2451.42
355.36	2645.98
355.57	2439.13
355.78	2420.70
355.99	2394.08
356.20	2471.90
356.41	2613.21
356.62	2445.27
356.83	2406.36
357.04	2711.51
357.25	2275.29
357.46	2402.27
357.68	2324.44
357.89	2389.98
358.10	2447.32
358.31	2443.23
358.52	2392.03
358.73	2285.53
358.94	2387.93
359.15	2424.80
359.36	2453.47
359.57	2486.23
359.78	2506.71
359.99	2494.43
360.20	2322.40
360.41	2473.95
360.62	2605.02
360.83	2523.10
361.04	2400.22
361.25	2508.76
361.46	2619.35
361.67	2473.95
361.88	2437.08
362.09	2650.07
362.30	2619.35
362.51	2340.83
362.72	2371.55
362.93	2580.44
363.14	2557.91
363.35	2478.04
363.56	2306.01
363.78	2619.35
363.99	2592.73
364.20	2357.21
364.41	2469.85
364.62	2676.70
364.83	2617.30
365.04	2410.46
365.25	2402.27
365.46	2787.29
365.67	2473.95
365.88	2424.80
366.09	2367.45
366.30	2416.60
366.51	2457.56
366.72	2351.07
366.93	2428.89
367.14	2592.73
367.35	2682.84
367.56	2389.98
367.77	2510.81
367.98	2465.75
368.18	2564.06
368.39	2498.52
368.60	2355.16
368.81	2498.52
369.02	2553.82
369.23	2494.43
369.44	2351.07
369.65	2461.66
369.86	2539.48
370.07	2519.00
370.28	2334.68
370.49	2506.71
370.70	2508.76
370.91	2357.21
371.12	2238.43
371.33	2633.69
371.54	2428.89
371.75	2586.58
371.96	2244.57
372.17	2529.24
372.38	2408.41
372.59	2453.47
372.80	2373.60
373.01	2418.65
373.22	2502.62
373.43	2465.75
373.64	2324.44
373.85	2674.65
374.06	2641.88
374.26	2494.43
374.47	2432.99
374.68	2701.27
374.89	2549.72
375.10	2392.03
375.31	2564.06
375.52	2549.72
375.73	2535.39
375.94	2332.64
376.15	2619.35
376.36	2457.56
376.57	2432.99
376.78	2365.40
376.99	2451.42
377.20	2701.27
377.40	2408.41
377.61	2619.35
377.82	2355.16
378.03	2662.36
378.24	2523.10
378.45	2426.84
378.66	2488.28
378.87	2359.26
379.08	2330.59
379.29	2367.45
379.50	2605.02
379.71	2475.99
379.91	2496.47
380.12	2441.18
380.33	2486.23
380.54	2457.56
380.75	2424.80
380.96	2363.36
381.17	2439.13
381.38	2455.51
381.59	2496.47
381.80	2570.20
382.00	2605.02
382.21	2572.25
382.42	2766.81
382.63	2725.85
382.84	2572.25
383.05	2668.50
383.26	2721.75
383.47	2514.91
383.68	2484.19
383.88	2611.16
384.09	2478.04
384.30	2637.78
384.51	2504.67
384.72	2473.95
384.93	2279.39
385.14	2521.05
385.35	2508.76
385.55	2287.58
385.76	2727.89
385.97	2469.85
386.18	2322.40
386.39	2371.55
386.60	2475.99
386.81	2416.60
387.02	2330.59
387.22	2236.38
387.43	2588.63
387.64	2490.33
387.85	2627.54
388.06	2715.61
388.27	4018.11
388.48	8234.88
388.68	12154.69
388.89	14618.40
389.10	15841.04
389.31	14774.05
389.52	11517.78
389.73	9969.51
389.93	9191.28
390.14	8365.95
390.35	7339.92
390.56	6645.66
390.77	5543.85
390.98	4136.90
391.18	3454.92
391.39	3055.57
391.60	2570.20
391.81	2594.78
392.02	2416.60
392.23	2838.48
392.43	2521.05
392.64	2605.02
392.85	2480.09
393.06	2652.12
393.27	2486.23
393.47	2408.41
393.68	2408.41
393.89	2457.56
394.10	2621.40
394.31	2441.18
394.52	2449.37
394.72	2355.16
394.93	2615.26
395.14	2324.44
395.35	2486.23
395.56	2392.03
395.76	2404.32
395.97	2510.81
396.18	2637.78
396.39	2592.73
396.60	2969.55
396.80	2758.61
397.01	2576.34
397.22	2723.80
397.43	2660.31
397.64	2451.42
397.84	2555.86
398.05	2744.28
398.26	2504.67
398.47	2545.63
398.67	2584.54
398.88	2482.14
399.09	2576.34
399.30	2385.88
399.51	2527.19
399.71	2420.70
399.92	2514.91
400.13	2488.28
400.34	2422.75
400.54	2473.95
400.75	2686.94
400.96	2367.45
401.17	2658.26
401.37	2521.05
401.58	2488.28
401.79	2437.08
402.00	2584.54
402.21	2967.51
402.41	2725.85
402.62	2740.18
402.83	2916.31
403.04	2973.65
403.24	3104.72
403.45	2605.02
403.66	2756.57
403.87	2703.32
404.07	2854.87
404.28	2717.65
404.49	2707.41
404.70	2695.13
404.90	2639.83
405.11	2506.71
405.32	2543.58
405.52	2400.22
405.73	2359.26
405.94	2328.54
406.15	2416.60
406.35	2580.44
406.56	2582.49
406.77	2482.14
406.98	2535.39
407.18	2430.94
407.39	2693.08
407.60	2502.62
407.80	2535.39
408.01	2447.32
408.22	2457.56
408.43	2396.12
408.63	2496.47
408.84	2553.82
409.05	2629.59
409.25	2342.88
409.46	2314.20
409.67	2449.37
409.88	2416.60
410.08	2480.09
410.29	2490.33
410.50	2519.00
410.70	2596.82
410.91	2332.64
411.12	2527.19
411.32	2504.67
411.53	2451.42
411.74	2504.67
411.95	2551.77
412.15	2531.29
412.36	2625.50
412.57	2529.24
412.77	2600.92
412.98	2465.75
413.19	2381.79
413.39	2514.91
413.60	2535.39
413.81	2654.17
414.01	2539.48
414.22	2539.48
414.43	2500.57
414.63	2496.47
414.84	2580.44
415.05	2410.46
415.25	2375.64
415.46	2500.57
415.67	2484.19
415.87	2545.63
416.08	2453.47
416.29	2506.71
416.49	2512.86
416.70	2445.27
416.91	2340.83
417.11	2562.01
417.32	2637.78
417.53	2500.57
417.73	2467.80
417.94	2437.08
418.15	2502.62
418.35	2527.19
418.56	2471.90
418.77	2740.18
418.97	2492.38
419.18	2455.51
419.38	2232.29
419.59	2455.51
419.80	2674.65
420.00	2412.51
420.21	2439.13
420.42	2621.40
420.62	2486.23
420.83	2398.17
421.04	2461.66
421.24	2490.33
421.45	2551.77
421.65	2494.43
421.86	2394.08
422.07	2598.87
422.27	2447.32
422.48	2441.18
422.69	2344.92
422.89	2420.70
423.10	2463.71
423.30	2342.88
423.51	2535.39
423.72	2527.19
423.92	2564.06
424.13	2334.68
424.33	2529.24
424.54	2586.58
424.75	2461.66
424.95	2637.78
425.16	2432.99
425.36	2396.12
425.57	2562.01
425.78	2576.34
425.98	2498.52
426.19	2416.60
426.39	2398.17
426.60	2437.08
426.81	2572.25
427.01	2523.10
427.22	2301.92
427.42	2228.19
427.63	2365.40
427.83	2625.50
428.04	2652.12
428.25	2539.48
428.45	2572.25
428.66	2578.39
428.86	2510.81
429.07	2480.09
429.28	2510.81
429.48	2459.61
429.69	2396.12
429.89	2502.62
430.10	2271.20
430.30	2596.82
430.51	2621.40
430.71	2381.79
430.92	2435.03
431.13	2512.86
431.33	2547.67
431.54	2451.42
431.74	2627.54
431.95	2832.34
432.15	2295.77
432.36	2389.98
432.56	2502.62
432.77	2789.33
432.98	2777.05
433.18	2430.94
433.39	2398.17
433.59	2449.37
433.80	2707.41
434.00	2658.26
434.21	2387.93
434.41	2416.60
434.62	2809.81
434.82	2324.44
435.03	2291.68
435.23	2551.77
435.44	2373.60
435.64	2496.47
435.85	2471.90
436.06	2572.25
436.26	2637.78
436.47	2367.45
436.67	2396.12
436.88	2471.90
437.08	2568.15
437.29	2535.39
437.49	2457.56
437.70	2674.65
437.90	2496.47
438.11	2658.26
438.31	2562.01
438.52	2688.98
438.72	2742.23
438.93	2815.96
439.13	2578.39
439.34	2654.17
439.54	2527.19
439.75	2598.87
439.95	2488.28
440.16	2375.64
440.36	2482.14
440.57	2539.48
440.77	2510.81
440.98	2482.14
441.18	2539.48
441.39	2385.88
441.59	2332.64
441.80	2752.47
442.00	2490.33
442.21	2531.29
442.41	2338.78
442.62	2602.97
442.82	2510.81
443.02	2521.05
443.23	2559.96
443.43	2426.84
443.64	2664.41
443.84	2371.55
444.05	2564.06
444.25	2490.33
444.46	2490.33
444.66	2461.66
444.87	2635.74
445.07	2320.35
445.28	2482.14
445.48	2598.87
445.69	2488.28
445.89	2826.20
446.09	2535.39
446.30	2764.76
446.50	2957.27
446.71	4546.49
446.91	5709.74
447.12	6606.75
447.32	6989.72
447.53	6526.88
447.73	5414.83
447.93	4872.12
448.14	4470.72
448.34	4421.56
448.55	3821.51
448.75	3829.70
448.96	3579.85
449.16	3317.71
449.36	3129.30
449.57	2770.90
449.77	2549.72
449.98	2531.29
450.18	2510.81
450.39	2506.71
450.59	2566.10
450.79	2451.42
451.00	2363.36
451.20	2621.40
451.41	2326.49
451.61	2586.58
451.81	2525.15
452.02	2420.70
452.22	2553.82
452.43	2424.80
452.63	2359.26
452.84	2539.48
453.04	2400.22
453.24	2512.86
453.45	2387.93
453.65	2457.56
453.86	2514.91
454.06	2590.68
454.26	2445.27
454.47	2310.11
454.67	2656.22
454.87	2594.78
455.08	2394.08
455.28	2650.07
455.49	2471.90
455.69	2373.60
455.89	2738.13
456.10	2596.82
456.30	2420.70
456.51	2500.57
456.71	2516.95
456.91	2461.66
457.12	2443.23
457.32	2535.39
457.52	2310.11
457.73	2559.96
457.93	2590.68
458.14	2392.03
458.34	2250.72
458.54	2441.18
458.75	2342.88
458.95	2629.59
459.15	2510.81
459.36	2580.44
459.56	2564.06
459.76	2785.24
459.97	2570.20
460.17	2512.86
460.37	2576.34
460.58	2506.71
460.78	2568.15
460.99	2408.41
461.19	2473.95
461.39	2555.86
461.60	2432.99
461.80	2408.41
462.00	2312.16
462.21	2529.24
462.41	2346.97
462.61	2340.83
462.82	2291.68
463.02	2496.47
463.22	2441.18
463.43	2529.24
463.63	2447.32
463.83	2602.97
464.04	2551.77
464.24	2408.41
464.44	2449.37
464.64	2523.10
464.85	2570.20
465.05	2539.48
465.25	2500.57
465.46	2396.12
465.66	2545.63
465.86	2498.52
466.07	2467.80
466.27	2400.22
466.47	2308.06
466.68	2342.88
466.88	2611.16
467.08	2594.78
467.29	2645.98
467.49	2523.10
467.69	2478.04
467.89	2490.33
468.10	2523.10
468.30	2535.39
468.50	2600.92
468.71	2635.74
468.91	2334.68
469.11	2596.82
469.31	2533.34
469.52	2375.64
469.72	2656.22
469.92	2682.84
470.13	2451.42
470.33	2465.75
470.53	2525.15
470.73	2959.31
470.94	3299.28
471.14	3381.20
471.34	3923.91
471.54	3710.92
471.75	3354.57
471.95	3129.30
472.15	3074.00
472.36	2967.51
472.56	2908.12
472.76	2961.36
472.96	2824.15
473.17	2789.33
473.37	2670.55
473.57	2549.72
473.77	2545.63
473.98	2465.75
474.18	2281.44
474.38	2873.30
474.58	2447.32
474.79	2367.45
474.99	2523.10
475.19	2635.74
475.39	2412.51
475.60	2465.75
475.80	2492.38
476.00	2529.24
476.20	2519.00
476.41	2461.66
476.61	2553.82
476.81	2699.22
477.01	2389.98
477.21	2631.64
477.42	2654.17
477.62	2455.51
477.82	2652.12
478.02	2521.05
478.23	2541.53
478.43	2439.13
478.63	2441.18
478.83	2525.15
479.03	2394.08
479.24	2629.59
479.44	2711.51
479.64	2340.83
479.84	2324.44
480.04	2473.95
480.25	2627.54
480.45	2389.98
480.65	2469.85
480.85	2654.17
481.06	2398.17
481.26	2535.39
481.46	2469.85
481.66	2572.25
481.86	2340.83
482.06	2586.58
482.27	2494.43
482.47	2516.95
482.67	2578.39
482.87	2428.89
483.07	2564.06
483.28	2408.41
483.48	2355.16
483.68	2389.98
483.88	2318.30
484.08	2267.10
484.29	2332.64
484.49	2498.52
484.69	2326.49
484.89	2635.74
485.09	2688.98
485.29	2502.62
485.50	2482.14
485.70	2449.37
485.90	2625.50
486.10	2498.52
486.30	2500.57
486.50	2621.40
486.71	2498.52
486.91	2488.28
487.11	2555.86
487.31	2332.64
487.51	2580.44
487.71	2394.08
487.91	2410.46
488.12	2389.98
488.32	2138.08
488.52	2455.51
488.72	2285.53
488.92	2506.71
489.12	2637.78
489.32	2576.34
489.53	2469.85
489.73	2361.31
489.93	2717.65
490.13	2359.26
490.33	2293.72
490.53	2576.34
490.73	2555.86
490.94	2279.39
491.14	2699.22
491.34	2592.73
491.54	2688.98
491.74	3307.47
491.94	3944.39
492.14	4347.84
492.34	4308.93
492.54	4134.85
492.75	3532.75
492.95	3469.26
493.15	3184.59
493.35	3225.55
493.55	3063.76
493.75	2947.03
493.95	2922.45
494.15	2781.14
494.35	2570.20
494.56	2553.82
494.76	2453.47
494.96	2551.77
495.16	2480.09
495.36	2473.95
495.56	2482.14
495.76	2500.57
495.96	2406.36
496.16	2422.75
496.36	2793.43
496.56	2334.68
496.77	2490.33
496.97	2535.39
497.17	2588.63
497.37	2400.22
497.57	2568.15
497.77	2510.81
497.97	2432.99
498.17	2494.43
498.37	2406.36
498.57	2602.97
498.77	2461.66
498.97	2523.10
499.17	2611.16
499.38	2465.75
499.58	2510.81
499.78	2539.48
499.98	2574.30
500.18	2424.80
500.38	2383.84
500.58	2662.36
500.78	3178.45
500.98	5463.98
501.18	7475.09
501.38	9076.60
501.58	10217.32
501.78	9793.39
501.98	7929.74
502.18	6733.72
502.38	5754.79
502.58	5400.49
502.78	4790.20
502.98	4790.20
503.18	4499.39
503.38	3985.35
503.59	3618.76
503.79	3317.71
503.99	3180.50
504.19	3078.10
504.39	3137.49
504.59	3076.05
504.79	3022.80
504.99	3055.57
505.19	2881.49
505.39	2658.26
505.59	2850.77
505.79	2768.85
505.99	2703.32
506.19	2531.29
506.39	2670.55
506.59	2568.15
506.79	2490.33
506.99	2654.17
507.19	2459.61
507.39	2496.47
507.59	2351.07
507.79	2342.88
507.99	2416.60
508.19	2514.91
508.39	2467.80
508.59	2494.43
508.79	2635.74
508.99	2779.09
509.19	2490.33
509.39	2578.39
509.59	2383.84
509.79	2480.09
509.99	2586.58
510.19	2688.98
510.39	2557.91
510.59	2523.10
510.79	2392.03
510.99	2299.87
511.19	2469.85
511.39	2631.64
511.59	2580.44
511.79	2592.73
511.99	2535.39
512.19	2686.94
512.38	2551.77
512.58	2467.80
512.78	2463.71
512.98	2674.65
513.18	2703.32
513.38	2400.22
513.58	2562.01
513.78	2420.70
513.98	2457.56
514.18	2480.09
514.38	2486.23
514.58	2506.71
514.78	2473.95
514.98	2349.02
515.18	2504.67
515.38	2428.89
515.58	2668.50
515.78	2416.60
515.98	2514.91
516.18	2543.58
516.38	2547.67
516.57	2432.99
516.77	2344.92
516.97	2590.68
517.17	2400.22
517.37	2289.63
517.57	2490.33
517.77	2467.80
517.97	2406.36
518.17	2547.67
518.37	2381.79
518.57	2457.56
518.77	2465.75
518.97	2459.61
519.16	2559.96
519.36	2539.48
519.56	2379.74
519.76	2465.75
519.96	2457.56
520.16	2719.70
520.36	2355.16
520.56	2607.06
520.76	2392.03
520.96	2480.09
521.16	2545.63
521.35	2551.77
521.55	2523.10
521.75	2488.28
521.95	2473.95
522.15	2490.33
522.35	2375.64
522.55	2392.03
522.75	2623.45
522.95	2416.60
523.14	2361.31
523.34	2611.16
523.54	2428.89
523.74	2619.35
523.94	2525.15
524.14	2334.68
524.34	2574.30
524.54	2613.21
524.73	2392.03
524.93	2588.63
525.13	2482.14
525.33	2367.45
525.53	2703.32
525.73	2543.58
525.93	2510.81
526.13	2355.16
526.32	2484.19
526.52	2596.82
526.72	2529.24
526.92	2537.43
527.12	2451.42
527.32	2340.83
527.52	2545.63
527.71	2488.28
527.91	2461.66
528.11	2465.75
528.31	2428.89
528.51	2324.44
528.71	2537.43
528.90	2602.97
529.10	2609.11
529.30	2559.96
529.50	2281.44
529.70	2549.72
529.90	2441.18
530.09	2539.48
530.29	2363.36
530.49	2314.20
530.69	2850.77
530.89	2496.47
531.09	2539.48
531.28	2422.75
531.48	2582.49
531.68	2508.76
531.88	2461.66
532.08	2574.30
532.28	2516.95
532.47	2541.53
532.67	2521.05
532.87	2514.91
533.07	2373.60
533.27	2488.28
533.46	2523.10
533.66	2553.82
533.86	2459.61
534.06	2502.62
534.26	2537.43
534.45	2418.65
534.65	2654.17
534.85	2504.67
535.05	2439.13
535.25	2631.64
535.44	2277.34
535.64	2512.86
535.84	2461.66
536.04	2447.32
536.24	2398.17
536.43	2336.73
536.63	2490.33
536.83	2519.00
537.03	2498.52
537.22	2308.06
537.42	2252.77
537.62	2564.06
537.82	2420.70
538.02	2584.54
538.21	2576.34
538.41	2908.12
538.61	2506.71
538.81	2453.47
539.00	2570.20
539.20	2367.45
539.40	2449.37
539.60	2488.28
539.79	2531.29
539.99	2527.19
540.19	2406.36
540.39	2379.74
540.58	2539.48
540.78	2660.31
540.98	2471.90
541.18	2637.78
541.37	2469.85
541.57	2512.86
541.77	2578.39
541.97	2400.22
542.16	2297.82
542.36	2469.85
542.56	2453.47
542.76	2742.23
542.95	2539.48
543.15	2502.62
543.35	2545.63
543.54	2381.79
543.74	2318.30
543.94	2627.54
544.14	2531.29
544.33	2486.23
544.53	2488.28
544.73	2398.17
544.93	2416.60
545.12	2432.99
545.32	2463.71
545.52	2523.10
545.71	2351.07
545.91	2402.27
546.11	2371.55
546.30	2332.64
546.50	2514.91
546.70	2519.00
546.90	2475.99
547.09	2265.05
547.29	2508.76
547.49	2586.58
547.68	2467.80
547.88	2408.41
548.08	2592.73
548.27	2895.83
548.47	2365.40
548.67	2473.95
548.87	2504.67
549.06	2406.36
549.26	2418.65
549.46	2490.33
549.65	2400.22
549.85	2463.71
550.05	2525.15
550.24	2424.80
550.44	2525.15
550.64	2441.18
550.83	2514.91
551.03	2607.06
551.23	2588.63
551.42	2529.24
551.62	2326.49
551.82	2543.58
552.01	2457.56
552.21	2637.78
552.41	2445.27
552.60	2658.26
552.80	2496.47
553.00	2424.80
553.19	2375.64
553.39	2654.17
553.59	2310.11
553.78	2535.39
553.98	2457.56
554.17	2379.74
554.37	2535.39
554.57	2535.39
554.76	2359.26
554.96	2504.67
555.16	2547.67
555.35	2478.04
555.55	2512.86
555.75	2549.72
555.94	2582.49
556.14	2318.30
556.33	2600.92
556.53	2514.91
556.73	2457.56
556.92	2529.24
557.12	2510.81
557.32	2752.47
557.51	2719.70
557.71	2537.43
557.90	2596.82
558.10	2633.69
558.30	2447.32
558.49	2455.51
558.69	2424.80
558.88	2625.50
559.08	2486.23
559.28	2451.42
559.47	2406.36
559.67	2598.87
559.86	2818.00
560.06	2490.33
560.26	2439.13
560.45	2564.06
560.65	2506.71
560.84	2627.54
561.04	2367.45
561.24	2506.71
561.43	2365.40
561.63	2643.93
561.82	2473.95
562.02	2527.19
562.22	2389.98
562.41	2365.40
562.61	2459.61
562.80	2377.69
563.00	2818.00
563.19	2473.95
563.39	2600.92
563.59	2621.40
563.78	2367.45
563.98	2244.57
564.17	2392.03
564.37	2310.11
564.56	2473.95
564.76	2365.40
564.96	2590.68
565.15	2471.90
565.35	2744.28
565.54	2357.21
565.74	2539.48
565.93	2545.63
566.13	2506.71
566.32	2559.96
566.52	2605.02
566.71	2535.39
566.91	2615.26
567.11	2553.82
567.30	2414.56
567.50	2637.78
567.69	2564.06
567.89	2387.93
568.08	2324.44
568.28	2535.39
568.47	2338.78
568.67	2512.86
568.86	2469.85
569.06	2602.97
569.25	2443.23
569.45	2295.77
569.64	2373.60
569.84	2379.74
570.04	2535.39
570.23	2430.94
570.43	2340.83
570.62	2519.00
570.82	2736.09
571.01	2250.72
571.21	2394.08
571.40	2418.65
571.60	2562.01
571.79	2506.71
571.99	2490.33
572.18	2445.27
572.38	2555.86
572.57	2416.60
572.77	2523.10
572.96	2838.48
573.16	2539.48
573.35	2441.18
573.55	2721.75
573.74	2508.76
573.94	2414.56
574.13	2400.22
574.33	2510.81
574.52	2674.65
574.71	2490.33
574.91	2516.95
575.10	2457.56
575.30	2459.61
575.49	2404.32
575.69	2396.12
575.88	2437.08
576.08	2482.14
576.27	2678.74
576.47	2441.18
576.66	2672.60
576.86	2645.98
577.05	2594.78
577.25	2580.44
577.44	2662.36
577.64	2449.37
577.83	2572.25
578.02	2480.09
578.22	2678.74
578.41	2678.74
578.61	2432.99
578.80	2334.68
579.00	2514.91
579.19	2545.63
579.39	2582.49
579.58	2545.63
579.77	2469.85
579.97	2629.59
580.16	2576.34
580.36	2578.39
580.55	2592.73
580.75	2600.92
580.94	2510.81
581.13	2645.98
581.33	2678.74
581.52	2488.28
581.72	2721.75
581.91	2643.93
582.11	2482.14
582.30	2652.12
582.49	2643.93
582.69	2725.85
582.88	2590.68
583.08	2543.58
583.27	2613.21
583.47	2519.00
583.66	2439.13
583.85	2383.84
584.05	2562.01
584.24	2547.67
584.44	2482.14
584.63	2664.41
584.82	2717.65
585.02	2648.02
585.21	2719.70
585.41	2719.70
585.60	2555.86
585.79	2734.04
585.99	2785.24
586.18	2645.98
586.37	3291.09
586.57	4980.66
586.76	14950.17
586.96	34186.74
587.15	48121.12
587.34	57187.48
587.54	61514.84
587.73	56175.78
587.93	39626.15
588.12	30320.18
588.31	24045.20
588.51	20840.13
588.70	19261.15
588.89	17149.69
589.09	15148.82
589.28	12754.75
589.47	10162.02
589.67	7970.69
589.86	6238.11
590.06	4620.22
590.25	3823.56
590.44	3293.13
590.64	2949.08
590.83	2830.29
591.02	2791.38
591.22	2598.87
591.41	2578.39
591.60	2547.67
591.80	2850.77
591.99	2416.60
592.18	2478.04
592.38	2588.63
592.57	2437.08
592.76	2465.75
592.96	2514.91
593.15	2453.47
593.34	2652.12
593.54	2480.09
593.73	2588.63
593.92	2662.36
594.12	2543.58
594.31	2613.21
594.50	2725.85
594.70	2607.06
594.89	2863.06
595.08	2334.68
595.28	2625.50
595.47	2916.31
595.66	2645.98
595.86	2383.84
596.05	2471.90
596.24	2449.37
596.43	2684.89
596.63	2688.98
596.82	2639.83
597.01	2605.02
597.21	2750.42
597.40	2598.87
597.59	2482.14
597.79	2473.95
597.98	2670.55
598.17	2555.86
598.36	2611.16
598.56	2684.89
598.75	2484.19
598.94	2512.86
599.14	2447.32
599.33	2463.71
599.52	2586.58
599.71	2586.58
599.91	2562.01
600.10	2557.91
600.29	2441.18
600.48	2541.53
600.68	2523.10
600.87	2465.75
601.06	2402.27
601.26	2502.62
601.45	2570.20
601.64	2428.89
601.83	2707.41
602.03	2367.45
602.22	2355.16
602.41	2682.84
602.60	2838.48
602.80	2506.71
602.99	2539.48
603.18	2451.42
603.37	2435.03
603.57	2471.90
603.76	2576.34
603.95	2676.70
604.14	2422.75
604.34	2392.03
604.53	2502.62
604.72	2521.05
604.91	2543.58
605.10	2482.14
605.30	2320.35
605.49	2822.10
605.68	2535.39
605.87	2516.95
606.07	2449.37
606.26	2482.14
606.45	2553.82
606.64	2543.58
606.84	2373.60
607.03	2592.73
607.22	2654.17
607.41	2432.99
607.60	2531.29
607.80	2662.36
607.99	2512.86
608.18	2516.95
608.37	2502.62
608.56	2432.99
608.76	2703.32
608.95	2785.24
609.14	2504.67
609.33	2723.80
609.52	2772.95
609.72	2602.97
609.91	2627.54
610.10	2545.63
610.29	2709.46
610.48	2672.60
610.68	2545.63
610.87	2531.29
611.06	2602.97
611.25	2463.71
611.44	2572.25
611.63	2494.43
611.83	2627.54
612.02	2359.26
612.21	2584.54
612.40	2238.43
612.59	2359.26
612.79	2371.55
612.98	2553.82
613.17	2613.21
613.36	2547.67
613.55	2635.74
613.74	2559.96
613.93	2605.02
614.13	2744.28
614.32	2729.94
614.51	2707.41
614.70	2494.43
614.89	2494.43
615.08	2576.34
615.28	3028.95
615.47	2453.47
615.66	2553.82
615.85	2506.71
616.04	2674.65
616.23	2478.04
616.42	2576.34
616.62	2545.63
616.81	2562.01
617.00	2568.15
617.19	2580.44
617.38	2435.03
617.57	2473.95
617.76	2611.16
617.95	2535.39
618.15	2529.24
618.34	2654.17
618.53	2424.80
618.72	2631.64
618.91	2635.74
619.10	2588.63
619.29	2494.43
619.48	2521.05
619.68	2322.40
619.87	2473.95
620.06	2373.60
620.25	2609.11
620.44	2330.59
620.63	2478.04
620.82	2535.39
621.01	2455.51
621.20	2469.85
621.39	2541.53
621.59	2543.58
621.78	2510.81
621.97	2469.85
622.16	2555.86
622.35	2521.05
622.54	2625.50
622.73	2613.21
622.92	2342.88
623.11	2596.82
623.30	2459.61
623.49	2564.06
623.68	2392.03
623.88	2613.21
624.07	2475.99
624.26	2394.08
624.45	2562.01
624.64	2418.65
624.83	2480.09
625.02	2498.52
625.21	2504.67
625.40	2490.33
625.59	2654.17
625.78	2506.71
625.97	2584.54
626.16	2719.70
626.35	2695.13
626.54	2539.48
626.74	2703.32
626.93	2506.71
627.12	2453.47
627.31	2660.31
627.50	2512.86
627.69	2619.35
627.88	2385.88
628.07	2457.56
628.26	2232.29
628.45	2316.25
628.64	2482.14
628.83	2496.47
629.02	2357.21
629.21	2551.77
629.40	2531.29
629.59	2375.64
629.78	2430.94
629.97	2457.56
630.16	2504.67
630.35	2471.90
630.54	2555.86
630.73	2439.13
630.92	2488.28
631.11	2467.80
631.30	2471.90
631.49	2519.00
631.68	2447.32
631.87	2488.28
632.06	2359.26
632.25	2752.47
632.44	2547.67
632.63	2547.67
632.82	2547.67
633.01	2572.25
633.20	2570.20
633.39	2547.67
633.58	2357.21
633.77	2641.88
633.96	2574.30
634.15	2514.91
634.34	2617.30
634.53	2521.05
634.72	2449.37
634.91	2351.07
635.10	2482.14
635.29	2629.59
635.48	2490.33
635.67	2359.26
635.86	2285.53
636.05	2676.70
636.24	2455.51
636.43	2449.37
636.62	2453.47
636.81	2217.95
637.00	2506.71
637.19	2449.37
637.38	2463.71
637.57	2490.33
637.76	2547.67
637.95	2584.54
638.14	2531.29
638.33	2627.54
638.52	2559.96
638.71	2371.55
638.89	2400.22
639.08	2844.63
639.27	2645.98
639.46	2752.47
639.65	3207.12
639.84	3231.69
640.03	3307.47
640.22	3190.74
640.41	3149.78
640.60	2820.05
640.79	2766.81
640.98	2725.85
641.17	2770.90
641.36	2748.37
641.55	2660.31
641.74	2516.95
641.92	2500.57
642.11	2500.57
642.30	2570.20
642.49	2449.37
642.68	2430.94
642.87	2555.86
643.06	2529.24
643.25	2371.55
643.44	2408.41
643.63	2572.25
643.82	2582.49
644.00	2316.25
644.19	2498.52
644.38	2363.36
644.57	2592.73
644.76	2482.14
644.95	2467.80
645.14	2531.29
645.33	2506.71
645.52	2490.33
645.71	2308.06
645.89	2412.51
646.08	2529.24
646.27	2445.27
646.46	2660.31
646.65	2342.88
646.84	2490.33
647.03	2392.03
647.22	2600.92
647.40	2562.01
647.59	2506.71
647.78	2318.30
647.97	2486.23
648.16	2310.11
648.35	2695.13
648.54	2713.56
648.73	2455.51
648.91	2574.30
649.10	2580.44
649.29	2455.51
649.48	2457.56
649.67	2521.05
649.86	2539.48
650.05	2492.38
650.23	2695.13
650.42	2584.54
650.61	2789.33
650.80	2674.65
650.99	2736.09
651.18	2652.12
651.36	2643.93
651.55	2502.62
651.74	2576.34
651.93	2594.78
652.12	2506.71
652.31	2545.63
652.49	2496.47
652.68	2490.33
652.87	2613.21
653.06	2506.71
653.25	2660.31
653.44	2482.14
653.62	2670.55
653.81	2492.38
654.00	2469.85
654.19	2613.21
654.38	2760.66
654.56	2506.71
654.75	2408.41
654.94	2537.43
655.13	2531.29
655.32	2482.14
655.51	2537.43
655.69	2455.51
655.88	2580.44
656.07	2318.30
656.26	2449.37
656.45	2332.64
656.63	2541.53
656.82	2408.41
657.01	2660.31
657.20	2381.79
657.38	2688.98
657.57	2359.26
657.76	2306.01
657.95	2516.95
658.14	2504.67
658.32	2488.28
658.51	2373.60
658.70	2527.19
658.89	2568.15
659.08	2500.57
659.26	2643.93
659.45	2371.55
659.64	2615.26
659.83	2432.99
660.01	2875.35
660.20	2523.10
660.39	2731.99
660.58	2244.57
660.76	2553.82
660.95	2342.88
661.14	2488.28
661.33	2363.36
661.51	2320.35
661.70	2394.08
661.89	2570.20
662.08	2447.32
662.26	2316.25
662.45	2326.49
662.64	2656.22
662.83	2469.85
663.01	2349.02
663.20	2408.41
663.39	2682.84
663.58	2404.32
663.76	2392.03
663.95	2594.78
664.14	2250.72
664.32	2328.54
664.51	2355.16
664.70	2340.83
664.89	2588.63
665.07	2385.88
665.26	2570.20
665.45	2394.08
665.64	2619.35
665.82	2408.41
666.01	2576.34
666.20	2324.44
666.38	2668.50
666.57	2787.29
666.76	3977.16
666.95	9430.90
667.13	17620.72
667.32	22980.26
667.51	26142.32
667.69	27623.00
667.88	24530.57
668.07	17377.01
668.25	14360.36
668.44	11933.51
668.63	10227.56
668.81	9049.97
669.00	7804.81
669.19	7036.82
669.38	6104.99
669.56	5253.04
669.75	4302.78
669.94	3893.19
670.12	3117.01
670.31	2863.06
670.50	2822.10
670.68	2666.46
670.87	2654.17
671.06	2451.42
671.24	2553.82
671.43	2727.89
671.62	2598.87
671.80	2494.43
671.99	2574.30
672.18	2537.43
672.36	2535.39
672.55	2553.82
672.74	2564.06
672.92	2484.19
673.11	2570.20
673.29	2342.88
673.48	2629.59
673.67	2435.03
673.85	2625.50
674.04	2346.97
674.23	2398.17
674.41	2805.72
674.60	2383.84
674.79	2242.53
674.97	2301.92
675.16	2617.30
675.34	2586.58
675.53	2383.84
675.72	2551.77
675.90	2662.36
676.09	2453.47
676.28	2408.41
676.46	2291.68
676.65	2555.86
676.83	2381.79
677.02	2490.33
677.21	2473.95
677.39	2621.40
677.58	2387.93
677.77	2506.71
677.95	2287.58
678.14	2490.33
678.32	2482.14
678.51	2359.26
678.70	2615.26
678.88	2416.60
679.07	2600.92
679.25	2486.23
679.44	2430.94
679.63	2422.75
679.81	2488.28
680.00	2676.70
680.18	2549.72
680.37	2645.98
680.55	2504.67
680.74	2363.36
680.93	2193.37
681.11	2469.85
681.30	2537.43
681.48	2494.43
681.67	2412.51
681.85	2502.62
682.04	2451.42
682.23	2494.43
682.41	2490.33
682.60	2521.05
682.78	2394.08
682.97	2283.49
683.15	2428.89
683.34	2504.67
683.53	2678.74
683.71	2330.59
683.90	2523.10
684.08	2654.17
684.27	2459.61
684.45	2498.52
684.64	2559.96
684.82	2512.86
685.01	2625.50
685.19	2496.47
685.38	2686.94
685.57	2508.76
685.75	2394.08
685.94	2416.60
686.12	2404.32
686.31	2402.27
686.49	2645.98
686.68	2252.77
686.86	2541.53
687.05	2506.71
687.23	2674.65
687.42	2392.03
687.60	2414.56
687.79	2508.76
687.97	2705.37
688.16	2512.86
688.34	2547.67
688.53	2260.96
688.71	2533.34
688.90	2695.13
689.08	2408.41
689.27	2291.68
689.45	2514.91
689.64	2533.34
689.82	2529.24
690.01	2457.56
690.19	2453.47
690.38	2459.61
690.56	2572.25
690.75	2301.92
690.93	2510.81
691.12	2414.56
691.30	2490.33
691.49	2447.32
691.67	2455.51
691.86	2693.08
692.04	2441.18
692.23	2437.08
692.41	2545.63
692.60	2777.05
692.78	2539.48
692.97	2555.86
693.15	2598.87
693.34	2697.17
693.52	2570.20
693.71	2488.28
693.89	2453.47
694.08	2285.53
694.26	2498.52
694.44	2615.26
694.63	2621.40
694.81	2351.07
695.00	2404.32
695.18	2605.02
695.37	2768.85
695.55	2496.47
695.74	2490.33
695.92	2408.41
696.10	2609.11
696.29	2363.36
696.47	2432.99
696.66	2398.17
696.84	2392.03
697.03	2461.66
697.21	2668.50
697.40	3710.92
697.58	2570.20
697.76	2439.13
697.95	2441.18
698.13	2353.12
698.32	2475.99
698.50	2539.48
698.68	2490.33
698.87	2521.05
699.05	2760.66
699.24	2490.33
699.42	2371.55
699.61	2500.57
699.79	2506.71
699.97	2488.28
700.16	2324.44
700.34	2363.36
700.53	2584.54
700.71	2621.40
700.89	2547.67
701.08	2430.94
701.26	2500.57
701.45	2965.46
701.63	2353.12
701.81	2457.56
702.00	2385.88
702.18	2492.38
702.37	2523.10
702.55	2727.89
702.73	2736.09
702.92	2521.05
703.10	2928.60
703.28	2734.04
703.47	2459.61
703.65	2725.85
703.84	2643.93
704.02	2482.14
704.20	2750.42
704.39	2455.51
704.57	2514.91
704.75	2684.89
704.94	2619.35
705.12	2529.24
705.30	2914.26
705.49	5582.76
705.67	12685.12
705.86	20995.78
706.04	24065.68
706.22	27203.17
706.41	28186.19
706.59	22658.73
706.77	16512.77
706.96	13848.36
707.14	12224.33
707.32	10516.32
707.51	9346.93
707.69	7786.38
707.87	6152.10
708.06	4894.65
708.24	4095.94
708.42	3407.82
708.61	3231.69
708.79	2684.89
708.97	2650.07
709.16	2676.70
709.34	2551.77
709.52	2510.81
709.71	2467.80
709.89	2545.63
710.07	2439.13
710.26	2320.35
710.44	2531.29
710.62	2609.11
710.80	2439.13
710.99	2508.76
711.17	2598.87
711.35	2449.37
711.54	2402.27
711.72	2566.10
711.90	2521.05
712.09	2545.63
712.27	2379.74
712.45	2611.16
712.63	2453.47
712.82	2457.56
713.00	2490.33
713.18	2588.63
713.37	2596.82
713.55	2596.82
713.73	2525.15
713.91	2449.37
714.10	2469.85
714.28	2486.23
714.46	2539.48
714.65	2564.06
714.83	2465.75
715.01	2408.41
715.19	2576.34
715.38	2375.64
715.56	2488.28
715.74	2463.71
715.92	2314.20
716.11	2600.92
716.29	2271.20
716.47	2502.62
716.65	2494.43
716.84	2349.02
717.02	2574.30
717.20	2260.96
717.38	2451.42
717.57	2451.42
717.75	2418.65
717.93	2351.07
718.11	2531.29
718.30	2326.49
718.48	2457.56
718.66	2527.19
718.84	2559.96
719.03	2504.67
719.21	2318.30
719.39	2701.27
719.57	2502.62
719.75	2592.73
719.94	2392.03
720.12	2490.33
720.30	2529.24
720.48	2570.20
720.67	2381.79
720.85	2359.26
721.03	2455.51
721.21	2375.64
721.39	2627.54
721.58	2531.29
721.76	2478.04
721.94	2523.10
722.12	2478.04
722.30	2731.99
722.49	2439.13
722.67	2445.27
722.85	2500.57
723.03	2273.25
723.21	2385.88
723.40	2414.56
723.58	2590.68
723.76	2559.96
723.94	2631.64
724.12	2590.68
724.30	2658.26
724.49	2645.98
724.67	2465.75
724.85	2600.92
725.03	2320.35
725.21	2621.40
725.40	2711.51
725.58	2394.08
725.76	2629.59
725.94	2613.21
726.12	2396.12
726.30	2404.32
726.49	2422.75
726.67	2463.71
726.85	2496.47
727.03	2949.08
727.21	4267.97
727.39	5877.67
727.57	6877.08
727.76	7452.56
727.94	7694.22
728.12	6866.84
728.30	5492.65
728.48	4968.37
728.66	4470.72
728.84	4104.13
729.03	3559.37
729.21	3342.28
729.39	2951.12
729.57	2725.85
729.75	2662.36
729.93	2539.48
730.11	2478.04
730.30	2465.75
730.48	2383.84
730.66	2598.87
730.84	2621.40
731.02	2559.96
731.20	2398.17
731.38	2463.71
731.56	2314.20
731.74	2306.01
731.93	2461.66
732.11	2471.90
732.29	2455.51
732.47	2551.77
732.65	2473.95
732.83	2629.59
733.01	2482.14
733.19	2392.03
733.37	2555.86
733.56	2500.57
733.74	2400.22
733.92	2682.84
734.10	2435.03
734.28	2480.09
734.46	2289.63
734.64	2441.18
734.82	2437.08
735.00	2406.36
735.18	2424.80
735.36	2531.29
735.54	2457.56
735.73	2484.19
735.91	2584.54
736.09	2613.21
736.27	2461.66
736.45	2568.15
736.63	2195.42
736.81	2392.03
736.99	2580.44
737.17	2742.23
737.35	2412.51
737.53	2551.77
737.71	2437.08
737.89	2662.36
738.07	2349.02
738.25	2334.68
738.43	2332.64
738.61	2498.52
738.80	2314.20
738.98	2334.68
739.16	2383.84
739.34	2367.45
739.52	2631.64
739.70	2572.25
739.88	2609.11
740.06	2555.86
740.24	2275.29
740.42	2613.21
740.60	2263.01
740.78	2437.08
740.96	2281.44
741.14	2455.51
741.32	2424.80
741.50	2312.16
741.68	2752.47
741.86	2701.27
742.04	2402.27
742.22	2359.26
742.40	2432.99
742.58	2500.57
742.76	2351.07
742.94	2586.58
743.12	2381.79
743.30	2447.32
743.48	2572.25
743.66	2414.56
743.84	2428.89
744.02	2482.14
744.20	2527.19
744.38	2299.87
744.56	2387.93
744.74	2725.85
744.92	2527.19
745.10	2639.83
745.28	2521.05
745.46	2652.12
745.64	2408.41
745.82	2478.04
746.00	2389.98
746.18	2488.28
746.36	2377.69
746.54	2498.52
746.72	2361.31
746.90	2359.26
747.08	2658.26
747.26	2379.74
747.44	2598.87
747.62	2576.34
747.80	2516.95
747.98	2551.77
748.15	2416.60
748.33	2703.32
748.51	2482.14
748.69	2559.96
748.87	2400.22
749.05	2551.77
749.23	2506.71
749.41	2457.56
749.59	2418.65
749.77	2531.29
749.95	2467.80
750.13	2326.49
750.31	2521.05
750.49	2473.95
750.67	2547.67
750.85	2531.29
751.03	2492.38
751.20	2715.61
751.38	2445.27
751.56	2459.61
751.74	2486.23
751.92	2449.37
752.10	2351.07
752.28	2635.74
752.46	2381.79
752.64	2480.09
752.82	2543.58
753.00	2545.63
753.18	2457.56
753.35	2389.98
753.53	2475.99
753.71	2414.56
753.89	2555.86
754.07	2498.52
754.25	2635.74
754.43	2539.48
754.61	2291.68
754.79	2543.58
754.97	2490.33
755.14	2643.93
755.32	2355.16
755.50	2545.63
755.68	2502.62
755.86	2328.54
756.04	2408.41
756.22	2324.44
756.40	2607.06
756.57	2645.98
756.75	2383.84
756.93	2652.12
757.11	2637.78
757.29	2326.49
757.47	2344.92
757.65	2308.06
757.82	2185.18
758.00	2392.03
758.18	2385.88
758.36	2402.27
758.54	2736.09
758.72	2334.68
758.90	2621.40
759.07	2521.05
759.25	2265.05
759.43	2549.72
759.61	2322.40
759.79	3450.83
759.97	2600.92
760.15	2422.75
760.32	2338.78
760.50	2502.62
760.68	2662.36
760.86	2322.40
761.04	2576.34
761.22	2631.64
761.39	2586.58
761.57	2465.75
761.75	2480.09
761.93	2535.39
762.11	2549.72
762.28	2451.42
762.46	2359.26
762.64	2570.20
762.82	2316.25
763.00	2398.17
763.18	2641.88
763.35	2383.84
763.53	2531.29
763.71	2469.85
763.89	2439.13
764.07	2486.23
764.24	2496.47
764.42	2510.81
764.60	2445.27
764.78	2576.34
764.96	2531.29
765.13	2600.92
765.31	2342.88
765.49	2506.71
765.67	2400.22
765.84	2357.21
766.02	2353.12
766.20	2281.44
766.38	2564.06
766.56	2473.95
766.73	2529.24
766.91	2529.24
767.09	2465.75
767.27	2506.71
767.44	2351.07
767.62	2553.82
767.80	2441.18
767.98	2404.32
768.15	2469.85
768.33	2650.07
768.51	2596.82
768.69	2555.86
768.87	2416.60
769.04	2465.75
769.22	2727.89
769.40	2570.20
769.58	2705.37
769.75	2572.25
769.93	2572.25
770.11	2428.89
770.28	2361.31
770.46	2576.34
770.64	2527.19
770.82	2445.27
770.99	2310.11
771.17	2467.80
771.35	2478.04
771.53	2416.60
771.70	2340.83
771.88	2529.24
772.06	2492.38
772.23	2445.27
772.41	2506.71
772.59	2447.32
772.77	2344.92
772.94	2508.76
773.12	2514.91
773.30	2359.26
773.47	2455.51
773.65	2420.70
773.83	2650.07
774.01	2510.81
774.18	2236.38
774.36	2449.37
774.54	2330.59
774.71	2512.86
774.89	2285.53
775.07	2340.83
775.24	2375.64
775.42	2357.21
775.60	2748.37
775.78	2349.02
775.95	2359.26
776.13	2318.30
776.31	2258.91
776.48	2633.69
776.66	2580.44
776.84	2441.18
777.01	2349.02
777.19	2361.31
777.37	2404.32
777.54	2629.59
777.72	2703.32
777.90	2555.86
778.07	2387.93
778.25	2877.40
778.43	2617.30
778.60	2398.17
778.78	2519.00
778.96	2695.13
779.13	2353.12
779.31	2523.10
779.49	2430.94
779.66	2533.34
779.84	2484.19
780.01	2430.94
780.19	2326.49
780.37	2586.58
780.54	2609.11
780.72	2392.03
780.90	2422.75
781.07	2480.09
781.25	2465.75
781.43	2539.48
781.60	2463.71
781.78	2674.65
781.95	2463.71
782.13	2416.60
782.31	2426.84
782.48	2301.92
782.66	2402.27
782.83	2605.02
783.01	2490.33
783.19	2547.67
783.36	2435.03
783.54	2273.25
783.72	2492.38
783.89	2418.65
784.07	2547.67
784.24	2545.63
784.42	2598.87
784.60	2564.06
784.77	2584.54
784.95	2236.38
785.12	2336.73
785.30	2539.48
785.47	2402.27
785.65	2338.78
785.83	2428.89
786.00	2496.47
786.18	2514.91
786.35	2400.22
786.53	2449.37
786.71	2617.30
786.88	2566.10
787.06	2553.82
787.23	2490.33
787.41	2322.40
787.58	2471.90
787.76	2351.07
787.94	2557.91
788.11	2564.06
788.29	2248.67
788.46	2418.65
788.64	2324.44
788.81	2447.32
788.99	2324.44
789.16	2326.49
789.34	2473.95
789.52	2408.41
789.69	2394.08
789.87	2199.52
790.04	2402.27
790.22	2471.90
790.39	2740.18
790.57	2293.72
790.74	2330.59
790.92	2541.53
791.09	2299.87
791.27	2478.04
791.44	2492.38
791.62	2367.45
791.79	2502.62
791.97	2445.27
792.15	2734.04
792.32	2529.24
792.50	2566.10
792.67	2588.63
792.85	2623.45
793.02	2547.67
793.20	2443.23
793.37	2277.34
793.55	2430.94
793.72	2367.45
793.90	2527.19
794.07	2398.17
794.25	2326.49
794.42	2523.10
794.60	2392.03
794.77	2529.24
794.95	2506.71
795.12	2645.98
795.30	2531.29
795.47	2367.45
795.65	2766.81
795.82	2506.71
796.00	2371.55
796.17	2430.94
796.34	2351.07
796.52	2555.86
796.69	2582.49
796.87	2527.19
797.04	2537.43
797.22	2619.35
797.39	2490.33
797.57	2545.63
797.74	2482.14
797.92	2555.86
798.09	2406.36
798.27	2564.06
798.44	2473.95
798.62	2359.26
798.79	2449.37
798.96	2478.04
799.14	2478.04
799.31	2678.74
799.49	2502.62
799.66	2357.21
799.84	2521.05
800.01	2316.25
800.19	2432.99
800.36	2271.20
800.53	2570.20
800.71	2523.10
800.88	2695.13
801.06	2373.60
801.23	2334.68
801.41	2443.23
801.58	2430.94
801.75	2381.79
801.93	2445.27
802.10	2619.35
802.28	2484.19
802.45	2478.04
802.63	2596.82
802.80	2729.94
802.97	2441.18
803.15	2453.47
803.32	2412.51
803.50	2357.21
803.67	2396.12
803.84	2351.07
804.02	2486.23
804.19	2396.12
804.37	2242.53
804.54	2338.78
804.71	2441.18
804.89	2508.76
805.06	2424.80
805.24	2342.88
805.41	2344.92
805.58	2398.17
805.76	2758.61
805.93	2488.28
806.10	2572.25
806.28	2475.99
806.45	2580.44
806.63	2559.96
806.80	2457.56
806.97	2498.52
807.15	2553.82
807.32	2498.52
807.49	2484.19
807.67	2310.11
807.84	2537.43
808.01	2293.72
808.19	2660.31
808.36	2801.62
808.54	2414.56
808.71	2365.40
808.88	2453.47
809.06	2613.21
809.23	2650.07
809.40	2396.12
809.58	2482.14
809.75	2551.77
809.92	2301.92
810.10	2748.37
810.27	2463.71
810.44	2555.86
810.62	2582.49
810.79	2553.82
810.96	2432.99
811.14	2437.08
811.31	2574.30
811.48	2539.48
811.66	2465.75
811.83	2621.40
812.00	2564.06
812.18	2502.62
812.35	2602.97
812.52	2416.60
812.69	2420.70
812.87	2424.80
813.04	2375.64
813.21	2432.99
813.39	2439.13
813.56	2367.45
813.73	2617.30
813.91	2334.68
814.08	2428.89
814.25	2445.27
814.42	2289.63
814.60	2486.23
814.77	2498.52
814.94	2439.13
815.12	2412.51
815.29	2625.50
815.46	2363.36
815.63	2512.86
815.81	2475.99
815.98	2402.27
816.15	2449.37
816.33	2439.13
816.50	2449.37
816.67	2441.18
816.84	2521.05
817.02	2367.45
817.19	2432.99
817.36	2586.58
817.53	2588.63
817.71	2359.26
817.88	2396.12
818.05	2449.37
818.22	2353.12
818.40	2666.46
818.57	2389.98
818.74	2471.90
818.91	2430.94
819.09	2521.05
819.26	2496.47
819.43	2385.88
819.60	2441.18
819.78	2457.56
819.95	2613.21
820.12	2322.40
820.29	2691.03
820.47	2531.29
820.64	2387.93
820.81	2379.74
820.98	2445.27
821.15	2445.27
821.33	2572.25
821.50	2324.44
821.67	2510.81
821.84	2418.65
822.02	2459.61
822.19	2596.82
822.36	2414.56
822.53	2367.45
822.70	2408.41
822.88	2432.99
823.05	2621.40
823.22	2455.51
823.39	2449.37
823.56	2385.88
823.74	2637.78
823.91	2316.25
824.08	2357.21
824.25	2385.88
824.42	2727.89
824.60	2283.49
824.77	2457.56
824.94	2357.21
825.11	2557.91
825.28	2260.96
825.45	2463.71
825.63	2441.18
825.80	2484.19
825.97	2525.15
826.14	2482.14
826.31	2283.49
826.48	2453.47
826.66	2318.30
826.83	2349.02
827.00	2445.27
827.17	2371.55
827.34	2404.32
827.51	2400.22
827.69	2482.14
827.86	2289.63
828.03	2463.71
828.20	2428.89
828.37	2301.92
828.54	2594.78
828.71	2328.54
828.89	2555.86
829.06	2496.47
829.23	2670.55
829.40	2324.44
829.57	2379.74
829.74	2547.67
829.91	2439.13
830.09	2365.40
830.26	2549.72
830.43	2607.06
830.60	2533.34
830.77	2514.91
830.94	2631.64
831.11	2568.15
831.28	2416.60
831.46	2506.71
831.63	2361.31
831.80	2654.17
831.97	2490.33
832.14	2394.08
832.31	2465.75
832.48	2473.95
832.65	2658.26
832.82	2484.19
832.99	2502.62
833.17	2326.49
833.34	2703.32
833.51	2498.52
833.68	2234.33
833.85	2598.87
834.02	2349.02
834.19	2422.75
834.36	2359.26
834.53	2521.05
834.70	2523.10
834.87	2516.95
835.04	2392.03
835.22	2404.32
835.39	2340.83
835.56	2314.20
835.73	2406.36
835.90	2609.11
836.07	2342.88
836.24	2531.29
836.41	2269.15
836.58	2416.60
836.75	2574.30
836.92	2412.51
837.09	2318.30
837.26	2527.19
837.43	2490.33
837.60	2412.51
837.77	2367.45
837.94	2543.58
838.12	2600.92
838.29	2408.41
838.46	2318.30
838.63	2359.26
838.80	2643.93
838.97	2447.32
839.14	2351.07
839.31	2531.29
839.48	2535.39
839.65	2392.03
839.82	2420.70
839.99	2514.91
840.16	2471.90
840.33	2314.20
840.50	2408.41
840.67	2310.11
840.84	2195.42
841.01	2363.36
841.18	2271.20
841.35	2498.52
841.52	2627.54
841.69	2545.63
841.86	2398.17
842.03	2555.86
842.20	2660.31
842.37	2416.60
842.54	2428.89
842.71	2465.75
842.88	2297.82
843.05	2412.51
843.22	2396.12
843.39	2576.34
843.56	2359.26
843.73	2361.31
843.90	2402.27
844.07	2488.28
844.24	2555.86
844.41	2416.60
844.58	2480.09
844.75	2449.37
844.92	2504.67
845.09	2445.27
845.26	2332.64
845.43	2588.63
845.60	2420.70
845.77	2437.08
845.94	2371.55
846.10	2592.73
846.27	2287.58
846.44	2283.49
846.61	2275.29
846.78	2564.06
846.95	2660.31
847.12	2351.07
847.29	2396.12
847.46	2338.78
847.63	2527.19
847.80	2295.77
847.97	2351.07
848.14	2789.33
848.31	2439.13
848.48	2250.72
848.65	2389.98
848.82	2404.32
848.98	2842.58
849.15	2398.17
849.32	2494.43
849.49	2570.20
849.66	2498.52
849.83	2367.45
850.00	2328.54
850.17	2572.25
850.34	2478.04
850.51	2314.20
850.68	2355.16
850.85	2775.00
851.01	2455.51
851.18	2416.60
851.35	2432.99
851.52	2494.43
851.69	2650.07
851.86	2285.53
852.03	2375.64
852.20	2549.72
852.37	2410.46
852.53	2232.29
852.70	2340.83
852.87	2467.80
853.04	2600.92
853.21	2355.16
853.38	2555.86
853.55	2576.34
853.72	2633.69
853.89	2371.55
854.05	2299.87
854.22	2480.09
854.39	2398.17
854.56	2420.70
854.73	2473.95
854.90	2394.08
855.07	2465.75
855.23	2326.49
855.40	2334.68
855.57	2314.20
855.74	2248.67
855.91	2588.63
856.08	2273.25
856.25	2318.30
856.41	2420.70
856.58	2367.45
856.75	2373.60
856.92	2400.22
857.09	2576.34
857.26	2279.39
857.42	2383.84
857.59	2553.82
857.76	2416.60
857.93	2398.17
858.10	2430.94
858.27	2299.87
858.43	2510.81
858.60	2361.31
858.77	2301.92
858.94	2355.16
859.11	2611.16
859.27	2375.64
859.44	2375.64
859.61	2652.12
859.78	2535.39
859.95	2355.16
860.12	2359.26
860.28	2752.47
860.45	2691.03
860.62	2359.26
860.79	2437.08
860.95	2365.40
861.12	2336.73
861.29	2312.16
861.46	2355.16
861.63	2498.52
861.79	2490.33
861.96	2260.96
862.13	2365.40
862.30	2662.36
862.47	2439.13
862.63	2326.49
862.80	2373.60
862.97	2602.97
863.14	2514.91
863.30	2422.75
863.47	2355.16
863.64	2672.60
863.81	2494.43
863.97	2330.59
864.14	2373.60
864.31	2336.73
864.48	2461.66
864.65	2383.84
864.81	2502.62
864.98	2609.11
865.15	2613.21
865.32	2465.75
865.48	2514.91
865.65	2676.70
865.82	2387.93
865.98	2381.79
866.15	2473.95
866.32	2512.86
866.49	2363.36
866.65	2523.10
866.82	2322.40
866.99	2525.15
867.16	2457.56
867.32	2377.69
867.49	2320.35
867.66	2480.09
867.83	2342.88
867.99	2312.16
868.16	2381.79
868.33	2383.84
868.49	2531.29
868.66	2389.98
868.83	2527.19
868.99	2432.99
869.16	2510.81
869.33	2506.71
869.50	2459.61
869.66	2478.04
869.83	2465.75
870.00	2234.33
870.16	2418.65
870.33	2432.99
870.50	2588.63
870.66	2416.60
870.83	2539.48
871.00	2402.27
871.17	2525.15
871.33	2441.18
871.50	2443.23
871.67	2500.57
871.83	2303.96
872.00	2611.16
872.17	2441.18
872.33	2711.51
872.50	2594.78
872.67	2342.88
872.83	2326.49
873.00	2471.90
873.17	2453.47
873.33	2457.56
873.50	2428.89
873.67	2383.84
873.83	2383.84
874.00	2326.49
874.16	2549.72
874.33	2547.67
874.50	2316.25
874.66	2416.60
874.83	2367.45
875.00	2592.73
875.16	2605.02
875.33	2465.75
875.50	2285.53
875.66	2398.17
875.83	2506.71
875.99	2455.51
876.16	2381.79
876.33	2351.07
876.49	2519.00
876.66	2408.41
876.83	2445.27
876.99	2308.06
877.16	2430.94
877.32	2365.40
877.49	2408.41
877.66	2533.34
877.82	2695.13
877.99	2424.80
878.15	2482.14
878.32	2457.56
878.49	2494.43
878.65	2381.79
878.82	2529.24
878.98	2353.12
879.15	2635.74
879.32	2449.37
879.48	2508.76
879.65	2494.43
879.81	2410.46
879.98	2381.79
880.15	2301.92
880.31	2629.59
880.48	2389.98
880.64	2506.71
880.81	2537.43
880.97	2672.60
881.14	2609.11
881.31	2332.64
881.47	2545.63
881.64	2475.99
881.80	2353.12
881.97	2449.37
882.13	2338.78
882.30	2359.26
882.47	2447.32
882.63	2367.45
882.80	2308.06
882.96	2402.27
883.13	2703.32
883.29	2365.40
883.46	2373.60
883.62	2764.76
883.79	2502.62
883.95	2523.10
884.12	2359.26
884.29	2633.69
884.45	2480.09
884.62	2475.99
884.78	2293.72
884.95	2641.88
885.11	2301.92
885.28	2506.71
885.44	2367.45
885.61	2572.25
885.77	2678.74
885.94	2428.89
886.10	2455.51
886.27	2457.56
886.43	2627.54
886.60	2578.39
886.76	2357.21
886.93	2398.17
887.09	2535.39
887.26	2232.29
887.42	2383.84
887.59	2650.07
887.75	2775.00
887.92	2592.73
888.08	2437.08
888.25	2668.50
888.41	2506.71
888.58	2512.86
888.74	2363.36
888.91	2359.26
>>>>>End Processed Spectral Data<<<<<
