SpectraSuite Data File
++++++++++++++++++++++++++++++++++++
Date: Thu May 05 14:42:19 CEST 2016
User: root
Dark Spectrum Present: No
Reference Spectrum Present: No
Number of Sampled Component Spectra: 1
Spectrometers: USB4C02835
Integration Time (usec): 100000 (USB4C02835)
Spectra Averaged: 1 (USB4C02835)
Boxcar Smoothing: 0 (USB4C02835)
Correct for Electrical Dark: No (USB4C02835)
Strobe/Lamp Enabled: No (USB4C02835)
Correct for Detector Non-linearity: No (USB4C02835)
Correct for Stray Light: No (USB4C02835)
Number of Pixels in Processed Spectrum: 3648
>>>>>Begin Processed Spectral Data<<<<<
177.47	1974.24
177.69	1974.24
177.91	1974.24
178.13	1904.61
178.36	1914.85
178.58	2420.70
178.80	2445.27
179.02	2277.34
179.24	2365.40
179.46	2301.92
179.68	2351.07
179.90	2443.23
180.13	2400.22
180.35	2291.68
180.57	2371.55
180.79	2750.42
181.01	2531.29
181.23	2340.83
181.45	2465.75
181.67	2514.91
181.90	2654.17
182.12	2387.93
182.34	2123.74
182.56	2414.56
182.78	2588.63
183.00	2293.72
183.22	2371.55
183.44	2267.10
183.66	2861.01
183.89	2449.37
184.11	2287.58
184.33	2527.19
184.55	2629.59
184.77	2316.25
184.99	2373.60
185.21	2365.40
185.43	2805.72
185.65	2285.53
185.87	2328.54
186.10	2772.95
186.32	2678.74
186.54	2402.27
186.76	2453.47
186.98	2695.13
187.20	2482.14
187.42	2316.25
187.64	2340.83
187.86	2498.52
188.08	2543.58
188.30	2203.61
188.52	2301.92
188.75	2654.17
188.97	2641.88
189.19	2408.41
189.41	2365.40
189.63	2596.82
189.85	2496.47
190.07	2314.20
190.29	2234.33
190.51	2539.48
190.73	2308.06
190.95	2435.03
191.17	2367.45
191.39	2334.68
191.61	2437.08
191.84	2308.06
192.06	2428.89
192.28	2244.57
192.50	2824.15
192.72	2406.36
192.94	2406.36
193.16	2611.16
193.38	2562.01
193.60	2265.05
193.82	2342.88
194.04	2572.25
194.26	2549.72
194.48	2414.56
194.70	2336.73
194.92	2351.07
195.14	2637.78
195.36	2383.84
195.58	2357.21
195.80	2412.51
196.02	2449.37
196.24	2330.59
196.46	2451.42
196.69	2447.32
196.91	2818.00
197.13	2220.00
197.35	2332.64
197.57	2656.22
197.79	2523.10
198.01	2451.42
198.23	2369.50
198.45	2592.73
198.67	2336.73
198.89	2220.00
199.11	2432.99
199.33	2414.56
199.55	2244.57
199.77	2355.16
199.99	2490.33
200.21	2453.47
200.43	2541.53
200.65	2244.57
200.87	2281.44
201.09	2510.81
201.31	2441.18
201.53	2394.08
201.75	2457.56
201.97	2492.38
202.19	2490.33
202.41	2346.97
202.63	2473.95
202.85	2570.20
203.07	2482.14
203.29	2334.68
203.51	2289.63
203.73	2375.64
203.95	2932.69
204.17	2373.60
204.39	2424.80
204.61	2490.33
204.83	2465.75
205.05	2432.99
205.27	2490.33
205.49	2627.54
205.71	2471.90
205.93	2236.38
206.15	2236.38
206.37	2455.51
206.59	2424.80
206.81	2275.29
207.03	2295.77
207.25	2441.18
207.47	2514.91
207.69	2383.84
207.91	2533.34
208.13	2740.18
208.34	2420.70
208.56	2330.59
208.78	2482.14
209.00	2500.57
209.22	2461.66
209.44	2326.49
209.66	2334.68
209.88	2535.39
210.10	2324.44
210.32	2363.36
210.54	2473.95
210.76	2435.03
210.98	2580.44
211.20	2203.61
211.42	2379.74
211.64	2670.55
211.86	2514.91
212.08	2402.27
212.30	2306.01
212.52	2473.95
212.74	2457.56
212.96	2373.60
213.17	2449.37
213.39	2602.97
213.61	2682.84
213.83	2410.46
214.05	2445.27
214.27	2602.97
214.49	2306.01
214.71	2291.68
214.93	2494.43
215.15	2529.24
215.37	2611.16
215.59	2244.57
215.81	2404.32
216.03	2684.89
216.24	2478.04
216.46	2299.87
216.68	2359.26
216.90	2586.58
217.12	2680.79
217.34	2330.59
217.56	2482.14
217.78	2609.11
218.00	2490.33
218.22	2375.64
218.44	2435.03
218.66	2437.08
218.87	2850.77
219.09	2336.73
219.31	2301.92
219.53	2523.10
219.75	2387.93
219.97	2334.68
220.19	2332.64
220.41	2465.75
220.63	2605.02
220.85	2234.33
221.06	2480.09
221.28	2686.94
221.50	2619.35
221.72	2351.07
221.94	2293.72
222.16	2527.19
222.38	2586.58
222.60	2359.26
222.82	2297.82
223.03	2580.44
223.25	2387.93
223.47	2457.56
223.69	2635.74
223.91	2537.43
224.13	2506.71
224.35	2275.29
224.57	2504.67
224.78	2629.59
225.00	2400.22
225.22	2404.32
225.44	2396.12
225.66	2545.63
225.88	2445.27
226.10	2375.64
226.32	2367.45
226.53	2600.92
226.75	2490.33
226.97	2381.79
227.19	2367.45
227.41	2371.55
227.63	2465.75
227.85	2209.76
228.06	2402.27
228.28	2482.14
228.50	2559.96
228.72	2248.67
228.94	2271.20
229.16	2215.90
229.37	2361.31
229.59	2306.01
229.81	2514.91
230.03	2447.32
230.25	2297.82
230.47	2248.67
230.69	2338.78
230.90	2641.88
231.12	2482.14
231.34	2371.55
231.56	2449.37
231.78	2334.68
232.00	2453.47
232.21	2377.69
232.43	2367.45
232.65	2220.00
232.87	2557.91
233.09	2291.68
233.30	2260.96
233.52	2625.50
233.74	2435.03
233.96	2306.01
234.18	2478.04
234.40	2432.99
234.61	2768.85
234.83	2324.44
235.05	2252.77
235.27	2791.38
235.49	2699.22
235.70	2279.39
235.92	2482.14
236.14	2547.67
236.36	2709.46
236.58	2369.50
236.79	2424.80
237.01	2455.51
237.23	2473.95
237.45	2533.34
237.67	2334.68
237.88	2424.80
238.10	2645.98
238.32	2357.21
238.54	2285.53
238.76	2488.28
238.97	2383.84
239.19	2314.20
239.41	2418.65
239.63	2633.69
239.85	2408.41
240.06	2324.44
240.28	2418.65
240.50	2580.44
240.72	2496.47
240.93	2367.45
241.15	2408.41
241.37	2449.37
241.59	2660.31
241.81	2389.98
242.02	2414.56
242.24	2519.00
242.46	2641.88
242.68	2256.86
242.89	2367.45
243.11	2576.34
243.33	2330.59
243.55	2402.27
243.76	2396.12
243.98	2420.70
244.20	2416.60
244.42	2342.88
244.64	2424.80
244.85	2383.84
245.07	2385.88
245.29	2365.40
245.51	2338.78
245.72	2521.05
245.94	2584.54
246.16	2365.40
246.38	2451.42
246.59	2473.95
246.81	2445.27
247.03	2316.25
247.24	2197.47
247.46	2426.84
247.68	2467.80
247.90	2320.35
248.11	2322.40
248.33	2588.63
248.55	2453.47
248.77	2400.22
248.98	2392.03
249.20	2699.22
249.42	2557.91
249.64	2338.78
249.85	2379.74
250.07	2392.03
250.29	2559.96
250.50	2453.47
250.72	2250.72
250.94	2543.58
251.16	2691.03
251.37	2346.97
251.59	2379.74
251.81	2523.10
252.02	2686.94
252.24	2314.20
252.46	2396.12
252.68	2412.51
252.89	2367.45
253.11	2166.75
253.33	2506.71
253.54	2568.15
253.76	2355.16
253.98	2322.40
254.20	2387.93
254.41	2310.11
254.63	2471.90
254.85	2226.14
255.06	2416.60
255.28	2586.58
255.50	2398.17
255.71	2275.29
255.93	2191.33
256.15	2385.88
256.36	2619.35
256.58	2256.86
256.80	2414.56
257.02	2478.04
257.23	2453.47
257.45	2363.36
257.67	2373.60
257.88	2430.94
258.10	2598.87
258.32	2271.20
258.53	2383.84
258.75	2691.03
258.97	2408.41
259.18	2289.63
259.40	2291.68
259.62	2578.39
259.83	2641.88
260.05	2383.84
260.27	2953.17
260.48	2566.10
260.70	2269.15
260.92	2310.11
261.13	2289.63
261.35	2482.14
261.57	2531.29
261.78	2293.72
262.00	2260.96
262.22	2514.91
262.43	2367.45
262.65	2295.77
262.86	2289.63
263.08	2822.10
263.30	2549.72
263.51	2152.42
263.73	2351.07
263.95	2717.65
264.16	2441.18
264.38	2291.68
264.60	2338.78
264.81	2471.90
265.03	2564.06
265.25	2605.02
265.46	2351.07
265.68	2635.74
265.89	2588.63
266.11	2254.81
266.33	2416.60
266.54	2605.02
266.76	2547.67
266.98	2361.31
267.19	2482.14
267.41	2641.88
267.62	2373.60
267.84	2254.81
268.06	2400.22
268.27	2455.51
268.49	2654.17
268.70	2430.94
268.92	2398.17
269.14	2400.22
269.35	2291.68
269.57	2387.93
269.79	2449.37
270.00	2375.64
270.22	2686.94
270.43	2244.57
270.65	2146.27
270.87	2523.10
271.08	2539.48
271.30	2392.03
271.51	2441.18
271.73	2529.24
271.95	2568.15
272.16	2367.45
272.38	2500.57
272.59	2490.33
272.81	2486.23
273.02	2293.72
273.24	2441.18
273.46	2547.67
273.67	2324.44
273.89	2244.57
274.10	2365.40
274.32	2537.43
274.54	2514.91
274.75	2400.22
274.97	2338.78
275.18	2580.44
275.40	2535.39
275.61	2340.83
275.83	2486.23
276.05	2379.74
276.26	2428.89
276.48	2400.22
276.69	2381.79
276.91	2443.23
277.12	2633.69
277.34	2447.32
277.55	2471.90
277.77	2535.39
277.99	2514.91
278.20	2334.68
278.42	2346.97
278.63	2367.45
278.85	2316.25
279.06	2275.29
279.28	2541.53
279.49	2586.58
279.71	2547.67
279.93	2506.71
280.14	2488.28
280.36	2449.37
280.57	2600.92
280.79	2594.78
281.00	2400.22
281.22	2377.69
281.43	2572.25
281.65	2117.60
281.86	2365.40
282.08	2527.19
282.29	2752.47
282.51	2342.88
282.73	2306.01
282.94	2316.25
283.16	2605.02
283.37	2541.53
283.59	2404.32
283.80	2512.86
284.02	2502.62
284.23	2523.10
284.45	2441.18
284.66	2471.90
284.88	2398.17
285.09	2383.84
285.31	2584.54
285.52	2496.47
285.74	2306.01
285.95	2447.32
286.17	2439.13
286.38	2605.02
286.60	2389.98
286.81	2314.20
287.03	2416.60
287.24	2383.84
287.46	2580.44
287.67	2516.95
287.89	2744.28
288.10	2512.86
288.32	2586.58
288.53	2596.82
288.75	2428.89
288.96	2621.40
289.18	2408.41
289.39	2457.56
289.61	2521.05
289.82	2750.42
290.04	2625.50
290.25	2320.35
290.47	2473.95
290.68	2492.38
290.90	2654.17
291.11	2273.25
291.33	2570.20
291.54	2361.31
291.76	2363.36
291.97	2633.69
292.18	2441.18
292.40	2504.67
292.61	2457.56
292.83	2662.36
293.04	2412.51
293.26	2555.86
293.47	2441.18
293.69	2396.12
293.90	2379.74
294.12	2664.41
294.33	2486.23
294.55	2457.56
294.76	2490.33
294.97	2713.56
295.19	2775.00
295.40	2506.71
295.62	2516.95
295.83	2478.04
296.05	2383.84
296.26	2555.86
296.48	2363.36
296.69	2549.72
296.90	2467.80
297.12	2598.87
297.33	2514.91
297.55	2529.24
297.76	2576.34
297.98	2531.29
298.19	2523.10
298.41	2613.21
298.62	2359.26
298.83	2609.11
299.05	2439.13
299.26	2439.13
299.48	2324.44
299.69	2498.52
299.90	2441.18
300.12	2437.08
300.33	2506.71
300.55	2432.99
300.76	2447.32
300.98	2428.89
301.19	2562.01
301.40	2351.07
301.62	2379.74
301.83	2488.28
302.05	2420.70
302.26	2432.99
302.47	2428.89
302.69	2316.25
302.90	2514.91
303.12	2174.94
303.33	2426.84
303.54	2654.17
303.76	2406.36
303.97	2461.66
304.19	2545.63
304.40	2334.68
304.61	2527.19
304.83	2580.44
305.04	2480.09
305.26	2551.77
305.47	2441.18
305.68	2469.85
305.90	2297.82
306.11	2688.98
306.33	2430.94
306.54	2371.55
306.75	2336.73
306.97	2297.82
307.18	2320.35
307.39	2385.88
307.61	2473.95
307.82	2412.51
308.04	2639.83
308.25	2410.46
308.46	2490.33
308.68	2441.18
308.89	2430.94
309.10	2527.19
309.32	2471.90
309.53	2473.95
309.74	2609.11
309.96	2367.45
310.17	2602.97
310.39	2432.99
310.60	2527.19
310.81	2475.99
311.03	2310.11
311.24	2553.82
311.45	2527.19
311.67	2584.54
311.88	2502.62
312.09	2451.42
312.31	2467.80
312.52	2459.61
312.73	2367.45
312.95	2246.62
313.16	2359.26
313.37	2664.41
313.59	2484.19
313.80	2602.97
314.01	2691.03
314.23	2412.51
314.44	2381.79
314.65	2330.59
314.87	2357.21
315.08	2437.08
315.29	2457.56
315.51	2320.35
315.72	2310.11
315.93	2553.82
316.15	2478.04
316.36	2473.95
316.57	2576.34
316.79	2480.09
317.00	2449.37
317.21	2547.67
317.43	2351.07
317.64	2394.08
317.85	2310.11
318.07	2392.03
318.28	2449.37
318.49	2500.57
318.70	2654.17
318.92	2621.40
319.13	2629.59
319.34	2727.89
319.56	2449.37
319.77	2588.63
319.98	2572.25
320.20	2670.55
320.41	2582.49
320.62	2562.01
320.83	2322.40
321.05	2629.59
321.26	2486.23
321.47	2459.61
321.69	2490.33
321.90	2314.20
322.11	2351.07
322.32	2510.81
322.54	2699.22
322.75	2371.55
322.96	2801.62
323.18	2312.16
323.39	2244.57
323.60	2422.75
323.81	2490.33
324.03	2400.22
324.24	2453.47
324.45	2441.18
324.66	2369.50
324.88	2674.65
325.09	2639.83
325.30	2437.08
325.52	2445.27
325.73	2514.91
325.94	2301.92
326.15	2277.34
326.37	2330.59
326.58	2553.82
326.79	2678.74
327.00	2392.03
327.22	2400.22
327.43	2449.37
327.64	2392.03
327.85	2506.71
328.07	2404.32
328.28	2686.94
328.49	2471.90
328.70	2443.23
328.92	2342.88
329.13	2504.67
329.34	2537.43
329.55	2537.43
329.76	2516.95
329.98	2471.90
330.19	2617.30
330.40	2430.94
330.61	2486.23
330.83	2564.06
331.04	2453.47
331.25	2416.60
331.46	2416.60
331.68	2342.88
331.89	2576.34
332.10	2437.08
332.31	2289.63
332.52	2455.51
332.74	2580.44
332.95	2303.96
333.16	2381.79
333.37	2580.44
333.58	2490.33
333.80	2467.80
334.01	2285.53
334.22	2449.37
334.43	2281.44
334.64	2338.78
334.86	2342.88
335.07	2400.22
335.28	2701.27
335.49	2301.92
335.70	2498.52
335.92	2660.31
336.13	2791.38
336.34	2541.53
336.55	2441.18
336.76	2578.39
336.98	2260.96
337.19	2408.41
337.40	2564.06
337.61	2775.00
337.82	2363.36
338.04	2469.85
338.25	2283.49
338.46	2473.95
338.67	2361.31
338.88	2334.68
339.09	2332.64
339.31	2373.60
339.52	2318.30
339.73	2375.64
339.94	2410.46
340.15	2553.82
340.36	2445.27
340.58	2449.37
340.79	2353.12
341.00	2533.34
341.21	2400.22
341.42	2592.73
341.63	2367.45
341.85	2545.63
342.06	2486.23
342.27	2359.26
342.48	2482.14
342.69	2353.12
342.90	2457.56
343.12	2629.59
343.33	2387.93
343.54	2625.50
343.75	2643.93
343.96	2480.09
344.17	2334.68
344.38	2455.51
344.60	2310.11
344.81	2318.30
345.02	2410.46
345.23	2557.91
345.44	2856.92
345.65	2473.95
345.86	2480.09
346.07	2426.84
346.29	2398.17
346.50	2514.91
346.71	2527.19
346.92	2645.98
347.13	2711.51
347.34	2441.18
347.55	2353.12
347.76	2539.48
347.98	2332.64
348.19	2457.56
348.40	2580.44
348.61	2385.88
348.82	2600.92
349.03	2576.34
349.24	2357.21
349.45	2699.22
349.66	2285.53
349.88	2422.75
350.09	2406.36
350.30	2656.22
350.51	2611.16
350.72	2461.66
350.93	2426.84
351.14	2416.60
351.35	2529.24
351.56	2396.12
351.77	2441.18
351.99	2514.91
352.20	2637.78
352.41	2527.19
352.62	2263.01
352.83	2422.75
353.04	2475.99
353.25	2492.38
353.46	2516.95
353.67	2543.58
353.88	2328.54
354.09	2459.61
354.30	2430.94
354.52	2590.68
354.73	2428.89
354.94	2369.50
355.15	2406.36
355.36	2701.27
355.57	2392.03
355.78	2447.32
355.99	2404.32
356.20	2441.18
356.41	2619.35
356.62	2473.95
356.83	2486.23
357.04	2596.82
357.25	2244.57
357.46	2424.80
357.68	2316.25
357.89	2353.12
358.10	2465.75
358.31	2426.84
358.52	2449.37
358.73	2379.74
358.94	2351.07
359.15	2346.97
359.36	2494.43
359.57	2471.90
359.78	2424.80
359.99	2508.76
360.20	2369.50
360.41	2416.60
360.62	2566.10
360.83	2490.33
361.04	2424.80
361.25	2529.24
361.46	2666.46
361.67	2482.14
361.88	2428.89
362.09	2584.54
362.30	2574.30
362.51	2445.27
362.72	2471.90
362.93	2600.92
363.14	2482.14
363.35	2367.45
363.56	2346.97
363.78	2643.93
363.99	2695.13
364.20	2406.36
364.41	2496.47
364.62	2717.65
364.83	2523.10
365.04	2473.95
365.25	2510.81
365.46	2748.37
365.67	2402.27
365.88	2478.04
366.09	2359.26
366.30	2480.09
366.51	2504.67
366.72	2449.37
366.93	2463.71
367.14	2543.58
367.35	2568.15
367.56	2375.64
367.77	2584.54
367.98	2422.75
368.18	2584.54
368.39	2504.67
368.60	2359.26
368.81	2568.15
369.02	2514.91
369.23	2465.75
369.44	2277.34
369.65	2424.80
369.86	2574.30
370.07	2490.33
370.28	2379.74
370.49	2559.96
370.70	2576.34
370.91	2400.22
371.12	2301.92
371.33	2592.73
371.54	2416.60
371.75	2531.29
371.96	2150.37
372.17	2533.34
372.38	2535.39
372.59	2453.47
372.80	2447.32
373.01	2473.95
373.22	2453.47
373.43	2463.71
373.64	2308.06
373.85	2619.35
374.06	2709.46
374.26	2559.96
374.47	2473.95
374.68	2648.02
374.89	2453.47
375.10	2437.08
375.31	2555.86
375.52	2529.24
375.73	2437.08
375.94	2316.25
376.15	2537.43
376.36	2432.99
376.57	2381.79
376.78	2449.37
376.99	2473.95
377.20	2688.98
377.40	2361.31
377.61	2670.55
377.82	2340.83
378.03	2650.07
378.24	2629.59
378.45	2465.75
378.66	2455.51
378.87	2332.64
379.08	2344.92
379.29	2367.45
379.50	2625.50
379.71	2439.13
379.91	2654.17
380.12	2379.74
380.33	2414.56
380.54	2498.52
380.75	2400.22
380.96	2449.37
381.17	2441.18
381.38	2500.57
381.59	2471.90
381.80	2430.94
382.00	2682.84
382.21	2523.10
382.42	2670.55
382.63	2693.08
382.84	2611.16
383.05	2643.93
383.26	2633.69
383.47	2502.62
383.68	2445.27
383.88	2576.34
384.09	2494.43
384.30	2641.88
384.51	2537.43
384.72	2400.22
384.93	2252.77
385.14	2523.10
385.35	2572.25
385.55	2359.26
385.76	2662.36
385.97	2461.66
386.18	2299.87
386.39	2410.46
386.60	2377.69
386.81	2414.56
387.02	2361.31
387.22	2435.03
387.43	2566.10
387.64	2475.99
387.85	2613.21
388.06	2602.97
388.27	4136.90
388.48	8150.92
388.68	11956.04
388.89	14382.88
389.10	15511.32
389.31	14679.84
389.52	11583.31
389.73	9951.08
389.93	9027.45
390.14	8173.44
390.35	7319.44
390.56	6555.55
390.77	5423.02
390.98	4126.66
391.18	3418.06
391.39	2912.21
391.60	2623.45
391.81	2557.91
392.02	2437.08
392.23	2828.24
392.43	2545.63
392.64	2691.03
392.85	2492.38
393.06	2731.99
393.27	2457.56
393.47	2373.60
393.68	2449.37
393.89	2422.75
394.10	2629.59
394.31	2439.13
394.52	2308.06
394.72	2453.47
394.93	2639.83
395.14	2379.74
395.35	2613.21
395.56	2396.12
395.76	2494.43
395.97	2473.95
396.18	2598.87
396.39	2650.07
396.60	3037.14
396.80	2715.61
397.01	2611.16
397.22	2660.31
397.43	2717.65
397.64	2521.05
397.84	2519.00
398.05	2766.81
398.26	2523.10
398.47	2555.86
398.67	2586.58
398.88	2523.10
399.09	2514.91
399.30	2367.45
399.51	2527.19
399.71	2463.71
399.92	2492.38
400.13	2498.52
400.34	2465.75
400.54	2496.47
400.75	2633.69
400.96	2498.52
401.17	2633.69
401.37	2537.43
401.58	2475.99
401.79	2402.27
402.00	2594.78
402.21	2914.26
402.41	2744.28
402.62	2736.09
402.83	2904.02
403.04	2916.31
403.24	3110.86
403.45	2562.01
403.66	2709.46
403.87	2760.66
404.07	2734.04
404.28	2766.81
404.49	2783.19
404.70	2637.78
404.90	2588.63
405.11	2547.67
405.32	2523.10
405.52	2424.80
405.73	2416.60
405.94	2396.12
406.15	2449.37
406.35	2564.06
406.56	2592.73
406.77	2543.58
406.98	2502.62
407.18	2351.07
407.39	2615.26
407.60	2377.69
407.80	2572.25
408.01	2469.85
408.22	2572.25
408.43	2303.96
408.63	2523.10
408.84	2562.01
409.05	2592.73
409.25	2346.97
409.46	2402.27
409.67	2387.93
409.88	2447.32
410.08	2547.67
410.29	2482.14
410.50	2621.40
410.70	2572.25
410.91	2303.96
411.12	2506.71
411.32	2465.75
411.53	2473.95
411.74	2545.63
411.95	2609.11
412.15	2592.73
412.36	2627.54
412.57	2551.77
412.77	2713.56
412.98	2492.38
413.19	2473.95
413.39	2527.19
413.60	2469.85
413.81	2596.82
414.01	2273.25
414.22	2508.76
414.43	2508.76
414.63	2377.69
414.84	2629.59
415.05	2486.23
415.25	2301.92
415.46	2545.63
415.67	2359.26
415.87	2463.71
416.08	2445.27
416.29	2420.70
416.49	2537.43
416.70	2359.26
416.91	2392.03
417.11	2437.08
417.32	2590.68
417.53	2521.05
417.73	2541.53
417.94	2449.37
418.15	2512.86
418.35	2457.56
418.56	2392.03
418.77	2805.72
418.97	2443.23
419.18	2469.85
419.38	2211.81
419.59	2428.89
419.80	2650.07
420.00	2414.56
420.21	2521.05
420.42	2594.78
420.62	2521.05
420.83	2400.22
421.04	2361.31
421.24	2439.13
421.45	2494.43
421.65	2469.85
421.86	2349.02
422.07	2527.19
422.27	2623.45
422.48	2441.18
422.69	2330.59
422.89	2406.36
423.10	2455.51
423.30	2326.49
423.51	2543.58
423.72	2580.44
423.92	2588.63
424.13	2308.06
424.33	2512.86
424.54	2731.99
424.75	2545.63
424.95	2600.92
425.16	2469.85
425.36	2359.26
425.57	2594.78
425.78	2551.77
425.98	2562.01
426.19	2361.31
426.39	2346.97
426.60	2578.39
426.81	2629.59
427.01	2594.78
427.22	2349.02
427.42	2252.77
427.63	2400.22
427.83	2578.39
428.04	2645.98
428.25	2545.63
428.45	2564.06
428.66	2555.86
428.86	2449.37
429.07	2430.94
429.28	2459.61
429.48	2529.24
429.69	2443.23
429.89	2451.42
430.10	2342.88
430.30	2592.73
430.51	2535.39
430.71	2408.41
430.92	2461.66
431.13	2449.37
431.33	2592.73
431.54	2539.48
431.74	2652.12
431.95	2785.24
432.15	2373.60
432.36	2381.79
432.56	2394.08
432.77	2686.94
432.98	2674.65
433.18	2549.72
433.39	2451.42
433.59	2430.94
433.80	2666.46
434.00	2727.89
434.21	2412.51
434.41	2416.60
434.62	2834.39
434.82	2398.17
435.03	2416.60
435.23	2502.62
435.44	2277.34
435.64	2408.41
435.85	2486.23
436.06	2527.19
436.26	2609.11
436.47	2490.33
436.67	2392.03
436.88	2482.14
437.08	2570.20
437.29	2654.17
437.49	2486.23
437.70	2570.20
437.90	2519.00
438.11	2645.98
438.31	2594.78
438.52	2619.35
438.72	2629.59
438.93	2727.89
439.13	2516.95
439.34	2600.92
439.54	2492.38
439.75	2586.58
439.95	2559.96
440.16	2441.18
440.36	2449.37
440.57	2447.32
440.77	2461.66
440.98	2473.95
441.18	2609.11
441.39	2488.28
441.59	2312.16
441.80	2783.19
442.00	2465.75
442.21	2629.59
442.41	2418.65
442.62	2635.74
442.82	2441.18
443.02	2455.51
443.23	2519.00
443.43	2420.70
443.64	2672.60
443.84	2330.59
444.05	2488.28
444.25	2414.56
444.46	2455.51
444.66	2488.28
444.87	2705.37
445.07	2357.21
445.28	2486.23
445.48	2637.78
445.69	2510.81
445.89	2758.61
446.09	2539.48
446.30	2795.48
446.50	2961.36
446.71	4540.35
446.91	5691.31
447.12	6545.31
447.32	6918.04
447.53	6569.88
447.73	5461.93
447.93	4906.93
448.14	4448.19
448.34	4474.81
448.55	3835.85
448.75	3657.67
448.96	3514.31
449.16	3252.17
449.36	3102.67
449.57	2727.89
449.77	2506.71
449.98	2453.47
450.18	2555.86
450.39	2543.58
450.59	2596.82
450.79	2469.85
451.00	2410.46
451.20	2553.82
451.41	2494.43
451.61	2547.67
451.81	2406.36
452.02	2369.50
452.22	2420.70
452.43	2410.46
452.63	2498.52
452.84	2486.23
453.04	2383.84
453.24	2496.47
453.45	2428.89
453.65	2439.13
453.86	2461.66
454.06	2611.16
454.26	2445.27
454.47	2340.83
454.67	2566.10
454.87	2576.34
455.08	2445.27
455.28	2650.07
455.49	2527.19
455.69	2377.69
455.89	2748.37
456.10	2539.48
456.30	2375.64
456.51	2619.35
456.71	2500.57
456.91	2498.52
457.12	2453.47
457.32	2473.95
457.52	2449.37
457.73	2572.25
457.93	2537.43
458.14	2359.26
458.34	2306.01
458.54	2537.43
458.75	2506.71
458.95	2627.54
459.15	2498.52
459.36	2559.96
459.56	2412.51
459.76	2785.24
459.97	2473.95
460.17	2383.84
460.37	2580.44
460.58	2514.91
460.78	2529.24
460.99	2412.51
461.19	2502.62
461.39	2420.70
461.60	2428.89
461.80	2525.15
462.00	2367.45
462.21	2490.33
462.41	2424.80
462.61	2265.05
462.82	2342.88
463.02	2605.02
463.22	2463.71
463.43	2568.15
463.63	2392.03
463.83	2629.59
464.04	2570.20
464.24	2488.28
464.44	2355.16
464.64	2531.29
464.85	2615.26
465.05	2562.01
465.25	2498.52
465.46	2478.04
465.66	2490.33
465.86	2531.29
466.07	2461.66
466.27	2506.71
466.47	2346.97
466.68	2310.11
466.88	2637.78
467.08	2631.64
467.29	2594.78
467.49	2506.71
467.69	2539.48
467.89	2547.67
468.10	2492.38
468.30	2492.38
468.50	2562.01
468.71	2637.78
468.91	2373.60
469.11	2629.59
469.31	2475.99
469.52	2398.17
469.72	2619.35
469.92	2729.94
470.13	2430.94
470.33	2541.53
470.53	2611.16
470.73	2777.05
470.94	3289.04
471.14	3413.96
471.34	3854.28
471.54	3661.77
471.75	3373.00
471.95	3071.95
472.15	3016.66
472.36	3082.19
472.56	2901.97
472.76	3088.34
472.96	2963.41
473.17	2775.00
473.37	2701.27
473.57	2527.19
473.77	2609.11
473.98	2539.48
474.18	2467.80
474.38	2910.16
474.58	2416.60
474.79	2406.36
474.99	2471.90
475.19	2623.45
475.39	2340.83
475.60	2516.95
475.80	2422.75
476.00	2555.86
476.20	2402.27
476.41	2475.99
476.61	2488.28
476.81	2643.93
477.01	2424.80
477.21	2660.31
477.42	2596.82
477.62	2428.89
477.82	2588.63
478.02	2404.32
478.23	2519.00
478.43	2414.56
478.63	2455.51
478.83	2467.80
479.03	2473.95
479.24	2684.89
479.44	2731.99
479.64	2455.51
479.84	2293.72
480.04	2400.22
480.25	2557.91
480.45	2385.88
480.65	2387.93
480.85	2645.98
481.06	2394.08
481.26	2525.15
481.46	2484.19
481.66	2529.24
481.86	2424.80
482.06	2621.40
482.27	2449.37
482.47	2426.84
482.67	2527.19
482.87	2342.88
483.07	2596.82
483.28	2449.37
483.48	2308.06
483.68	2432.99
483.88	2357.21
484.08	2256.86
484.29	2430.94
484.49	2510.81
484.69	2273.25
484.89	2672.60
485.09	2625.50
485.29	2564.06
485.50	2523.10
485.70	2449.37
485.90	2619.35
486.10	2531.29
486.30	2535.39
486.50	2590.68
486.71	2590.68
486.91	2600.92
487.11	2576.34
487.31	2326.49
487.51	2619.35
487.71	2406.36
487.91	2346.97
488.12	2396.12
488.32	2236.38
488.52	2361.31
488.72	2240.48
488.92	2539.48
489.12	2588.63
489.32	2562.01
489.53	2494.43
489.73	2334.68
489.93	2736.09
490.13	2396.12
490.33	2342.88
490.53	2570.20
490.73	2607.06
490.94	2357.21
491.14	2531.29
491.34	2586.58
491.54	2645.98
491.74	3416.01
491.94	3985.35
492.14	4370.37
492.34	4456.38
492.54	4036.55
492.75	3416.01
492.95	3344.33
493.15	3207.12
493.35	3229.65
493.55	3086.29
493.75	2922.45
493.95	2971.60
494.15	2691.03
494.35	2586.58
494.56	2629.59
494.76	2408.41
494.96	2516.95
495.16	2359.26
495.36	2473.95
495.56	2547.67
495.76	2498.52
495.96	2457.56
496.16	2381.79
496.36	2717.65
496.56	2396.12
496.77	2514.91
496.97	2490.33
497.17	2656.22
497.37	2277.34
497.57	2498.52
497.77	2428.89
497.97	2336.73
498.17	2414.56
498.37	2465.75
498.57	2514.91
498.77	2379.74
498.97	2592.73
499.17	2656.22
499.38	2447.32
499.58	2627.54
499.78	2627.54
499.98	2533.34
500.18	2449.37
500.38	2484.19
500.58	2654.17
500.78	3092.43
500.98	5496.75
501.18	7321.49
501.38	9011.06
501.58	10207.08
501.78	10010.47
501.98	8046.47
502.18	6870.94
502.38	5701.54
502.58	5410.73
502.78	4814.77
502.98	4661.18
503.18	4409.28
503.38	4057.03
503.59	3618.76
503.79	3375.05
503.99	3121.10
504.19	3006.42
504.39	3076.05
504.59	3133.39
504.79	3102.67
504.99	3108.82
505.19	2826.20
505.39	2697.17
505.59	2881.49
505.79	2858.96
505.99	2736.09
506.19	2555.86
506.39	2775.00
506.59	2461.66
506.79	2471.90
506.99	2633.69
507.19	2435.03
507.39	2533.34
507.59	2377.69
507.79	2443.23
507.99	2369.50
508.19	2496.47
508.39	2519.00
508.59	2424.80
508.79	2559.96
508.99	2777.05
509.19	2416.60
509.39	2578.39
509.59	2338.78
509.79	2521.05
509.99	2506.71
510.19	2586.58
510.39	2553.82
510.59	2508.76
510.79	2467.80
510.99	2334.68
511.19	2394.08
511.39	2658.26
511.59	2650.07
511.79	2619.35
511.99	2514.91
512.19	2811.86
512.38	2504.67
512.58	2414.56
512.78	2420.70
512.98	2607.06
513.18	2650.07
513.38	2312.16
513.58	2543.58
513.78	2424.80
513.98	2473.95
514.18	2514.91
514.38	2463.71
514.58	2480.09
514.78	2355.16
514.98	2379.74
515.18	2467.80
515.38	2396.12
515.58	2736.09
515.78	2408.41
515.98	2510.81
516.18	2562.01
516.38	2531.29
516.57	2430.94
516.77	2392.03
516.97	2721.75
517.17	2473.95
517.37	2256.86
517.57	2496.47
517.77	2506.71
517.97	2426.84
518.17	2490.33
518.37	2389.98
518.57	2445.27
518.77	2463.71
518.97	2480.09
519.16	2482.14
519.36	2664.41
519.56	2459.61
519.76	2410.46
519.96	2496.47
520.16	2758.61
520.36	2422.75
520.56	2598.87
520.76	2344.92
520.96	2539.48
521.16	2643.93
521.35	2654.17
521.55	2592.73
521.75	2457.56
521.95	2441.18
522.15	2465.75
522.35	2451.42
522.55	2445.27
522.75	2506.71
522.95	2449.37
523.14	2326.49
523.34	2480.09
523.54	2420.70
523.74	2551.77
523.94	2527.19
524.14	2392.03
524.34	2498.52
524.54	2652.12
524.73	2406.36
524.93	2541.53
525.13	2508.76
525.33	2320.35
525.53	2721.75
525.73	2455.51
525.93	2578.39
526.13	2447.32
526.32	2416.60
526.52	2551.77
526.72	2596.82
526.92	2430.94
527.12	2375.64
527.32	2275.29
527.52	2521.05
527.71	2527.19
527.91	2428.89
528.11	2430.94
528.31	2441.18
528.51	2361.31
528.71	2535.39
528.90	2617.30
529.10	2609.11
529.30	2551.77
529.50	2248.67
529.70	2559.96
529.90	2447.32
530.09	2469.85
530.29	2416.60
530.49	2389.98
530.69	2775.00
530.89	2443.23
531.09	2516.95
531.28	2441.18
531.48	2637.78
531.68	2457.56
531.88	2510.81
532.08	2641.88
532.28	2457.56
532.47	2564.06
532.67	2594.78
532.87	2602.97
533.07	2416.60
533.27	2543.58
533.46	2570.20
533.66	2537.43
533.86	2469.85
534.06	2486.23
534.26	2521.05
534.45	2422.75
534.65	2645.98
534.85	2504.67
535.05	2334.68
535.25	2605.02
535.44	2289.63
535.64	2594.78
535.84	2406.36
536.04	2502.62
536.24	2467.80
536.43	2432.99
536.63	2480.09
536.83	2424.80
537.03	2494.43
537.22	2342.88
537.42	2248.67
537.62	2570.20
537.82	2435.03
538.02	2625.50
538.21	2619.35
538.41	2883.54
538.61	2596.82
538.81	2465.75
539.00	2568.15
539.20	2392.03
539.40	2449.37
539.60	2494.43
539.79	2641.88
539.99	2457.56
540.19	2404.32
540.39	2453.47
540.58	2498.52
540.78	2602.97
540.98	2555.86
541.18	2592.73
541.37	2475.99
541.57	2447.32
541.77	2549.72
541.97	2449.37
542.16	2232.29
542.36	2383.84
542.56	2439.13
542.76	2594.78
542.95	2514.91
543.15	2580.44
543.35	2584.54
543.54	2410.46
543.74	2445.27
543.94	2617.30
544.14	2398.17
544.33	2527.19
544.53	2490.33
544.73	2465.75
544.93	2449.37
545.12	2480.09
545.32	2424.80
545.52	2461.66
545.71	2357.21
545.91	2424.80
546.11	2420.70
546.30	2346.97
546.50	2457.56
546.70	2457.56
546.90	2527.19
547.09	2244.57
547.29	2525.15
547.49	2510.81
547.68	2385.88
547.88	2406.36
548.08	2576.34
548.27	2883.54
548.47	2400.22
548.67	2482.14
548.87	2549.72
549.06	2404.32
549.26	2432.99
549.46	2562.01
549.65	2473.95
549.85	2426.84
550.05	2457.56
550.24	2351.07
550.44	2502.62
550.64	2463.71
550.83	2502.62
551.03	2678.74
551.23	2633.69
551.42	2510.81
551.62	2457.56
551.82	2496.47
552.01	2424.80
552.21	2686.94
552.41	2420.70
552.60	2629.59
552.80	2480.09
553.00	2367.45
553.19	2500.57
553.39	2670.55
553.59	2408.41
553.78	2514.91
553.98	2486.23
554.17	2346.97
554.37	2572.25
554.57	2547.67
554.76	2355.16
554.96	2453.47
555.16	2455.51
555.35	2457.56
555.55	2490.33
555.75	2527.19
555.94	2605.02
556.14	2324.44
556.33	2494.43
556.53	2512.86
556.73	2531.29
556.92	2439.13
557.12	2537.43
557.32	2824.15
557.51	2588.63
557.71	2514.91
557.90	2666.46
558.10	2656.22
558.30	2414.56
558.49	2404.32
558.69	2420.70
558.88	2545.63
559.08	2541.53
559.28	2482.14
559.47	2498.52
559.67	2672.60
559.86	2715.61
560.06	2572.25
560.26	2408.41
560.45	2523.10
560.65	2492.38
560.84	2609.11
561.04	2430.94
561.24	2574.30
561.43	2359.26
561.63	2615.26
561.82	2490.33
562.02	2557.91
562.22	2453.47
562.41	2412.51
562.61	2375.64
562.80	2365.40
563.00	2852.82
563.19	2527.19
563.39	2445.27
563.59	2623.45
563.78	2383.84
563.98	2271.20
564.17	2459.61
564.37	2228.19
564.56	2439.13
564.76	2398.17
564.96	2605.02
565.15	2488.28
565.35	2850.77
565.54	2392.03
565.74	2557.91
565.93	2486.23
566.13	2457.56
566.32	2488.28
566.52	2547.67
566.71	2539.48
566.91	2605.02
567.11	2512.86
567.30	2422.75
567.50	2516.95
567.69	2535.39
567.89	2424.80
568.08	2328.54
568.28	2521.05
568.47	2314.20
568.67	2422.75
568.86	2400.22
569.06	2641.88
569.25	2445.27
569.45	2263.01
569.64	2398.17
569.84	2492.38
570.04	2482.14
570.23	2482.14
570.43	2424.80
570.62	2535.39
570.82	2674.65
571.01	2306.01
571.21	2447.32
571.40	2496.47
571.60	2543.58
571.79	2568.15
571.99	2490.33
572.18	2367.45
572.38	2605.02
572.57	2441.18
572.77	2559.96
572.96	2818.00
573.16	2523.10
573.35	2396.12
573.55	2627.54
573.74	2531.29
573.94	2379.74
574.13	2480.09
574.33	2572.25
574.52	2729.94
574.71	2531.29
574.91	2502.62
575.10	2361.31
575.30	2455.51
575.49	2457.56
575.69	2404.32
575.88	2502.62
576.08	2568.15
576.27	2637.78
576.47	2504.67
576.66	2652.12
576.86	2738.13
577.05	2562.01
577.25	2572.25
577.44	2695.13
577.64	2484.19
577.83	2580.44
578.02	2439.13
578.22	2562.01
578.41	2691.03
578.61	2432.99
578.80	2367.45
579.00	2473.95
579.19	2533.34
579.39	2588.63
579.58	2596.82
579.77	2500.57
579.97	2738.13
580.16	2668.50
580.36	2637.78
580.55	2562.01
580.75	2572.25
580.94	2539.48
581.13	2605.02
581.33	2660.31
581.52	2519.00
581.72	2801.62
581.91	2631.64
582.11	2414.56
582.30	2672.60
582.49	2578.39
582.69	2658.26
582.88	2564.06
583.08	2514.91
583.27	2658.26
583.47	2494.43
583.66	2412.51
583.85	2430.94
584.05	2490.33
584.24	2545.63
584.44	2535.39
584.63	2658.26
584.82	2611.16
585.02	2676.70
585.21	2643.93
585.41	2693.08
585.60	2547.67
585.79	2729.94
585.99	2797.53
586.18	2621.40
586.37	3217.36
586.57	5144.50
586.76	14671.65
586.96	34078.20
587.15	47631.66
587.34	56511.65
587.54	61056.09
587.73	55354.55
587.93	39265.70
588.12	29906.49
588.31	23959.19
588.51	20872.90
588.70	19148.51
588.89	17016.57
589.09	14788.38
589.28	12699.45
589.47	10188.64
589.67	7788.43
589.86	6281.12
590.06	4554.68
590.25	3917.76
590.44	3348.43
590.64	2910.16
590.83	2840.53
591.02	2703.32
591.22	2514.91
591.41	2609.11
591.60	2527.19
591.80	2836.44
591.99	2365.40
592.18	2457.56
592.38	2568.15
592.57	2473.95
592.76	2512.86
592.96	2580.44
593.15	2414.56
593.34	2652.12
593.54	2510.81
593.73	2523.10
593.92	2641.88
594.12	2619.35
594.31	2521.05
594.50	2711.51
594.70	2627.54
594.89	2901.97
595.08	2365.40
595.28	2555.86
595.47	2965.46
595.66	2688.98
595.86	2432.99
596.05	2430.94
596.24	2457.56
596.43	2787.29
596.63	2723.80
596.82	2549.72
597.01	2496.47
597.21	2738.13
597.40	2537.43
597.59	2435.03
597.79	2484.19
597.98	2537.43
598.17	2506.71
598.36	2547.67
598.56	2566.10
598.75	2355.16
598.94	2531.29
599.14	2572.25
599.33	2406.36
599.52	2557.91
599.71	2408.41
599.91	2559.96
600.10	2572.25
600.29	2500.57
600.48	2494.43
600.68	2516.95
600.87	2516.95
601.06	2424.80
601.26	2447.32
601.45	2537.43
601.64	2428.89
601.83	2611.16
602.03	2432.99
602.22	2394.08
602.41	2627.54
602.60	2736.09
602.80	2506.71
602.99	2504.67
603.18	2461.66
603.37	2529.24
603.57	2510.81
603.76	2547.67
603.95	2727.89
604.14	2385.88
604.34	2437.08
604.53	2381.79
604.72	2506.71
604.91	2621.40
605.10	2414.56
605.30	2336.73
605.49	2801.62
605.68	2521.05
605.87	2443.23
606.07	2424.80
606.26	2473.95
606.45	2566.10
606.64	2586.58
606.84	2490.33
607.03	2572.25
607.22	2627.54
607.41	2451.42
607.60	2428.89
607.80	2670.55
607.99	2553.82
608.18	2475.99
608.37	2471.90
608.56	2484.19
608.76	2637.78
608.95	2693.08
609.14	2570.20
609.33	2766.81
609.52	2756.57
609.72	2553.82
609.91	2629.59
610.10	2512.86
610.29	2744.28
610.48	2543.58
610.68	2557.91
610.87	2553.82
611.06	2623.45
611.25	2471.90
611.44	2553.82
611.63	2523.10
611.83	2658.26
612.02	2342.88
612.21	2580.44
612.40	2285.53
612.59	2371.55
612.79	2412.51
612.98	2402.27
613.17	2662.36
613.36	2465.75
613.55	2707.41
613.74	2449.37
613.93	2662.36
614.13	2697.17
614.32	2725.85
614.51	2777.05
614.70	2621.40
614.89	2543.58
615.08	2615.26
615.28	2959.31
615.47	2400.22
615.66	2598.87
615.85	2568.15
616.04	2740.18
616.23	2643.93
616.42	2535.39
616.62	2539.48
616.81	2502.62
617.00	2568.15
617.19	2580.44
617.38	2447.32
617.57	2502.62
617.76	2594.78
617.95	2564.06
618.15	2512.86
618.34	2629.59
618.53	2447.32
618.72	2584.54
618.91	2625.50
619.10	2570.20
619.29	2594.78
619.48	2488.28
619.68	2369.50
619.87	2381.79
620.06	2367.45
620.25	2537.43
620.44	2441.18
620.63	2461.66
620.82	2545.63
621.01	2486.23
621.20	2504.67
621.39	2482.14
621.59	2555.86
621.78	2519.00
621.97	2506.71
622.16	2529.24
622.35	2449.37
622.54	2553.82
622.73	2543.58
622.92	2254.81
623.11	2641.88
623.30	2459.61
623.49	2527.19
623.68	2365.40
623.88	2648.02
624.07	2551.77
624.26	2428.89
624.45	2482.14
624.64	2455.51
624.83	2543.58
625.02	2426.84
625.21	2519.00
625.40	2510.81
625.59	2627.54
625.78	2449.37
625.97	2629.59
626.16	2652.12
626.35	2596.82
626.54	2549.72
626.74	2740.18
626.93	2498.52
627.12	2488.28
627.31	2523.10
627.50	2512.86
627.69	2594.78
627.88	2367.45
628.07	2566.10
628.26	2328.54
628.45	2478.04
628.64	2400.22
628.83	2480.09
629.02	2316.25
629.21	2553.82
629.40	2588.63
629.59	2469.85
629.78	2420.70
629.97	2535.39
630.16	2514.91
630.35	2404.32
630.54	2541.53
630.73	2478.04
630.92	2473.95
631.11	2349.02
631.30	2506.71
631.49	2611.16
631.68	2457.56
631.87	2529.24
632.06	2357.21
632.25	2785.24
632.44	2545.63
632.63	2529.24
632.82	2459.61
633.01	2553.82
633.20	2576.34
633.39	2482.14
633.58	2389.98
633.77	2551.77
633.96	2662.36
634.15	2564.06
634.34	2562.01
634.53	2611.16
634.72	2430.94
634.91	2373.60
635.10	2449.37
635.29	2531.29
635.48	2469.85
635.67	2353.12
635.86	2310.11
636.05	2662.36
636.24	2482.14
636.43	2441.18
636.62	2527.19
636.81	2283.49
637.00	2510.81
637.19	2506.71
637.38	2453.47
637.57	2467.80
637.76	2514.91
637.95	2627.54
638.14	2549.72
638.33	2586.58
638.52	2547.67
638.71	2398.17
638.89	2435.03
639.08	2815.96
639.27	2699.22
639.46	2746.33
639.65	3096.53
639.84	3176.40
640.03	3260.37
640.22	3203.02
640.41	3198.93
640.60	2795.48
640.79	2865.11
640.98	2629.59
641.17	2711.51
641.36	2760.66
641.55	2693.08
641.74	2428.89
641.92	2389.98
642.11	2426.84
642.30	2512.86
642.49	2400.22
642.68	2435.03
642.87	2521.05
643.06	2568.15
643.25	2326.49
643.44	2408.41
643.63	2402.27
643.82	2543.58
644.00	2357.21
644.19	2527.19
644.38	2346.97
644.57	2498.52
644.76	2441.18
644.95	2469.85
645.14	2553.82
645.33	2437.08
645.52	2543.58
645.71	2416.60
645.89	2334.68
646.08	2428.89
646.27	2424.80
646.46	2664.41
646.65	2240.48
646.84	2523.10
647.03	2326.49
647.22	2580.44
647.40	2504.67
647.59	2437.08
647.78	2271.20
647.97	2379.74
648.16	2410.46
648.35	2705.37
648.54	2539.48
648.73	2377.69
648.91	2596.82
649.10	2510.81
649.29	2428.89
649.48	2371.55
649.67	2523.10
649.86	2480.09
650.05	2500.57
650.23	2707.41
650.42	2623.45
650.61	2727.89
650.80	2645.98
650.99	2754.52
651.18	2684.89
651.36	2676.70
651.55	2480.09
651.74	2650.07
651.93	2416.60
652.12	2457.56
652.31	2471.90
652.49	2545.63
652.68	2441.18
652.87	2688.98
653.06	2582.49
653.25	2664.41
653.44	2469.85
653.62	2717.65
653.81	2410.46
654.00	2455.51
654.19	2586.58
654.38	2848.72
654.56	2506.71
654.75	2426.84
654.94	2627.54
655.13	2539.48
655.32	2469.85
655.51	2592.73
655.69	2488.28
655.88	2572.25
656.07	2351.07
656.26	2512.86
656.45	2342.88
656.63	2453.47
656.82	2449.37
657.01	2609.11
657.20	2351.07
657.38	2656.22
657.57	2392.03
657.76	2279.39
657.95	2621.40
658.14	2387.93
658.32	2498.52
658.51	2351.07
658.70	2514.91
658.89	2426.84
659.08	2480.09
659.26	2668.50
659.45	2385.88
659.64	2697.17
659.83	2523.10
660.01	2852.82
660.20	2484.19
660.39	2678.74
660.58	2254.81
660.76	2471.90
660.95	2408.41
661.14	2537.43
661.33	2351.07
661.51	2383.84
661.70	2457.56
661.89	2529.24
662.08	2457.56
662.26	2299.87
662.45	2373.60
662.64	2820.05
662.83	2457.56
663.01	2324.44
663.20	2432.99
663.39	2662.36
663.58	2416.60
663.76	2385.88
663.95	2588.63
664.14	2473.95
664.32	2453.47
664.51	2396.12
664.70	2248.67
664.89	2486.23
665.07	2340.83
665.26	2531.29
665.45	2326.49
665.64	2584.54
665.82	2486.23
666.01	2580.44
666.20	2297.82
666.38	2705.37
666.57	2654.17
666.76	3997.64
666.95	9508.72
667.13	17579.76
667.32	22294.19
667.51	25929.33
667.69	27479.64
667.88	24411.79
668.07	17002.24
668.25	14282.53
668.44	11894.60
668.63	10248.04
668.81	9113.46
669.00	7886.73
669.19	6895.51
669.38	6113.19
669.56	5070.77
669.75	4421.56
669.94	3702.73
670.12	3182.54
670.31	2897.88
670.50	2748.37
670.68	2664.41
670.87	2578.39
671.06	2521.05
671.24	2582.49
671.43	2731.99
671.62	2582.49
671.80	2449.37
671.99	2541.53
672.18	2521.05
672.36	2605.02
672.55	2525.15
672.74	2506.71
672.92	2430.94
673.11	2586.58
673.29	2310.11
673.48	2537.43
673.67	2453.47
673.85	2543.58
674.04	2371.55
674.23	2555.86
674.41	2719.70
674.60	2365.40
674.79	2256.86
674.97	2310.11
675.16	2508.76
675.34	2635.74
675.53	2482.14
675.72	2504.67
675.90	2688.98
676.09	2455.51
676.28	2529.24
676.46	2308.06
676.65	2584.54
676.83	2392.03
677.02	2521.05
677.21	2490.33
677.39	2596.82
677.58	2318.30
677.77	2328.54
677.95	2301.92
678.14	2465.75
678.32	2435.03
678.51	2463.71
678.70	2664.41
678.88	2410.46
679.07	2441.18
679.25	2508.76
679.44	2402.27
679.63	2365.40
679.81	2572.25
680.00	2613.21
680.18	2551.77
680.37	2654.17
680.55	2353.12
680.74	2389.98
680.93	2197.47
681.11	2529.24
681.30	2523.10
681.48	2514.91
681.67	2412.51
681.85	2473.95
682.04	2406.36
682.23	2531.29
682.41	2496.47
682.60	2465.75
682.78	2478.04
682.97	2389.98
683.15	2523.10
683.34	2549.72
683.53	2637.78
683.71	2383.84
683.90	2580.44
684.08	2678.74
684.27	2416.60
684.45	2547.67
684.64	2609.11
684.82	2463.71
685.01	2551.77
685.19	2547.67
685.38	2637.78
685.57	2473.95
685.75	2512.86
685.94	2455.51
686.12	2369.50
686.31	2349.02
686.49	2688.98
686.68	2312.16
686.86	2541.53
687.05	2449.37
687.23	2699.22
687.42	2410.46
687.60	2332.64
687.79	2545.63
687.97	2600.92
688.16	2693.08
688.34	2617.30
688.53	2306.01
688.71	2478.04
688.90	2629.59
689.08	2426.84
689.27	2326.49
689.45	2557.91
689.64	2500.57
689.82	2478.04
690.01	2521.05
690.19	2469.85
690.38	2488.28
690.56	2633.69
690.75	2375.64
690.93	2404.32
691.12	2457.56
691.30	2414.56
691.49	2420.70
691.67	2490.33
691.86	2707.41
692.04	2424.80
692.23	2504.67
692.41	2545.63
692.60	2777.05
692.78	2627.54
692.97	2564.06
693.15	2572.25
693.34	2684.89
693.52	2547.67
693.71	2457.56
693.89	2404.32
694.08	2375.64
694.26	2586.58
694.44	2617.30
694.63	2590.68
694.81	2383.84
695.00	2473.95
695.18	2701.27
695.37	2793.43
695.55	2461.66
695.74	2363.36
695.92	2412.51
696.10	2682.84
696.29	2332.64
696.47	2510.81
696.66	2338.78
696.84	2404.32
697.03	2494.43
697.21	2645.98
697.40	3731.40
697.58	2660.31
697.76	2312.16
697.95	2473.95
698.13	2334.68
698.32	2398.17
698.50	2463.71
698.68	2475.99
698.87	2510.81
699.05	2725.85
699.24	2480.09
699.42	2332.64
699.61	2439.13
699.79	2465.75
699.97	2494.43
700.16	2316.25
700.34	2363.36
700.53	2555.86
700.71	2592.73
700.89	2549.72
701.08	2523.10
701.26	2424.80
701.45	2947.03
701.63	2355.16
701.81	2389.98
702.00	2443.23
702.18	2447.32
702.37	2504.67
702.55	2719.70
702.73	2627.54
702.92	2613.21
703.10	2772.95
703.28	2699.22
703.47	2469.85
703.65	2762.71
703.84	2662.36
704.02	2545.63
704.20	2705.37
704.39	2371.55
704.57	2471.90
704.75	2711.51
704.94	2619.35
705.12	2543.58
705.30	2908.12
705.49	5429.17
705.67	12625.73
705.86	20324.04
706.04	24202.89
706.22	27180.64
706.41	27307.62
706.59	22232.75
706.77	16049.93
706.96	13625.14
707.14	12146.50
707.32	10401.63
707.51	9277.30
707.69	7546.76
707.87	6033.32
708.06	4902.84
708.24	4050.88
708.42	3401.68
708.61	3268.56
708.79	2629.59
708.97	2658.26
709.16	2664.41
709.34	2609.11
709.52	2475.99
709.71	2486.23
709.89	2629.59
710.07	2428.89
710.26	2414.56
710.44	2488.28
710.62	2586.58
710.80	2500.57
710.99	2555.86
711.17	2512.86
711.35	2357.21
711.54	2369.50
711.72	2545.63
711.90	2516.95
712.09	2490.33
712.27	2453.47
712.45	2457.56
712.63	2453.47
712.82	2541.53
713.00	2504.67
713.18	2641.88
713.37	2645.98
713.55	2463.71
713.73	2502.62
713.91	2535.39
714.10	2410.46
714.28	2523.10
714.46	2490.33
714.65	2537.43
714.83	2482.14
715.01	2521.05
715.19	2545.63
715.38	2342.88
715.56	2531.29
715.74	2340.83
715.92	2381.79
716.11	2637.78
716.29	2246.62
716.47	2461.66
716.65	2449.37
716.84	2340.83
717.02	2527.19
717.20	2269.15
717.38	2408.41
717.57	2584.54
717.75	2459.61
717.93	2514.91
718.11	2596.82
718.30	2355.16
718.48	2533.34
718.66	2594.78
718.84	2641.88
719.03	2424.80
719.21	2273.25
719.39	2637.78
719.57	2453.47
719.75	2555.86
719.94	2332.64
720.12	2473.95
720.30	2527.19
720.48	2553.82
720.67	2469.85
720.85	2258.91
721.03	2459.61
721.21	2383.84
721.39	2615.26
721.58	2576.34
721.76	2463.71
721.94	2475.99
722.12	2439.13
722.30	2676.70
722.49	2480.09
722.67	2463.71
722.85	2533.34
723.03	2301.92
723.21	2488.28
723.40	2500.57
723.58	2629.59
723.76	2658.26
723.94	2564.06
724.12	2580.44
724.30	2693.08
724.49	2654.17
724.67	2400.22
724.85	2553.82
725.03	2351.07
725.21	2596.82
725.40	2594.78
725.58	2375.64
725.76	2607.06
725.94	2537.43
726.12	2400.22
726.30	2455.51
726.49	2392.03
726.67	2482.14
726.85	2527.19
727.03	2922.45
727.21	4210.62
727.39	5781.42
727.57	6569.88
727.76	7108.50
727.94	7511.95
728.12	6836.12
728.30	5537.71
728.48	4849.59
728.66	4448.19
728.84	4126.66
729.03	3514.31
729.21	3211.22
729.39	2990.03
729.57	2654.17
729.75	2715.61
729.93	2719.70
730.11	2514.91
730.30	2418.65
730.48	2537.43
730.66	2639.83
730.84	2553.82
731.02	2539.48
731.20	2398.17
731.38	2455.51
731.56	2346.97
731.74	2314.20
731.93	2514.91
732.11	2435.03
732.29	2426.84
732.47	2541.53
732.65	2424.80
732.83	2674.65
733.01	2432.99
733.19	2338.78
733.37	2547.67
733.56	2539.48
733.74	2381.79
733.92	2650.07
734.10	2453.47
734.28	2578.39
734.46	2224.09
734.64	2457.56
734.82	2373.60
735.00	2359.26
735.18	2453.47
735.36	2519.00
735.54	2486.23
735.73	2441.18
735.91	2570.20
736.09	2584.54
736.27	2465.75
736.45	2478.04
736.63	2193.37
736.81	2371.55
736.99	2613.21
737.17	2643.93
737.35	2424.80
737.53	2564.06
737.71	2508.76
737.89	2611.16
738.07	2402.27
738.25	2414.56
738.43	2279.39
738.61	2430.94
738.80	2351.07
738.98	2392.03
739.16	2553.82
739.34	2430.94
739.52	2619.35
739.70	2453.47
739.88	2566.10
740.06	2523.10
740.24	2215.90
740.42	2678.74
740.60	2273.25
740.78	2439.13
740.96	2320.35
741.14	2447.32
741.32	2527.19
741.50	2340.83
741.68	2670.55
741.86	2662.36
742.04	2351.07
742.22	2328.54
742.40	2504.67
742.58	2535.39
742.76	2367.45
742.94	2523.10
743.12	2256.86
743.30	2519.00
743.48	2580.44
743.66	2359.26
743.84	2490.33
744.02	2482.14
744.20	2439.13
744.38	2408.41
744.56	2392.03
744.74	2662.36
744.92	2535.39
745.10	2676.70
745.28	2521.05
745.46	2678.74
745.64	2424.80
745.82	2570.20
746.00	2441.18
746.18	2572.25
746.36	2340.83
746.54	2490.33
746.72	2459.61
746.90	2342.88
747.08	2635.74
747.26	2490.33
747.44	2496.47
747.62	2535.39
747.80	2482.14
747.98	2572.25
748.15	2469.85
748.33	2674.65
748.51	2457.56
748.69	2596.82
748.87	2293.72
749.05	2430.94
749.23	2402.27
749.41	2494.43
749.59	2445.27
749.77	2621.40
749.95	2418.65
750.13	2498.52
750.31	2527.19
750.49	2516.95
750.67	2531.29
750.85	2633.69
751.03	2512.86
751.20	2754.52
751.38	2492.38
751.56	2473.95
751.74	2449.37
751.92	2549.72
752.10	2293.72
752.28	2574.30
752.46	2367.45
752.64	2506.71
752.82	2506.71
753.00	2596.82
753.18	2359.26
753.35	2463.71
753.53	2482.14
753.71	2457.56
753.89	2555.86
754.07	2545.63
754.25	2527.19
754.43	2490.33
754.61	2365.40
754.79	2527.19
754.97	2510.81
755.14	2582.49
755.32	2291.68
755.50	2471.90
755.68	2508.76
755.86	2344.92
756.04	2367.45
756.22	2295.77
756.40	2531.29
756.57	2633.69
756.75	2449.37
756.93	2643.93
757.11	2594.78
757.29	2330.59
757.47	2342.88
757.65	2330.59
757.82	2174.94
758.00	2404.32
758.18	2400.22
758.36	2367.45
758.54	2701.27
758.72	2322.40
758.90	2564.06
759.07	2568.15
759.25	2389.98
759.43	2482.14
759.61	2351.07
759.79	3493.83
759.97	2521.05
760.15	2408.41
760.32	2381.79
760.50	2533.34
760.68	2645.98
760.86	2324.44
761.04	2564.06
761.22	2629.59
761.39	2541.53
761.57	2508.76
761.75	2504.67
761.93	2555.86
762.11	2443.23
762.28	2467.80
762.46	2437.08
762.64	2645.98
762.82	2349.02
763.00	2441.18
763.18	2600.92
763.35	2308.06
763.53	2611.16
763.71	2488.28
763.89	2457.56
764.07	2428.89
764.24	2523.10
764.42	2549.72
764.60	2420.70
764.78	2533.34
764.96	2506.71
765.13	2545.63
765.31	2494.43
765.49	2578.39
765.67	2396.12
765.84	2357.21
766.02	2437.08
766.20	2365.40
766.38	2551.77
766.56	2564.06
766.73	2572.25
766.91	2449.37
767.09	2498.52
767.27	2514.91
767.44	2351.07
767.62	2586.58
767.80	2451.42
767.98	2365.40
768.15	2441.18
768.33	2639.83
768.51	2578.39
768.69	2510.81
768.87	2543.58
769.04	2467.80
769.22	2736.09
769.40	2666.46
769.58	2660.31
769.75	2586.58
769.93	2617.30
770.11	2392.03
770.28	2353.12
770.46	2549.72
770.64	2533.34
770.82	2453.47
770.99	2402.27
771.17	2633.69
771.35	2443.23
771.53	2549.72
771.70	2412.51
771.88	2529.24
772.06	2410.46
772.23	2418.65
772.41	2551.77
772.59	2463.71
772.77	2326.49
772.94	2355.16
773.12	2504.67
773.30	2445.27
773.47	2510.81
773.65	2340.83
773.83	2670.55
774.01	2420.70
774.18	2193.37
774.36	2490.33
774.54	2306.01
774.71	2523.10
774.89	2236.38
775.07	2400.22
775.24	2349.02
775.42	2475.99
775.60	2672.60
775.78	2256.86
775.95	2371.55
776.13	2260.96
776.31	2226.14
776.48	2502.62
776.66	2570.20
776.84	2377.69
777.01	2422.75
777.19	2392.03
777.37	2332.64
777.54	2482.14
777.72	2715.61
777.90	2445.27
778.07	2269.15
778.25	2949.08
778.43	2609.11
778.60	2408.41
778.78	2574.30
778.96	2662.36
779.13	2258.91
779.31	2557.91
779.49	2449.37
779.66	2514.91
779.84	2465.75
780.01	2387.93
780.19	2324.44
780.37	2596.82
780.54	2519.00
780.72	2371.55
780.90	2459.61
781.07	2502.62
781.25	2392.03
781.43	2641.88
781.60	2377.69
781.78	2564.06
781.95	2531.29
782.13	2414.56
782.31	2525.15
782.48	2310.11
782.66	2430.94
782.83	2684.89
783.01	2508.76
783.19	2578.39
783.36	2428.89
783.54	2279.39
783.72	2523.10
783.89	2404.32
784.07	2535.39
784.24	2488.28
784.42	2607.06
784.60	2510.81
784.77	2539.48
784.95	2281.44
785.12	2437.08
785.30	2453.47
785.47	2400.22
785.65	2389.98
785.83	2471.90
786.00	2383.84
786.18	2545.63
786.35	2258.91
786.53	2334.68
786.71	2607.06
786.88	2531.29
787.06	2465.75
787.23	2443.23
787.41	2379.74
787.58	2484.19
787.76	2381.79
787.94	2529.24
788.11	2439.13
788.29	2383.84
788.46	2353.12
788.64	2342.88
788.81	2402.27
788.99	2346.97
789.16	2381.79
789.34	2453.47
789.52	2346.97
789.69	2400.22
789.87	2213.85
790.04	2424.80
790.22	2521.05
790.39	2740.18
790.57	2316.25
790.74	2373.60
790.92	2488.28
791.09	2326.49
791.27	2502.62
791.44	2613.21
791.62	2478.04
791.79	2535.39
791.97	2500.57
792.15	2801.62
792.32	2539.48
792.50	2613.21
792.67	2621.40
792.85	2598.87
793.02	2467.80
793.20	2404.32
793.37	2351.07
793.55	2367.45
793.72	2310.11
793.90	2510.81
794.07	2371.55
794.25	2369.50
794.42	2529.24
794.60	2432.99
794.77	2500.57
794.95	2584.54
795.12	2512.86
795.30	2426.84
795.47	2291.68
795.65	2791.38
795.82	2545.63
796.00	2326.49
796.17	2346.97
796.34	2447.32
796.52	2500.57
796.69	2639.83
796.87	2492.38
797.04	2471.90
797.22	2521.05
797.39	2514.91
797.57	2619.35
797.74	2453.47
797.92	2600.92
798.09	2430.94
798.27	2576.34
798.44	2473.95
798.62	2504.67
798.79	2592.73
798.96	2514.91
799.14	2486.23
799.31	2824.15
799.49	2461.66
799.66	2455.51
799.84	2410.46
800.01	2404.32
800.19	2490.33
800.36	2228.19
800.53	2500.57
800.71	2572.25
800.88	2662.36
801.06	2389.98
801.23	2369.50
801.41	2463.71
801.58	2394.08
801.75	2449.37
801.93	2500.57
802.10	2611.16
802.28	2400.22
802.45	2416.60
802.63	2484.19
802.80	2611.16
802.97	2482.14
803.15	2506.71
803.32	2385.88
803.50	2379.74
803.67	2385.88
803.84	2328.54
804.02	2502.62
804.19	2432.99
804.37	2269.15
804.54	2349.02
804.71	2400.22
804.89	2447.32
805.06	2336.73
805.24	2299.87
805.41	2379.74
805.58	2340.83
805.76	2717.65
805.93	2484.19
806.10	2504.67
806.28	2506.71
806.45	2437.08
806.63	2586.58
806.80	2523.10
806.97	2514.91
807.15	2547.67
807.32	2432.99
807.49	2535.39
807.67	2363.36
807.84	2453.47
808.01	2265.05
808.19	2629.59
808.36	2684.89
808.54	2416.60
808.71	2367.45
808.88	2486.23
809.06	2576.34
809.23	2695.13
809.40	2412.51
809.58	2504.67
809.75	2463.71
809.92	2371.55
810.10	2668.50
810.27	2451.42
810.44	2568.15
810.62	2592.73
810.79	2441.18
810.96	2396.12
811.14	2404.32
811.31	2488.28
811.48	2502.62
811.66	2420.70
811.83	2525.15
812.00	2572.25
812.18	2516.95
812.35	2777.05
812.52	2461.66
812.69	2367.45
812.87	2424.80
813.04	2318.30
813.21	2514.91
813.39	2410.46
813.56	2316.25
813.73	2584.54
813.91	2351.07
814.08	2490.33
814.25	2449.37
814.42	2295.77
814.60	2482.14
814.77	2510.81
814.94	2416.60
815.12	2475.99
815.29	2654.17
815.46	2387.93
815.63	2428.89
815.81	2424.80
815.98	2465.75
816.15	2367.45
816.33	2473.95
816.50	2353.12
816.67	2494.43
816.84	2504.67
817.02	2291.68
817.19	2478.04
817.36	2514.91
817.53	2527.19
817.71	2336.73
817.88	2547.67
818.05	2484.19
818.22	2455.51
818.40	2621.40
818.57	2383.84
818.74	2564.06
818.91	2484.19
819.09	2559.96
819.26	2605.02
819.43	2351.07
819.60	2381.79
819.78	2617.30
819.95	2478.04
820.12	2424.80
820.29	2629.59
820.47	2592.73
820.64	2377.69
820.81	2324.44
820.98	2428.89
821.15	2475.99
821.33	2502.62
821.50	2252.77
821.67	2490.33
821.84	2381.79
822.02	2512.86
822.19	2660.31
822.36	2365.40
822.53	2332.64
822.70	2346.97
822.88	2465.75
823.05	2666.46
823.22	2494.43
823.39	2516.95
823.56	2516.95
823.74	2674.65
823.91	2371.55
824.08	2359.26
824.25	2316.25
824.42	2723.80
824.60	2318.30
824.77	2508.76
824.94	2506.71
825.11	2506.71
825.28	2318.30
825.45	2492.38
825.63	2529.24
825.80	2381.79
825.97	2539.48
826.14	2465.75
826.31	2283.49
826.48	2504.67
826.66	2383.84
826.83	2519.00
827.00	2342.88
827.17	2371.55
827.34	2449.37
827.51	2396.12
827.69	2439.13
827.86	2351.07
828.03	2383.84
828.20	2482.14
828.37	2371.55
828.54	2430.94
828.71	2412.51
828.89	2613.21
829.06	2514.91
829.23	2627.54
829.40	2416.60
829.57	2482.14
829.74	2535.39
829.91	2408.41
830.09	2355.16
830.26	2467.80
830.43	2674.65
830.60	2410.46
830.77	2494.43
830.94	2527.19
831.11	2584.54
831.28	2441.18
831.46	2553.82
831.63	2373.60
831.80	2537.43
831.97	2371.55
832.14	2467.80
832.31	2512.86
832.48	2480.09
832.65	2650.07
832.82	2527.19
832.99	2447.32
833.17	2430.94
833.34	2713.56
833.51	2510.81
833.68	2277.34
833.85	2600.92
834.02	2420.70
834.19	2312.16
834.36	2359.26
834.53	2406.36
834.70	2576.34
834.87	2500.57
835.04	2432.99
835.22	2402.27
835.39	2482.14
835.56	2346.97
835.73	2332.64
835.90	2539.48
836.07	2394.08
836.24	2478.04
836.41	2330.59
836.58	2408.41
836.75	2584.54
836.92	2392.03
837.09	2375.64
837.26	2639.83
837.43	2500.57
837.60	2465.75
837.77	2428.89
837.94	2523.10
838.12	2613.21
838.29	2336.73
838.46	2260.96
838.63	2373.60
838.80	2645.98
838.97	2445.27
839.14	2336.73
839.31	2482.14
839.48	2588.63
839.65	2318.30
839.82	2461.66
839.99	2508.76
840.16	2410.46
840.33	2392.03
840.50	2435.03
840.67	2363.36
840.84	2244.57
841.01	2443.23
841.18	2338.78
841.35	2504.67
841.52	2625.50
841.69	2594.78
841.86	2406.36
842.03	2482.14
842.20	2598.87
842.37	2381.79
842.54	2383.84
842.71	2447.32
842.88	2379.74
843.05	2490.33
843.22	2330.59
843.39	2564.06
843.56	2318.30
843.73	2420.70
843.90	2371.55
844.07	2512.86
844.24	2508.76
844.41	2441.18
844.58	2392.03
844.75	2498.52
844.92	2504.67
845.09	2326.49
845.26	2324.44
845.43	2555.86
845.60	2416.60
845.77	2496.47
845.94	2455.51
846.10	2531.29
846.27	2324.44
846.44	2273.25
846.61	2306.01
846.78	2553.82
846.95	2527.19
847.12	2332.64
847.29	2461.66
847.46	2453.47
847.63	2553.82
847.80	2338.78
847.97	2371.55
848.14	2727.89
848.31	2457.56
848.48	2248.67
848.65	2437.08
848.82	2381.79
848.98	2734.04
849.15	2453.47
849.32	2480.09
849.49	2541.53
849.66	2453.47
849.83	2449.37
850.00	2265.05
850.17	2570.20
850.34	2404.32
850.51	2299.87
850.68	2379.74
850.85	2762.71
851.01	2506.71
851.18	2344.92
851.35	2432.99
851.52	2580.44
851.69	2660.31
851.86	2289.63
852.03	2400.22
852.20	2566.10
852.37	2387.93
852.53	2230.24
852.70	2353.12
852.87	2400.22
853.04	2473.95
853.21	2410.46
853.38	2590.68
853.55	2598.87
853.72	2633.69
853.89	2338.78
854.05	2377.69
854.22	2443.23
854.39	2428.89
854.56	2383.84
854.73	2508.76
854.90	2359.26
855.07	2447.32
855.23	2344.92
855.40	2265.05
855.57	2502.62
855.74	2260.96
855.91	2590.68
856.08	2240.48
856.25	2289.63
856.41	2351.07
856.58	2373.60
856.75	2359.26
856.92	2373.60
857.09	2557.91
857.26	2195.42
857.42	2398.17
857.59	2578.39
857.76	2475.99
857.93	2430.94
858.10	2412.51
858.27	2308.06
858.43	2408.41
858.60	2363.36
858.77	2295.77
858.94	2416.60
859.11	2613.21
859.27	2297.82
859.44	2338.78
859.61	2668.50
859.78	2527.19
859.95	2349.02
860.12	2394.08
860.28	2711.51
860.45	2674.65
860.62	2359.26
860.79	2420.70
860.95	2461.66
861.12	2338.78
861.29	2328.54
861.46	2277.34
861.63	2473.95
861.79	2502.62
861.96	2256.86
862.13	2375.64
862.30	2684.89
862.47	2361.31
862.63	2318.30
862.80	2514.91
862.97	2660.31
863.14	2537.43
863.30	2490.33
863.47	2314.20
863.64	2688.98
863.81	2592.73
863.97	2328.54
864.14	2424.80
864.31	2478.04
864.48	2441.18
864.65	2383.84
864.81	2439.13
864.98	2578.39
865.15	2602.97
865.32	2437.08
865.48	2514.91
865.65	2617.30
865.82	2432.99
865.98	2396.12
866.15	2439.13
866.32	2457.56
866.49	2488.28
866.65	2541.53
866.82	2377.69
866.99	2482.14
867.16	2338.78
867.32	2371.55
867.49	2408.41
867.66	2416.60
867.83	2402.27
867.99	2324.44
868.16	2402.27
868.33	2293.72
868.49	2416.60
868.66	2338.78
868.83	2459.61
868.99	2525.15
869.16	2445.27
869.33	2490.33
869.50	2482.14
869.66	2461.66
869.83	2408.41
870.00	2314.20
870.16	2488.28
870.33	2453.47
870.50	2658.26
870.66	2349.02
870.83	2496.47
871.00	2496.47
871.17	2572.25
871.33	2422.75
871.50	2357.21
871.67	2482.14
871.83	2392.03
872.00	2486.23
872.17	2389.98
872.33	2672.60
872.50	2701.27
872.67	2334.68
872.83	2338.78
873.00	2564.06
873.17	2467.80
873.33	2535.39
873.50	2469.85
873.67	2387.93
873.83	2445.27
874.00	2301.92
874.16	2572.25
874.33	2439.13
874.50	2242.53
874.66	2385.88
874.83	2478.04
875.00	2588.63
875.16	2545.63
875.33	2510.81
875.50	2240.48
875.66	2455.51
875.83	2488.28
875.99	2449.37
876.16	2379.74
876.33	2371.55
876.49	2414.56
876.66	2463.71
876.83	2424.80
876.99	2267.10
877.16	2486.23
877.32	2336.73
877.49	2312.16
877.66	2529.24
877.82	2676.70
877.99	2482.14
878.15	2500.57
878.32	2547.67
878.49	2578.39
878.65	2312.16
878.82	2584.54
878.98	2439.13
879.15	2605.02
879.32	2537.43
879.48	2396.12
879.65	2486.23
879.81	2430.94
879.98	2381.79
880.15	2385.88
880.31	2600.92
880.48	2326.49
880.64	2521.05
880.81	2453.47
880.97	2645.98
881.14	2637.78
881.31	2322.40
881.47	2588.63
881.64	2412.51
881.80	2330.59
881.97	2529.24
882.13	2392.03
882.30	2363.36
882.47	2375.64
882.63	2346.97
882.80	2346.97
882.96	2408.41
883.13	2609.11
883.29	2424.80
883.46	2381.79
883.62	2680.79
883.79	2494.43
883.95	2459.61
884.12	2396.12
884.29	2602.97
884.45	2459.61
884.62	2457.56
884.78	2326.49
884.95	2680.79
885.11	2398.17
885.28	2523.10
885.44	2375.64
885.61	2516.95
885.77	2586.58
885.94	2455.51
886.10	2457.56
886.27	2545.63
886.43	2625.50
886.60	2570.20
886.76	2342.88
886.93	2363.36
887.09	2500.57
887.26	2220.00
887.42	2432.99
887.59	2668.50
887.75	2656.22
887.92	2580.44
888.08	2502.62
888.25	2613.21
888.41	2574.30
888.58	2455.51
888.74	2351.07
888.91	2318.30
>>>>>End Processed Spectral Data<<<<<
