SpectraSuite Data File
++++++++++++++++++++++++++++++++++++
Date: Thu May 05 14:42:01 CEST 2016
User: root
Dark Spectrum Present: No
Reference Spectrum Present: No
Number of Sampled Component Spectra: 1
Spectrometers: USB4C02835
Integration Time (usec): 100000 (USB4C02835)
Spectra Averaged: 1 (USB4C02835)
Boxcar Smoothing: 0 (USB4C02835)
Correct for Electrical Dark: No (USB4C02835)
Strobe/Lamp Enabled: No (USB4C02835)
Correct for Detector Non-linearity: No (USB4C02835)
Correct for Stray Light: No (USB4C02835)
Number of Pixels in Processed Spectrum: 3648
>>>>>Begin Processed Spectral Data<<<<<
177.47	1886.18
177.69	1886.18
177.91	1886.18
178.13	1867.75
178.36	1916.90
178.58	2291.68
178.80	2531.29
179.02	2265.05
179.24	2437.08
179.46	2312.16
179.68	2406.36
179.90	2402.27
180.13	2475.99
180.35	2258.91
180.57	2367.45
180.79	2600.92
181.01	2461.66
181.23	2363.36
181.45	2496.47
181.67	2519.00
181.90	2578.39
182.12	2359.26
182.34	2260.96
182.56	2543.58
182.78	2527.19
183.00	2322.40
183.22	2334.68
183.44	2195.42
183.66	2846.68
183.89	2510.81
184.11	2351.07
184.33	2543.58
184.55	2547.67
184.77	2269.15
184.99	2330.59
185.21	2523.10
185.43	2820.05
185.65	2392.03
185.87	2318.30
186.10	2772.95
186.32	2648.02
186.54	2461.66
186.76	2402.27
186.98	2602.97
187.20	2441.18
187.42	2326.49
187.64	2373.60
187.86	2537.43
188.08	2562.01
188.30	2353.12
188.52	2318.30
188.75	2674.65
188.97	2568.15
189.19	2377.69
189.41	2400.22
189.63	2494.43
189.85	2478.04
190.07	2291.68
190.29	2187.23
190.51	2588.63
190.73	2346.97
190.95	2521.05
191.17	2379.74
191.39	2289.63
191.61	2447.32
191.84	2359.26
192.06	2512.86
192.28	2269.15
192.50	2949.08
192.72	2441.18
192.94	2463.71
193.16	2658.26
193.38	2545.63
193.60	2299.87
193.82	2318.30
194.04	2615.26
194.26	2559.96
194.48	2394.08
194.70	2326.49
194.92	2422.75
195.14	2525.15
195.36	2453.47
195.58	2367.45
195.80	2535.39
196.02	2428.89
196.24	2338.78
196.46	2387.93
196.69	2459.61
196.91	2820.05
197.13	2377.69
197.35	2326.49
197.57	2740.18
197.79	2559.96
198.01	2430.94
198.23	2365.40
198.45	2555.86
198.67	2308.06
198.89	2285.53
199.11	2449.37
199.33	2400.22
199.55	2265.05
199.77	2334.68
199.99	2447.32
200.21	2459.61
200.43	2492.38
200.65	2263.01
200.87	2195.42
201.09	2482.14
201.31	2531.29
201.53	2396.12
201.75	2373.60
201.97	2488.28
202.19	2463.71
202.41	2475.99
202.63	2523.10
202.85	2519.00
203.07	2514.91
203.29	2338.78
203.51	2232.29
203.73	2389.98
203.95	2801.62
204.17	2396.12
204.39	2432.99
204.61	2463.71
204.83	2473.95
205.05	2498.52
205.27	2422.75
205.49	2742.23
205.71	2414.56
205.93	2226.14
206.15	2314.20
206.37	2455.51
206.59	2412.51
206.81	2258.91
207.03	2246.62
207.25	2383.84
207.47	2617.30
207.69	2353.12
207.91	2449.37
208.13	2678.74
208.34	2402.27
208.56	2303.96
208.78	2375.64
209.00	2457.56
209.22	2406.36
209.44	2408.41
209.66	2316.25
209.88	2488.28
210.10	2514.91
210.32	2277.34
210.54	2471.90
210.76	2504.67
210.98	2549.72
211.20	2260.96
211.42	2381.79
211.64	2570.20
211.86	2512.86
212.08	2387.93
212.30	2357.21
212.52	2416.60
212.74	2568.15
212.96	2326.49
213.17	2389.98
213.39	2609.11
213.61	2703.32
213.83	2377.69
214.05	2392.03
214.27	2660.31
214.49	2394.08
214.71	2287.58
214.93	2455.51
215.15	2523.10
215.37	2588.63
215.59	2168.80
215.81	2408.41
216.03	2691.03
216.24	2475.99
216.46	2326.49
216.68	2441.18
216.90	2656.22
217.12	2609.11
217.34	2265.05
217.56	2469.85
217.78	2650.07
218.00	2445.27
218.22	2400.22
218.44	2408.41
218.66	2564.06
218.87	2717.65
219.09	2310.11
219.31	2432.99
219.53	2469.85
219.75	2473.95
219.97	2416.60
220.19	2408.41
220.41	2512.86
220.63	2666.46
220.85	2398.17
221.06	2349.02
221.28	2641.88
221.50	2605.02
221.72	2252.77
221.94	2250.72
222.16	2482.14
222.38	2549.72
222.60	2346.97
222.82	2359.26
223.03	2549.72
223.25	2426.84
223.47	2437.08
223.69	2541.53
223.91	2537.43
224.13	2525.15
224.35	2297.82
224.57	2424.80
224.78	2551.77
225.00	2398.17
225.22	2310.11
225.44	2267.10
225.66	2537.43
225.88	2398.17
226.10	2510.81
226.32	2381.79
226.53	2691.03
226.75	2445.27
226.97	2400.22
227.19	2318.30
227.41	2412.51
227.63	2404.32
227.85	2277.34
228.06	2357.21
228.28	2502.62
228.50	2547.67
228.72	2187.23
228.94	2342.88
229.16	2209.76
229.37	2367.45
229.59	2215.90
229.81	2488.28
230.03	2457.56
230.25	2377.69
230.47	2230.24
230.69	2326.49
230.90	2553.82
231.12	2437.08
231.34	2383.84
231.56	2396.12
231.78	2301.92
232.00	2482.14
232.21	2275.29
232.43	2367.45
232.65	2273.25
232.87	2500.57
233.09	2260.96
233.30	2324.44
233.52	2633.69
233.74	2414.56
233.96	2308.06
234.18	2469.85
234.40	2432.99
234.61	2768.85
234.83	2297.82
235.05	2240.48
235.27	2783.19
235.49	2594.78
235.70	2285.53
235.92	2451.42
236.14	2578.39
236.36	2768.85
236.58	2256.86
236.79	2408.41
237.01	2455.51
237.23	2412.51
237.45	2535.39
237.67	2295.77
237.88	2502.62
238.10	2738.13
238.32	2355.16
238.54	2318.30
238.76	2516.95
238.97	2359.26
239.19	2201.57
239.41	2426.84
239.63	2498.52
239.85	2439.13
240.06	2400.22
240.28	2326.49
240.50	2584.54
240.72	2457.56
240.93	2367.45
241.15	2420.70
241.37	2498.52
241.59	2543.58
241.81	2342.88
242.02	2383.84
242.24	2469.85
242.46	2588.63
242.68	2285.53
242.89	2314.20
243.11	2658.26
243.33	2447.32
243.55	2404.32
243.76	2355.16
243.98	2463.71
244.20	2519.00
244.42	2392.03
244.64	2342.88
244.85	2389.98
245.07	2394.08
245.29	2285.53
245.51	2400.22
245.72	2602.97
245.94	2568.15
246.16	2357.21
246.38	2389.98
246.59	2392.03
246.81	2334.68
247.03	2318.30
247.24	2191.33
247.46	2457.56
247.68	2555.86
247.90	2303.96
248.11	2318.30
248.33	2592.73
248.55	2445.27
248.77	2406.36
248.98	2392.03
249.20	2727.89
249.42	2459.61
249.64	2367.45
249.85	2312.16
250.07	2430.94
250.29	2531.29
250.50	2441.18
250.72	2220.00
250.94	2553.82
251.16	2699.22
251.37	2424.80
251.59	2461.66
251.81	2508.76
252.02	2703.32
252.24	2236.38
252.46	2465.75
252.68	2428.89
252.89	2467.80
253.11	2211.81
253.33	2516.95
253.54	2672.60
253.76	2287.58
253.98	2263.01
254.20	2314.20
254.41	2408.41
254.63	2482.14
254.85	2211.81
255.06	2396.12
255.28	2494.43
255.50	2408.41
255.71	2283.49
255.93	2269.15
256.15	2453.47
256.36	2478.04
256.58	2340.83
256.80	2318.30
257.02	2510.81
257.23	2457.56
257.45	2326.49
257.67	2432.99
257.88	2449.37
258.10	2525.15
258.32	2357.21
258.53	2373.60
258.75	2707.41
258.97	2422.75
259.18	2310.11
259.40	2346.97
259.62	2719.70
259.83	2648.02
260.05	2379.74
260.27	2873.30
260.48	2523.10
260.70	2346.97
260.92	2295.77
261.13	2357.21
261.35	2502.62
261.57	2541.53
261.78	2248.67
262.00	2263.01
262.22	2531.29
262.43	2314.20
262.65	2330.59
262.86	2396.12
263.08	2858.96
263.30	2521.05
263.51	2193.37
263.73	2318.30
263.95	2650.07
264.16	2435.03
264.38	2228.19
264.60	2275.29
264.81	2459.61
265.03	2684.89
265.25	2645.98
265.46	2320.35
265.68	2596.82
265.89	2584.54
266.11	2209.76
266.33	2365.40
266.54	2580.44
266.76	2564.06
266.98	2402.27
267.19	2453.47
267.41	2635.74
267.62	2480.09
267.84	2224.09
268.06	2357.21
268.27	2564.06
268.49	2600.92
268.70	2414.56
268.92	2394.08
269.14	2316.25
269.35	2267.10
269.57	2394.08
269.79	2439.13
270.00	2396.12
270.22	2742.23
270.43	2273.25
270.65	2119.65
270.87	2465.75
271.08	2584.54
271.30	2465.75
271.51	2359.26
271.73	2592.73
271.95	2637.78
272.16	2316.25
272.38	2414.56
272.59	2428.89
272.81	2580.44
273.02	2340.83
273.24	2426.84
273.46	2672.60
273.67	2346.97
273.89	2265.05
274.10	2281.44
274.32	2668.50
274.54	2502.62
274.75	2426.84
274.97	2353.12
275.18	2523.10
275.40	2580.44
275.61	2385.88
275.83	2420.70
276.05	2326.49
276.26	2422.75
276.48	2447.32
276.69	2346.97
276.91	2414.56
277.12	2537.43
277.34	2443.23
277.55	2553.82
277.77	2539.48
277.99	2461.66
278.20	2326.49
278.42	2269.15
278.63	2410.46
278.85	2349.02
279.06	2318.30
279.28	2459.61
279.49	2602.97
279.71	2541.53
279.93	2471.90
280.14	2535.39
280.36	2359.26
280.57	2570.20
280.79	2498.52
281.00	2353.12
281.22	2410.46
281.43	2562.01
281.65	2224.09
281.86	2369.50
282.08	2570.20
282.29	2701.27
282.51	2297.82
282.73	2355.16
282.94	2275.29
283.16	2574.30
283.37	2588.63
283.59	2387.93
283.80	2559.96
284.02	2549.72
284.23	2473.95
284.45	2375.64
284.66	2334.68
284.88	2387.93
285.09	2400.22
285.31	2504.67
285.52	2492.38
285.74	2318.30
285.95	2516.95
286.17	2461.66
286.38	2594.78
286.60	2424.80
286.81	2404.32
287.03	2486.23
287.24	2488.28
287.46	2600.92
287.67	2506.71
287.89	2648.02
288.10	2459.61
288.32	2488.28
288.53	2588.63
288.75	2408.41
288.96	2555.86
289.18	2373.60
289.39	2408.41
289.61	2432.99
289.82	2785.24
290.04	2672.60
290.25	2301.92
290.47	2564.06
290.68	2445.27
290.90	2551.77
291.11	2236.38
291.33	2488.28
291.54	2408.41
291.76	2379.74
291.97	2430.94
292.18	2449.37
292.40	2375.64
292.61	2447.32
292.83	2635.74
293.04	2541.53
293.26	2447.32
293.47	2428.89
293.69	2244.57
293.90	2357.21
294.12	2609.11
294.33	2471.90
294.55	2369.50
294.76	2496.47
294.97	2635.74
295.19	2787.29
295.40	2418.65
295.62	2537.43
295.83	2551.77
296.05	2441.18
296.26	2635.74
296.48	2377.69
296.69	2432.99
296.90	2473.95
297.12	2566.10
297.33	2578.39
297.55	2469.85
297.76	2498.52
297.98	2539.48
298.19	2492.38
298.41	2516.95
298.62	2410.46
298.83	2557.91
299.05	2447.32
299.26	2475.99
299.48	2369.50
299.69	2514.91
299.90	2422.75
300.12	2299.87
300.33	2586.58
300.55	2478.04
300.76	2381.79
300.98	2355.16
301.19	2519.00
301.40	2379.74
301.62	2414.56
301.83	2529.24
302.05	2498.52
302.26	2389.98
302.47	2465.75
302.69	2334.68
302.90	2504.67
303.12	2256.86
303.33	2480.09
303.54	2793.43
303.76	2359.26
303.97	2441.18
304.19	2592.73
304.40	2408.41
304.61	2523.10
304.83	2584.54
305.04	2605.02
305.26	2613.21
305.47	2404.32
305.68	2408.41
305.90	2271.20
306.11	2613.21
306.33	2396.12
306.54	2408.41
306.75	2375.64
306.97	2336.73
307.18	2289.63
307.39	2375.64
307.61	2506.71
307.82	2420.70
308.04	2525.15
308.25	2387.93
308.46	2537.43
308.68	2490.33
308.89	2555.86
309.10	2545.63
309.32	2539.48
309.53	2465.75
309.74	2609.11
309.96	2379.74
310.17	2514.91
310.39	2449.37
310.60	2551.77
310.81	2449.37
311.03	2303.96
311.24	2570.20
311.45	2486.23
311.67	2688.98
311.88	2539.48
312.09	2447.32
312.31	2375.64
312.52	2418.65
312.73	2303.96
312.95	2303.96
313.16	2349.02
313.37	2576.34
313.59	2516.95
313.80	2482.14
314.01	2695.13
314.23	2420.70
314.44	2324.44
314.65	2416.60
314.87	2324.44
315.08	2408.41
315.29	2383.84
315.51	2353.12
315.72	2271.20
315.93	2512.86
316.15	2441.18
316.36	2480.09
316.57	2535.39
316.79	2490.33
317.00	2406.36
317.21	2578.39
317.43	2392.03
317.64	2412.51
317.85	2420.70
318.07	2379.74
318.28	2506.71
318.49	2564.06
318.70	2652.12
318.92	2572.25
319.13	2631.64
319.34	2580.44
319.56	2545.63
319.77	2547.67
319.98	2729.94
320.20	2613.21
320.41	2549.72
320.62	2629.59
320.83	2308.06
321.05	2611.16
321.26	2488.28
321.47	2516.95
321.69	2650.07
321.90	2353.12
322.11	2377.69
322.32	2496.47
322.54	2650.07
322.75	2371.55
322.96	2881.49
323.18	2314.20
323.39	2260.96
323.60	2389.98
323.81	2531.29
324.03	2469.85
324.24	2508.76
324.45	2441.18
324.66	2338.78
324.88	2625.50
325.09	2656.22
325.30	2351.07
325.52	2471.90
325.73	2588.63
325.94	2398.17
326.15	2310.11
326.37	2314.20
326.58	2582.49
326.79	2596.82
327.00	2277.34
327.22	2482.14
327.43	2457.56
327.64	2369.50
327.85	2506.71
328.07	2441.18
328.28	2709.46
328.49	2375.64
328.70	2398.17
328.92	2412.51
329.13	2437.08
329.34	2537.43
329.55	2605.02
329.76	2541.53
329.98	2482.14
330.19	2654.17
330.40	2416.60
330.61	2449.37
330.83	2635.74
331.04	2424.80
331.25	2453.47
331.46	2394.08
331.68	2322.40
331.89	2617.30
332.10	2432.99
332.31	2322.40
332.52	2471.90
332.74	2643.93
332.95	2187.23
333.16	2424.80
333.37	2553.82
333.58	2406.36
333.80	2463.71
334.01	2267.10
334.22	2488.28
334.43	2420.70
334.64	2426.84
334.86	2252.77
335.07	2355.16
335.28	2617.30
335.49	2355.16
335.70	2439.13
335.92	2588.63
336.13	2768.85
336.34	2473.95
336.55	2463.71
336.76	2510.81
336.98	2279.39
337.19	2414.56
337.40	2500.57
337.61	2836.44
337.82	2408.41
338.04	2553.82
338.25	2213.85
338.46	2461.66
338.67	2404.32
338.88	2389.98
339.09	2263.01
339.31	2389.98
339.52	2306.01
339.73	2301.92
339.94	2445.27
340.15	2527.19
340.36	2504.67
340.58	2457.56
340.79	2367.45
341.00	2555.86
341.21	2355.16
341.42	2562.01
341.63	2430.94
341.85	2572.25
342.06	2473.95
342.27	2416.60
342.48	2535.39
342.69	2363.36
342.90	2555.86
343.12	2553.82
343.33	2402.27
343.54	2521.05
343.75	2600.92
343.96	2416.60
344.17	2392.03
344.38	2514.91
344.60	2394.08
344.81	2328.54
345.02	2392.03
345.23	2598.87
345.44	2818.00
345.65	2523.10
345.86	2545.63
346.07	2490.33
346.29	2418.65
346.50	2502.62
346.71	2426.84
346.92	2678.74
347.13	2772.95
347.34	2451.42
347.55	2336.73
347.76	2502.62
347.98	2336.73
348.19	2473.95
348.40	2500.57
348.61	2361.31
348.82	2742.23
349.03	2504.67
349.24	2396.12
349.45	2709.46
349.66	2256.86
349.88	2340.83
350.09	2326.49
350.30	2688.98
350.51	2580.44
350.72	2480.09
350.93	2396.12
351.14	2463.71
351.35	2617.30
351.56	2451.42
351.77	2488.28
351.99	2547.67
352.20	2744.28
352.41	2549.72
352.62	2322.40
352.83	2480.09
353.04	2428.89
353.25	2459.61
353.46	2519.00
353.67	2619.35
353.88	2244.57
354.09	2457.56
354.30	2443.23
354.52	2533.34
354.73	2445.27
354.94	2353.12
355.15	2414.56
355.36	2750.42
355.57	2432.99
355.78	2385.88
355.99	2344.92
356.20	2367.45
356.41	2656.22
356.62	2478.04
356.83	2480.09
357.04	2703.32
357.25	2379.74
357.46	2398.17
357.68	2265.05
357.89	2381.79
358.10	2576.34
358.31	2389.98
358.52	2441.18
358.73	2334.68
358.94	2396.12
359.15	2408.41
359.36	2527.19
359.57	2463.71
359.78	2422.75
359.99	2543.58
360.20	2308.06
360.41	2521.05
360.62	2480.09
360.83	2480.09
361.04	2387.93
361.25	2537.43
361.46	2602.97
361.67	2527.19
361.88	2557.91
362.09	2613.21
362.30	2572.25
362.51	2338.78
362.72	2467.80
362.93	2637.78
363.14	2559.96
363.35	2498.52
363.56	2398.17
363.78	2592.73
363.99	2584.54
364.20	2357.21
364.41	2422.75
364.62	2660.31
364.83	2463.71
365.04	2398.17
365.25	2463.71
365.46	2691.03
365.67	2373.60
365.88	2441.18
366.09	2402.27
366.30	2459.61
366.51	2523.10
366.72	2297.82
366.93	2402.27
367.14	2398.17
367.35	2686.94
367.56	2457.56
367.77	2523.10
367.98	2478.04
368.18	2514.91
368.39	2502.62
368.60	2406.36
368.81	2613.21
369.02	2521.05
369.23	2443.23
369.44	2289.63
369.65	2449.37
369.86	2533.34
370.07	2539.48
370.28	2252.77
370.49	2529.24
370.70	2584.54
370.91	2400.22
371.12	2265.05
371.33	2650.07
371.54	2461.66
371.75	2547.67
371.96	2275.29
372.17	2553.82
372.38	2510.81
372.59	2471.90
372.80	2381.79
373.01	2465.75
373.22	2549.72
373.43	2521.05
373.64	2254.81
373.85	2625.50
374.06	2742.23
374.26	2588.63
374.47	2453.47
374.68	2707.41
374.89	2406.36
375.10	2432.99
375.31	2510.81
375.52	2492.38
375.73	2486.23
375.94	2338.78
376.15	2559.96
376.36	2428.89
376.57	2416.60
376.78	2453.47
376.99	2543.58
377.20	2625.50
377.40	2420.70
377.61	2654.17
377.82	2303.96
378.03	2682.84
378.24	2531.29
378.45	2453.47
378.66	2482.14
378.87	2297.82
379.08	2316.25
379.29	2357.21
379.50	2592.73
379.71	2494.43
379.91	2582.49
380.12	2404.32
380.33	2465.75
380.54	2559.96
380.75	2457.56
380.96	2453.47
381.17	2510.81
381.38	2488.28
381.59	2445.27
381.80	2428.89
382.00	2576.34
382.21	2529.24
382.42	2670.55
382.63	2695.13
382.84	2588.63
383.05	2596.82
383.26	2605.02
383.47	2490.33
383.68	2492.38
383.88	2541.53
384.09	2502.62
384.30	2686.94
384.51	2566.10
384.72	2373.60
384.93	2287.58
385.14	2514.91
385.35	2566.10
385.55	2361.31
385.76	2658.26
385.97	2469.85
386.18	2367.45
386.39	2457.56
386.60	2461.66
386.81	2461.66
387.02	2301.92
387.22	2357.21
387.43	2557.91
387.64	2586.58
387.85	2637.78
388.06	2715.61
388.27	4003.78
388.48	8081.28
388.68	11833.16
388.89	14235.43
389.10	15492.88
389.31	14628.64
389.52	11392.85
389.73	10033.00
389.93	9076.60
390.14	8171.40
390.35	7200.66
390.56	6549.40
390.77	5423.02
390.98	4251.58
391.18	3348.43
391.39	2965.46
391.60	2594.78
391.81	2627.54
392.02	2406.36
392.23	2744.28
392.43	2547.67
392.64	2555.86
392.85	2414.56
393.06	2691.03
393.27	2451.42
393.47	2363.36
393.68	2463.71
393.89	2400.22
394.10	2609.11
394.31	2375.64
394.52	2428.89
394.72	2385.88
394.93	2731.99
395.14	2324.44
395.35	2498.52
395.56	2430.94
395.76	2502.62
395.97	2480.09
396.18	2570.20
396.39	2496.47
396.60	3016.66
396.80	2756.57
397.01	2633.69
397.22	2568.15
397.43	2668.50
397.64	2428.89
397.84	2582.49
398.05	2768.85
398.26	2457.56
398.47	2506.71
398.67	2570.20
398.88	2514.91
399.09	2629.59
399.30	2392.03
399.51	2512.86
399.71	2365.40
399.92	2447.32
400.13	2510.81
400.34	2392.03
400.54	2523.10
400.75	2670.55
400.96	2414.56
401.17	2598.87
401.37	2523.10
401.58	2453.47
401.79	2406.36
402.00	2529.24
402.21	2916.31
402.41	2785.24
402.62	2840.53
402.83	2994.13
403.04	2926.55
403.24	3200.98
403.45	2635.74
403.66	2815.96
403.87	2662.36
404.07	2752.47
404.28	2678.74
404.49	2719.70
404.70	2496.47
404.90	2594.78
405.11	2463.71
405.32	2543.58
405.52	2447.32
405.73	2412.51
405.94	2326.49
406.15	2457.56
406.35	2572.25
406.56	2678.74
406.77	2482.14
406.98	2441.18
407.18	2473.95
407.39	2693.08
407.60	2432.99
407.80	2492.38
408.01	2498.52
408.22	2416.60
408.43	2400.22
408.63	2512.86
408.84	2557.91
409.05	2586.58
409.25	2346.97
409.46	2336.73
409.67	2420.70
409.88	2361.31
410.08	2510.81
410.29	2457.56
410.50	2602.97
410.70	2568.15
410.91	2383.84
411.12	2498.52
411.32	2473.95
411.53	2359.26
411.74	2529.24
411.95	2594.78
412.15	2598.87
412.36	2629.59
412.57	2564.06
412.77	2572.25
412.98	2531.29
413.19	2463.71
413.39	2461.66
413.60	2455.51
413.81	2670.55
414.01	2414.56
414.22	2469.85
414.43	2525.15
414.63	2482.14
414.84	2598.87
415.05	2471.90
415.25	2217.95
415.46	2615.26
415.67	2441.18
415.87	2514.91
416.08	2420.70
416.29	2469.85
416.49	2543.58
416.70	2502.62
416.91	2480.09
417.11	2475.99
417.32	2523.10
417.53	2564.06
417.73	2459.61
417.94	2486.23
418.15	2508.76
418.35	2447.32
418.56	2432.99
418.77	2764.76
418.97	2441.18
419.18	2488.28
419.38	2197.47
419.59	2447.32
419.80	2611.16
420.00	2363.36
420.21	2392.03
420.42	2699.22
420.62	2621.40
420.83	2422.75
421.04	2435.03
421.24	2488.28
421.45	2621.40
421.65	2564.06
421.86	2389.98
422.07	2539.48
422.27	2543.58
422.48	2414.56
422.69	2373.60
422.89	2494.43
423.10	2465.75
423.30	2375.64
423.51	2445.27
423.72	2529.24
423.92	2529.24
424.13	2367.45
424.33	2508.76
424.54	2539.48
424.75	2551.77
424.95	2654.17
425.16	2527.19
425.36	2490.33
425.57	2625.50
425.78	2562.01
425.98	2523.10
426.19	2422.75
426.39	2320.35
426.60	2496.47
426.81	2588.63
427.01	2480.09
427.22	2447.32
427.42	2273.25
427.63	2359.26
427.83	2654.17
428.04	2684.89
428.25	2490.33
428.45	2568.15
428.66	2656.22
428.86	2457.56
429.07	2519.00
429.28	2488.28
429.48	2455.51
429.69	2346.97
429.89	2523.10
430.10	2299.87
430.30	2545.63
430.51	2605.02
430.71	2451.42
430.92	2432.99
431.13	2422.75
431.33	2523.10
431.54	2480.09
431.74	2588.63
431.95	2820.05
432.15	2291.68
432.36	2430.94
432.56	2559.96
432.77	2760.66
432.98	2760.66
433.18	2475.99
433.39	2367.45
433.59	2492.38
433.80	2682.84
434.00	2736.09
434.21	2430.94
434.41	2473.95
434.62	2775.00
434.82	2342.88
435.03	2340.83
435.23	2547.67
435.44	2310.11
435.64	2461.66
435.85	2500.57
436.06	2502.62
436.26	2574.30
436.47	2441.18
436.67	2320.35
436.88	2430.94
437.08	2637.78
437.29	2584.54
437.49	2496.47
437.70	2719.70
437.90	2473.95
438.11	2637.78
438.31	2516.95
438.52	2744.28
438.72	2695.13
438.93	2793.43
439.13	2502.62
439.34	2740.18
439.54	2504.67
439.75	2539.48
439.95	2451.42
440.16	2432.99
440.36	2539.48
440.57	2496.47
440.77	2494.43
440.98	2498.52
441.18	2547.67
441.39	2359.26
441.59	2383.84
441.80	2811.86
442.00	2432.99
442.21	2531.29
442.41	2312.16
442.62	2555.86
442.82	2424.80
443.02	2484.19
443.23	2580.44
443.43	2504.67
443.64	2727.89
443.84	2392.03
444.05	2566.10
444.25	2564.06
444.46	2459.61
444.66	2480.09
444.87	2654.17
445.07	2379.74
445.28	2383.84
445.48	2619.35
445.69	2582.49
445.89	2801.62
446.09	2543.58
446.30	2777.05
446.50	3004.37
446.71	4552.63
446.91	5672.87
447.12	6557.60
447.32	7065.49
447.53	6614.94
447.73	5365.68
447.93	4800.44
448.14	4483.00
448.34	4356.03
448.55	3930.05
448.75	3766.21
448.96	3485.64
449.16	3217.36
449.36	3117.01
449.57	2783.19
449.77	2484.19
449.98	2482.14
450.18	2605.02
450.39	2490.33
450.59	2580.44
450.79	2492.38
451.00	2467.80
451.20	2547.67
451.41	2529.24
451.61	2539.48
451.81	2510.81
452.02	2478.04
452.22	2355.16
452.43	2451.42
452.63	2461.66
452.84	2478.04
453.04	2396.12
453.24	2473.95
453.45	2367.45
453.65	2531.29
453.86	2486.23
454.06	2551.77
454.26	2527.19
454.47	2404.32
454.67	2617.30
454.87	2559.96
455.08	2492.38
455.28	2602.97
455.49	2512.86
455.69	2432.99
455.89	2703.32
456.10	2506.71
456.30	2461.66
456.51	2555.86
456.71	2535.39
456.91	2500.57
457.12	2443.23
457.32	2553.82
457.52	2381.79
457.73	2533.34
457.93	2547.67
458.14	2371.55
458.34	2316.25
458.54	2416.60
458.75	2424.80
458.95	2668.50
459.15	2465.75
459.36	2494.43
459.56	2459.61
459.76	2813.91
459.97	2492.38
460.17	2408.41
460.37	2586.58
460.58	2500.57
460.78	2531.29
460.99	2365.40
461.19	2449.37
461.39	2392.03
461.60	2383.84
461.80	2574.30
462.00	2314.20
462.21	2488.28
462.41	2318.30
462.61	2355.16
462.82	2234.33
463.02	2572.25
463.22	2478.04
463.43	2566.10
463.63	2412.51
463.83	2682.84
464.04	2473.95
464.24	2457.56
464.44	2328.54
464.64	2516.95
464.85	2576.34
465.05	2519.00
465.25	2457.56
465.46	2455.51
465.66	2555.86
465.86	2531.29
466.07	2435.03
466.27	2506.71
466.47	2330.59
466.68	2361.31
466.88	2523.10
467.08	2549.72
467.29	2588.63
467.49	2486.23
467.69	2469.85
467.89	2508.76
468.10	2469.85
468.30	2471.90
468.50	2625.50
468.71	2547.67
468.91	2351.07
469.11	2605.02
469.31	2490.33
469.52	2385.88
469.72	2672.60
469.92	2625.50
470.13	2443.23
470.33	2484.19
470.53	2490.33
470.73	2856.92
470.94	3282.89
471.14	3364.81
471.34	3841.99
471.54	3747.78
471.75	3338.19
471.95	3194.83
472.15	3114.96
472.36	3084.24
472.56	2920.40
472.76	2979.79
472.96	2867.16
473.17	2758.61
473.37	2670.55
473.57	2572.25
473.77	2605.02
473.98	2432.99
474.18	2404.32
474.38	2820.05
474.58	2529.24
474.79	2375.64
474.99	2572.25
475.19	2607.06
475.39	2322.40
475.60	2531.29
475.80	2408.41
476.00	2531.29
476.20	2478.04
476.41	2543.58
476.61	2551.77
476.81	2666.46
477.01	2443.23
477.21	2643.93
477.42	2521.05
477.62	2359.26
477.82	2645.98
478.02	2373.60
478.23	2453.47
478.43	2324.44
478.63	2459.61
478.83	2437.08
479.03	2453.47
479.24	2643.93
479.44	2758.61
479.64	2310.11
479.84	2217.95
480.04	2416.60
480.25	2592.73
480.45	2367.45
480.65	2496.47
480.85	2645.98
481.06	2447.32
481.26	2482.14
481.46	2490.33
481.66	2500.57
481.86	2406.36
482.06	2650.07
482.27	2418.65
482.47	2365.40
482.67	2605.02
482.87	2367.45
483.07	2523.10
483.28	2498.52
483.48	2394.08
483.68	2453.47
483.88	2346.97
484.08	2277.34
484.29	2283.49
484.49	2566.10
484.69	2260.96
484.89	2707.41
485.09	2672.60
485.29	2480.09
485.50	2564.06
485.70	2439.13
485.90	2672.60
486.10	2516.95
486.30	2453.47
486.50	2656.22
486.71	2500.57
486.91	2447.32
487.11	2578.39
487.31	2359.26
487.51	2578.39
487.71	2398.17
487.91	2351.07
488.12	2344.92
488.32	2267.10
488.52	2449.37
488.72	2248.67
488.92	2424.80
489.12	2564.06
489.32	2633.69
489.53	2512.86
489.73	2402.27
489.93	2572.25
490.13	2371.55
490.33	2297.82
490.53	2584.54
490.73	2625.50
490.94	2334.68
491.14	2488.28
491.34	2615.26
491.54	2727.89
491.74	3405.77
491.94	3936.20
492.14	4239.30
492.34	4356.03
492.54	4097.99
492.75	3448.78
492.95	3467.21
493.15	3170.26
493.35	3209.17
493.55	3198.93
493.75	2940.88
493.95	3018.71
494.15	2785.24
494.35	2594.78
494.56	2586.58
494.76	2473.95
494.96	2490.33
495.16	2480.09
495.36	2519.00
495.56	2504.67
495.76	2475.99
495.96	2473.95
496.16	2369.50
496.36	2668.50
496.56	2422.75
496.77	2521.05
496.97	2539.48
497.17	2668.50
497.37	2297.82
497.57	2543.58
497.77	2443.23
497.97	2400.22
498.17	2523.10
498.37	2365.40
498.57	2619.35
498.77	2510.81
498.97	2658.26
499.17	2639.83
499.38	2473.95
499.58	2506.71
499.78	2572.25
499.98	2637.78
500.18	2400.22
500.38	2400.22
500.58	2670.55
500.78	3104.72
500.98	5427.12
501.18	7452.56
501.38	8906.62
501.58	10055.53
501.78	9828.20
501.98	7950.21
502.18	6688.67
502.38	5734.31
502.58	5328.81
502.78	4868.02
502.98	4624.31
503.18	4433.85
503.38	4014.02
503.59	3440.59
503.79	3301.33
503.99	3174.35
504.19	3100.62
504.39	3033.04
504.59	3086.29
504.79	3080.14
504.99	3080.14
505.19	2863.06
505.39	2738.13
505.59	2850.77
505.79	2873.30
505.99	2699.22
506.19	2557.91
506.39	2701.27
506.59	2535.39
506.79	2437.08
506.99	2662.36
507.19	2480.09
507.39	2590.68
507.59	2379.74
507.79	2375.64
507.99	2398.17
508.19	2588.63
508.39	2412.51
508.59	2486.23
508.79	2596.82
508.99	2740.18
509.19	2387.93
509.39	2514.91
509.59	2355.16
509.79	2494.43
509.99	2551.77
510.19	2545.63
510.39	2572.25
510.59	2539.48
510.79	2340.83
510.99	2412.51
511.19	2428.89
511.39	2703.32
511.59	2609.11
511.79	2664.41
511.99	2453.47
512.19	2637.78
512.38	2506.71
512.58	2389.98
512.78	2381.79
512.98	2654.17
513.18	2744.28
513.38	2328.54
513.58	2506.71
513.78	2432.99
513.98	2527.19
514.18	2471.90
514.38	2449.37
514.58	2486.23
514.78	2404.32
514.98	2383.84
515.18	2457.56
515.38	2338.78
515.58	2686.94
515.78	2418.65
515.98	2488.28
516.18	2637.78
516.38	2494.43
516.57	2351.07
516.77	2385.88
516.97	2521.05
517.17	2439.13
517.37	2244.57
517.57	2590.68
517.77	2387.93
517.97	2459.61
518.17	2559.96
518.37	2344.92
518.57	2379.74
518.77	2437.08
518.97	2510.81
519.16	2533.34
519.36	2676.70
519.56	2406.36
519.76	2457.56
519.96	2482.14
520.16	2602.97
520.36	2314.20
520.56	2598.87
520.76	2387.93
520.96	2371.55
521.16	2586.58
521.35	2580.44
521.55	2523.10
521.75	2469.85
521.95	2422.75
522.15	2381.79
522.35	2361.31
522.55	2383.84
522.75	2580.44
522.95	2437.08
523.14	2387.93
523.34	2512.86
523.54	2428.89
523.74	2457.56
523.94	2494.43
524.14	2338.78
524.34	2580.44
524.54	2656.22
524.73	2422.75
524.93	2519.00
525.13	2514.91
525.33	2336.73
525.53	2754.52
525.73	2621.40
525.93	2541.53
526.13	2402.27
526.32	2488.28
526.52	2572.25
526.72	2574.30
526.92	2404.32
527.12	2416.60
527.32	2353.12
527.52	2592.73
527.71	2523.10
527.91	2465.75
528.11	2437.08
528.31	2432.99
528.51	2428.89
528.71	2529.24
528.90	2580.44
529.10	2629.59
529.30	2523.10
529.50	2281.44
529.70	2535.39
529.90	2457.56
530.09	2488.28
530.29	2346.97
530.49	2385.88
530.69	2793.43
530.89	2490.33
531.09	2549.72
531.28	2416.60
531.48	2676.70
531.68	2494.43
531.88	2445.27
532.08	2535.39
532.28	2541.53
532.47	2594.78
532.67	2613.21
532.87	2621.40
533.07	2338.78
533.27	2576.34
533.46	2523.10
533.66	2594.78
533.86	2463.71
534.06	2447.32
534.26	2506.71
534.45	2451.42
534.65	2668.50
534.85	2490.33
535.05	2439.13
535.25	2564.06
535.44	2295.77
535.64	2459.61
535.84	2406.36
536.04	2443.23
536.24	2453.47
536.43	2412.51
536.63	2447.32
536.83	2506.71
537.03	2490.33
537.22	2316.25
537.42	2252.77
537.62	2453.47
537.82	2430.94
538.02	2535.39
538.21	2541.53
538.41	2912.21
538.61	2549.72
538.81	2473.95
539.00	2564.06
539.20	2291.68
539.40	2389.98
539.60	2521.05
539.79	2580.44
539.99	2494.43
540.19	2389.98
540.39	2459.61
540.58	2461.66
540.78	2641.88
540.98	2459.61
541.18	2586.58
541.37	2559.96
541.57	2506.71
541.77	2510.81
541.97	2301.92
542.16	2326.49
542.36	2451.42
542.56	2400.22
542.76	2654.17
542.95	2631.64
543.15	2490.33
543.35	2586.58
543.54	2389.98
543.74	2377.69
543.94	2643.93
544.14	2418.65
544.33	2553.82
544.53	2478.04
544.73	2406.36
544.93	2445.27
545.12	2408.41
545.32	2547.67
545.52	2488.28
545.71	2349.02
545.91	2473.95
546.11	2439.13
546.30	2400.22
546.50	2467.80
546.70	2514.91
546.90	2568.15
547.09	2179.04
547.29	2469.85
547.49	2592.73
547.68	2478.04
547.88	2398.17
548.08	2523.10
548.27	2936.79
548.47	2398.17
548.67	2430.94
548.87	2494.43
549.06	2502.62
549.26	2435.03
549.46	2480.09
549.65	2408.41
549.85	2424.80
550.05	2547.67
550.24	2373.60
550.44	2467.80
550.64	2480.09
550.83	2420.70
551.03	2711.51
551.23	2619.35
551.42	2486.23
551.62	2471.90
551.82	2531.29
552.01	2410.46
552.21	2637.78
552.41	2459.61
552.60	2701.27
552.80	2545.63
553.00	2396.12
553.19	2396.12
553.39	2721.75
553.59	2338.78
553.78	2602.97
553.98	2514.91
554.17	2379.74
554.37	2516.95
554.57	2539.48
554.76	2301.92
554.96	2482.14
555.16	2478.04
555.35	2486.23
555.55	2498.52
555.75	2490.33
555.94	2633.69
556.14	2291.68
556.33	2531.29
556.53	2504.67
556.73	2525.15
556.92	2582.49
557.12	2523.10
557.32	2772.95
557.51	2605.02
557.71	2484.19
557.90	2580.44
558.10	2678.74
558.30	2510.81
558.49	2424.80
558.69	2449.37
558.88	2547.67
559.08	2500.57
559.28	2498.52
559.47	2455.51
559.67	2539.48
559.86	2688.98
560.06	2457.56
560.26	2455.51
560.45	2502.62
560.65	2463.71
560.84	2662.36
561.04	2439.13
561.24	2629.59
561.43	2412.51
561.63	2611.16
561.82	2551.77
562.02	2570.20
562.22	2363.36
562.41	2342.88
562.61	2443.23
562.80	2369.50
563.00	2719.70
563.19	2555.86
563.39	2453.47
563.59	2564.06
563.78	2389.98
563.98	2295.77
564.17	2416.60
564.37	2293.72
564.56	2486.23
564.76	2340.83
564.96	2545.63
565.15	2541.53
565.35	2783.19
565.54	2441.18
565.74	2566.10
565.93	2562.01
566.13	2572.25
566.32	2535.39
566.52	2555.86
566.71	2469.85
566.91	2582.49
567.11	2539.48
567.30	2445.27
567.50	2576.34
567.69	2533.34
567.89	2344.92
568.08	2445.27
568.28	2498.52
568.47	2318.30
568.67	2492.38
568.86	2420.70
569.06	2594.78
569.25	2473.95
569.45	2367.45
569.64	2416.60
569.84	2504.67
570.04	2533.34
570.23	2473.95
570.43	2559.96
570.62	2387.93
570.82	2564.06
571.01	2291.68
571.21	2400.22
571.40	2369.50
571.60	2629.59
571.79	2504.67
571.99	2475.99
572.18	2381.79
572.38	2625.50
572.57	2490.33
572.77	2494.43
572.96	2809.81
573.16	2496.47
573.35	2457.56
573.55	2531.29
573.74	2570.20
573.94	2484.19
574.13	2455.51
574.33	2566.10
574.52	2621.40
574.71	2555.86
574.91	2478.04
575.10	2353.12
575.30	2484.19
575.49	2412.51
575.69	2398.17
575.88	2576.34
576.08	2455.51
576.27	2641.88
576.47	2480.09
576.66	2609.11
576.86	2695.13
577.05	2588.63
577.25	2553.82
577.44	2709.46
577.64	2428.89
577.83	2605.02
578.02	2463.71
578.22	2545.63
578.41	2676.70
578.61	2490.33
578.80	2299.87
579.00	2455.51
579.19	2514.91
579.39	2570.20
579.58	2602.97
579.77	2519.00
579.97	2709.46
580.16	2596.82
580.36	2613.21
580.55	2605.02
580.75	2512.86
580.94	2498.52
581.13	2607.06
581.33	2686.94
581.52	2539.48
581.72	2805.72
581.91	2709.46
582.11	2459.61
582.30	2645.98
582.49	2506.71
582.69	2693.08
582.88	2553.82
583.08	2609.11
583.27	2662.36
583.47	2578.39
583.66	2512.86
583.85	2463.71
584.05	2533.34
584.24	2594.78
584.44	2521.05
584.63	2605.02
584.82	2762.71
585.02	2715.61
585.21	2639.83
585.41	2633.69
585.60	2658.26
585.79	2705.37
585.99	2779.09
586.18	2555.86
586.37	3223.50
586.57	5044.15
586.76	14913.31
586.96	34053.62
587.15	47090.99
587.34	56063.14
587.54	60638.31
587.73	55026.87
587.93	38782.38
588.12	29326.91
588.31	23793.30
588.51	20479.69
588.70	19390.17
588.89	17114.87
589.09	14827.29
589.28	12681.02
589.47	10223.46
589.67	7755.66
589.86	6270.88
590.06	4483.00
590.25	3837.89
590.44	3276.75
590.64	2863.06
590.83	2768.85
591.02	2783.19
591.22	2490.33
591.41	2627.54
591.60	2512.86
591.80	2807.77
591.99	2408.41
592.18	2465.75
592.38	2635.74
592.57	2439.13
592.76	2486.23
592.96	2551.77
593.15	2455.51
593.34	2666.46
593.54	2416.60
593.73	2549.72
593.92	2559.96
594.12	2598.87
594.31	2568.15
594.50	2590.68
594.70	2641.88
594.89	2944.98
595.08	2351.07
595.28	2580.44
595.47	2906.07
595.66	2619.35
595.86	2439.13
596.05	2508.76
596.24	2469.85
596.43	2760.66
596.63	2641.88
596.82	2619.35
597.01	2584.54
597.21	2772.95
597.40	2508.76
597.59	2564.06
597.79	2539.48
597.98	2693.08
598.17	2486.23
598.36	2467.80
598.56	2588.63
598.75	2498.52
598.94	2576.34
599.14	2488.28
599.33	2494.43
599.52	2570.20
599.71	2473.95
599.91	2516.95
600.10	2600.92
600.29	2580.44
600.48	2494.43
600.68	2541.53
600.87	2506.71
601.06	2441.18
601.26	2498.52
601.45	2551.77
601.64	2465.75
601.83	2734.04
602.03	2432.99
602.22	2301.92
602.41	2676.70
602.60	2838.48
602.80	2629.59
602.99	2578.39
603.18	2428.89
603.37	2559.96
603.57	2447.32
603.76	2484.19
603.95	2703.32
604.14	2498.52
604.34	2359.26
604.53	2473.95
604.72	2467.80
604.91	2600.92
605.10	2637.78
605.30	2353.12
605.49	2738.13
605.68	2666.46
605.87	2529.24
606.07	2408.41
606.26	2529.24
606.45	2529.24
606.64	2621.40
606.84	2469.85
607.03	2625.50
607.22	2562.01
607.41	2541.53
607.60	2478.04
607.80	2725.85
607.99	2482.14
608.18	2422.75
608.37	2521.05
608.56	2482.14
608.76	2639.83
608.95	2725.85
609.14	2537.43
609.33	2684.89
609.52	2772.95
609.72	2557.91
609.91	2605.02
610.10	2645.98
610.29	2740.18
610.48	2523.10
610.68	2600.92
610.87	2512.86
611.06	2627.54
611.25	2488.28
611.44	2545.63
611.63	2484.19
611.83	2674.65
612.02	2349.02
612.21	2557.91
612.40	2289.63
612.59	2303.96
612.79	2371.55
612.98	2539.48
613.17	2693.08
613.36	2529.24
613.55	2668.50
613.74	2562.01
613.93	2576.34
614.13	2750.42
614.32	2680.79
614.51	2633.69
614.70	2557.91
614.89	2566.10
615.08	2555.86
615.28	2987.99
615.47	2392.03
615.66	2523.10
615.85	2496.47
616.04	2686.94
616.23	2635.74
616.42	2543.58
616.62	2498.52
616.81	2516.95
617.00	2467.80
617.19	2475.99
617.38	2424.80
617.57	2498.52
617.76	2617.30
617.95	2506.71
618.15	2551.77
618.34	2672.60
618.53	2428.89
618.72	2695.13
618.91	2545.63
619.10	2580.44
619.29	2398.17
619.48	2469.85
619.68	2346.97
619.87	2504.67
620.06	2357.21
620.25	2586.58
620.44	2408.41
620.63	2488.28
620.82	2588.63
621.01	2512.86
621.20	2441.18
621.39	2506.71
621.59	2527.19
621.78	2430.94
621.97	2416.60
622.16	2584.54
622.35	2588.63
622.54	2627.54
622.73	2588.63
622.92	2306.01
623.11	2678.74
623.30	2486.23
623.49	2527.19
623.68	2490.33
623.88	2584.54
624.07	2435.03
624.26	2494.43
624.45	2525.15
624.64	2465.75
624.83	2531.29
625.02	2441.18
625.21	2490.33
625.40	2510.81
625.59	2670.55
625.78	2512.86
625.97	2584.54
626.16	2715.61
626.35	2701.27
626.54	2510.81
626.74	2674.65
626.93	2494.43
627.12	2504.67
627.31	2519.00
627.50	2502.62
627.69	2645.98
627.88	2426.84
628.07	2437.08
628.26	2267.10
628.45	2367.45
628.64	2396.12
628.83	2441.18
629.02	2367.45
629.21	2631.64
629.40	2570.20
629.59	2465.75
629.78	2469.85
629.97	2510.81
630.16	2533.34
630.35	2480.09
630.54	2469.85
630.73	2455.51
630.92	2500.57
631.11	2432.99
631.30	2504.67
631.49	2590.68
631.68	2488.28
631.87	2488.28
632.06	2281.44
632.25	2777.05
632.44	2432.99
632.63	2506.71
632.82	2486.23
633.01	2514.91
633.20	2613.21
633.39	2478.04
633.58	2379.74
633.77	2596.82
633.96	2664.41
634.15	2566.10
634.34	2508.76
634.53	2553.82
634.72	2506.71
634.91	2338.78
635.10	2562.01
635.29	2596.82
635.48	2506.71
635.67	2379.74
635.86	2361.31
636.05	2629.59
636.24	2551.77
636.43	2543.58
636.62	2578.39
636.81	2267.10
637.00	2533.34
637.19	2537.43
637.38	2514.91
637.57	2496.47
637.76	2586.58
637.95	2697.17
638.14	2523.10
638.33	2570.20
638.52	2512.86
638.71	2422.75
638.89	2414.56
639.08	2826.20
639.27	2758.61
639.46	2715.61
639.65	3133.39
639.84	3100.62
640.03	3192.78
640.22	3108.82
640.41	3198.93
640.60	2785.24
640.79	2723.80
640.98	2691.03
641.17	2719.70
641.36	2686.94
641.55	2742.23
641.74	2437.08
641.92	2478.04
642.11	2377.69
642.30	2437.08
642.49	2387.93
642.68	2453.47
642.87	2529.24
643.06	2586.58
643.25	2445.27
643.44	2398.17
643.63	2498.52
643.82	2623.45
644.00	2398.17
644.19	2418.65
644.38	2398.17
644.57	2584.54
644.76	2539.48
644.95	2410.46
645.14	2576.34
645.33	2482.14
645.52	2553.82
645.71	2383.84
645.89	2365.40
646.08	2488.28
646.27	2455.51
646.46	2680.79
646.65	2379.74
646.84	2512.86
647.03	2416.60
647.22	2504.67
647.40	2451.42
647.59	2414.56
647.78	2265.05
647.97	2346.97
648.16	2400.22
648.35	2670.55
648.54	2559.96
648.73	2455.51
648.91	2621.40
649.10	2480.09
649.29	2435.03
649.48	2449.37
649.67	2545.63
649.86	2527.19
650.05	2572.25
650.23	2721.75
650.42	2527.19
650.61	2783.19
650.80	2656.22
650.99	2869.20
651.18	2605.02
651.36	2617.30
651.55	2451.42
651.74	2639.83
651.93	2504.67
652.12	2494.43
652.31	2496.47
652.49	2461.66
652.68	2475.99
652.87	2580.44
653.06	2496.47
653.25	2670.55
653.44	2533.34
653.62	2664.41
653.81	2490.33
654.00	2527.19
654.19	2568.15
654.38	2818.00
654.56	2473.95
654.75	2428.89
654.94	2641.88
655.13	2549.72
655.32	2482.14
655.51	2523.10
655.69	2510.81
655.88	2555.86
656.07	2363.36
656.26	2527.19
656.45	2334.68
656.63	2525.15
656.82	2484.19
657.01	2629.59
657.20	2428.89
657.38	2656.22
657.57	2408.41
657.76	2332.64
657.95	2529.24
658.14	2367.45
658.32	2463.71
658.51	2299.87
658.70	2527.19
658.89	2498.52
659.08	2549.72
659.26	2668.50
659.45	2447.32
659.64	2594.78
659.83	2445.27
660.01	2813.91
660.20	2629.59
660.39	2725.85
660.58	2269.15
660.76	2492.38
660.95	2318.30
661.14	2586.58
661.33	2332.64
661.51	2414.56
661.70	2482.14
661.89	2529.24
662.08	2539.48
662.26	2283.49
662.45	2328.54
662.64	2670.55
662.83	2568.15
663.01	2273.25
663.20	2469.85
663.39	2629.59
663.58	2455.51
663.76	2447.32
663.95	2539.48
664.14	2355.16
664.32	2455.51
664.51	2357.21
664.70	2314.20
664.89	2500.57
665.07	2316.25
665.26	2535.39
665.45	2332.64
665.64	2617.30
665.82	2416.60
666.01	2592.73
666.20	2330.59
666.38	2627.54
666.57	2643.93
666.76	3862.47
666.95	9338.74
667.13	17325.82
667.32	22466.22
667.51	25611.90
667.69	27256.42
667.88	24370.83
668.07	17080.06
668.25	14196.52
668.44	11583.31
668.63	10235.75
668.81	9121.65
669.00	7683.98
669.19	6930.33
669.38	6119.33
669.56	5177.26
669.75	4349.89
669.94	3768.26
670.12	3258.32
670.31	2895.83
670.50	2863.06
670.68	2727.89
670.87	2602.97
671.06	2506.71
671.24	2529.24
671.43	2729.94
671.62	2537.43
671.80	2457.56
671.99	2611.16
672.18	2529.24
672.36	2664.41
672.55	2643.93
672.74	2508.76
672.92	2463.71
673.11	2635.74
673.29	2396.12
673.48	2516.95
673.67	2379.74
673.85	2590.68
674.04	2400.22
674.23	2451.42
674.41	2666.46
674.60	2373.60
674.79	2306.01
674.97	2314.20
675.16	2570.20
675.34	2605.02
675.53	2375.64
675.72	2570.20
675.90	2699.22
676.09	2432.99
676.28	2498.52
676.46	2310.11
676.65	2562.01
676.83	2410.46
677.02	2500.57
677.21	2449.37
677.39	2494.43
677.58	2420.70
677.77	2416.60
677.95	2373.60
678.14	2519.00
678.32	2432.99
678.51	2453.47
678.70	2680.79
678.88	2498.52
679.07	2521.05
679.25	2398.17
679.44	2506.71
679.63	2320.35
679.81	2529.24
680.00	2598.87
680.18	2441.18
680.37	2637.78
680.55	2521.05
680.74	2250.72
680.93	2283.49
681.11	2592.73
681.30	2461.66
681.48	2525.15
681.67	2453.47
681.85	2469.85
682.04	2414.56
682.23	2535.39
682.41	2527.19
682.60	2432.99
682.78	2420.70
682.97	2349.02
683.15	2488.28
683.34	2465.75
683.53	2594.78
683.71	2373.60
683.90	2586.58
684.08	2674.65
684.27	2416.60
684.45	2408.41
684.64	2566.10
684.82	2490.33
685.01	2594.78
685.19	2424.80
685.38	2783.19
685.57	2445.27
685.75	2418.65
685.94	2389.98
686.12	2392.03
686.31	2375.64
686.49	2625.50
686.68	2285.53
686.86	2512.86
687.05	2457.56
687.23	2674.65
687.42	2519.00
687.60	2291.68
687.79	2621.40
687.97	2654.17
688.16	2580.44
688.34	2523.10
688.53	2338.78
688.71	2549.72
688.90	2656.22
689.08	2416.60
689.27	2187.23
689.45	2557.91
689.64	2580.44
689.82	2471.90
690.01	2605.02
690.19	2557.91
690.38	2432.99
690.56	2605.02
690.75	2396.12
690.93	2394.08
691.12	2406.36
691.30	2557.91
691.49	2510.81
691.67	2439.13
691.86	2691.03
692.04	2488.28
692.23	2463.71
692.41	2512.86
692.60	2731.99
692.78	2725.85
692.97	2592.73
693.15	2670.55
693.34	2641.88
693.52	2611.16
693.71	2488.28
693.89	2398.17
694.08	2295.77
694.26	2543.58
694.44	2588.63
694.63	2570.20
694.81	2371.55
695.00	2406.36
695.18	2691.03
695.37	2762.71
695.55	2506.71
695.74	2480.09
695.92	2346.97
696.10	2529.24
696.29	2373.60
696.47	2414.56
696.66	2379.74
696.84	2402.27
697.03	2523.10
697.21	2664.41
697.40	3696.58
697.58	2600.92
697.76	2400.22
697.95	2387.93
698.13	2389.98
698.32	2432.99
698.50	2422.75
698.68	2443.23
698.87	2492.38
699.05	2662.36
699.24	2463.71
699.42	2363.36
699.61	2521.05
699.79	2514.91
699.97	2457.56
700.16	2377.69
700.34	2252.77
700.53	2443.23
700.71	2625.50
700.89	2557.91
701.08	2424.80
701.26	2592.73
701.45	3041.23
701.63	2416.60
701.81	2426.84
702.00	2435.03
702.18	2383.84
702.37	2545.63
702.55	2682.84
702.73	2736.09
702.92	2609.11
703.10	2854.87
703.28	2715.61
703.47	2555.86
703.65	2645.98
703.84	2619.35
704.02	2553.82
704.20	2731.99
704.39	2516.95
704.57	2449.37
704.75	2682.84
704.94	2613.21
705.12	2611.16
705.30	2977.75
705.49	5410.73
705.67	12547.90
705.86	20475.59
706.04	24178.32
706.22	26920.55
706.41	27692.63
706.59	22232.75
706.77	16164.62
706.96	13682.48
707.14	12056.39
707.32	10456.93
707.51	9150.32
707.69	7528.33
707.87	6012.84
708.06	5056.43
708.24	4214.72
708.42	3448.78
708.61	3366.86
708.79	2635.74
708.97	2643.93
709.16	2545.63
709.34	2631.64
709.52	2478.04
709.71	2543.58
709.89	2605.02
710.07	2371.55
710.26	2406.36
710.44	2459.61
710.62	2596.82
710.80	2506.71
710.99	2523.10
711.17	2490.33
711.35	2451.42
711.54	2430.94
711.72	2643.93
711.90	2584.54
712.09	2492.38
712.27	2484.19
712.45	2555.86
712.63	2392.03
712.82	2572.25
713.00	2490.33
713.18	2594.78
713.37	2498.52
713.55	2619.35
713.73	2512.86
713.91	2492.38
714.10	2430.94
714.28	2523.10
714.46	2486.23
714.65	2504.67
714.83	2455.51
715.01	2510.81
715.19	2490.33
715.38	2387.93
715.56	2502.62
715.74	2398.17
715.92	2357.21
716.11	2602.97
716.29	2281.44
716.47	2537.43
716.65	2504.67
716.84	2285.53
717.02	2600.92
717.20	2324.44
717.38	2453.47
717.57	2490.33
717.75	2400.22
717.93	2410.46
718.11	2572.25
718.30	2310.11
718.48	2435.03
718.66	2621.40
718.84	2662.36
719.03	2531.29
719.21	2346.97
719.39	2629.59
719.57	2576.34
719.75	2586.58
719.94	2324.44
720.12	2342.88
720.30	2455.51
720.48	2605.02
720.67	2351.07
720.85	2412.51
721.03	2439.13
721.21	2365.40
721.39	2523.10
721.58	2463.71
721.76	2516.95
721.94	2537.43
722.12	2535.39
722.30	2652.12
722.49	2439.13
722.67	2510.81
722.85	2473.95
723.03	2308.06
723.21	2355.16
723.40	2480.09
723.58	2660.31
723.76	2629.59
723.94	2637.78
724.12	2559.96
724.30	2674.65
724.49	2695.13
724.67	2381.79
724.85	2547.67
725.03	2353.12
725.21	2580.44
725.40	2613.21
725.58	2437.08
725.76	2602.97
725.94	2521.05
726.12	2320.35
726.30	2480.09
726.49	2453.47
726.67	2369.50
726.85	2609.11
727.03	2971.60
727.21	4243.39
727.39	5752.74
727.57	6602.65
727.76	7135.12
727.94	7552.91
728.12	6846.36
728.30	5294.00
728.48	4900.79
728.66	4480.96
728.84	4085.70
729.03	3577.80
729.21	3170.26
729.39	2854.87
729.57	2758.61
729.75	2643.93
729.93	2549.72
730.11	2400.22
730.30	2453.47
730.48	2490.33
730.66	2684.89
730.84	2586.58
731.02	2422.75
731.20	2414.56
731.38	2414.56
731.56	2297.82
731.74	2324.44
731.93	2473.95
732.11	2521.05
732.29	2445.27
732.47	2609.11
732.65	2447.32
732.83	2594.78
733.01	2543.58
733.19	2406.36
733.37	2592.73
733.56	2523.10
733.74	2369.50
733.92	2643.93
734.10	2496.47
734.28	2588.63
734.46	2322.40
734.64	2439.13
734.82	2475.99
735.00	2416.60
735.18	2439.13
735.36	2553.82
735.54	2478.04
735.73	2410.46
735.91	2510.81
736.09	2627.54
736.27	2420.70
736.45	2461.66
736.63	2285.53
736.81	2459.61
736.99	2498.52
737.17	2637.78
737.35	2416.60
737.53	2514.91
737.71	2445.27
737.89	2588.63
738.07	2357.21
738.25	2318.30
738.43	2299.87
738.61	2435.03
738.80	2342.88
738.98	2375.64
739.16	2428.89
739.34	2404.32
739.52	2645.98
739.70	2441.18
739.88	2557.91
740.06	2613.21
740.24	2271.20
740.42	2648.02
740.60	2306.01
740.78	2394.08
740.96	2289.63
741.14	2432.99
741.32	2430.94
741.50	2265.05
741.68	2602.97
741.86	2627.54
742.04	2342.88
742.22	2402.27
742.40	2490.33
742.58	2486.23
742.76	2437.08
742.94	2592.73
743.12	2297.82
743.30	2473.95
743.48	2510.81
743.66	2404.32
743.84	2496.47
744.02	2437.08
744.20	2535.39
744.38	2291.68
744.56	2447.32
744.74	2643.93
744.92	2521.05
745.10	2633.69
745.28	2564.06
745.46	2617.30
745.64	2457.56
745.82	2576.34
746.00	2510.81
746.18	2543.58
746.36	2404.32
746.54	2547.67
746.72	2463.71
746.90	2285.53
747.08	2668.50
747.26	2385.88
747.44	2592.73
747.62	2521.05
747.80	2521.05
747.98	2564.06
748.15	2496.47
748.33	2736.09
748.51	2576.34
748.69	2535.39
748.87	2426.84
749.05	2408.41
749.23	2371.55
749.41	2502.62
749.59	2465.75
749.77	2557.91
749.95	2447.32
750.13	2326.49
750.31	2543.58
750.49	2387.93
750.67	2650.07
750.85	2580.44
751.03	2381.79
751.20	2727.89
751.38	2461.66
751.56	2449.37
751.74	2480.09
751.92	2502.62
752.10	2342.88
752.28	2643.93
752.46	2351.07
752.64	2461.66
752.82	2443.23
753.00	2510.81
753.18	2471.90
753.35	2451.42
753.53	2506.71
753.71	2418.65
753.89	2531.29
754.07	2447.32
754.25	2678.74
754.43	2566.10
754.61	2351.07
754.79	2543.58
754.97	2523.10
755.14	2633.69
755.32	2367.45
755.50	2475.99
755.68	2416.60
755.86	2281.44
756.04	2445.27
756.22	2258.91
756.40	2619.35
756.57	2695.13
756.75	2389.98
756.93	2662.36
757.11	2541.53
757.29	2334.68
757.47	2396.12
757.65	2344.92
757.82	2265.05
758.00	2326.49
758.18	2361.31
758.36	2363.36
758.54	2711.51
758.72	2359.26
758.90	2559.96
759.07	2559.96
759.25	2490.33
759.43	2490.33
759.61	2346.97
759.79	3575.75
759.97	2645.98
760.15	2416.60
760.32	2424.80
760.50	2498.52
760.68	2609.11
760.86	2289.63
761.04	2535.39
761.22	2529.24
761.39	2467.80
761.57	2510.81
761.75	2379.74
761.93	2660.31
762.11	2478.04
762.28	2473.95
762.46	2342.88
762.64	2592.73
762.82	2371.55
763.00	2416.60
763.18	2574.30
763.35	2351.07
763.53	2588.63
763.71	2465.75
763.89	2392.03
764.07	2576.34
764.24	2461.66
764.42	2576.34
764.60	2383.84
764.78	2531.29
764.96	2529.24
765.13	2543.58
765.31	2416.60
765.49	2531.29
765.67	2361.31
765.84	2398.17
766.02	2406.36
766.20	2336.73
766.38	2566.10
766.56	2496.47
766.73	2572.25
766.91	2447.32
767.09	2482.14
767.27	2566.10
767.44	2326.49
767.62	2584.54
767.80	2461.66
767.98	2396.12
768.15	2430.94
768.33	2539.48
768.51	2539.48
768.69	2498.52
768.87	2514.91
769.04	2525.15
769.22	2734.04
769.40	2637.78
769.58	2621.40
769.75	2512.86
769.93	2633.69
770.11	2447.32
770.28	2357.21
770.46	2582.49
770.64	2541.53
770.82	2439.13
770.99	2469.85
771.17	2516.95
771.35	2473.95
771.53	2461.66
771.70	2389.98
771.88	2574.30
772.06	2424.80
772.23	2404.32
772.41	2428.89
772.59	2461.66
772.77	2334.68
772.94	2379.74
773.12	2402.27
773.30	2420.70
773.47	2519.00
773.65	2465.75
773.83	2539.48
774.01	2420.70
774.18	2285.53
774.36	2406.36
774.54	2291.68
774.71	2496.47
774.89	2359.26
775.07	2359.26
775.24	2424.80
775.42	2351.07
775.60	2625.50
775.78	2400.22
775.95	2283.49
776.13	2256.86
776.31	2242.53
776.48	2529.24
776.66	2580.44
776.84	2441.18
777.01	2334.68
777.19	2414.56
777.37	2432.99
777.54	2549.72
777.72	2699.22
777.90	2441.18
778.07	2461.66
778.25	2873.30
778.43	2613.21
778.60	2432.99
778.78	2525.15
778.96	2637.78
779.13	2322.40
779.31	2490.33
779.49	2445.27
779.66	2506.71
779.84	2471.90
780.01	2406.36
780.19	2349.02
780.37	2660.31
780.54	2633.69
780.72	2346.97
780.90	2437.08
781.07	2467.80
781.25	2478.04
781.43	2633.69
781.60	2400.22
781.78	2670.55
781.95	2539.48
782.13	2467.80
782.31	2430.94
782.48	2256.86
782.66	2539.48
782.83	2627.54
783.01	2387.93
783.19	2572.25
783.36	2459.61
783.54	2328.54
783.72	2625.50
783.89	2422.75
784.07	2514.91
784.24	2504.67
784.42	2629.59
784.60	2445.27
784.77	2580.44
784.95	2269.15
785.12	2338.78
785.30	2500.57
785.47	2355.16
785.65	2400.22
785.83	2367.45
786.00	2461.66
786.18	2482.14
786.35	2389.98
786.53	2342.88
786.71	2535.39
786.88	2545.63
787.06	2424.80
787.23	2506.71
787.41	2359.26
787.58	2447.32
787.76	2383.84
787.94	2514.91
788.11	2443.23
788.29	2383.84
788.46	2414.56
788.64	2306.01
788.81	2447.32
788.99	2365.40
789.16	2338.78
789.34	2494.43
789.52	2342.88
789.69	2377.69
789.87	2199.52
790.04	2383.84
790.22	2535.39
790.39	2686.94
790.57	2392.03
790.74	2344.92
790.92	2631.64
791.09	2336.73
791.27	2383.84
791.44	2553.82
791.62	2480.09
791.79	2531.29
791.97	2490.33
792.15	2813.91
792.32	2539.48
792.50	2510.81
792.67	2568.15
792.85	2645.98
793.02	2514.91
793.20	2445.27
793.37	2383.84
793.55	2420.70
793.72	2275.29
793.90	2557.91
794.07	2422.75
794.25	2387.93
794.42	2535.39
794.60	2484.19
794.77	2531.29
794.95	2500.57
795.12	2674.65
795.30	2322.40
795.47	2271.20
795.65	2760.66
795.82	2564.06
796.00	2371.55
796.17	2482.14
796.34	2402.27
796.52	2480.09
796.69	2617.30
796.87	2564.06
797.04	2494.43
797.22	2523.10
797.39	2426.84
797.57	2584.54
797.74	2494.43
797.92	2471.90
798.09	2490.33
798.27	2609.11
798.44	2402.27
798.62	2353.12
798.79	2514.91
798.96	2480.09
799.14	2428.89
799.31	2783.19
799.49	2465.75
799.66	2373.60
799.84	2502.62
800.01	2289.63
800.19	2478.04
800.36	2289.63
800.53	2512.86
800.71	2539.48
800.88	2668.50
801.06	2432.99
801.23	2369.50
801.41	2389.98
801.58	2414.56
801.75	2412.51
801.93	2463.71
802.10	2486.23
802.28	2494.43
802.45	2338.78
802.63	2480.09
802.80	2670.55
802.97	2478.04
803.15	2527.19
803.32	2430.94
803.50	2355.16
803.67	2443.23
803.84	2408.41
804.02	2437.08
804.19	2484.19
804.37	2207.71
804.54	2338.78
804.71	2357.21
804.89	2375.64
805.06	2402.27
805.24	2416.60
805.41	2330.59
805.58	2351.07
805.76	2740.18
805.93	2492.38
806.10	2621.40
806.28	2539.48
806.45	2455.51
806.63	2586.58
806.80	2463.71
806.97	2465.75
807.15	2547.67
807.32	2465.75
807.49	2392.03
807.67	2351.07
807.84	2588.63
808.01	2260.96
808.19	2609.11
808.36	2781.14
808.54	2408.41
808.71	2422.75
808.88	2432.99
809.06	2625.50
809.23	2643.93
809.40	2437.08
809.58	2555.86
809.75	2488.28
809.92	2308.06
810.10	2584.54
810.27	2410.46
810.44	2455.51
810.62	2492.38
810.79	2389.98
810.96	2355.16
811.14	2389.98
811.31	2566.10
811.48	2527.19
811.66	2465.75
811.83	2521.05
812.00	2588.63
812.18	2527.19
812.35	2699.22
812.52	2449.37
812.69	2383.84
812.87	2379.74
813.04	2322.40
813.21	2469.85
813.39	2394.08
813.56	2285.53
813.73	2584.54
813.91	2318.30
814.08	2447.32
814.25	2492.38
814.42	2303.96
814.60	2459.61
814.77	2482.14
814.94	2469.85
815.12	2447.32
815.29	2707.41
815.46	2277.34
815.63	2424.80
815.81	2455.51
815.98	2502.62
816.15	2535.39
816.33	2473.95
816.50	2410.46
816.67	2449.37
816.84	2445.27
817.02	2326.49
817.19	2432.99
817.36	2562.01
817.53	2512.86
817.71	2385.88
817.88	2478.04
818.05	2537.43
818.22	2418.65
818.40	2637.78
818.57	2461.66
818.74	2514.91
818.91	2473.95
819.09	2482.14
819.26	2635.74
819.43	2437.08
819.60	2369.50
819.78	2508.76
819.95	2519.00
820.12	2328.54
820.29	2625.50
820.47	2572.25
820.64	2371.55
820.81	2269.15
820.98	2351.07
821.15	2428.89
821.33	2535.39
821.50	2357.21
821.67	2576.34
821.84	2408.41
822.02	2516.95
822.19	2629.59
822.36	2449.37
822.53	2355.16
822.70	2252.77
822.88	2439.13
823.05	2648.02
823.22	2449.37
823.39	2564.06
823.56	2414.56
823.74	2762.71
823.91	2394.08
824.08	2355.16
824.25	2299.87
824.42	2668.50
824.60	2318.30
824.77	2525.15
824.94	2490.33
825.11	2502.62
825.28	2324.44
825.45	2465.75
825.63	2408.41
825.80	2324.44
825.97	2488.28
826.14	2416.60
826.31	2326.49
826.48	2519.00
826.66	2410.46
826.83	2432.99
827.00	2492.38
827.17	2432.99
827.34	2398.17
827.51	2379.74
827.69	2441.18
827.86	2330.59
828.03	2410.46
828.20	2471.90
828.37	2412.51
828.54	2482.14
828.71	2322.40
828.89	2588.63
829.06	2473.95
829.23	2662.36
829.40	2422.75
829.57	2355.16
829.74	2502.62
829.91	2404.32
830.09	2361.31
830.26	2490.33
830.43	2596.82
830.60	2510.81
830.77	2531.29
830.94	2523.10
831.11	2508.76
831.28	2463.71
831.46	2598.87
831.63	2400.22
831.80	2557.91
831.97	2387.93
832.14	2455.51
832.31	2473.95
832.48	2441.18
832.65	2588.63
832.82	2457.56
832.99	2435.03
833.17	2367.45
833.34	2672.60
833.51	2492.38
833.68	2187.23
833.85	2580.44
834.02	2435.03
834.19	2267.10
834.36	2349.02
834.53	2482.14
834.70	2555.86
834.87	2547.67
835.04	2332.64
835.22	2334.68
835.39	2381.79
835.56	2365.40
835.73	2424.80
835.90	2674.65
836.07	2416.60
836.24	2514.91
836.41	2279.39
836.58	2355.16
836.75	2600.92
836.92	2408.41
837.09	2281.44
837.26	2564.06
837.43	2529.24
837.60	2379.74
837.77	2373.60
837.94	2549.72
838.12	2650.07
838.29	2338.78
838.46	2308.06
838.63	2301.92
838.80	2650.07
838.97	2408.41
839.14	2412.51
839.31	2508.76
839.48	2584.54
839.65	2349.02
839.82	2490.33
839.99	2523.10
840.16	2490.33
840.33	2316.25
840.50	2471.90
840.67	2389.98
840.84	2228.19
841.01	2398.17
841.18	2320.35
841.35	2389.98
841.52	2519.00
841.69	2590.68
841.86	2418.65
842.03	2453.47
842.20	2539.48
842.37	2432.99
842.54	2371.55
842.71	2371.55
842.88	2269.15
843.05	2447.32
843.22	2412.51
843.39	2584.54
843.56	2402.27
843.73	2316.25
843.90	2412.51
844.07	2473.95
844.24	2648.02
844.41	2414.56
844.58	2383.84
844.75	2351.07
844.92	2543.58
845.09	2334.68
845.26	2314.20
845.43	2537.43
845.60	2396.12
845.77	2547.67
845.94	2424.80
846.10	2580.44
846.27	2242.53
846.44	2277.34
846.61	2344.92
846.78	2527.19
846.95	2549.72
847.12	2400.22
847.29	2310.11
847.46	2383.84
847.63	2537.43
847.80	2289.63
847.97	2306.01
848.14	2756.57
848.31	2482.14
848.48	2275.29
848.65	2449.37
848.82	2449.37
848.98	2850.77
849.15	2488.28
849.32	2498.52
849.49	2654.17
849.66	2455.51
849.83	2379.74
850.00	2306.01
850.17	2537.43
850.34	2445.27
850.51	2297.82
850.68	2318.30
850.85	2744.28
851.01	2539.48
851.18	2457.56
851.35	2318.30
851.52	2473.95
851.69	2656.22
851.86	2301.92
852.03	2392.03
852.20	2510.81
852.37	2465.75
852.53	2224.09
852.70	2349.02
852.87	2488.28
853.04	2512.86
853.21	2404.32
853.38	2562.01
853.55	2613.21
853.72	2553.82
853.89	2334.68
854.05	2383.84
854.22	2402.27
854.39	2367.45
854.56	2394.08
854.73	2549.72
854.90	2349.02
855.07	2457.56
855.23	2301.92
855.40	2306.01
855.57	2383.84
855.74	2269.15
855.91	2586.58
856.08	2240.48
856.25	2285.53
856.41	2455.51
856.58	2365.40
856.75	2383.84
856.92	2416.60
857.09	2545.63
857.26	2291.68
857.42	2412.51
857.59	2572.25
857.76	2408.41
857.93	2406.36
858.10	2441.18
858.27	2365.40
858.43	2422.75
858.60	2371.55
858.77	2256.86
858.94	2389.98
859.11	2654.17
859.27	2441.18
859.44	2369.50
859.61	2779.09
859.78	2545.63
859.95	2342.88
860.12	2351.07
860.28	2699.22
860.45	2691.03
860.62	2381.79
860.79	2426.84
860.95	2443.23
861.12	2334.68
861.29	2334.68
861.46	2291.68
861.63	2461.66
861.79	2473.95
861.96	2263.01
862.13	2392.03
862.30	2553.82
862.47	2355.16
862.63	2375.64
862.80	2437.08
862.97	2607.06
863.14	2592.73
863.30	2377.69
863.47	2357.21
863.64	2641.88
863.81	2453.47
863.97	2308.06
864.14	2432.99
864.31	2457.56
864.48	2488.28
864.65	2424.80
864.81	2533.34
864.98	2605.02
865.15	2584.54
865.32	2480.09
865.48	2482.14
865.65	2621.40
865.82	2465.75
865.98	2465.75
866.15	2445.27
866.32	2471.90
866.49	2439.13
866.65	2551.77
866.82	2306.01
866.99	2506.71
867.16	2408.41
867.32	2389.98
867.49	2371.55
867.66	2443.23
867.83	2465.75
867.99	2318.30
868.16	2389.98
868.33	2324.44
868.49	2457.56
868.66	2432.99
868.83	2428.89
868.99	2488.28
869.16	2533.34
869.33	2512.86
869.50	2551.77
869.66	2555.86
869.83	2484.19
870.00	2269.15
870.16	2449.37
870.33	2414.56
870.50	2580.44
870.66	2392.03
870.83	2449.37
871.00	2484.19
871.17	2555.86
871.33	2475.99
871.50	2316.25
871.67	2437.08
871.83	2406.36
872.00	2443.23
872.17	2389.98
872.33	2676.70
872.50	2551.77
872.67	2344.92
872.83	2314.20
873.00	2531.29
873.17	2453.47
873.33	2482.14
873.50	2389.98
873.67	2430.94
873.83	2387.93
874.00	2371.55
874.16	2439.13
874.33	2502.62
874.50	2344.92
874.66	2371.55
874.83	2381.79
875.00	2562.01
875.16	2574.30
875.33	2490.33
875.50	2133.98
875.66	2365.40
875.83	2562.01
875.99	2453.47
876.16	2398.17
876.33	2336.73
876.49	2449.37
876.66	2529.24
876.83	2432.99
876.99	2310.11
877.16	2445.27
877.32	2400.22
877.49	2377.69
877.66	2523.10
877.82	2621.40
877.99	2471.90
878.15	2582.49
878.32	2480.09
878.49	2564.06
878.65	2365.40
878.82	2559.96
878.98	2432.99
879.15	2684.89
879.32	2506.71
879.48	2539.48
879.65	2447.32
879.81	2426.84
879.98	2383.84
880.15	2398.17
880.31	2564.06
880.48	2402.27
880.64	2564.06
880.81	2455.51
880.97	2607.06
881.14	2527.19
881.31	2271.20
881.47	2492.38
881.64	2359.26
881.80	2281.44
881.97	2488.28
882.13	2428.89
882.30	2303.96
882.47	2326.49
882.63	2398.17
882.80	2334.68
882.96	2496.47
883.13	2666.46
883.29	2414.56
883.46	2375.64
883.62	2705.37
883.79	2441.18
883.95	2455.51
884.12	2324.44
884.29	2568.15
884.45	2428.89
884.62	2418.65
884.78	2365.40
884.95	2707.41
885.11	2373.60
885.28	2420.70
885.44	2367.45
885.61	2574.30
885.77	2645.98
885.94	2473.95
886.10	2404.32
886.27	2400.22
886.43	2686.94
886.60	2580.44
886.76	2351.07
886.93	2293.72
887.09	2504.67
887.26	2277.34
887.42	2441.18
887.59	2629.59
887.75	2686.94
887.92	2564.06
888.08	2451.42
888.25	2686.94
888.41	2553.82
888.58	2369.50
888.74	2392.03
888.91	2336.73
>>>>>End Processed Spectral Data<<<<<
