SpectraSuite Data File
++++++++++++++++++++++++++++++++++++
Date: Thu May 05 14:41:32 CEST 2016
User: root
Dark Spectrum Present: No
Reference Spectrum Present: No
Number of Sampled Component Spectra: 1
Spectrometers: USB4C02835
Integration Time (usec): 100000 (USB4C02835)
Spectra Averaged: 1 (USB4C02835)
Boxcar Smoothing: 0 (USB4C02835)
Correct for Electrical Dark: No (USB4C02835)
Strobe/Lamp Enabled: No (USB4C02835)
Correct for Detector Non-linearity: No (USB4C02835)
Correct for Stray Light: No (USB4C02835)
Number of Pixels in Processed Spectrum: 3648
>>>>>Begin Processed Spectral Data<<<<<
177.47	1900.52
177.69	1900.52
177.91	1900.52
178.13	1933.28
178.36	1933.28
178.58	2363.36
178.80	2533.34
179.02	2363.36
179.24	2389.98
179.46	2267.10
179.68	2334.68
179.90	2451.42
180.13	2473.95
180.35	2240.48
180.57	2277.34
180.79	2498.52
181.01	2514.91
181.23	2334.68
181.45	2473.95
181.67	2592.73
181.90	2623.45
182.12	2389.98
182.34	2224.09
182.56	2559.96
182.78	2576.34
183.00	2316.25
183.22	2439.13
183.44	2299.87
183.66	2793.43
183.89	2514.91
184.11	2373.60
184.33	2590.68
184.55	2580.44
184.77	2371.55
184.99	2453.47
185.21	2488.28
185.43	2770.90
185.65	2367.45
185.87	2404.32
186.10	2635.74
186.32	2740.18
186.54	2447.32
186.76	2426.84
186.98	2629.59
187.20	2400.22
187.42	2379.74
187.64	2355.16
187.86	2596.82
188.08	2678.74
188.30	2277.34
188.52	2408.41
188.75	2699.22
188.97	2664.41
189.19	2258.91
189.41	2365.40
189.63	2553.82
189.85	2475.99
190.07	2250.72
190.29	2236.38
190.51	2461.66
190.73	2267.10
190.95	2498.52
191.17	2387.93
191.39	2328.54
191.61	2439.13
191.84	2367.45
192.06	2291.68
192.28	2201.57
192.50	2834.39
192.72	2490.33
192.94	2432.99
193.16	2580.44
193.38	2439.13
193.60	2275.29
193.82	2422.75
194.04	2592.73
194.26	2514.91
194.48	2330.59
194.70	2404.32
194.92	2500.57
195.14	2478.04
195.36	2287.58
195.58	2416.60
195.80	2396.12
196.02	2422.75
196.24	2342.88
196.46	2385.88
196.69	2416.60
196.91	2777.05
197.13	2432.99
197.35	2265.05
197.57	2686.94
197.79	2514.91
198.01	2455.51
198.23	2424.80
198.45	2512.86
198.67	2367.45
198.89	2238.43
199.11	2406.36
199.33	2342.88
199.55	2185.18
199.77	2371.55
199.99	2461.66
200.21	2389.98
200.43	2514.91
200.65	2258.91
200.87	2217.95
201.09	2498.52
201.31	2449.37
201.53	2379.74
201.75	2457.56
201.97	2521.05
202.19	2488.28
202.41	2449.37
202.63	2531.29
202.85	2596.82
203.07	2492.38
203.29	2349.02
203.51	2258.91
203.73	2326.49
203.95	2781.14
204.17	2277.34
204.39	2334.68
204.61	2439.13
204.83	2473.95
205.05	2408.41
205.27	2387.93
205.49	2889.68
205.71	2379.74
205.93	2240.48
206.15	2314.20
206.37	2330.59
206.59	2463.71
206.81	2191.33
207.03	2252.77
207.25	2342.88
207.47	2631.64
207.69	2416.60
207.91	2502.62
208.13	2650.07
208.34	2500.57
208.56	2258.91
208.78	2402.27
209.00	2478.04
209.22	2473.95
209.44	2392.03
209.66	2285.53
209.88	2455.51
210.10	2463.71
210.32	2375.64
210.54	2500.57
210.76	2449.37
210.98	2594.78
211.20	2154.46
211.42	2422.75
211.64	2703.32
211.86	2516.95
212.08	2365.40
212.30	2314.20
212.52	2486.23
212.74	2461.66
212.96	2381.79
213.17	2408.41
213.39	2576.34
213.61	2674.65
213.83	2346.97
214.05	2332.64
214.27	2611.16
214.49	2303.96
214.71	2275.29
214.93	2410.46
215.15	2459.61
215.37	2596.82
215.59	2201.57
215.81	2437.08
216.03	2648.02
216.24	2521.05
216.46	2418.65
216.68	2414.56
216.90	2539.48
217.12	2607.06
217.34	2299.87
217.56	2414.56
217.78	2627.54
218.00	2525.15
218.22	2424.80
218.44	2482.14
218.66	2594.78
218.87	2650.07
219.09	2330.59
219.31	2363.36
219.53	2457.56
219.75	2398.17
219.97	2310.11
220.19	2412.51
220.41	2506.71
220.63	2660.31
220.85	2394.08
221.06	2342.88
221.28	2645.98
221.50	2602.97
221.72	2318.30
221.94	2330.59
222.16	2564.06
222.38	2592.73
222.60	2414.56
222.82	2351.07
223.03	2662.36
223.25	2379.74
223.47	2289.63
223.69	2559.96
223.91	2523.10
224.13	2545.63
224.35	2240.48
224.57	2498.52
224.78	2574.30
225.00	2295.77
225.22	2359.26
225.44	2277.34
225.66	2564.06
225.88	2441.18
226.10	2467.80
226.32	2361.31
226.53	2670.55
226.75	2441.18
226.97	2342.88
227.19	2428.89
227.41	2365.40
227.63	2447.32
227.85	2279.39
228.06	2437.08
228.28	2535.39
228.50	2549.72
228.72	2299.87
228.94	2377.69
229.16	2275.29
229.37	2328.54
229.59	2293.72
229.81	2547.67
230.03	2402.27
230.25	2277.34
230.47	2224.09
230.69	2267.10
230.90	2547.67
231.12	2385.88
231.34	2338.78
231.56	2432.99
231.78	2369.50
232.00	2521.05
232.21	2338.78
232.43	2392.03
232.65	2232.29
232.87	2572.25
233.09	2318.30
233.30	2228.19
233.52	2594.78
233.74	2424.80
233.96	2398.17
234.18	2422.75
234.40	2449.37
234.61	2731.99
234.83	2260.96
235.05	2297.82
235.27	2840.53
235.49	2631.64
235.70	2316.25
235.92	2461.66
236.14	2555.86
236.36	2873.30
236.58	2179.04
236.79	2439.13
237.01	2463.71
237.23	2447.32
237.45	2547.67
237.67	2310.11
237.88	2539.48
238.10	2793.43
238.32	2277.34
238.54	2383.84
238.76	2490.33
238.97	2377.69
239.19	2334.68
239.41	2414.56
239.63	2643.93
239.85	2408.41
240.06	2377.69
240.28	2353.12
240.50	2633.69
240.72	2437.08
240.93	2306.01
241.15	2432.99
241.37	2414.56
241.59	2701.27
241.81	2340.83
242.02	2303.96
242.24	2551.77
242.46	2564.06
242.68	2256.86
242.89	2381.79
243.11	2615.26
243.33	2414.56
243.55	2357.21
243.76	2359.26
243.98	2324.44
244.20	2506.71
244.42	2334.68
244.64	2387.93
244.85	2314.20
245.07	2377.69
245.29	2349.02
245.51	2363.36
245.72	2562.01
245.94	2586.58
246.16	2404.32
246.38	2377.69
246.59	2420.70
246.81	2394.08
247.03	2287.58
247.24	2297.82
247.46	2424.80
247.68	2486.23
247.90	2293.72
248.11	2379.74
248.33	2598.87
248.55	2496.47
248.77	2441.18
248.98	2414.56
249.20	2656.22
249.42	2506.71
249.64	2344.92
249.85	2367.45
250.07	2488.28
250.29	2539.48
250.50	2383.84
250.72	2228.19
250.94	2535.39
251.16	2772.95
251.37	2373.60
251.59	2375.64
251.81	2482.14
252.02	2727.89
252.24	2322.40
252.46	2445.27
252.68	2447.32
252.89	2408.41
253.11	2203.61
253.33	2475.99
253.54	2705.37
253.76	2285.53
253.98	2355.16
254.20	2287.58
254.41	2367.45
254.63	2539.48
254.85	2285.53
255.06	2400.22
255.28	2519.00
255.50	2439.13
255.71	2338.78
255.93	2230.24
256.15	2432.99
256.36	2465.75
256.58	2291.68
256.80	2320.35
257.02	2445.27
257.23	2504.67
257.45	2414.56
257.67	2435.03
257.88	2400.22
258.10	2586.58
258.32	2332.64
258.53	2375.64
258.75	2750.42
258.97	2346.97
259.18	2269.15
259.40	2342.88
259.62	2734.04
259.83	2629.59
260.05	2426.84
260.27	2922.45
260.48	2588.63
260.70	2396.12
260.92	2318.30
261.13	2340.83
261.35	2484.19
261.57	2564.06
261.78	2174.94
262.00	2301.92
262.22	2539.48
262.43	2422.75
262.65	2363.36
262.86	2418.65
263.08	2738.13
263.30	2494.43
263.51	2195.42
263.73	2322.40
263.95	2621.40
264.16	2377.69
264.38	2265.05
264.60	2332.64
264.81	2504.67
265.03	2629.59
265.25	2592.73
265.46	2310.11
265.68	2621.40
265.89	2551.77
266.11	2301.92
266.33	2375.64
266.54	2582.49
266.76	2557.91
266.98	2428.89
267.19	2422.75
267.41	2566.10
267.62	2400.22
267.84	2248.67
268.06	2406.36
268.27	2398.17
268.49	2570.20
268.70	2379.74
268.92	2336.73
269.14	2416.60
269.35	2365.40
269.57	2351.07
269.79	2449.37
270.00	2453.47
270.22	2770.90
270.43	2240.48
270.65	2201.57
270.87	2512.86
271.08	2574.30
271.30	2404.32
271.51	2392.03
271.73	2547.67
271.95	2588.63
272.16	2308.06
272.38	2400.22
272.59	2412.51
272.81	2564.06
273.02	2324.44
273.24	2461.66
273.46	2586.58
273.67	2387.93
273.89	2260.96
274.10	2287.58
274.32	2510.81
274.54	2523.10
274.75	2404.32
274.97	2297.82
275.18	2629.59
275.40	2559.96
275.61	2392.03
275.83	2467.80
276.05	2326.49
276.26	2486.23
276.48	2346.97
276.69	2396.12
276.91	2408.41
277.12	2680.79
277.34	2617.30
277.55	2555.86
277.77	2623.45
277.99	2432.99
278.20	2392.03
278.42	2256.86
278.63	2371.55
278.85	2334.68
279.06	2322.40
279.28	2465.75
279.49	2588.63
279.71	2463.71
279.93	2412.51
280.14	2383.84
280.36	2340.83
280.57	2568.15
280.79	2496.47
281.00	2287.58
281.22	2416.60
281.43	2725.85
281.65	2226.14
281.86	2342.88
282.08	2519.00
282.29	2697.17
282.51	2220.00
282.73	2318.30
282.94	2269.15
283.16	2512.86
283.37	2580.44
283.59	2480.09
283.80	2531.29
284.02	2461.66
284.23	2404.32
284.45	2387.93
284.66	2332.64
284.88	2308.06
285.09	2381.79
285.31	2504.67
285.52	2482.14
285.74	2275.29
285.95	2537.43
286.17	2451.42
286.38	2572.25
286.60	2455.51
286.81	2404.32
287.03	2447.32
287.24	2504.67
287.46	2582.49
287.67	2492.38
287.89	2662.36
288.10	2516.95
288.32	2441.18
288.53	2619.35
288.75	2496.47
288.96	2584.54
289.18	2426.84
289.39	2387.93
289.61	2602.97
289.82	2725.85
290.04	2607.06
290.25	2285.53
290.47	2473.95
290.68	2469.85
290.90	2525.15
291.11	2269.15
291.33	2482.14
291.54	2361.31
291.76	2432.99
291.97	2564.06
292.18	2416.60
292.40	2504.67
292.61	2392.03
292.83	2641.88
293.04	2424.80
293.26	2566.10
293.47	2424.80
293.69	2375.64
293.90	2295.77
294.12	2697.17
294.33	2457.56
294.55	2447.32
294.76	2457.56
294.97	2607.06
295.19	2789.33
295.40	2357.21
295.62	2408.41
295.83	2643.93
296.05	2453.47
296.26	2508.76
296.48	2398.17
296.69	2435.03
296.90	2435.03
297.12	2551.77
297.33	2568.15
297.55	2531.29
297.76	2506.71
297.98	2469.85
298.19	2475.99
298.41	2473.95
298.62	2320.35
298.83	2605.02
299.05	2469.85
299.26	2482.14
299.48	2410.46
299.69	2469.85
299.90	2449.37
300.12	2424.80
300.33	2541.53
300.55	2512.86
300.76	2523.10
300.98	2394.08
301.19	2580.44
301.40	2437.08
301.62	2461.66
301.83	2502.62
302.05	2473.95
302.26	2318.30
302.47	2459.61
302.69	2326.49
302.90	2502.62
303.12	2217.95
303.33	2523.10
303.54	2725.85
303.76	2447.32
303.97	2430.94
304.19	2594.78
304.40	2332.64
304.61	2588.63
304.83	2598.87
305.04	2519.00
305.26	2621.40
305.47	2420.70
305.68	2443.23
305.90	2342.88
306.11	2633.69
306.33	2506.71
306.54	2371.55
306.75	2369.50
306.97	2316.25
307.18	2392.03
307.39	2416.60
307.61	2473.95
307.82	2588.63
308.04	2486.23
308.25	2363.36
308.46	2437.08
308.68	2498.52
308.89	2430.94
309.10	2555.86
309.32	2453.47
309.53	2457.56
309.74	2576.34
309.96	2365.40
310.17	2508.76
310.39	2381.79
310.60	2521.05
310.81	2428.89
311.03	2344.92
311.24	2658.26
311.45	2471.90
311.67	2588.63
311.88	2453.47
312.09	2424.80
312.31	2437.08
312.52	2389.98
312.73	2351.07
312.95	2318.30
313.16	2353.12
313.37	2553.82
313.59	2510.81
313.80	2543.58
314.01	2717.65
314.23	2389.98
314.44	2273.25
314.65	2301.92
314.87	2363.36
315.08	2418.65
315.29	2371.55
315.51	2389.98
315.72	2416.60
315.93	2580.44
316.15	2428.89
316.36	2459.61
316.57	2424.80
316.79	2422.75
317.00	2432.99
317.21	2613.21
317.43	2338.78
317.64	2455.51
317.85	2342.88
318.07	2432.99
318.28	2426.84
318.49	2596.82
318.70	2678.74
318.92	2619.35
319.13	2613.21
319.34	2662.36
319.56	2469.85
319.77	2617.30
319.98	2676.70
320.20	2596.82
320.41	2484.19
320.62	2559.96
320.83	2367.45
321.05	2613.21
321.26	2508.76
321.47	2506.71
321.69	2615.26
321.90	2312.16
322.11	2328.54
322.32	2553.82
322.54	2744.28
322.75	2396.12
322.96	2789.33
323.18	2375.64
323.39	2275.29
323.60	2351.07
323.81	2533.34
324.03	2459.61
324.24	2469.85
324.45	2463.71
324.66	2342.88
324.88	2572.25
325.09	2637.78
325.30	2375.64
325.52	2379.74
325.73	2533.34
325.94	2332.64
326.15	2310.11
326.37	2344.92
326.58	2592.73
326.79	2672.60
327.00	2355.16
327.22	2463.71
327.43	2486.23
327.64	2342.88
327.85	2447.32
328.07	2488.28
328.28	2666.46
328.49	2420.70
328.70	2432.99
328.92	2342.88
329.13	2478.04
329.34	2473.95
329.55	2572.25
329.76	2490.33
329.98	2545.63
330.19	2621.40
330.40	2461.66
330.61	2469.85
330.83	2564.06
331.04	2449.37
331.25	2432.99
331.46	2373.60
331.68	2342.88
331.89	2549.72
332.10	2400.22
332.31	2217.95
332.52	2478.04
332.74	2707.41
332.95	2220.00
333.16	2424.80
333.37	2500.57
333.58	2398.17
333.80	2453.47
334.01	2353.12
334.22	2420.70
334.43	2353.12
334.64	2432.99
334.86	2281.44
335.07	2414.56
335.28	2666.46
335.49	2320.35
335.70	2441.18
335.92	2643.93
336.13	2781.14
336.34	2449.37
336.55	2465.75
336.76	2605.02
336.98	2301.92
337.19	2357.21
337.40	2535.39
337.61	2715.61
337.82	2439.13
338.04	2498.52
338.25	2277.34
338.46	2508.76
338.67	2420.70
338.88	2308.06
339.09	2267.10
339.31	2445.27
339.52	2406.36
339.73	2314.20
339.94	2385.88
340.15	2602.97
340.36	2430.94
340.58	2473.95
340.79	2355.16
341.00	2625.50
341.21	2310.11
341.42	2570.20
341.63	2381.79
341.85	2605.02
342.06	2537.43
342.27	2349.02
342.48	2588.63
342.69	2326.49
342.90	2488.28
343.12	2539.48
343.33	2394.08
343.54	2527.19
343.75	2672.60
343.96	2414.56
344.17	2392.03
344.38	2465.75
344.60	2441.18
344.81	2375.64
345.02	2369.50
345.23	2590.68
345.44	2791.38
345.65	2529.24
345.86	2502.62
346.07	2469.85
346.29	2361.31
346.50	2502.62
346.71	2486.23
346.92	2621.40
347.13	2715.61
347.34	2418.65
347.55	2435.03
347.76	2494.43
347.98	2279.39
348.19	2383.84
348.40	2533.34
348.61	2344.92
348.82	2719.70
349.03	2523.10
349.24	2365.40
349.45	2777.05
349.66	2185.18
349.88	2420.70
350.09	2322.40
350.30	2625.50
350.51	2629.59
350.72	2506.71
350.93	2457.56
351.14	2457.56
351.35	2506.71
351.56	2478.04
351.77	2521.05
351.99	2600.92
352.20	2699.22
352.41	2506.71
352.62	2254.81
352.83	2545.63
353.04	2506.71
353.25	2424.80
353.46	2508.76
353.67	2586.58
353.88	2215.90
354.09	2469.85
354.30	2498.52
354.52	2463.71
354.73	2432.99
354.94	2416.60
355.15	2461.66
355.36	2748.37
355.57	2451.42
355.78	2408.41
355.99	2396.12
356.20	2467.80
356.41	2602.97
356.62	2469.85
356.83	2473.95
357.04	2695.13
357.25	2308.06
357.46	2392.03
357.68	2258.91
357.89	2267.10
358.10	2467.80
358.31	2396.12
358.52	2398.17
358.73	2326.49
358.94	2371.55
359.15	2363.36
359.36	2453.47
359.57	2449.37
359.78	2453.47
359.99	2549.72
360.20	2398.17
360.41	2478.04
360.62	2543.58
360.83	2525.15
361.04	2506.71
361.25	2564.06
361.46	2623.45
361.67	2559.96
361.88	2504.67
362.09	2539.48
362.30	2498.52
362.51	2400.22
362.72	2416.60
362.93	2686.94
363.14	2547.67
363.35	2553.82
363.56	2330.59
363.78	2645.98
363.99	2580.44
364.20	2408.41
364.41	2510.81
364.62	2742.23
364.83	2510.81
365.04	2373.60
365.25	2449.37
365.46	2750.42
365.67	2402.27
365.88	2430.94
366.09	2369.50
366.30	2418.65
366.51	2570.20
366.72	2310.11
366.93	2447.32
367.14	2494.43
367.35	2688.98
367.56	2365.40
367.77	2568.15
367.98	2432.99
368.18	2519.00
368.39	2480.09
368.60	2375.64
368.81	2596.82
369.02	2484.19
369.23	2410.46
369.44	2314.20
369.65	2439.13
369.86	2465.75
370.07	2506.71
370.28	2314.20
370.49	2506.71
370.70	2584.54
370.91	2334.68
371.12	2334.68
371.33	2654.17
371.54	2441.18
371.75	2547.67
371.96	2195.42
372.17	2473.95
372.38	2430.94
372.59	2455.51
372.80	2367.45
373.01	2486.23
373.22	2543.58
373.43	2396.12
373.64	2316.25
373.85	2643.93
374.06	2662.36
374.26	2521.05
374.47	2428.89
374.68	2703.32
374.89	2531.29
375.10	2367.45
375.31	2553.82
375.52	2527.19
375.73	2580.44
375.94	2338.78
376.15	2549.72
376.36	2424.80
376.57	2353.12
376.78	2408.41
376.99	2506.71
377.20	2637.78
377.40	2432.99
377.61	2588.63
377.82	2373.60
378.03	2678.74
378.24	2564.06
378.45	2430.94
378.66	2498.52
378.87	2297.82
379.08	2312.16
379.29	2400.22
379.50	2539.48
379.71	2455.51
379.91	2621.40
380.12	2408.41
380.33	2519.00
380.54	2441.18
380.75	2447.32
380.96	2377.69
381.17	2506.71
381.38	2494.43
381.59	2445.27
381.80	2500.57
382.00	2643.93
382.21	2559.96
382.42	2672.60
382.63	2695.13
382.84	2531.29
383.05	2654.17
383.26	2684.89
383.47	2416.60
383.68	2535.39
383.88	2553.82
384.09	2496.47
384.30	2684.89
384.51	2506.71
384.72	2412.51
384.93	2330.59
385.14	2418.65
385.35	2615.26
385.55	2396.12
385.76	2674.65
385.97	2406.36
386.18	2322.40
386.39	2402.27
386.60	2437.08
386.81	2404.32
387.02	2351.07
387.22	2301.92
387.43	2564.06
387.64	2688.98
387.85	2594.78
388.06	2625.50
388.27	4143.04
388.48	8351.62
388.68	12164.93
388.89	14731.04
389.10	15949.58
389.31	14923.55
389.52	11650.89
389.73	10239.84
389.93	9267.06
390.14	8468.35
390.35	7413.65
390.56	6811.54
390.77	5584.81
390.98	4267.97
391.18	3471.31
391.39	2912.21
391.60	2594.78
391.81	2631.64
392.02	2404.32
392.23	2785.24
392.43	2555.86
392.64	2605.02
392.85	2482.14
393.06	2678.74
393.27	2506.71
393.47	2430.94
393.68	2430.94
393.89	2449.37
394.10	2619.35
394.31	2371.55
394.52	2353.12
394.72	2441.18
394.93	2707.41
395.14	2357.21
395.35	2592.73
395.56	2377.69
395.76	2490.33
395.97	2506.71
396.18	2588.63
396.39	2648.02
396.60	3067.86
396.80	2744.28
397.01	2600.92
397.22	2586.58
397.43	2672.60
397.64	2432.99
397.84	2555.86
398.05	2709.46
398.26	2455.51
398.47	2447.32
398.67	2654.17
398.88	2428.89
399.09	2586.58
399.30	2449.37
399.51	2506.71
399.71	2410.46
399.92	2416.60
400.13	2488.28
400.34	2453.47
400.54	2539.48
400.75	2697.17
400.96	2392.03
401.17	2609.11
401.37	2537.43
401.58	2553.82
401.79	2418.65
402.00	2570.20
402.21	2899.92
402.41	2818.00
402.62	2768.85
402.83	2953.17
403.04	2940.88
403.24	3049.43
403.45	2611.16
403.66	2799.57
403.87	2719.70
404.07	2781.14
404.28	2793.43
404.49	2701.27
404.70	2600.92
404.90	2619.35
405.11	2418.65
405.32	2498.52
405.52	2467.80
405.73	2389.98
405.94	2381.79
406.15	2424.80
406.35	2602.97
406.56	2609.11
406.77	2535.39
406.98	2537.43
407.18	2428.89
407.39	2650.07
407.60	2373.60
407.80	2543.58
408.01	2414.56
408.22	2559.96
408.43	2406.36
408.63	2490.33
408.84	2568.15
409.05	2623.45
409.25	2363.36
409.46	2379.74
409.67	2447.32
409.88	2453.47
410.08	2547.67
410.29	2416.60
410.50	2539.48
410.70	2572.25
410.91	2306.01
411.12	2541.53
411.32	2457.56
411.53	2449.37
411.74	2488.28
411.95	2553.82
412.15	2580.44
412.36	2664.41
412.57	2473.95
412.77	2557.91
412.98	2447.32
413.19	2430.94
413.39	2504.67
413.60	2432.99
413.81	2762.71
414.01	2387.93
414.22	2531.29
414.43	2568.15
414.63	2396.12
414.84	2598.87
415.05	2467.80
415.25	2316.25
415.46	2551.77
415.67	2516.95
415.87	2484.19
416.08	2377.69
416.29	2449.37
416.49	2535.39
416.70	2439.13
416.91	2424.80
417.11	2496.47
417.32	2658.26
417.53	2557.91
417.73	2531.29
417.94	2506.71
418.15	2478.04
418.35	2488.28
418.56	2531.29
418.77	2826.20
418.97	2439.13
419.18	2480.09
419.38	2154.46
419.59	2570.20
419.80	2666.46
420.00	2402.27
420.21	2486.23
420.42	2568.15
420.62	2529.24
420.83	2373.60
421.04	2478.04
421.24	2514.91
421.45	2625.50
421.65	2480.09
421.86	2451.42
422.07	2514.91
422.27	2531.29
422.48	2437.08
422.69	2291.68
422.89	2473.95
423.10	2363.36
423.30	2342.88
423.51	2482.14
423.72	2584.54
423.92	2506.71
424.13	2334.68
424.33	2490.33
424.54	2543.58
424.75	2471.90
424.95	2580.44
425.16	2418.65
425.36	2400.22
425.57	2617.30
425.78	2445.27
425.98	2605.02
426.19	2447.32
426.39	2414.56
426.60	2484.19
426.81	2619.35
427.01	2498.52
427.22	2346.97
427.42	2361.31
427.63	2353.12
427.83	2551.77
428.04	2756.57
428.25	2514.91
428.45	2621.40
428.66	2627.54
428.86	2428.89
429.07	2437.08
429.28	2447.32
429.48	2478.04
429.69	2410.46
429.89	2478.04
430.10	2330.59
430.30	2570.20
430.51	2615.26
430.71	2381.79
430.92	2379.74
431.13	2480.09
431.33	2531.29
431.54	2426.84
431.74	2600.92
431.95	2744.28
432.15	2437.08
432.36	2473.95
432.56	2582.49
432.77	2785.24
432.98	2717.65
433.18	2541.53
433.39	2408.41
433.59	2537.43
433.80	2680.79
434.00	2695.13
434.21	2379.74
434.41	2404.32
434.62	2740.18
434.82	2383.84
435.03	2404.32
435.23	2514.91
435.44	2342.88
435.64	2484.19
435.85	2506.71
436.06	2572.25
436.26	2617.30
436.47	2387.93
436.67	2344.92
436.88	2457.56
437.08	2662.36
437.29	2568.15
437.49	2541.53
437.70	2648.02
437.90	2467.80
438.11	2607.06
438.31	2494.43
438.52	2678.74
438.72	2695.13
438.93	2770.90
439.13	2570.20
439.34	2627.54
439.54	2486.23
439.75	2535.39
439.95	2559.96
440.16	2381.79
440.36	2506.71
440.57	2484.19
440.77	2422.75
440.98	2439.13
441.18	2592.73
441.39	2381.79
441.59	2336.73
441.80	2707.41
442.00	2506.71
442.21	2572.25
442.41	2287.58
442.62	2564.06
442.82	2416.60
443.02	2430.94
443.23	2469.85
443.43	2439.13
443.64	2641.88
443.84	2416.60
444.05	2566.10
444.25	2609.11
444.46	2469.85
444.66	2416.60
444.87	2637.78
445.07	2285.53
445.28	2512.86
445.48	2611.16
445.69	2584.54
445.89	2818.00
446.09	2445.27
446.30	2711.51
446.50	2990.03
446.71	4470.72
446.91	5814.18
447.12	6778.78
447.32	7200.66
447.53	6713.24
447.73	5496.75
447.93	4712.38
448.14	4411.32
448.34	4505.53
448.55	3862.47
448.75	3874.76
448.96	3612.62
449.16	3260.37
449.36	3110.86
449.57	2725.85
449.77	2432.99
449.98	2488.28
450.18	2514.91
450.39	2471.90
450.59	2562.01
450.79	2410.46
451.00	2424.80
451.20	2652.12
451.41	2478.04
451.61	2519.00
451.81	2469.85
452.02	2432.99
452.22	2473.95
452.43	2359.26
452.63	2488.28
452.84	2441.18
453.04	2455.51
453.24	2531.29
453.45	2451.42
453.65	2410.46
453.86	2473.95
454.06	2543.58
454.26	2529.24
454.47	2424.80
454.67	2506.71
454.87	2533.34
455.08	2482.14
455.28	2613.21
455.49	2521.05
455.69	2457.56
455.89	2664.41
456.10	2602.97
456.30	2430.94
456.51	2480.09
456.71	2555.86
456.91	2537.43
457.12	2443.23
457.32	2557.91
457.52	2332.64
457.73	2549.72
457.93	2564.06
458.14	2435.03
458.34	2263.01
458.54	2402.27
458.75	2418.65
458.95	2611.16
459.15	2494.43
459.36	2533.34
459.56	2480.09
459.76	2703.32
459.97	2504.67
460.17	2439.13
460.37	2531.29
460.58	2545.63
460.78	2564.06
460.99	2457.56
461.19	2486.23
461.39	2420.70
461.60	2465.75
461.80	2496.47
462.00	2283.49
462.21	2510.81
462.41	2353.12
462.61	2375.64
462.82	2316.25
463.02	2613.21
463.22	2531.29
463.43	2594.78
463.63	2424.80
463.83	2660.31
464.04	2555.86
464.24	2414.56
464.44	2402.27
464.64	2502.62
464.85	2570.20
465.05	2514.91
465.25	2449.37
465.46	2416.60
465.66	2605.02
465.86	2519.00
466.07	2484.19
466.27	2537.43
466.47	2334.68
466.68	2306.01
466.88	2605.02
467.08	2631.64
467.29	2654.17
467.49	2496.47
467.69	2463.71
467.89	2578.39
468.10	2471.90
468.30	2512.86
468.50	2580.44
468.71	2666.46
468.91	2332.64
469.11	2635.74
469.31	2533.34
469.52	2400.22
469.72	2654.17
469.92	2703.32
470.13	2473.95
470.33	2590.68
470.53	2611.16
470.73	2938.84
470.94	3354.57
471.14	3422.16
471.34	3895.24
471.54	3755.97
471.75	3448.78
471.95	3170.26
472.15	2963.41
472.36	3143.63
472.56	2924.50
472.76	2994.13
472.96	2889.68
473.17	2742.23
473.37	2693.08
473.57	2607.06
473.77	2588.63
473.98	2430.94
474.18	2379.74
474.38	2940.88
474.58	2475.99
474.79	2389.98
474.99	2557.91
475.19	2580.44
475.39	2424.80
475.60	2637.78
475.80	2449.37
476.00	2564.06
476.20	2519.00
476.41	2523.10
476.61	2490.33
476.81	2605.02
477.01	2367.45
477.21	2645.98
477.42	2566.10
477.62	2424.80
477.82	2705.37
478.02	2473.95
478.23	2531.29
478.43	2346.97
478.63	2443.23
478.83	2449.37
479.03	2486.23
479.24	2650.07
479.44	2736.09
479.64	2420.70
479.84	2287.58
480.04	2392.03
480.25	2625.50
480.45	2422.75
480.65	2443.23
480.85	2744.28
481.06	2441.18
481.26	2519.00
481.46	2514.91
481.66	2549.72
481.86	2394.08
482.06	2551.77
482.27	2418.65
482.47	2443.23
482.67	2508.76
482.87	2420.70
483.07	2586.58
483.28	2471.90
483.48	2342.88
483.68	2465.75
483.88	2371.55
484.08	2269.15
484.29	2383.84
484.49	2459.61
484.69	2252.77
484.89	2662.36
485.09	2588.63
485.29	2447.32
485.50	2539.48
485.70	2383.84
485.90	2625.50
486.10	2611.16
486.30	2525.15
486.50	2668.50
486.71	2555.86
486.91	2611.16
487.11	2572.25
487.31	2349.02
487.51	2525.15
487.71	2314.20
487.91	2365.40
488.12	2353.12
488.32	2154.46
488.52	2383.84
488.72	2209.76
488.92	2488.28
489.12	2639.83
489.32	2521.05
489.53	2576.34
489.73	2367.45
489.93	2703.32
490.13	2359.26
490.33	2346.97
490.53	2523.10
490.73	2623.45
490.94	2392.03
491.14	2525.15
491.34	2641.88
491.54	2766.81
491.74	3432.40
491.94	3950.53
492.14	4382.65
492.34	4435.90
492.54	4216.77
492.75	3530.70
492.95	3534.79
493.15	3215.31
493.35	3145.68
493.55	3071.95
493.75	2914.26
493.95	3063.76
494.15	2772.95
494.35	2564.06
494.56	2578.39
494.76	2392.03
494.96	2457.56
495.16	2461.66
495.36	2545.63
495.56	2529.24
495.76	2478.04
495.96	2498.52
496.16	2326.49
496.36	2752.47
496.56	2437.08
496.77	2539.48
496.97	2465.75
497.17	2693.08
497.37	2293.72
497.57	2512.86
497.77	2449.37
497.97	2349.02
498.17	2473.95
498.37	2457.56
498.57	2559.96
498.77	2398.17
498.97	2498.52
499.17	2670.55
499.38	2449.37
499.58	2506.71
499.78	2531.29
499.98	2588.63
500.18	2420.70
500.38	2406.36
500.58	2695.13
500.78	3147.73
500.98	5353.39
501.18	7538.57
501.38	9215.86
501.58	10129.25
501.78	9998.18
501.98	8130.44
502.18	6733.72
502.38	5902.25
502.58	5423.02
502.78	4923.32
502.98	4642.75
503.18	4460.48
503.38	4001.73
503.59	3577.80
503.79	3387.34
503.99	3223.50
504.19	3063.76
504.39	3104.72
504.59	3096.53
504.79	3010.51
504.99	3186.64
505.19	2854.87
505.39	2676.70
505.59	2899.92
505.79	2809.81
505.99	2717.65
506.19	2539.48
506.39	2717.65
506.59	2486.23
506.79	2490.33
506.99	2637.78
507.19	2463.71
507.39	2555.86
507.59	2357.21
507.79	2402.27
507.99	2424.80
508.19	2482.14
508.39	2455.51
508.59	2430.94
508.79	2557.91
508.99	2772.95
509.19	2334.68
509.39	2588.63
509.59	2375.64
509.79	2484.19
509.99	2455.51
510.19	2572.25
510.39	2547.67
510.59	2553.82
510.79	2387.93
510.99	2318.30
511.19	2457.56
511.39	2674.65
511.59	2645.98
511.79	2648.02
511.99	2424.80
512.19	2701.27
512.38	2500.57
512.58	2455.51
512.78	2410.46
512.98	2545.63
513.18	2705.37
513.38	2332.64
513.58	2510.81
513.78	2473.95
513.98	2449.37
514.18	2441.18
514.38	2406.36
514.58	2508.76
514.78	2496.47
514.98	2426.84
515.18	2531.29
515.38	2367.45
515.58	2748.37
515.78	2482.14
515.98	2447.32
516.18	2572.25
516.38	2463.71
516.57	2387.93
516.77	2389.98
516.97	2496.47
517.17	2418.65
517.37	2318.30
517.57	2568.15
517.77	2498.52
517.97	2363.36
518.17	2486.23
518.37	2408.41
518.57	2408.41
518.77	2471.90
518.97	2482.14
519.16	2514.91
519.36	2705.37
519.56	2430.94
519.76	2445.27
519.96	2455.51
520.16	2613.21
520.36	2396.12
520.56	2627.54
520.76	2428.89
520.96	2428.89
521.16	2555.86
521.35	2586.58
521.55	2588.63
521.75	2461.66
521.95	2473.95
522.15	2363.36
522.35	2263.01
522.55	2478.04
522.75	2652.12
522.95	2523.10
523.14	2330.59
523.34	2539.48
523.54	2527.19
523.74	2564.06
523.94	2461.66
524.14	2340.83
524.34	2537.43
524.54	2584.54
524.73	2432.99
524.93	2529.24
525.13	2568.15
525.33	2318.30
525.53	2650.07
525.73	2586.58
525.93	2555.86
526.13	2357.21
526.32	2449.37
526.52	2588.63
526.72	2594.78
526.92	2414.56
527.12	2344.92
527.32	2375.64
527.52	2478.04
527.71	2523.10
527.91	2467.80
528.11	2504.67
528.31	2408.41
528.51	2371.55
528.71	2523.10
528.90	2559.96
529.10	2729.94
529.30	2547.67
529.50	2226.14
529.70	2473.95
529.90	2451.42
530.09	2490.33
530.29	2355.16
530.49	2256.86
530.69	2779.09
530.89	2488.28
531.09	2578.39
531.28	2482.14
531.48	2625.50
531.68	2437.08
531.88	2435.03
532.08	2635.74
532.28	2475.99
532.47	2596.82
532.67	2629.59
532.87	2613.21
533.07	2396.12
533.27	2535.39
533.46	2557.91
533.66	2559.96
533.86	2465.75
534.06	2400.22
534.26	2572.25
534.45	2432.99
534.65	2594.78
534.85	2551.77
535.05	2404.32
535.25	2564.06
535.44	2328.54
535.64	2553.82
535.84	2443.23
536.04	2555.86
536.24	2455.51
536.43	2375.64
536.63	2506.71
536.83	2508.76
537.03	2545.63
537.22	2353.12
537.42	2308.06
537.62	2525.15
537.82	2443.23
538.02	2580.44
538.21	2645.98
538.41	2930.64
538.61	2578.39
538.81	2375.64
539.00	2609.11
539.20	2330.59
539.40	2514.91
539.60	2473.95
539.79	2572.25
539.99	2512.86
540.19	2383.84
540.39	2437.08
540.58	2529.24
540.78	2605.02
540.98	2625.50
541.18	2686.94
541.37	2551.77
541.57	2453.47
541.77	2531.29
541.97	2338.78
542.16	2375.64
542.36	2396.12
542.56	2475.99
542.76	2699.22
542.95	2541.53
543.15	2527.19
543.35	2539.48
543.54	2367.45
543.74	2377.69
543.94	2656.22
544.14	2437.08
544.33	2486.23
544.53	2447.32
544.73	2453.47
544.93	2469.85
545.12	2439.13
545.32	2478.04
545.52	2496.47
545.71	2355.16
545.91	2353.12
546.11	2502.62
546.30	2377.69
546.50	2387.93
546.70	2535.39
546.90	2496.47
547.09	2371.55
547.29	2461.66
547.49	2594.78
547.68	2471.90
547.88	2465.75
548.08	2572.25
548.27	2889.68
548.47	2465.75
548.67	2426.84
548.87	2613.21
549.06	2420.70
549.26	2449.37
549.46	2531.29
549.65	2416.60
549.85	2467.80
550.05	2578.39
550.24	2306.01
550.44	2467.80
550.64	2514.91
550.83	2414.56
551.03	2598.87
551.23	2629.59
551.42	2508.76
551.62	2465.75
551.82	2455.51
552.01	2459.61
552.21	2635.74
552.41	2447.32
552.60	2648.02
552.80	2527.19
553.00	2406.36
553.19	2461.66
553.39	2686.94
553.59	2346.97
553.78	2551.77
553.98	2432.99
554.17	2318.30
554.37	2580.44
554.57	2600.92
554.76	2359.26
554.96	2416.60
555.16	2539.48
555.35	2469.85
555.55	2557.91
555.75	2498.52
555.94	2611.16
556.14	2267.10
556.33	2521.05
556.53	2502.62
556.73	2523.10
556.92	2500.57
557.12	2514.91
557.32	2777.05
557.51	2617.30
557.71	2553.82
557.90	2543.58
558.10	2592.73
558.30	2435.03
558.49	2449.37
558.69	2455.51
558.88	2564.06
559.08	2420.70
559.28	2449.37
559.47	2486.23
559.67	2633.69
559.86	2734.04
560.06	2578.39
560.26	2482.14
560.45	2557.91
560.65	2342.88
560.84	2633.69
561.04	2357.21
561.24	2592.73
561.43	2387.93
561.63	2611.16
561.82	2502.62
562.02	2578.39
562.22	2400.22
562.41	2344.92
562.61	2408.41
562.80	2383.84
563.00	2838.48
563.19	2475.99
563.39	2541.53
563.59	2617.30
563.78	2414.56
563.98	2281.44
564.17	2387.93
564.37	2340.83
564.56	2531.29
564.76	2422.75
564.96	2605.02
565.15	2389.98
565.35	2748.37
565.54	2447.32
565.74	2566.10
565.93	2555.86
566.13	2469.85
566.32	2498.52
566.52	2602.97
566.71	2469.85
566.91	2555.86
567.11	2576.34
567.30	2418.65
567.50	2582.49
567.69	2408.41
567.89	2463.71
568.08	2369.50
568.28	2553.82
568.47	2340.83
568.67	2473.95
568.86	2387.93
569.06	2539.48
569.25	2484.19
569.45	2381.79
569.64	2418.65
569.84	2469.85
570.04	2484.19
570.23	2441.18
570.43	2445.27
570.62	2510.81
570.82	2682.84
571.01	2299.87
571.21	2375.64
571.40	2430.94
571.60	2576.34
571.79	2519.00
571.99	2490.33
572.18	2334.68
572.38	2553.82
572.57	2363.36
572.77	2514.91
572.96	2762.71
573.16	2547.67
573.35	2471.90
573.55	2652.12
573.74	2465.75
573.94	2430.94
574.13	2432.99
574.33	2652.12
574.52	2613.21
574.71	2498.52
574.91	2557.91
575.10	2365.40
575.30	2430.94
575.49	2385.88
575.69	2488.28
575.88	2549.72
576.08	2514.91
576.27	2674.65
576.47	2588.63
576.66	2643.93
576.86	2752.47
577.05	2529.24
577.25	2537.43
577.44	2758.61
577.64	2469.85
577.83	2637.78
578.02	2414.56
578.22	2602.97
578.41	2777.05
578.61	2414.56
578.80	2365.40
579.00	2504.67
579.19	2580.44
579.39	2512.86
579.58	2537.43
579.77	2449.37
579.97	2660.31
580.16	2658.26
580.36	2635.74
580.55	2623.45
580.75	2539.48
580.94	2549.72
581.13	2627.54
581.33	2744.28
581.52	2523.10
581.72	2723.80
581.91	2664.41
582.11	2502.62
582.30	2564.06
582.49	2506.71
582.69	2654.17
582.88	2549.72
583.08	2549.72
583.27	2672.60
583.47	2467.80
583.66	2500.57
583.85	2435.03
584.05	2441.18
584.24	2590.68
584.44	2557.91
584.63	2623.45
584.82	2746.33
585.02	2768.85
585.21	2627.54
585.41	2662.36
585.60	2551.77
585.79	2768.85
585.99	2766.81
586.18	2682.84
586.37	3162.06
586.57	5035.96
586.76	14999.32
586.96	34489.84
587.15	47811.88
587.34	57111.70
587.54	61801.55
587.73	55692.46
587.93	39851.42
588.12	29916.73
588.31	24211.09
588.51	20993.73
588.70	19343.06
588.89	17352.44
589.09	14831.39
589.28	12717.89
589.47	10325.86
589.67	7919.50
589.86	6141.86
590.06	4634.55
590.25	3907.52
590.44	3313.61
590.64	2908.12
590.83	2772.95
591.02	2697.17
591.22	2611.16
591.41	2641.88
591.60	2553.82
591.80	2885.59
591.99	2377.69
592.18	2463.71
592.38	2627.54
592.57	2473.95
592.76	2410.46
592.96	2523.10
593.15	2568.15
593.34	2623.45
593.54	2445.27
593.73	2584.54
593.92	2602.97
594.12	2619.35
594.31	2553.82
594.50	2791.38
594.70	2623.45
594.89	2848.72
595.08	2355.16
595.28	2617.30
595.47	2940.88
595.66	2637.78
595.86	2383.84
596.05	2426.84
596.24	2484.19
596.43	2705.37
596.63	2600.92
596.82	2596.82
597.01	2650.07
597.21	2699.22
597.40	2469.85
597.59	2523.10
597.79	2562.01
597.98	2555.86
598.17	2545.63
598.36	2521.05
598.56	2623.45
598.75	2502.62
598.94	2539.48
599.14	2482.14
599.33	2471.90
599.52	2621.40
599.71	2428.89
599.91	2562.01
600.10	2535.39
600.29	2514.91
600.48	2494.43
600.68	2506.71
600.87	2533.34
601.06	2408.41
601.26	2480.09
601.45	2510.81
601.64	2424.80
601.83	2637.78
602.03	2375.64
602.22	2340.83
602.41	2643.93
602.60	2777.05
602.80	2551.77
602.99	2564.06
603.18	2465.75
603.37	2539.48
603.57	2465.75
603.76	2543.58
603.95	2580.44
604.14	2498.52
604.34	2482.14
604.53	2463.71
604.72	2547.67
604.91	2625.50
605.10	2562.01
605.30	2349.02
605.49	2785.24
605.68	2625.50
605.87	2435.03
606.07	2400.22
606.26	2480.09
606.45	2551.77
606.64	2473.95
606.84	2359.26
607.03	2537.43
607.22	2678.74
607.41	2535.39
607.60	2471.90
607.80	2725.85
607.99	2527.19
608.18	2426.84
608.37	2496.47
608.56	2400.22
608.76	2643.93
608.95	2662.36
609.14	2594.78
609.33	2719.70
609.52	2729.94
609.72	2611.16
609.91	2627.54
610.10	2586.58
610.29	2729.94
610.48	2529.24
610.68	2504.67
610.87	2500.57
611.06	2645.98
611.25	2447.32
611.44	2660.31
611.63	2502.62
611.83	2664.41
612.02	2367.45
612.21	2572.25
612.40	2277.34
612.59	2367.45
612.79	2326.49
612.98	2478.04
613.17	2734.04
613.36	2527.19
613.55	2654.17
613.74	2600.92
613.93	2619.35
614.13	2785.24
614.32	2725.85
614.51	2654.17
614.70	2643.93
614.89	2541.53
615.08	2582.49
615.28	3024.85
615.47	2463.71
615.66	2582.49
615.85	2445.27
616.04	2637.78
616.23	2566.10
616.42	2580.44
616.62	2475.99
616.81	2570.20
617.00	2475.99
617.19	2557.91
617.38	2498.52
617.57	2496.47
617.76	2641.88
617.95	2619.35
618.15	2506.71
618.34	2711.51
618.53	2424.80
618.72	2654.17
618.91	2557.91
619.10	2670.55
619.29	2512.86
619.48	2392.03
619.68	2398.17
619.87	2471.90
620.06	2342.88
620.25	2543.58
620.44	2432.99
620.63	2377.69
620.82	2547.67
621.01	2531.29
621.20	2533.34
621.39	2504.67
621.59	2600.92
621.78	2514.91
621.97	2482.14
622.16	2648.02
622.35	2539.48
622.54	2598.87
622.73	2545.63
622.92	2258.91
623.11	2592.73
623.30	2439.13
623.49	2574.30
623.68	2328.54
623.88	2576.34
624.07	2488.28
624.26	2414.56
624.45	2430.94
624.64	2494.43
624.83	2588.63
625.02	2422.75
625.21	2465.75
625.40	2510.81
625.59	2664.41
625.78	2459.61
625.97	2596.82
626.16	2750.42
626.35	2744.28
626.54	2496.47
626.74	2641.88
626.93	2586.58
627.12	2514.91
627.31	2594.78
627.50	2564.06
627.69	2627.54
627.88	2432.99
628.07	2506.71
628.26	2324.44
628.45	2457.56
628.64	2435.03
628.83	2396.12
629.02	2375.64
629.21	2570.20
629.40	2500.57
629.59	2439.13
629.78	2408.41
629.97	2449.37
630.16	2543.58
630.35	2447.32
630.54	2502.62
630.73	2441.18
630.92	2498.52
631.11	2365.40
631.30	2480.09
631.49	2643.93
631.68	2418.65
631.87	2537.43
632.06	2424.80
632.25	2799.57
632.44	2514.91
632.63	2502.62
632.82	2482.14
633.01	2535.39
633.20	2617.30
633.39	2488.28
633.58	2435.03
633.77	2547.67
633.96	2584.54
634.15	2578.39
634.34	2545.63
634.53	2580.44
634.72	2457.56
634.91	2349.02
635.10	2430.94
635.29	2637.78
635.48	2457.56
635.67	2451.42
635.86	2449.37
636.05	2637.78
636.24	2537.43
636.43	2521.05
636.62	2504.67
636.81	2209.76
637.00	2514.91
637.19	2410.46
637.38	2402.27
637.57	2412.51
637.76	2576.34
637.95	2650.07
638.14	2541.53
638.33	2645.98
638.52	2627.54
638.71	2392.03
638.89	2385.88
639.08	2854.87
639.27	2645.98
639.46	2752.47
639.65	3168.21
639.84	3194.83
640.03	3362.76
640.22	3241.93
640.41	3188.69
640.60	2815.96
640.79	2777.05
640.98	2678.74
641.17	2688.98
641.36	2781.14
641.55	2705.37
641.74	2441.18
641.92	2453.47
642.11	2482.14
642.30	2574.30
642.49	2416.60
642.68	2404.32
642.87	2525.15
643.06	2521.05
643.25	2443.23
643.44	2334.68
643.63	2412.51
643.82	2527.19
644.00	2389.98
644.19	2461.66
644.38	2367.45
644.57	2592.73
644.76	2475.99
644.95	2412.51
645.14	2465.75
645.33	2506.71
645.52	2449.37
645.71	2250.72
645.89	2373.60
646.08	2508.76
646.27	2441.18
646.46	2680.79
646.65	2318.30
646.84	2543.58
647.03	2414.56
647.22	2564.06
647.40	2502.62
647.59	2453.47
647.78	2326.49
647.97	2465.75
648.16	2404.32
648.35	2645.98
648.54	2537.43
648.73	2461.66
648.91	2629.59
649.10	2500.57
649.29	2359.26
649.48	2435.03
649.67	2553.82
649.86	2527.19
650.05	2512.86
650.23	2750.42
650.42	2574.30
650.61	2826.20
650.80	2648.02
650.99	2783.19
651.18	2725.85
651.36	2623.45
651.55	2430.94
651.74	2582.49
651.93	2439.13
652.12	2533.34
652.31	2445.27
652.49	2484.19
652.68	2396.12
652.87	2613.21
653.06	2568.15
653.25	2674.65
653.44	2504.67
653.62	2719.70
653.81	2443.23
654.00	2418.65
654.19	2576.34
654.38	2885.59
654.56	2543.58
654.75	2392.03
654.94	2586.58
655.13	2564.06
655.32	2357.21
655.51	2586.58
655.69	2394.08
655.88	2586.58
656.07	2346.97
656.26	2498.52
656.45	2310.11
656.63	2484.19
656.82	2471.90
657.01	2529.24
657.20	2447.32
657.38	2691.03
657.57	2424.80
657.76	2314.20
657.95	2629.59
658.14	2445.27
658.32	2555.86
658.51	2281.44
658.70	2473.95
658.89	2578.39
659.08	2455.51
659.26	2596.82
659.45	2402.27
659.64	2580.44
659.83	2494.43
660.01	2809.81
660.20	2514.91
660.39	2719.70
660.58	2316.25
660.76	2574.30
660.95	2353.12
661.14	2521.05
661.33	2275.29
661.51	2392.03
661.70	2385.88
661.89	2557.91
662.08	2457.56
662.26	2320.35
662.45	2369.50
662.64	2731.99
662.83	2527.19
663.01	2396.12
663.20	2428.89
663.39	2652.12
663.58	2432.99
663.76	2439.13
663.95	2539.48
664.14	2449.37
664.32	2523.10
664.51	2318.30
664.70	2322.40
664.89	2553.82
665.07	2301.92
665.26	2562.01
665.45	2320.35
665.64	2631.64
665.82	2435.03
666.01	2531.29
666.20	2349.02
666.38	2662.36
666.57	2762.71
666.76	3911.62
666.95	9633.64
667.13	17886.96
667.32	22974.11
667.51	26308.21
667.69	27977.30
667.88	24841.86
668.07	17536.76
668.25	14333.73
668.44	12142.41
668.63	10293.09
668.81	9228.15
669.00	7939.97
669.19	7073.68
669.38	6102.95
669.56	5308.34
669.75	4351.93
669.94	3768.26
670.12	3235.79
670.31	2961.36
670.50	2830.29
670.68	2703.32
670.87	2678.74
671.06	2535.39
671.24	2576.34
671.43	2762.71
671.62	2547.67
671.80	2473.95
671.99	2514.91
672.18	2439.13
672.36	2715.61
672.55	2545.63
672.74	2523.10
672.92	2490.33
673.11	2602.97
673.29	2406.36
673.48	2564.06
673.67	2473.95
673.85	2723.80
674.04	2338.78
674.23	2535.39
674.41	2742.23
674.60	2371.55
674.79	2281.44
674.97	2389.98
675.16	2514.91
675.34	2635.74
675.53	2342.88
675.72	2533.34
675.90	2723.80
676.09	2412.51
676.28	2506.71
676.46	2281.44
676.65	2531.29
676.83	2365.40
677.02	2523.10
677.21	2437.08
677.39	2449.37
677.58	2346.97
677.77	2404.32
677.95	2342.88
678.14	2445.27
678.32	2502.62
678.51	2404.32
678.70	2658.26
678.88	2430.94
679.07	2568.15
679.25	2514.91
679.44	2463.71
679.63	2340.83
679.81	2488.28
680.00	2609.11
680.18	2521.05
680.37	2615.26
680.55	2408.41
680.74	2291.68
680.93	2291.68
681.11	2564.06
681.30	2537.43
681.48	2514.91
681.67	2398.17
681.85	2461.66
682.04	2408.41
682.23	2570.20
682.41	2547.67
682.60	2453.47
682.78	2457.56
682.97	2310.11
683.15	2473.95
683.34	2576.34
683.53	2709.46
683.71	2400.22
683.90	2541.53
684.08	2693.08
684.27	2402.27
684.45	2541.53
684.64	2605.02
684.82	2453.47
685.01	2551.77
685.19	2494.43
685.38	2594.78
685.57	2504.67
685.75	2400.22
685.94	2359.26
686.12	2342.88
686.31	2416.60
686.49	2686.94
686.68	2279.39
686.86	2547.67
687.05	2478.04
687.23	2576.34
687.42	2365.40
687.60	2312.16
687.79	2621.40
687.97	2641.88
688.16	2564.06
688.34	2615.26
688.53	2279.39
688.71	2523.10
688.90	2617.30
689.08	2439.13
689.27	2269.15
689.45	2645.98
689.64	2482.14
689.82	2506.71
690.01	2580.44
690.19	2600.92
690.38	2445.27
690.56	2553.82
690.75	2340.83
690.93	2426.84
691.12	2408.41
691.30	2424.80
691.49	2412.51
691.67	2533.34
691.86	2801.62
692.04	2451.42
692.23	2523.10
692.41	2514.91
692.60	2781.14
692.78	2572.25
692.97	2582.49
693.15	2590.68
693.34	2637.78
693.52	2674.65
693.71	2490.33
693.89	2486.23
694.08	2310.11
694.26	2566.10
694.44	2553.82
694.63	2568.15
694.81	2404.32
695.00	2367.45
695.18	2621.40
695.37	2848.72
695.55	2504.67
695.74	2416.60
695.92	2416.60
696.10	2621.40
696.29	2293.72
696.47	2467.80
696.66	2324.44
696.84	2375.64
697.03	2488.28
697.21	2727.89
697.40	3760.07
697.58	2650.07
697.76	2420.70
697.95	2334.68
698.13	2318.30
698.32	2420.70
698.50	2422.75
698.68	2463.71
698.87	2512.86
699.05	2686.94
699.24	2457.56
699.42	2353.12
699.61	2471.90
699.79	2549.72
699.97	2523.10
700.16	2371.55
700.34	2375.64
700.53	2465.75
700.71	2572.25
700.89	2519.00
701.08	2412.51
701.26	2568.15
701.45	2977.75
701.63	2418.65
701.81	2443.23
702.00	2387.93
702.18	2531.29
702.37	2445.27
702.55	2750.42
702.73	2643.93
702.92	2578.39
703.10	2818.00
703.28	2744.28
703.47	2594.78
703.65	2723.80
703.84	2578.39
704.02	2578.39
704.20	2713.56
704.39	2447.32
704.57	2521.05
704.75	2615.26
704.94	2590.68
705.12	2568.15
705.30	2891.73
705.49	5601.19
705.67	13016.89
705.86	20967.10
706.04	24854.15
706.22	28175.95
706.41	28816.97
706.59	23416.47
706.77	16678.66
706.96	14251.81
707.14	12484.42
707.32	10815.32
707.51	9430.90
707.69	7786.38
707.87	6164.39
708.06	5031.86
708.24	4145.09
708.42	3594.19
708.61	3315.66
708.79	2686.94
708.97	2609.11
709.16	2613.21
709.34	2566.10
709.52	2494.43
709.71	2455.51
709.89	2600.92
710.07	2400.22
710.26	2480.09
710.44	2428.89
710.62	2662.36
710.80	2455.51
710.99	2525.15
711.17	2615.26
711.35	2459.61
711.54	2400.22
711.72	2559.96
711.90	2492.38
712.09	2600.92
712.27	2478.04
712.45	2514.91
712.63	2402.27
712.82	2541.53
713.00	2488.28
713.18	2504.67
713.37	2625.50
713.55	2531.29
713.73	2484.19
713.91	2586.58
714.10	2383.84
714.28	2439.13
714.46	2461.66
714.65	2562.01
714.83	2504.67
715.01	2430.94
715.19	2559.96
715.38	2400.22
715.56	2451.42
715.74	2387.93
715.92	2420.70
716.11	2678.74
716.29	2232.29
716.47	2439.13
716.65	2490.33
716.84	2330.59
717.02	2584.54
717.20	2281.44
717.38	2408.41
717.57	2578.39
717.75	2498.52
717.93	2439.13
718.11	2514.91
718.30	2322.40
718.48	2486.23
718.66	2545.63
718.84	2631.64
719.03	2430.94
719.21	2344.92
719.39	2684.89
719.57	2543.58
719.75	2627.54
719.94	2351.07
720.12	2486.23
720.30	2555.86
720.48	2555.86
720.67	2449.37
720.85	2383.84
721.03	2371.55
721.21	2340.83
721.39	2566.10
721.58	2596.82
721.76	2496.47
721.94	2533.34
722.12	2551.77
722.30	2719.70
722.49	2488.28
722.67	2439.13
722.85	2492.38
723.03	2248.67
723.21	2400.22
723.40	2498.52
723.58	2592.73
723.76	2576.34
723.94	2719.70
724.12	2537.43
724.30	2670.55
724.49	2621.40
724.67	2392.03
724.85	2596.82
725.03	2334.68
725.21	2590.68
725.40	2623.45
725.58	2430.94
725.76	2592.73
725.94	2549.72
726.12	2420.70
726.30	2449.37
726.49	2461.66
726.67	2445.27
726.85	2588.63
727.03	2944.98
727.21	4181.95
727.39	5926.82
727.57	6741.91
727.76	7546.76
727.94	7823.24
728.12	7139.22
728.30	5709.74
728.48	4980.66
728.66	4571.07
728.84	4218.82
729.03	3549.13
729.21	3258.32
729.39	2944.98
729.57	2678.74
729.75	2703.32
729.93	2613.21
730.11	2371.55
730.30	2502.62
730.48	2529.24
730.66	2586.58
730.84	2508.76
731.02	2488.28
731.20	2396.12
731.38	2531.29
731.56	2265.05
731.74	2322.40
731.93	2564.06
732.11	2404.32
732.29	2439.13
732.47	2475.99
732.65	2539.48
732.83	2625.50
733.01	2523.10
733.19	2420.70
733.37	2504.67
733.56	2545.63
733.74	2412.51
733.92	2699.22
734.10	2412.51
734.28	2625.50
734.46	2252.77
734.64	2457.56
734.82	2504.67
735.00	2465.75
735.18	2398.17
735.36	2455.51
735.54	2523.10
735.73	2396.12
735.91	2469.85
736.09	2539.48
736.27	2525.15
736.45	2668.50
736.63	2226.14
736.81	2482.14
736.99	2641.88
737.17	2656.22
737.35	2443.23
737.53	2482.14
737.71	2451.42
737.89	2619.35
738.07	2383.84
738.25	2389.98
738.43	2306.01
738.61	2420.70
738.80	2334.68
738.98	2359.26
739.16	2416.60
739.34	2402.27
739.52	2631.64
739.70	2465.75
739.88	2592.73
740.06	2529.24
740.24	2256.86
740.42	2629.59
740.60	2310.11
740.78	2361.31
740.96	2330.59
741.14	2457.56
741.32	2572.25
741.50	2211.81
741.68	2709.46
741.86	2664.41
742.04	2367.45
742.22	2365.40
742.40	2488.28
742.58	2504.67
742.76	2426.84
742.94	2621.40
743.12	2340.83
743.30	2482.14
743.48	2602.97
743.66	2363.36
743.84	2545.63
744.02	2449.37
744.20	2510.81
744.38	2334.68
744.56	2367.45
744.74	2727.89
744.92	2490.33
745.10	2596.82
745.28	2564.06
745.46	2645.98
745.64	2449.37
745.82	2541.53
746.00	2416.60
746.18	2547.67
746.36	2416.60
746.54	2547.67
746.72	2506.71
746.90	2387.93
747.08	2617.30
747.26	2482.14
747.44	2471.90
747.62	2545.63
747.80	2508.76
747.98	2600.92
748.15	2488.28
748.33	2725.85
748.51	2496.47
748.69	2578.39
748.87	2375.64
749.05	2439.13
749.23	2432.99
749.41	2562.01
749.59	2414.56
749.77	2539.48
749.95	2490.33
750.13	2379.74
750.31	2551.77
750.49	2447.32
750.67	2543.58
750.85	2633.69
751.03	2420.70
751.20	2734.04
751.38	2488.28
751.56	2318.30
751.74	2424.80
751.92	2439.13
752.10	2334.68
752.28	2504.67
752.46	2336.73
752.64	2428.89
752.82	2488.28
753.00	2506.71
753.18	2492.38
753.35	2473.95
753.53	2455.51
753.71	2416.60
753.89	2523.10
754.07	2564.06
754.25	2547.67
754.43	2539.48
754.61	2295.77
754.79	2514.91
754.97	2428.89
755.14	2635.74
755.32	2394.08
755.50	2506.71
755.68	2461.66
755.86	2420.70
756.04	2432.99
756.22	2250.72
756.40	2588.63
756.57	2684.89
756.75	2406.36
756.93	2625.50
757.11	2547.67
757.29	2353.12
757.47	2359.26
757.65	2338.78
757.82	2297.82
758.00	2375.64
758.18	2369.50
758.36	2408.41
758.54	2695.13
758.72	2328.54
758.90	2580.44
759.07	2506.71
759.25	2424.80
759.43	2584.54
759.61	2312.16
759.79	3504.07
759.97	2639.83
760.15	2326.49
760.32	2447.32
760.50	2570.20
760.68	2623.45
760.86	2285.53
761.04	2635.74
761.22	2592.73
761.39	2430.94
761.57	2435.03
761.75	2490.33
761.93	2590.68
762.11	2465.75
762.28	2498.52
762.46	2314.20
762.64	2570.20
762.82	2355.16
763.00	2424.80
763.18	2574.30
763.35	2408.41
763.53	2545.63
763.71	2410.46
763.89	2537.43
764.07	2486.23
764.24	2469.85
764.42	2576.34
764.60	2377.69
764.78	2539.48
764.96	2607.06
765.13	2611.16
765.31	2408.41
765.49	2576.34
765.67	2346.97
765.84	2367.45
766.02	2381.79
766.20	2318.30
766.38	2537.43
766.56	2494.43
766.73	2564.06
766.91	2480.09
767.09	2494.43
767.27	2504.67
767.44	2410.46
767.62	2572.25
767.80	2449.37
767.98	2467.80
768.15	2389.98
768.33	2617.30
768.51	2555.86
768.69	2576.34
768.87	2537.43
769.04	2443.23
769.22	2775.00
769.40	2572.25
769.58	2691.03
769.75	2494.43
769.93	2662.36
770.11	2449.37
770.28	2424.80
770.46	2580.44
770.64	2482.14
770.82	2428.89
770.99	2363.36
771.17	2570.20
771.35	2467.80
771.53	2512.86
771.70	2437.08
771.88	2531.29
772.06	2478.04
772.23	2355.16
772.41	2461.66
772.59	2467.80
772.77	2342.88
772.94	2490.33
773.12	2514.91
773.30	2416.60
773.47	2514.91
773.65	2406.36
773.83	2654.17
774.01	2500.57
774.18	2260.96
774.36	2461.66
774.54	2334.68
774.71	2529.24
774.89	2318.30
775.07	2385.88
775.24	2406.36
775.42	2353.12
775.60	2656.22
775.78	2416.60
775.95	2289.63
776.13	2232.29
776.31	2355.16
776.48	2496.47
776.66	2576.34
776.84	2432.99
777.01	2412.51
777.19	2408.41
777.37	2338.78
777.54	2580.44
777.72	2719.70
777.90	2500.57
778.07	2416.60
778.25	2883.54
778.43	2568.15
778.60	2398.17
778.78	2500.57
778.96	2654.17
779.13	2277.34
779.31	2527.19
779.49	2484.19
779.66	2512.86
779.84	2404.32
780.01	2447.32
780.19	2340.83
780.37	2621.40
780.54	2584.54
780.72	2326.49
780.90	2437.08
781.07	2541.53
781.25	2416.60
781.43	2529.24
781.60	2400.22
781.78	2633.69
781.95	2461.66
782.13	2430.94
782.31	2379.74
782.48	2232.29
782.66	2539.48
782.83	2740.18
783.01	2510.81
783.19	2592.73
783.36	2492.38
783.54	2353.12
783.72	2559.96
783.89	2457.56
784.07	2435.03
784.24	2496.47
784.42	2609.11
784.60	2510.81
784.77	2529.24
784.95	2220.00
785.12	2414.56
785.30	2504.67
785.47	2299.87
785.65	2318.30
785.83	2385.88
786.00	2443.23
786.18	2514.91
786.35	2355.16
786.53	2392.03
786.71	2648.02
786.88	2568.15
787.06	2500.57
787.23	2508.76
787.41	2312.16
787.58	2445.27
787.76	2381.79
787.94	2443.23
788.11	2564.06
788.29	2303.96
788.46	2353.12
788.64	2314.20
788.81	2424.80
788.99	2387.93
789.16	2340.83
789.34	2449.37
789.52	2385.88
789.69	2471.90
789.87	2299.87
790.04	2416.60
790.22	2416.60
790.39	2725.85
790.57	2318.30
790.74	2326.49
790.92	2596.82
791.09	2306.01
791.27	2480.09
791.44	2586.58
791.62	2455.51
791.79	2543.58
791.97	2543.58
792.15	2803.67
792.32	2559.96
792.50	2596.82
792.67	2691.03
792.85	2613.21
793.02	2537.43
793.20	2398.17
793.37	2301.92
793.55	2531.29
793.72	2287.58
793.90	2504.67
794.07	2441.18
794.25	2326.49
794.42	2496.47
794.60	2402.27
794.77	2521.05
794.95	2570.20
795.12	2500.57
795.30	2494.43
795.47	2326.49
795.65	2734.04
795.82	2555.86
796.00	2387.93
796.17	2473.95
796.34	2326.49
796.52	2508.76
796.69	2541.53
796.87	2490.33
797.04	2521.05
797.22	2541.53
797.39	2418.65
797.57	2537.43
797.74	2461.66
797.92	2510.81
798.09	2392.03
798.27	2617.30
798.44	2449.37
798.62	2396.12
798.79	2475.99
798.96	2414.56
799.14	2539.48
799.31	2818.00
799.49	2539.48
799.66	2412.51
799.84	2490.33
800.01	2312.16
800.19	2525.15
800.36	2211.81
800.53	2496.47
800.71	2539.48
800.88	2629.59
801.06	2361.31
801.23	2408.41
801.41	2469.85
801.58	2363.36
801.75	2494.43
801.93	2494.43
802.10	2496.47
802.28	2385.88
802.45	2424.80
802.63	2541.53
802.80	2660.31
802.97	2467.80
803.15	2398.17
803.32	2445.27
803.50	2410.46
803.67	2310.11
803.84	2301.92
804.02	2463.71
804.19	2394.08
804.37	2203.61
804.54	2342.88
804.71	2373.60
804.89	2455.51
805.06	2400.22
805.24	2306.01
805.41	2375.64
805.58	2428.89
805.76	2756.57
805.93	2363.36
806.10	2576.34
806.28	2625.50
806.45	2459.61
806.63	2498.52
806.80	2465.75
806.97	2498.52
807.15	2473.95
807.32	2465.75
807.49	2439.13
807.67	2367.45
807.84	2572.25
808.01	2299.87
808.19	2598.87
808.36	2805.72
808.54	2412.51
808.71	2383.84
808.88	2432.99
809.06	2678.74
809.23	2662.36
809.40	2326.49
809.58	2531.29
809.75	2445.27
809.92	2342.88
810.10	2701.27
810.27	2428.89
810.44	2523.10
810.62	2615.26
810.79	2467.80
810.96	2383.84
811.14	2420.70
811.31	2494.43
811.48	2568.15
811.66	2490.33
811.83	2635.74
812.00	2492.38
812.18	2496.47
812.35	2717.65
812.52	2469.85
812.69	2467.80
812.87	2428.89
813.04	2383.84
813.21	2432.99
813.39	2320.35
813.56	2420.70
813.73	2514.91
813.91	2271.20
814.08	2432.99
814.25	2504.67
814.42	2312.16
814.60	2514.91
814.77	2500.57
814.94	2449.37
815.12	2480.09
815.29	2674.65
815.46	2389.98
815.63	2512.86
815.81	2430.94
815.98	2406.36
816.15	2463.71
816.33	2480.09
816.50	2457.56
816.67	2400.22
816.84	2465.75
817.02	2246.62
817.19	2412.51
817.36	2519.00
817.53	2570.20
817.71	2306.01
817.88	2475.99
818.05	2484.19
818.22	2455.51
818.40	2666.46
818.57	2424.80
818.74	2490.33
818.91	2418.65
819.09	2453.47
819.26	2580.44
819.43	2432.99
819.60	2392.03
819.78	2514.91
819.95	2516.95
820.12	2406.36
820.29	2619.35
820.47	2537.43
820.64	2486.23
820.81	2396.12
820.98	2369.50
821.15	2394.08
821.33	2529.24
821.50	2326.49
821.67	2527.19
821.84	2346.97
822.02	2510.81
822.19	2629.59
822.36	2424.80
822.53	2383.84
822.70	2387.93
822.88	2430.94
823.05	2645.98
823.22	2490.33
823.39	2512.86
823.56	2416.60
823.74	2658.26
823.91	2383.84
824.08	2334.68
824.25	2328.54
824.42	2703.32
824.60	2326.49
824.77	2461.66
824.94	2482.14
825.11	2519.00
825.28	2340.83
825.45	2445.27
825.63	2506.71
825.80	2375.64
825.97	2525.15
826.14	2398.17
826.31	2306.01
826.48	2439.13
826.66	2338.78
826.83	2338.78
827.00	2480.09
827.17	2326.49
827.34	2559.96
827.51	2367.45
827.69	2414.56
827.86	2355.16
828.03	2435.03
828.20	2459.61
828.37	2373.60
828.54	2576.34
828.71	2430.94
828.89	2562.01
829.06	2535.39
829.23	2637.78
829.40	2367.45
829.57	2373.60
829.74	2586.58
829.91	2463.71
830.09	2349.02
830.26	2510.81
830.43	2695.13
830.60	2414.56
830.77	2480.09
830.94	2551.77
831.11	2570.20
831.28	2432.99
831.46	2486.23
831.63	2449.37
831.80	2584.54
831.97	2381.79
832.14	2447.32
832.31	2514.91
832.48	2496.47
832.65	2615.26
832.82	2471.90
832.99	2465.75
833.17	2344.92
833.34	2703.32
833.51	2506.71
833.68	2263.01
833.85	2633.69
834.02	2373.60
834.19	2361.31
834.36	2338.78
834.53	2500.57
834.70	2580.44
834.87	2449.37
835.04	2334.68
835.22	2400.22
835.39	2459.61
835.56	2244.57
835.73	2367.45
835.90	2537.43
836.07	2297.82
836.24	2486.23
836.41	2322.40
836.58	2422.75
836.75	2617.30
836.92	2432.99
837.09	2418.65
837.26	2541.53
837.43	2519.00
837.60	2416.60
837.77	2412.51
837.94	2602.97
838.12	2676.70
838.29	2310.11
838.46	2295.77
838.63	2365.40
838.80	2691.03
838.97	2426.84
839.14	2410.46
839.31	2498.52
839.48	2557.91
839.65	2340.83
839.82	2488.28
839.99	2453.47
840.16	2430.94
840.33	2340.83
840.50	2371.55
840.67	2324.44
840.84	2226.14
841.01	2402.27
841.18	2322.40
841.35	2502.62
841.52	2537.43
841.69	2613.21
841.86	2369.50
842.03	2455.51
842.20	2490.33
842.37	2432.99
842.54	2383.84
842.71	2346.97
842.88	2269.15
843.05	2404.32
843.22	2375.64
843.39	2531.29
843.56	2357.21
843.73	2389.98
843.90	2394.08
844.07	2527.19
844.24	2588.63
844.41	2469.85
844.58	2461.66
844.75	2486.23
844.92	2549.72
845.09	2400.22
845.26	2320.35
845.43	2564.06
845.60	2482.14
845.77	2455.51
845.94	2492.38
846.10	2516.95
846.27	2330.59
846.44	2281.44
846.61	2320.35
846.78	2506.71
846.95	2596.82
847.12	2404.32
847.29	2367.45
847.46	2428.89
847.63	2574.30
847.80	2389.98
847.97	2400.22
848.14	2678.74
848.31	2463.71
848.48	2349.02
848.65	2332.64
848.82	2443.23
848.98	2764.76
849.15	2551.77
849.32	2478.04
849.49	2564.06
849.66	2465.75
849.83	2379.74
850.00	2285.53
850.17	2547.67
850.34	2484.19
850.51	2301.92
850.68	2355.16
850.85	2752.47
851.01	2537.43
851.18	2381.79
851.35	2400.22
851.52	2525.15
851.69	2615.26
851.86	2234.33
852.03	2396.12
852.20	2539.48
852.37	2512.86
852.53	2334.68
852.70	2392.03
852.87	2430.94
853.04	2480.09
853.21	2324.44
853.38	2562.01
853.55	2686.94
853.72	2711.51
853.89	2287.58
854.05	2322.40
854.22	2424.80
854.39	2447.32
854.56	2322.40
854.73	2496.47
854.90	2316.25
855.07	2492.38
855.23	2324.44
855.40	2400.22
855.57	2414.56
855.74	2269.15
855.91	2570.20
856.08	2220.00
856.25	2326.49
856.41	2392.03
856.58	2367.45
856.75	2441.18
856.92	2375.64
857.09	2613.21
857.26	2299.87
857.42	2416.60
857.59	2637.78
857.76	2377.69
857.93	2359.26
858.10	2482.14
858.27	2353.12
858.43	2414.56
858.60	2373.60
858.77	2207.71
858.94	2432.99
859.11	2629.59
859.27	2428.89
859.44	2373.60
859.61	2738.13
859.78	2533.34
859.95	2365.40
860.12	2330.59
860.28	2660.31
860.45	2693.08
860.62	2389.98
860.79	2420.70
860.95	2392.03
861.12	2359.26
861.29	2281.44
861.46	2412.51
861.63	2463.71
861.79	2480.09
861.96	2297.82
862.13	2432.99
862.30	2600.92
862.47	2408.41
862.63	2260.96
862.80	2402.27
862.97	2582.49
863.14	2523.10
863.30	2418.65
863.47	2281.44
863.64	2609.11
863.81	2525.15
863.97	2303.96
864.14	2400.22
864.31	2410.46
864.48	2432.99
864.65	2432.99
864.81	2486.23
864.98	2613.21
865.15	2568.15
865.32	2420.70
865.48	2420.70
865.65	2660.31
865.82	2441.18
865.98	2416.60
866.15	2424.80
866.32	2471.90
866.49	2455.51
866.65	2568.15
866.82	2301.92
866.99	2473.95
867.16	2471.90
867.32	2324.44
867.49	2303.96
867.66	2420.70
867.83	2445.27
867.99	2269.15
868.16	2394.08
868.33	2291.68
868.49	2492.38
868.66	2441.18
868.83	2482.14
868.99	2416.60
869.16	2506.71
869.33	2531.29
869.50	2453.47
869.66	2443.23
869.83	2498.52
870.00	2312.16
870.16	2432.99
870.33	2363.36
870.50	2541.53
870.66	2449.37
870.83	2500.57
871.00	2494.43
871.17	2580.44
871.33	2383.84
871.50	2344.92
871.67	2473.95
871.83	2381.79
872.00	2473.95
872.17	2418.65
872.33	2736.09
872.50	2592.73
872.67	2326.49
872.83	2324.44
873.00	2504.67
873.17	2404.32
873.33	2449.37
873.50	2408.41
873.67	2418.65
873.83	2441.18
874.00	2332.64
874.16	2486.23
874.33	2523.10
874.50	2326.49
874.66	2469.85
874.83	2473.95
875.00	2582.49
875.16	2582.49
875.33	2488.28
875.50	2287.58
875.66	2471.90
875.83	2492.38
875.99	2465.75
876.16	2408.41
876.33	2447.32
876.49	2408.41
876.66	2359.26
876.83	2369.50
876.99	2248.67
877.16	2453.47
877.32	2310.11
877.49	2400.22
877.66	2521.05
877.82	2719.70
877.99	2424.80
878.15	2541.53
878.32	2494.43
878.49	2510.81
878.65	2363.36
878.82	2549.72
878.98	2428.89
879.15	2586.58
879.32	2488.28
879.48	2502.62
879.65	2510.81
879.81	2383.84
879.98	2367.45
880.15	2359.26
880.31	2586.58
880.48	2346.97
880.64	2418.65
880.81	2471.90
880.97	2668.50
881.14	2674.65
881.31	2332.64
881.47	2623.45
881.64	2482.14
881.80	2326.49
881.97	2473.95
882.13	2459.61
882.30	2422.75
882.47	2420.70
882.63	2361.31
882.80	2342.88
882.96	2392.03
883.13	2613.21
883.29	2473.95
883.46	2387.93
883.62	2772.95
883.79	2428.89
883.95	2486.23
884.12	2363.36
884.29	2621.40
884.45	2488.28
884.62	2398.17
884.78	2308.06
884.95	2695.13
885.11	2371.55
885.28	2555.86
885.44	2351.07
885.61	2564.06
885.77	2631.64
885.94	2480.09
886.10	2408.41
886.27	2504.67
886.43	2666.46
886.60	2529.24
886.76	2342.88
886.93	2369.50
887.09	2523.10
887.26	2322.40
887.42	2412.51
887.59	2547.67
887.75	2744.28
887.92	2568.15
888.08	2471.90
888.25	2738.13
888.41	2596.82
888.58	2447.32
888.74	2387.93
888.91	2424.80
>>>>>End Processed Spectral Data<<<<<
