SpectraSuite Data File
++++++++++++++++++++++++++++++++++++
Date: Thu May 05 14:42:08 CEST 2016
User: root
Dark Spectrum Present: No
Reference Spectrum Present: No
Number of Sampled Component Spectra: 1
Spectrometers: USB4C02835
Integration Time (usec): 100000 (USB4C02835)
Spectra Averaged: 1 (USB4C02835)
Boxcar Smoothing: 0 (USB4C02835)
Correct for Electrical Dark: No (USB4C02835)
Strobe/Lamp Enabled: No (USB4C02835)
Correct for Detector Non-linearity: No (USB4C02835)
Correct for Stray Light: No (USB4C02835)
Number of Pixels in Processed Spectrum: 3648
>>>>>Begin Processed Spectral Data<<<<<
177.47	1880.04
177.69	1880.04
177.91	1880.04
178.13	1918.95
178.36	1886.18
178.58	2351.07
178.80	2482.14
179.02	2285.53
179.24	2326.49
179.46	2310.11
179.68	2373.60
179.90	2422.75
180.13	2521.05
180.35	2234.33
180.57	2363.36
180.79	2590.68
181.01	2496.47
181.23	2416.60
181.45	2547.67
181.67	2490.33
181.90	2625.50
182.12	2330.59
182.34	2205.66
182.56	2549.72
182.78	2545.63
183.00	2416.60
183.22	2437.08
183.44	2142.18
183.66	2799.57
183.89	2449.37
184.11	2342.88
184.33	2574.30
184.55	2645.98
184.77	2342.88
184.99	2430.94
185.21	2400.22
185.43	2799.57
185.65	2351.07
185.87	2269.15
186.10	2787.29
186.32	2715.61
186.54	2342.88
186.76	2435.03
186.98	2621.40
187.20	2441.18
187.42	2312.16
187.64	2400.22
187.86	2529.24
188.08	2531.29
188.30	2279.39
188.52	2361.31
188.75	2658.26
188.97	2609.11
189.19	2283.49
189.41	2320.35
189.63	2553.82
189.85	2435.03
190.07	2281.44
190.29	2195.42
190.51	2588.63
190.73	2320.35
190.95	2572.25
191.17	2363.36
191.39	2314.20
191.61	2408.41
191.84	2295.77
192.06	2418.65
192.28	2308.06
192.50	2942.93
192.72	2410.46
192.94	2475.99
193.16	2588.63
193.38	2533.34
193.60	2260.96
193.82	2351.07
194.04	2596.82
194.26	2473.95
194.48	2322.40
194.70	2316.25
194.92	2406.36
195.14	2512.86
195.36	2256.86
195.58	2457.56
195.80	2412.51
196.02	2414.56
196.24	2301.92
196.46	2383.84
196.69	2398.17
196.91	2815.96
197.13	2334.68
197.35	2338.78
197.57	2688.98
197.79	2566.10
198.01	2443.23
198.23	2398.17
198.45	2529.24
198.67	2299.87
198.89	2285.53
199.11	2414.56
199.33	2441.18
199.55	2242.53
199.77	2289.63
199.99	2482.14
200.21	2396.12
200.43	2551.77
200.65	2211.81
200.87	2220.00
201.09	2465.75
201.31	2498.52
201.53	2363.36
201.75	2449.37
201.97	2512.86
202.19	2480.09
202.41	2394.08
202.63	2543.58
202.85	2602.97
203.07	2523.10
203.29	2338.78
203.51	2291.68
203.73	2342.88
203.95	2826.20
204.17	2359.26
204.39	2379.74
204.61	2432.99
204.83	2480.09
205.05	2432.99
205.27	2473.95
205.49	2768.85
205.71	2439.13
205.93	2269.15
206.15	2299.87
206.37	2416.60
206.59	2445.27
206.81	2306.01
207.03	2260.96
207.25	2420.70
207.47	2613.21
207.69	2414.56
207.91	2527.19
208.13	2688.98
208.34	2420.70
208.56	2273.25
208.78	2375.64
209.00	2416.60
209.22	2363.36
209.44	2367.45
209.66	2332.64
209.88	2625.50
210.10	2467.80
210.32	2328.54
210.54	2498.52
210.76	2441.18
210.98	2613.21
211.20	2236.38
211.42	2496.47
211.64	2566.10
211.86	2582.49
212.08	2336.73
212.30	2363.36
212.52	2531.29
212.74	2559.96
212.96	2369.50
213.17	2359.26
213.39	2609.11
213.61	2658.26
213.83	2215.90
214.05	2322.40
214.27	2619.35
214.49	2322.40
214.71	2258.91
214.93	2504.67
215.15	2494.43
215.37	2615.26
215.59	2232.29
215.81	2357.21
216.03	2621.40
216.24	2490.33
216.46	2334.68
216.68	2373.60
216.90	2570.20
217.12	2584.54
217.34	2398.17
217.56	2359.26
217.78	2676.70
218.00	2457.56
218.22	2379.74
218.44	2469.85
218.66	2465.75
218.87	2699.22
219.09	2381.79
219.31	2379.74
219.53	2531.29
219.75	2496.47
219.97	2293.72
220.19	2346.97
220.41	2422.75
220.63	2695.13
220.85	2349.02
221.06	2314.20
221.28	2670.55
221.50	2594.78
221.72	2289.63
221.94	2355.16
222.16	2494.43
222.38	2617.30
222.60	2414.56
222.82	2424.80
223.03	2580.44
223.25	2310.11
223.47	2342.88
223.69	2553.82
223.91	2609.11
224.13	2568.15
224.35	2293.72
224.57	2525.15
224.78	2605.02
225.00	2385.88
225.22	2312.16
225.44	2332.64
225.66	2535.39
225.88	2432.99
226.10	2457.56
226.32	2353.12
226.53	2566.10
226.75	2451.42
226.97	2416.60
227.19	2340.83
227.41	2342.88
227.63	2539.48
227.85	2158.56
228.06	2398.17
228.28	2445.27
228.50	2600.92
228.72	2252.77
228.94	2322.40
229.16	2320.35
229.37	2308.06
229.59	2248.67
229.81	2482.14
230.03	2412.51
230.25	2316.25
230.47	2254.81
230.69	2201.57
230.90	2586.58
231.12	2287.58
231.34	2473.95
231.56	2480.09
231.78	2351.07
232.00	2471.90
232.21	2344.92
232.43	2346.97
232.65	2252.77
232.87	2553.82
233.09	2277.34
233.30	2340.83
233.52	2605.02
233.74	2486.23
233.96	2346.97
234.18	2457.56
234.40	2406.36
234.61	2744.28
234.83	2256.86
235.05	2240.48
235.27	2777.05
235.49	2650.07
235.70	2322.40
235.92	2500.57
236.14	2553.82
236.36	2752.47
236.58	2297.82
236.79	2488.28
237.01	2439.13
237.23	2457.56
237.45	2557.91
237.67	2392.03
237.88	2506.71
238.10	2678.74
238.32	2252.77
238.54	2310.11
238.76	2373.60
238.97	2398.17
239.19	2242.53
239.41	2389.98
239.63	2613.21
239.85	2371.55
240.06	2375.64
240.28	2285.53
240.50	2557.91
240.72	2424.80
240.93	2314.20
241.15	2428.89
241.37	2494.43
241.59	2594.78
241.81	2316.25
242.02	2320.35
242.24	2473.95
242.46	2555.86
242.68	2260.96
242.89	2334.68
243.11	2578.39
243.33	2537.43
243.55	2383.84
243.76	2357.21
243.98	2414.56
244.20	2482.14
244.42	2375.64
244.64	2328.54
244.85	2344.92
245.07	2349.02
245.29	2310.11
245.51	2373.60
245.72	2537.43
245.94	2607.06
246.16	2385.88
246.38	2357.21
246.59	2383.84
246.81	2387.93
247.03	2306.01
247.24	2252.77
247.46	2402.27
247.68	2449.37
247.90	2236.38
248.11	2351.07
248.33	2623.45
248.55	2488.28
248.77	2408.41
248.98	2353.12
249.20	2666.46
249.42	2492.38
249.64	2334.68
249.85	2283.49
250.07	2441.18
250.29	2527.19
250.50	2392.03
250.72	2193.37
250.94	2533.34
251.16	2789.33
251.37	2353.12
251.59	2332.64
251.81	2484.19
252.02	2662.36
252.24	2306.01
252.46	2502.62
252.68	2414.56
252.89	2389.98
253.11	2166.75
253.33	2453.47
253.54	2656.22
253.76	2373.60
253.98	2349.02
254.20	2316.25
254.41	2310.11
254.63	2506.71
254.85	2258.91
255.06	2389.98
255.28	2443.23
255.50	2375.64
255.71	2306.01
255.93	2260.96
256.15	2375.64
256.36	2584.54
256.58	2308.06
256.80	2306.01
257.02	2529.24
257.23	2498.52
257.45	2389.98
257.67	2449.37
257.88	2469.85
258.10	2480.09
258.32	2306.01
258.53	2340.83
258.75	2748.37
258.97	2353.12
259.18	2328.54
259.40	2285.53
259.62	2596.82
259.83	2670.55
260.05	2377.69
260.27	2899.92
260.48	2580.44
260.70	2351.07
260.92	2248.67
261.13	2379.74
261.35	2596.82
261.57	2609.11
261.78	2240.48
262.00	2383.84
262.22	2613.21
262.43	2256.86
262.65	2334.68
262.86	2441.18
263.08	2756.57
263.30	2500.57
263.51	2127.84
263.73	2322.40
263.95	2664.41
264.16	2396.12
264.38	2244.57
264.60	2353.12
264.81	2504.67
265.03	2621.40
265.25	2617.30
265.46	2324.44
265.68	2684.89
265.89	2551.77
266.11	2160.61
266.33	2357.21
266.54	2619.35
266.76	2562.01
266.98	2379.74
267.19	2461.66
267.41	2605.02
267.62	2414.56
267.84	2338.78
268.06	2428.89
268.27	2437.08
268.49	2592.73
268.70	2375.64
268.92	2385.88
269.14	2418.65
269.35	2361.31
269.57	2402.27
269.79	2379.74
270.00	2392.03
270.22	2691.03
270.43	2277.34
270.65	2271.20
270.87	2480.09
271.08	2584.54
271.30	2422.75
271.51	2353.12
271.73	2539.48
271.95	2611.16
272.16	2387.93
272.38	2480.09
272.59	2379.74
272.81	2621.40
273.02	2392.03
273.24	2359.26
273.46	2619.35
273.67	2373.60
273.89	2234.33
274.10	2353.12
274.32	2609.11
274.54	2506.71
274.75	2392.03
274.97	2385.88
275.18	2662.36
275.40	2461.66
275.61	2408.41
275.83	2459.61
276.05	2389.98
276.26	2445.27
276.48	2480.09
276.69	2414.56
276.91	2457.56
277.12	2713.56
277.34	2467.80
277.55	2523.10
277.77	2488.28
277.99	2426.84
278.20	2338.78
278.42	2242.53
278.63	2342.88
278.85	2396.12
279.06	2367.45
279.28	2519.00
279.49	2662.36
279.71	2564.06
279.93	2457.56
280.14	2387.93
280.36	2373.60
280.57	2629.59
280.79	2527.19
281.00	2351.07
281.22	2385.88
281.43	2645.98
281.65	2220.00
281.86	2355.16
282.08	2572.25
282.29	2600.92
282.51	2322.40
282.73	2318.30
282.94	2260.96
283.16	2605.02
283.37	2545.63
283.59	2353.12
283.80	2523.10
284.02	2502.62
284.23	2490.33
284.45	2377.69
284.66	2398.17
284.88	2412.51
285.09	2375.64
285.31	2535.39
285.52	2580.44
285.74	2355.16
285.95	2500.57
286.17	2527.19
286.38	2598.87
286.60	2457.56
286.81	2342.88
287.03	2324.44
287.24	2531.29
287.46	2506.71
287.67	2396.12
287.89	2633.69
288.10	2424.80
288.32	2494.43
288.53	2576.34
288.75	2379.74
288.96	2512.86
289.18	2408.41
289.39	2342.88
289.61	2457.56
289.82	2764.76
290.04	2711.51
290.25	2402.27
290.47	2471.90
290.68	2412.51
290.90	2627.54
291.11	2226.14
291.33	2514.91
291.54	2459.61
291.76	2324.44
291.97	2504.67
292.18	2453.47
292.40	2471.90
292.61	2385.88
292.83	2621.40
293.04	2457.56
293.26	2527.19
293.47	2400.22
293.69	2359.26
293.90	2412.51
294.12	2572.25
294.33	2453.47
294.55	2396.12
294.76	2504.67
294.97	2588.63
295.19	2758.61
295.40	2383.84
295.62	2420.70
295.83	2547.67
296.05	2435.03
296.26	2521.05
296.48	2363.36
296.69	2416.60
296.90	2465.75
297.12	2529.24
297.33	2592.73
297.55	2502.62
297.76	2516.95
297.98	2514.91
298.19	2514.91
298.41	2496.47
298.62	2420.70
298.83	2514.91
299.05	2498.52
299.26	2447.32
299.48	2357.21
299.69	2508.76
299.90	2299.87
300.12	2377.69
300.33	2555.86
300.55	2494.43
300.76	2445.27
300.98	2308.06
301.19	2521.05
301.40	2414.56
301.62	2478.04
301.83	2557.91
302.05	2432.99
302.26	2465.75
302.47	2502.62
302.69	2342.88
302.90	2496.47
303.12	2248.67
303.33	2514.91
303.54	2660.31
303.76	2394.08
303.97	2416.60
304.19	2545.63
304.40	2314.20
304.61	2555.86
304.83	2463.71
305.04	2523.10
305.26	2506.71
305.47	2400.22
305.68	2373.60
305.90	2326.49
306.11	2635.74
306.33	2467.80
306.54	2406.36
306.75	2373.60
306.97	2232.29
307.18	2316.25
307.39	2457.56
307.61	2508.76
307.82	2478.04
308.04	2514.91
308.25	2308.06
308.46	2510.81
308.68	2416.60
308.89	2414.56
309.10	2484.19
309.32	2408.41
309.53	2430.94
309.74	2553.82
309.96	2373.60
310.17	2602.97
310.39	2375.64
310.60	2584.54
310.81	2400.22
311.03	2349.02
311.24	2539.48
311.45	2490.33
311.67	2645.98
311.88	2447.32
312.09	2494.43
312.31	2392.03
312.52	2353.12
312.73	2465.75
312.95	2359.26
313.16	2349.02
313.37	2570.20
313.59	2525.15
313.80	2584.54
314.01	2740.18
314.23	2373.60
314.44	2308.06
314.65	2369.50
314.87	2361.31
315.08	2420.70
315.29	2451.42
315.51	2338.78
315.72	2314.20
315.93	2502.62
316.15	2449.37
316.36	2553.82
316.57	2486.23
316.79	2406.36
317.00	2334.68
317.21	2559.96
317.43	2408.41
317.64	2490.33
317.85	2340.83
318.07	2416.60
318.28	2363.36
318.49	2580.44
318.70	2660.31
318.92	2609.11
319.13	2611.16
319.34	2703.32
319.56	2543.58
319.77	2594.78
319.98	2641.88
320.20	2578.39
320.41	2570.20
320.62	2602.97
320.83	2406.36
321.05	2621.40
321.26	2514.91
321.47	2453.47
321.69	2623.45
321.90	2285.53
322.11	2375.64
322.32	2473.95
322.54	2658.26
322.75	2414.56
322.96	2883.54
323.18	2326.49
323.39	2224.09
323.60	2336.73
323.81	2482.14
324.03	2396.12
324.24	2539.48
324.45	2422.75
324.66	2334.68
324.88	2682.84
325.09	2643.93
325.30	2365.40
325.52	2449.37
325.73	2506.71
325.94	2324.44
326.15	2314.20
326.37	2410.46
326.58	2531.29
326.79	2723.80
327.00	2377.69
327.22	2430.94
327.43	2441.18
327.64	2394.08
327.85	2547.67
328.07	2443.23
328.28	2705.37
328.49	2365.40
328.70	2498.52
328.92	2400.22
329.13	2484.19
329.34	2648.02
329.55	2668.50
329.76	2547.67
329.98	2437.08
330.19	2691.03
330.40	2523.10
330.61	2439.13
330.83	2572.25
331.04	2408.41
331.25	2455.51
331.46	2449.37
331.68	2342.88
331.89	2564.06
332.10	2428.89
332.31	2279.39
332.52	2441.18
332.74	2701.27
332.95	2285.53
333.16	2404.32
333.37	2523.10
333.58	2482.14
333.80	2457.56
334.01	2301.92
334.22	2445.27
334.43	2400.22
334.64	2324.44
334.86	2295.77
335.07	2420.70
335.28	2664.41
335.49	2306.01
335.70	2488.28
335.92	2645.98
336.13	2731.99
336.34	2543.58
336.55	2449.37
336.76	2658.26
336.98	2312.16
337.19	2392.03
337.40	2506.71
337.61	2770.90
337.82	2514.91
338.04	2420.70
338.25	2277.34
338.46	2469.85
338.67	2471.90
338.88	2367.45
339.09	2324.44
339.31	2346.97
339.52	2389.98
339.73	2269.15
339.94	2410.46
340.15	2641.88
340.36	2408.41
340.58	2514.91
340.79	2361.31
341.00	2488.28
341.21	2367.45
341.42	2551.77
341.63	2416.60
341.85	2598.87
342.06	2543.58
342.27	2400.22
342.48	2531.29
342.69	2291.68
342.90	2494.43
343.12	2598.87
343.33	2367.45
343.54	2562.01
343.75	2699.22
343.96	2383.84
344.17	2387.93
344.38	2465.75
344.60	2465.75
344.81	2283.49
345.02	2435.03
345.23	2652.12
345.44	2719.70
345.65	2498.52
345.86	2478.04
346.07	2523.10
346.29	2465.75
346.50	2496.47
346.71	2506.71
346.92	2654.17
347.13	2775.00
347.34	2453.47
347.55	2373.60
347.76	2529.24
347.98	2310.11
348.19	2422.75
348.40	2594.78
348.61	2445.27
348.82	2676.70
349.03	2570.20
349.24	2377.69
349.45	2666.46
349.66	2293.72
349.88	2428.89
350.09	2441.18
350.30	2672.60
350.51	2635.74
350.72	2480.09
350.93	2451.42
351.14	2404.32
351.35	2566.10
351.56	2430.94
351.77	2455.51
351.99	2449.37
352.20	2721.75
352.41	2473.95
352.62	2220.00
352.83	2461.66
353.04	2514.91
353.25	2400.22
353.46	2551.77
353.67	2668.50
353.88	2291.68
354.09	2396.12
354.30	2445.27
354.52	2588.63
354.73	2400.22
354.94	2408.41
355.15	2424.80
355.36	2703.32
355.57	2447.32
355.78	2377.69
355.99	2359.26
356.20	2473.95
356.41	2625.50
356.62	2392.03
356.83	2432.99
357.04	2643.93
357.25	2265.05
357.46	2330.59
357.68	2295.77
357.89	2418.65
358.10	2349.02
358.31	2461.66
358.52	2426.84
358.73	2389.98
358.94	2359.26
359.15	2383.84
359.36	2496.47
359.57	2488.28
359.78	2387.93
359.99	2516.95
360.20	2416.60
360.41	2496.47
360.62	2523.10
360.83	2430.94
361.04	2488.28
361.25	2572.25
361.46	2697.17
361.67	2570.20
361.88	2519.00
362.09	2605.02
362.30	2514.91
362.51	2332.64
362.72	2523.10
362.93	2668.50
363.14	2506.71
363.35	2473.95
363.56	2424.80
363.78	2586.58
363.99	2580.44
364.20	2439.13
364.41	2533.34
364.62	2678.74
364.83	2535.39
365.04	2410.46
365.25	2488.28
365.46	2762.71
365.67	2351.07
365.88	2441.18
366.09	2342.88
366.30	2430.94
366.51	2480.09
366.72	2273.25
366.93	2412.51
367.14	2471.90
367.35	2691.03
367.56	2430.94
367.77	2531.29
367.98	2449.37
368.18	2588.63
368.39	2439.13
368.60	2330.59
368.81	2523.10
369.02	2580.44
369.23	2457.56
369.44	2281.44
369.65	2430.94
369.86	2523.10
370.07	2541.53
370.28	2322.40
370.49	2465.75
370.70	2525.15
370.91	2318.30
371.12	2418.65
371.33	2609.11
371.54	2392.03
371.75	2654.17
371.96	2248.67
372.17	2463.71
372.38	2496.47
372.59	2494.43
372.80	2408.41
373.01	2551.77
373.22	2478.04
373.43	2396.12
373.64	2306.01
373.85	2592.73
374.06	2777.05
374.26	2539.48
374.47	2486.23
374.68	2744.28
374.89	2484.19
375.10	2398.17
375.31	2508.76
375.52	2596.82
375.73	2539.48
375.94	2383.84
376.15	2562.01
376.36	2437.08
376.57	2398.17
376.78	2383.84
376.99	2385.88
377.20	2611.16
377.40	2492.38
377.61	2576.34
377.82	2383.84
378.03	2635.74
378.24	2602.97
378.45	2469.85
378.66	2414.56
378.87	2232.29
379.08	2338.78
379.29	2326.49
379.50	2605.02
379.71	2430.94
379.91	2516.95
380.12	2469.85
380.33	2502.62
380.54	2568.15
380.75	2389.98
380.96	2406.36
381.17	2510.81
381.38	2424.80
381.59	2588.63
381.80	2396.12
382.00	2686.94
382.21	2471.90
382.42	2750.42
382.63	2682.84
382.84	2455.51
383.05	2555.86
383.26	2682.84
383.47	2484.19
383.68	2508.76
383.88	2559.96
384.09	2482.14
384.30	2602.97
384.51	2486.23
384.72	2389.98
384.93	2367.45
385.14	2457.56
385.35	2564.06
385.55	2332.64
385.76	2666.46
385.97	2490.33
386.18	2322.40
386.39	2332.64
386.60	2396.12
386.81	2461.66
387.02	2365.40
387.22	2285.53
387.43	2562.01
387.64	2562.01
387.85	2635.74
388.06	2627.54
388.27	3999.68
388.48	8400.77
388.68	12072.78
388.89	14579.49
389.10	15535.89
389.31	14593.83
389.52	11734.86
389.73	10125.16
389.93	9025.40
390.14	8300.42
390.35	7481.23
390.56	6653.85
390.77	5339.05
390.98	4153.28
391.18	3420.11
391.39	2924.50
391.60	2635.74
391.81	2639.83
392.02	2428.89
392.23	2768.85
392.43	2512.86
392.64	2562.01
392.85	2514.91
393.06	2662.36
393.27	2437.08
393.47	2402.27
393.68	2461.66
393.89	2463.71
394.10	2619.35
394.31	2328.54
394.52	2375.64
394.72	2326.49
394.93	2674.65
395.14	2424.80
395.35	2451.42
395.56	2424.80
395.76	2469.85
395.97	2523.10
396.18	2494.43
396.39	2617.30
396.60	3055.57
396.80	2768.85
397.01	2570.20
397.22	2703.32
397.43	2707.41
397.64	2406.36
397.84	2484.19
398.05	2770.90
398.26	2496.47
398.47	2613.21
398.67	2551.77
398.88	2461.66
399.09	2525.15
399.30	2408.41
399.51	2559.96
399.71	2371.55
399.92	2400.22
400.13	2512.86
400.34	2461.66
400.54	2539.48
400.75	2656.22
400.96	2435.03
401.17	2652.12
401.37	2568.15
401.58	2543.58
401.79	2453.47
402.00	2582.49
402.21	2899.92
402.41	2768.85
402.62	2787.29
402.83	2901.97
403.04	2953.17
403.24	3078.10
403.45	2555.86
403.66	2809.81
403.87	2693.08
404.07	2740.18
404.28	2701.27
404.49	2711.51
404.70	2562.01
404.90	2586.58
405.11	2533.34
405.32	2451.42
405.52	2441.18
405.73	2340.83
405.94	2359.26
406.15	2367.45
406.35	2531.29
406.56	2514.91
406.77	2488.28
406.98	2490.33
407.18	2357.21
407.39	2637.78
407.60	2461.66
407.80	2473.95
408.01	2394.08
408.22	2576.34
408.43	2412.51
408.63	2529.24
408.84	2631.64
409.05	2545.63
409.25	2369.50
409.46	2377.69
409.67	2459.61
409.88	2416.60
410.08	2422.75
410.29	2443.23
410.50	2578.39
410.70	2592.73
410.91	2353.12
411.12	2447.32
411.32	2459.61
411.53	2402.27
411.74	2510.81
411.95	2514.91
412.15	2545.63
412.36	2621.40
412.57	2586.58
412.77	2643.93
412.98	2418.65
413.19	2402.27
413.39	2496.47
413.60	2523.10
413.81	2629.59
414.01	2363.36
414.22	2541.53
414.43	2531.29
414.63	2441.18
414.84	2641.88
415.05	2514.91
415.25	2299.87
415.46	2533.34
415.67	2375.64
415.87	2435.03
416.08	2486.23
416.29	2430.94
416.49	2574.30
416.70	2404.32
416.91	2447.32
417.11	2457.56
417.32	2688.98
417.53	2541.53
417.73	2514.91
417.94	2424.80
418.15	2576.34
418.35	2482.14
418.56	2519.00
418.77	2762.71
418.97	2467.80
419.18	2482.14
419.38	2170.85
419.59	2506.71
419.80	2682.84
420.00	2406.36
420.21	2437.08
420.42	2648.02
420.62	2519.00
420.83	2400.22
421.04	2430.94
421.24	2488.28
421.45	2525.15
421.65	2394.08
421.86	2410.46
422.07	2555.86
422.27	2496.47
422.48	2473.95
422.69	2353.12
422.89	2465.75
423.10	2441.18
423.30	2357.21
423.51	2519.00
423.72	2580.44
423.92	2576.34
424.13	2301.92
424.33	2412.51
424.54	2611.16
424.75	2459.61
424.95	2588.63
425.16	2537.43
425.36	2508.76
425.57	2578.39
425.78	2551.77
425.98	2527.19
426.19	2463.71
426.39	2385.88
426.60	2455.51
426.81	2545.63
427.01	2514.91
427.22	2385.88
427.42	2297.82
427.63	2316.25
427.83	2594.78
428.04	2715.61
428.25	2482.14
428.45	2541.53
428.66	2617.30
428.86	2586.58
429.07	2406.36
429.28	2514.91
429.48	2416.60
429.69	2379.74
429.89	2498.52
430.10	2336.73
430.30	2609.11
430.51	2688.98
430.71	2482.14
430.92	2394.08
431.13	2426.84
431.33	2416.60
431.54	2473.95
431.74	2650.07
431.95	2775.00
432.15	2340.83
432.36	2422.75
432.56	2508.76
432.77	2738.13
432.98	2752.47
433.18	2447.32
433.39	2430.94
433.59	2445.27
433.80	2699.22
434.00	2695.13
434.21	2375.64
434.41	2428.89
434.62	2734.04
434.82	2336.73
435.03	2410.46
435.23	2562.01
435.44	2318.30
435.64	2410.46
435.85	2475.99
436.06	2578.39
436.26	2625.50
436.47	2367.45
436.67	2365.40
436.88	2412.51
437.08	2639.83
437.29	2602.97
437.49	2504.67
437.70	2684.89
437.90	2469.85
438.11	2670.55
438.31	2512.86
438.52	2678.74
438.72	2641.88
438.93	2844.63
439.13	2527.19
439.34	2674.65
439.54	2465.75
439.75	2625.50
439.95	2535.39
440.16	2463.71
440.36	2521.05
440.57	2504.67
440.77	2396.12
440.98	2588.63
441.18	2615.26
441.39	2373.60
441.59	2332.64
441.80	2717.65
442.00	2486.23
442.21	2588.63
442.41	2371.55
442.62	2588.63
442.82	2400.22
443.02	2461.66
443.23	2412.51
443.43	2529.24
443.64	2674.65
443.84	2365.40
444.05	2609.11
444.25	2523.10
444.46	2449.37
444.66	2432.99
444.87	2590.68
445.07	2344.92
445.28	2441.18
445.48	2592.73
445.69	2516.95
445.89	2858.96
446.09	2547.67
446.30	2713.56
446.50	3022.80
446.71	4601.79
446.91	5781.42
447.12	6696.86
447.32	7153.55
447.53	6510.49
447.73	5599.15
447.93	4825.01
448.14	4560.83
448.34	4310.97
448.55	3751.88
448.75	3772.36
448.96	3532.75
449.16	3280.85
449.36	3039.19
449.57	2777.05
449.77	2574.30
449.98	2473.95
450.18	2615.26
450.39	2510.81
450.59	2584.54
450.79	2529.24
451.00	2400.22
451.20	2637.78
451.41	2422.75
451.61	2539.48
451.81	2580.44
452.02	2400.22
452.22	2408.41
452.43	2449.37
452.63	2351.07
452.84	2435.03
453.04	2408.41
453.24	2523.10
453.45	2457.56
453.65	2488.28
453.86	2482.14
454.06	2455.51
454.26	2447.32
454.47	2406.36
454.67	2619.35
454.87	2662.36
455.08	2482.14
455.28	2584.54
455.49	2486.23
455.69	2342.88
455.89	2781.14
456.10	2627.54
456.30	2408.41
456.51	2600.92
456.71	2551.77
456.91	2633.69
457.12	2473.95
457.32	2514.91
457.52	2408.41
457.73	2555.86
457.93	2562.01
458.14	2424.80
458.34	2379.74
458.54	2441.18
458.75	2326.49
458.95	2672.60
459.15	2445.27
459.36	2508.76
459.56	2525.15
459.76	2785.24
459.97	2523.10
460.17	2508.76
460.37	2496.47
460.58	2562.01
460.78	2621.40
460.99	2392.03
461.19	2414.56
461.39	2422.75
461.60	2426.84
461.80	2498.52
462.00	2346.97
462.21	2531.29
462.41	2408.41
462.61	2363.36
462.82	2248.67
463.02	2490.33
463.22	2486.23
463.43	2637.78
463.63	2377.69
463.83	2666.46
464.04	2527.19
464.24	2473.95
464.44	2408.41
464.64	2527.19
464.85	2654.17
465.05	2473.95
465.25	2408.41
465.46	2410.46
465.66	2514.91
465.86	2555.86
466.07	2494.43
466.27	2471.90
466.47	2320.35
466.68	2213.85
466.88	2709.46
467.08	2500.57
467.29	2607.06
467.49	2570.20
467.69	2568.15
467.89	2543.58
468.10	2494.43
468.30	2443.23
468.50	2605.02
468.71	2613.21
468.91	2275.29
469.11	2580.44
469.31	2449.37
469.52	2426.84
469.72	2680.79
469.92	2676.70
470.13	2441.18
470.33	2498.52
470.53	2553.82
470.73	2867.16
470.94	3219.41
471.14	3502.03
471.34	3901.38
471.54	3774.41
471.75	3366.86
471.95	3112.91
472.15	2975.70
472.36	3051.47
472.56	2953.17
472.76	2957.27
472.96	2938.84
473.17	2686.94
473.37	2672.60
473.57	2557.91
473.77	2564.06
473.98	2500.57
474.18	2398.17
474.38	2785.24
474.58	2461.66
474.79	2387.93
474.99	2559.96
475.19	2631.64
475.39	2338.78
475.60	2482.14
475.80	2545.63
476.00	2523.10
476.20	2422.75
476.41	2467.80
476.61	2549.72
476.81	2545.63
477.01	2455.51
477.21	2701.27
477.42	2602.97
477.62	2396.12
477.82	2625.50
478.02	2412.51
478.23	2553.82
478.43	2406.36
478.63	2463.71
478.83	2414.56
479.03	2516.95
479.24	2652.12
479.44	2756.57
479.64	2408.41
479.84	2211.81
480.04	2377.69
480.25	2582.49
480.45	2432.99
480.65	2430.94
480.85	2744.28
481.06	2435.03
481.26	2469.85
481.46	2441.18
481.66	2568.15
481.86	2375.64
482.06	2543.58
482.27	2404.32
482.47	2416.60
482.67	2555.86
482.87	2383.84
483.07	2543.58
483.28	2457.56
483.48	2349.02
483.68	2422.75
483.88	2334.68
484.08	2228.19
484.29	2379.74
484.49	2506.71
484.69	2351.07
484.89	2645.98
485.09	2658.26
485.29	2500.57
485.50	2502.62
485.70	2404.32
485.90	2668.50
486.10	2449.37
486.30	2523.10
486.50	2707.41
486.71	2537.43
486.91	2547.67
487.11	2572.25
487.31	2295.77
487.51	2584.54
487.71	2385.88
487.91	2389.98
488.12	2389.98
488.32	2242.53
488.52	2473.95
488.72	2176.99
488.92	2469.85
489.12	2613.21
489.32	2539.48
489.53	2473.95
489.73	2330.59
489.93	2693.08
490.13	2408.41
490.33	2310.11
490.53	2486.23
490.73	2578.39
490.94	2226.14
491.14	2527.19
491.34	2629.59
491.54	2752.47
491.74	3416.01
491.94	3948.48
492.14	4310.97
492.34	4394.94
492.54	4052.93
492.75	3487.69
492.95	3409.87
493.15	3264.46
493.35	3145.68
493.55	3022.80
493.75	2904.02
493.95	3047.38
494.15	2666.46
494.35	2590.68
494.56	2539.48
494.76	2465.75
494.96	2531.29
495.16	2592.73
495.36	2519.00
495.56	2547.67
495.76	2465.75
495.96	2410.46
496.16	2381.79
496.36	2742.23
496.56	2504.67
496.77	2519.00
496.97	2490.33
497.17	2670.55
497.37	2361.31
497.57	2598.87
497.77	2471.90
497.97	2426.84
498.17	2549.72
498.37	2365.40
498.57	2498.52
498.77	2420.70
498.97	2523.10
499.17	2666.46
499.38	2469.85
499.58	2494.43
499.78	2592.73
499.98	2613.21
500.18	2539.48
500.38	2369.50
500.58	2635.74
500.78	3137.49
500.98	5300.14
501.18	7597.96
501.38	9303.92
501.58	10334.05
501.78	10157.92
501.98	7880.58
502.18	6670.23
502.38	5656.49
502.58	5396.40
502.78	4820.92
502.98	4630.46
503.18	4386.75
503.38	4022.21
503.59	3551.18
503.79	3389.39
503.99	3180.50
504.19	3063.76
504.39	3014.61
504.59	3055.57
504.79	3069.91
504.99	3145.68
505.19	2846.68
505.39	2727.89
505.59	2850.77
505.79	2772.95
505.99	2611.16
506.19	2574.30
506.39	2686.94
506.59	2492.38
506.79	2469.85
506.99	2641.88
507.19	2508.76
507.39	2539.48
507.59	2310.11
507.79	2422.75
507.99	2342.88
508.19	2492.38
508.39	2527.19
508.59	2461.66
508.79	2633.69
508.99	2783.19
509.19	2385.88
509.39	2430.94
509.59	2379.74
509.79	2445.27
509.99	2514.91
510.19	2596.82
510.39	2584.54
510.59	2541.53
510.79	2449.37
510.99	2330.59
511.19	2437.08
511.39	2701.27
511.59	2572.25
511.79	2602.97
511.99	2463.71
512.19	2715.61
512.38	2529.24
512.58	2416.60
512.78	2361.31
512.98	2617.30
513.18	2693.08
513.38	2265.05
513.58	2541.53
513.78	2490.33
513.98	2490.33
514.18	2408.41
514.38	2424.80
514.58	2521.05
514.78	2408.41
514.98	2367.45
515.18	2449.37
515.38	2385.88
515.58	2584.54
515.78	2404.32
515.98	2527.19
516.18	2525.15
516.38	2529.24
516.57	2400.22
516.77	2418.65
516.97	2580.44
517.17	2406.36
517.37	2211.81
517.57	2535.39
517.77	2449.37
517.97	2387.93
518.17	2555.86
518.37	2310.11
518.57	2424.80
518.77	2418.65
518.97	2500.57
519.16	2564.06
519.36	2566.10
519.56	2432.99
519.76	2392.03
519.96	2543.58
520.16	2709.46
520.36	2256.86
520.56	2594.78
520.76	2326.49
520.96	2418.65
521.16	2645.98
521.35	2564.06
521.55	2572.25
521.75	2543.58
521.95	2451.42
522.15	2480.09
522.35	2314.20
522.55	2324.44
522.75	2625.50
522.95	2404.32
523.14	2381.79
523.34	2377.69
523.54	2404.32
523.74	2531.29
523.94	2482.14
524.14	2260.96
524.34	2572.25
524.54	2666.46
524.73	2439.13
524.93	2539.48
525.13	2457.56
525.33	2355.16
525.53	2703.32
525.73	2654.17
525.93	2473.95
526.13	2435.03
526.32	2473.95
526.52	2514.91
526.72	2576.34
526.92	2453.47
527.12	2455.51
527.32	2316.25
527.52	2588.63
527.71	2547.67
527.91	2463.71
528.11	2480.09
528.31	2514.91
528.51	2359.26
528.71	2531.29
528.90	2637.78
529.10	2648.02
529.30	2631.64
529.50	2228.19
529.70	2506.71
529.90	2418.65
530.09	2449.37
530.29	2351.07
530.49	2381.79
530.69	2754.52
530.89	2482.14
531.09	2559.96
531.28	2471.90
531.48	2686.94
531.68	2482.14
531.88	2486.23
532.08	2637.78
532.28	2414.56
532.47	2609.11
532.67	2496.47
532.87	2559.96
533.07	2387.93
533.27	2572.25
533.46	2602.97
533.66	2494.43
533.86	2482.14
534.06	2471.90
534.26	2568.15
534.45	2504.67
534.65	2629.59
534.85	2467.80
535.05	2392.03
535.25	2564.06
535.44	2277.34
535.64	2529.24
535.84	2426.84
536.04	2459.61
536.24	2459.61
536.43	2412.51
536.63	2504.67
536.83	2414.56
537.03	2559.96
537.22	2301.92
537.42	2355.16
537.62	2541.53
537.82	2344.92
538.02	2578.39
538.21	2645.98
538.41	2906.07
538.61	2545.63
538.81	2416.60
539.00	2613.21
539.20	2275.29
539.40	2537.43
539.60	2467.80
539.79	2611.16
539.99	2445.27
540.19	2355.16
540.39	2383.84
540.58	2519.00
540.78	2643.93
540.98	2475.99
541.18	2668.50
541.37	2469.85
541.57	2566.10
541.77	2539.48
541.97	2416.60
542.16	2303.96
542.36	2457.56
542.56	2432.99
542.76	2662.36
542.95	2539.48
543.15	2525.15
543.35	2643.93
543.54	2371.55
543.74	2389.98
543.94	2668.50
544.14	2432.99
544.33	2537.43
544.53	2453.47
544.73	2506.71
544.93	2453.47
545.12	2416.60
545.32	2473.95
545.52	2539.48
545.71	2432.99
545.91	2447.32
546.11	2439.13
546.30	2424.80
546.50	2523.10
546.70	2527.19
546.90	2467.80
547.09	2242.53
547.29	2539.48
547.49	2496.47
547.68	2478.04
547.88	2371.55
548.08	2564.06
548.27	2981.84
548.47	2455.51
548.67	2414.56
548.87	2574.30
549.06	2396.12
549.26	2424.80
549.46	2564.06
549.65	2379.74
549.85	2478.04
550.05	2506.71
550.24	2367.45
550.44	2582.49
550.64	2449.37
550.83	2455.51
551.03	2566.10
551.23	2619.35
551.42	2570.20
551.62	2514.91
551.82	2543.58
552.01	2451.42
552.21	2564.06
552.41	2443.23
552.60	2691.03
552.80	2516.95
553.00	2404.32
553.19	2406.36
553.39	2695.13
553.59	2408.41
553.78	2527.19
553.98	2455.51
554.17	2396.12
554.37	2535.39
554.57	2551.77
554.76	2351.07
554.96	2471.90
555.16	2457.56
555.35	2475.99
555.55	2553.82
555.75	2588.63
555.94	2572.25
556.14	2326.49
556.33	2512.86
556.53	2404.32
556.73	2412.51
556.92	2609.11
557.12	2435.03
557.32	2740.18
557.51	2627.54
557.71	2510.81
557.90	2666.46
558.10	2621.40
558.30	2432.99
558.49	2414.56
558.69	2453.47
558.88	2553.82
559.08	2551.77
559.28	2435.03
559.47	2459.61
559.67	2596.82
559.86	2746.33
560.06	2455.51
560.26	2496.47
560.45	2486.23
560.65	2447.32
560.84	2576.34
561.04	2342.88
561.24	2547.67
561.43	2326.49
561.63	2635.74
561.82	2555.86
562.02	2521.05
562.22	2355.16
562.41	2367.45
562.61	2486.23
562.80	2400.22
563.00	2725.85
563.19	2478.04
563.39	2568.15
563.59	2521.05
563.78	2349.02
563.98	2242.53
564.17	2449.37
564.37	2293.72
564.56	2496.47
564.76	2375.64
564.96	2654.17
565.15	2586.58
565.35	2719.70
565.54	2422.75
565.74	2555.86
565.93	2564.06
566.13	2449.37
566.32	2654.17
566.52	2547.67
566.71	2547.67
566.91	2580.44
567.11	2533.34
567.30	2349.02
567.50	2596.82
567.69	2531.29
567.89	2512.86
568.08	2355.16
568.28	2506.71
568.47	2375.64
568.67	2519.00
568.86	2426.84
569.06	2555.86
569.25	2441.18
569.45	2293.72
569.64	2449.37
569.84	2441.18
570.04	2580.44
570.23	2426.84
570.43	2486.23
570.62	2473.95
570.82	2744.28
571.01	2334.68
571.21	2398.17
571.40	2441.18
571.60	2588.63
571.79	2572.25
571.99	2545.63
572.18	2357.21
572.38	2539.48
572.57	2496.47
572.77	2449.37
572.96	2799.57
573.16	2482.14
573.35	2404.32
573.55	2635.74
573.74	2537.43
573.94	2420.70
574.13	2441.18
574.33	2586.58
574.52	2684.89
574.71	2455.51
574.91	2535.39
575.10	2369.50
575.30	2437.08
575.49	2439.13
575.69	2381.79
575.88	2494.43
576.08	2594.78
576.27	2762.71
576.47	2523.10
576.66	2629.59
576.86	2746.33
577.05	2514.91
577.25	2600.92
577.44	2678.74
577.64	2400.22
577.83	2564.06
578.02	2389.98
578.22	2664.41
578.41	2666.46
578.61	2496.47
578.80	2318.30
579.00	2449.37
579.19	2557.91
579.39	2574.30
579.58	2582.49
579.77	2457.56
579.97	2693.08
580.16	2625.50
580.36	2582.49
580.55	2605.02
580.75	2572.25
580.94	2494.43
581.13	2615.26
581.33	2674.65
581.52	2447.32
581.72	2768.85
581.91	2703.32
582.11	2457.56
582.30	2598.87
582.49	2598.87
582.69	2662.36
582.88	2533.34
583.08	2529.24
583.27	2580.44
583.47	2609.11
583.66	2430.94
583.85	2357.21
584.05	2467.80
584.24	2596.82
584.44	2549.72
584.63	2662.36
584.82	2738.13
585.02	2770.90
585.21	2688.98
585.41	2650.07
585.60	2596.82
585.79	2734.04
585.99	2777.05
586.18	2678.74
586.37	3235.79
586.57	5091.25
586.76	14761.76
586.96	34428.40
587.15	47805.73
587.34	57267.35
587.54	61633.62
587.73	56081.58
587.93	39374.25
588.12	29828.66
588.31	24151.70
588.51	21120.70
588.70	19406.55
588.89	17192.70
589.09	15052.57
589.28	12877.63
589.47	10307.43
589.67	7856.01
589.86	6057.89
590.06	4669.37
590.25	3921.86
590.44	3334.09
590.64	2981.84
590.83	2889.68
591.02	2850.77
591.22	2680.79
591.41	2600.92
591.60	2486.23
591.80	2783.19
591.99	2381.79
592.18	2430.94
592.38	2631.64
592.57	2406.36
592.76	2504.67
592.96	2521.05
593.15	2465.75
593.34	2613.21
593.54	2482.14
593.73	2580.44
593.92	2619.35
594.12	2637.78
594.31	2600.92
594.50	2678.74
594.70	2654.17
594.89	2846.68
595.08	2412.51
595.28	2621.40
595.47	2879.44
595.66	2662.36
595.86	2402.27
596.05	2496.47
596.24	2449.37
596.43	2742.23
596.63	2598.87
596.82	2529.24
597.01	2658.26
597.21	2828.24
597.40	2519.00
597.59	2551.77
597.79	2596.82
597.98	2621.40
598.17	2619.35
598.36	2543.58
598.56	2668.50
598.75	2402.27
598.94	2605.02
599.14	2435.03
599.33	2447.32
599.52	2578.39
599.71	2582.49
599.91	2475.99
600.10	2574.30
600.29	2529.24
600.48	2564.06
600.68	2543.58
600.87	2572.25
601.06	2461.66
601.26	2506.71
601.45	2564.06
601.64	2461.66
601.83	2678.74
602.03	2375.64
602.22	2316.25
602.41	2643.93
602.60	2781.14
602.80	2602.97
602.99	2580.44
603.18	2441.18
603.37	2531.29
603.57	2488.28
603.76	2496.47
603.95	2650.07
604.14	2416.60
604.34	2424.80
604.53	2467.80
604.72	2605.02
604.91	2570.20
605.10	2496.47
605.30	2371.55
605.49	2752.47
605.68	2588.63
605.87	2523.10
606.07	2410.46
606.26	2521.05
606.45	2609.11
606.64	2543.58
606.84	2482.14
607.03	2512.86
607.22	2625.50
607.41	2512.86
607.60	2426.84
607.80	2699.22
607.99	2516.95
608.18	2549.72
608.37	2512.86
608.56	2463.71
608.76	2674.65
608.95	2607.06
609.14	2531.29
609.33	2623.45
609.52	2734.04
609.72	2572.25
609.91	2693.08
610.10	2506.71
610.29	2695.13
610.48	2527.19
610.68	2535.39
610.87	2525.15
611.06	2580.44
611.25	2482.14
611.44	2598.87
611.63	2443.23
611.83	2658.26
612.02	2330.59
612.21	2562.01
612.40	2248.67
612.59	2363.36
612.79	2299.87
612.98	2422.75
613.17	2744.28
613.36	2506.71
613.55	2637.78
613.74	2490.33
613.93	2613.21
614.13	2731.99
614.32	2715.61
614.51	2697.17
614.70	2625.50
614.89	2537.43
615.08	2686.94
615.28	3010.51
615.47	2342.88
615.66	2547.67
615.85	2519.00
616.04	2711.51
616.23	2598.87
616.42	2553.82
616.62	2572.25
616.81	2594.78
617.00	2471.90
617.19	2576.34
617.38	2394.08
617.57	2572.25
617.76	2609.11
617.95	2666.46
618.15	2535.39
618.34	2660.31
618.53	2346.97
618.72	2555.86
618.91	2609.11
619.10	2543.58
619.29	2537.43
619.48	2457.56
619.68	2437.08
619.87	2455.51
620.06	2383.84
620.25	2523.10
620.44	2367.45
620.63	2430.94
620.82	2490.33
621.01	2586.58
621.20	2539.48
621.39	2545.63
621.59	2564.06
621.78	2516.95
621.97	2523.10
622.16	2564.06
622.35	2496.47
622.54	2637.78
622.73	2543.58
622.92	2314.20
623.11	2635.74
623.30	2549.72
623.49	2619.35
623.68	2363.36
623.88	2709.46
624.07	2539.48
624.26	2547.67
624.45	2506.71
624.64	2465.75
624.83	2519.00
625.02	2439.13
625.21	2457.56
625.40	2580.44
625.59	2727.89
625.78	2529.24
625.97	2625.50
626.16	2754.52
626.35	2648.02
626.54	2568.15
626.74	2688.98
626.93	2506.71
627.12	2500.57
627.31	2650.07
627.50	2582.49
627.69	2545.63
627.88	2396.12
628.07	2432.99
628.26	2424.80
628.45	2400.22
628.64	2408.41
628.83	2424.80
629.02	2396.12
629.21	2539.48
629.40	2519.00
629.59	2422.75
629.78	2471.90
629.97	2529.24
630.16	2500.57
630.35	2416.60
630.54	2504.67
630.73	2455.51
630.92	2506.71
631.11	2383.84
631.30	2459.61
631.49	2514.91
631.68	2490.33
631.87	2500.57
632.06	2363.36
632.25	2678.74
632.44	2447.32
632.63	2570.20
632.82	2494.43
633.01	2492.38
633.20	2623.45
633.39	2447.32
633.58	2392.03
633.77	2543.58
633.96	2519.00
634.15	2578.39
634.34	2596.82
634.53	2555.86
634.72	2449.37
634.91	2367.45
635.10	2519.00
635.29	2623.45
635.48	2465.75
635.67	2375.64
635.86	2361.31
636.05	2611.16
636.24	2441.18
636.43	2461.66
636.62	2553.82
636.81	2211.81
637.00	2457.56
637.19	2506.71
637.38	2516.95
637.57	2512.86
637.76	2545.63
637.95	2686.94
638.14	2525.15
638.33	2594.78
638.52	2484.19
638.71	2486.23
638.89	2396.12
639.08	2865.11
639.27	2625.50
639.46	2738.13
639.65	3114.96
639.84	3217.36
640.03	3389.39
640.22	3200.98
640.41	3180.50
640.60	2762.71
640.79	2824.15
640.98	2578.39
641.17	2652.12
641.36	2695.13
641.55	2629.59
641.74	2504.67
641.92	2449.37
642.11	2416.60
642.30	2490.33
642.49	2385.88
642.68	2426.84
642.87	2521.05
643.06	2572.25
643.25	2400.22
643.44	2396.12
643.63	2445.27
643.82	2559.96
644.00	2367.45
644.19	2502.62
644.38	2338.78
644.57	2531.29
644.76	2529.24
644.95	2451.42
645.14	2488.28
645.33	2416.60
645.52	2531.29
645.71	2383.84
645.89	2432.99
646.08	2531.29
646.27	2461.66
646.46	2678.74
646.65	2297.82
646.84	2545.63
647.03	2437.08
647.22	2510.81
647.40	2519.00
647.59	2471.90
647.78	2310.11
647.97	2365.40
648.16	2310.11
648.35	2701.27
648.54	2594.78
648.73	2447.32
648.91	2605.02
649.10	2510.81
649.29	2430.94
649.48	2416.60
649.67	2594.78
649.86	2559.96
650.05	2557.91
650.23	2711.51
650.42	2529.24
650.61	2781.14
650.80	2666.46
650.99	2805.72
651.18	2662.36
651.36	2738.13
651.55	2445.27
651.74	2514.91
651.93	2441.18
652.12	2430.94
652.31	2504.67
652.49	2478.04
652.68	2494.43
652.87	2764.76
653.06	2514.91
653.25	2711.51
653.44	2535.39
653.62	2727.89
653.81	2400.22
654.00	2496.47
654.19	2588.63
654.38	2783.19
654.56	2455.51
654.75	2459.61
654.94	2590.68
655.13	2459.61
655.32	2461.66
655.51	2600.92
655.69	2435.03
655.88	2533.34
656.07	2336.73
656.26	2545.63
656.45	2344.92
656.63	2461.66
656.82	2529.24
657.01	2617.30
657.20	2420.70
657.38	2666.46
657.57	2365.40
657.76	2349.02
657.95	2611.16
658.14	2457.56
658.32	2490.33
658.51	2324.44
658.70	2428.89
658.89	2562.01
659.08	2500.57
659.26	2658.26
659.45	2428.89
659.64	2637.78
659.83	2449.37
660.01	2879.44
660.20	2523.10
660.39	2643.93
660.58	2269.15
660.76	2551.77
660.95	2322.40
661.14	2439.13
661.33	2346.97
661.51	2334.68
661.70	2447.32
661.89	2615.26
662.08	2482.14
662.26	2279.39
662.45	2396.12
662.64	2736.09
662.83	2576.34
663.01	2344.92
663.20	2422.75
663.39	2621.40
663.58	2449.37
663.76	2377.69
663.95	2564.06
664.14	2373.60
664.32	2437.08
664.51	2373.60
664.70	2381.79
664.89	2478.04
665.07	2299.87
665.26	2564.06
665.45	2363.36
665.64	2627.54
665.82	2523.10
666.01	2576.34
666.20	2318.30
666.38	2645.98
666.57	2695.13
666.76	3934.15
666.95	9510.77
667.13	17889.01
667.32	22720.17
667.51	26134.13
667.69	27637.34
667.88	24692.36
668.07	17530.61
668.25	14208.81
668.44	11992.90
668.63	10250.08
668.81	9095.03
669.00	7888.78
669.19	6926.23
669.38	6148.00
669.56	5275.57
669.75	4403.13
669.94	3796.93
670.12	3221.45
670.31	2932.69
670.50	2805.72
670.68	2807.77
670.87	2639.83
671.06	2500.57
671.24	2588.63
671.43	2727.89
671.62	2629.59
671.80	2447.32
671.99	2529.24
672.18	2498.52
672.36	2594.78
672.55	2504.67
672.74	2531.29
672.92	2394.08
673.11	2643.93
673.29	2430.94
673.48	2557.91
673.67	2457.56
673.85	2654.17
674.04	2478.04
674.23	2523.10
674.41	2748.37
674.60	2301.92
674.79	2289.63
674.97	2373.60
675.16	2596.82
675.34	2643.93
675.53	2375.64
675.72	2428.89
675.90	2697.17
676.09	2408.41
676.28	2465.75
676.46	2308.06
676.65	2586.58
676.83	2400.22
677.02	2432.99
677.21	2475.99
677.39	2535.39
677.58	2340.83
677.77	2428.89
677.95	2326.49
678.14	2428.89
678.32	2420.70
678.51	2371.55
678.70	2731.99
678.88	2432.99
679.07	2547.67
679.25	2471.90
679.44	2447.32
679.63	2398.17
679.81	2521.05
680.00	2635.74
680.18	2564.06
680.37	2564.06
680.55	2494.43
680.74	2310.11
680.93	2240.48
681.11	2480.09
681.30	2492.38
681.48	2451.42
681.67	2420.70
681.85	2461.66
682.04	2344.92
682.23	2564.06
682.41	2480.09
682.60	2428.89
682.78	2412.51
682.97	2396.12
683.15	2506.71
683.34	2502.62
683.53	2775.00
683.71	2306.01
683.90	2596.82
684.08	2719.70
684.27	2414.56
684.45	2514.91
684.64	2643.93
684.82	2457.56
685.01	2473.95
685.19	2488.28
685.38	2586.58
685.57	2463.71
685.75	2326.49
685.94	2428.89
686.12	2396.12
686.31	2441.18
686.49	2650.07
686.68	2334.68
686.86	2449.37
687.05	2449.37
687.23	2750.42
687.42	2416.60
687.60	2242.53
687.79	2611.16
687.97	2682.84
688.16	2607.06
688.34	2564.06
688.53	2332.64
688.71	2514.91
688.90	2596.82
689.08	2465.75
689.27	2316.25
689.45	2580.44
689.64	2408.41
689.82	2500.57
690.01	2580.44
690.19	2547.67
690.38	2508.76
690.56	2609.11
690.75	2389.98
690.93	2408.41
691.12	2426.84
691.30	2449.37
691.49	2512.86
691.67	2484.19
691.86	2719.70
692.04	2432.99
692.23	2482.14
692.41	2531.29
692.60	2799.57
692.78	2652.12
692.97	2559.96
693.15	2600.92
693.34	2729.94
693.52	2629.59
693.71	2394.08
693.89	2465.75
694.08	2265.05
694.26	2600.92
694.44	2637.78
694.63	2482.14
694.81	2314.20
695.00	2408.41
695.18	2650.07
695.37	2797.53
695.55	2539.48
695.74	2439.13
695.92	2447.32
696.10	2629.59
696.29	2367.45
696.47	2506.71
696.66	2367.45
696.84	2301.92
697.03	2539.48
697.21	2668.50
697.40	3659.72
697.58	2666.46
697.76	2435.03
697.95	2418.65
698.13	2383.84
698.32	2414.56
698.50	2473.95
698.68	2447.32
698.87	2562.01
699.05	2731.99
699.24	2486.23
699.42	2357.21
699.61	2473.95
699.79	2506.71
699.97	2490.33
700.16	2396.12
700.34	2389.98
700.53	2482.14
700.71	2660.31
700.89	2625.50
701.08	2459.61
701.26	2410.46
701.45	2983.89
701.63	2432.99
701.81	2435.03
702.00	2482.14
702.18	2596.82
702.37	2424.80
702.55	2775.00
702.73	2654.17
702.92	2586.58
703.10	2881.49
703.28	2734.04
703.47	2502.62
703.65	2691.03
703.84	2625.50
704.02	2531.29
704.20	2713.56
704.39	2471.90
704.57	2424.80
704.75	2658.26
704.94	2576.34
705.12	2539.48
705.30	2842.58
705.49	5496.75
705.67	12537.66
705.86	20700.87
706.04	24159.89
706.22	27412.06
706.41	27997.78
706.59	22433.45
706.77	16473.86
706.96	13811.50
707.14	12279.62
707.32	10583.90
707.51	9428.85
707.69	7509.90
707.87	6086.56
708.06	4951.99
708.24	4026.31
708.42	3465.16
708.61	3223.50
708.79	2758.61
708.97	2635.74
709.16	2580.44
709.34	2629.59
709.52	2416.60
709.71	2435.03
709.89	2519.00
710.07	2371.55
710.26	2383.84
710.44	2461.66
710.62	2592.73
710.80	2416.60
710.99	2576.34
711.17	2617.30
711.35	2410.46
711.54	2398.17
711.72	2555.86
711.90	2525.15
712.09	2578.39
712.27	2471.90
712.45	2500.57
712.63	2363.36
712.82	2543.58
713.00	2508.76
713.18	2557.91
713.37	2533.34
713.55	2609.11
713.73	2506.71
713.91	2521.05
714.10	2363.36
714.28	2510.81
714.46	2459.61
714.65	2553.82
714.83	2396.12
715.01	2473.95
715.19	2590.68
715.38	2344.92
715.56	2559.96
715.74	2428.89
715.92	2420.70
716.11	2605.02
716.29	2250.72
716.47	2510.81
716.65	2514.91
716.84	2363.36
717.02	2557.91
717.20	2228.19
717.38	2373.60
717.57	2533.34
717.75	2412.51
717.93	2441.18
718.11	2596.82
718.30	2400.22
718.48	2529.24
718.66	2510.81
718.84	2531.29
719.03	2488.28
719.21	2258.91
719.39	2693.08
719.57	2576.34
719.75	2545.63
719.94	2367.45
720.12	2465.75
720.30	2506.71
720.48	2543.58
720.67	2482.14
720.85	2367.45
721.03	2437.08
721.21	2379.74
721.39	2580.44
721.58	2504.67
721.76	2383.84
721.94	2537.43
722.12	2555.86
722.30	2643.93
722.49	2389.98
722.67	2490.33
722.85	2453.47
723.03	2387.93
723.21	2396.12
723.40	2455.51
723.58	2596.82
723.76	2553.82
723.94	2686.94
724.12	2600.92
724.30	2592.73
724.49	2674.65
724.67	2416.60
724.85	2574.30
725.03	2404.32
725.21	2506.71
725.40	2701.27
725.58	2451.42
725.76	2623.45
725.94	2576.34
726.12	2359.26
726.30	2480.09
726.49	2432.99
726.67	2539.48
726.85	2582.49
727.03	2826.20
727.21	4186.05
727.39	5869.48
727.57	6598.56
727.76	7333.78
727.94	7706.51
728.12	7006.10
728.30	5425.07
728.48	5054.39
728.66	4509.63
728.84	4009.92
729.03	3588.04
729.21	3235.79
729.39	2908.12
729.57	2699.22
729.75	2617.30
729.93	2633.69
730.11	2394.08
730.30	2473.95
730.48	2422.75
730.66	2607.06
730.84	2570.20
731.02	2539.48
731.20	2412.51
731.38	2441.18
731.56	2285.53
731.74	2375.64
731.93	2480.09
732.11	2510.81
732.29	2412.51
732.47	2564.06
732.65	2586.58
732.83	2574.30
733.01	2514.91
733.19	2359.26
733.37	2480.09
733.56	2623.45
733.74	2416.60
733.92	2740.18
734.10	2416.60
734.28	2543.58
734.46	2318.30
734.64	2506.71
734.82	2494.43
735.00	2383.84
735.18	2451.42
735.36	2568.15
735.54	2496.47
735.73	2473.95
735.91	2510.81
736.09	2588.63
736.27	2490.33
736.45	2578.39
736.63	2338.78
736.81	2465.75
736.99	2693.08
737.17	2588.63
737.35	2412.51
737.53	2473.95
737.71	2514.91
737.89	2559.96
738.07	2437.08
738.25	2490.33
738.43	2389.98
738.61	2396.12
738.80	2332.64
738.98	2435.03
739.16	2451.42
739.34	2367.45
739.52	2621.40
739.70	2473.95
739.88	2555.86
740.06	2588.63
740.24	2236.38
740.42	2602.97
740.60	2271.20
740.78	2416.60
740.96	2285.53
741.14	2471.90
741.32	2432.99
741.50	2277.34
741.68	2713.56
741.86	2680.79
742.04	2306.01
742.22	2324.44
742.40	2457.56
742.58	2519.00
742.76	2379.74
742.94	2572.25
743.12	2291.68
743.30	2437.08
743.48	2521.05
743.66	2437.08
743.84	2457.56
744.02	2363.36
744.20	2445.27
744.38	2322.40
744.56	2369.50
744.74	2586.58
744.92	2574.30
745.10	2684.89
745.28	2502.62
745.46	2738.13
745.64	2447.32
745.82	2539.48
746.00	2437.08
746.18	2467.80
746.36	2422.75
746.54	2514.91
746.72	2467.80
746.90	2396.12
747.08	2578.39
747.26	2463.71
747.44	2514.91
747.62	2572.25
747.80	2547.67
747.98	2623.45
748.15	2414.56
748.33	2650.07
748.51	2498.52
748.69	2553.82
748.87	2428.89
749.05	2453.47
749.23	2424.80
749.41	2478.04
749.59	2453.47
749.77	2641.88
749.95	2475.99
750.13	2346.97
750.31	2541.53
750.49	2531.29
750.67	2656.22
750.85	2605.02
751.03	2467.80
751.20	2705.37
751.38	2496.47
751.56	2408.41
751.74	2488.28
751.92	2492.38
752.10	2326.49
752.28	2613.21
752.46	2441.18
752.64	2469.85
752.82	2494.43
753.00	2586.58
753.18	2449.37
753.35	2490.33
753.53	2441.18
753.71	2482.14
753.89	2519.00
754.07	2584.54
754.25	2639.83
754.43	2519.00
754.61	2381.79
754.79	2471.90
754.97	2471.90
755.14	2654.17
755.32	2422.75
755.50	2502.62
755.68	2494.43
755.86	2404.32
756.04	2478.04
756.22	2316.25
756.40	2564.06
756.57	2664.41
756.75	2338.78
756.93	2645.98
757.11	2541.53
757.29	2324.44
757.47	2277.34
757.65	2322.40
757.82	2185.18
758.00	2410.46
758.18	2453.47
758.36	2443.23
758.54	2736.09
758.72	2248.67
758.90	2523.10
759.07	2533.34
759.25	2359.26
759.43	2551.77
759.61	2301.92
759.79	3528.65
759.97	2564.06
760.15	2414.56
760.32	2389.98
760.50	2482.14
760.68	2668.50
760.86	2297.82
761.04	2588.63
761.22	2572.25
761.39	2555.86
761.57	2465.75
761.75	2457.56
761.93	2555.86
762.11	2449.37
762.28	2480.09
762.46	2385.88
762.64	2709.46
762.82	2342.88
763.00	2408.41
763.18	2590.68
763.35	2379.74
763.53	2629.59
763.71	2443.23
763.89	2418.65
764.07	2498.52
764.24	2461.66
764.42	2551.77
764.60	2408.41
764.78	2498.52
764.96	2598.87
765.13	2547.67
765.31	2465.75
765.49	2592.73
765.67	2383.84
765.84	2344.92
766.02	2346.97
766.20	2310.11
766.38	2469.85
766.56	2521.05
766.73	2594.78
766.91	2463.71
767.09	2449.37
767.27	2529.24
767.44	2346.97
767.62	2469.85
767.80	2488.28
767.98	2478.04
768.15	2404.32
768.33	2539.48
768.51	2562.01
768.69	2488.28
768.87	2521.05
769.04	2519.00
769.22	2797.53
769.40	2662.36
769.58	2643.93
769.75	2508.76
769.93	2592.73
770.11	2437.08
770.28	2363.36
770.46	2607.06
770.64	2465.75
770.82	2387.93
770.99	2418.65
771.17	2547.67
771.35	2527.19
771.53	2420.70
771.70	2392.03
771.88	2572.25
772.06	2471.90
772.23	2432.99
772.41	2478.04
772.59	2389.98
772.77	2381.79
772.94	2416.60
773.12	2445.27
773.30	2471.90
773.47	2500.57
773.65	2416.60
773.83	2582.49
774.01	2478.04
774.18	2310.11
774.36	2502.62
774.54	2414.56
774.71	2525.15
774.89	2283.49
775.07	2342.88
775.24	2342.88
775.42	2359.26
775.60	2662.36
775.78	2424.80
775.95	2306.01
776.13	2236.38
776.31	2265.05
776.48	2457.56
776.66	2605.02
776.84	2416.60
777.01	2355.16
777.19	2402.27
777.37	2408.41
777.54	2531.29
777.72	2643.93
777.90	2529.24
778.07	2392.03
778.25	2828.24
778.43	2674.65
778.60	2375.64
778.78	2451.42
778.96	2703.32
779.13	2326.49
779.31	2502.62
779.49	2478.04
779.66	2494.43
779.84	2400.22
780.01	2445.27
780.19	2408.41
780.37	2635.74
780.54	2645.98
780.72	2301.92
780.90	2449.37
781.07	2475.99
781.25	2402.27
781.43	2586.58
781.60	2443.23
781.78	2619.35
781.95	2486.23
782.13	2387.93
782.31	2424.80
782.48	2252.77
782.66	2535.39
782.83	2545.63
783.01	2510.81
783.19	2564.06
783.36	2416.60
783.54	2316.25
783.72	2578.39
783.89	2334.68
784.07	2510.81
784.24	2521.05
784.42	2613.21
784.60	2392.03
784.77	2514.91
784.95	2234.33
785.12	2367.45
785.30	2459.61
785.47	2381.79
785.65	2355.16
785.83	2428.89
786.00	2412.51
786.18	2469.85
786.35	2326.49
786.53	2353.12
786.71	2617.30
786.88	2521.05
787.06	2459.61
787.23	2441.18
787.41	2445.27
787.58	2463.71
787.76	2457.56
787.94	2498.52
788.11	2492.38
788.29	2340.83
788.46	2451.42
788.64	2277.34
788.81	2473.95
788.99	2351.07
789.16	2365.40
789.34	2494.43
789.52	2422.75
789.69	2412.51
789.87	2273.25
790.04	2310.11
790.22	2498.52
790.39	2787.29
790.57	2285.53
790.74	2363.36
790.92	2623.45
791.09	2324.44
791.27	2494.43
791.44	2564.06
791.62	2514.91
791.79	2572.25
791.97	2494.43
792.15	2727.89
792.32	2502.62
792.50	2455.51
792.67	2586.58
792.85	2637.78
793.02	2545.63
793.20	2400.22
793.37	2285.53
793.55	2426.84
793.72	2324.44
793.90	2537.43
794.07	2422.75
794.25	2400.22
794.42	2519.00
794.60	2480.09
794.77	2453.47
794.95	2502.62
795.12	2596.82
795.30	2408.41
795.47	2228.19
795.65	2744.28
795.82	2535.39
796.00	2408.41
796.17	2430.94
796.34	2441.18
796.52	2473.95
796.69	2574.30
796.87	2551.77
797.04	2566.10
797.22	2623.45
797.39	2496.47
797.57	2533.34
797.74	2508.76
797.92	2494.43
798.09	2342.88
798.27	2637.78
798.44	2445.27
798.62	2361.31
798.79	2482.14
798.96	2457.56
799.14	2392.03
799.31	2856.92
799.49	2488.28
799.66	2357.21
799.84	2555.86
800.01	2349.02
800.19	2570.20
800.36	2332.64
800.53	2400.22
800.71	2568.15
800.88	2699.22
801.06	2371.55
801.23	2441.18
801.41	2441.18
801.58	2422.75
801.75	2383.84
801.93	2463.71
802.10	2596.82
802.28	2488.28
802.45	2351.07
802.63	2547.67
802.80	2578.39
802.97	2490.33
803.15	2463.71
803.32	2408.41
803.50	2357.21
803.67	2334.68
803.84	2363.36
804.02	2510.81
804.19	2351.07
804.37	2250.72
804.54	2381.79
804.71	2420.70
804.89	2527.19
805.06	2359.26
805.24	2400.22
805.41	2340.83
805.58	2461.66
805.76	2797.53
805.93	2408.41
806.10	2625.50
806.28	2551.77
806.45	2420.70
806.63	2506.71
806.80	2389.98
806.97	2480.09
807.15	2463.71
807.32	2506.71
807.49	2396.12
807.67	2340.83
807.84	2543.58
808.01	2310.11
808.19	2641.88
808.36	2746.33
808.54	2457.56
808.71	2404.32
808.88	2496.47
809.06	2623.45
809.23	2766.81
809.40	2416.60
809.58	2473.95
809.75	2435.03
809.92	2377.69
810.10	2668.50
810.27	2461.66
810.44	2537.43
810.62	2553.82
810.79	2527.19
810.96	2414.56
811.14	2451.42
811.31	2449.37
811.48	2506.71
811.66	2500.57
811.83	2584.54
812.00	2510.81
812.18	2578.39
812.35	2695.13
812.52	2469.85
812.69	2387.93
812.87	2406.36
813.04	2359.26
813.21	2437.08
813.39	2428.89
813.56	2332.64
813.73	2639.83
813.91	2250.72
814.08	2469.85
814.25	2441.18
814.42	2306.01
814.60	2379.74
814.77	2441.18
814.94	2502.62
815.12	2449.37
815.29	2566.10
815.46	2482.14
815.63	2498.52
815.81	2488.28
815.98	2428.89
816.15	2478.04
816.33	2441.18
816.50	2392.03
816.67	2412.51
816.84	2445.27
817.02	2285.53
817.19	2420.70
817.36	2510.81
817.53	2551.77
817.71	2342.88
817.88	2533.34
818.05	2449.37
818.22	2449.37
818.40	2596.82
818.57	2432.99
818.74	2516.95
818.91	2486.23
819.09	2527.19
819.26	2555.86
819.43	2353.12
819.60	2426.84
819.78	2461.66
819.95	2625.50
820.12	2316.25
820.29	2650.07
820.47	2600.92
820.64	2342.88
820.81	2338.78
820.98	2383.84
821.15	2430.94
821.33	2527.19
821.50	2338.78
821.67	2498.52
821.84	2387.93
822.02	2469.85
822.19	2615.26
822.36	2443.23
822.53	2389.98
822.70	2353.12
822.88	2480.09
823.05	2699.22
823.22	2408.41
823.39	2392.03
823.56	2410.46
823.74	2760.66
823.91	2357.21
824.08	2371.55
824.25	2340.83
824.42	2711.51
824.60	2293.72
824.77	2471.90
824.94	2496.47
825.11	2555.86
825.28	2320.35
825.45	2441.18
825.63	2510.81
825.80	2371.55
825.97	2553.82
826.14	2439.13
826.31	2285.53
826.48	2580.44
826.66	2330.59
826.83	2371.55
827.00	2414.56
827.17	2447.32
827.34	2351.07
827.51	2367.45
827.69	2416.60
827.86	2230.24
828.03	2490.33
828.20	2432.99
828.37	2398.17
828.54	2498.52
828.71	2383.84
828.89	2527.19
829.06	2473.95
829.23	2672.60
829.40	2365.40
829.57	2377.69
829.74	2539.48
829.91	2430.94
830.09	2383.84
830.26	2570.20
830.43	2605.02
830.60	2475.99
830.77	2461.66
830.94	2596.82
831.11	2609.11
831.28	2457.56
831.46	2527.19
831.63	2336.73
831.80	2572.25
831.97	2359.26
832.14	2365.40
832.31	2514.91
832.48	2553.82
832.65	2578.39
832.82	2492.38
832.99	2484.19
833.17	2437.08
833.34	2674.65
833.51	2426.84
833.68	2152.42
833.85	2598.87
834.02	2371.55
834.19	2346.97
834.36	2383.84
834.53	2469.85
834.70	2617.30
834.87	2545.63
835.04	2326.49
835.22	2383.84
835.39	2408.41
835.56	2314.20
835.73	2361.31
835.90	2672.60
836.07	2400.22
836.24	2480.09
836.41	2310.11
836.58	2383.84
836.75	2555.86
836.92	2471.90
837.09	2422.75
837.26	2529.24
837.43	2529.24
837.60	2379.74
837.77	2265.05
837.94	2529.24
838.12	2600.92
838.29	2385.88
838.46	2285.53
838.63	2371.55
838.80	2678.74
838.97	2449.37
839.14	2402.27
839.31	2424.80
839.48	2578.39
839.65	2473.95
839.82	2453.47
839.99	2457.56
840.16	2541.53
840.33	2359.26
840.50	2465.75
840.67	2310.11
840.84	2248.67
841.01	2412.51
841.18	2326.49
841.35	2455.51
841.52	2574.30
841.69	2713.56
841.86	2457.56
842.03	2525.15
842.20	2617.30
842.37	2396.12
842.54	2359.26
842.71	2451.42
842.88	2291.68
843.05	2424.80
843.22	2432.99
843.39	2611.16
843.56	2336.73
843.73	2469.85
843.90	2404.32
844.07	2519.00
844.24	2553.82
844.41	2418.65
844.58	2453.47
844.75	2512.86
844.92	2521.05
845.09	2312.16
845.26	2398.17
845.43	2590.68
845.60	2349.02
845.77	2519.00
845.94	2389.98
846.10	2576.34
846.27	2252.77
846.44	2392.03
846.61	2349.02
846.78	2478.04
846.95	2555.86
847.12	2340.83
847.29	2418.65
847.46	2398.17
847.63	2621.40
847.80	2322.40
847.97	2396.12
848.14	2789.33
848.31	2469.85
848.48	2285.53
848.65	2400.22
848.82	2461.66
848.98	2758.61
849.15	2426.84
849.32	2543.58
849.49	2564.06
849.66	2486.23
849.83	2373.60
850.00	2353.12
850.17	2535.39
850.34	2412.51
850.51	2293.72
850.68	2320.35
850.85	2758.61
851.01	2516.95
851.18	2369.50
851.35	2410.46
851.52	2473.95
851.69	2703.32
851.86	2250.72
852.03	2398.17
852.20	2519.00
852.37	2473.95
852.53	2252.77
852.70	2383.84
852.87	2469.85
853.04	2572.25
853.21	2326.49
853.38	2521.05
853.55	2611.16
853.72	2623.45
853.89	2326.49
854.05	2392.03
854.22	2392.03
854.39	2439.13
854.56	2400.22
854.73	2559.96
854.90	2363.36
855.07	2465.75
855.23	2334.68
855.40	2359.26
855.57	2432.99
855.74	2291.68
855.91	2572.25
856.08	2258.91
856.25	2258.91
856.41	2336.73
856.58	2351.07
856.75	2414.56
856.92	2353.12
857.09	2633.69
857.26	2293.72
857.42	2430.94
857.59	2641.88
857.76	2525.15
857.93	2424.80
858.10	2408.41
858.27	2297.82
858.43	2475.99
858.60	2357.21
858.77	2226.14
858.94	2381.79
859.11	2621.40
859.27	2473.95
859.44	2363.36
859.61	2676.70
859.78	2572.25
859.95	2441.18
860.12	2400.22
860.28	2650.07
860.45	2668.50
860.62	2279.39
860.79	2424.80
860.95	2463.71
861.12	2385.88
861.29	2312.16
861.46	2291.68
861.63	2435.03
861.79	2473.95
861.96	2310.11
862.13	2357.21
862.30	2574.30
862.47	2424.80
862.63	2342.88
862.80	2383.84
862.97	2580.44
863.14	2490.33
863.30	2371.55
863.47	2269.15
863.64	2631.64
863.81	2521.05
863.97	2351.07
864.14	2410.46
864.31	2406.36
864.48	2432.99
864.65	2406.36
864.81	2435.03
864.98	2584.54
865.15	2576.34
865.32	2486.23
865.48	2519.00
865.65	2643.93
865.82	2392.03
865.98	2473.95
866.15	2475.99
866.32	2412.51
866.49	2461.66
866.65	2521.05
866.82	2349.02
866.99	2465.75
867.16	2371.55
867.32	2392.03
867.49	2316.25
867.66	2412.51
867.83	2351.07
867.99	2320.35
868.16	2416.60
868.33	2316.25
868.49	2490.33
868.66	2244.57
868.83	2510.81
868.99	2443.23
869.16	2398.17
869.33	2490.33
869.50	2422.75
869.66	2531.29
869.83	2424.80
870.00	2342.88
870.16	2461.66
870.33	2363.36
870.50	2598.87
870.66	2432.99
870.83	2551.77
871.00	2428.89
871.17	2527.19
871.33	2465.75
871.50	2383.84
871.67	2519.00
871.83	2418.65
872.00	2461.66
872.17	2387.93
872.33	2668.50
872.50	2652.12
872.67	2418.65
872.83	2355.16
873.00	2478.04
873.17	2465.75
873.33	2430.94
873.50	2451.42
873.67	2357.21
873.83	2375.64
874.00	2344.92
874.16	2537.43
874.33	2455.51
874.50	2334.68
874.66	2432.99
874.83	2463.71
875.00	2609.11
875.16	2609.11
875.33	2486.23
875.50	2123.74
875.66	2457.56
875.83	2545.63
875.99	2437.08
876.16	2453.47
876.33	2349.02
876.49	2457.56
876.66	2465.75
876.83	2342.88
876.99	2326.49
877.16	2529.24
877.32	2441.18
877.49	2375.64
877.66	2539.48
877.82	2617.30
877.99	2482.14
878.15	2498.52
878.32	2547.67
878.49	2547.67
878.65	2430.94
878.82	2564.06
878.98	2439.13
879.15	2609.11
879.32	2480.09
879.48	2455.51
879.65	2473.95
879.81	2535.39
879.98	2334.68
880.15	2353.12
880.31	2525.15
880.48	2375.64
880.64	2492.38
880.81	2400.22
880.97	2594.78
881.14	2611.16
881.31	2293.72
881.47	2539.48
881.64	2482.14
881.80	2310.11
881.97	2437.08
882.13	2396.12
882.30	2334.68
882.47	2475.99
882.63	2363.36
882.80	2346.97
882.96	2416.60
883.13	2637.78
883.29	2414.56
883.46	2387.93
883.62	2707.41
883.79	2475.99
883.95	2506.71
884.12	2469.85
884.29	2562.01
884.45	2432.99
884.62	2398.17
884.78	2320.35
884.95	2658.26
885.11	2412.51
885.28	2482.14
885.44	2430.94
885.61	2512.86
885.77	2672.60
885.94	2490.33
886.10	2416.60
886.27	2496.47
886.43	2660.31
886.60	2551.77
886.76	2359.26
886.93	2387.93
887.09	2502.62
887.26	2267.10
887.42	2492.38
887.59	2625.50
887.75	2744.28
887.92	2506.71
888.08	2516.95
888.25	2711.51
888.41	2574.30
888.58	2381.79
888.74	2396.12
888.91	2416.60
>>>>>End Processed Spectral Data<<<<<
