SpectraSuite Data File
++++++++++++++++++++++++++++++++++++
Date: Thu May 05 14:42:05 CEST 2016
User: root
Dark Spectrum Present: No
Reference Spectrum Present: No
Number of Sampled Component Spectra: 1
Spectrometers: USB4C02835
Integration Time (usec): 100000 (USB4C02835)
Spectra Averaged: 1 (USB4C02835)
Boxcar Smoothing: 0 (USB4C02835)
Correct for Electrical Dark: No (USB4C02835)
Strobe/Lamp Enabled: No (USB4C02835)
Correct for Detector Non-linearity: No (USB4C02835)
Correct for Stray Light: No (USB4C02835)
Number of Pixels in Processed Spectrum: 3648
>>>>>Begin Processed Spectral Data<<<<<
177.47	1941.47
177.69	1941.47
177.91	1941.47
178.13	1941.47
178.36	1937.38
178.58	2398.17
178.80	2504.67
179.02	2322.40
179.24	2314.20
179.46	2314.20
179.68	2398.17
179.90	2457.56
180.13	2512.86
180.35	2258.91
180.57	2330.59
180.79	2557.91
181.01	2439.13
181.23	2363.36
181.45	2496.47
181.67	2516.95
181.90	2498.52
182.12	2385.88
182.34	2193.37
182.56	2596.82
182.78	2531.29
183.00	2326.49
183.22	2392.03
183.44	2271.20
183.66	2779.09
183.89	2416.60
184.11	2346.97
184.33	2539.48
184.55	2596.82
184.77	2361.31
184.99	2322.40
185.21	2422.75
185.43	2840.53
185.65	2367.45
185.87	2318.30
186.10	2768.85
186.32	2752.47
186.54	2463.71
186.76	2389.98
186.98	2611.16
187.20	2437.08
187.42	2265.05
187.64	2306.01
187.86	2488.28
188.08	2580.44
188.30	2326.49
188.52	2314.20
188.75	2731.99
188.97	2615.26
189.19	2326.49
189.41	2318.30
189.63	2523.10
189.85	2424.80
190.07	2226.14
190.29	2209.76
190.51	2553.82
190.73	2252.77
190.95	2490.33
191.17	2371.55
191.39	2359.26
191.61	2412.51
191.84	2396.12
192.06	2326.49
192.28	2273.25
192.50	2889.68
192.72	2514.91
192.94	2379.74
193.16	2578.39
193.38	2482.14
193.60	2252.77
193.82	2402.27
194.04	2625.50
194.26	2553.82
194.48	2410.46
194.70	2326.49
194.92	2432.99
195.14	2588.63
195.36	2310.11
195.58	2320.35
195.80	2480.09
196.02	2426.84
196.24	2326.49
196.46	2457.56
196.69	2373.60
196.91	2826.20
197.13	2375.64
197.35	2351.07
197.57	2529.24
197.79	2627.54
198.01	2475.99
198.23	2340.83
198.45	2654.17
198.67	2410.46
198.89	2191.33
199.11	2385.88
199.33	2320.35
199.55	2281.44
199.77	2271.20
199.99	2463.71
200.21	2471.90
200.43	2486.23
200.65	2269.15
200.87	2236.38
201.09	2480.09
201.31	2453.47
201.53	2439.13
201.75	2521.05
201.97	2543.58
202.19	2531.29
202.41	2353.12
202.63	2537.43
202.85	2584.54
203.07	2506.71
203.29	2338.78
203.51	2242.53
203.73	2408.41
203.95	2805.72
204.17	2400.22
204.39	2439.13
204.61	2465.75
204.83	2437.08
205.05	2424.80
205.27	2392.03
205.49	2758.61
205.71	2500.57
205.93	2228.19
206.15	2326.49
206.37	2547.67
206.59	2473.95
206.81	2293.72
207.03	2267.10
207.25	2336.73
207.47	2551.77
207.69	2355.16
207.91	2559.96
208.13	2701.27
208.34	2418.65
208.56	2334.68
208.78	2422.75
209.00	2457.56
209.22	2455.51
209.44	2338.78
209.66	2322.40
209.88	2455.51
210.10	2406.36
210.32	2365.40
210.54	2482.14
210.76	2490.33
210.98	2654.17
211.20	2183.13
211.42	2430.94
211.64	2645.98
211.86	2510.81
212.08	2400.22
212.30	2367.45
212.52	2478.04
212.74	2490.33
212.96	2389.98
213.17	2383.84
213.39	2564.06
213.61	2684.89
213.83	2269.15
214.05	2455.51
214.27	2668.50
214.49	2293.72
214.71	2299.87
214.93	2459.61
215.15	2514.91
215.37	2596.82
215.59	2242.53
215.81	2486.23
216.03	2734.04
216.24	2492.38
216.46	2340.83
216.68	2363.36
216.90	2613.21
217.12	2531.29
217.34	2314.20
217.56	2471.90
217.78	2676.70
218.00	2596.82
218.22	2400.22
218.44	2377.69
218.66	2453.47
218.87	2731.99
219.09	2330.59
219.31	2392.03
219.53	2510.81
219.75	2412.51
219.97	2346.97
220.19	2324.44
220.41	2465.75
220.63	2621.40
220.85	2367.45
221.06	2404.32
221.28	2660.31
221.50	2547.67
221.72	2349.02
221.94	2209.76
222.16	2506.71
222.38	2631.64
222.60	2406.36
222.82	2322.40
223.03	2537.43
223.25	2392.03
223.47	2400.22
223.69	2545.63
223.91	2506.71
224.13	2400.22
224.35	2250.72
224.57	2467.80
224.78	2549.72
225.00	2398.17
225.22	2418.65
225.44	2349.02
225.66	2592.73
225.88	2408.41
226.10	2430.94
226.32	2410.46
226.53	2666.46
226.75	2443.23
226.97	2367.45
227.19	2326.49
227.41	2408.41
227.63	2414.56
227.85	2187.23
228.06	2416.60
228.28	2514.91
228.50	2584.54
228.72	2285.53
228.94	2332.64
229.16	2346.97
229.37	2355.16
229.59	2351.07
229.81	2525.15
230.03	2432.99
230.25	2351.07
230.47	2195.42
230.69	2285.53
230.90	2643.93
231.12	2424.80
231.34	2389.98
231.56	2418.65
231.78	2289.63
232.00	2453.47
232.21	2383.84
232.43	2396.12
232.65	2199.52
232.87	2508.76
233.09	2359.26
233.30	2297.82
233.52	2592.73
233.74	2430.94
233.96	2316.25
234.18	2424.80
234.40	2465.75
234.61	2740.18
234.83	2353.12
235.05	2283.49
235.27	2748.37
235.49	2611.16
235.70	2287.58
235.92	2394.08
236.14	2551.77
236.36	2744.28
236.58	2256.86
236.79	2475.99
237.01	2512.86
237.23	2469.85
237.45	2541.53
237.67	2326.49
237.88	2568.15
238.10	2703.32
238.32	2301.92
238.54	2310.11
238.76	2443.23
238.97	2383.84
239.19	2269.15
239.41	2400.22
239.63	2557.91
239.85	2353.12
240.06	2351.07
240.28	2248.67
240.50	2545.63
240.72	2439.13
240.93	2377.69
241.15	2445.27
241.37	2555.86
241.59	2678.74
241.81	2400.22
242.02	2418.65
242.24	2521.05
242.46	2545.63
242.68	2238.43
242.89	2285.53
243.11	2625.50
243.33	2490.33
243.55	2381.79
243.76	2406.36
243.98	2381.79
244.20	2519.00
244.42	2412.51
244.64	2430.94
244.85	2306.01
245.07	2471.90
245.29	2392.03
245.51	2408.41
245.72	2547.67
245.94	2605.02
246.16	2371.55
246.38	2432.99
246.59	2383.84
246.81	2439.13
247.03	2330.59
247.24	2260.96
247.46	2473.95
247.68	2494.43
247.90	2220.00
248.11	2355.16
248.33	2568.15
248.55	2498.52
248.77	2428.89
248.98	2430.94
249.20	2795.48
249.42	2447.32
249.64	2412.51
249.85	2363.36
250.07	2449.37
250.29	2586.58
250.50	2375.64
250.72	2287.58
250.94	2498.52
251.16	2758.61
251.37	2359.26
251.59	2414.56
251.81	2537.43
252.02	2637.78
252.24	2281.44
252.46	2463.71
252.68	2361.31
252.89	2461.66
253.11	2244.57
253.33	2398.17
253.54	2629.59
253.76	2332.64
253.98	2363.36
254.20	2199.52
254.41	2340.83
254.63	2408.41
254.85	2220.00
255.06	2412.51
255.28	2510.81
255.50	2428.89
255.71	2328.54
255.93	2260.96
256.15	2383.84
256.36	2543.58
256.58	2324.44
256.80	2383.84
257.02	2430.94
257.23	2424.80
257.45	2383.84
257.67	2396.12
257.88	2482.14
258.10	2480.09
258.32	2324.44
258.53	2437.08
258.75	2654.17
258.97	2357.21
259.18	2338.78
259.40	2299.87
259.62	2654.17
259.83	2582.49
260.05	2422.75
260.27	2951.12
260.48	2592.73
260.70	2332.64
260.92	2242.53
261.13	2340.83
261.35	2473.95
261.57	2494.43
261.78	2209.76
262.00	2230.24
262.22	2490.33
262.43	2377.69
262.65	2367.45
262.86	2361.31
263.08	2830.29
263.30	2533.34
263.51	2189.28
263.73	2310.11
263.95	2682.84
264.16	2353.12
264.38	2285.53
264.60	2297.82
264.81	2473.95
265.03	2660.31
265.25	2506.71
265.46	2301.92
265.68	2711.51
265.89	2510.81
266.11	2226.14
266.33	2367.45
266.54	2631.64
266.76	2568.15
266.98	2351.07
267.19	2498.52
267.41	2609.11
267.62	2523.10
267.84	2162.66
268.06	2357.21
268.27	2469.85
268.49	2586.58
268.70	2398.17
268.92	2344.92
269.14	2373.60
269.35	2324.44
269.57	2334.68
269.79	2389.98
270.00	2426.84
270.22	2639.83
270.43	2326.49
270.65	2174.94
270.87	2541.53
271.08	2600.92
271.30	2398.17
271.51	2355.16
271.73	2541.53
271.95	2609.11
272.16	2283.49
272.38	2353.12
272.59	2473.95
272.81	2641.88
273.02	2373.60
273.24	2373.60
273.46	2596.82
273.67	2324.44
273.89	2256.86
274.10	2342.88
274.32	2633.69
274.54	2494.43
274.75	2412.51
274.97	2387.93
275.18	2545.63
275.40	2545.63
275.61	2387.93
275.83	2402.27
276.05	2453.47
276.26	2463.71
276.48	2359.26
276.69	2443.23
276.91	2418.65
277.12	2682.84
277.34	2475.99
277.55	2514.91
277.77	2506.71
277.99	2424.80
278.20	2320.35
278.42	2250.72
278.63	2400.22
278.85	2400.22
279.06	2308.06
279.28	2475.99
279.49	2658.26
279.71	2572.25
279.93	2445.27
280.14	2465.75
280.36	2473.95
280.57	2619.35
280.79	2547.67
281.00	2330.59
281.22	2463.71
281.43	2519.00
281.65	2228.19
281.86	2326.49
282.08	2482.14
282.29	2734.04
282.51	2281.44
282.73	2316.25
282.94	2301.92
283.16	2535.39
283.37	2547.67
283.59	2408.41
283.80	2523.10
284.02	2539.48
284.23	2455.51
284.45	2295.77
284.66	2410.46
284.88	2342.88
285.09	2406.36
285.31	2502.62
285.52	2471.90
285.74	2414.56
285.95	2512.86
286.17	2482.14
286.38	2645.98
286.60	2439.13
286.81	2369.50
287.03	2432.99
287.24	2457.56
287.46	2480.09
287.67	2404.32
287.89	2635.74
288.10	2502.62
288.32	2488.28
288.53	2619.35
288.75	2449.37
288.96	2541.53
289.18	2408.41
289.39	2389.98
289.61	2572.25
289.82	2707.41
290.04	2762.71
290.25	2328.54
290.47	2404.32
290.68	2437.08
290.90	2631.64
291.11	2248.67
291.33	2543.58
291.54	2365.40
291.76	2383.84
291.97	2463.71
292.18	2527.19
292.40	2412.51
292.61	2392.03
292.83	2645.98
293.04	2353.12
293.26	2521.05
293.47	2447.32
293.69	2291.68
293.90	2338.78
294.12	2611.16
294.33	2482.14
294.55	2465.75
294.76	2580.44
294.97	2693.08
295.19	2901.97
295.40	2353.12
295.62	2445.27
295.83	2555.86
296.05	2422.75
296.26	2611.16
296.48	2398.17
296.69	2465.75
296.90	2494.43
297.12	2562.01
297.33	2580.44
297.55	2527.19
297.76	2508.76
297.98	2529.24
298.19	2531.29
298.41	2455.51
298.62	2420.70
298.83	2652.12
299.05	2426.84
299.26	2459.61
299.48	2414.56
299.69	2465.75
299.90	2412.51
300.12	2412.51
300.33	2529.24
300.55	2404.32
300.76	2439.13
300.98	2365.40
301.19	2512.86
301.40	2359.26
301.62	2379.74
301.83	2537.43
302.05	2484.19
302.26	2430.94
302.47	2504.67
302.69	2365.40
302.90	2516.95
303.12	2197.47
303.33	2432.99
303.54	2760.66
303.76	2441.18
303.97	2473.95
304.19	2643.93
304.40	2351.07
304.61	2506.71
304.83	2549.72
305.04	2490.33
305.26	2568.15
305.47	2455.51
305.68	2367.45
305.90	2326.49
306.11	2615.26
306.33	2457.56
306.54	2318.30
306.75	2439.13
306.97	2297.82
307.18	2281.44
307.39	2416.60
307.61	2523.10
307.82	2420.70
308.04	2496.47
308.25	2357.21
308.46	2461.66
308.68	2523.10
308.89	2383.84
309.10	2549.72
309.32	2432.99
309.53	2480.09
309.74	2588.63
309.96	2392.03
310.17	2529.24
310.39	2392.03
310.60	2586.58
310.81	2381.79
311.03	2351.07
311.24	2613.21
311.45	2424.80
311.67	2678.74
311.88	2465.75
312.09	2506.71
312.31	2338.78
312.52	2326.49
312.73	2346.97
312.95	2297.82
313.16	2371.55
313.37	2480.09
313.59	2529.24
313.80	2535.39
314.01	2727.89
314.23	2392.03
314.44	2295.77
314.65	2338.78
314.87	2379.74
315.08	2404.32
315.29	2416.60
315.51	2400.22
315.72	2349.02
315.93	2496.47
316.15	2555.86
316.36	2510.81
316.57	2502.62
316.79	2482.14
317.00	2375.64
317.21	2555.86
317.43	2435.03
317.64	2539.48
317.85	2334.68
318.07	2430.94
318.28	2475.99
318.49	2500.57
318.70	2703.32
318.92	2613.21
319.13	2666.46
319.34	2619.35
319.56	2502.62
319.77	2584.54
319.98	2645.98
320.20	2531.29
320.41	2545.63
320.62	2514.91
320.83	2365.40
321.05	2574.30
321.26	2480.09
321.47	2463.71
321.69	2672.60
321.90	2269.15
322.11	2408.41
322.32	2500.57
322.54	2629.59
322.75	2424.80
322.96	2871.25
323.18	2285.53
323.39	2330.59
323.60	2334.68
323.81	2525.15
324.03	2416.60
324.24	2465.75
324.45	2508.76
324.66	2387.93
324.88	2633.69
325.09	2680.79
325.30	2424.80
325.52	2447.32
325.73	2437.08
325.94	2299.87
326.15	2293.72
326.37	2324.44
326.58	2566.10
326.79	2680.79
327.00	2318.30
327.22	2424.80
327.43	2455.51
327.64	2346.97
327.85	2473.95
328.07	2506.71
328.28	2748.37
328.49	2471.90
328.70	2406.36
328.92	2439.13
329.13	2453.47
329.34	2539.48
329.55	2555.86
329.76	2506.71
329.98	2430.94
330.19	2666.46
330.40	2568.15
330.61	2471.90
330.83	2543.58
331.04	2373.60
331.25	2488.28
331.46	2461.66
331.68	2336.73
331.89	2645.98
332.10	2451.42
332.31	2346.97
332.52	2428.89
332.74	2584.54
332.95	2195.42
333.16	2332.64
333.37	2578.39
333.58	2422.75
333.80	2432.99
334.01	2224.09
334.22	2432.99
334.43	2420.70
334.64	2346.97
334.86	2359.26
335.07	2355.16
335.28	2635.74
335.49	2340.83
335.70	2408.41
335.92	2750.42
336.13	2781.14
336.34	2486.23
336.55	2410.46
336.76	2539.48
336.98	2232.29
337.19	2430.94
337.40	2490.33
337.61	2750.42
337.82	2447.32
338.04	2428.89
338.25	2267.10
338.46	2492.38
338.67	2459.61
338.88	2422.75
339.09	2334.68
339.31	2402.27
339.52	2301.92
339.73	2281.44
339.94	2445.27
340.15	2508.76
340.36	2412.51
340.58	2428.89
340.79	2342.88
341.00	2559.96
341.21	2293.72
341.42	2559.96
341.63	2432.99
341.85	2580.44
342.06	2437.08
342.27	2449.37
342.48	2541.53
342.69	2342.88
342.90	2508.76
343.12	2547.67
343.33	2334.68
343.54	2611.16
343.75	2596.82
343.96	2447.32
344.17	2359.26
344.38	2381.79
344.60	2432.99
344.81	2308.06
345.02	2406.36
345.23	2660.31
345.44	2775.00
345.65	2510.81
345.86	2498.52
346.07	2562.01
346.29	2426.84
346.50	2463.71
346.71	2519.00
346.92	2660.31
347.13	2805.72
347.34	2506.71
347.55	2355.16
347.76	2514.91
347.98	2269.15
348.19	2412.51
348.40	2527.19
348.61	2490.33
348.82	2678.74
349.03	2514.91
349.24	2316.25
349.45	2787.29
349.66	2269.15
349.88	2445.27
350.09	2351.07
350.30	2711.51
350.51	2676.70
350.72	2523.10
350.93	2484.19
351.14	2412.51
351.35	2553.82
351.56	2443.23
351.77	2467.80
351.99	2543.58
352.20	2695.13
352.41	2566.10
352.62	2256.86
352.83	2412.51
353.04	2428.89
353.25	2389.98
353.46	2512.86
353.67	2633.69
353.88	2260.96
354.09	2414.56
354.30	2482.14
354.52	2521.05
354.73	2519.00
354.94	2381.79
355.15	2387.93
355.36	2781.14
355.57	2467.80
355.78	2359.26
355.99	2383.84
356.20	2471.90
356.41	2592.73
356.62	2514.91
356.83	2441.18
357.04	2619.35
357.25	2310.11
357.46	2387.93
357.68	2318.30
357.89	2447.32
358.10	2478.04
358.31	2451.42
358.52	2361.31
358.73	2318.30
358.94	2314.20
359.15	2367.45
359.36	2525.15
359.57	2521.05
359.78	2445.27
359.99	2496.47
360.20	2316.25
360.41	2457.56
360.62	2535.39
360.83	2502.62
361.04	2432.99
361.25	2529.24
361.46	2740.18
361.67	2535.39
361.88	2416.60
362.09	2580.44
362.30	2516.95
362.51	2383.84
362.72	2453.47
362.93	2506.71
363.14	2500.57
363.35	2523.10
363.56	2408.41
363.78	2594.78
363.99	2566.10
364.20	2351.07
364.41	2455.51
364.62	2680.79
364.83	2469.85
365.04	2457.56
365.25	2461.66
365.46	2777.05
365.67	2367.45
365.88	2498.52
366.09	2422.75
366.30	2416.60
366.51	2512.86
366.72	2289.63
366.93	2326.49
367.14	2588.63
367.35	2562.01
367.56	2441.18
367.77	2527.19
367.98	2488.28
368.18	2543.58
368.39	2539.48
368.60	2265.05
368.81	2553.82
369.02	2519.00
369.23	2428.89
369.44	2314.20
369.65	2385.88
369.86	2555.86
370.07	2570.20
370.28	2375.64
370.49	2596.82
370.70	2574.30
370.91	2326.49
371.12	2275.29
371.33	2623.45
371.54	2346.97
371.75	2547.67
371.96	2211.81
372.17	2484.19
372.38	2502.62
372.59	2447.32
372.80	2428.89
373.01	2404.32
373.22	2578.39
373.43	2465.75
373.64	2324.44
373.85	2666.46
374.06	2756.57
374.26	2498.52
374.47	2488.28
374.68	2578.39
374.89	2557.91
375.10	2430.94
375.31	2488.28
375.52	2512.86
375.73	2523.10
375.94	2353.12
376.15	2555.86
376.36	2392.03
376.57	2392.03
376.78	2449.37
376.99	2451.42
377.20	2602.97
377.40	2451.42
377.61	2678.74
377.82	2349.02
378.03	2670.55
378.24	2570.20
378.45	2443.23
378.66	2533.34
378.87	2242.53
379.08	2349.02
379.29	2422.75
379.50	2512.86
379.71	2396.12
379.91	2641.88
380.12	2351.07
380.33	2480.09
380.54	2422.75
380.75	2455.51
380.96	2424.80
381.17	2428.89
381.38	2523.10
381.59	2457.56
381.80	2490.33
382.00	2715.61
382.21	2594.78
382.42	2752.47
382.63	2686.94
382.84	2527.19
383.05	2686.94
383.26	2682.84
383.47	2519.00
383.68	2502.62
383.88	2441.18
384.09	2551.77
384.30	2643.93
384.51	2457.56
384.72	2408.41
384.93	2367.45
385.14	2459.61
385.35	2514.91
385.55	2277.34
385.76	2504.67
385.97	2414.56
386.18	2258.91
386.39	2381.79
386.60	2449.37
386.81	2463.71
387.02	2389.98
387.22	2369.50
387.43	2625.50
387.64	2547.67
387.85	2711.51
388.06	2699.22
388.27	4061.12
388.48	8363.90
388.68	12191.56
388.89	14694.18
389.10	15802.13
389.31	14624.54
389.52	11579.22
389.73	10116.97
389.93	9060.21
390.14	8277.89
390.35	7380.88
390.56	6741.91
390.77	5521.32
390.98	4214.72
391.18	3430.35
391.39	2965.46
391.60	2613.21
391.81	2590.68
392.02	2465.75
392.23	2764.76
392.43	2582.49
392.64	2596.82
392.85	2467.80
393.06	2707.41
393.27	2451.42
393.47	2359.26
393.68	2437.08
393.89	2371.55
394.10	2695.13
394.31	2369.50
394.52	2371.55
394.72	2330.59
394.93	2695.13
395.14	2326.49
395.35	2512.86
395.56	2430.94
395.76	2490.33
395.97	2455.51
396.18	2629.59
396.39	2580.44
396.60	2994.13
396.80	2807.77
397.01	2613.21
397.22	2660.31
397.43	2584.54
397.64	2445.27
397.84	2506.71
398.05	2777.05
398.26	2570.20
398.47	2537.43
398.67	2635.74
398.88	2469.85
399.09	2502.62
399.30	2367.45
399.51	2465.75
399.71	2357.21
399.92	2486.23
400.13	2461.66
400.34	2410.46
400.54	2484.19
400.75	2641.88
400.96	2457.56
401.17	2699.22
401.37	2535.39
401.58	2439.13
401.79	2387.93
402.00	2576.34
402.21	2799.57
402.41	2779.09
402.62	2840.53
402.83	2953.17
403.04	2920.40
403.24	3063.76
403.45	2588.63
403.66	2684.89
403.87	2715.61
404.07	2826.20
404.28	2766.81
404.49	2711.51
404.70	2551.77
404.90	2605.02
405.11	2430.94
405.32	2463.71
405.52	2428.89
405.73	2453.47
405.94	2404.32
406.15	2437.08
406.35	2564.06
406.56	2639.83
406.77	2504.67
406.98	2463.71
407.18	2443.23
407.39	2686.94
407.60	2449.37
407.80	2539.48
408.01	2463.71
408.22	2510.81
408.43	2263.01
408.63	2482.14
408.84	2627.54
409.05	2594.78
409.25	2400.22
409.46	2334.68
409.67	2490.33
409.88	2449.37
410.08	2465.75
410.29	2430.94
410.50	2596.82
410.70	2502.62
410.91	2400.22
411.12	2562.01
411.32	2506.71
411.53	2439.13
411.74	2611.16
411.95	2598.87
412.15	2598.87
412.36	2576.34
412.57	2586.58
412.77	2629.59
412.98	2473.95
413.19	2404.32
413.39	2443.23
413.60	2535.39
413.81	2686.94
414.01	2432.99
414.22	2514.91
414.43	2492.38
414.63	2432.99
414.84	2658.26
415.05	2484.19
415.25	2334.68
415.46	2482.14
415.67	2422.75
415.87	2473.95
416.08	2484.19
416.29	2351.07
416.49	2557.91
416.70	2500.57
416.91	2441.18
417.11	2498.52
417.32	2682.84
417.53	2543.58
417.73	2463.71
417.94	2471.90
418.15	2527.19
418.35	2471.90
418.56	2449.37
418.77	2820.05
418.97	2494.43
419.18	2441.18
419.38	2207.71
419.59	2543.58
419.80	2672.60
420.00	2398.17
420.21	2416.60
420.42	2666.46
420.62	2525.15
420.83	2377.69
421.04	2439.13
421.24	2441.18
421.45	2557.91
421.65	2488.28
421.86	2439.13
422.07	2529.24
422.27	2557.91
422.48	2469.85
422.69	2406.36
422.89	2449.37
423.10	2422.75
423.30	2330.59
423.51	2506.71
423.72	2531.29
423.92	2586.58
424.13	2271.20
424.33	2437.08
424.54	2572.25
424.75	2506.71
424.95	2668.50
425.16	2398.17
425.36	2473.95
425.57	2609.11
425.78	2498.52
425.98	2592.73
426.19	2445.27
426.39	2375.64
426.60	2482.14
426.81	2613.21
427.01	2504.67
427.22	2406.36
427.42	2283.49
427.63	2396.12
427.83	2584.54
428.04	2613.21
428.25	2559.96
428.45	2576.34
428.66	2605.02
428.86	2492.38
429.07	2443.23
429.28	2406.36
429.48	2363.36
429.69	2375.64
429.89	2533.34
430.10	2389.98
430.30	2607.06
430.51	2582.49
430.71	2336.73
430.92	2478.04
431.13	2475.99
431.33	2547.67
431.54	2551.77
431.74	2633.69
431.95	2738.13
432.15	2269.15
432.36	2426.84
432.56	2539.48
432.77	2725.85
432.98	2666.46
433.18	2490.33
433.39	2355.16
433.59	2400.22
433.80	2736.09
434.00	2678.74
434.21	2428.89
434.41	2361.31
434.62	2772.95
434.82	2379.74
435.03	2332.64
435.23	2605.02
435.44	2265.05
435.64	2424.80
435.85	2486.23
436.06	2580.44
436.26	2576.34
436.47	2521.05
436.67	2371.55
436.88	2488.28
437.08	2562.01
437.29	2588.63
437.49	2498.52
437.70	2658.26
437.90	2516.95
438.11	2654.17
438.31	2570.20
438.52	2650.07
438.72	2676.70
438.93	2783.19
439.13	2469.85
439.34	2623.45
439.54	2529.24
439.75	2576.34
439.95	2539.48
440.16	2424.80
440.36	2469.85
440.57	2475.99
440.77	2490.33
440.98	2453.47
441.18	2605.02
441.39	2400.22
441.59	2430.94
441.80	2715.61
442.00	2508.76
442.21	2555.86
442.41	2301.92
442.62	2633.69
442.82	2467.80
443.02	2523.10
443.23	2416.60
443.43	2521.05
443.64	2738.13
443.84	2414.56
444.05	2637.78
444.25	2502.62
444.46	2496.47
444.66	2412.51
444.87	2592.73
445.07	2424.80
445.28	2502.62
445.48	2545.63
445.69	2580.44
445.89	2750.42
446.09	2519.00
446.30	2717.65
446.50	3043.28
446.71	4534.20
446.91	5719.98
447.12	6545.31
447.32	6926.23
447.53	6561.69
447.73	5425.07
447.93	4835.25
448.14	4409.28
448.34	4403.13
448.55	3882.95
448.75	3768.26
448.96	3600.33
449.16	3336.14
449.36	2990.03
449.57	2760.66
449.77	2496.47
449.98	2449.37
450.18	2596.82
450.39	2504.67
450.59	2654.17
450.79	2506.71
451.00	2465.75
451.20	2564.06
451.41	2498.52
451.61	2559.96
451.81	2471.90
452.02	2371.55
452.22	2375.64
452.43	2457.56
452.63	2363.36
452.84	2480.09
453.04	2496.47
453.24	2490.33
453.45	2371.55
453.65	2496.47
453.86	2529.24
454.06	2568.15
454.26	2559.96
454.47	2375.64
454.67	2570.20
454.87	2613.21
455.08	2379.74
455.28	2623.45
455.49	2502.62
455.69	2340.83
455.89	2768.85
456.10	2600.92
456.30	2392.03
456.51	2576.34
456.71	2471.90
456.91	2537.43
457.12	2467.80
457.32	2523.10
457.52	2398.17
457.73	2576.34
457.93	2611.16
458.14	2381.79
458.34	2299.87
458.54	2383.84
458.75	2387.93
458.95	2594.78
459.15	2510.81
459.36	2498.52
459.56	2514.91
459.76	2754.52
459.97	2439.13
460.17	2453.47
460.37	2568.15
460.58	2463.71
460.78	2572.25
460.99	2512.86
461.19	2492.38
461.39	2400.22
461.60	2465.75
461.80	2512.86
462.00	2351.07
462.21	2521.05
462.41	2418.65
462.61	2326.49
462.82	2318.30
463.02	2543.58
463.22	2498.52
463.43	2496.47
463.63	2463.71
463.83	2664.41
464.04	2514.91
464.24	2453.47
464.44	2424.80
464.64	2488.28
464.85	2486.23
465.05	2547.67
465.25	2453.47
465.46	2383.84
465.66	2539.48
465.86	2514.91
466.07	2467.80
466.27	2416.60
466.47	2287.58
466.68	2349.02
466.88	2586.58
467.08	2566.10
467.29	2527.19
467.49	2547.67
467.69	2424.80
467.89	2551.77
468.10	2383.84
468.30	2506.71
468.50	2549.72
468.71	2613.21
468.91	2324.44
469.11	2654.17
469.31	2480.09
469.52	2369.50
469.72	2740.18
469.92	2660.31
470.13	2383.84
470.33	2471.90
470.53	2527.19
470.73	2899.92
470.94	3340.24
471.14	3440.59
471.34	3848.13
471.54	3776.45
471.75	3422.16
471.95	3090.38
472.15	2971.60
472.36	3053.52
472.56	2979.79
472.76	2934.74
472.96	2885.59
473.17	2777.05
473.37	2662.36
473.57	2566.10
473.77	2629.59
473.98	2498.52
474.18	2398.17
474.38	2820.05
474.58	2371.55
474.79	2330.59
474.99	2594.78
475.19	2594.78
475.39	2381.79
475.60	2492.38
475.80	2512.86
476.00	2580.44
476.20	2426.84
476.41	2510.81
476.61	2602.97
476.81	2678.74
477.01	2353.12
477.21	2670.55
477.42	2600.92
477.62	2420.70
477.82	2656.22
478.02	2469.85
478.23	2514.91
478.43	2377.69
478.63	2478.04
478.83	2400.22
479.03	2428.89
479.24	2666.46
479.44	2705.37
479.64	2322.40
479.84	2310.11
480.04	2455.51
480.25	2594.78
480.45	2332.64
480.65	2475.99
480.85	2695.13
481.06	2412.51
481.26	2512.86
481.46	2500.57
481.66	2519.00
481.86	2404.32
482.06	2553.82
482.27	2406.36
482.47	2498.52
482.67	2514.91
482.87	2432.99
483.07	2633.69
483.28	2367.45
483.48	2295.77
483.68	2435.03
483.88	2359.26
484.08	2299.87
484.29	2400.22
484.49	2488.28
484.69	2346.97
484.89	2607.06
485.09	2508.76
485.29	2553.82
485.50	2527.19
485.70	2465.75
485.90	2688.98
486.10	2482.14
486.30	2453.47
486.50	2584.54
486.71	2568.15
486.91	2457.56
487.11	2570.20
487.31	2267.10
487.51	2598.87
487.71	2453.47
487.91	2363.36
488.12	2308.06
488.32	2201.57
488.52	2441.18
488.72	2244.57
488.92	2486.23
489.12	2658.26
489.32	2564.06
489.53	2465.75
489.73	2342.88
489.93	2682.84
490.13	2430.94
490.33	2344.92
490.53	2553.82
490.73	2625.50
490.94	2396.12
491.14	2549.72
491.34	2592.73
491.54	2707.41
491.74	3350.48
491.94	3999.68
492.14	4415.42
492.34	4421.56
492.54	4126.66
492.75	3518.41
492.95	3522.51
493.15	3172.30
493.35	3162.06
493.55	3022.80
493.75	2928.60
493.95	3045.33
494.15	2791.38
494.35	2580.44
494.56	2564.06
494.76	2531.29
494.96	2519.00
495.16	2379.74
495.36	2508.76
495.56	2588.63
495.76	2424.80
495.96	2469.85
496.16	2359.26
496.36	2709.46
496.56	2412.51
496.77	2523.10
496.97	2519.00
497.17	2666.46
497.37	2312.16
497.57	2566.10
497.77	2490.33
497.97	2322.40
498.17	2455.51
498.37	2414.56
498.57	2527.19
498.77	2467.80
498.97	2570.20
499.17	2662.36
499.38	2521.05
499.58	2621.40
499.78	2605.02
499.98	2621.40
500.18	2441.18
500.38	2412.51
500.58	2662.36
500.78	3092.43
500.98	5377.97
501.18	7546.76
501.38	9236.34
501.58	10260.32
501.78	10022.76
501.98	7989.13
502.18	6692.76
502.38	5732.26
502.58	5382.06
502.78	4769.72
502.98	4710.33
503.18	4550.59
503.38	4063.17
503.59	3594.19
503.79	3397.58
503.99	3112.91
504.19	3110.86
504.39	3137.49
504.59	3135.44
504.79	3014.61
504.99	3151.82
505.19	2844.63
505.39	2711.51
505.59	2918.36
505.79	2818.00
505.99	2770.90
506.19	2559.96
506.39	2717.65
506.59	2514.91
506.79	2523.10
506.99	2617.30
507.19	2428.89
507.39	2547.67
507.59	2375.64
507.79	2424.80
507.99	2400.22
508.19	2527.19
508.39	2461.66
508.59	2465.75
508.79	2529.24
508.99	2748.37
509.19	2342.88
509.39	2498.52
509.59	2371.55
509.79	2441.18
509.99	2568.15
510.19	2584.54
510.39	2508.76
510.59	2469.85
510.79	2412.51
510.99	2349.02
511.19	2478.04
511.39	2688.98
511.59	2613.21
511.79	2566.10
511.99	2463.71
512.19	2777.05
512.38	2566.10
512.58	2359.26
512.78	2379.74
512.98	2596.82
513.18	2699.22
513.38	2275.29
513.58	2564.06
513.78	2502.62
513.98	2416.60
514.18	2475.99
514.38	2478.04
514.58	2543.58
514.78	2443.23
514.98	2387.93
515.18	2383.84
515.38	2342.88
515.58	2717.65
515.78	2508.76
515.98	2482.14
516.18	2514.91
516.38	2486.23
516.57	2416.60
516.77	2396.12
516.97	2512.86
517.17	2435.03
517.37	2265.05
517.57	2553.82
517.77	2541.53
517.97	2377.69
518.17	2531.29
518.37	2365.40
518.57	2414.56
518.77	2465.75
518.97	2408.41
519.16	2545.63
519.36	2684.89
519.56	2398.17
519.76	2465.75
519.96	2402.27
520.16	2662.36
520.36	2367.45
520.56	2650.07
520.76	2293.72
520.96	2449.37
521.16	2680.79
521.35	2611.16
521.55	2609.11
521.75	2504.67
521.95	2457.56
522.15	2326.49
522.35	2377.69
522.55	2494.43
522.75	2580.44
522.95	2383.84
523.14	2379.74
523.34	2467.80
523.54	2523.10
523.74	2551.77
523.94	2531.29
524.14	2285.53
524.34	2465.75
524.54	2641.88
524.73	2478.04
524.93	2555.86
525.13	2457.56
525.33	2379.74
525.53	2701.27
525.73	2521.05
525.93	2480.09
526.13	2447.32
526.32	2367.45
526.52	2623.45
526.72	2578.39
526.92	2482.14
527.12	2369.50
527.32	2275.29
527.52	2496.47
527.71	2584.54
527.91	2455.51
528.11	2432.99
528.31	2428.89
528.51	2361.31
528.71	2506.71
528.90	2564.06
529.10	2586.58
529.30	2596.82
529.50	2211.81
529.70	2592.73
529.90	2502.62
530.09	2410.46
530.29	2371.55
530.49	2400.22
530.69	2764.76
530.89	2531.29
531.09	2496.47
531.28	2443.23
531.48	2693.08
531.68	2480.09
531.88	2461.66
532.08	2555.86
532.28	2375.64
532.47	2570.20
532.67	2574.30
532.87	2562.01
533.07	2365.40
533.27	2463.71
533.46	2539.48
533.66	2570.20
533.86	2482.14
534.06	2488.28
534.26	2600.92
534.45	2564.06
534.65	2611.16
534.85	2480.09
535.05	2387.93
535.25	2609.11
535.44	2273.25
535.64	2496.47
535.84	2443.23
536.04	2422.75
536.24	2482.14
536.43	2410.46
536.63	2465.75
536.83	2432.99
537.03	2553.82
537.22	2283.49
537.42	2256.86
537.62	2553.82
537.82	2359.26
538.02	2623.45
538.21	2531.29
538.41	2861.01
538.61	2566.10
538.81	2424.80
539.00	2529.24
539.20	2226.14
539.40	2478.04
539.60	2449.37
539.79	2473.95
539.99	2473.95
540.19	2375.64
540.39	2400.22
540.58	2592.73
540.78	2557.91
540.98	2578.39
541.18	2674.65
541.37	2531.29
541.57	2478.04
541.77	2514.91
541.97	2375.64
542.16	2363.36
542.36	2453.47
542.56	2385.88
542.76	2621.40
542.95	2512.86
543.15	2545.63
543.35	2605.02
543.54	2381.79
543.74	2383.84
543.94	2629.59
544.14	2453.47
544.33	2441.18
544.53	2387.93
544.73	2408.41
544.93	2447.32
545.12	2469.85
545.32	2504.67
545.52	2451.42
545.71	2371.55
545.91	2400.22
546.11	2490.33
546.30	2365.40
546.50	2486.23
546.70	2590.68
546.90	2449.37
547.09	2301.92
547.29	2502.62
547.49	2566.10
547.68	2404.32
547.88	2408.41
548.08	2545.63
548.27	2930.64
548.47	2408.41
548.67	2406.36
548.87	2553.82
549.06	2461.66
549.26	2465.75
549.46	2519.00
549.65	2412.51
549.85	2447.32
550.05	2455.51
550.24	2293.72
550.44	2453.47
550.64	2455.51
550.83	2447.32
551.03	2643.93
551.23	2605.02
551.42	2572.25
551.62	2490.33
551.82	2512.86
552.01	2408.41
552.21	2652.12
552.41	2432.99
552.60	2631.64
552.80	2580.44
553.00	2295.77
553.19	2527.19
553.39	2768.85
553.59	2441.18
553.78	2498.52
553.98	2422.75
554.17	2363.36
554.37	2486.23
554.57	2557.91
554.76	2340.83
554.96	2410.46
555.16	2504.67
555.35	2457.56
555.55	2486.23
555.75	2529.24
555.94	2531.29
556.14	2265.05
556.33	2516.95
556.53	2449.37
556.73	2555.86
556.92	2455.51
557.12	2619.35
557.32	2703.32
557.51	2635.74
557.71	2508.76
557.90	2676.70
558.10	2682.84
558.30	2441.18
558.49	2389.98
558.69	2475.99
558.88	2564.06
559.08	2549.72
559.28	2463.71
559.47	2519.00
559.67	2580.44
559.86	2660.31
560.06	2445.27
560.26	2525.15
560.45	2523.10
560.65	2449.37
560.84	2637.78
561.04	2367.45
561.24	2635.74
561.43	2422.75
561.63	2580.44
561.82	2510.81
562.02	2637.78
562.22	2428.89
562.41	2375.64
562.61	2426.84
562.80	2432.99
563.00	2680.79
563.19	2482.14
563.39	2500.57
563.59	2576.34
563.78	2377.69
563.98	2326.49
564.17	2371.55
564.37	2285.53
564.56	2488.28
564.76	2267.10
564.96	2596.82
565.15	2539.48
565.35	2756.57
565.54	2506.71
565.74	2514.91
565.93	2662.36
566.13	2512.86
566.32	2496.47
566.52	2478.04
566.71	2490.33
566.91	2586.58
567.11	2506.71
567.30	2398.17
567.50	2555.86
567.69	2498.52
567.89	2426.84
568.08	2406.36
568.28	2519.00
568.47	2396.12
568.67	2564.06
568.86	2420.70
569.06	2594.78
569.25	2469.85
569.45	2332.64
569.64	2416.60
569.84	2521.05
570.04	2490.33
570.23	2363.36
570.43	2471.90
570.62	2471.90
570.82	2650.07
571.01	2310.11
571.21	2392.03
571.40	2400.22
571.60	2551.77
571.79	2486.23
571.99	2502.62
572.18	2373.60
572.38	2549.72
572.57	2473.95
572.77	2545.63
572.96	2822.10
573.16	2504.67
573.35	2402.27
573.55	2611.16
573.74	2512.86
573.94	2432.99
574.13	2473.95
574.33	2588.63
574.52	2643.93
574.71	2519.00
574.91	2490.33
575.10	2273.25
575.30	2467.80
575.49	2445.27
575.69	2316.25
575.88	2519.00
576.08	2492.38
576.27	2693.08
576.47	2525.15
576.66	2629.59
576.86	2654.17
577.05	2559.96
577.25	2516.95
577.44	2699.22
577.64	2504.67
577.83	2658.26
578.02	2437.08
578.22	2605.02
578.41	2727.89
578.61	2504.67
578.80	2385.88
579.00	2494.43
579.19	2490.33
579.39	2607.06
579.58	2588.63
579.77	2506.71
579.97	2629.59
580.16	2596.82
580.36	2611.16
580.55	2572.25
580.75	2605.02
580.94	2480.09
581.13	2740.18
581.33	2553.82
581.52	2617.30
581.72	2815.96
581.91	2668.50
582.11	2465.75
582.30	2559.96
582.49	2523.10
582.69	2666.46
582.88	2592.73
583.08	2498.52
583.27	2666.46
583.47	2506.71
583.66	2430.94
583.85	2437.08
584.05	2457.56
584.24	2586.58
584.44	2562.01
584.63	2666.46
584.82	2736.09
585.02	2607.06
585.21	2648.02
585.41	2738.13
585.60	2516.95
585.79	2709.46
585.99	2754.52
586.18	2693.08
586.37	3266.51
586.57	5056.43
586.76	14982.94
586.96	34483.70
587.15	48026.92
587.34	57246.87
587.54	61908.05
587.73	56263.85
587.93	39208.36
588.12	30006.84
588.31	24243.85
588.51	21169.85
588.70	19695.32
588.89	17514.23
589.09	15179.54
589.28	12934.97
589.47	10069.86
589.67	8034.18
589.86	6291.36
590.06	4530.11
590.25	3862.47
590.44	3323.85
590.64	2990.03
590.83	2789.33
591.02	2818.00
591.22	2539.48
591.41	2609.11
591.60	2502.62
591.80	2750.42
591.99	2482.14
592.18	2471.90
592.38	2609.11
592.57	2445.27
592.76	2551.77
592.96	2486.23
593.15	2596.82
593.34	2686.94
593.54	2496.47
593.73	2547.67
593.92	2590.68
594.12	2547.67
594.31	2537.43
594.50	2656.22
594.70	2594.78
594.89	2897.88
595.08	2422.75
595.28	2605.02
595.47	2918.36
595.66	2623.45
595.86	2490.33
596.05	2498.52
596.24	2449.37
596.43	2772.95
596.63	2553.82
596.82	2602.97
597.01	2578.39
597.21	2686.94
597.40	2562.01
597.59	2514.91
597.79	2498.52
597.98	2629.59
598.17	2578.39
598.36	2525.15
598.56	2562.01
598.75	2447.32
598.94	2582.49
599.14	2523.10
599.33	2467.80
599.52	2627.54
599.71	2475.99
599.91	2527.19
600.10	2586.58
600.29	2555.86
600.48	2572.25
600.68	2557.91
600.87	2564.06
601.06	2443.23
601.26	2490.33
601.45	2484.19
601.64	2510.81
601.83	2658.26
602.03	2389.98
602.22	2377.69
602.41	2617.30
602.60	2873.30
602.80	2516.95
602.99	2576.34
603.18	2457.56
603.37	2625.50
603.57	2449.37
603.76	2508.76
603.95	2711.51
604.14	2400.22
604.34	2381.79
604.53	2531.29
604.72	2512.86
604.91	2650.07
605.10	2535.39
605.30	2316.25
605.49	2785.24
605.68	2613.21
605.87	2457.56
606.07	2363.36
606.26	2504.67
606.45	2578.39
606.64	2527.19
606.84	2404.32
607.03	2547.67
607.22	2703.32
607.41	2480.09
607.60	2422.75
607.80	2625.50
607.99	2594.78
608.18	2529.24
608.37	2412.51
608.56	2379.74
608.76	2643.93
608.95	2719.70
609.14	2488.28
609.33	2678.74
609.52	2752.47
609.72	2611.16
609.91	2631.64
610.10	2629.59
610.29	2635.74
610.48	2566.10
610.68	2514.91
610.87	2488.28
611.06	2629.59
611.25	2475.99
611.44	2600.92
611.63	2430.94
611.83	2725.85
612.02	2373.60
612.21	2621.40
612.40	2369.50
612.59	2400.22
612.79	2363.36
612.98	2465.75
613.17	2725.85
613.36	2408.41
613.55	2711.51
613.74	2478.04
613.93	2602.97
614.13	2701.27
614.32	2731.99
614.51	2637.78
614.70	2506.71
614.89	2508.76
615.08	2652.12
615.28	3018.71
615.47	2498.52
615.66	2680.79
615.85	2545.63
616.04	2656.22
616.23	2590.68
616.42	2576.34
616.62	2500.57
616.81	2625.50
617.00	2590.68
617.19	2559.96
617.38	2367.45
617.57	2502.62
617.76	2594.78
617.95	2598.87
618.15	2525.15
618.34	2648.02
618.53	2342.88
618.72	2596.82
618.91	2619.35
619.10	2605.02
619.29	2531.29
619.48	2463.71
619.68	2308.06
619.87	2502.62
620.06	2324.44
620.25	2602.97
620.44	2504.67
620.63	2406.36
620.82	2502.62
621.01	2514.91
621.20	2453.47
621.39	2512.86
621.59	2555.86
621.78	2496.47
621.97	2473.95
622.16	2643.93
622.35	2506.71
622.54	2627.54
622.73	2586.58
622.92	2289.63
623.11	2635.74
623.30	2490.33
623.49	2588.63
623.68	2465.75
623.88	2645.98
624.07	2500.57
624.26	2363.36
624.45	2453.47
624.64	2475.99
624.83	2564.06
625.02	2424.80
625.21	2451.42
625.40	2430.94
625.59	2605.02
625.78	2424.80
625.97	2643.93
626.16	2736.09
626.35	2654.17
626.54	2654.17
626.74	2686.94
626.93	2482.14
627.12	2502.62
627.31	2627.54
627.50	2527.19
627.69	2643.93
627.88	2392.03
628.07	2435.03
628.26	2330.59
628.45	2430.94
628.64	2361.31
628.83	2498.52
629.02	2371.55
629.21	2566.10
629.40	2486.23
629.59	2430.94
629.78	2387.93
629.97	2533.34
630.16	2488.28
630.35	2447.32
630.54	2523.10
630.73	2449.37
630.92	2502.62
631.11	2379.74
631.30	2494.43
631.49	2609.11
631.68	2457.56
631.87	2449.37
632.06	2322.40
632.25	2797.53
632.44	2494.43
632.63	2598.87
632.82	2473.95
633.01	2486.23
633.20	2617.30
633.39	2457.56
633.58	2453.47
633.77	2658.26
633.96	2594.78
634.15	2562.01
634.34	2553.82
634.53	2586.58
634.72	2404.32
634.91	2320.35
635.10	2523.10
635.29	2531.29
635.48	2527.19
635.67	2428.89
635.86	2336.73
636.05	2680.79
636.24	2416.60
636.43	2562.01
636.62	2512.86
636.81	2205.66
637.00	2519.00
637.19	2488.28
637.38	2461.66
637.57	2506.71
637.76	2531.29
637.95	2633.69
638.14	2562.01
638.33	2562.01
638.52	2555.86
638.71	2441.18
638.89	2426.84
639.08	2940.88
639.27	2775.00
639.46	2695.13
639.65	3155.92
639.84	3203.02
640.03	3354.57
640.22	3096.53
640.41	3155.92
640.60	2762.71
640.79	2803.67
640.98	2637.78
641.17	2731.99
641.36	2744.28
641.55	2734.04
641.74	2539.48
641.92	2473.95
642.11	2457.56
642.30	2459.61
642.49	2367.45
642.68	2430.94
642.87	2494.43
643.06	2551.77
643.25	2437.08
643.44	2314.20
643.63	2510.81
643.82	2586.58
644.00	2344.92
644.19	2455.51
644.38	2357.21
644.57	2650.07
644.76	2496.47
644.95	2506.71
645.14	2486.23
645.33	2502.62
645.52	2490.33
645.71	2357.21
645.89	2342.88
646.08	2504.67
646.27	2553.82
646.46	2678.74
646.65	2306.01
646.84	2506.71
647.03	2432.99
647.22	2527.19
647.40	2490.33
647.59	2494.43
647.78	2252.77
647.97	2422.75
648.16	2367.45
648.35	2666.46
648.54	2654.17
648.73	2410.46
648.91	2674.65
649.10	2533.34
649.29	2430.94
649.48	2443.23
649.67	2508.76
649.86	2545.63
650.05	2512.86
650.23	2703.32
650.42	2572.25
650.61	2762.71
650.80	2621.40
650.99	2826.20
651.18	2576.34
651.36	2686.94
651.55	2506.71
651.74	2580.44
651.93	2484.19
652.12	2506.71
652.31	2508.76
652.49	2410.46
652.68	2506.71
652.87	2662.36
653.06	2547.67
653.25	2703.32
653.44	2506.71
653.62	2766.81
653.81	2523.10
654.00	2428.89
654.19	2605.02
654.38	2840.53
654.56	2521.05
654.75	2506.71
654.94	2594.78
655.13	2488.28
655.32	2469.85
655.51	2615.26
655.69	2449.37
655.88	2564.06
656.07	2344.92
656.26	2580.44
656.45	2351.07
656.63	2447.32
656.82	2478.04
657.01	2695.13
657.20	2379.74
657.38	2652.12
657.57	2455.51
657.76	2267.10
657.95	2555.86
658.14	2471.90
658.32	2447.32
658.51	2330.59
658.70	2588.63
658.89	2545.63
659.08	2453.47
659.26	2678.74
659.45	2424.80
659.64	2645.98
659.83	2496.47
660.01	2856.92
660.20	2545.63
660.39	2695.13
660.58	2265.05
660.76	2596.82
660.95	2338.78
661.14	2498.52
661.33	2387.93
661.51	2389.98
661.70	2424.80
661.89	2519.00
662.08	2428.89
662.26	2297.82
662.45	2336.73
662.64	2775.00
662.83	2523.10
663.01	2334.68
663.20	2408.41
663.39	2711.51
663.58	2402.27
663.76	2459.61
663.95	2523.10
664.14	2338.78
664.32	2422.75
664.51	2367.45
664.70	2279.39
664.89	2482.14
665.07	2289.63
665.26	2543.58
665.45	2318.30
665.64	2541.53
665.82	2498.52
666.01	2611.16
666.20	2398.17
666.38	2609.11
666.57	2715.61
666.76	3815.37
666.95	9463.66
667.13	17899.25
667.32	22466.22
667.51	26486.38
667.69	27651.67
667.88	24776.33
668.07	17633.01
668.25	14036.78
668.44	12027.72
668.63	10229.60
668.81	9029.49
669.00	7860.10
669.19	7110.55
669.38	6191.01
669.56	5355.44
669.75	4353.98
669.94	3807.17
670.12	3151.82
670.31	2983.89
670.50	2822.10
670.68	2775.00
670.87	2637.78
671.06	2578.39
671.24	2547.67
671.43	2840.53
671.62	2596.82
671.80	2496.47
671.99	2596.82
672.18	2519.00
672.36	2650.07
672.55	2572.25
672.74	2451.42
672.92	2392.03
673.11	2570.20
673.29	2320.35
673.48	2559.96
673.67	2422.75
673.85	2588.63
674.04	2334.68
674.23	2510.81
674.41	2736.09
674.60	2375.64
674.79	2199.52
674.97	2412.51
675.16	2594.78
675.34	2590.68
675.53	2338.78
675.72	2535.39
675.90	2654.17
676.09	2467.80
676.28	2508.76
676.46	2281.44
676.65	2553.82
676.83	2289.63
677.02	2426.84
677.21	2396.12
677.39	2465.75
677.58	2392.03
677.77	2332.64
677.95	2361.31
678.14	2392.03
678.32	2498.52
678.51	2392.03
678.70	2697.17
678.88	2400.22
679.07	2502.62
679.25	2490.33
679.44	2443.23
679.63	2297.82
679.81	2514.91
680.00	2543.58
680.18	2584.54
680.37	2596.82
680.55	2392.03
680.74	2277.34
680.93	2195.42
681.11	2519.00
681.30	2484.19
681.48	2486.23
681.67	2447.32
681.85	2457.56
682.04	2336.73
682.23	2459.61
682.41	2457.56
682.60	2392.03
682.78	2471.90
682.97	2349.02
683.15	2553.82
683.34	2551.77
683.53	2711.51
683.71	2359.26
683.90	2574.30
684.08	2680.79
684.27	2420.70
684.45	2475.99
684.64	2588.63
684.82	2506.71
685.01	2576.34
685.19	2412.51
685.38	2598.87
685.57	2502.62
685.75	2504.67
685.94	2414.56
686.12	2432.99
686.31	2332.64
686.49	2660.31
686.68	2234.33
686.86	2537.43
687.05	2465.75
687.23	2551.77
687.42	2441.18
687.60	2277.34
687.79	2559.96
687.97	2645.98
688.16	2570.20
688.34	2551.77
688.53	2340.83
688.71	2555.86
688.90	2645.98
689.08	2406.36
689.27	2285.53
689.45	2570.20
689.64	2512.86
689.82	2529.24
690.01	2559.96
690.19	2547.67
690.38	2482.14
690.56	2645.98
690.75	2344.92
690.93	2453.47
691.12	2367.45
691.30	2500.57
691.49	2498.52
691.67	2508.76
691.86	2670.55
692.04	2512.86
692.23	2506.71
692.41	2504.67
692.60	2768.85
692.78	2645.98
692.97	2555.86
693.15	2652.12
693.34	2703.32
693.52	2629.59
693.71	2449.37
693.89	2459.61
694.08	2306.01
694.26	2527.19
694.44	2543.58
694.63	2654.17
694.81	2389.98
695.00	2346.97
695.18	2557.91
695.37	2858.96
695.55	2480.09
695.74	2498.52
695.92	2418.65
696.10	2654.17
696.29	2338.78
696.47	2473.95
696.66	2371.55
696.84	2392.03
697.03	2465.75
697.21	2701.27
697.40	3786.69
697.58	2596.82
697.76	2387.93
697.95	2351.07
698.13	2392.03
698.32	2322.40
698.50	2545.63
698.68	2469.85
698.87	2457.56
699.05	2660.31
699.24	2500.57
699.42	2338.78
699.61	2596.82
699.79	2471.90
699.97	2535.39
700.16	2306.01
700.34	2357.21
700.53	2506.71
700.71	2662.36
700.89	2555.86
701.08	2455.51
701.26	2562.01
701.45	2936.79
701.63	2392.03
701.81	2492.38
702.00	2424.80
702.18	2457.56
702.37	2428.89
702.55	2715.61
702.73	2648.02
702.92	2539.48
703.10	2891.73
703.28	2738.13
703.47	2519.00
703.65	2635.74
703.84	2590.68
704.02	2459.61
704.20	2744.28
704.39	2471.90
704.57	2453.47
704.75	2611.16
704.94	2584.54
705.12	2475.99
705.30	2807.77
705.49	5562.28
705.67	12795.71
705.86	20856.51
706.04	24026.77
706.22	27453.02
706.41	28145.23
706.59	22498.98
706.77	16316.17
706.96	14094.12
707.14	12160.84
707.32	10512.22
707.51	9346.93
707.69	7671.69
707.87	6084.52
708.06	5009.33
708.24	4118.47
708.42	3463.12
708.61	3274.70
708.79	2645.98
708.97	2695.13
709.16	2660.31
709.34	2566.10
709.52	2379.74
709.71	2430.94
709.89	2592.73
710.07	2435.03
710.26	2426.84
710.44	2521.05
710.62	2654.17
710.80	2449.37
710.99	2502.62
711.17	2613.21
711.35	2424.80
711.54	2359.26
711.72	2629.59
711.90	2539.48
712.09	2559.96
712.27	2500.57
712.45	2506.71
712.63	2412.51
712.82	2547.67
713.00	2457.56
713.18	2605.02
713.37	2557.91
713.55	2572.25
713.73	2547.67
713.91	2564.06
714.10	2432.99
714.28	2439.13
714.46	2586.58
714.65	2527.19
714.83	2478.04
715.01	2502.62
715.19	2510.81
715.38	2404.32
715.56	2547.67
715.74	2410.46
715.92	2355.16
716.11	2707.41
716.29	2355.16
716.47	2430.94
716.65	2394.08
716.84	2346.97
717.02	2496.47
717.20	2387.93
717.38	2435.03
717.57	2447.32
717.75	2387.93
717.93	2482.14
718.11	2490.33
718.30	2416.60
718.48	2490.33
718.66	2654.17
718.84	2625.50
719.03	2418.65
719.21	2256.86
719.39	2746.33
719.57	2537.43
719.75	2492.38
719.94	2387.93
720.12	2459.61
720.30	2521.05
720.48	2555.86
720.67	2355.16
720.85	2420.70
721.03	2478.04
721.21	2320.35
721.39	2590.68
721.58	2617.30
721.76	2506.71
721.94	2523.10
722.12	2441.18
722.30	2668.50
722.49	2482.14
722.67	2478.04
722.85	2519.00
723.03	2285.53
723.21	2437.08
723.40	2482.14
723.58	2588.63
723.76	2516.95
723.94	2699.22
724.12	2572.25
724.30	2688.98
724.49	2596.82
724.67	2416.60
724.85	2617.30
725.03	2351.07
725.21	2555.86
725.40	2629.59
725.58	2445.27
725.76	2670.55
725.94	2566.10
726.12	2426.84
726.30	2496.47
726.49	2465.75
726.67	2392.03
726.85	2523.10
727.03	2908.12
727.21	4347.84
727.39	5871.53
727.57	6772.63
727.76	7448.46
727.94	7602.06
728.12	6928.28
728.30	5537.71
728.48	5021.62
728.66	4517.82
728.84	4054.98
729.03	3637.19
729.21	3272.65
729.39	2996.18
729.57	2740.18
729.75	2713.56
729.93	2611.16
730.11	2451.42
730.30	2471.90
730.48	2557.91
730.66	2609.11
730.84	2537.43
731.02	2523.10
731.20	2496.47
731.38	2432.99
731.56	2346.97
731.74	2293.72
731.93	2465.75
732.11	2428.89
732.29	2400.22
732.47	2570.20
732.65	2510.81
732.83	2645.98
733.01	2539.48
733.19	2408.41
733.37	2643.93
733.56	2531.29
733.74	2381.79
733.92	2658.26
734.10	2351.07
734.28	2537.43
734.46	2316.25
734.64	2475.99
734.82	2488.28
735.00	2404.32
735.18	2428.89
735.36	2516.95
735.54	2494.43
735.73	2471.90
735.91	2498.52
736.09	2617.30
736.27	2492.38
736.45	2529.24
736.63	2279.39
736.81	2439.13
736.99	2635.74
737.17	2668.50
737.35	2387.93
737.53	2508.76
737.71	2523.10
737.89	2643.93
738.07	2342.88
738.25	2389.98
738.43	2252.77
738.61	2414.56
738.80	2289.63
738.98	2320.35
739.16	2453.47
739.34	2396.12
739.52	2680.79
739.70	2490.33
739.88	2627.54
740.06	2547.67
740.24	2240.48
740.42	2633.69
740.60	2217.95
740.78	2392.03
740.96	2283.49
741.14	2428.89
741.32	2467.80
741.50	2326.49
741.68	2631.64
741.86	2545.63
742.04	2441.18
742.22	2310.11
742.40	2439.13
742.58	2496.47
742.76	2426.84
742.94	2547.67
743.12	2295.77
743.30	2498.52
743.48	2545.63
743.66	2381.79
743.84	2504.67
744.02	2422.75
744.20	2480.09
744.38	2316.25
744.56	2285.53
744.74	2658.26
744.92	2529.24
745.10	2576.34
745.28	2629.59
745.46	2605.02
745.64	2400.22
745.82	2549.72
746.00	2451.42
746.18	2480.09
746.36	2375.64
746.54	2578.39
746.72	2545.63
746.90	2414.56
747.08	2592.73
747.26	2441.18
747.44	2537.43
747.62	2619.35
747.80	2650.07
747.98	2564.06
748.15	2441.18
748.33	2684.89
748.51	2416.60
748.69	2504.67
748.87	2338.78
749.05	2494.43
749.23	2484.19
749.41	2473.95
749.59	2543.58
749.77	2645.98
749.95	2416.60
750.13	2412.51
750.31	2582.49
750.49	2475.99
750.67	2621.40
750.85	2580.44
751.03	2422.75
751.20	2650.07
751.38	2553.82
751.56	2445.27
751.74	2441.18
751.92	2441.18
752.10	2324.44
752.28	2596.82
752.46	2330.59
752.64	2471.90
752.82	2457.56
753.00	2545.63
753.18	2389.98
753.35	2523.10
753.53	2500.57
753.71	2387.93
753.89	2531.29
754.07	2590.68
754.25	2633.69
754.43	2455.51
754.61	2328.54
754.79	2514.91
754.97	2461.66
755.14	2631.64
755.32	2365.40
755.50	2418.65
755.68	2455.51
755.86	2357.21
756.04	2447.32
756.22	2252.77
756.40	2588.63
756.57	2654.17
756.75	2547.67
756.93	2631.64
757.11	2564.06
757.29	2383.84
757.47	2299.87
757.65	2301.92
757.82	2277.34
758.00	2328.54
758.18	2437.08
758.36	2410.46
758.54	2656.22
758.72	2326.49
758.90	2529.24
759.07	2484.19
759.25	2357.21
759.43	2523.10
759.61	2297.82
759.79	3575.75
759.97	2605.02
760.15	2402.27
760.32	2441.18
760.50	2545.63
760.68	2707.41
760.86	2254.81
761.04	2553.82
761.22	2555.86
761.39	2457.56
761.57	2506.71
761.75	2430.94
761.93	2600.92
762.11	2416.60
762.28	2498.52
762.46	2293.72
762.64	2590.68
762.82	2346.97
763.00	2424.80
763.18	2514.91
763.35	2320.35
763.53	2641.88
763.71	2494.43
763.89	2396.12
764.07	2539.48
764.24	2529.24
764.42	2555.86
764.60	2418.65
764.78	2574.30
764.96	2484.19
765.13	2600.92
765.31	2412.51
765.49	2572.25
765.67	2310.11
765.84	2420.70
766.02	2297.82
766.20	2306.01
766.38	2535.39
766.56	2514.91
766.73	2531.29
766.91	2424.80
767.09	2510.81
767.27	2490.33
767.44	2340.83
767.62	2572.25
767.80	2547.67
767.98	2461.66
768.15	2441.18
768.33	2607.06
768.51	2600.92
768.69	2564.06
768.87	2482.14
769.04	2504.67
769.22	2830.29
769.40	2533.34
769.58	2668.50
769.75	2605.02
769.93	2699.22
770.11	2502.62
770.28	2418.65
770.46	2555.86
770.64	2551.77
770.82	2357.21
770.99	2412.51
771.17	2623.45
771.35	2414.56
771.53	2469.85
771.70	2373.60
771.88	2584.54
772.06	2406.36
772.23	2404.32
772.41	2549.72
772.59	2488.28
772.77	2240.48
772.94	2465.75
773.12	2519.00
773.30	2357.21
773.47	2564.06
773.65	2408.41
773.83	2580.44
774.01	2516.95
774.18	2271.20
774.36	2443.23
774.54	2320.35
774.71	2469.85
774.89	2330.59
775.07	2340.83
775.24	2457.56
775.42	2439.13
775.60	2699.22
775.78	2381.79
775.95	2334.68
776.13	2303.96
776.31	2306.01
776.48	2529.24
776.66	2652.12
776.84	2416.60
777.01	2369.50
777.19	2381.79
777.37	2396.12
777.54	2512.86
777.72	2770.90
777.90	2455.51
778.07	2402.27
778.25	2893.78
778.43	2588.63
778.60	2371.55
778.78	2559.96
778.96	2684.89
779.13	2357.21
779.31	2545.63
779.49	2478.04
779.66	2543.58
779.84	2457.56
780.01	2469.85
780.19	2385.88
780.37	2668.50
780.54	2506.71
780.72	2385.88
780.90	2459.61
781.07	2488.28
781.25	2338.78
781.43	2592.73
781.60	2449.37
781.78	2609.11
781.95	2537.43
782.13	2392.03
782.31	2451.42
782.48	2310.11
782.66	2482.14
782.83	2686.94
783.01	2502.62
783.19	2555.86
783.36	2471.90
783.54	2363.36
783.72	2553.82
783.89	2445.27
784.07	2512.86
784.24	2482.14
784.42	2625.50
784.60	2512.86
784.77	2512.86
784.95	2269.15
785.12	2435.03
785.30	2584.54
785.47	2439.13
785.65	2344.92
785.83	2461.66
786.00	2367.45
786.18	2519.00
786.35	2283.49
786.53	2363.36
786.71	2572.25
786.88	2531.29
787.06	2537.43
787.23	2441.18
787.41	2426.84
787.58	2449.37
787.76	2375.64
787.94	2512.86
788.11	2514.91
788.29	2377.69
788.46	2389.98
788.64	2295.77
788.81	2389.98
788.99	2377.69
789.16	2389.98
789.34	2512.86
789.52	2383.84
789.69	2463.71
789.87	2271.20
790.04	2504.67
790.22	2490.33
790.39	2752.47
790.57	2414.56
790.74	2326.49
790.92	2535.39
791.09	2273.25
791.27	2490.33
791.44	2519.00
791.62	2447.32
791.79	2594.78
791.97	2402.27
792.15	2791.38
792.32	2555.86
792.50	2541.53
792.67	2588.63
792.85	2645.98
793.02	2406.36
793.20	2494.43
793.37	2326.49
793.55	2379.74
793.72	2283.49
793.90	2631.64
794.07	2326.49
794.25	2387.93
794.42	2537.43
794.60	2457.56
794.77	2551.77
794.95	2449.37
795.12	2539.48
795.30	2418.65
795.47	2242.53
795.65	2848.72
795.82	2574.30
796.00	2375.64
796.17	2516.95
796.34	2330.59
796.52	2484.19
796.69	2580.44
796.87	2578.39
797.04	2539.48
797.22	2588.63
797.39	2443.23
797.57	2539.48
797.74	2531.29
797.92	2445.27
798.09	2428.89
798.27	2562.01
798.44	2416.60
798.62	2375.64
798.79	2494.43
798.96	2486.23
799.14	2441.18
799.31	2760.66
799.49	2531.29
799.66	2414.56
799.84	2346.97
800.01	2369.50
800.19	2578.39
800.36	2328.54
800.53	2553.82
800.71	2506.71
800.88	2680.79
801.06	2351.07
801.23	2346.97
801.41	2514.91
801.58	2396.12
801.75	2432.99
801.93	2537.43
802.10	2547.67
802.28	2383.84
802.45	2359.26
802.63	2582.49
802.80	2654.17
802.97	2473.95
803.15	2482.14
803.32	2342.88
803.50	2465.75
803.67	2389.98
803.84	2346.97
804.02	2551.77
804.19	2424.80
804.37	2211.81
804.54	2328.54
804.71	2408.41
804.89	2529.24
805.06	2332.64
805.24	2359.26
805.41	2308.06
805.58	2402.27
805.76	2740.18
805.93	2457.56
806.10	2590.68
806.28	2590.68
806.45	2543.58
806.63	2555.86
806.80	2514.91
806.97	2488.28
807.15	2449.37
807.32	2502.62
807.49	2451.42
807.67	2283.49
807.84	2457.56
808.01	2303.96
808.19	2613.21
808.36	2709.46
808.54	2396.12
808.71	2308.06
808.88	2367.45
809.06	2641.88
809.23	2668.50
809.40	2291.68
809.58	2539.48
809.75	2422.75
809.92	2365.40
810.10	2695.13
810.27	2447.32
810.44	2473.95
810.62	2420.70
810.79	2551.77
810.96	2428.89
811.14	2340.83
811.31	2441.18
811.48	2486.23
811.66	2473.95
811.83	2607.06
812.00	2467.80
812.18	2559.96
812.35	2727.89
812.52	2457.56
812.69	2418.65
812.87	2406.36
813.04	2408.41
813.21	2432.99
813.39	2430.94
813.56	2351.07
813.73	2602.97
813.91	2236.38
814.08	2506.71
814.25	2392.03
814.42	2318.30
814.60	2441.18
814.77	2506.71
814.94	2449.37
815.12	2406.36
815.29	2697.17
815.46	2422.75
815.63	2482.14
815.81	2449.37
815.98	2357.21
816.15	2424.80
816.33	2392.03
816.50	2445.27
816.67	2514.91
816.84	2467.80
817.02	2326.49
817.19	2437.08
817.36	2510.81
817.53	2500.57
817.71	2428.89
817.88	2510.81
818.05	2496.47
818.22	2351.07
818.40	2660.31
818.57	2367.45
818.74	2510.81
818.91	2459.61
819.09	2529.24
819.26	2473.95
819.43	2381.79
819.60	2441.18
819.78	2465.75
819.95	2527.19
820.12	2432.99
820.29	2650.07
820.47	2631.64
820.64	2359.26
820.81	2279.39
820.98	2455.51
821.15	2432.99
821.33	2596.82
821.50	2244.57
821.67	2559.96
821.84	2392.03
822.02	2506.71
822.19	2586.58
822.36	2424.80
822.53	2379.74
822.70	2375.64
822.88	2396.12
823.05	2600.92
823.22	2435.03
823.39	2506.71
823.56	2449.37
823.74	2693.08
823.91	2310.11
824.08	2287.58
824.25	2349.02
824.42	2613.21
824.60	2349.02
824.77	2461.66
824.94	2426.84
825.11	2523.10
825.28	2209.76
825.45	2500.57
825.63	2570.20
825.80	2359.26
825.97	2473.95
826.14	2414.56
826.31	2265.05
826.48	2523.10
826.66	2332.64
826.83	2424.80
827.00	2465.75
827.17	2351.07
827.34	2465.75
827.51	2459.61
827.69	2469.85
827.86	2351.07
828.03	2498.52
828.20	2510.81
828.37	2355.16
828.54	2457.56
828.71	2314.20
828.89	2555.86
829.06	2504.67
829.23	2586.58
829.40	2428.89
829.57	2365.40
829.74	2504.67
829.91	2349.02
830.09	2308.06
830.26	2580.44
830.43	2621.40
830.60	2465.75
830.77	2547.67
830.94	2652.12
831.11	2611.16
831.28	2555.86
831.46	2529.24
831.63	2478.04
831.80	2596.82
831.97	2422.75
832.14	2404.32
832.31	2492.38
832.48	2504.67
832.65	2590.68
832.82	2430.94
832.99	2482.14
833.17	2445.27
833.34	2631.64
833.51	2478.04
833.68	2209.76
833.85	2656.22
834.02	2330.59
834.19	2387.93
834.36	2439.13
834.53	2473.95
834.70	2586.58
834.87	2574.30
835.04	2355.16
835.22	2332.64
835.39	2441.18
835.56	2351.07
835.73	2430.94
835.90	2586.58
836.07	2387.93
836.24	2473.95
836.41	2367.45
836.58	2326.49
836.75	2668.50
836.92	2389.98
837.09	2306.01
837.26	2572.25
837.43	2525.15
837.60	2420.70
837.77	2381.79
837.94	2588.63
838.12	2553.82
838.29	2365.40
838.46	2244.57
838.63	2404.32
838.80	2668.50
838.97	2408.41
839.14	2340.83
839.31	2482.14
839.48	2543.58
839.65	2283.49
839.82	2439.13
839.99	2508.76
840.16	2486.23
840.33	2359.26
840.50	2453.47
840.67	2381.79
840.84	2248.67
841.01	2357.21
841.18	2344.92
841.35	2410.46
841.52	2553.82
841.69	2633.69
841.86	2426.84
842.03	2400.22
842.20	2545.63
842.37	2365.40
842.54	2451.42
842.71	2500.57
842.88	2340.83
843.05	2424.80
843.22	2367.45
843.39	2602.97
843.56	2412.51
843.73	2373.60
843.90	2359.26
844.07	2531.29
844.24	2586.58
844.41	2496.47
844.58	2367.45
844.75	2437.08
844.92	2502.62
845.09	2412.51
845.26	2381.79
845.43	2564.06
845.60	2406.36
845.77	2471.90
845.94	2400.22
846.10	2619.35
846.27	2254.81
846.44	2256.86
846.61	2340.83
846.78	2547.67
846.95	2645.98
847.12	2351.07
847.29	2334.68
847.46	2365.40
847.63	2564.06
847.80	2349.02
847.97	2340.83
848.14	2748.37
848.31	2371.55
848.48	2297.82
848.65	2389.98
848.82	2461.66
848.98	2680.79
849.15	2381.79
849.32	2580.44
849.49	2619.35
849.66	2478.04
849.83	2389.98
850.00	2316.25
850.17	2578.39
850.34	2428.89
850.51	2344.92
850.68	2420.70
850.85	2801.62
851.01	2545.63
851.18	2383.84
851.35	2322.40
851.52	2519.00
851.69	2586.58
851.86	2222.05
852.03	2322.40
852.20	2586.58
852.37	2406.36
852.53	2242.53
852.70	2357.21
852.87	2441.18
853.04	2496.47
853.21	2408.41
853.38	2435.03
853.55	2623.45
853.72	2576.34
853.89	2351.07
854.05	2349.02
854.22	2488.28
854.39	2525.15
854.56	2385.88
854.73	2500.57
854.90	2367.45
855.07	2478.04
855.23	2357.21
855.40	2342.88
855.57	2455.51
855.74	2263.01
855.91	2625.50
856.08	2193.37
856.25	2301.92
856.41	2398.17
856.58	2334.68
856.75	2363.36
856.92	2271.20
857.09	2562.01
857.26	2195.42
857.42	2500.57
857.59	2514.91
857.76	2392.03
857.93	2381.79
858.10	2447.32
858.27	2338.78
858.43	2475.99
858.60	2326.49
858.77	2236.38
858.94	2441.18
859.11	2656.22
859.27	2414.56
859.44	2351.07
859.61	2719.70
859.78	2555.86
859.95	2367.45
860.12	2314.20
860.28	2703.32
860.45	2695.13
860.62	2392.03
860.79	2396.12
860.95	2435.03
861.12	2394.08
861.29	2342.88
861.46	2340.83
861.63	2447.32
861.79	2531.29
861.96	2330.59
862.13	2396.12
862.30	2613.21
862.47	2351.07
862.63	2346.97
862.80	2435.03
862.97	2506.71
863.14	2543.58
863.30	2437.08
863.47	2334.68
863.64	2686.94
863.81	2455.51
863.97	2398.17
864.14	2416.60
864.31	2521.05
864.48	2435.03
864.65	2416.60
864.81	2572.25
864.98	2471.90
865.15	2580.44
865.32	2398.17
865.48	2496.47
865.65	2670.55
865.82	2385.88
865.98	2459.61
866.15	2508.76
866.32	2441.18
866.49	2406.36
866.65	2508.76
866.82	2244.57
866.99	2473.95
867.16	2457.56
867.32	2392.03
867.49	2406.36
867.66	2500.57
867.83	2461.66
867.99	2187.23
868.16	2396.12
868.33	2322.40
868.49	2496.47
868.66	2375.64
868.83	2437.08
868.99	2455.51
869.16	2547.67
869.33	2441.18
869.50	2473.95
869.66	2498.52
869.83	2461.66
870.00	2242.53
870.16	2498.52
870.33	2402.27
870.50	2564.06
870.66	2445.27
870.83	2488.28
871.00	2439.13
871.17	2506.71
871.33	2480.09
871.50	2375.64
871.67	2443.23
871.83	2441.18
872.00	2459.61
872.17	2387.93
872.33	2736.09
872.50	2662.36
872.67	2381.79
872.83	2375.64
873.00	2523.10
873.17	2420.70
873.33	2453.47
873.50	2422.75
873.67	2322.40
873.83	2441.18
874.00	2480.09
874.16	2478.04
874.33	2455.51
874.50	2273.25
874.66	2353.12
874.83	2412.51
875.00	2637.78
875.16	2607.06
875.33	2465.75
875.50	2150.37
875.66	2387.93
875.83	2496.47
875.99	2428.89
876.16	2482.14
876.33	2400.22
876.49	2435.03
876.66	2449.37
876.83	2414.56
876.99	2224.09
877.16	2445.27
877.32	2420.70
877.49	2383.84
877.66	2523.10
877.82	2693.08
877.99	2463.71
878.15	2482.14
878.32	2508.76
878.49	2488.28
878.65	2355.16
878.82	2568.15
878.98	2422.75
879.15	2621.40
879.32	2432.99
879.48	2389.98
879.65	2480.09
879.81	2451.42
879.98	2351.07
880.15	2443.23
880.31	2564.06
880.48	2412.51
880.64	2504.67
880.81	2457.56
880.97	2764.76
881.14	2619.35
881.31	2342.88
881.47	2564.06
881.64	2373.60
881.80	2289.63
881.97	2404.32
882.13	2428.89
882.30	2385.88
882.47	2359.26
882.63	2355.16
882.80	2351.07
882.96	2367.45
883.13	2582.49
883.29	2449.37
883.46	2428.89
883.62	2805.72
883.79	2566.10
883.95	2525.15
884.12	2375.64
884.29	2598.87
884.45	2430.94
884.62	2459.61
884.78	2314.20
884.95	2650.07
885.11	2387.93
885.28	2389.98
885.44	2365.40
885.61	2531.29
885.77	2635.74
885.94	2457.56
886.10	2475.99
886.27	2539.48
886.43	2631.64
886.60	2512.86
886.76	2406.36
886.93	2412.51
887.09	2459.61
887.26	2357.21
887.42	2394.08
887.59	2594.78
887.75	2797.53
887.92	2572.25
888.08	2519.00
888.25	2652.12
888.41	2611.16
888.58	2457.56
888.74	2244.57
888.91	2482.14
>>>>>End Processed Spectral Data<<<<<
