SpectraSuite Data File
++++++++++++++++++++++++++++++++++++
Date: Thu May 05 14:42:18 CEST 2016
User: root
Dark Spectrum Present: No
Reference Spectrum Present: No
Number of Sampled Component Spectra: 1
Spectrometers: USB4C02835
Integration Time (usec): 100000 (USB4C02835)
Spectra Averaged: 1 (USB4C02835)
Boxcar Smoothing: 0 (USB4C02835)
Correct for Electrical Dark: No (USB4C02835)
Strobe/Lamp Enabled: No (USB4C02835)
Correct for Detector Non-linearity: No (USB4C02835)
Correct for Stray Light: No (USB4C02835)
Number of Pixels in Processed Spectrum: 3648
>>>>>Begin Processed Spectral Data<<<<<
177.47	1925.09
177.69	1925.09
177.91	1925.09
178.13	1896.42
178.36	1892.32
178.58	2258.91
178.80	2484.19
179.02	2342.88
179.24	2471.90
179.46	2318.30
179.68	2363.36
179.90	2459.61
180.13	2467.80
180.35	2265.05
180.57	2396.12
180.79	2605.02
181.01	2498.52
181.23	2375.64
181.45	2537.43
181.67	2543.58
181.90	2580.44
182.12	2252.77
182.34	2248.67
182.56	2580.44
182.78	2498.52
183.00	2258.91
183.22	2324.44
183.44	2299.87
183.66	2846.68
183.89	2498.52
184.11	2322.40
184.33	2559.96
184.55	2600.92
184.77	2353.12
184.99	2312.16
185.21	2441.18
185.43	2740.18
185.65	2308.06
185.87	2424.80
186.10	2781.14
186.32	2768.85
186.54	2428.89
186.76	2461.66
186.98	2580.44
187.20	2516.95
187.42	2432.99
187.64	2394.08
187.86	2498.52
188.08	2613.21
188.30	2308.06
188.52	2396.12
188.75	2662.36
188.97	2670.55
189.19	2398.17
189.41	2326.49
189.63	2559.96
189.85	2506.71
190.07	2273.25
190.29	2215.90
190.51	2527.19
190.73	2308.06
190.95	2473.95
191.17	2355.16
191.39	2338.78
191.61	2478.04
191.84	2349.02
192.06	2459.61
192.28	2310.11
192.50	2873.30
192.72	2449.37
192.94	2439.13
193.16	2650.07
193.38	2482.14
193.60	2244.57
193.82	2375.64
194.04	2635.74
194.26	2506.71
194.48	2326.49
194.70	2299.87
194.92	2432.99
195.14	2516.95
195.36	2326.49
195.58	2396.12
195.80	2426.84
196.02	2412.51
196.24	2279.39
196.46	2455.51
196.69	2385.88
196.91	2805.72
197.13	2316.25
197.35	2392.03
197.57	2693.08
197.79	2578.39
198.01	2387.93
198.23	2367.45
198.45	2535.39
198.67	2396.12
198.89	2295.77
199.11	2455.51
199.33	2475.99
199.55	2205.66
199.77	2308.06
199.99	2424.80
200.21	2535.39
200.43	2502.62
200.65	2179.04
200.87	2158.56
201.09	2447.32
201.31	2441.18
201.53	2398.17
201.75	2385.88
201.97	2588.63
202.19	2486.23
202.41	2455.51
202.63	2537.43
202.85	2547.67
203.07	2506.71
203.29	2375.64
203.51	2287.58
203.73	2308.06
203.95	2783.19
204.17	2445.27
204.39	2447.32
204.61	2435.03
204.83	2482.14
205.05	2492.38
205.27	2443.23
205.49	2760.66
205.71	2392.03
205.93	2217.95
206.15	2334.68
206.37	2486.23
206.59	2486.23
206.81	2316.25
207.03	2324.44
207.25	2428.89
207.47	2576.34
207.69	2367.45
207.91	2535.39
208.13	2711.51
208.34	2461.66
208.56	2263.01
208.78	2379.74
209.00	2416.60
209.22	2475.99
209.44	2404.32
209.66	2308.06
209.88	2457.56
210.10	2424.80
210.32	2250.72
210.54	2445.27
210.76	2473.95
210.98	2572.25
211.20	2252.77
211.42	2482.14
211.64	2693.08
211.86	2602.97
212.08	2449.37
212.30	2422.75
212.52	2508.76
212.74	2543.58
212.96	2367.45
213.17	2480.09
213.39	2512.86
213.61	2680.79
213.83	2260.96
214.05	2430.94
214.27	2668.50
214.49	2404.32
214.71	2303.96
214.93	2392.03
215.15	2494.43
215.37	2519.00
215.59	2308.06
215.81	2377.69
216.03	2566.10
216.24	2562.01
216.46	2363.36
216.68	2322.40
216.90	2535.39
217.12	2709.46
217.34	2314.20
217.56	2506.71
217.78	2662.36
218.00	2590.68
218.22	2402.27
218.44	2432.99
218.66	2496.47
218.87	2742.23
219.09	2316.25
219.31	2373.60
219.53	2502.62
219.75	2424.80
219.97	2334.68
220.19	2359.26
220.41	2441.18
220.63	2748.37
220.85	2365.40
221.06	2367.45
221.28	2650.07
221.50	2555.86
221.72	2334.68
221.94	2295.77
222.16	2541.53
222.38	2508.76
222.60	2334.68
222.82	2412.51
223.03	2594.78
223.25	2349.02
223.47	2334.68
223.69	2559.96
223.91	2537.43
224.13	2496.47
224.35	2265.05
224.57	2475.99
224.78	2514.91
225.00	2318.30
225.22	2414.56
225.44	2314.20
225.66	2572.25
225.88	2422.75
226.10	2461.66
226.32	2342.88
226.53	2648.02
226.75	2510.81
226.97	2365.40
227.19	2340.83
227.41	2416.60
227.63	2484.19
227.85	2252.77
228.06	2320.35
228.28	2514.91
228.50	2570.20
228.72	2277.34
228.94	2310.11
229.16	2381.79
229.37	2365.40
229.59	2349.02
229.81	2451.42
230.03	2471.90
230.25	2320.35
230.47	2215.90
230.69	2275.29
230.90	2613.21
231.12	2324.44
231.34	2447.32
231.56	2416.60
231.78	2367.45
232.00	2519.00
232.21	2373.60
232.43	2432.99
232.65	2299.87
232.87	2545.63
233.09	2240.48
233.30	2289.63
233.52	2670.55
233.74	2519.00
233.96	2326.49
234.18	2416.60
234.40	2453.47
234.61	2711.51
234.83	2293.72
235.05	2308.06
235.27	2783.19
235.49	2775.00
235.70	2299.87
235.92	2375.64
236.14	2594.78
236.36	2811.86
236.58	2217.95
236.79	2441.18
237.01	2414.56
237.23	2492.38
237.45	2502.62
237.67	2306.01
237.88	2562.01
238.10	2705.37
238.32	2260.96
238.54	2330.59
238.76	2488.28
238.97	2498.52
239.19	2291.68
239.41	2459.61
239.63	2643.93
239.85	2424.80
240.06	2392.03
240.28	2318.30
240.50	2609.11
240.72	2492.38
240.93	2371.55
241.15	2486.23
241.37	2500.57
241.59	2648.02
241.81	2336.73
242.02	2367.45
242.24	2576.34
242.46	2480.09
242.68	2217.95
242.89	2318.30
243.11	2562.01
243.33	2414.56
243.55	2422.75
243.76	2396.12
243.98	2342.88
244.20	2457.56
244.42	2385.88
244.64	2461.66
244.85	2353.12
245.07	2361.31
245.29	2310.11
245.51	2363.36
245.72	2482.14
245.94	2586.58
246.16	2402.27
246.38	2387.93
246.59	2422.75
246.81	2365.40
247.03	2342.88
247.24	2265.05
247.46	2375.64
247.68	2525.15
247.90	2277.34
248.11	2367.45
248.33	2605.02
248.55	2467.80
248.77	2389.98
248.98	2453.47
249.20	2686.94
249.42	2506.71
249.64	2318.30
249.85	2283.49
250.07	2367.45
250.29	2594.78
250.50	2457.56
250.72	2285.53
250.94	2562.01
251.16	2775.00
251.37	2371.55
251.59	2420.70
251.81	2602.97
252.02	2746.33
252.24	2324.44
252.46	2453.47
252.68	2392.03
252.89	2469.85
253.11	2258.91
253.33	2469.85
253.54	2635.74
253.76	2326.49
253.98	2332.64
254.20	2285.53
254.41	2322.40
254.63	2439.13
254.85	2236.38
255.06	2385.88
255.28	2506.71
255.50	2455.51
255.71	2297.82
255.93	2207.71
256.15	2432.99
256.36	2475.99
256.58	2326.49
256.80	2332.64
257.02	2398.17
257.23	2519.00
257.45	2420.70
257.67	2361.31
257.88	2371.55
258.10	2512.86
258.32	2351.07
258.53	2410.46
258.75	2701.27
258.97	2392.03
259.18	2281.44
259.40	2318.30
259.62	2713.56
259.83	2678.74
260.05	2355.16
260.27	2932.69
260.48	2668.50
260.70	2363.36
260.92	2260.96
261.13	2408.41
261.35	2519.00
261.57	2537.43
261.78	2260.96
262.00	2332.64
262.22	2572.25
262.43	2326.49
262.65	2412.51
262.86	2398.17
263.08	2736.09
263.30	2498.52
263.51	2176.99
263.73	2256.86
263.95	2643.93
264.16	2365.40
264.38	2293.72
264.60	2363.36
264.81	2465.75
265.03	2670.55
265.25	2519.00
265.46	2353.12
265.68	2559.96
265.89	2590.68
266.11	2193.37
266.33	2408.41
266.54	2637.78
266.76	2514.91
266.98	2398.17
267.19	2459.61
267.41	2547.67
267.62	2461.66
267.84	2201.57
268.06	2428.89
268.27	2461.66
268.49	2662.36
268.70	2432.99
268.92	2453.47
269.14	2383.84
269.35	2277.34
269.57	2469.85
269.79	2400.22
270.00	2418.65
270.22	2684.89
270.43	2201.57
270.65	2254.81
270.87	2445.27
271.08	2648.02
271.30	2449.37
271.51	2383.84
271.73	2596.82
271.95	2637.78
272.16	2381.79
272.38	2437.08
272.59	2445.27
272.81	2619.35
273.02	2367.45
273.24	2400.22
273.46	2605.02
273.67	2369.50
273.89	2269.15
274.10	2412.51
274.32	2570.20
274.54	2512.86
274.75	2478.04
274.97	2349.02
275.18	2512.86
275.40	2514.91
275.61	2467.80
275.83	2469.85
276.05	2355.16
276.26	2508.76
276.48	2465.75
276.69	2402.27
276.91	2496.47
277.12	2635.74
277.34	2519.00
277.55	2475.99
277.77	2478.04
277.99	2502.62
278.20	2334.68
278.42	2277.34
278.63	2414.56
278.85	2404.32
279.06	2342.88
279.28	2492.38
279.49	2572.25
279.71	2559.96
279.93	2523.10
280.14	2457.56
280.36	2404.32
280.57	2566.10
280.79	2531.29
281.00	2367.45
281.22	2424.80
281.43	2586.58
281.65	2217.95
281.86	2346.97
282.08	2516.95
282.29	2682.84
282.51	2306.01
282.73	2297.82
282.94	2279.39
283.16	2580.44
283.37	2555.86
283.59	2418.65
283.80	2531.29
284.02	2469.85
284.23	2414.56
284.45	2457.56
284.66	2387.93
284.88	2445.27
285.09	2428.89
285.31	2465.75
285.52	2594.78
285.74	2303.96
285.95	2613.21
286.17	2414.56
286.38	2645.98
286.60	2416.60
286.81	2263.01
287.03	2383.84
287.24	2482.14
287.46	2549.72
287.67	2480.09
287.89	2721.75
288.10	2453.47
288.32	2424.80
288.53	2514.91
288.75	2359.26
288.96	2600.92
289.18	2326.49
289.39	2441.18
289.61	2531.29
289.82	2703.32
290.04	2658.26
290.25	2342.88
290.47	2387.93
290.68	2410.46
290.90	2611.16
291.11	2303.96
291.33	2543.58
291.54	2283.49
291.76	2346.97
291.97	2441.18
292.18	2371.55
292.40	2439.13
292.61	2445.27
292.83	2623.45
293.04	2443.23
293.26	2488.28
293.47	2486.23
293.69	2330.59
293.90	2351.07
294.12	2637.78
294.33	2498.52
294.55	2447.32
294.76	2572.25
294.97	2701.27
295.19	2793.43
295.40	2432.99
295.62	2465.75
295.83	2674.65
296.05	2389.98
296.26	2564.06
296.48	2414.56
296.69	2459.61
296.90	2529.24
297.12	2531.29
297.33	2600.92
297.55	2545.63
297.76	2555.86
297.98	2478.04
298.19	2523.10
298.41	2473.95
298.62	2355.16
298.83	2527.19
299.05	2465.75
299.26	2432.99
299.48	2353.12
299.69	2471.90
299.90	2430.94
300.12	2373.60
300.33	2627.54
300.55	2396.12
300.76	2471.90
300.98	2379.74
301.19	2607.06
301.40	2394.08
301.62	2416.60
301.83	2467.80
302.05	2488.28
302.26	2416.60
302.47	2396.12
302.69	2322.40
302.90	2551.77
303.12	2226.14
303.33	2535.39
303.54	2701.27
303.76	2441.18
303.97	2457.56
304.19	2504.67
304.40	2416.60
304.61	2471.90
304.83	2576.34
305.04	2527.19
305.26	2473.95
305.47	2418.65
305.68	2492.38
305.90	2318.30
306.11	2660.31
306.33	2473.95
306.54	2318.30
306.75	2406.36
306.97	2334.68
307.18	2385.88
307.39	2422.75
307.61	2527.19
307.82	2418.65
308.04	2514.91
308.25	2346.97
308.46	2490.33
308.68	2430.94
308.89	2416.60
309.10	2547.67
309.32	2441.18
309.53	2473.95
309.74	2609.11
309.96	2359.26
310.17	2484.19
310.39	2467.80
310.60	2578.39
310.81	2482.14
311.03	2318.30
311.24	2508.76
311.45	2502.62
311.67	2572.25
311.88	2539.48
312.09	2512.86
312.31	2408.41
312.52	2318.30
312.73	2392.03
312.95	2328.54
313.16	2349.02
313.37	2502.62
313.59	2557.91
313.80	2584.54
314.01	2703.32
314.23	2416.60
314.44	2400.22
314.65	2318.30
314.87	2351.07
315.08	2369.50
315.29	2465.75
315.51	2340.83
315.72	2308.06
315.93	2568.15
316.15	2478.04
316.36	2394.08
316.57	2459.61
316.79	2430.94
317.00	2389.98
317.21	2570.20
317.43	2353.12
317.64	2392.03
317.85	2367.45
318.07	2299.87
318.28	2441.18
318.49	2611.16
318.70	2680.79
318.92	2645.98
319.13	2500.57
319.34	2621.40
319.56	2478.04
319.77	2594.78
319.98	2541.53
320.20	2598.87
320.41	2551.77
320.62	2553.82
320.83	2363.36
321.05	2676.70
321.26	2420.70
321.47	2545.63
321.69	2674.65
321.90	2318.30
322.11	2334.68
322.32	2482.14
322.54	2664.41
322.75	2418.65
322.96	2918.36
323.18	2195.42
323.39	2197.47
323.60	2330.59
323.81	2586.58
324.03	2379.74
324.24	2527.19
324.45	2547.67
324.66	2351.07
324.88	2594.78
325.09	2695.13
325.30	2404.32
325.52	2418.65
325.73	2553.82
325.94	2451.42
326.15	2293.72
326.37	2324.44
326.58	2523.10
326.79	2609.11
327.00	2338.78
327.22	2392.03
327.43	2490.33
327.64	2334.68
327.85	2473.95
328.07	2527.19
328.28	2717.65
328.49	2398.17
328.70	2379.74
328.92	2439.13
329.13	2394.08
329.34	2498.52
329.55	2600.92
329.76	2473.95
329.98	2428.89
330.19	2678.74
330.40	2455.51
330.61	2482.14
330.83	2615.26
331.04	2400.22
331.25	2457.56
331.46	2381.79
331.68	2338.78
331.89	2631.64
332.10	2392.03
332.31	2228.19
332.52	2500.57
332.74	2652.12
332.95	2220.00
333.16	2435.03
333.37	2602.97
333.58	2432.99
333.80	2428.89
334.01	2310.11
334.22	2430.94
334.43	2486.23
334.64	2357.21
334.86	2297.82
335.07	2312.16
335.28	2656.22
335.49	2363.36
335.70	2473.95
335.92	2590.68
336.13	2785.24
336.34	2473.95
336.55	2424.80
336.76	2553.82
336.98	2310.11
337.19	2416.60
337.40	2582.49
337.61	2758.61
337.82	2475.99
338.04	2498.52
338.25	2250.72
338.46	2514.91
338.67	2373.60
338.88	2357.21
339.09	2320.35
339.31	2422.75
339.52	2297.82
339.73	2340.83
339.94	2439.13
340.15	2529.24
340.36	2488.28
340.58	2392.03
340.79	2330.59
341.00	2504.67
341.21	2342.88
341.42	2588.63
341.63	2445.27
341.85	2566.10
342.06	2576.34
342.27	2336.73
342.48	2486.23
342.69	2291.68
342.90	2547.67
343.12	2588.63
343.33	2289.63
343.54	2650.07
343.75	2590.68
343.96	2441.18
344.17	2389.98
344.38	2420.70
344.60	2396.12
344.81	2373.60
345.02	2437.08
345.23	2676.70
345.44	2766.81
345.65	2467.80
345.86	2537.43
346.07	2500.57
346.29	2338.78
346.50	2461.66
346.71	2428.89
346.92	2613.21
347.13	2711.51
347.34	2373.60
347.55	2375.64
347.76	2467.80
347.98	2303.96
348.19	2465.75
348.40	2662.36
348.61	2396.12
348.82	2693.08
349.03	2521.05
349.24	2334.68
349.45	2744.28
349.66	2250.72
349.88	2383.84
350.09	2404.32
350.30	2562.01
350.51	2678.74
350.72	2432.99
350.93	2410.46
351.14	2414.56
351.35	2504.67
351.56	2494.43
351.77	2412.51
351.99	2443.23
352.20	2645.98
352.41	2519.00
352.62	2312.16
352.83	2490.33
353.04	2451.42
353.25	2422.75
353.46	2473.95
353.67	2559.96
353.88	2269.15
354.09	2414.56
354.30	2428.89
354.52	2531.29
354.73	2457.56
354.94	2381.79
355.15	2383.84
355.36	2775.00
355.57	2392.03
355.78	2473.95
355.99	2332.64
356.20	2545.63
356.41	2629.59
356.62	2451.42
356.83	2422.75
357.04	2676.70
357.25	2318.30
357.46	2449.37
357.68	2310.11
357.89	2394.08
358.10	2432.99
358.31	2344.92
358.52	2420.70
358.73	2414.56
358.94	2299.87
359.15	2389.98
359.36	2527.19
359.57	2482.14
359.78	2480.09
359.99	2467.80
360.20	2306.01
360.41	2482.14
360.62	2543.58
360.83	2531.29
361.04	2543.58
361.25	2418.65
361.46	2691.03
361.67	2535.39
361.88	2453.47
362.09	2654.17
362.30	2516.95
362.51	2408.41
362.72	2441.18
362.93	2580.44
363.14	2488.28
363.35	2398.17
363.56	2277.34
363.78	2594.78
363.99	2590.68
364.20	2387.93
364.41	2475.99
364.62	2731.99
364.83	2508.76
365.04	2344.92
365.25	2359.26
365.46	2686.94
365.67	2412.51
365.88	2469.85
366.09	2369.50
366.30	2369.50
366.51	2525.15
366.72	2314.20
366.93	2453.47
367.14	2512.86
367.35	2678.74
367.56	2432.99
367.77	2510.81
367.98	2451.42
368.18	2547.67
368.39	2484.19
368.60	2357.21
368.81	2576.34
369.02	2578.39
369.23	2502.62
369.44	2254.81
369.65	2441.18
369.86	2523.10
370.07	2584.54
370.28	2357.21
370.49	2531.29
370.70	2609.11
370.91	2326.49
371.12	2258.91
371.33	2635.74
371.54	2381.79
371.75	2617.30
371.96	2220.00
372.17	2486.23
372.38	2478.04
372.59	2482.14
372.80	2422.75
373.01	2500.57
373.22	2490.33
373.43	2414.56
373.64	2277.34
373.85	2635.74
374.06	2654.17
374.26	2570.20
374.47	2443.23
374.68	2693.08
374.89	2576.34
375.10	2375.64
375.31	2541.53
375.52	2510.81
375.73	2502.62
375.94	2283.49
376.15	2645.98
376.36	2400.22
376.57	2416.60
376.78	2387.93
376.99	2494.43
377.20	2621.40
377.40	2457.56
377.61	2564.06
377.82	2328.54
378.03	2713.56
378.24	2445.27
378.45	2461.66
378.66	2512.86
378.87	2297.82
379.08	2306.01
379.29	2459.61
379.50	2551.77
379.71	2492.38
379.91	2555.86
380.12	2430.94
380.33	2383.84
380.54	2572.25
380.75	2447.32
380.96	2445.27
381.17	2596.82
381.38	2398.17
381.59	2461.66
381.80	2512.86
382.00	2731.99
382.21	2549.72
382.42	2754.52
382.63	2699.22
382.84	2613.21
383.05	2568.15
383.26	2613.21
383.47	2490.33
383.68	2543.58
383.88	2617.30
384.09	2512.86
384.30	2674.65
384.51	2527.19
384.72	2459.61
384.93	2326.49
385.14	2445.27
385.35	2592.73
385.55	2299.87
385.76	2666.46
385.97	2398.17
386.18	2316.25
386.39	2377.69
386.60	2439.13
386.81	2387.93
387.02	2371.55
387.22	2332.64
387.43	2578.39
387.64	2566.10
387.85	2643.93
388.06	2592.73
388.27	4020.16
388.48	8241.03
388.68	12062.54
388.89	14532.39
389.10	15470.36
389.31	14704.42
389.52	11687.76
389.73	10045.29
389.93	9234.29
390.14	8435.58
390.35	7536.52
390.56	6741.91
390.77	5337.01
390.98	4171.71
391.18	3434.44
391.39	2965.46
391.60	2602.97
391.81	2703.32
392.02	2430.94
392.23	2709.46
392.43	2531.29
392.64	2562.01
392.85	2447.32
393.06	2777.05
393.27	2467.80
393.47	2435.03
393.68	2519.00
393.89	2443.23
394.10	2699.22
394.31	2392.03
394.52	2359.26
394.72	2412.51
394.93	2705.37
395.14	2418.65
395.35	2514.91
395.56	2365.40
395.76	2410.46
395.97	2498.52
396.18	2629.59
396.39	2482.14
396.60	3000.27
396.80	2725.85
397.01	2607.06
397.22	2654.17
397.43	2674.65
397.64	2492.38
397.84	2609.11
398.05	2754.52
398.26	2527.19
398.47	2490.33
398.67	2537.43
398.88	2516.95
399.09	2498.52
399.30	2398.17
399.51	2613.21
399.71	2400.22
399.92	2455.51
400.13	2465.75
400.34	2357.21
400.54	2512.86
400.75	2650.07
400.96	2494.43
401.17	2637.78
401.37	2605.02
401.58	2572.25
401.79	2383.84
402.00	2629.59
402.21	2928.60
402.41	2627.54
402.62	2752.47
402.83	2885.59
403.04	2979.79
403.24	3078.10
403.45	2570.20
403.66	2787.29
403.87	2654.17
404.07	2668.50
404.28	2711.51
404.49	2715.61
404.70	2545.63
404.90	2605.02
405.11	2510.81
405.32	2568.15
405.52	2353.12
405.73	2406.36
405.94	2398.17
406.15	2494.43
406.35	2572.25
406.56	2625.50
406.77	2488.28
406.98	2523.10
407.18	2371.55
407.39	2748.37
407.60	2480.09
407.80	2545.63
408.01	2346.97
408.22	2441.18
408.43	2426.84
408.63	2529.24
408.84	2613.21
409.05	2576.34
409.25	2318.30
409.46	2328.54
409.67	2467.80
409.88	2449.37
410.08	2504.67
410.29	2414.56
410.50	2613.21
410.70	2602.97
410.91	2316.25
411.12	2471.90
411.32	2461.66
411.53	2394.08
411.74	2535.39
411.95	2500.57
412.15	2555.86
412.36	2602.97
412.57	2578.39
412.77	2574.30
412.98	2478.04
413.19	2451.42
413.39	2510.81
413.60	2557.91
413.81	2787.29
414.01	2344.92
414.22	2588.63
414.43	2580.44
414.63	2449.37
414.84	2643.93
415.05	2453.47
415.25	2369.50
415.46	2625.50
415.67	2422.75
415.87	2504.67
416.08	2451.42
416.29	2408.41
416.49	2521.05
416.70	2537.43
416.91	2424.80
417.11	2482.14
417.32	2547.67
417.53	2482.14
417.73	2486.23
417.94	2459.61
418.15	2613.21
418.35	2379.74
418.56	2432.99
418.77	2850.77
418.97	2465.75
419.18	2457.56
419.38	2179.04
419.59	2506.71
419.80	2736.09
420.00	2447.32
420.21	2435.03
420.42	2609.11
420.62	2527.19
420.83	2412.51
421.04	2443.23
421.24	2430.94
421.45	2572.25
421.65	2531.29
421.86	2375.64
422.07	2514.91
422.27	2557.91
422.48	2428.89
422.69	2344.92
422.89	2555.86
423.10	2465.75
423.30	2353.12
423.51	2512.86
423.72	2506.71
423.92	2605.02
424.13	2328.54
424.33	2521.05
424.54	2529.24
424.75	2523.10
424.95	2654.17
425.16	2494.43
425.36	2443.23
425.57	2596.82
425.78	2547.67
425.98	2541.53
426.19	2490.33
426.39	2439.13
426.60	2531.29
426.81	2580.44
427.01	2490.33
427.22	2387.93
427.42	2220.00
427.63	2369.50
427.83	2545.63
428.04	2711.51
428.25	2596.82
428.45	2539.48
428.66	2586.58
428.86	2498.52
429.07	2463.71
429.28	2439.13
429.48	2568.15
429.69	2410.46
429.89	2482.14
430.10	2299.87
430.30	2557.91
430.51	2568.15
430.71	2441.18
430.92	2449.37
431.13	2467.80
431.33	2559.96
431.54	2469.85
431.74	2645.98
431.95	2801.62
432.15	2398.17
432.36	2473.95
432.56	2527.19
432.77	2674.65
432.98	2736.09
433.18	2482.14
433.39	2414.56
433.59	2406.36
433.80	2701.27
434.00	2752.47
434.21	2320.35
434.41	2439.13
434.62	2820.05
434.82	2367.45
435.03	2435.03
435.23	2508.76
435.44	2340.83
435.64	2473.95
435.85	2529.24
436.06	2611.16
436.26	2551.77
436.47	2443.23
436.67	2387.93
436.88	2471.90
437.08	2645.98
437.29	2621.40
437.49	2523.10
437.70	2645.98
437.90	2572.25
438.11	2662.36
438.31	2500.57
438.52	2736.09
438.72	2695.13
438.93	2838.48
439.13	2502.62
439.34	2695.13
439.54	2396.12
439.75	2572.25
439.95	2527.19
440.16	2467.80
440.36	2535.39
440.57	2461.66
440.77	2424.80
440.98	2584.54
441.18	2586.58
441.39	2422.75
441.59	2338.78
441.80	2760.66
442.00	2500.57
442.21	2578.39
442.41	2332.64
442.62	2637.78
442.82	2426.84
443.02	2473.95
443.23	2539.48
443.43	2400.22
443.64	2691.03
443.84	2285.53
444.05	2631.64
444.25	2453.47
444.46	2430.94
444.66	2490.33
444.87	2586.58
445.07	2271.20
445.28	2494.43
445.48	2531.29
445.69	2613.21
445.89	2777.05
446.09	2463.71
446.30	2746.33
446.50	2961.36
446.71	4652.98
446.91	5865.38
447.12	6637.47
447.32	7106.45
447.53	6543.26
447.73	5447.60
447.93	4968.37
448.14	4542.39
448.34	4364.22
448.55	3801.03
448.75	3831.75
448.96	3620.81
449.16	3303.37
449.36	3061.71
449.57	2760.66
449.77	2553.82
449.98	2498.52
450.18	2510.81
450.39	2580.44
450.59	2551.77
450.79	2494.43
451.00	2424.80
451.20	2588.63
451.41	2402.27
451.61	2553.82
451.81	2432.99
452.02	2357.21
452.22	2404.32
452.43	2457.56
452.63	2432.99
452.84	2480.09
453.04	2437.08
453.24	2623.45
453.45	2478.04
453.65	2510.81
453.86	2490.33
454.06	2588.63
454.26	2523.10
454.47	2328.54
454.67	2631.64
454.87	2582.49
455.08	2400.22
455.28	2578.39
455.49	2582.49
455.69	2330.59
455.89	2809.81
456.10	2635.74
456.30	2443.23
456.51	2564.06
456.71	2541.53
456.91	2576.34
457.12	2490.33
457.32	2463.71
457.52	2310.11
457.73	2525.15
457.93	2605.02
458.14	2435.03
458.34	2332.64
458.54	2527.19
458.75	2451.42
458.95	2660.31
459.15	2488.28
459.36	2473.95
459.56	2453.47
459.76	2777.05
459.97	2500.57
460.17	2439.13
460.37	2566.10
460.58	2496.47
460.78	2637.78
460.99	2451.42
461.19	2453.47
461.39	2379.74
461.60	2504.67
461.80	2527.19
462.00	2316.25
462.21	2545.63
462.41	2357.21
462.61	2338.78
462.82	2252.77
463.02	2457.56
463.22	2465.75
463.43	2578.39
463.63	2488.28
463.83	2703.32
464.04	2557.91
464.24	2414.56
464.44	2320.35
464.64	2533.34
464.85	2656.22
465.05	2516.95
465.25	2451.42
465.46	2465.75
465.66	2621.40
465.86	2523.10
466.07	2506.71
466.27	2437.08
466.47	2416.60
466.68	2340.83
466.88	2668.50
467.08	2514.91
467.29	2547.67
467.49	2545.63
467.69	2469.85
467.89	2621.40
468.10	2455.51
468.30	2529.24
468.50	2650.07
468.71	2598.87
468.91	2318.30
469.11	2641.88
469.31	2543.58
469.52	2482.14
469.72	2631.64
469.92	2670.55
470.13	2471.90
470.33	2523.10
470.53	2566.10
470.73	2912.21
470.94	3233.74
471.14	3358.67
471.34	3915.72
471.54	3600.33
471.75	3393.48
471.95	3047.38
472.15	2944.98
472.36	3055.57
472.56	2987.99
472.76	2947.03
472.96	2977.75
473.17	2736.09
473.37	2654.17
473.57	2535.39
473.77	2594.78
473.98	2484.19
474.18	2349.02
474.38	2883.54
474.58	2478.04
474.79	2453.47
474.99	2557.91
475.19	2564.06
475.39	2273.25
475.60	2457.56
475.80	2494.43
476.00	2545.63
476.20	2478.04
476.41	2527.19
476.61	2547.67
476.81	2635.74
477.01	2441.18
477.21	2557.91
477.42	2633.69
477.62	2422.75
477.82	2564.06
478.02	2459.61
478.23	2449.37
478.43	2455.51
478.63	2465.75
478.83	2469.85
479.03	2416.60
479.24	2725.85
479.44	2779.09
479.64	2314.20
479.84	2273.25
480.04	2488.28
480.25	2609.11
480.45	2324.44
480.65	2404.32
480.85	2641.88
481.06	2412.51
481.26	2543.58
481.46	2508.76
481.66	2508.76
481.86	2385.88
482.06	2670.55
482.27	2400.22
482.47	2334.68
482.67	2490.33
482.87	2441.18
483.07	2543.58
483.28	2428.89
483.48	2432.99
483.68	2496.47
483.88	2318.30
484.08	2215.90
484.29	2351.07
484.49	2512.86
484.69	2267.10
484.89	2676.70
485.09	2637.78
485.29	2562.01
485.50	2473.95
485.70	2455.51
485.90	2631.64
486.10	2422.75
486.30	2510.81
486.50	2617.30
486.71	2516.95
486.91	2609.11
487.11	2547.67
487.31	2365.40
487.51	2607.06
487.71	2314.20
487.91	2369.50
488.12	2408.41
488.32	2281.44
488.52	2355.16
488.72	2287.58
488.92	2551.77
489.12	2635.74
489.32	2568.15
489.53	2605.02
489.73	2256.86
489.93	2615.26
490.13	2457.56
490.33	2318.30
490.53	2498.52
490.73	2617.30
490.94	2373.60
491.14	2576.34
491.34	2625.50
491.54	2791.38
491.74	3393.48
491.94	3962.82
492.14	4263.87
492.34	4349.89
492.54	4018.11
492.75	3391.44
492.95	3461.07
493.15	3266.51
493.35	3133.39
493.55	3094.48
493.75	2887.64
493.95	2895.83
494.15	2736.09
494.35	2570.20
494.56	2502.62
494.76	2379.74
494.96	2613.21
495.16	2394.08
495.36	2461.66
495.56	2398.17
495.76	2457.56
495.96	2439.13
496.16	2465.75
496.36	2707.41
496.56	2449.37
496.77	2568.15
496.97	2494.43
497.17	2680.79
497.37	2332.64
497.57	2564.06
497.77	2541.53
497.97	2340.83
498.17	2580.44
498.37	2398.17
498.57	2576.34
498.77	2432.99
498.97	2572.25
499.17	2691.03
499.38	2463.71
499.58	2533.34
499.78	2637.78
499.98	2596.82
500.18	2473.95
500.38	2473.95
500.58	2637.78
500.78	3143.63
500.98	5429.17
501.18	7514.00
501.38	9211.76
501.58	10127.21
501.78	9994.09
501.98	7972.74
502.18	6700.95
502.38	5769.13
502.58	5492.65
502.78	4868.02
502.98	4691.90
503.18	4448.19
503.38	4093.89
503.59	3469.26
503.79	3420.11
503.99	3192.78
504.19	3071.95
504.39	3030.99
504.59	3223.50
504.79	3102.67
504.99	3080.14
505.19	2887.64
505.39	2688.98
505.59	2901.97
505.79	2793.43
505.99	2721.75
506.19	2496.47
506.39	2652.12
506.59	2496.47
506.79	2576.34
506.99	2633.69
507.19	2508.76
507.39	2566.10
507.59	2357.21
507.79	2451.42
507.99	2416.60
508.19	2541.53
508.39	2439.13
508.59	2424.80
508.79	2666.46
508.99	2684.89
509.19	2455.51
509.39	2523.10
509.59	2363.36
509.79	2459.61
509.99	2543.58
510.19	2564.06
510.39	2635.74
510.59	2465.75
510.79	2437.08
510.99	2312.16
511.19	2490.33
511.39	2662.36
511.59	2629.59
511.79	2586.58
511.99	2428.89
512.19	2668.50
512.38	2484.19
512.58	2357.21
512.78	2504.67
512.98	2660.31
513.18	2666.46
513.38	2342.88
513.58	2564.06
513.78	2482.14
513.98	2457.56
514.18	2406.36
514.38	2469.85
514.58	2492.38
514.78	2486.23
514.98	2340.83
515.18	2418.65
515.38	2383.84
515.58	2701.27
515.78	2420.70
515.98	2494.43
516.18	2566.10
516.38	2467.80
516.57	2373.60
516.77	2398.17
516.97	2529.24
517.17	2342.88
517.37	2285.53
517.57	2510.81
517.77	2455.51
517.97	2310.11
518.17	2453.47
518.37	2381.79
518.57	2473.95
518.77	2535.39
518.97	2410.46
519.16	2500.57
519.36	2682.84
519.56	2490.33
519.76	2484.19
519.96	2473.95
520.16	2678.74
520.36	2351.07
520.56	2652.12
520.76	2389.98
520.96	2453.47
521.16	2633.69
521.35	2580.44
521.55	2590.68
521.75	2539.48
521.95	2400.22
522.15	2400.22
522.35	2295.77
522.55	2402.27
522.75	2504.67
522.95	2359.26
523.14	2340.83
523.34	2506.71
523.54	2369.50
523.74	2555.86
523.94	2439.13
524.14	2297.82
524.34	2486.23
524.54	2633.69
524.73	2449.37
524.93	2543.58
525.13	2523.10
525.33	2375.64
525.53	2658.26
525.73	2625.50
525.93	2504.67
526.13	2310.11
526.32	2467.80
526.52	2611.16
526.72	2613.21
526.92	2398.17
527.12	2355.16
527.32	2316.25
527.52	2529.24
527.71	2498.52
527.91	2494.43
528.11	2408.41
528.31	2480.09
528.51	2316.25
528.71	2508.76
528.90	2584.54
529.10	2551.77
529.30	2582.49
529.50	2244.57
529.70	2570.20
529.90	2420.70
530.09	2490.33
530.29	2385.88
530.49	2387.93
530.69	2762.71
530.89	2473.95
531.09	2545.63
531.28	2414.56
531.48	2602.97
531.68	2441.18
531.88	2504.67
532.08	2609.11
532.28	2447.32
532.47	2498.52
532.67	2535.39
532.87	2625.50
533.07	2359.26
533.27	2641.88
533.46	2541.53
533.66	2496.47
533.86	2498.52
534.06	2514.91
534.26	2568.15
534.45	2494.43
534.65	2609.11
534.85	2496.47
535.05	2455.51
535.25	2596.82
535.44	2299.87
535.64	2580.44
535.84	2457.56
536.04	2439.13
536.24	2486.23
536.43	2426.84
536.63	2486.23
536.83	2512.86
537.03	2510.81
537.22	2349.02
537.42	2324.44
537.62	2498.52
537.82	2387.93
538.02	2598.87
538.21	2578.39
538.41	2854.87
538.61	2508.76
538.81	2447.32
539.00	2613.21
539.20	2306.01
539.40	2414.56
539.60	2523.10
539.79	2533.34
539.99	2453.47
540.19	2369.50
540.39	2461.66
540.58	2447.32
540.78	2576.34
540.98	2430.94
541.18	2611.16
541.37	2539.48
541.57	2506.71
541.77	2516.95
541.97	2414.56
542.16	2297.82
542.36	2455.51
542.56	2449.37
542.76	2748.37
542.95	2555.86
543.15	2521.05
543.35	2629.59
543.54	2396.12
543.74	2445.27
543.94	2693.08
544.14	2445.27
544.33	2586.58
544.53	2488.28
544.73	2375.64
544.93	2453.47
545.12	2449.37
545.32	2441.18
545.52	2459.61
545.71	2383.84
545.91	2351.07
546.11	2449.37
546.30	2344.92
546.50	2465.75
546.70	2480.09
546.90	2498.52
547.09	2310.11
547.29	2467.80
547.49	2502.62
547.68	2494.43
547.88	2359.26
548.08	2547.67
548.27	2942.93
548.47	2383.84
548.67	2461.66
548.87	2584.54
549.06	2465.75
549.26	2480.09
549.46	2596.82
549.65	2480.09
549.85	2521.05
550.05	2547.67
550.24	2252.77
550.44	2494.43
550.64	2508.76
550.83	2525.15
551.03	2629.59
551.23	2580.44
551.42	2531.29
551.62	2424.80
551.82	2492.38
552.01	2498.52
552.21	2654.17
552.41	2465.75
552.60	2664.41
552.80	2465.75
553.00	2330.59
553.19	2496.47
553.39	2731.99
553.59	2416.60
553.78	2562.01
553.98	2469.85
554.17	2308.06
554.37	2519.00
554.57	2584.54
554.76	2306.01
554.96	2402.27
555.16	2506.71
555.35	2494.43
555.55	2523.10
555.75	2510.81
555.94	2527.19
556.14	2291.68
556.33	2523.10
556.53	2437.08
556.73	2445.27
556.92	2467.80
557.12	2519.00
557.32	2643.93
557.51	2760.66
557.71	2455.51
557.90	2668.50
558.10	2664.41
558.30	2502.62
558.49	2449.37
558.69	2512.86
558.88	2514.91
559.08	2486.23
559.28	2430.94
559.47	2496.47
559.67	2502.62
559.86	2676.70
560.06	2537.43
560.26	2455.51
560.45	2594.78
560.65	2494.43
560.84	2559.96
561.04	2416.60
561.24	2609.11
561.43	2316.25
561.63	2654.17
561.82	2519.00
562.02	2523.10
562.22	2432.99
562.41	2324.44
562.61	2422.75
562.80	2432.99
563.00	2789.33
563.19	2510.81
563.39	2414.56
563.59	2531.29
563.78	2439.13
563.98	2254.81
564.17	2480.09
564.37	2220.00
564.56	2461.66
564.76	2445.27
564.96	2551.77
565.15	2506.71
565.35	2750.42
565.54	2504.67
565.74	2492.38
565.93	2551.77
566.13	2492.38
566.32	2449.37
566.52	2596.82
566.71	2523.10
566.91	2594.78
567.11	2525.15
567.30	2346.97
567.50	2566.10
567.69	2451.42
567.89	2424.80
568.08	2387.93
568.28	2521.05
568.47	2330.59
568.67	2555.86
568.86	2414.56
569.06	2613.21
569.25	2437.08
569.45	2371.55
569.64	2455.51
569.84	2469.85
570.04	2572.25
570.23	2340.83
570.43	2432.99
570.62	2461.66
570.82	2707.41
571.01	2424.80
571.21	2506.71
571.40	2469.85
571.60	2621.40
571.79	2555.86
571.99	2424.80
572.18	2338.78
572.38	2557.91
572.57	2478.04
572.77	2490.33
572.96	2842.58
573.16	2549.72
573.35	2447.32
573.55	2629.59
573.74	2580.44
573.94	2459.61
574.13	2465.75
574.33	2570.20
574.52	2625.50
574.71	2469.85
574.91	2516.95
575.10	2441.18
575.30	2449.37
575.49	2353.12
575.69	2435.03
575.88	2482.14
576.08	2506.71
576.27	2715.61
576.47	2453.47
576.66	2772.95
576.86	2758.61
577.05	2547.67
577.25	2547.67
577.44	2697.17
577.64	2437.08
577.83	2623.45
578.02	2443.23
578.22	2611.16
578.41	2731.99
578.61	2471.90
578.80	2389.98
579.00	2537.43
579.19	2484.19
579.39	2562.01
579.58	2527.19
579.77	2445.27
579.97	2686.94
580.16	2594.78
580.36	2572.25
580.55	2580.44
580.75	2547.67
580.94	2596.82
581.13	2629.59
581.33	2635.74
581.52	2523.10
581.72	2813.91
581.91	2643.93
582.11	2375.64
582.30	2611.16
582.49	2580.44
582.69	2707.41
582.88	2539.48
583.08	2449.37
583.27	2678.74
583.47	2543.58
583.66	2412.51
583.85	2408.41
584.05	2451.42
584.24	2650.07
584.44	2533.34
584.63	2652.12
584.82	2701.27
585.02	2719.70
585.21	2666.46
585.41	2662.36
585.60	2607.06
585.79	2768.85
585.99	2717.65
586.18	2625.50
586.37	3217.36
586.57	4964.28
586.76	14728.99
586.96	34475.51
587.15	47965.48
587.34	57140.38
587.54	61690.96
587.73	56063.14
587.93	39304.62
588.12	30168.63
588.31	23963.28
588.51	21057.21
588.70	19457.75
588.89	17520.37
589.09	15185.69
589.28	12900.16
589.47	10114.92
589.67	7958.41
589.86	6180.77
590.06	4732.86
590.25	3790.79
590.44	3248.08
590.64	2867.16
590.83	2789.33
591.02	2715.61
591.22	2543.58
591.41	2629.59
591.60	2506.71
591.80	2842.58
591.99	2459.61
592.18	2422.75
592.38	2627.54
592.57	2484.19
592.76	2541.53
592.96	2494.43
593.15	2512.86
593.34	2709.46
593.54	2539.48
593.73	2506.71
593.92	2600.92
594.12	2588.63
594.31	2584.54
594.50	2635.74
594.70	2607.06
594.89	2840.53
595.08	2355.16
595.28	2588.63
595.47	2871.25
595.66	2637.78
595.86	2359.26
596.05	2457.56
596.24	2539.48
596.43	2799.57
596.63	2564.06
596.82	2519.00
597.01	2596.82
597.21	2719.70
597.40	2553.82
597.59	2519.00
597.79	2475.99
597.98	2578.39
598.17	2596.82
598.36	2519.00
598.56	2594.78
598.75	2482.14
598.94	2531.29
599.14	2543.58
599.33	2455.51
599.52	2574.30
599.71	2580.44
599.91	2543.58
600.10	2584.54
600.29	2525.15
600.48	2635.74
600.68	2537.43
600.87	2506.71
601.06	2486.23
601.26	2488.28
601.45	2437.08
601.64	2457.56
601.83	2609.11
602.03	2498.52
602.22	2383.84
602.41	2611.16
602.60	2791.38
602.80	2592.73
602.99	2584.54
603.18	2404.32
603.37	2512.86
603.57	2539.48
603.76	2504.67
603.95	2580.44
604.14	2426.84
604.34	2334.68
604.53	2447.32
604.72	2447.32
604.91	2658.26
605.10	2543.58
605.30	2308.06
605.49	2797.53
605.68	2539.48
605.87	2502.62
606.07	2426.84
606.26	2588.63
606.45	2572.25
606.64	2502.62
606.84	2449.37
607.03	2523.10
607.22	2633.69
607.41	2580.44
607.60	2496.47
607.80	2602.97
607.99	2482.14
608.18	2492.38
608.37	2420.70
608.56	2441.18
608.76	2645.98
608.95	2643.93
609.14	2547.67
609.33	2762.71
609.52	2731.99
609.72	2633.69
609.91	2662.36
610.10	2609.11
610.29	2717.65
610.48	2566.10
610.68	2553.82
610.87	2531.29
611.06	2674.65
611.25	2510.81
611.44	2576.34
611.63	2410.46
611.83	2617.30
612.02	2342.88
612.21	2539.48
612.40	2273.25
612.59	2373.60
612.79	2414.56
612.98	2471.90
613.17	2697.17
613.36	2543.58
613.55	2625.50
613.74	2586.58
613.93	2607.06
614.13	2725.85
614.32	2756.57
614.51	2648.02
614.70	2588.63
614.89	2502.62
615.08	2580.44
615.28	2973.65
615.47	2432.99
615.66	2578.39
615.85	2504.67
616.04	2637.78
616.23	2559.96
616.42	2514.91
616.62	2557.91
616.81	2539.48
617.00	2490.33
617.19	2551.77
617.38	2398.17
617.57	2531.29
617.76	2584.54
617.95	2568.15
618.15	2559.96
618.34	2617.30
618.53	2381.79
618.72	2617.30
618.91	2590.68
619.10	2613.21
619.29	2562.01
619.48	2535.39
619.68	2326.49
619.87	2473.95
620.06	2279.39
620.25	2611.16
620.44	2461.66
620.63	2414.56
620.82	2553.82
621.01	2469.85
621.20	2473.95
621.39	2480.09
621.59	2531.29
621.78	2437.08
621.97	2504.67
622.16	2586.58
622.35	2523.10
622.54	2562.01
622.73	2572.25
622.92	2269.15
623.11	2672.60
623.30	2353.12
623.49	2504.67
623.68	2361.31
623.88	2643.93
624.07	2471.90
624.26	2422.75
624.45	2510.81
624.64	2461.66
624.83	2492.38
625.02	2465.75
625.21	2463.71
625.40	2553.82
625.59	2652.12
625.78	2500.57
625.97	2658.26
626.16	2674.65
626.35	2654.17
626.54	2473.95
626.74	2715.61
626.93	2459.61
627.12	2488.28
627.31	2574.30
627.50	2484.19
627.69	2564.06
627.88	2432.99
628.07	2383.84
628.26	2334.68
628.45	2439.13
628.64	2400.22
628.83	2498.52
629.02	2338.78
629.21	2519.00
629.40	2537.43
629.59	2437.08
629.78	2420.70
629.97	2533.34
630.16	2414.56
630.35	2471.90
630.54	2502.62
630.73	2441.18
630.92	2482.14
631.11	2428.89
631.30	2512.86
631.49	2594.78
631.68	2398.17
631.87	2514.91
632.06	2346.97
632.25	2869.20
632.44	2535.39
632.63	2654.17
632.82	2498.52
633.01	2525.15
633.20	2615.26
633.39	2531.29
633.58	2369.50
633.77	2570.20
633.96	2588.63
634.15	2531.29
634.34	2609.11
634.53	2572.25
634.72	2486.23
634.91	2334.68
635.10	2490.33
635.29	2602.97
635.48	2510.81
635.67	2490.33
635.86	2355.16
636.05	2654.17
636.24	2492.38
636.43	2469.85
636.62	2486.23
636.81	2217.95
637.00	2516.95
637.19	2500.57
637.38	2543.58
637.57	2435.03
637.76	2510.81
637.95	2697.17
638.14	2625.50
638.33	2541.53
638.52	2588.63
638.71	2414.56
638.89	2398.17
639.08	2842.58
639.27	2662.36
639.46	2779.09
639.65	3178.45
639.84	3104.72
640.03	3313.61
640.22	3194.83
640.41	3203.02
640.60	2805.72
640.79	2826.20
640.98	2617.30
641.17	2715.61
641.36	2842.58
641.55	2731.99
641.74	2402.27
641.92	2480.09
642.11	2478.04
642.30	2504.67
642.49	2394.08
642.68	2437.08
642.87	2529.24
643.06	2568.15
643.25	2398.17
643.44	2359.26
643.63	2398.17
643.82	2582.49
644.00	2389.98
644.19	2463.71
644.38	2410.46
644.57	2533.34
644.76	2439.13
644.95	2529.24
645.14	2527.19
645.33	2424.80
645.52	2445.27
645.71	2363.36
645.89	2330.59
646.08	2422.75
646.27	2453.47
646.46	2678.74
646.65	2342.88
646.84	2473.95
647.03	2293.72
647.22	2541.53
647.40	2498.52
647.59	2455.51
647.78	2306.01
647.97	2412.51
648.16	2359.26
648.35	2666.46
648.54	2654.17
648.73	2508.76
648.91	2572.25
649.10	2490.33
649.29	2457.56
649.48	2435.03
649.67	2588.63
649.86	2541.53
650.05	2539.48
650.23	2682.84
650.42	2541.53
650.61	2777.05
650.80	2740.18
650.99	2736.09
651.18	2684.89
651.36	2680.79
651.55	2439.13
651.74	2633.69
651.93	2473.95
652.12	2432.99
652.31	2471.90
652.49	2492.38
652.68	2435.03
652.87	2686.94
653.06	2482.14
653.25	2721.75
653.44	2531.29
653.62	2656.22
653.81	2465.75
654.00	2467.80
654.19	2498.52
654.38	2846.68
654.56	2535.39
654.75	2490.33
654.94	2680.79
655.13	2535.39
655.32	2414.56
655.51	2658.26
655.69	2447.32
655.88	2590.68
656.07	2301.92
656.26	2484.19
656.45	2269.15
656.63	2506.71
656.82	2465.75
657.01	2623.45
657.20	2365.40
657.38	2621.40
657.57	2424.80
657.76	2349.02
657.95	2559.96
658.14	2437.08
658.32	2551.77
658.51	2342.88
658.70	2582.49
658.89	2445.27
659.08	2537.43
659.26	2602.97
659.45	2494.43
659.64	2527.19
659.83	2441.18
660.01	2871.25
660.20	2488.28
660.39	2715.61
660.58	2308.06
660.76	2498.52
660.95	2346.97
661.14	2578.39
661.33	2406.36
661.51	2351.07
661.70	2447.32
661.89	2572.25
662.08	2461.66
662.26	2285.53
662.45	2432.99
662.64	2691.03
662.83	2531.29
663.01	2351.07
663.20	2490.33
663.39	2707.41
663.58	2449.37
663.76	2441.18
663.95	2473.95
664.14	2432.99
664.32	2426.84
664.51	2265.05
664.70	2285.53
664.89	2484.19
665.07	2328.54
665.26	2508.76
665.45	2336.73
665.64	2578.39
665.82	2437.08
666.01	2549.72
666.20	2320.35
666.38	2572.25
666.57	2676.70
666.76	3981.25
666.95	9639.79
667.13	17800.94
667.32	22656.68
667.51	26433.13
667.69	27653.72
667.88	24716.93
668.07	17295.10
668.25	14266.15
668.44	11953.99
668.63	10245.99
668.81	9088.89
669.00	7853.96
669.19	7020.44
669.38	6254.50
669.56	5115.83
669.75	4444.09
669.94	3839.94
670.12	3221.45
670.31	2865.11
670.50	2750.42
670.68	2803.67
670.87	2623.45
671.06	2514.91
671.24	2564.06
671.43	2711.51
671.62	2578.39
671.80	2432.99
671.99	2449.37
672.18	2580.44
672.36	2641.88
672.55	2533.34
672.74	2502.62
672.92	2478.04
673.11	2586.58
673.29	2338.78
673.48	2613.21
673.67	2400.22
673.85	2584.54
674.04	2473.95
674.23	2566.10
674.41	2615.26
674.60	2306.01
674.79	2285.53
674.97	2379.74
675.16	2635.74
675.34	2562.01
675.53	2392.03
675.72	2498.52
675.90	2686.94
676.09	2484.19
676.28	2506.71
676.46	2349.02
676.65	2525.15
676.83	2396.12
677.02	2443.23
677.21	2445.27
677.39	2555.86
677.58	2353.12
677.77	2392.03
677.95	2410.46
678.14	2439.13
678.32	2494.43
678.51	2400.22
678.70	2670.55
678.88	2389.98
679.07	2490.33
679.25	2500.57
679.44	2385.88
679.63	2416.60
679.81	2547.67
680.00	2570.20
680.18	2541.53
680.37	2707.41
680.55	2461.66
680.74	2377.69
680.93	2226.14
681.11	2521.05
681.30	2547.67
681.48	2529.24
681.67	2338.78
681.85	2469.85
682.04	2336.73
682.23	2553.82
682.41	2428.89
682.60	2547.67
682.78	2473.95
682.97	2414.56
683.15	2424.80
683.34	2535.39
683.53	2691.03
683.71	2297.82
683.90	2555.86
684.08	2799.57
684.27	2441.18
684.45	2519.00
684.64	2641.88
684.82	2486.23
685.01	2504.67
685.19	2469.85
685.38	2584.54
685.57	2494.43
685.75	2404.32
685.94	2482.14
686.12	2414.56
686.31	2355.16
686.49	2664.41
686.68	2263.01
686.86	2469.85
687.05	2578.39
687.23	2674.65
687.42	2420.70
687.60	2236.38
687.79	2643.93
687.97	2684.89
688.16	2594.78
688.34	2668.50
688.53	2283.49
688.71	2553.82
688.90	2600.92
689.08	2443.23
689.27	2324.44
689.45	2545.63
689.64	2463.71
689.82	2531.29
690.01	2568.15
690.19	2580.44
690.38	2453.47
690.56	2551.77
690.75	2340.83
690.93	2430.94
691.12	2447.32
691.30	2465.75
691.49	2465.75
691.67	2516.95
691.86	2736.09
692.04	2422.75
692.23	2459.61
692.41	2469.85
692.60	2750.42
692.78	2570.20
692.97	2492.38
693.15	2639.83
693.34	2699.22
693.52	2531.29
693.71	2566.10
693.89	2449.37
694.08	2334.68
694.26	2504.67
694.44	2584.54
694.63	2578.39
694.81	2408.41
695.00	2432.99
695.18	2625.50
695.37	2764.76
695.55	2473.95
695.74	2437.08
695.92	2432.99
696.10	2615.26
696.29	2291.68
696.47	2326.49
696.66	2273.25
696.84	2365.40
697.03	2426.84
697.21	2731.99
697.40	3723.21
697.58	2584.54
697.76	2336.73
697.95	2371.55
698.13	2428.89
698.32	2377.69
698.50	2457.56
698.68	2475.99
698.87	2492.38
699.05	2686.94
699.24	2441.18
699.42	2371.55
699.61	2519.00
699.79	2580.44
699.97	2469.85
700.16	2355.16
700.34	2316.25
700.53	2504.67
700.71	2568.15
700.89	2568.15
701.08	2383.84
701.26	2521.05
701.45	3008.47
701.63	2412.51
701.81	2408.41
702.00	2351.07
702.18	2510.81
702.37	2461.66
702.55	2734.04
702.73	2717.65
702.92	2557.91
703.10	2719.70
703.28	2711.51
703.47	2465.75
703.65	2695.13
703.84	2691.03
704.02	2523.10
704.20	2801.62
704.39	2455.51
704.57	2453.47
704.75	2580.44
704.94	2555.86
705.12	2621.40
705.30	2854.87
705.49	5472.17
705.67	12511.04
705.86	20502.22
706.04	24151.70
706.22	27199.07
706.41	28024.40
706.59	22519.46
706.77	16312.07
706.96	13975.34
707.14	12261.19
707.32	10540.90
707.51	9357.17
707.69	7587.72
707.87	6143.91
708.06	4863.93
708.24	4067.27
708.42	3450.83
708.61	3307.47
708.79	2590.68
708.97	2627.54
709.16	2602.97
709.34	2580.44
709.52	2457.56
709.71	2490.33
709.89	2609.11
710.07	2396.12
710.26	2367.45
710.44	2461.66
710.62	2547.67
710.80	2473.95
710.99	2533.34
711.17	2586.58
711.35	2447.32
711.54	2443.23
711.72	2600.92
711.90	2516.95
712.09	2576.34
712.27	2414.56
712.45	2547.67
712.63	2404.32
712.82	2519.00
713.00	2506.71
713.18	2576.34
713.37	2535.39
713.55	2605.02
713.73	2514.91
713.91	2465.75
714.10	2422.75
714.28	2473.95
714.46	2584.54
714.65	2531.29
714.83	2510.81
715.01	2443.23
715.19	2555.86
715.38	2416.60
715.56	2557.91
715.74	2428.89
715.92	2404.32
716.11	2590.68
716.29	2277.34
716.47	2437.08
716.65	2410.46
716.84	2285.53
717.02	2559.96
717.20	2275.29
717.38	2424.80
717.57	2523.10
717.75	2437.08
717.93	2432.99
718.11	2533.34
718.30	2318.30
718.48	2461.66
718.66	2625.50
718.84	2580.44
719.03	2473.95
719.21	2289.63
719.39	2678.74
719.57	2527.19
719.75	2549.72
719.94	2482.14
720.12	2500.57
720.30	2392.03
720.48	2537.43
720.67	2361.31
720.85	2420.70
721.03	2441.18
721.21	2334.68
721.39	2519.00
721.58	2553.82
721.76	2535.39
721.94	2545.63
722.12	2504.67
722.30	2703.32
722.49	2418.65
722.67	2469.85
722.85	2523.10
723.03	2353.12
723.21	2490.33
723.40	2478.04
723.58	2600.92
723.76	2588.63
723.94	2684.89
724.12	2551.77
724.30	2564.06
724.49	2650.07
724.67	2455.51
724.85	2580.44
725.03	2359.26
725.21	2705.37
725.40	2555.86
725.58	2453.47
725.76	2617.30
725.94	2490.33
726.12	2342.88
726.30	2480.09
726.49	2473.95
726.67	2422.75
726.85	2498.52
727.03	2856.92
727.21	4145.09
727.39	5765.03
727.57	6559.64
727.76	7358.35
727.94	7470.99
728.12	6750.10
728.30	5509.04
728.48	4888.50
728.66	4474.81
728.84	4022.21
729.03	3495.88
729.21	3231.69
729.39	2975.70
729.57	2680.79
729.75	2504.67
729.93	2596.82
730.11	2529.24
730.30	2447.32
730.48	2545.63
730.66	2611.16
730.84	2598.87
731.02	2428.89
731.20	2439.13
731.38	2506.71
731.56	2346.97
731.74	2324.44
731.93	2512.86
732.11	2492.38
732.29	2400.22
732.47	2568.15
732.65	2492.38
732.83	2684.89
733.01	2576.34
733.19	2387.93
733.37	2535.39
733.56	2537.43
733.74	2430.94
733.92	2668.50
734.10	2392.03
734.28	2504.67
734.46	2277.34
734.64	2580.44
734.82	2404.32
735.00	2441.18
735.18	2406.36
735.36	2451.42
735.54	2475.99
735.73	2424.80
735.91	2480.09
736.09	2539.48
736.27	2437.08
736.45	2523.10
736.63	2269.15
736.81	2422.75
736.99	2586.58
737.17	2693.08
737.35	2412.51
737.53	2514.91
737.71	2494.43
737.89	2559.96
738.07	2371.55
738.25	2439.13
738.43	2281.44
738.61	2418.65
738.80	2318.30
738.98	2336.73
739.16	2430.94
739.34	2416.60
739.52	2637.78
739.70	2412.51
739.88	2682.84
740.06	2488.28
740.24	2215.90
740.42	2637.78
740.60	2293.72
740.78	2367.45
740.96	2295.77
741.14	2414.56
741.32	2443.23
741.50	2297.82
741.68	2686.94
741.86	2701.27
742.04	2369.50
742.22	2306.01
742.40	2504.67
742.58	2574.30
742.76	2344.92
742.94	2641.88
743.12	2336.73
743.30	2514.91
743.48	2519.00
743.66	2340.83
743.84	2500.57
744.02	2510.81
744.20	2519.00
744.38	2392.03
744.56	2414.56
744.74	2693.08
744.92	2498.52
745.10	2580.44
745.28	2559.96
745.46	2635.74
745.64	2480.09
745.82	2502.62
746.00	2428.89
746.18	2469.85
746.36	2387.93
746.54	2523.10
746.72	2457.56
746.90	2334.68
747.08	2572.25
747.26	2371.55
747.44	2543.58
747.62	2617.30
747.80	2512.86
747.98	2510.81
748.15	2480.09
748.33	2725.85
748.51	2488.28
748.69	2574.30
748.87	2359.26
749.05	2506.71
749.23	2473.95
749.41	2400.22
749.59	2412.51
749.77	2543.58
749.95	2389.98
750.13	2396.12
750.31	2566.10
750.49	2469.85
750.67	2549.72
750.85	2643.93
751.03	2478.04
751.20	2748.37
751.38	2486.23
751.56	2457.56
751.74	2469.85
751.92	2480.09
752.10	2308.06
752.28	2609.11
752.46	2363.36
752.64	2469.85
752.82	2432.99
753.00	2586.58
753.18	2396.12
753.35	2508.76
753.53	2467.80
753.71	2408.41
753.89	2594.78
754.07	2471.90
754.25	2586.58
754.43	2543.58
754.61	2330.59
754.79	2459.61
754.97	2428.89
755.14	2613.21
755.32	2430.94
755.50	2488.28
755.68	2525.15
755.86	2301.92
756.04	2402.27
756.22	2201.57
756.40	2584.54
756.57	2668.50
756.75	2469.85
756.93	2539.48
757.11	2641.88
757.29	2469.85
757.47	2373.60
757.65	2326.49
757.82	2201.57
758.00	2416.60
758.18	2428.89
758.36	2365.40
758.54	2660.31
758.72	2273.25
758.90	2531.29
759.07	2559.96
759.25	2402.27
759.43	2459.61
759.61	2306.01
759.79	3579.85
759.97	2568.15
760.15	2408.41
760.32	2465.75
760.50	2500.57
760.68	2613.21
760.86	2328.54
761.04	2559.96
761.22	2594.78
761.39	2451.42
761.57	2441.18
761.75	2394.08
761.93	2629.59
762.11	2447.32
762.28	2572.25
762.46	2308.06
762.64	2547.67
762.82	2324.44
763.00	2416.60
763.18	2625.50
763.35	2293.72
763.53	2609.11
763.71	2424.80
763.89	2469.85
764.07	2514.91
764.24	2496.47
764.42	2564.06
764.60	2404.32
764.78	2525.15
764.96	2707.41
765.13	2645.98
765.31	2412.51
765.49	2523.10
765.67	2260.96
765.84	2428.89
766.02	2355.16
766.20	2330.59
766.38	2463.71
766.56	2559.96
766.73	2521.05
766.91	2432.99
767.09	2480.09
767.27	2484.19
767.44	2363.36
767.62	2478.04
767.80	2453.47
767.98	2408.41
768.15	2432.99
768.33	2545.63
768.51	2492.38
768.69	2486.23
768.87	2445.27
769.04	2482.14
769.22	2785.24
769.40	2594.78
769.58	2650.07
769.75	2469.85
769.93	2596.82
770.11	2490.33
770.28	2359.26
770.46	2549.72
770.64	2494.43
770.82	2410.46
770.99	2426.84
771.17	2545.63
771.35	2387.93
771.53	2531.29
771.70	2326.49
771.88	2516.95
772.06	2408.41
772.23	2396.12
772.41	2537.43
772.59	2473.95
772.77	2322.40
772.94	2449.37
773.12	2463.71
773.30	2318.30
773.47	2537.43
773.65	2392.03
773.83	2537.43
774.01	2498.52
774.18	2224.09
774.36	2459.61
774.54	2297.82
774.71	2531.29
774.89	2299.87
775.07	2359.26
775.24	2389.98
775.42	2369.50
775.60	2731.99
775.78	2404.32
775.95	2351.07
776.13	2269.15
776.31	2228.19
776.48	2473.95
776.66	2613.21
776.84	2375.64
777.01	2400.22
777.19	2383.84
777.37	2402.27
777.54	2551.77
777.72	2721.75
777.90	2488.28
778.07	2406.36
778.25	2850.77
778.43	2551.77
778.60	2351.07
778.78	2512.86
778.96	2637.78
779.13	2342.88
779.31	2578.39
779.49	2500.57
779.66	2576.34
779.84	2396.12
780.01	2473.95
780.19	2320.35
780.37	2678.74
780.54	2607.06
780.72	2301.92
780.90	2396.12
781.07	2494.43
781.25	2396.12
781.43	2508.76
781.60	2422.75
781.78	2650.07
781.95	2478.04
782.13	2385.88
782.31	2412.51
782.48	2250.72
782.66	2512.86
782.83	2580.44
783.01	2508.76
783.19	2553.82
783.36	2400.22
783.54	2326.49
783.72	2523.10
783.89	2432.99
784.07	2453.47
784.24	2439.13
784.42	2627.54
784.60	2443.23
784.77	2519.00
784.95	2275.29
785.12	2453.47
785.30	2566.10
785.47	2412.51
785.65	2301.92
785.83	2416.60
786.00	2424.80
786.18	2482.14
786.35	2363.36
786.53	2435.03
786.71	2699.22
786.88	2465.75
787.06	2537.43
787.23	2480.09
787.41	2367.45
787.58	2412.51
787.76	2392.03
787.94	2498.52
788.11	2424.80
788.29	2381.79
788.46	2330.59
788.64	2314.20
788.81	2428.89
788.99	2361.31
789.16	2375.64
789.34	2463.71
789.52	2383.84
789.69	2420.70
789.87	2242.53
790.04	2416.60
790.22	2498.52
790.39	2740.18
790.57	2299.87
790.74	2334.68
790.92	2641.88
791.09	2306.01
791.27	2461.66
791.44	2539.48
791.62	2478.04
791.79	2547.67
791.97	2455.51
792.15	2842.58
792.32	2529.24
792.50	2621.40
792.67	2623.45
792.85	2613.21
793.02	2400.22
793.20	2500.57
793.37	2322.40
793.55	2435.03
793.72	2346.97
793.90	2473.95
794.07	2357.21
794.25	2357.21
794.42	2455.51
794.60	2424.80
794.77	2568.15
794.95	2576.34
795.12	2521.05
795.30	2457.56
795.47	2295.77
795.65	2680.79
795.82	2490.33
796.00	2504.67
796.17	2418.65
796.34	2373.60
796.52	2469.85
796.69	2570.20
796.87	2502.62
797.04	2469.85
797.22	2613.21
797.39	2580.44
797.57	2553.82
797.74	2465.75
797.92	2465.75
798.09	2406.36
798.27	2537.43
798.44	2441.18
798.62	2363.36
798.79	2375.64
798.96	2461.66
799.14	2394.08
799.31	2832.34
799.49	2430.94
799.66	2439.13
799.84	2430.94
800.01	2326.49
800.19	2547.67
800.36	2285.53
800.53	2533.34
800.71	2484.19
800.88	2719.70
801.06	2353.12
801.23	2371.55
801.41	2416.60
801.58	2392.03
801.75	2447.32
801.93	2504.67
802.10	2531.29
802.28	2408.41
802.45	2449.37
802.63	2510.81
802.80	2623.45
802.97	2492.38
803.15	2408.41
803.32	2420.70
803.50	2387.93
803.67	2428.89
803.84	2310.11
804.02	2451.42
804.19	2430.94
804.37	2240.48
804.54	2338.78
804.71	2355.16
804.89	2455.51
805.06	2398.17
805.24	2400.22
805.41	2404.32
805.58	2424.80
805.76	2815.96
805.93	2447.32
806.10	2637.78
806.28	2582.49
806.45	2562.01
806.63	2572.25
806.80	2424.80
806.97	2605.02
807.15	2475.99
807.32	2451.42
807.49	2457.56
807.67	2281.44
807.84	2562.01
808.01	2281.44
808.19	2590.68
808.36	2854.87
808.54	2367.45
808.71	2361.31
808.88	2445.27
809.06	2490.33
809.23	2635.74
809.40	2326.49
809.58	2414.56
809.75	2535.39
809.92	2379.74
810.10	2748.37
810.27	2373.60
810.44	2523.10
810.62	2500.57
810.79	2475.99
810.96	2351.07
811.14	2463.71
811.31	2457.56
811.48	2488.28
811.66	2498.52
811.83	2654.17
812.00	2525.15
812.18	2553.82
812.35	2693.08
812.52	2351.07
812.69	2379.74
812.87	2500.57
813.04	2424.80
813.21	2467.80
813.39	2445.27
813.56	2355.16
813.73	2594.78
813.91	2371.55
814.08	2475.99
814.25	2398.17
814.42	2342.88
814.60	2432.99
814.77	2449.37
814.94	2527.19
815.12	2484.19
815.29	2656.22
815.46	2432.99
815.63	2496.47
815.81	2459.61
815.98	2428.89
816.15	2488.28
816.33	2437.08
816.50	2435.03
816.67	2506.71
816.84	2412.51
817.02	2357.21
817.19	2385.88
817.36	2404.32
817.53	2496.47
817.71	2326.49
817.88	2529.24
818.05	2482.14
818.22	2420.70
818.40	2594.78
818.57	2420.70
818.74	2564.06
818.91	2443.23
819.09	2449.37
819.26	2613.21
819.43	2389.98
819.60	2441.18
819.78	2576.34
819.95	2539.48
820.12	2310.11
820.29	2570.20
820.47	2652.12
820.64	2338.78
820.81	2293.72
820.98	2363.36
821.15	2363.36
821.33	2557.91
821.50	2318.30
821.67	2512.86
821.84	2430.94
822.02	2457.56
822.19	2645.98
822.36	2420.70
822.53	2424.80
822.70	2336.73
822.88	2445.27
823.05	2617.30
823.22	2496.47
823.39	2523.10
823.56	2430.94
823.74	2748.37
823.91	2246.62
824.08	2332.64
824.25	2379.74
824.42	2660.31
824.60	2269.15
824.77	2445.27
824.94	2451.42
825.11	2570.20
825.28	2414.56
825.45	2457.56
825.63	2551.77
825.80	2330.59
825.97	2461.66
826.14	2486.23
826.31	2205.66
826.48	2600.92
826.66	2404.32
826.83	2408.41
827.00	2447.32
827.17	2334.68
827.34	2404.32
827.51	2416.60
827.69	2449.37
827.86	2320.35
828.03	2441.18
828.20	2332.64
828.37	2404.32
828.54	2594.78
828.71	2488.28
828.89	2584.54
829.06	2498.52
829.23	2611.16
829.40	2355.16
829.57	2410.46
829.74	2516.95
829.91	2437.08
830.09	2412.51
830.26	2504.67
830.43	2703.32
830.60	2521.05
830.77	2422.75
830.94	2533.34
831.11	2486.23
831.28	2480.09
831.46	2566.10
831.63	2359.26
831.80	2541.53
831.97	2381.79
832.14	2359.26
832.31	2432.99
832.48	2504.67
832.65	2594.78
832.82	2469.85
832.99	2496.47
833.17	2351.07
833.34	2684.89
833.51	2430.94
833.68	2234.33
833.85	2557.91
834.02	2340.83
834.19	2359.26
834.36	2392.03
834.53	2521.05
834.70	2578.39
834.87	2521.05
835.04	2367.45
835.22	2330.59
835.39	2478.04
835.56	2301.92
835.73	2394.08
835.90	2672.60
836.07	2346.97
836.24	2535.39
836.41	2242.53
836.58	2463.71
836.75	2482.14
836.92	2424.80
837.09	2246.62
837.26	2570.20
837.43	2605.02
837.60	2480.09
837.77	2385.88
837.94	2549.72
838.12	2564.06
838.29	2371.55
838.46	2222.05
838.63	2303.96
838.80	2631.64
838.97	2510.81
839.14	2338.78
839.31	2615.26
839.48	2596.82
839.65	2359.26
839.82	2439.13
839.99	2496.47
840.16	2506.71
840.33	2367.45
840.50	2441.18
840.67	2422.75
840.84	2238.43
841.01	2359.26
841.18	2355.16
841.35	2461.66
841.52	2543.58
841.69	2656.22
841.86	2445.27
842.03	2441.18
842.20	2633.69
842.37	2406.36
842.54	2367.45
842.71	2498.52
842.88	2344.92
843.05	2463.71
843.22	2475.99
843.39	2555.86
843.56	2428.89
843.73	2451.42
843.90	2379.74
844.07	2426.84
844.24	2602.97
844.41	2441.18
844.58	2406.36
844.75	2449.37
844.92	2547.67
845.09	2451.42
845.26	2379.74
845.43	2496.47
845.60	2402.27
845.77	2551.77
845.94	2475.99
846.10	2582.49
846.27	2273.25
846.44	2252.77
846.61	2308.06
846.78	2457.56
846.95	2648.02
847.12	2269.15
847.29	2451.42
847.46	2387.93
847.63	2551.77
847.80	2367.45
847.97	2351.07
848.14	2752.47
848.31	2404.32
848.48	2250.72
848.65	2422.75
848.82	2441.18
848.98	2777.05
849.15	2510.81
849.32	2469.85
849.49	2629.59
849.66	2410.46
849.83	2379.74
850.00	2351.07
850.17	2568.15
850.34	2469.85
850.51	2392.03
850.68	2461.66
850.85	2731.99
851.01	2467.80
851.18	2416.60
851.35	2426.84
851.52	2562.01
851.69	2656.22
851.86	2314.20
852.03	2416.60
852.20	2695.13
852.37	2443.23
852.53	2271.20
852.70	2363.36
852.87	2592.73
853.04	2545.63
853.21	2308.06
853.38	2564.06
853.55	2641.88
853.72	2637.78
853.89	2381.79
854.05	2203.61
854.22	2457.56
854.39	2373.60
854.56	2439.13
854.73	2555.86
854.90	2424.80
855.07	2490.33
855.23	2291.68
855.40	2338.78
855.57	2406.36
855.74	2285.53
855.91	2490.33
856.08	2291.68
856.25	2330.59
856.41	2422.75
856.58	2420.70
856.75	2367.45
856.92	2299.87
857.09	2568.15
857.26	2281.44
857.42	2412.51
857.59	2514.91
857.76	2420.70
857.93	2432.99
858.10	2416.60
858.27	2340.83
858.43	2525.15
858.60	2310.11
858.77	2287.58
858.94	2455.51
859.11	2623.45
859.27	2367.45
859.44	2344.92
859.61	2764.76
859.78	2531.29
859.95	2355.16
860.12	2293.72
860.28	2723.80
860.45	2746.33
860.62	2367.45
860.79	2512.86
860.95	2422.75
861.12	2408.41
861.29	2349.02
861.46	2424.80
861.63	2408.41
861.79	2441.18
861.96	2269.15
862.13	2320.35
862.30	2572.25
862.47	2324.44
862.63	2324.44
862.80	2457.56
862.97	2670.55
863.14	2572.25
863.30	2361.31
863.47	2318.30
863.64	2645.98
863.81	2416.60
863.97	2246.62
864.14	2402.27
864.31	2469.85
864.48	2537.43
864.65	2365.40
864.81	2498.52
864.98	2568.15
865.15	2635.74
865.32	2504.67
865.48	2426.84
865.65	2637.78
865.82	2473.95
865.98	2416.60
866.15	2445.27
866.32	2457.56
866.49	2422.75
866.65	2510.81
866.82	2297.82
866.99	2482.14
867.16	2383.84
867.32	2365.40
867.49	2301.92
867.66	2430.94
867.83	2353.12
867.99	2271.20
868.16	2385.88
868.33	2340.83
868.49	2486.23
868.66	2355.16
868.83	2471.90
868.99	2519.00
869.16	2494.43
869.33	2553.82
869.50	2447.32
869.66	2500.57
869.83	2486.23
870.00	2334.68
870.16	2467.80
870.33	2435.03
870.50	2617.30
870.66	2400.22
870.83	2533.34
871.00	2457.56
871.17	2490.33
871.33	2457.56
871.50	2389.98
871.67	2457.56
871.83	2478.04
872.00	2486.23
872.17	2455.51
872.33	2772.95
872.50	2713.56
872.67	2326.49
872.83	2400.22
873.00	2525.15
873.17	2455.51
873.33	2531.29
873.50	2418.65
873.67	2383.84
873.83	2383.84
874.00	2392.03
874.16	2533.34
874.33	2457.56
874.50	2414.56
874.66	2320.35
874.83	2457.56
875.00	2621.40
875.16	2572.25
875.33	2514.91
875.50	2187.23
875.66	2351.07
875.83	2537.43
875.99	2543.58
876.16	2340.83
876.33	2404.32
876.49	2465.75
876.66	2428.89
876.83	2473.95
876.99	2273.25
877.16	2512.86
877.32	2357.21
877.49	2412.51
877.66	2510.81
877.82	2688.98
877.99	2426.84
878.15	2559.96
878.32	2451.42
878.49	2463.71
878.65	2373.60
878.82	2555.86
878.98	2439.13
879.15	2551.77
879.32	2492.38
879.48	2453.47
879.65	2473.95
879.81	2457.56
879.98	2318.30
880.15	2398.17
880.31	2539.48
880.48	2351.07
880.64	2516.95
880.81	2375.64
880.97	2521.05
881.14	2617.30
881.31	2324.44
881.47	2619.35
881.64	2496.47
881.80	2326.49
881.97	2451.42
882.13	2437.08
882.30	2375.64
882.47	2400.22
882.63	2316.25
882.80	2342.88
882.96	2371.55
883.13	2656.22
883.29	2406.36
883.46	2416.60
883.62	2693.08
883.79	2424.80
883.95	2461.66
884.12	2396.12
884.29	2611.16
884.45	2453.47
884.62	2475.99
884.78	2318.30
884.95	2598.87
885.11	2371.55
885.28	2445.27
885.44	2314.20
885.61	2555.86
885.77	2750.42
885.94	2490.33
886.10	2398.17
886.27	2424.80
886.43	2654.17
886.60	2480.09
886.76	2381.79
886.93	2408.41
887.09	2525.15
887.26	2316.25
887.42	2465.75
887.59	2611.16
887.75	2799.57
887.92	2467.80
888.08	2500.57
888.25	2701.27
888.41	2580.44
888.58	2420.70
888.74	2367.45
888.91	2318.30
>>>>>End Processed Spectral Data<<<<<
