SpectraSuite Data File
++++++++++++++++++++++++++++++++++++
Date: Thu May 05 14:41:26 CEST 2016
User: root
Dark Spectrum Present: No
Reference Spectrum Present: No
Number of Sampled Component Spectra: 1
Spectrometers: USB4C02835
Integration Time (usec): 100000 (USB4C02835)
Spectra Averaged: 1 (USB4C02835)
Boxcar Smoothing: 0 (USB4C02835)
Correct for Electrical Dark: No (USB4C02835)
Strobe/Lamp Enabled: No (USB4C02835)
Correct for Detector Non-linearity: No (USB4C02835)
Correct for Stray Light: No (USB4C02835)
Number of Pixels in Processed Spectrum: 3648
>>>>>Begin Processed Spectral Data<<<<<
177.47	1863.65
177.69	1863.65
177.91	1863.65
178.13	1900.52
178.36	1857.51
178.58	2291.68
178.80	2547.67
179.02	2383.84
179.24	2396.12
179.46	2449.37
179.68	2426.84
179.90	2389.98
180.13	2500.57
180.35	2279.39
180.57	2394.08
180.79	2555.86
181.01	2500.57
181.23	2430.94
181.45	2512.86
181.67	2496.47
181.90	2555.86
182.12	2406.36
182.34	2220.00
182.56	2582.49
182.78	2510.81
183.00	2418.65
183.22	2363.36
183.44	2295.77
183.66	2744.28
183.89	2441.18
184.11	2308.06
184.33	2525.15
184.55	2658.26
184.77	2299.87
184.99	2361.31
185.21	2549.72
185.43	2797.53
185.65	2320.35
185.87	2322.40
186.10	2727.89
186.32	2707.41
186.54	2377.69
186.76	2400.22
186.98	2635.74
187.20	2504.67
187.42	2428.89
187.64	2375.64
187.86	2545.63
188.08	2541.53
188.30	2320.35
188.52	2414.56
188.75	2666.46
188.97	2537.43
189.19	2289.63
189.41	2306.01
189.63	2531.29
189.85	2367.45
190.07	2236.38
190.29	2240.48
190.51	2473.95
190.73	2250.72
190.95	2453.47
191.17	2363.36
191.39	2283.49
191.61	2480.09
191.84	2346.97
192.06	2482.14
192.28	2312.16
192.50	2961.36
192.72	2375.64
192.94	2330.59
193.16	2613.21
193.38	2519.00
193.60	2250.72
193.82	2420.70
194.04	2605.02
194.26	2539.48
194.48	2320.35
194.70	2359.26
194.92	2416.60
195.14	2570.20
195.36	2353.12
195.58	2355.16
195.80	2478.04
196.02	2408.41
196.24	2389.98
196.46	2410.46
196.69	2402.27
196.91	2877.40
197.13	2320.35
197.35	2342.88
197.57	2684.89
197.79	2531.29
198.01	2332.64
198.23	2389.98
198.45	2547.67
198.67	2379.74
198.89	2316.25
199.11	2371.55
199.33	2418.65
199.55	2326.49
199.77	2375.64
199.99	2361.31
200.21	2455.51
200.43	2461.66
200.65	2217.95
200.87	2226.14
201.09	2512.86
201.31	2469.85
201.53	2381.79
201.75	2400.22
201.97	2498.52
202.19	2531.29
202.41	2455.51
202.63	2410.46
202.85	2582.49
203.07	2539.48
203.29	2396.12
203.51	2279.39
203.73	2365.40
203.95	2777.05
204.17	2377.69
204.39	2439.13
204.61	2521.05
204.83	2426.84
205.05	2432.99
205.27	2404.32
205.49	2824.15
205.71	2506.71
205.93	2256.86
206.15	2279.39
206.37	2465.75
206.59	2516.95
206.81	2250.72
207.03	2269.15
207.25	2301.92
207.47	2617.30
207.69	2381.79
207.91	2523.10
208.13	2684.89
208.34	2375.64
208.56	2314.20
208.78	2346.97
209.00	2482.14
209.22	2432.99
209.44	2334.68
209.66	2396.12
209.88	2480.09
210.10	2445.27
210.32	2334.68
210.54	2572.25
210.76	2512.86
210.98	2559.96
211.20	2148.32
211.42	2441.18
211.64	2635.74
211.86	2473.95
212.08	2359.26
212.30	2367.45
212.52	2453.47
212.74	2502.62
212.96	2377.69
213.17	2428.89
213.39	2605.02
213.61	2613.21
213.83	2357.21
214.05	2371.55
214.27	2537.43
214.49	2375.64
214.71	2353.12
214.93	2506.71
215.15	2482.14
215.37	2555.86
215.59	2217.95
215.81	2326.49
216.03	2625.50
216.24	2484.19
216.46	2373.60
216.68	2361.31
216.90	2592.73
217.12	2584.54
217.34	2342.88
217.56	2394.08
217.78	2707.41
218.00	2537.43
218.22	2336.73
218.44	2420.70
218.66	2467.80
218.87	2727.89
219.09	2392.03
219.31	2367.45
219.53	2521.05
219.75	2447.32
219.97	2400.22
220.19	2351.07
220.41	2424.80
220.63	2637.78
220.85	2289.63
221.06	2215.90
221.28	2643.93
221.50	2568.15
221.72	2326.49
221.94	2342.88
222.16	2449.37
222.38	2602.97
222.60	2398.17
222.82	2420.70
223.03	2514.91
223.25	2314.20
223.47	2267.10
223.69	2559.96
223.91	2494.43
224.13	2578.39
224.35	2316.25
224.57	2547.67
224.78	2496.47
225.00	2330.59
225.22	2408.41
225.44	2330.59
225.66	2605.02
225.88	2385.88
226.10	2445.27
226.32	2400.22
226.53	2637.78
226.75	2377.69
226.97	2381.79
227.19	2365.40
227.41	2373.60
227.63	2439.13
227.85	2152.42
228.06	2389.98
228.28	2469.85
228.50	2564.06
228.72	2211.81
228.94	2455.51
229.16	2277.34
229.37	2375.64
229.59	2340.83
229.81	2490.33
230.03	2449.37
230.25	2326.49
230.47	2236.38
230.69	2334.68
230.90	2576.34
231.12	2375.64
231.34	2392.03
231.56	2375.64
231.78	2301.92
232.00	2510.81
232.21	2346.97
232.43	2369.50
232.65	2193.37
232.87	2516.95
233.09	2230.24
233.30	2340.83
233.52	2582.49
233.74	2527.19
233.96	2326.49
234.18	2496.47
234.40	2488.28
234.61	2772.95
234.83	2310.11
235.05	2283.49
235.27	2854.87
235.49	2670.55
235.70	2289.63
235.92	2420.70
236.14	2547.67
236.36	2840.53
236.58	2306.01
236.79	2449.37
237.01	2514.91
237.23	2484.19
237.45	2596.82
237.67	2330.59
237.88	2553.82
238.10	2711.51
238.32	2310.11
238.54	2346.97
238.76	2457.56
238.97	2432.99
239.19	2285.53
239.41	2414.56
239.63	2607.06
239.85	2375.64
240.06	2377.69
240.28	2293.72
240.50	2559.96
240.72	2482.14
240.93	2371.55
241.15	2412.51
241.37	2488.28
241.59	2691.03
241.81	2387.93
242.02	2410.46
242.24	2504.67
242.46	2652.12
242.68	2224.09
242.89	2299.87
243.11	2568.15
243.33	2441.18
243.55	2357.21
243.76	2400.22
243.98	2408.41
244.20	2465.75
244.42	2306.01
244.64	2326.49
244.85	2324.44
245.07	2340.83
245.29	2426.84
245.51	2359.26
245.72	2504.67
245.94	2582.49
246.16	2328.54
246.38	2402.27
246.59	2449.37
246.81	2396.12
247.03	2283.49
247.24	2244.57
247.46	2416.60
247.68	2490.33
247.90	2301.92
248.11	2389.98
248.33	2568.15
248.55	2471.90
248.77	2412.51
248.98	2422.75
249.20	2609.11
249.42	2412.51
249.64	2357.21
249.85	2359.26
250.07	2379.74
250.29	2551.77
250.50	2389.98
250.72	2215.90
250.94	2496.47
251.16	2818.00
251.37	2303.96
251.59	2365.40
251.81	2482.14
252.02	2633.69
252.24	2340.83
252.46	2490.33
252.68	2367.45
252.89	2340.83
253.11	2226.14
253.33	2457.56
253.54	2668.50
253.76	2371.55
253.98	2299.87
254.20	2303.96
254.41	2291.68
254.63	2551.77
254.85	2211.81
255.06	2402.27
255.28	2598.87
255.50	2465.75
255.71	2308.06
255.93	2256.86
256.15	2412.51
256.36	2588.63
256.58	2289.63
256.80	2359.26
257.02	2533.34
257.23	2394.08
257.45	2373.60
257.67	2437.08
257.88	2488.28
258.10	2539.48
258.32	2387.93
258.53	2361.31
258.75	2719.70
258.97	2314.20
259.18	2269.15
259.40	2322.40
259.62	2662.36
259.83	2609.11
260.05	2451.42
260.27	2908.12
260.48	2631.64
260.70	2387.93
260.92	2306.01
261.13	2420.70
261.35	2580.44
261.57	2572.25
261.78	2207.71
262.00	2297.82
262.22	2498.52
262.43	2377.69
262.65	2334.68
262.86	2432.99
263.08	2809.81
263.30	2519.00
263.51	2109.41
263.73	2297.82
263.95	2625.50
264.16	2349.02
264.38	2275.29
264.60	2301.92
264.81	2455.51
265.03	2586.58
265.25	2613.21
265.46	2285.53
265.68	2650.07
265.89	2598.87
266.11	2211.81
266.33	2357.21
266.54	2578.39
266.76	2535.39
266.98	2408.41
267.19	2516.95
267.41	2578.39
267.62	2441.18
267.84	2154.46
268.06	2396.12
268.27	2535.39
268.49	2562.01
268.70	2432.99
268.92	2412.51
269.14	2422.75
269.35	2322.40
269.57	2408.41
269.79	2400.22
270.00	2365.40
270.22	2723.80
270.43	2154.46
270.65	2277.34
270.87	2523.10
271.08	2609.11
271.30	2383.84
271.51	2334.68
271.73	2521.05
271.95	2621.40
272.16	2357.21
272.38	2412.51
272.59	2418.65
272.81	2519.00
273.02	2349.02
273.24	2338.78
273.46	2578.39
273.67	2398.17
273.89	2279.39
274.10	2338.78
274.32	2576.34
274.54	2541.53
274.75	2514.91
274.97	2373.60
275.18	2600.92
275.40	2498.52
275.61	2359.26
275.83	2488.28
276.05	2351.07
276.26	2480.09
276.48	2432.99
276.69	2408.41
276.91	2392.03
277.12	2650.07
277.34	2484.19
277.55	2500.57
277.77	2494.43
277.99	2432.99
278.20	2363.36
278.42	2416.60
278.63	2338.78
278.85	2406.36
279.06	2301.92
279.28	2461.66
279.49	2598.87
279.71	2627.54
279.93	2523.10
280.14	2447.32
280.36	2383.84
280.57	2613.21
280.79	2465.75
281.00	2324.44
281.22	2412.51
281.43	2584.54
281.65	2209.76
281.86	2273.25
282.08	2514.91
282.29	2686.94
282.51	2322.40
282.73	2365.40
282.94	2340.83
283.16	2539.48
283.37	2568.15
283.59	2359.26
283.80	2570.20
284.02	2535.39
284.23	2461.66
284.45	2490.33
284.66	2422.75
284.88	2324.44
285.09	2379.74
285.31	2523.10
285.52	2521.05
285.74	2318.30
285.95	2469.85
286.17	2420.70
286.38	2607.06
286.60	2398.17
286.81	2351.07
287.03	2355.16
287.24	2469.85
287.46	2592.73
287.67	2478.04
287.89	2645.98
288.10	2478.04
288.32	2482.14
288.53	2648.02
288.75	2463.71
288.96	2547.67
289.18	2414.56
289.39	2394.08
289.61	2506.71
289.82	2775.00
290.04	2643.93
290.25	2293.72
290.47	2435.03
290.68	2504.67
290.90	2674.65
291.11	2289.63
291.33	2541.53
291.54	2432.99
291.76	2396.12
291.97	2572.25
292.18	2457.56
292.40	2486.23
292.61	2404.32
292.83	2592.73
293.04	2459.61
293.26	2539.48
293.47	2482.14
293.69	2373.60
293.90	2451.42
294.12	2641.88
294.33	2480.09
294.55	2445.27
294.76	2539.48
294.97	2662.36
295.19	2742.23
295.40	2396.12
295.62	2394.08
295.83	2588.63
296.05	2424.80
296.26	2566.10
296.48	2387.93
296.69	2426.84
296.90	2473.95
297.12	2523.10
297.33	2611.16
297.55	2539.48
297.76	2529.24
297.98	2475.99
298.19	2447.32
298.41	2475.99
298.62	2367.45
298.83	2564.06
299.05	2492.38
299.26	2387.93
299.48	2441.18
299.69	2447.32
299.90	2383.84
300.12	2318.30
300.33	2555.86
300.55	2432.99
300.76	2519.00
300.98	2369.50
301.19	2547.67
301.40	2447.32
301.62	2461.66
301.83	2555.86
302.05	2453.47
302.26	2367.45
302.47	2443.23
302.69	2375.64
302.90	2486.23
303.12	2316.25
303.33	2584.54
303.54	2664.41
303.76	2424.80
303.97	2375.64
304.19	2645.98
304.40	2445.27
304.61	2445.27
304.83	2639.83
305.04	2492.38
305.26	2598.87
305.47	2435.03
305.68	2428.89
305.90	2344.92
306.11	2508.76
306.33	2512.86
306.54	2330.59
306.75	2430.94
306.97	2344.92
307.18	2373.60
307.39	2416.60
307.61	2572.25
307.82	2473.95
308.04	2486.23
308.25	2414.56
308.46	2531.29
308.68	2521.05
308.89	2447.32
309.10	2539.48
309.32	2512.86
309.53	2469.85
309.74	2568.15
309.96	2310.11
310.17	2531.29
310.39	2414.56
310.60	2615.26
310.81	2422.75
311.03	2318.30
311.24	2584.54
311.45	2432.99
311.67	2564.06
311.88	2420.70
312.09	2432.99
312.31	2410.46
312.52	2394.08
312.73	2445.27
312.95	2342.88
313.16	2383.84
313.37	2557.91
313.59	2506.71
313.80	2637.78
314.01	2660.31
314.23	2424.80
314.44	2383.84
314.65	2357.21
314.87	2457.56
315.08	2400.22
315.29	2367.45
315.51	2293.72
315.72	2334.68
315.93	2617.30
316.15	2467.80
316.36	2418.65
316.57	2519.00
316.79	2469.85
317.00	2447.32
317.21	2609.11
317.43	2392.03
317.64	2381.79
317.85	2342.88
318.07	2330.59
318.28	2396.12
318.49	2555.86
318.70	2695.13
318.92	2625.50
319.13	2613.21
319.34	2652.12
319.56	2473.95
319.77	2719.70
319.98	2590.68
320.20	2590.68
320.41	2613.21
320.62	2623.45
320.83	2373.60
321.05	2564.06
321.26	2492.38
321.47	2480.09
321.69	2678.74
321.90	2320.35
322.11	2310.11
322.32	2543.58
322.54	2627.54
322.75	2269.15
322.96	2916.31
323.18	2265.05
323.39	2285.53
323.60	2318.30
323.81	2539.48
324.03	2400.22
324.24	2514.91
324.45	2482.14
324.66	2396.12
324.88	2543.58
325.09	2668.50
325.30	2457.56
325.52	2488.28
325.73	2572.25
325.94	2336.73
326.15	2381.79
326.37	2346.97
326.58	2514.91
326.79	2678.74
327.00	2441.18
327.22	2365.40
327.43	2359.26
327.64	2351.07
327.85	2453.47
328.07	2420.70
328.28	2801.62
328.49	2420.70
328.70	2426.84
328.92	2449.37
329.13	2383.84
329.34	2621.40
329.55	2564.06
329.76	2555.86
329.98	2463.71
330.19	2619.35
330.40	2492.38
330.61	2484.19
330.83	2572.25
331.04	2355.16
331.25	2498.52
331.46	2400.22
331.68	2342.88
331.89	2580.44
332.10	2473.95
332.31	2285.53
332.52	2404.32
332.74	2611.16
332.95	2291.68
333.16	2387.93
333.37	2643.93
333.58	2349.02
333.80	2432.99
334.01	2312.16
334.22	2519.00
334.43	2396.12
334.64	2324.44
334.86	2342.88
335.07	2392.03
335.28	2693.08
335.49	2248.67
335.70	2432.99
335.92	2656.22
336.13	2772.95
336.34	2469.85
336.55	2478.04
336.76	2488.28
336.98	2248.67
337.19	2504.67
337.40	2529.24
337.61	2846.68
337.82	2396.12
338.04	2465.75
338.25	2283.49
338.46	2471.90
338.67	2473.95
338.88	2322.40
339.09	2308.06
339.31	2432.99
339.52	2330.59
339.73	2357.21
339.94	2473.95
340.15	2559.96
340.36	2457.56
340.58	2486.23
340.79	2385.88
341.00	2490.33
341.21	2365.40
341.42	2613.21
341.63	2412.51
341.85	2699.22
342.06	2490.33
342.27	2361.31
342.48	2531.29
342.69	2359.26
342.90	2508.76
343.12	2600.92
343.33	2404.32
343.54	2631.64
343.75	2650.07
343.96	2439.13
344.17	2338.78
344.38	2551.77
344.60	2412.51
344.81	2332.64
345.02	2428.89
345.23	2641.88
345.44	2813.91
345.65	2482.14
345.86	2490.33
346.07	2496.47
346.29	2408.41
346.50	2514.91
346.71	2498.52
346.92	2740.18
347.13	2756.57
347.34	2484.19
347.55	2381.79
347.76	2521.05
347.98	2316.25
348.19	2410.46
348.40	2539.48
348.61	2428.89
348.82	2703.32
349.03	2580.44
349.24	2363.36
349.45	2691.03
349.66	2267.10
349.88	2422.75
350.09	2400.22
350.30	2619.35
350.51	2578.39
350.72	2498.52
350.93	2490.33
351.14	2408.41
351.35	2490.33
351.56	2447.32
351.77	2443.23
351.99	2537.43
352.20	2684.89
352.41	2523.10
352.62	2301.92
352.83	2441.18
353.04	2490.33
353.25	2428.89
353.46	2510.81
353.67	2600.92
353.88	2293.72
354.09	2461.66
354.30	2469.85
354.52	2660.31
354.73	2400.22
354.94	2351.07
355.15	2416.60
355.36	2756.57
355.57	2426.84
355.78	2420.70
355.99	2318.30
356.20	2420.70
356.41	2652.12
356.62	2555.86
356.83	2475.99
357.04	2623.45
357.25	2281.44
357.46	2363.36
357.68	2299.87
357.89	2396.12
358.10	2486.23
358.31	2377.69
358.52	2398.17
358.73	2310.11
358.94	2359.26
359.15	2437.08
359.36	2500.57
359.57	2512.86
359.78	2502.62
359.99	2555.86
360.20	2449.37
360.41	2506.71
360.62	2508.76
360.83	2457.56
361.04	2441.18
361.25	2480.09
361.46	2666.46
361.67	2551.77
361.88	2488.28
362.09	2586.58
362.30	2465.75
362.51	2418.65
362.72	2396.12
362.93	2521.05
363.14	2576.34
363.35	2408.41
363.56	2318.30
363.78	2578.39
363.99	2605.02
364.20	2334.68
364.41	2498.52
364.62	2768.85
364.83	2533.34
365.04	2439.13
365.25	2400.22
365.46	2752.47
365.67	2453.47
365.88	2504.67
366.09	2437.08
366.30	2564.06
366.51	2455.51
366.72	2283.49
366.93	2408.41
367.14	2478.04
367.35	2650.07
367.56	2359.26
367.77	2586.58
367.98	2406.36
368.18	2519.00
368.39	2519.00
368.60	2322.40
368.81	2519.00
369.02	2500.57
369.23	2430.94
369.44	2316.25
369.65	2437.08
369.86	2521.05
370.07	2488.28
370.28	2340.83
370.49	2586.58
370.70	2621.40
370.91	2381.79
371.12	2252.77
371.33	2553.82
371.54	2437.08
371.75	2600.92
371.96	2170.85
372.17	2451.42
372.38	2475.99
372.59	2471.90
372.80	2475.99
373.01	2465.75
373.22	2490.33
373.43	2461.66
373.64	2314.20
373.85	2625.50
374.06	2719.70
374.26	2535.39
374.47	2463.71
374.68	2731.99
374.89	2537.43
375.10	2389.98
375.31	2539.48
375.52	2494.43
375.73	2455.51
375.94	2361.31
376.15	2619.35
376.36	2469.85
376.57	2359.26
376.78	2379.74
376.99	2428.89
377.20	2686.94
377.40	2402.27
377.61	2596.82
377.82	2332.64
378.03	2684.89
378.24	2521.05
378.45	2461.66
378.66	2441.18
378.87	2367.45
379.08	2381.79
379.29	2459.61
379.50	2580.44
379.71	2414.56
379.91	2514.91
380.12	2451.42
380.33	2480.09
380.54	2525.15
380.75	2492.38
380.96	2342.88
381.17	2461.66
381.38	2486.23
381.59	2482.14
381.80	2473.95
382.00	2674.65
382.21	2537.43
382.42	2719.70
382.63	2656.22
382.84	2531.29
383.05	2619.35
383.26	2711.51
383.47	2529.24
383.68	2502.62
383.88	2594.78
384.09	2553.82
384.30	2633.69
384.51	2502.62
384.72	2416.60
384.93	2361.31
385.14	2457.56
385.35	2625.50
385.55	2318.30
385.76	2584.54
385.97	2488.28
386.18	2281.44
386.39	2338.78
386.60	2469.85
386.81	2451.42
387.02	2312.16
387.22	2353.12
387.43	2637.78
387.64	2502.62
387.85	2617.30
388.06	2650.07
388.27	4063.17
388.48	8417.15
388.68	12064.58
388.89	14456.61
389.10	15896.33
389.31	14792.48
389.52	11730.76
389.73	10090.34
389.93	8970.10
390.14	8318.85
390.35	7430.03
390.56	6868.89
390.77	5502.89
390.98	4227.01
391.18	3481.55
391.39	2934.74
391.60	2572.25
391.81	2613.21
392.02	2412.51
392.23	2815.96
392.43	2553.82
392.64	2605.02
392.85	2389.98
393.06	2658.26
393.27	2545.63
393.47	2404.32
393.68	2488.28
393.89	2387.93
394.10	2625.50
394.31	2383.84
394.52	2392.03
394.72	2402.27
394.93	2736.09
395.14	2301.92
395.35	2549.72
395.56	2475.99
395.76	2498.52
395.97	2404.32
396.18	2508.76
396.39	2582.49
396.60	2977.75
396.80	2772.95
397.01	2557.91
397.22	2613.21
397.43	2727.89
397.64	2400.22
397.84	2541.53
398.05	2764.76
398.26	2445.27
398.47	2564.06
398.67	2621.40
398.88	2475.99
399.09	2494.43
399.30	2387.93
399.51	2572.25
399.71	2367.45
399.92	2482.14
400.13	2506.71
400.34	2410.46
400.54	2502.62
400.75	2637.78
400.96	2496.47
401.17	2691.03
401.37	2578.39
401.58	2478.04
401.79	2484.19
402.00	2602.97
402.21	2887.64
402.41	2693.08
402.62	2836.44
402.83	2854.87
403.04	2858.96
403.24	3108.82
403.45	2555.86
403.66	2815.96
403.87	2705.37
404.07	2725.85
404.28	2697.17
404.49	2666.46
404.70	2547.67
404.90	2645.98
405.11	2408.41
405.32	2584.54
405.52	2480.09
405.73	2412.51
405.94	2299.87
406.15	2500.57
406.35	2568.15
406.56	2510.81
406.77	2490.33
406.98	2502.62
407.18	2437.08
407.39	2691.03
407.60	2416.60
407.80	2424.80
408.01	2424.80
408.22	2521.05
408.43	2371.55
408.63	2510.81
408.84	2586.58
409.05	2609.11
409.25	2359.26
409.46	2357.21
409.67	2457.56
409.88	2306.01
410.08	2478.04
410.29	2414.56
410.50	2635.74
410.70	2588.63
410.91	2375.64
411.12	2514.91
411.32	2465.75
411.53	2385.88
411.74	2537.43
411.95	2588.63
412.15	2625.50
412.36	2588.63
412.57	2592.73
412.77	2557.91
412.98	2508.76
413.19	2512.86
413.39	2486.23
413.60	2531.29
413.81	2643.93
414.01	2400.22
414.22	2502.62
414.43	2541.53
414.63	2408.41
414.84	2582.49
415.05	2475.99
415.25	2256.86
415.46	2656.22
415.67	2463.71
415.87	2441.18
416.08	2465.75
416.29	2473.95
416.49	2592.73
416.70	2465.75
416.91	2418.65
417.11	2453.47
417.32	2609.11
417.53	2588.63
417.73	2498.52
417.94	2463.71
418.15	2510.81
418.35	2498.52
418.56	2506.71
418.77	2734.04
418.97	2451.42
419.18	2471.90
419.38	2256.86
419.59	2533.34
419.80	2652.12
420.00	2469.85
420.21	2387.93
420.42	2506.71
420.62	2463.71
420.83	2428.89
421.04	2394.08
421.24	2455.51
421.45	2594.78
421.65	2521.05
421.86	2416.60
422.07	2545.63
422.27	2535.39
422.48	2353.12
422.69	2201.57
422.89	2529.24
423.10	2426.84
423.30	2361.31
423.51	2480.09
423.72	2650.07
423.92	2553.82
424.13	2250.72
424.33	2478.04
424.54	2648.02
424.75	2607.06
424.95	2602.97
425.16	2471.90
425.36	2447.32
425.57	2586.58
425.78	2537.43
425.98	2541.53
426.19	2381.79
426.39	2379.74
426.60	2516.95
426.81	2594.78
427.01	2478.04
427.22	2437.08
427.42	2318.30
427.63	2428.89
427.83	2668.50
428.04	2775.00
428.25	2572.25
428.45	2605.02
428.66	2627.54
428.86	2430.94
429.07	2404.32
429.28	2426.84
429.48	2459.61
429.69	2422.75
429.89	2508.76
430.10	2316.25
430.30	2598.87
430.51	2605.02
430.71	2301.92
430.92	2439.13
431.13	2441.18
431.33	2465.75
431.54	2498.52
431.74	2568.15
431.95	2777.05
432.15	2340.83
432.36	2426.84
432.56	2572.25
432.77	2744.28
432.98	2731.99
433.18	2514.91
433.39	2471.90
433.59	2508.76
433.80	2758.61
434.00	2662.36
434.21	2365.40
434.41	2379.74
434.62	2721.75
434.82	2351.07
435.03	2308.06
435.23	2529.24
435.44	2269.15
435.64	2435.03
435.85	2461.66
436.06	2588.63
436.26	2635.74
436.47	2490.33
436.67	2410.46
436.88	2441.18
437.08	2596.82
437.29	2611.16
437.49	2482.14
437.70	2598.87
437.90	2508.76
438.11	2666.46
438.31	2494.43
438.52	2727.89
438.72	2738.13
438.93	2760.66
439.13	2551.77
439.34	2635.74
439.54	2465.75
439.75	2658.26
439.95	2502.62
440.16	2404.32
440.36	2510.81
440.57	2543.58
440.77	2547.67
440.98	2516.95
441.18	2539.48
441.39	2432.99
441.59	2342.88
441.80	2658.26
442.00	2486.23
442.21	2545.63
442.41	2400.22
442.62	2643.93
442.82	2428.89
443.02	2473.95
443.23	2527.19
443.43	2498.52
443.64	2652.12
443.84	2349.02
444.05	2549.72
444.25	2506.71
444.46	2531.29
444.66	2357.21
444.87	2609.11
445.07	2291.68
445.28	2553.82
445.48	2662.36
445.69	2580.44
445.89	2824.15
446.09	2484.19
446.30	2787.29
446.50	2947.03
446.71	4650.94
446.91	5738.41
447.12	6524.83
447.32	6907.80
447.53	6479.77
447.73	5406.64
447.93	4759.48
448.14	4450.24
448.34	4415.42
448.55	3952.58
448.75	3743.69
448.96	3583.95
449.16	3284.94
449.36	3020.75
449.57	2748.37
449.77	2555.86
449.98	2426.84
450.18	2529.24
450.39	2592.73
450.59	2588.63
450.79	2420.70
451.00	2441.18
451.20	2572.25
451.41	2461.66
451.61	2557.91
451.81	2529.24
452.02	2519.00
452.22	2367.45
452.43	2394.08
452.63	2404.32
452.84	2527.19
453.04	2346.97
453.24	2516.95
453.45	2316.25
453.65	2498.52
453.86	2478.04
454.06	2537.43
454.26	2451.42
454.47	2426.84
454.67	2605.02
454.87	2566.10
455.08	2463.71
455.28	2650.07
455.49	2490.33
455.69	2410.46
455.89	2777.05
456.10	2523.10
456.30	2461.66
456.51	2586.58
456.71	2439.13
456.91	2545.63
457.12	2498.52
457.32	2584.54
457.52	2344.92
457.73	2594.78
457.93	2586.58
458.14	2457.56
458.34	2281.44
458.54	2451.42
458.75	2449.37
458.95	2643.93
459.15	2541.53
459.36	2471.90
459.56	2453.47
459.76	2832.34
459.97	2488.28
460.17	2465.75
460.37	2605.02
460.58	2504.67
460.78	2625.50
460.99	2404.32
461.19	2410.46
461.39	2404.32
461.60	2435.03
461.80	2502.62
462.00	2332.64
462.21	2441.18
462.41	2449.37
462.61	2420.70
462.82	2392.03
463.02	2545.63
463.22	2553.82
463.43	2469.85
463.63	2463.71
463.83	2672.60
464.04	2549.72
464.24	2473.95
464.44	2326.49
464.64	2527.19
464.85	2514.91
465.05	2555.86
465.25	2402.27
465.46	2373.60
465.66	2592.73
465.86	2596.82
466.07	2457.56
466.27	2535.39
466.47	2418.65
466.68	2326.49
466.88	2619.35
467.08	2568.15
467.29	2590.68
467.49	2484.19
467.69	2557.91
467.89	2529.24
468.10	2484.19
468.30	2478.04
468.50	2605.02
468.71	2623.45
468.91	2351.07
469.11	2680.79
469.31	2510.81
469.52	2400.22
469.72	2697.17
469.92	2740.18
470.13	2447.32
470.33	2543.58
470.53	2572.25
470.73	2949.08
470.94	3330.00
471.14	3401.68
471.34	3815.37
471.54	3725.26
471.75	3420.11
471.95	3033.04
472.15	3053.52
472.36	2985.94
472.56	2940.88
472.76	2977.75
472.96	2877.40
473.17	2748.37
473.37	2641.88
473.57	2529.24
473.77	2594.78
473.98	2512.86
474.18	2398.17
474.38	2809.81
474.58	2529.24
474.79	2459.61
474.99	2635.74
475.19	2596.82
475.39	2432.99
475.60	2570.20
475.80	2449.37
476.00	2529.24
476.20	2437.08
476.41	2496.47
476.61	2557.91
476.81	2658.26
477.01	2357.21
477.21	2662.36
477.42	2594.78
477.62	2469.85
477.82	2592.73
478.02	2379.74
478.23	2510.81
478.43	2375.64
478.63	2465.75
478.83	2463.71
479.03	2402.27
479.24	2691.03
479.44	2715.61
479.64	2349.02
479.84	2224.09
480.04	2435.03
480.25	2639.83
480.45	2418.65
480.65	2482.14
480.85	2672.60
481.06	2500.57
481.26	2463.71
481.46	2537.43
481.66	2566.10
481.86	2387.93
482.06	2654.17
482.27	2521.05
482.47	2379.74
482.67	2537.43
482.87	2457.56
483.07	2625.50
483.28	2334.68
483.48	2316.25
483.68	2383.84
483.88	2322.40
484.08	2301.92
484.29	2330.59
484.49	2516.95
484.69	2406.36
484.89	2623.45
485.09	2506.71
485.29	2459.61
485.50	2519.00
485.70	2367.45
485.90	2598.87
486.10	2457.56
486.30	2471.90
486.50	2602.97
486.71	2451.42
486.91	2512.86
487.11	2504.67
487.31	2414.56
487.51	2588.63
487.71	2334.68
487.91	2365.40
488.12	2420.70
488.32	2191.33
488.52	2383.84
488.72	2228.19
488.92	2514.91
489.12	2553.82
489.32	2621.40
489.53	2402.27
489.73	2349.02
489.93	2686.94
490.13	2430.94
490.33	2273.25
490.53	2531.29
490.73	2635.74
490.94	2340.83
491.14	2594.78
491.34	2629.59
491.54	2787.29
491.74	3360.72
491.94	4020.16
492.14	4282.30
492.34	4390.84
492.54	4069.31
492.75	3528.65
492.95	3551.18
493.15	3211.22
493.35	2981.84
493.55	3078.10
493.75	2936.79
493.95	3096.53
494.15	2815.96
494.35	2637.78
494.56	2504.67
494.76	2527.19
494.96	2486.23
495.16	2492.38
495.36	2545.63
495.56	2521.05
495.76	2531.29
495.96	2422.75
496.16	2392.03
496.36	2783.19
496.56	2430.94
496.77	2541.53
496.97	2555.86
497.17	2727.89
497.37	2320.35
497.57	2510.81
497.77	2523.10
497.97	2371.55
498.17	2519.00
498.37	2383.84
498.57	2514.91
498.77	2459.61
498.97	2461.66
499.17	2676.70
499.38	2582.49
499.58	2482.14
499.78	2555.86
499.98	2572.25
500.18	2375.64
500.38	2453.47
500.58	2633.69
500.78	3074.00
500.98	5341.10
501.18	7503.76
501.38	9179.00
501.58	10166.12
501.78	10022.76
501.98	7999.37
502.18	6879.13
502.38	5750.70
502.58	5312.43
502.78	4921.27
502.98	4714.42
503.18	4493.24
503.38	4054.98
503.59	3567.56
503.79	3338.19
503.99	3149.78
504.19	3096.53
504.39	3047.38
504.59	3096.53
504.79	3006.42
504.99	3055.57
505.19	2863.06
505.39	2664.41
505.59	2850.77
505.79	2858.96
505.99	2695.13
506.19	2545.63
506.39	2734.04
506.59	2519.00
506.79	2510.81
506.99	2598.87
507.19	2494.43
507.39	2480.09
507.59	2357.21
507.79	2408.41
507.99	2402.27
508.19	2457.56
508.39	2453.47
508.59	2461.66
508.79	2691.03
508.99	2758.61
509.19	2482.14
509.39	2572.25
509.59	2357.21
509.79	2459.61
509.99	2545.63
510.19	2529.24
510.39	2609.11
510.59	2437.08
510.79	2465.75
510.99	2351.07
511.19	2455.51
511.39	2654.17
511.59	2621.40
511.79	2564.06
511.99	2461.66
512.19	2672.60
512.38	2523.10
512.58	2400.22
512.78	2406.36
512.98	2629.59
513.18	2676.70
513.38	2369.50
513.58	2494.43
513.78	2445.27
513.98	2478.04
514.18	2578.39
514.38	2408.41
514.58	2531.29
514.78	2377.69
514.98	2361.31
515.18	2389.98
515.38	2389.98
515.58	2742.23
515.78	2455.51
515.98	2510.81
516.18	2613.21
516.38	2516.95
516.57	2420.70
516.77	2428.89
516.97	2578.39
517.17	2406.36
517.37	2361.31
517.57	2533.34
517.77	2527.19
517.97	2349.02
518.17	2424.80
518.37	2355.16
518.57	2418.65
518.77	2426.84
518.97	2453.47
519.16	2435.03
519.36	2584.54
519.56	2451.42
519.76	2473.95
519.96	2516.95
520.16	2711.51
520.36	2441.18
520.56	2545.63
520.76	2398.17
520.96	2514.91
521.16	2549.72
521.35	2715.61
521.55	2639.83
521.75	2510.81
521.95	2416.60
522.15	2445.27
522.35	2308.06
522.55	2375.64
522.75	2598.87
522.95	2396.12
523.14	2265.05
523.34	2461.66
523.54	2424.80
523.74	2541.53
523.94	2490.33
524.14	2363.36
524.34	2572.25
524.54	2619.35
524.73	2432.99
524.93	2586.58
525.13	2447.32
525.33	2340.83
525.53	2752.47
525.73	2664.41
525.93	2471.90
526.13	2449.37
526.32	2428.89
526.52	2570.20
526.72	2619.35
526.92	2506.71
527.12	2385.88
527.32	2379.74
527.52	2480.09
527.71	2459.61
527.91	2482.14
528.11	2437.08
528.31	2441.18
528.51	2342.88
528.71	2580.44
528.90	2568.15
529.10	2615.26
529.30	2564.06
529.50	2209.76
529.70	2584.54
529.90	2502.62
530.09	2449.37
530.29	2330.59
530.49	2432.99
530.69	2799.57
530.89	2490.33
531.09	2510.81
531.28	2422.75
531.48	2547.67
531.68	2498.52
531.88	2525.15
532.08	2654.17
532.28	2402.27
532.47	2516.95
532.67	2551.77
532.87	2461.66
533.07	2373.60
533.27	2543.58
533.46	2568.15
533.66	2590.68
533.86	2543.58
534.06	2514.91
534.26	2514.91
534.45	2486.23
534.65	2633.69
534.85	2564.06
535.05	2447.32
535.25	2547.67
535.44	2349.02
535.64	2523.10
535.84	2508.76
536.04	2510.81
536.24	2478.04
536.43	2430.94
536.63	2484.19
536.83	2525.15
537.03	2478.04
537.22	2328.54
537.42	2226.14
537.62	2559.96
537.82	2363.36
538.02	2588.63
538.21	2494.43
538.41	2889.68
538.61	2584.54
538.81	2414.56
539.00	2627.54
539.20	2342.88
539.40	2506.71
539.60	2482.14
539.79	2596.82
539.99	2482.14
540.19	2351.07
540.39	2422.75
540.58	2519.00
540.78	2635.74
540.98	2531.29
541.18	2631.64
541.37	2449.37
541.57	2523.10
541.77	2535.39
541.97	2367.45
542.16	2340.83
542.36	2523.10
542.56	2424.80
542.76	2609.11
542.95	2531.29
543.15	2645.98
543.35	2519.00
543.54	2340.83
543.74	2371.55
543.94	2676.70
544.14	2455.51
544.33	2594.78
544.53	2416.60
544.73	2475.99
544.93	2459.61
545.12	2449.37
545.32	2471.90
545.52	2482.14
545.71	2269.15
545.91	2375.64
546.11	2463.71
546.30	2432.99
546.50	2463.71
546.70	2539.48
546.90	2471.90
547.09	2267.10
547.29	2547.67
547.49	2547.67
547.68	2510.81
547.88	2387.93
548.08	2588.63
548.27	2891.73
548.47	2355.16
548.67	2455.51
548.87	2619.35
549.06	2482.14
549.26	2428.89
549.46	2557.91
549.65	2385.88
549.85	2473.95
550.05	2502.62
550.24	2269.15
550.44	2502.62
550.64	2537.43
550.83	2572.25
551.03	2738.13
551.23	2617.30
551.42	2473.95
551.62	2506.71
551.82	2531.29
552.01	2578.39
552.21	2631.64
552.41	2523.10
552.60	2707.41
552.80	2525.15
553.00	2430.94
553.19	2471.90
553.39	2717.65
553.59	2387.93
553.78	2449.37
553.98	2527.19
554.17	2299.87
554.37	2600.92
554.57	2510.81
554.76	2381.79
554.96	2449.37
555.16	2475.99
555.35	2572.25
555.55	2539.48
555.75	2588.63
555.94	2637.78
556.14	2277.34
556.33	2508.76
556.53	2539.48
556.73	2457.56
556.92	2559.96
557.12	2506.71
557.32	2766.81
557.51	2664.41
557.71	2539.48
557.90	2641.88
558.10	2615.26
558.30	2418.65
558.49	2426.84
558.69	2402.27
558.88	2447.32
559.08	2572.25
559.28	2461.66
559.47	2504.67
559.67	2584.54
559.86	2668.50
560.06	2457.56
560.26	2443.23
560.45	2473.95
560.65	2435.03
560.84	2719.70
561.04	2428.89
561.24	2521.05
561.43	2392.03
561.63	2684.89
561.82	2576.34
562.02	2564.06
562.22	2365.40
562.41	2346.97
562.61	2357.21
562.80	2365.40
563.00	2805.72
563.19	2533.34
563.39	2459.61
563.59	2555.86
563.78	2314.20
563.98	2314.20
564.17	2383.84
564.37	2326.49
564.56	2490.33
564.76	2353.12
564.96	2547.67
565.15	2566.10
565.35	2740.18
565.54	2351.07
565.74	2430.94
565.93	2639.83
566.13	2580.44
566.32	2439.13
566.52	2494.43
566.71	2494.43
566.91	2596.82
567.11	2484.19
567.30	2473.95
567.50	2498.52
567.69	2609.11
567.89	2455.51
568.08	2463.71
568.28	2527.19
568.47	2324.44
568.67	2437.08
568.86	2373.60
569.06	2691.03
569.25	2463.71
569.45	2400.22
569.64	2406.36
569.84	2514.91
570.04	2543.58
570.23	2377.69
570.43	2428.89
570.62	2523.10
570.82	2740.18
571.01	2338.78
571.21	2412.51
571.40	2404.32
571.60	2596.82
571.79	2490.33
571.99	2457.56
572.18	2385.88
572.38	2621.40
572.57	2527.19
572.77	2461.66
572.96	2863.06
573.16	2523.10
573.35	2482.14
573.55	2619.35
573.74	2537.43
573.94	2437.08
574.13	2430.94
574.33	2641.88
574.52	2670.55
574.71	2504.67
574.91	2537.43
575.10	2371.55
575.30	2521.05
575.49	2383.84
575.69	2512.86
575.88	2547.67
576.08	2510.81
576.27	2662.36
576.47	2449.37
576.66	2637.78
576.86	2674.65
577.05	2562.01
577.25	2596.82
577.44	2744.28
577.64	2447.32
577.83	2609.11
578.02	2424.80
578.22	2670.55
578.41	2746.33
578.61	2449.37
578.80	2414.56
579.00	2478.04
579.19	2535.39
579.39	2578.39
579.58	2531.29
579.77	2445.27
579.97	2652.12
580.16	2619.35
580.36	2578.39
580.55	2539.48
580.75	2535.39
580.94	2570.20
581.13	2641.88
581.33	2715.61
581.52	2549.72
581.72	2734.04
581.91	2744.28
582.11	2531.29
582.30	2637.78
582.49	2519.00
582.69	2678.74
582.88	2510.81
583.08	2541.53
583.27	2715.61
583.47	2539.48
583.66	2457.56
583.85	2414.56
584.05	2445.27
584.24	2592.73
584.44	2551.77
584.63	2637.78
584.82	2709.46
585.02	2695.13
585.21	2654.17
585.41	2727.89
585.60	2570.20
585.79	2709.46
585.99	2766.81
586.18	2711.51
586.37	3250.13
586.57	5035.96
586.76	14982.94
586.96	34342.39
587.15	47779.11
587.34	56362.15
587.54	61062.24
587.73	55872.68
587.93	39196.07
588.12	29716.03
588.31	24333.96
588.51	21024.45
588.70	19381.98
588.89	17278.71
589.09	14946.08
589.28	12566.34
589.47	10198.88
589.67	8023.94
589.86	6236.06
590.06	4591.55
590.25	3819.46
590.44	3336.14
590.64	3014.61
590.83	2856.92
591.02	2785.24
591.22	2600.92
591.41	2576.34
591.60	2555.86
591.80	2805.72
591.99	2432.99
592.18	2416.60
592.38	2652.12
592.57	2498.52
592.76	2498.52
592.96	2514.91
593.15	2580.44
593.34	2682.84
593.54	2414.56
593.73	2564.06
593.92	2625.50
594.12	2666.46
594.31	2580.44
594.50	2672.60
594.70	2637.78
594.89	2914.26
595.08	2398.17
595.28	2688.98
595.47	2953.17
595.66	2576.34
595.86	2420.70
596.05	2400.22
596.24	2447.32
596.43	2731.99
596.63	2533.34
596.82	2551.77
597.01	2648.02
597.21	2799.57
597.40	2559.96
597.59	2492.38
597.79	2514.91
597.98	2545.63
598.17	2578.39
598.36	2525.15
598.56	2607.06
598.75	2422.75
598.94	2514.91
599.14	2475.99
599.33	2469.85
599.52	2605.02
599.71	2455.51
599.91	2670.55
600.10	2619.35
600.29	2555.86
600.48	2512.86
600.68	2609.11
600.87	2521.05
601.06	2482.14
601.26	2506.71
601.45	2596.82
601.64	2527.19
601.83	2674.65
602.03	2428.89
602.22	2369.50
602.41	2662.36
602.60	2807.77
602.80	2609.11
602.99	2490.33
603.18	2519.00
603.37	2582.49
603.57	2502.62
603.76	2572.25
603.95	2615.26
604.14	2389.98
604.34	2498.52
604.53	2482.14
604.72	2500.57
604.91	2531.29
605.10	2514.91
605.30	2283.49
605.49	2805.72
605.68	2559.96
605.87	2508.76
606.07	2435.03
606.26	2572.25
606.45	2555.86
606.64	2449.37
606.84	2416.60
607.03	2531.29
607.22	2625.50
607.41	2490.33
607.60	2412.51
607.80	2645.98
607.99	2498.52
608.18	2461.66
608.37	2525.15
608.56	2449.37
608.76	2584.54
608.95	2670.55
609.14	2539.48
609.33	2678.74
609.52	2721.75
609.72	2564.06
609.91	2654.17
610.10	2512.86
610.29	2693.08
610.48	2602.97
610.68	2549.72
610.87	2455.51
611.06	2611.16
611.25	2408.41
611.44	2658.26
611.63	2420.70
611.83	2625.50
612.02	2363.36
612.21	2539.48
612.40	2217.95
612.59	2363.36
612.79	2363.36
612.98	2428.89
613.17	2686.94
613.36	2500.57
613.55	2605.02
613.74	2508.76
613.93	2650.07
614.13	2815.96
614.32	2781.14
614.51	2623.45
614.70	2600.92
614.89	2551.77
615.08	2643.93
615.28	2947.03
615.47	2428.89
615.66	2641.88
615.85	2510.81
616.04	2637.78
616.23	2531.29
616.42	2471.90
616.62	2576.34
616.81	2553.82
617.00	2533.34
617.19	2543.58
617.38	2465.75
617.57	2502.62
617.76	2564.06
617.95	2570.20
618.15	2576.34
618.34	2643.93
618.53	2308.06
618.72	2615.26
618.91	2664.41
619.10	2559.96
619.29	2471.90
619.48	2488.28
619.68	2387.93
619.87	2439.13
620.06	2342.88
620.25	2535.39
620.44	2480.09
620.63	2463.71
620.82	2598.87
621.01	2521.05
621.20	2482.14
621.39	2473.95
621.59	2535.39
621.78	2445.27
621.97	2482.14
622.16	2521.05
622.35	2527.19
622.54	2516.95
622.73	2519.00
622.92	2279.39
623.11	2625.50
623.30	2605.02
623.49	2553.82
623.68	2269.15
623.88	2637.78
624.07	2572.25
624.26	2359.26
624.45	2486.23
624.64	2449.37
624.83	2545.63
625.02	2422.75
625.21	2523.10
625.40	2504.67
625.59	2643.93
625.78	2512.86
625.97	2576.34
626.16	2715.61
626.35	2596.82
626.54	2506.71
626.74	2684.89
626.93	2482.14
627.12	2400.22
627.31	2555.86
627.50	2545.63
627.69	2678.74
627.88	2408.41
628.07	2408.41
628.26	2269.15
628.45	2457.56
628.64	2424.80
628.83	2459.61
629.02	2283.49
629.21	2584.54
629.40	2496.47
629.59	2406.36
629.78	2480.09
629.97	2473.95
630.16	2492.38
630.35	2449.37
630.54	2512.86
630.73	2473.95
630.92	2545.63
631.11	2453.47
631.30	2465.75
631.49	2559.96
631.68	2498.52
631.87	2500.57
632.06	2367.45
632.25	2883.54
632.44	2523.10
632.63	2553.82
632.82	2527.19
633.01	2506.71
633.20	2484.19
633.39	2494.43
633.58	2392.03
633.77	2602.97
633.96	2564.06
634.15	2527.19
634.34	2570.20
634.53	2582.49
634.72	2418.65
634.91	2340.83
635.10	2457.56
635.29	2551.77
635.48	2506.71
635.67	2441.18
635.86	2375.64
636.05	2609.11
636.24	2580.44
636.43	2564.06
636.62	2510.81
636.81	2207.71
637.00	2535.39
637.19	2465.75
637.38	2492.38
637.57	2441.18
637.76	2584.54
637.95	2691.03
638.14	2541.53
638.33	2580.44
638.52	2523.10
638.71	2375.64
638.89	2422.75
639.08	2901.97
639.27	2635.74
639.46	2752.47
639.65	3151.82
639.84	3262.41
640.03	3346.38
640.22	3174.35
640.41	3219.41
640.60	2783.19
640.79	2764.76
640.98	2629.59
641.17	2748.37
641.36	2779.09
641.55	2670.55
641.74	2449.37
641.92	2441.18
642.11	2539.48
642.30	2529.24
642.49	2418.65
642.68	2484.19
642.87	2564.06
643.06	2566.10
643.25	2310.11
643.44	2357.21
643.63	2484.19
643.82	2602.97
644.00	2336.73
644.19	2449.37
644.38	2467.80
644.57	2621.40
644.76	2531.29
644.95	2420.70
645.14	2502.62
645.33	2478.04
645.52	2502.62
645.71	2365.40
645.89	2293.72
646.08	2383.84
646.27	2394.08
646.46	2652.12
646.65	2377.69
646.84	2488.28
647.03	2318.30
647.22	2564.06
647.40	2578.39
647.59	2531.29
647.78	2293.72
647.97	2435.03
648.16	2389.98
648.35	2682.84
648.54	2539.48
648.73	2371.55
648.91	2512.86
649.10	2572.25
649.29	2363.36
649.48	2453.47
649.67	2592.73
649.86	2553.82
650.05	2535.39
650.23	2678.74
650.42	2506.71
650.61	2777.05
650.80	2674.65
650.99	2754.52
651.18	2750.42
651.36	2674.65
651.55	2508.76
651.74	2670.55
651.93	2521.05
652.12	2471.90
652.31	2486.23
652.49	2488.28
652.68	2506.71
652.87	2627.54
653.06	2549.72
653.25	2637.78
653.44	2480.09
653.62	2693.08
653.81	2457.56
654.00	2498.52
654.19	2635.74
654.38	2805.72
654.56	2525.15
654.75	2412.51
654.94	2627.54
655.13	2570.20
655.32	2463.71
655.51	2523.10
655.69	2432.99
655.88	2547.67
656.07	2336.73
656.26	2457.56
656.45	2371.55
656.63	2471.90
656.82	2496.47
657.01	2555.86
657.20	2383.84
657.38	2729.94
657.57	2330.59
657.76	2267.10
657.95	2572.25
658.14	2471.90
658.32	2533.34
658.51	2306.01
658.70	2535.39
658.89	2541.53
659.08	2471.90
659.26	2697.17
659.45	2402.27
659.64	2570.20
659.83	2473.95
660.01	2809.81
660.20	2621.40
660.39	2660.31
660.58	2215.90
660.76	2535.39
660.95	2375.64
661.14	2557.91
661.33	2334.68
661.51	2435.03
661.70	2441.18
661.89	2441.18
662.08	2422.75
662.26	2301.92
662.45	2365.40
662.64	2637.78
662.83	2602.97
663.01	2351.07
663.20	2596.82
663.39	2672.60
663.58	2320.35
663.76	2416.60
663.95	2629.59
664.14	2369.50
664.32	2422.75
664.51	2361.31
664.70	2283.49
664.89	2525.15
665.07	2332.64
665.26	2613.21
665.45	2277.34
665.64	2559.96
665.82	2439.13
666.01	2566.10
666.20	2398.17
666.38	2621.40
666.57	2695.13
666.76	3936.20
666.95	9625.45
667.13	17850.10
667.32	22671.01
667.51	26189.42
667.69	27692.63
667.88	24866.44
668.07	17327.86
668.25	14313.25
668.44	11738.96
668.63	10352.48
668.81	9256.82
669.00	7952.26
669.19	7051.16
669.38	6188.96
669.56	5097.39
669.75	4378.56
669.94	3796.93
670.12	3170.26
670.31	2875.35
670.50	2795.48
670.68	2695.13
670.87	2723.80
671.06	2473.95
671.24	2588.63
671.43	2691.03
671.62	2576.34
671.80	2430.94
671.99	2555.86
672.18	2605.02
672.36	2600.92
672.55	2521.05
672.74	2506.71
672.92	2453.47
673.11	2588.63
673.29	2318.30
673.48	2525.15
673.67	2418.65
673.85	2584.54
674.04	2490.33
674.23	2514.91
674.41	2701.27
674.60	2377.69
674.79	2324.44
674.97	2318.30
675.16	2611.16
675.34	2619.35
675.53	2314.20
675.72	2600.92
675.90	2717.65
676.09	2445.27
676.28	2451.42
676.46	2301.92
676.65	2643.93
676.83	2353.12
677.02	2480.09
677.21	2484.19
677.39	2516.95
677.58	2375.64
677.77	2455.51
677.95	2369.50
678.14	2453.47
678.32	2514.91
678.51	2400.22
678.70	2703.32
678.88	2523.10
679.07	2457.56
679.25	2461.66
679.44	2490.33
679.63	2357.21
679.81	2494.43
680.00	2553.82
680.18	2484.19
680.37	2764.76
680.55	2416.60
680.74	2383.84
680.93	2228.19
681.11	2596.82
681.30	2480.09
681.48	2535.39
681.67	2523.10
681.85	2508.76
682.04	2404.32
682.23	2559.96
682.41	2527.19
682.60	2490.33
682.78	2428.89
682.97	2383.84
683.15	2449.37
683.34	2506.71
683.53	2645.98
683.71	2334.68
683.90	2639.83
684.08	2631.64
684.27	2367.45
684.45	2414.56
684.64	2598.87
684.82	2519.00
685.01	2519.00
685.19	2488.28
685.38	2551.77
685.57	2494.43
685.75	2406.36
685.94	2469.85
686.12	2336.73
686.31	2502.62
686.49	2727.89
686.68	2250.72
686.86	2519.00
687.05	2426.84
687.23	2596.82
687.42	2422.75
687.60	2303.96
687.79	2535.39
687.97	2660.31
688.16	2637.78
688.34	2572.25
688.53	2228.19
688.71	2564.06
688.90	2574.30
689.08	2392.03
689.27	2351.07
689.45	2576.34
689.64	2461.66
689.82	2482.14
690.01	2512.86
690.19	2463.71
690.38	2449.37
690.56	2568.15
690.75	2400.22
690.93	2332.64
691.12	2410.46
691.30	2510.81
691.49	2447.32
691.67	2406.36
691.86	2736.09
692.04	2439.13
692.23	2478.04
692.41	2541.53
692.60	2799.57
692.78	2666.46
692.97	2525.15
693.15	2543.58
693.34	2709.46
693.52	2777.05
693.71	2441.18
693.89	2392.03
694.08	2367.45
694.26	2494.43
694.44	2584.54
694.63	2490.33
694.81	2320.35
695.00	2424.80
695.18	2605.02
695.37	2711.51
695.55	2519.00
695.74	2498.52
695.92	2406.36
696.10	2678.74
696.29	2346.97
696.47	2449.37
696.66	2342.88
696.84	2414.56
697.03	2445.27
697.21	2701.27
697.40	3692.49
697.58	2639.83
697.76	2383.84
697.95	2404.32
698.13	2271.20
698.32	2375.64
698.50	2383.84
698.68	2523.10
698.87	2551.77
699.05	2617.30
699.24	2486.23
699.42	2375.64
699.61	2486.23
699.79	2514.91
699.97	2523.10
700.16	2373.60
700.34	2379.74
700.53	2547.67
700.71	2627.54
700.89	2494.43
701.08	2457.56
701.26	2512.86
701.45	2940.88
701.63	2371.55
701.81	2494.43
702.00	2373.60
702.18	2414.56
702.37	2572.25
702.55	2775.00
702.73	2678.74
702.92	2531.29
703.10	2822.10
703.28	2785.24
703.47	2508.76
703.65	2717.65
703.84	2572.25
704.02	2547.67
704.20	2762.71
704.39	2480.09
704.57	2406.36
704.75	2711.51
704.94	2594.78
705.12	2531.29
705.30	2883.54
705.49	5554.09
705.67	12904.25
705.86	21012.16
706.04	25022.08
706.22	27919.96
706.41	28675.66
706.59	23021.22
706.77	16523.01
706.96	14120.74
707.14	12517.18
707.32	10745.69
707.51	9510.77
707.69	7671.69
707.87	6078.37
708.06	5052.34
708.24	4175.81
708.42	3407.82
708.61	3315.66
708.79	2719.70
708.97	2607.06
709.16	2645.98
709.34	2609.11
709.52	2539.48
709.71	2443.23
709.89	2625.50
710.07	2420.70
710.26	2359.26
710.44	2455.51
710.62	2621.40
710.80	2510.81
710.99	2547.67
711.17	2572.25
711.35	2455.51
711.54	2310.11
711.72	2588.63
711.90	2478.04
712.09	2533.34
712.27	2375.64
712.45	2543.58
712.63	2387.93
712.82	2578.39
713.00	2498.52
713.18	2514.91
713.37	2562.01
713.55	2633.69
713.73	2447.32
713.91	2519.00
714.10	2398.17
714.28	2539.48
714.46	2478.04
714.65	2506.71
714.83	2473.95
715.01	2412.51
715.19	2566.10
715.38	2371.55
715.56	2408.41
715.74	2439.13
715.92	2359.26
716.11	2623.45
716.29	2201.57
716.47	2488.28
716.65	2443.23
716.84	2342.88
717.02	2473.95
717.20	2267.10
717.38	2295.77
717.57	2529.24
717.75	2416.60
717.93	2494.43
718.11	2590.68
718.30	2314.20
718.48	2537.43
718.66	2590.68
718.84	2641.88
719.03	2377.69
719.21	2371.55
719.39	2750.42
719.57	2514.91
719.75	2531.29
719.94	2383.84
720.12	2430.94
720.30	2426.84
720.48	2570.20
720.67	2457.56
720.85	2400.22
721.03	2486.23
721.21	2392.03
721.39	2584.54
721.58	2570.20
721.76	2486.23
721.94	2416.60
722.12	2486.23
722.30	2693.08
722.49	2445.27
722.67	2453.47
722.85	2523.10
723.03	2351.07
723.21	2394.08
723.40	2529.24
723.58	2605.02
723.76	2668.50
723.94	2740.18
724.12	2555.86
724.30	2750.42
724.49	2674.65
724.67	2426.84
724.85	2641.88
725.03	2342.88
725.21	2627.54
725.40	2715.61
725.58	2408.41
725.76	2635.74
725.94	2588.63
726.12	2367.45
726.30	2475.99
726.49	2385.88
726.67	2480.09
726.85	2629.59
727.03	2916.31
727.21	4186.05
727.39	5894.05
727.57	6731.67
727.76	7499.66
727.94	7628.68
728.12	6950.81
728.30	5519.28
728.48	5097.39
728.66	4562.87
728.84	4184.00
729.03	3588.04
729.21	3233.74
729.39	2916.31
729.57	2709.46
729.75	2600.92
729.93	2580.44
730.11	2508.76
730.30	2494.43
730.48	2451.42
730.66	2621.40
730.84	2467.80
731.02	2531.29
731.20	2422.75
731.38	2465.75
731.56	2402.27
731.74	2432.99
731.93	2471.90
732.11	2547.67
732.29	2463.71
732.47	2582.49
732.65	2547.67
732.83	2625.50
733.01	2543.58
733.19	2349.02
733.37	2547.67
733.56	2461.66
733.74	2367.45
733.92	2711.51
734.10	2418.65
734.28	2553.82
734.46	2308.06
734.64	2439.13
734.82	2447.32
735.00	2379.74
735.18	2428.89
735.36	2480.09
735.54	2361.31
735.73	2430.94
735.91	2539.48
736.09	2670.55
736.27	2441.18
736.45	2621.40
736.63	2263.01
736.81	2383.84
736.99	2502.62
737.17	2652.12
737.35	2412.51
737.53	2523.10
737.71	2428.89
737.89	2521.05
738.07	2404.32
738.25	2406.36
738.43	2342.88
738.61	2406.36
738.80	2392.03
738.98	2375.64
739.16	2428.89
739.34	2353.12
739.52	2668.50
739.70	2420.70
739.88	2658.26
740.06	2545.63
740.24	2207.71
740.42	2574.30
740.60	2346.97
740.78	2498.52
740.96	2238.43
741.14	2373.60
741.32	2430.94
741.50	2351.07
741.68	2678.74
741.86	2684.89
742.04	2314.20
742.22	2344.92
742.40	2473.95
742.58	2527.19
742.76	2430.94
742.94	2566.10
743.12	2269.15
743.30	2580.44
743.48	2545.63
743.66	2344.92
743.84	2475.99
744.02	2486.23
744.20	2422.75
744.38	2394.08
744.56	2459.61
744.74	2629.59
744.92	2598.87
745.10	2684.89
745.28	2580.44
745.46	2658.26
745.64	2392.03
745.82	2627.54
746.00	2465.75
746.18	2490.33
746.36	2334.68
746.54	2490.33
746.72	2471.90
746.90	2441.18
747.08	2625.50
747.26	2394.08
747.44	2605.02
747.62	2553.82
747.80	2596.82
747.98	2568.15
748.15	2420.70
748.33	2752.47
748.51	2484.19
748.69	2564.06
748.87	2332.64
749.05	2490.33
749.23	2478.04
749.41	2428.89
749.59	2416.60
749.77	2557.91
749.95	2455.51
750.13	2435.03
750.31	2502.62
750.49	2443.23
750.67	2543.58
750.85	2666.46
751.03	2500.57
751.20	2727.89
751.38	2514.91
751.56	2437.08
751.74	2461.66
751.92	2410.46
752.10	2424.80
752.28	2588.63
752.46	2398.17
752.64	2432.99
752.82	2461.66
753.00	2641.88
753.18	2330.59
753.35	2428.89
753.53	2545.63
753.71	2349.02
753.89	2541.53
754.07	2430.94
754.25	2584.54
754.43	2492.38
754.61	2361.31
754.79	2492.38
754.97	2519.00
755.14	2617.30
755.32	2301.92
755.50	2465.75
755.68	2594.78
755.86	2359.26
756.04	2367.45
756.22	2207.71
756.40	2547.67
756.57	2707.41
756.75	2441.18
756.93	2650.07
757.11	2574.30
757.29	2373.60
757.47	2336.73
757.65	2340.83
757.82	2263.01
758.00	2428.89
758.18	2357.21
758.36	2416.60
758.54	2760.66
758.72	2324.44
758.90	2539.48
759.07	2502.62
759.25	2355.16
759.43	2494.43
759.61	2375.64
759.79	3446.73
759.97	2596.82
760.15	2404.32
760.32	2375.64
760.50	2488.28
760.68	2717.65
760.86	2308.06
761.04	2641.88
761.22	2547.67
761.39	2502.62
761.57	2475.99
761.75	2414.56
761.93	2588.63
762.11	2478.04
762.28	2451.42
762.46	2365.40
762.64	2580.44
762.82	2383.84
763.00	2396.12
763.18	2557.91
763.35	2371.55
763.53	2629.59
763.71	2514.91
763.89	2355.16
764.07	2514.91
764.24	2486.23
764.42	2650.07
764.60	2455.51
764.78	2459.61
764.96	2654.17
765.13	2584.54
765.31	2402.27
765.49	2553.82
765.67	2326.49
765.84	2445.27
766.02	2363.36
766.20	2299.87
766.38	2514.91
766.56	2516.95
766.73	2521.05
766.91	2465.75
767.09	2469.85
767.27	2527.19
767.44	2334.68
767.62	2584.54
767.80	2537.43
767.98	2441.18
768.15	2457.56
768.33	2578.39
768.51	2549.72
768.69	2475.99
768.87	2529.24
769.04	2471.90
769.22	2781.14
769.40	2553.82
769.58	2607.06
769.75	2531.29
769.93	2621.40
770.11	2410.46
770.28	2394.08
770.46	2691.03
770.64	2406.36
770.82	2408.41
770.99	2363.36
771.17	2525.15
771.35	2475.99
771.53	2437.08
771.70	2279.39
771.88	2555.86
772.06	2537.43
772.23	2418.65
772.41	2461.66
772.59	2463.71
772.77	2351.07
772.94	2430.94
773.12	2490.33
773.30	2441.18
773.47	2394.08
773.65	2363.36
773.83	2574.30
774.01	2445.27
774.18	2260.96
774.36	2398.17
774.54	2301.92
774.71	2512.86
774.89	2342.88
775.07	2269.15
775.24	2469.85
775.42	2394.08
775.60	2670.55
775.78	2389.98
775.95	2363.36
776.13	2269.15
776.31	2324.44
776.48	2543.58
776.66	2584.54
776.84	2424.80
777.01	2367.45
777.19	2365.40
777.37	2412.51
777.54	2613.21
777.72	2777.05
777.90	2519.00
778.07	2389.98
778.25	2848.72
778.43	2521.05
778.60	2365.40
778.78	2535.39
778.96	2686.94
779.13	2316.25
779.31	2547.67
779.49	2496.47
779.66	2533.34
779.84	2471.90
780.01	2441.18
780.19	2312.16
780.37	2621.40
780.54	2512.86
780.72	2334.68
780.90	2400.22
781.07	2402.27
781.25	2414.56
781.43	2596.82
781.60	2402.27
781.78	2633.69
781.95	2455.51
782.13	2383.84
782.31	2422.75
782.48	2215.90
782.66	2510.81
782.83	2670.55
783.01	2484.19
783.19	2545.63
783.36	2471.90
783.54	2416.60
783.72	2559.96
783.89	2363.36
784.07	2510.81
784.24	2553.82
784.42	2607.06
784.60	2508.76
784.77	2521.05
784.95	2244.57
785.12	2375.64
785.30	2490.33
785.47	2445.27
785.65	2308.06
785.83	2361.31
786.00	2465.75
786.18	2531.29
786.35	2342.88
786.53	2326.49
786.71	2627.54
786.88	2494.43
787.06	2486.23
787.23	2482.14
787.41	2416.60
787.58	2447.32
787.76	2332.64
787.94	2496.47
788.11	2490.33
788.29	2359.26
788.46	2392.03
788.64	2367.45
788.81	2365.40
788.99	2318.30
789.16	2281.44
789.34	2416.60
789.52	2439.13
789.69	2465.75
789.87	2277.34
790.04	2322.40
790.22	2473.95
790.39	2707.41
790.57	2289.63
790.74	2359.26
790.92	2629.59
791.09	2242.53
791.27	2422.75
791.44	2549.72
791.62	2400.22
791.79	2523.10
791.97	2559.96
792.15	2748.37
792.32	2621.40
792.50	2478.04
792.67	2627.54
792.85	2703.32
793.02	2482.14
793.20	2430.94
793.37	2381.79
793.55	2484.19
793.72	2324.44
793.90	2502.62
794.07	2383.84
794.25	2396.12
794.42	2504.67
794.60	2486.23
794.77	2539.48
794.95	2557.91
795.12	2594.78
795.30	2461.66
795.47	2224.09
795.65	2760.66
795.82	2514.91
796.00	2418.65
796.17	2486.23
796.34	2379.74
796.52	2492.38
796.69	2627.54
796.87	2494.43
797.04	2478.04
797.22	2584.54
797.39	2506.71
797.57	2555.86
797.74	2486.23
797.92	2506.71
798.09	2418.65
798.27	2617.30
798.44	2451.42
798.62	2420.70
798.79	2465.75
798.96	2531.29
799.14	2381.79
799.31	2723.80
799.49	2428.89
799.66	2357.21
799.84	2455.51
800.01	2260.96
800.19	2473.95
800.36	2269.15
800.53	2430.94
800.71	2588.63
800.88	2633.69
801.06	2408.41
801.23	2428.89
801.41	2443.23
801.58	2455.51
801.75	2424.80
801.93	2535.39
802.10	2617.30
802.28	2394.08
802.45	2412.51
802.63	2486.23
802.80	2547.67
802.97	2449.37
803.15	2457.56
803.32	2385.88
803.50	2402.27
803.67	2445.27
803.84	2324.44
804.02	2510.81
804.19	2389.98
804.37	2154.46
804.54	2346.97
804.71	2441.18
804.89	2406.36
805.06	2412.51
805.24	2332.64
805.41	2336.73
805.58	2328.54
805.76	2797.53
805.93	2404.32
806.10	2572.25
806.28	2537.43
806.45	2447.32
806.63	2531.29
806.80	2551.77
806.97	2502.62
807.15	2537.43
807.32	2486.23
807.49	2486.23
807.67	2336.73
807.84	2475.99
808.01	2326.49
808.19	2701.27
808.36	2762.71
808.54	2359.26
808.71	2383.84
808.88	2398.17
809.06	2641.88
809.23	2625.50
809.40	2426.84
809.58	2471.90
809.75	2420.70
809.92	2330.59
810.10	2650.07
810.27	2455.51
810.44	2543.58
810.62	2547.67
810.79	2412.51
810.96	2412.51
811.14	2424.80
811.31	2500.57
811.48	2469.85
811.66	2412.51
811.83	2619.35
812.00	2547.67
812.18	2521.05
812.35	2797.53
812.52	2432.99
812.69	2428.89
812.87	2432.99
813.04	2336.73
813.21	2545.63
813.39	2371.55
813.56	2328.54
813.73	2570.20
813.91	2334.68
814.08	2441.18
814.25	2457.56
814.42	2318.30
814.60	2416.60
814.77	2467.80
814.94	2439.13
815.12	2449.37
815.29	2674.65
815.46	2359.26
815.63	2449.37
815.81	2363.36
815.98	2396.12
816.15	2519.00
816.33	2504.67
816.50	2359.26
816.67	2465.75
816.84	2455.51
817.02	2369.50
817.19	2437.08
817.36	2471.90
817.53	2539.48
817.71	2398.17
817.88	2523.10
818.05	2437.08
818.22	2412.51
818.40	2699.22
818.57	2420.70
818.74	2535.39
818.91	2408.41
819.09	2478.04
819.26	2519.00
819.43	2408.41
819.60	2357.21
819.78	2531.29
819.95	2594.78
820.12	2355.16
820.29	2648.02
820.47	2670.55
820.64	2416.60
820.81	2330.59
820.98	2361.31
821.15	2385.88
821.33	2523.10
821.50	2338.78
821.67	2539.48
821.84	2365.40
822.02	2562.01
822.19	2574.30
822.36	2523.10
822.53	2482.14
822.70	2361.31
822.88	2455.51
823.05	2650.07
823.22	2435.03
823.39	2500.57
823.56	2473.95
823.74	2674.65
823.91	2301.92
824.08	2332.64
824.25	2340.83
824.42	2664.41
824.60	2373.60
824.77	2463.71
824.94	2482.14
825.11	2566.10
825.28	2265.05
825.45	2410.46
825.63	2457.56
825.80	2353.12
825.97	2531.29
826.14	2457.56
826.31	2283.49
826.48	2437.08
826.66	2379.74
826.83	2396.12
827.00	2332.64
827.17	2398.17
827.34	2457.56
827.51	2389.98
827.69	2498.52
827.86	2267.10
828.03	2424.80
828.20	2441.18
828.37	2455.51
828.54	2531.29
828.71	2383.84
828.89	2568.15
829.06	2537.43
829.23	2658.26
829.40	2353.12
829.57	2344.92
829.74	2559.96
829.91	2435.03
830.09	2369.50
830.26	2564.06
830.43	2703.32
830.60	2420.70
830.77	2449.37
830.94	2519.00
831.11	2584.54
831.28	2435.03
831.46	2621.40
831.63	2342.88
831.80	2568.15
831.97	2349.02
832.14	2473.95
832.31	2529.24
832.48	2494.43
832.65	2578.39
832.82	2471.90
832.99	2461.66
833.17	2441.18
833.34	2684.89
833.51	2455.51
833.68	2205.66
833.85	2578.39
834.02	2314.20
834.19	2279.39
834.36	2363.36
834.53	2629.59
834.70	2535.39
834.87	2531.29
835.04	2359.26
835.22	2379.74
835.39	2418.65
835.56	2252.77
835.73	2299.87
835.90	2519.00
836.07	2424.80
836.24	2537.43
836.41	2355.16
836.58	2318.30
836.75	2559.96
836.92	2439.13
837.09	2285.53
837.26	2609.11
837.43	2496.47
837.60	2473.95
837.77	2363.36
837.94	2631.64
838.12	2668.50
838.29	2392.03
838.46	2301.92
838.63	2371.55
838.80	2602.97
838.97	2441.18
839.14	2408.41
839.31	2535.39
839.48	2623.45
839.65	2371.55
839.82	2420.70
839.99	2566.10
840.16	2488.28
840.33	2375.64
840.50	2392.03
840.67	2357.21
840.84	2226.14
841.01	2349.02
841.18	2375.64
841.35	2457.56
841.52	2615.26
841.69	2650.07
841.86	2402.27
842.03	2392.03
842.20	2586.58
842.37	2338.78
842.54	2422.75
842.71	2449.37
842.88	2344.92
843.05	2406.36
843.22	2430.94
843.39	2625.50
843.56	2359.26
843.73	2392.03
843.90	2465.75
844.07	2480.09
844.24	2641.88
844.41	2375.64
844.58	2418.65
844.75	2506.71
844.92	2578.39
845.09	2357.21
845.26	2334.68
845.43	2508.76
845.60	2463.71
845.77	2455.51
845.94	2432.99
846.10	2598.87
846.27	2359.26
846.44	2326.49
846.61	2283.49
846.78	2545.63
846.95	2592.73
847.12	2387.93
847.29	2414.56
847.46	2316.25
847.63	2486.23
847.80	2322.40
847.97	2469.85
848.14	2596.82
848.31	2373.60
848.48	2265.05
848.65	2459.61
848.82	2443.23
848.98	2744.28
849.15	2521.05
849.32	2559.96
849.49	2568.15
849.66	2410.46
849.83	2371.55
850.00	2334.68
850.17	2596.82
850.34	2400.22
850.51	2355.16
850.68	2340.83
850.85	2791.38
851.01	2523.10
851.18	2414.56
851.35	2402.27
851.52	2475.99
851.69	2678.74
851.86	2277.34
852.03	2365.40
852.20	2539.48
852.37	2453.47
852.53	2310.11
852.70	2430.94
852.87	2523.10
853.04	2633.69
853.21	2385.88
853.38	2469.85
853.55	2668.50
853.72	2613.21
853.89	2351.07
854.05	2318.30
854.22	2428.89
854.39	2424.80
854.56	2363.36
854.73	2512.86
854.90	2342.88
855.07	2512.86
855.23	2334.68
855.40	2381.79
855.57	2445.27
855.74	2340.83
855.91	2562.01
856.08	2281.44
856.25	2273.25
856.41	2406.36
856.58	2340.83
856.75	2365.40
856.92	2330.59
857.09	2527.19
857.26	2301.92
857.42	2338.78
857.59	2562.01
857.76	2449.37
857.93	2449.37
858.10	2467.80
858.27	2377.69
858.43	2381.79
858.60	2338.78
858.77	2308.06
858.94	2385.88
859.11	2621.40
859.27	2379.74
859.44	2365.40
859.61	2777.05
859.78	2543.58
859.95	2351.07
860.12	2322.40
860.28	2727.89
860.45	2670.55
860.62	2394.08
860.79	2424.80
860.95	2383.84
861.12	2310.11
861.29	2326.49
861.46	2318.30
861.63	2451.42
861.79	2488.28
861.96	2318.30
862.13	2312.16
862.30	2660.31
862.47	2416.60
862.63	2254.81
862.80	2445.27
862.97	2572.25
863.14	2508.76
863.30	2465.75
863.47	2361.31
863.64	2633.69
863.81	2455.51
863.97	2359.26
864.14	2330.59
864.31	2490.33
864.48	2512.86
864.65	2418.65
864.81	2461.66
864.98	2594.78
865.15	2572.25
865.32	2457.56
865.48	2496.47
865.65	2684.89
865.82	2404.32
865.98	2424.80
866.15	2424.80
866.32	2547.67
866.49	2375.64
866.65	2533.34
866.82	2338.78
866.99	2439.13
867.16	2467.80
867.32	2330.59
867.49	2342.88
867.66	2424.80
867.83	2379.74
867.99	2375.64
868.16	2359.26
868.33	2324.44
868.49	2455.51
868.66	2351.07
868.83	2430.94
868.99	2473.95
869.16	2506.71
869.33	2543.58
869.50	2473.95
869.66	2469.85
869.83	2402.27
870.00	2256.86
870.16	2521.05
870.33	2508.76
870.50	2617.30
870.66	2418.65
870.83	2494.43
871.00	2392.03
871.17	2512.86
871.33	2392.03
871.50	2373.60
871.67	2435.03
871.83	2277.34
872.00	2545.63
872.17	2406.36
872.33	2678.74
872.50	2627.54
872.67	2424.80
872.83	2398.17
873.00	2531.29
873.17	2535.39
873.33	2430.94
873.50	2457.56
873.67	2416.60
873.83	2373.60
874.00	2367.45
874.16	2455.51
874.33	2547.67
874.50	2406.36
874.66	2400.22
874.83	2435.03
875.00	2613.21
875.16	2490.33
875.33	2475.99
875.50	2160.61
875.66	2392.03
875.83	2519.00
875.99	2494.43
876.16	2416.60
876.33	2375.64
876.49	2473.95
876.66	2457.56
876.83	2420.70
876.99	2242.53
877.16	2432.99
877.32	2400.22
877.49	2406.36
877.66	2498.52
877.82	2654.17
877.99	2367.45
878.15	2553.82
878.32	2521.05
878.49	2418.65
878.65	2361.31
878.82	2580.44
878.98	2375.64
879.15	2523.10
879.32	2478.04
879.48	2469.85
879.65	2363.36
879.81	2428.89
879.98	2353.12
880.15	2424.80
880.31	2514.91
880.48	2359.26
880.64	2551.77
880.81	2453.47
880.97	2645.98
881.14	2666.46
881.31	2334.68
881.47	2607.06
881.64	2400.22
881.80	2281.44
881.97	2404.32
882.13	2443.23
882.30	2355.16
882.47	2361.31
882.63	2383.84
882.80	2353.12
882.96	2441.18
883.13	2605.02
883.29	2432.99
883.46	2469.85
883.62	2654.17
883.79	2496.47
883.95	2500.57
884.12	2420.70
884.29	2531.29
884.45	2500.57
884.62	2514.91
884.78	2340.83
884.95	2691.03
885.11	2412.51
885.28	2430.94
885.44	2357.21
885.61	2514.91
885.77	2609.11
885.94	2543.58
886.10	2445.27
886.27	2467.80
886.43	2621.40
886.60	2529.24
886.76	2314.20
886.93	2357.21
887.09	2494.43
887.26	2310.11
887.42	2506.71
887.59	2635.74
887.75	2830.29
887.92	2498.52
888.08	2451.42
888.25	2691.03
888.41	2596.82
888.58	2445.27
888.74	2336.73
888.91	2398.17
>>>>>End Processed Spectral Data<<<<<
