SpectraSuite Data File
++++++++++++++++++++++++++++++++++++
Date: Thu May 05 14:41:35 CEST 2016
User: root
Dark Spectrum Present: No
Reference Spectrum Present: No
Number of Sampled Component Spectra: 1
Spectrometers: USB4C02835
Integration Time (usec): 100000 (USB4C02835)
Spectra Averaged: 1 (USB4C02835)
Boxcar Smoothing: 0 (USB4C02835)
Correct for Electrical Dark: No (USB4C02835)
Strobe/Lamp Enabled: No (USB4C02835)
Correct for Detector Non-linearity: No (USB4C02835)
Correct for Stray Light: No (USB4C02835)
Number of Pixels in Processed Spectrum: 3648
>>>>>Begin Processed Spectral Data<<<<<
177.47	1949.67
177.69	1949.67
177.91	1949.67
178.13	1892.32
178.36	1953.76
178.58	2396.12
178.80	2555.86
179.02	2334.68
179.24	2412.51
179.46	2250.72
179.68	2375.64
179.90	2432.99
180.13	2490.33
180.35	2234.33
180.57	2301.92
180.79	2500.57
181.01	2502.62
181.23	2469.85
181.45	2398.17
181.67	2600.92
181.90	2590.68
182.12	2318.30
182.34	2265.05
182.56	2588.63
182.78	2510.81
183.00	2301.92
183.22	2369.50
183.44	2273.25
183.66	2822.10
183.89	2506.71
184.11	2445.27
184.33	2594.78
184.55	2580.44
184.77	2381.79
184.99	2299.87
185.21	2463.71
185.43	2805.72
185.65	2351.07
185.87	2277.34
186.10	2727.89
186.32	2809.81
186.54	2432.99
186.76	2383.84
186.98	2588.63
187.20	2469.85
187.42	2340.83
187.64	2338.78
187.86	2467.80
188.08	2594.78
188.30	2328.54
188.52	2383.84
188.75	2670.55
188.97	2639.83
189.19	2324.44
189.41	2389.98
189.63	2465.75
189.85	2353.12
190.07	2267.10
190.29	2314.20
190.51	2500.57
190.73	2250.72
190.95	2457.56
191.17	2346.97
191.39	2299.87
191.61	2392.03
191.84	2363.36
192.06	2498.52
192.28	2289.63
192.50	2967.51
192.72	2392.03
192.94	2344.92
193.16	2637.78
193.38	2570.20
193.60	2334.68
193.82	2398.17
194.04	2613.21
194.26	2508.76
194.48	2389.98
194.70	2373.60
194.92	2416.60
195.14	2691.03
195.36	2414.56
195.58	2435.03
195.80	2424.80
196.02	2410.46
196.24	2330.59
196.46	2404.32
196.69	2441.18
196.91	2846.68
197.13	2392.03
197.35	2369.50
197.57	2744.28
197.79	2492.38
198.01	2408.41
198.23	2383.84
198.45	2516.95
198.67	2326.49
198.89	2301.92
199.11	2389.98
199.33	2299.87
199.55	2265.05
199.77	2254.81
199.99	2447.32
200.21	2437.08
200.43	2611.16
200.65	2316.25
200.87	2117.60
201.09	2545.63
201.31	2465.75
201.53	2441.18
201.75	2326.49
201.97	2521.05
202.19	2492.38
202.41	2445.27
202.63	2557.91
202.85	2594.78
203.07	2510.81
203.29	2320.35
203.51	2310.11
203.73	2451.42
203.95	2740.18
204.17	2320.35
204.39	2408.41
204.61	2473.95
204.83	2453.47
205.05	2494.43
205.27	2473.95
205.49	2924.50
205.71	2531.29
205.93	2263.01
206.15	2271.20
206.37	2469.85
206.59	2531.29
206.81	2244.57
207.03	2246.62
207.25	2385.88
207.47	2564.06
207.69	2371.55
207.91	2494.43
208.13	2662.36
208.34	2473.95
208.56	2297.82
208.78	2371.55
209.00	2371.55
209.22	2420.70
209.44	2389.98
209.66	2240.48
209.88	2498.52
210.10	2469.85
210.32	2367.45
210.54	2432.99
210.76	2367.45
210.98	2570.20
211.20	2146.27
211.42	2385.88
211.64	2637.78
211.86	2600.92
212.08	2412.51
212.30	2400.22
212.52	2449.37
212.74	2482.14
212.96	2439.13
213.17	2383.84
213.39	2547.67
213.61	2764.76
213.83	2244.57
214.05	2367.45
214.27	2588.63
214.49	2312.16
214.71	2275.29
214.93	2394.08
215.15	2424.80
215.37	2504.67
215.59	2228.19
215.81	2459.61
216.03	2652.12
216.24	2465.75
216.46	2310.11
216.68	2418.65
216.90	2559.96
217.12	2641.88
217.34	2379.74
217.56	2408.41
217.78	2699.22
218.00	2523.10
218.22	2398.17
218.44	2482.14
218.66	2506.71
218.87	2744.28
219.09	2357.21
219.31	2301.92
219.53	2572.25
219.75	2441.18
219.97	2451.42
220.19	2342.88
220.41	2475.99
220.63	2688.98
220.85	2318.30
221.06	2355.16
221.28	2535.39
221.50	2568.15
221.72	2299.87
221.94	2271.20
222.16	2443.23
222.38	2580.44
222.60	2373.60
222.82	2494.43
223.03	2621.40
223.25	2299.87
223.47	2355.16
223.69	2500.57
223.91	2535.39
224.13	2512.86
224.35	2277.34
224.57	2508.76
224.78	2629.59
225.00	2392.03
225.22	2392.03
225.44	2398.17
225.66	2564.06
225.88	2375.64
226.10	2420.70
226.32	2414.56
226.53	2662.36
226.75	2363.36
226.97	2418.65
227.19	2322.40
227.41	2410.46
227.63	2346.97
227.85	2195.42
228.06	2373.60
228.28	2463.71
228.50	2488.28
228.72	2199.52
228.94	2217.95
229.16	2260.96
229.37	2373.60
229.59	2269.15
229.81	2547.67
230.03	2451.42
230.25	2211.81
230.47	2176.99
230.69	2351.07
230.90	2605.02
231.12	2416.60
231.34	2410.46
231.56	2445.27
231.78	2330.59
232.00	2404.32
232.21	2357.21
232.43	2363.36
232.65	2267.10
232.87	2551.77
233.09	2291.68
233.30	2308.06
233.52	2621.40
233.74	2400.22
233.96	2301.92
234.18	2482.14
234.40	2426.84
234.61	2764.76
234.83	2244.57
235.05	2326.49
235.27	2760.66
235.49	2695.13
235.70	2318.30
235.92	2422.75
236.14	2531.29
236.36	2785.24
236.58	2236.38
236.79	2367.45
237.01	2531.29
237.23	2510.81
237.45	2609.11
237.67	2320.35
237.88	2514.91
238.10	2709.46
238.32	2246.62
238.54	2359.26
238.76	2498.52
238.97	2439.13
239.19	2371.55
239.41	2398.17
239.63	2500.57
239.85	2394.08
240.06	2406.36
240.28	2258.91
240.50	2592.73
240.72	2467.80
240.93	2338.78
241.15	2414.56
241.37	2449.37
241.59	2666.46
241.81	2334.68
242.02	2375.64
242.24	2506.71
242.46	2641.88
242.68	2226.14
242.89	2308.06
243.11	2615.26
243.33	2430.94
243.55	2424.80
243.76	2336.73
243.98	2351.07
244.20	2496.47
244.42	2342.88
244.64	2322.40
244.85	2275.29
245.07	2340.83
245.29	2432.99
245.51	2408.41
245.72	2482.14
245.94	2559.96
246.16	2338.78
246.38	2351.07
246.59	2389.98
246.81	2387.93
247.03	2310.11
247.24	2283.49
247.46	2432.99
247.68	2529.24
247.90	2308.06
248.11	2357.21
248.33	2588.63
248.55	2525.15
248.77	2344.92
248.98	2447.32
249.20	2717.65
249.42	2484.19
249.64	2410.46
249.85	2289.63
250.07	2406.36
250.29	2562.01
250.50	2424.80
250.72	2314.20
250.94	2602.97
251.16	2777.05
251.37	2361.31
251.59	2439.13
251.81	2596.82
252.02	2699.22
252.24	2340.83
252.46	2387.93
252.68	2414.56
252.89	2357.21
253.11	2174.94
253.33	2475.99
253.54	2668.50
253.76	2314.20
253.98	2392.03
254.20	2353.12
254.41	2371.55
254.63	2506.71
254.85	2234.33
255.06	2383.84
255.28	2494.43
255.50	2426.84
255.71	2318.30
255.93	2236.38
256.15	2490.33
256.36	2564.06
256.58	2336.73
256.80	2359.26
257.02	2424.80
257.23	2422.75
257.45	2392.03
257.67	2480.09
257.88	2424.80
258.10	2551.77
258.32	2293.72
258.53	2428.89
258.75	2668.50
258.97	2383.84
259.18	2326.49
259.40	2256.86
259.62	2752.47
259.83	2650.07
260.05	2332.64
260.27	2904.02
260.48	2598.87
260.70	2346.97
260.92	2281.44
261.13	2371.55
261.35	2510.81
261.57	2547.67
261.78	2326.49
262.00	2301.92
262.22	2439.13
262.43	2404.32
262.65	2338.78
262.86	2373.60
263.08	2775.00
263.30	2516.95
263.51	2260.96
263.73	2334.68
263.95	2725.85
264.16	2389.98
264.38	2246.62
264.60	2310.11
264.81	2502.62
265.03	2539.48
265.25	2588.63
265.46	2318.30
265.68	2695.13
265.89	2521.05
266.11	2238.43
266.33	2359.26
266.54	2619.35
266.76	2539.48
266.98	2496.47
267.19	2486.23
267.41	2590.68
267.62	2385.88
267.84	2207.71
268.06	2400.22
268.27	2572.25
268.49	2564.06
268.70	2363.36
268.92	2424.80
269.14	2359.26
269.35	2320.35
269.57	2512.86
269.79	2435.03
270.00	2441.18
270.22	2748.37
270.43	2289.63
270.65	2166.75
270.87	2580.44
271.08	2582.49
271.30	2439.13
271.51	2359.26
271.73	2574.30
271.95	2566.10
272.16	2265.05
272.38	2412.51
272.59	2439.13
272.81	2514.91
273.02	2349.02
273.24	2449.37
273.46	2605.02
273.67	2346.97
273.89	2271.20
274.10	2236.38
274.32	2688.98
274.54	2535.39
274.75	2449.37
274.97	2334.68
275.18	2531.29
275.40	2609.11
275.61	2383.84
275.83	2445.27
276.05	2332.64
276.26	2404.32
276.48	2432.99
276.69	2365.40
276.91	2416.60
277.12	2588.63
277.34	2463.71
277.55	2496.47
277.77	2469.85
277.99	2418.65
278.20	2351.07
278.42	2236.38
278.63	2318.30
278.85	2318.30
279.06	2299.87
279.28	2508.76
279.49	2592.73
279.71	2572.25
279.93	2457.56
280.14	2455.51
280.36	2385.88
280.57	2600.92
280.79	2475.99
281.00	2291.68
281.22	2365.40
281.43	2633.69
281.65	2217.95
281.86	2324.44
282.08	2545.63
282.29	2648.02
282.51	2271.20
282.73	2295.77
282.94	2308.06
283.16	2541.53
283.37	2645.98
283.59	2453.47
283.80	2555.86
284.02	2473.95
284.23	2500.57
284.45	2361.31
284.66	2375.64
284.88	2387.93
285.09	2375.64
285.31	2531.29
285.52	2471.90
285.74	2273.25
285.95	2545.63
286.17	2449.37
286.38	2715.61
286.60	2455.51
286.81	2332.64
287.03	2381.79
287.24	2445.27
287.46	2516.95
287.67	2478.04
287.89	2693.08
288.10	2467.80
288.32	2480.09
288.53	2525.15
288.75	2422.75
288.96	2578.39
289.18	2432.99
289.39	2375.64
289.61	2498.52
289.82	2717.65
290.04	2703.32
290.25	2232.29
290.47	2416.60
290.68	2494.43
290.90	2588.63
291.11	2224.09
291.33	2502.62
291.54	2324.44
291.76	2469.85
291.97	2455.51
292.18	2441.18
292.40	2488.28
292.61	2365.40
292.83	2697.17
293.04	2547.67
293.26	2510.81
293.47	2373.60
293.69	2326.49
293.90	2514.91
294.12	2660.31
294.33	2504.67
294.55	2437.08
294.76	2514.91
294.97	2656.22
295.19	2662.36
295.40	2414.56
295.62	2486.23
295.83	2635.74
296.05	2435.03
296.26	2547.67
296.48	2400.22
296.69	2449.37
296.90	2420.70
297.12	2576.34
297.33	2596.82
297.55	2547.67
297.76	2496.47
297.98	2504.67
298.19	2482.14
298.41	2510.81
298.62	2449.37
298.83	2549.72
299.05	2490.33
299.26	2443.23
299.48	2404.32
299.69	2498.52
299.90	2422.75
300.12	2414.56
300.33	2592.73
300.55	2447.32
300.76	2439.13
300.98	2361.31
301.19	2553.82
301.40	2351.07
301.62	2340.83
301.83	2568.15
302.05	2428.89
302.26	2426.84
302.47	2490.33
302.69	2340.83
302.90	2469.85
303.12	2144.22
303.33	2510.81
303.54	2756.57
303.76	2420.70
303.97	2367.45
304.19	2625.50
304.40	2383.84
304.61	2531.29
304.83	2611.16
305.04	2516.95
305.26	2512.86
305.47	2447.32
305.68	2365.40
305.90	2338.78
306.11	2631.64
306.33	2465.75
306.54	2351.07
306.75	2353.12
306.97	2299.87
307.18	2312.16
307.39	2387.93
307.61	2471.90
307.82	2523.10
308.04	2564.06
308.25	2299.87
308.46	2430.94
308.68	2490.33
308.89	2514.91
309.10	2478.04
309.32	2459.61
309.53	2512.86
309.74	2602.97
309.96	2443.23
310.17	2508.76
310.39	2465.75
310.60	2605.02
310.81	2482.14
311.03	2301.92
311.24	2594.78
311.45	2439.13
311.67	2600.92
311.88	2457.56
312.09	2529.24
312.31	2471.90
312.52	2318.30
312.73	2398.17
312.95	2291.68
313.16	2373.60
313.37	2564.06
313.59	2478.04
313.80	2588.63
314.01	2670.55
314.23	2424.80
314.44	2375.64
314.65	2306.01
314.87	2269.15
315.08	2392.03
315.29	2385.88
315.51	2385.88
315.72	2381.79
315.93	2551.77
316.15	2555.86
316.36	2396.12
316.57	2496.47
316.79	2545.63
317.00	2344.92
317.21	2600.92
317.43	2387.93
317.64	2414.56
317.85	2408.41
318.07	2396.12
318.28	2475.99
318.49	2570.20
318.70	2676.70
318.92	2609.11
319.13	2584.54
319.34	2588.63
319.56	2488.28
319.77	2625.50
319.98	2637.78
320.20	2635.74
320.41	2531.29
320.62	2615.26
320.83	2422.75
321.05	2615.26
321.26	2465.75
321.47	2445.27
321.69	2576.34
321.90	2365.40
322.11	2408.41
322.32	2498.52
322.54	2633.69
322.75	2308.06
322.96	2836.44
323.18	2332.64
323.39	2232.29
323.60	2318.30
323.81	2570.20
324.03	2342.88
324.24	2549.72
324.45	2496.47
324.66	2432.99
324.88	2643.93
325.09	2645.98
325.30	2469.85
325.52	2459.61
325.73	2568.15
325.94	2377.69
326.15	2291.68
326.37	2383.84
326.58	2629.59
326.79	2713.56
327.00	2310.11
327.22	2475.99
327.43	2447.32
327.64	2334.68
327.85	2512.86
328.07	2455.51
328.28	2699.22
328.49	2375.64
328.70	2406.36
328.92	2408.41
329.13	2375.64
329.34	2531.29
329.55	2609.11
329.76	2547.67
329.98	2437.08
330.19	2594.78
330.40	2535.39
330.61	2426.84
330.83	2512.86
331.04	2357.21
331.25	2463.71
331.46	2422.75
331.68	2336.73
331.89	2629.59
332.10	2359.26
332.31	2260.96
332.52	2473.95
332.74	2572.25
332.95	2240.48
333.16	2455.51
333.37	2568.15
333.58	2437.08
333.80	2441.18
334.01	2275.29
334.22	2465.75
334.43	2375.64
334.64	2408.41
334.86	2314.20
335.07	2326.49
335.28	2715.61
335.49	2373.60
335.70	2473.95
335.92	2596.82
336.13	2731.99
336.34	2463.71
336.55	2502.62
336.76	2525.15
336.98	2277.34
337.19	2408.41
337.40	2592.73
337.61	2809.81
337.82	2422.75
338.04	2478.04
338.25	2238.43
338.46	2572.25
338.67	2482.14
338.88	2369.50
339.09	2308.06
339.31	2422.75
339.52	2375.64
339.73	2389.98
339.94	2367.45
340.15	2553.82
340.36	2428.89
340.58	2537.43
340.79	2349.02
341.00	2500.57
341.21	2289.63
341.42	2617.30
341.63	2428.89
341.85	2619.35
342.06	2545.63
342.27	2308.06
342.48	2551.77
342.69	2318.30
342.90	2557.91
343.12	2484.19
343.33	2482.14
343.54	2598.87
343.75	2631.64
343.96	2435.03
344.17	2383.84
344.38	2449.37
344.60	2344.92
344.81	2383.84
345.02	2424.80
345.23	2582.49
345.44	2795.48
345.65	2416.60
345.86	2441.18
346.07	2422.75
346.29	2432.99
346.50	2459.61
346.71	2424.80
346.92	2686.94
347.13	2742.23
347.34	2404.32
347.55	2381.79
347.76	2559.96
347.98	2250.72
348.19	2424.80
348.40	2607.06
348.61	2373.60
348.82	2578.39
349.03	2475.99
349.24	2265.05
349.45	2654.17
349.66	2187.23
349.88	2465.75
350.09	2308.06
350.30	2627.54
350.51	2641.88
350.72	2443.23
350.93	2424.80
351.14	2297.82
351.35	2578.39
351.56	2463.71
351.77	2424.80
351.99	2519.00
352.20	2660.31
352.41	2572.25
352.62	2281.44
352.83	2562.01
353.04	2490.33
353.25	2342.88
353.46	2490.33
353.67	2609.11
353.88	2287.58
354.09	2506.71
354.30	2383.84
354.52	2568.15
354.73	2482.14
354.94	2375.64
355.15	2514.91
355.36	2662.36
355.57	2424.80
355.78	2490.33
355.99	2373.60
356.20	2437.08
356.41	2641.88
356.62	2418.65
356.83	2463.71
357.04	2725.85
357.25	2277.34
357.46	2379.74
357.68	2308.06
357.89	2379.74
358.10	2453.47
358.31	2363.36
358.52	2377.69
358.73	2324.44
358.94	2408.41
359.15	2426.84
359.36	2551.77
359.57	2494.43
359.78	2469.85
359.99	2490.33
360.20	2334.68
360.41	2441.18
360.62	2559.96
360.83	2453.47
361.04	2449.37
361.25	2564.06
361.46	2701.27
361.67	2498.52
361.88	2490.33
362.09	2559.96
362.30	2568.15
362.51	2389.98
362.72	2377.69
362.93	2611.16
363.14	2580.44
363.35	2480.09
363.56	2351.07
363.78	2590.68
363.99	2639.83
364.20	2392.03
364.41	2490.33
364.62	2691.03
364.83	2541.53
365.04	2408.41
365.25	2439.13
365.46	2777.05
365.67	2389.98
365.88	2461.66
366.09	2416.60
366.30	2416.60
366.51	2496.47
366.72	2342.88
366.93	2398.17
367.14	2523.10
367.35	2697.17
367.56	2459.61
367.77	2551.77
367.98	2516.95
368.18	2566.10
368.39	2463.71
368.60	2324.44
368.81	2645.98
369.02	2521.05
369.23	2396.12
369.44	2346.97
369.65	2473.95
369.86	2551.77
370.07	2529.24
370.28	2330.59
370.49	2455.51
370.70	2523.10
370.91	2314.20
371.12	2293.72
371.33	2621.40
371.54	2314.20
371.75	2496.47
371.96	2166.75
372.17	2541.53
372.38	2387.93
372.59	2504.67
372.80	2369.50
373.01	2455.51
373.22	2543.58
373.43	2445.27
373.64	2220.00
373.85	2715.61
374.06	2693.08
374.26	2482.14
374.47	2461.66
374.68	2713.56
374.89	2539.48
375.10	2465.75
375.31	2521.05
375.52	2549.72
375.73	2480.09
375.94	2375.64
376.15	2551.77
376.36	2367.45
376.57	2396.12
376.78	2371.55
376.99	2502.62
377.20	2637.78
377.40	2480.09
377.61	2719.70
377.82	2328.54
378.03	2662.36
378.24	2627.54
378.45	2396.12
378.66	2490.33
378.87	2277.34
379.08	2299.87
379.29	2441.18
379.50	2555.86
379.71	2486.23
379.91	2621.40
380.12	2420.70
380.33	2418.65
380.54	2469.85
380.75	2428.89
380.96	2408.41
381.17	2576.34
381.38	2457.56
381.59	2473.95
381.80	2523.10
382.00	2609.11
382.21	2549.72
382.42	2740.18
382.63	2691.03
382.84	2574.30
383.05	2594.78
383.26	2740.18
383.47	2416.60
383.68	2449.37
383.88	2531.29
384.09	2467.80
384.30	2629.59
384.51	2498.52
384.72	2326.49
384.93	2357.21
385.14	2473.95
385.35	2584.54
385.55	2389.98
385.76	2643.93
385.97	2416.60
386.18	2285.53
386.39	2371.55
386.60	2432.99
386.81	2379.74
387.02	2346.97
387.22	2316.25
387.43	2514.91
387.64	2590.68
387.85	2586.58
388.06	2727.89
388.27	3915.72
388.48	8157.06
388.68	11982.67
388.89	14384.93
389.10	15859.47
389.31	14929.69
389.52	11691.85
389.73	9967.46
389.93	9078.65
390.14	8191.88
390.35	7440.27
390.56	6653.85
390.77	5484.46
390.98	4161.47
391.18	3436.49
391.39	3012.56
391.60	2576.34
391.81	2592.73
392.02	2428.89
392.23	2840.53
392.43	2478.04
392.64	2574.30
392.85	2512.86
393.06	2617.30
393.27	2383.84
393.47	2426.84
393.68	2412.51
393.89	2445.27
394.10	2627.54
394.31	2432.99
394.52	2371.55
394.72	2379.74
394.93	2756.57
395.14	2365.40
395.35	2432.99
395.56	2455.51
395.76	2480.09
395.97	2432.99
396.18	2498.52
396.39	2572.25
396.60	2940.88
396.80	2783.19
397.01	2635.74
397.22	2678.74
397.43	2627.54
397.64	2439.13
397.84	2586.58
398.05	2719.70
398.26	2506.71
398.47	2615.26
398.67	2605.02
398.88	2494.43
399.09	2531.29
399.30	2455.51
399.51	2473.95
399.71	2412.51
399.92	2506.71
400.13	2494.43
400.34	2482.14
400.54	2523.10
400.75	2688.98
400.96	2435.03
401.17	2678.74
401.37	2510.81
401.58	2463.71
401.79	2510.81
402.00	2609.11
402.21	2844.63
402.41	2709.46
402.62	2828.24
402.83	2883.54
403.04	2918.36
403.24	3092.43
403.45	2605.02
403.66	2760.66
403.87	2766.81
404.07	2775.00
404.28	2742.23
404.49	2670.55
404.70	2637.78
404.90	2570.20
405.11	2545.63
405.32	2572.25
405.52	2371.55
405.73	2383.84
405.94	2455.51
406.15	2443.23
406.35	2590.68
406.56	2506.71
406.77	2543.58
406.98	2437.08
407.18	2398.17
407.39	2711.51
407.60	2396.12
407.80	2564.06
408.01	2430.94
408.22	2588.63
408.43	2326.49
408.63	2486.23
408.84	2633.69
409.05	2617.30
409.25	2365.40
409.46	2387.93
409.67	2428.89
409.88	2351.07
410.08	2498.52
410.29	2367.45
410.50	2611.16
410.70	2600.92
410.91	2437.08
411.12	2514.91
411.32	2521.05
411.53	2424.80
411.74	2543.58
411.95	2547.67
412.15	2594.78
412.36	2547.67
412.57	2461.66
412.77	2621.40
412.98	2465.75
413.19	2512.86
413.39	2551.77
413.60	2516.95
413.81	2736.09
414.01	2351.07
414.22	2537.43
414.43	2461.66
414.63	2465.75
414.84	2566.10
415.05	2400.22
415.25	2346.97
415.46	2482.14
415.67	2371.55
415.87	2541.53
416.08	2500.57
416.29	2406.36
416.49	2564.06
416.70	2404.32
416.91	2398.17
417.11	2478.04
417.32	2645.98
417.53	2551.77
417.73	2484.19
417.94	2473.95
418.15	2514.91
418.35	2447.32
418.56	2447.32
418.77	2799.57
418.97	2428.89
419.18	2445.27
419.38	2154.46
419.59	2494.43
419.80	2619.35
420.00	2445.27
420.21	2404.32
420.42	2652.12
420.62	2529.24
420.83	2418.65
421.04	2441.18
421.24	2441.18
421.45	2564.06
421.65	2449.37
421.86	2426.84
422.07	2539.48
422.27	2504.67
422.48	2463.71
422.69	2334.68
422.89	2486.23
423.10	2435.03
423.30	2301.92
423.51	2484.19
423.72	2510.81
423.92	2527.19
424.13	2297.82
424.33	2394.08
424.54	2588.63
424.75	2519.00
424.95	2629.59
425.16	2439.13
425.36	2498.52
425.57	2559.96
425.78	2533.34
425.98	2553.82
426.19	2486.23
426.39	2408.41
426.60	2439.13
426.81	2572.25
427.01	2475.99
427.22	2412.51
427.42	2283.49
427.63	2396.12
427.83	2633.69
428.04	2645.98
428.25	2459.61
428.45	2580.44
428.66	2596.82
428.86	2494.43
429.07	2461.66
429.28	2484.19
429.48	2514.91
429.69	2400.22
429.89	2590.68
430.10	2338.78
430.30	2572.25
430.51	2639.83
430.71	2287.58
430.92	2412.51
431.13	2414.56
431.33	2596.82
431.54	2500.57
431.74	2582.49
431.95	2744.28
432.15	2355.16
432.36	2422.75
432.56	2506.71
432.77	2715.61
432.98	2748.37
433.18	2545.63
433.39	2396.12
433.59	2463.71
433.80	2727.89
434.00	2590.68
434.21	2394.08
434.41	2445.27
434.62	2791.38
434.82	2361.31
435.03	2283.49
435.23	2537.43
435.44	2242.53
435.64	2340.83
435.85	2562.01
436.06	2637.78
436.26	2598.87
436.47	2445.27
436.67	2437.08
436.88	2437.08
437.08	2670.55
437.29	2533.34
437.49	2412.51
437.70	2654.17
437.90	2478.04
438.11	2650.07
438.31	2539.48
438.52	2711.51
438.72	2674.65
438.93	2738.13
439.13	2539.48
439.34	2670.55
439.54	2512.86
439.75	2488.28
439.95	2578.39
440.16	2465.75
440.36	2562.01
440.57	2506.71
440.77	2457.56
440.98	2519.00
441.18	2535.39
441.39	2400.22
441.59	2349.02
441.80	2815.96
442.00	2428.89
442.21	2629.59
442.41	2334.68
442.62	2623.45
442.82	2398.17
443.02	2478.04
443.23	2547.67
443.43	2445.27
443.64	2574.30
443.84	2332.64
444.05	2572.25
444.25	2521.05
444.46	2459.61
444.66	2465.75
444.87	2625.50
445.07	2375.64
445.28	2504.67
445.48	2580.44
445.69	2541.53
445.89	2715.61
446.09	2537.43
446.30	2744.28
446.50	2961.36
446.71	4642.75
446.91	5636.01
447.12	6528.92
447.32	6856.60
447.53	6576.03
447.73	5314.48
447.93	4798.39
448.14	4448.19
448.34	4327.36
448.55	3805.13
448.75	3692.49
448.96	3538.89
449.16	3293.13
449.36	2992.08
449.57	2658.26
449.77	2572.25
449.98	2506.71
450.18	2596.82
450.39	2543.58
450.59	2609.11
450.79	2494.43
451.00	2432.99
451.20	2588.63
451.41	2441.18
451.61	2521.05
451.81	2430.94
452.02	2414.56
452.22	2422.75
452.43	2342.88
452.63	2469.85
452.84	2424.80
453.04	2383.84
453.24	2498.52
453.45	2398.17
453.65	2389.98
453.86	2461.66
454.06	2490.33
454.26	2512.86
454.47	2342.88
454.67	2666.46
454.87	2602.97
455.08	2465.75
455.28	2600.92
455.49	2543.58
455.69	2416.60
455.89	2627.54
456.10	2449.37
456.30	2441.18
456.51	2598.87
456.71	2523.10
456.91	2514.91
457.12	2459.61
457.32	2514.91
457.52	2426.84
457.73	2648.02
457.93	2529.24
458.14	2375.64
458.34	2301.92
458.54	2355.16
458.75	2430.94
458.95	2615.26
459.15	2562.01
459.36	2482.14
459.56	2502.62
459.76	2768.85
459.97	2557.91
460.17	2521.05
460.37	2523.10
460.58	2465.75
460.78	2572.25
460.99	2392.03
461.19	2392.03
461.39	2467.80
461.60	2457.56
461.80	2482.14
462.00	2371.55
462.21	2510.81
462.41	2377.69
462.61	2363.36
462.82	2318.30
463.02	2564.06
463.22	2521.05
463.43	2545.63
463.63	2463.71
463.83	2731.99
464.04	2488.28
464.24	2457.56
464.44	2363.36
464.64	2484.19
464.85	2570.20
465.05	2473.95
465.25	2449.37
465.46	2471.90
465.66	2582.49
465.86	2465.75
466.07	2439.13
466.27	2447.32
466.47	2375.64
466.68	2346.97
466.88	2686.94
467.08	2588.63
467.29	2617.30
467.49	2570.20
467.69	2486.23
467.89	2504.67
468.10	2441.18
468.30	2467.80
468.50	2625.50
468.71	2648.02
468.91	2318.30
469.11	2641.88
469.31	2475.99
469.52	2416.60
469.72	2637.78
469.92	2662.36
470.13	2461.66
470.33	2443.23
470.53	2551.77
470.73	2881.49
470.94	3346.38
471.14	3413.96
471.34	3899.33
471.54	3680.20
471.75	3444.68
471.95	3123.15
472.15	3035.09
472.36	2973.65
472.56	2961.36
472.76	3018.71
472.96	2961.36
473.17	2797.53
473.37	2731.99
473.57	2576.34
473.77	2635.74
473.98	2504.67
474.18	2437.08
474.38	2895.83
474.58	2400.22
474.79	2389.98
474.99	2521.05
475.19	2572.25
475.39	2383.84
475.60	2531.29
475.80	2396.12
476.00	2506.71
476.20	2473.95
476.41	2545.63
476.61	2582.49
476.81	2654.17
477.01	2359.26
477.21	2668.50
477.42	2652.12
477.62	2439.13
477.82	2578.39
478.02	2439.13
478.23	2500.57
478.43	2369.50
478.63	2443.23
478.83	2449.37
479.03	2428.89
479.24	2676.70
479.44	2834.39
479.64	2381.79
479.84	2273.25
480.04	2349.02
480.25	2602.97
480.45	2420.70
480.65	2426.84
480.85	2697.17
481.06	2445.27
481.26	2545.63
481.46	2527.19
481.66	2527.19
481.86	2383.84
482.06	2508.76
482.27	2475.99
482.47	2465.75
482.67	2549.72
482.87	2461.66
483.07	2633.69
483.28	2506.71
483.48	2306.01
483.68	2514.91
483.88	2416.60
484.08	2314.20
484.29	2400.22
484.49	2441.18
484.69	2357.21
484.89	2693.08
485.09	2645.98
485.29	2527.19
485.50	2584.54
485.70	2453.47
485.90	2682.84
486.10	2533.34
486.30	2576.34
486.50	2643.93
486.71	2516.95
486.91	2576.34
487.11	2521.05
487.31	2379.74
487.51	2537.43
487.71	2420.70
487.91	2324.44
488.12	2383.84
488.32	2226.14
488.52	2398.17
488.72	2193.37
488.92	2527.19
489.12	2633.69
489.32	2637.78
489.53	2531.29
489.73	2244.57
489.93	2691.03
490.13	2418.65
490.33	2283.49
490.53	2519.00
490.73	2600.92
490.94	2363.36
491.14	2523.10
491.34	2572.25
491.54	2805.72
491.74	3444.68
491.94	3936.20
492.14	4292.54
492.34	4358.08
492.54	4018.11
492.75	3375.05
492.95	3440.59
493.15	3262.41
493.35	3176.40
493.55	3026.90
493.75	2908.12
493.95	3049.43
494.15	2772.95
494.35	2545.63
494.56	2531.29
494.76	2449.37
494.96	2619.35
495.16	2473.95
495.36	2519.00
495.56	2406.36
495.76	2498.52
495.96	2416.60
496.16	2363.36
496.36	2688.98
496.56	2441.18
496.77	2568.15
496.97	2496.47
497.17	2605.02
497.37	2318.30
497.57	2580.44
497.77	2467.80
497.97	2353.12
498.17	2535.39
498.37	2441.18
498.57	2543.58
498.77	2482.14
498.97	2545.63
499.17	2629.59
499.38	2600.92
499.58	2486.23
499.78	2533.34
499.98	2707.41
500.18	2478.04
500.38	2494.43
500.58	2695.13
500.78	3114.96
500.98	5504.94
501.18	7442.32
501.38	9193.33
501.58	10121.06
501.78	9975.66
501.98	7937.93
502.18	6625.18
502.38	5734.31
502.58	5357.49
502.78	4743.10
502.98	4642.75
503.18	4485.05
503.38	4192.19
503.59	3657.67
503.79	3387.34
503.99	3155.92
504.19	3069.91
504.39	3057.62
504.59	3026.90
504.79	3061.71
504.99	3133.39
505.19	2826.20
505.39	2760.66
505.59	2932.69
505.79	2850.77
505.99	2670.55
506.19	2523.10
506.39	2734.04
506.59	2490.33
506.79	2475.99
506.99	2619.35
507.19	2416.60
507.39	2455.51
507.59	2392.03
507.79	2404.32
507.99	2381.79
508.19	2523.10
508.39	2545.63
508.59	2504.67
508.79	2650.07
508.99	2766.81
509.19	2441.18
509.39	2465.75
509.59	2338.78
509.79	2435.03
509.99	2566.10
510.19	2553.82
510.39	2559.96
510.59	2557.91
510.79	2441.18
510.99	2363.36
511.19	2451.42
511.39	2611.16
511.59	2631.64
511.79	2611.16
511.99	2408.41
512.19	2691.03
512.38	2551.77
512.58	2469.85
512.78	2424.80
512.98	2590.68
513.18	2676.70
513.38	2369.50
513.58	2592.73
513.78	2463.71
513.98	2457.56
514.18	2432.99
514.38	2414.56
514.58	2494.43
514.78	2445.27
514.98	2449.37
515.18	2490.33
515.38	2377.69
515.58	2682.84
515.78	2414.56
515.98	2449.37
516.18	2580.44
516.38	2467.80
516.57	2432.99
516.77	2381.79
516.97	2549.72
517.17	2412.51
517.37	2254.81
517.57	2547.67
517.77	2437.08
517.97	2410.46
518.17	2555.86
518.37	2363.36
518.57	2353.12
518.77	2402.27
518.97	2510.81
519.16	2572.25
519.36	2637.78
519.56	2426.84
519.76	2510.81
519.96	2473.95
520.16	2693.08
520.36	2291.68
520.56	2543.58
520.76	2416.60
520.96	2514.91
521.16	2602.97
521.35	2545.63
521.55	2555.86
521.75	2514.91
521.95	2463.71
522.15	2404.32
522.35	2359.26
522.55	2342.88
522.75	2594.78
522.95	2387.93
523.14	2387.93
523.34	2539.48
523.54	2400.22
523.74	2480.09
523.94	2498.52
524.14	2324.44
524.34	2553.82
524.54	2588.63
524.73	2412.51
524.93	2523.10
525.13	2496.47
525.33	2326.49
525.53	2699.22
525.73	2633.69
525.93	2435.03
526.13	2389.98
526.32	2428.89
526.52	2676.70
526.72	2605.02
526.92	2410.46
527.12	2379.74
527.32	2322.40
527.52	2537.43
527.71	2555.86
527.91	2400.22
528.11	2531.29
528.31	2498.52
528.51	2402.27
528.71	2531.29
528.90	2582.49
529.10	2648.02
529.30	2582.49
529.50	2209.76
529.70	2498.52
529.90	2506.71
530.09	2469.85
530.29	2355.16
530.49	2400.22
530.69	2873.30
530.89	2482.14
531.09	2541.53
531.28	2416.60
531.48	2637.78
531.68	2490.33
531.88	2467.80
532.08	2611.16
532.28	2432.99
532.47	2531.29
532.67	2541.53
532.87	2523.10
533.07	2490.33
533.27	2553.82
533.46	2531.29
533.66	2504.67
533.86	2473.95
534.06	2516.95
534.26	2504.67
534.45	2539.48
534.65	2594.78
534.85	2490.33
535.05	2437.08
535.25	2580.44
535.44	2332.64
535.64	2531.29
535.84	2455.51
536.04	2432.99
536.24	2455.51
536.43	2338.78
536.63	2467.80
536.83	2510.81
537.03	2475.99
537.22	2338.78
537.42	2250.72
537.62	2529.24
537.82	2437.08
538.02	2568.15
538.21	2553.82
538.41	2863.06
538.61	2570.20
538.81	2465.75
539.00	2578.39
539.20	2316.25
539.40	2506.71
539.60	2535.39
539.79	2607.06
539.99	2525.15
540.19	2367.45
540.39	2471.90
540.58	2578.39
540.78	2619.35
540.98	2488.28
541.18	2613.21
541.37	2557.91
541.57	2564.06
541.77	2500.57
541.97	2410.46
542.16	2389.98
542.36	2400.22
542.56	2439.13
542.76	2631.64
542.95	2527.19
543.15	2623.45
543.35	2555.86
543.54	2400.22
543.74	2412.51
543.94	2709.46
544.14	2484.19
544.33	2535.39
544.53	2461.66
544.73	2492.38
544.93	2471.90
545.12	2387.93
545.32	2475.99
545.52	2512.86
545.71	2310.11
545.91	2404.32
546.11	2342.88
546.30	2330.59
546.50	2389.98
546.70	2469.85
546.90	2463.71
547.09	2273.25
547.29	2473.95
547.49	2543.58
547.68	2488.28
547.88	2469.85
548.08	2594.78
548.27	2875.35
548.47	2394.08
548.67	2392.03
548.87	2553.82
549.06	2379.74
549.26	2457.56
549.46	2555.86
549.65	2494.43
549.85	2408.41
550.05	2490.33
550.24	2310.11
550.44	2514.91
550.64	2514.91
550.83	2465.75
551.03	2787.29
551.23	2680.79
551.42	2539.48
551.62	2377.69
551.82	2562.01
552.01	2447.32
552.21	2678.74
552.41	2498.52
552.60	2674.65
552.80	2475.99
553.00	2457.56
553.19	2572.25
553.39	2754.52
553.59	2373.60
553.78	2502.62
553.98	2525.15
554.17	2383.84
554.37	2551.77
554.57	2523.10
554.76	2373.60
554.96	2496.47
555.16	2580.44
555.35	2490.33
555.55	2531.29
555.75	2602.97
555.94	2519.00
556.14	2322.40
556.33	2553.82
556.53	2449.37
556.73	2449.37
556.92	2537.43
557.12	2547.67
557.32	2734.04
557.51	2695.13
557.71	2555.86
557.90	2584.54
558.10	2670.55
558.30	2480.09
558.49	2371.55
558.69	2463.71
558.88	2512.86
559.08	2508.76
559.28	2504.67
559.47	2461.66
559.67	2580.44
559.86	2688.98
560.06	2449.37
560.26	2418.65
560.45	2535.39
560.65	2461.66
560.84	2701.27
561.04	2465.75
561.24	2566.10
561.43	2373.60
561.63	2660.31
561.82	2490.33
562.02	2568.15
562.22	2402.27
562.41	2293.72
562.61	2461.66
562.80	2359.26
563.00	2824.15
563.19	2432.99
563.39	2504.67
563.59	2551.77
563.78	2379.74
563.98	2267.10
564.17	2312.16
564.37	2260.96
564.56	2439.13
564.76	2404.32
564.96	2602.97
565.15	2543.58
565.35	2797.53
565.54	2316.25
565.74	2588.63
565.93	2547.67
566.13	2519.00
566.32	2492.38
566.52	2566.10
566.71	2484.19
566.91	2596.82
567.11	2635.74
567.30	2445.27
567.50	2551.77
567.69	2584.54
567.89	2383.84
568.08	2392.03
568.28	2453.47
568.47	2430.94
568.67	2500.57
568.86	2441.18
569.06	2670.55
569.25	2422.75
569.45	2320.35
569.64	2416.60
569.84	2549.72
570.04	2439.13
570.23	2332.64
570.43	2389.98
570.62	2494.43
570.82	2766.81
571.01	2369.50
571.21	2387.93
571.40	2303.96
571.60	2482.14
571.79	2490.33
571.99	2398.17
572.18	2351.07
572.38	2596.82
572.57	2428.89
572.77	2521.05
572.96	2789.33
573.16	2486.23
573.35	2461.66
573.55	2654.17
573.74	2586.58
573.94	2430.94
574.13	2488.28
574.33	2535.39
574.52	2652.12
574.71	2424.80
574.91	2494.43
575.10	2375.64
575.30	2455.51
575.49	2435.03
575.69	2424.80
575.88	2580.44
576.08	2512.86
576.27	2670.55
576.47	2443.23
576.66	2721.75
576.86	2725.85
577.05	2572.25
577.25	2588.63
577.44	2756.57
577.64	2437.08
577.83	2580.44
578.02	2404.32
578.22	2605.02
578.41	2684.89
578.61	2478.04
578.80	2291.68
579.00	2359.26
579.19	2473.95
579.39	2584.54
579.58	2594.78
579.77	2457.56
579.97	2713.56
580.16	2602.97
580.36	2570.20
580.55	2613.21
580.75	2521.05
580.94	2523.10
581.13	2602.97
581.33	2691.03
581.52	2443.23
581.72	2793.43
581.91	2664.41
582.11	2467.80
582.30	2617.30
582.49	2506.71
582.69	2707.41
582.88	2582.49
583.08	2580.44
583.27	2705.37
583.47	2543.58
583.66	2426.84
583.85	2404.32
584.05	2504.67
584.24	2566.10
584.44	2598.87
584.63	2717.65
584.82	2658.26
585.02	2703.32
585.21	2621.40
585.41	2717.65
585.60	2617.30
585.79	2764.76
585.99	2783.19
586.18	2580.44
586.37	3284.94
586.57	5083.06
586.76	14808.86
586.96	34262.52
587.15	47353.13
587.34	56329.38
587.54	61371.48
587.73	55452.85
587.93	39142.83
588.12	29419.07
588.31	24125.07
588.51	21180.09
588.70	19330.78
588.89	17260.28
589.09	14929.69
589.28	12629.82
589.47	10153.83
589.67	7710.60
589.86	6002.60
590.06	4659.13
590.25	3774.41
590.44	3284.94
590.64	2977.75
590.83	2883.54
591.02	2678.74
591.22	2570.20
591.41	2576.34
591.60	2547.67
591.80	2848.72
591.99	2469.85
592.18	2461.66
592.38	2590.68
592.57	2486.23
592.76	2539.48
592.96	2555.86
593.15	2514.91
593.34	2770.90
593.54	2463.71
593.73	2535.39
593.92	2691.03
594.12	2580.44
594.31	2594.78
594.50	2688.98
594.70	2641.88
594.89	2865.11
595.08	2420.70
595.28	2596.82
595.47	2979.79
595.66	2572.25
595.86	2310.11
596.05	2412.51
596.24	2482.14
596.43	2682.84
596.63	2619.35
596.82	2539.48
597.01	2609.11
597.21	2736.09
597.40	2498.52
597.59	2519.00
597.79	2557.91
597.98	2617.30
598.17	2586.58
598.36	2545.63
598.56	2623.45
598.75	2400.22
598.94	2531.29
599.14	2547.67
599.33	2451.42
599.52	2621.40
599.71	2539.48
599.91	2580.44
600.10	2572.25
600.29	2496.47
600.48	2523.10
600.68	2553.82
600.87	2506.71
601.06	2369.50
601.26	2506.71
601.45	2478.04
601.64	2441.18
601.83	2781.14
602.03	2338.78
602.22	2432.99
602.41	2543.58
602.60	2826.20
602.80	2559.96
602.99	2580.44
603.18	2426.84
603.37	2539.48
603.57	2473.95
603.76	2582.49
603.95	2652.12
604.14	2457.56
604.34	2457.56
604.53	2574.30
604.72	2594.78
604.91	2625.50
605.10	2539.48
605.30	2363.36
605.49	2744.28
605.68	2529.24
605.87	2512.86
606.07	2404.32
606.26	2459.61
606.45	2467.80
606.64	2459.61
606.84	2379.74
607.03	2564.06
607.22	2637.78
607.41	2478.04
607.60	2449.37
607.80	2641.88
607.99	2531.29
608.18	2441.18
608.37	2572.25
608.56	2424.80
608.76	2674.65
608.95	2633.69
609.14	2600.92
609.33	2666.46
609.52	2717.65
609.72	2580.44
609.91	2662.36
610.10	2514.91
610.29	2701.27
610.48	2578.39
610.68	2580.44
610.87	2475.99
611.06	2588.63
611.25	2441.18
611.44	2572.25
611.63	2480.09
611.83	2656.22
612.02	2404.32
612.21	2559.96
612.40	2260.96
612.59	2432.99
612.79	2381.79
612.98	2461.66
613.17	2709.46
613.36	2508.76
613.55	2697.17
613.74	2574.30
613.93	2557.91
614.13	2764.76
614.32	2783.19
614.51	2680.79
614.70	2510.81
614.89	2543.58
615.08	2523.10
615.28	2963.41
615.47	2488.28
615.66	2584.54
615.85	2523.10
616.04	2707.41
616.23	2545.63
616.42	2480.09
616.62	2586.58
616.81	2596.82
617.00	2572.25
617.19	2553.82
617.38	2387.93
617.57	2498.52
617.76	2641.88
617.95	2590.68
618.15	2594.78
618.34	2674.65
618.53	2344.92
618.72	2629.59
618.91	2519.00
619.10	2623.45
619.29	2543.58
619.48	2467.80
619.68	2424.80
619.87	2455.51
620.06	2326.49
620.25	2496.47
620.44	2334.68
620.63	2449.37
620.82	2559.96
621.01	2531.29
621.20	2531.29
621.39	2541.53
621.59	2572.25
621.78	2508.76
621.97	2502.62
622.16	2586.58
622.35	2566.10
622.54	2527.19
622.73	2686.94
622.92	2277.34
623.11	2559.96
623.30	2547.67
623.49	2510.81
623.68	2371.55
623.88	2701.27
624.07	2451.42
624.26	2437.08
624.45	2482.14
624.64	2441.18
624.83	2605.02
625.02	2418.65
625.21	2504.67
625.40	2519.00
625.59	2693.08
625.78	2430.94
625.97	2559.96
626.16	2719.70
626.35	2633.69
626.54	2525.15
626.74	2670.55
626.93	2537.43
627.12	2461.66
627.31	2580.44
627.50	2555.86
627.69	2613.21
627.88	2447.32
628.07	2371.55
628.26	2301.92
628.45	2392.03
628.64	2400.22
628.83	2432.99
629.02	2258.91
629.21	2572.25
629.40	2469.85
629.59	2334.68
629.78	2453.47
629.97	2549.72
630.16	2510.81
630.35	2428.89
630.54	2498.52
630.73	2473.95
630.92	2486.23
631.11	2416.60
631.30	2377.69
631.49	2645.98
631.68	2457.56
631.87	2539.48
632.06	2332.64
632.25	2748.37
632.44	2627.54
632.63	2582.49
632.82	2539.48
633.01	2502.62
633.20	2641.88
633.39	2531.29
633.58	2277.34
633.77	2562.01
633.96	2588.63
634.15	2574.30
634.34	2559.96
634.53	2488.28
634.72	2441.18
634.91	2375.64
635.10	2510.81
635.29	2539.48
635.48	2574.30
635.67	2383.84
635.86	2334.68
636.05	2607.06
636.24	2537.43
636.43	2529.24
636.62	2521.05
636.81	2236.38
637.00	2404.32
637.19	2502.62
637.38	2394.08
637.57	2420.70
637.76	2539.48
637.95	2633.69
638.14	2600.92
638.33	2549.72
638.52	2617.30
638.71	2432.99
638.89	2473.95
639.08	2955.22
639.27	2602.97
639.46	2641.88
639.65	3235.79
639.84	3176.40
640.03	3381.20
640.22	3117.01
640.41	3194.83
640.60	2815.96
640.79	2824.15
640.98	2719.70
641.17	2725.85
641.36	2752.47
641.55	2684.89
641.74	2443.23
641.92	2385.88
642.11	2471.90
642.30	2467.80
642.49	2357.21
642.68	2463.71
642.87	2598.87
643.06	2641.88
643.25	2465.75
643.44	2416.60
643.63	2443.23
643.82	2582.49
644.00	2392.03
644.19	2445.27
644.38	2389.98
644.57	2535.39
644.76	2498.52
644.95	2455.51
645.14	2545.63
645.33	2471.90
645.52	2510.81
645.71	2263.01
645.89	2398.17
646.08	2449.37
646.27	2432.99
646.46	2686.94
646.65	2318.30
646.84	2519.00
647.03	2295.77
647.22	2547.67
647.40	2457.56
647.59	2443.23
647.78	2277.34
647.97	2422.75
648.16	2375.64
648.35	2662.36
648.54	2652.12
648.73	2480.09
648.91	2582.49
649.10	2463.71
649.29	2400.22
649.48	2400.22
649.67	2572.25
649.86	2510.81
650.05	2498.52
650.23	2727.89
650.42	2537.43
650.61	2740.18
650.80	2658.26
650.99	2789.33
651.18	2670.55
651.36	2664.41
651.55	2457.56
651.74	2602.97
651.93	2482.14
652.12	2490.33
652.31	2447.32
652.49	2478.04
652.68	2521.05
652.87	2621.40
653.06	2602.97
653.25	2746.33
653.44	2551.77
653.62	2617.30
653.81	2408.41
654.00	2422.75
654.19	2637.78
654.38	2766.81
654.56	2486.23
654.75	2424.80
654.94	2584.54
655.13	2549.72
655.32	2437.08
655.51	2527.19
655.69	2424.80
655.88	2736.09
656.07	2342.88
656.26	2465.75
656.45	2318.30
656.63	2529.24
656.82	2486.23
657.01	2555.86
657.20	2443.23
657.38	2621.40
657.57	2480.09
657.76	2383.84
657.95	2596.82
658.14	2406.36
658.32	2484.19
658.51	2271.20
658.70	2521.05
658.89	2488.28
659.08	2521.05
659.26	2693.08
659.45	2453.47
659.64	2617.30
659.83	2512.86
660.01	2850.77
660.20	2613.21
660.39	2652.12
660.58	2308.06
660.76	2555.86
660.95	2342.88
661.14	2500.57
661.33	2306.01
661.51	2443.23
661.70	2428.89
661.89	2547.67
662.08	2482.14
662.26	2349.02
662.45	2375.64
662.64	2660.31
662.83	2504.67
663.01	2342.88
663.20	2375.64
663.39	2699.22
663.58	2422.75
663.76	2363.36
663.95	2564.06
664.14	2342.88
664.32	2430.94
664.51	2383.84
664.70	2342.88
664.89	2574.30
665.07	2318.30
665.26	2615.26
665.45	2359.26
665.64	2498.52
665.82	2367.45
666.01	2512.86
666.20	2363.36
666.38	2631.64
666.57	2613.21
666.76	3946.44
666.95	9795.43
667.13	17819.38
667.32	22417.07
667.51	26099.31
667.69	27610.71
667.88	24497.80
668.07	17299.19
668.25	14067.50
668.44	11902.79
668.63	10321.76
668.81	9043.83
669.00	7944.07
669.19	6909.85
669.38	6117.28
669.56	5263.28
669.75	4329.41
669.94	3747.78
670.12	3198.93
670.31	2957.27
670.50	2785.24
670.68	2742.23
670.87	2605.02
671.06	2484.19
671.24	2615.26
671.43	2752.47
671.62	2625.50
671.80	2461.66
671.99	2588.63
672.18	2535.39
672.36	2605.02
672.55	2506.71
672.74	2580.44
672.92	2412.51
673.11	2531.29
673.29	2349.02
673.48	2549.72
673.67	2514.91
673.85	2580.44
674.04	2398.17
674.23	2551.77
674.41	2672.60
674.60	2398.17
674.79	2316.25
674.97	2422.75
675.16	2580.44
675.34	2605.02
675.53	2371.55
675.72	2598.87
675.90	2682.84
676.09	2396.12
676.28	2490.33
676.46	2338.78
676.65	2539.48
676.83	2398.17
677.02	2494.43
677.21	2486.23
677.39	2521.05
677.58	2340.83
677.77	2467.80
677.95	2328.54
678.14	2424.80
678.32	2428.89
678.51	2486.23
678.70	2701.27
678.88	2369.50
679.07	2494.43
679.25	2392.03
679.44	2435.03
679.63	2312.16
679.81	2568.15
680.00	2574.30
680.18	2488.28
680.37	2676.70
680.55	2461.66
680.74	2234.33
680.93	2263.01
681.11	2529.24
681.30	2412.51
681.48	2545.63
681.67	2422.75
681.85	2492.38
682.04	2359.26
682.23	2613.21
682.41	2600.92
682.60	2445.27
682.78	2453.47
682.97	2297.82
683.15	2447.32
683.34	2564.06
683.53	2602.97
683.71	2408.41
683.90	2580.44
684.08	2666.46
684.27	2461.66
684.45	2478.04
684.64	2580.44
684.82	2514.91
685.01	2537.43
685.19	2394.08
685.38	2607.06
685.57	2496.47
685.75	2424.80
685.94	2383.84
686.12	2379.74
686.31	2381.79
686.49	2631.64
686.68	2248.67
686.86	2547.67
687.05	2430.94
687.23	2637.78
687.42	2387.93
687.60	2353.12
687.79	2607.06
687.97	2684.89
688.16	2527.19
688.34	2566.10
688.53	2285.53
688.71	2570.20
688.90	2621.40
689.08	2463.71
689.27	2254.81
689.45	2648.02
689.64	2457.56
689.82	2510.81
690.01	2508.76
690.19	2535.39
690.38	2502.62
690.56	2623.45
690.75	2392.03
690.93	2465.75
691.12	2383.84
691.30	2519.00
691.49	2498.52
691.67	2445.27
691.86	2734.04
692.04	2383.84
692.23	2512.86
692.41	2547.67
692.60	2858.96
692.78	2664.41
692.97	2480.09
693.15	2590.68
693.34	2607.06
693.52	2629.59
693.71	2492.38
693.89	2492.38
694.08	2269.15
694.26	2555.86
694.44	2615.26
694.63	2596.82
694.81	2349.02
695.00	2394.08
695.18	2559.96
695.37	2842.58
695.55	2490.33
695.74	2463.71
695.92	2451.42
696.10	2602.97
696.29	2287.58
696.47	2318.30
696.66	2301.92
696.84	2441.18
697.03	2514.91
697.21	2621.40
697.40	3706.82
697.58	2631.64
697.76	2455.51
697.95	2424.80
698.13	2318.30
698.32	2308.06
698.50	2480.09
698.68	2488.28
698.87	2473.95
699.05	2701.27
699.24	2424.80
699.42	2314.20
699.61	2488.28
699.79	2519.00
699.97	2449.37
700.16	2346.97
700.34	2340.83
700.53	2506.71
700.71	2641.88
700.89	2600.92
701.08	2488.28
701.26	2473.95
701.45	2967.51
701.63	2334.68
701.81	2428.89
702.00	2392.03
702.18	2553.82
702.37	2457.56
702.55	2752.47
702.73	2746.33
702.92	2639.83
703.10	2793.43
703.28	2793.43
703.47	2619.35
703.65	2693.08
703.84	2629.59
704.02	2428.89
704.20	2725.85
704.39	2363.36
704.57	2406.36
704.75	2633.69
704.94	2539.48
705.12	2580.44
705.30	2871.25
705.49	5595.05
705.67	12656.45
705.86	20995.78
706.04	24409.74
706.22	27747.93
706.41	28309.07
706.59	22695.59
706.77	16494.34
706.96	14145.32
707.14	12365.64
707.32	10663.77
707.51	9420.66
707.69	7669.64
707.87	6209.44
708.06	5005.24
708.24	4169.66
708.42	3491.79
708.61	3258.32
708.79	2693.08
708.97	2699.22
709.16	2613.21
709.34	2605.02
709.52	2428.89
709.71	2453.47
709.89	2621.40
710.07	2383.84
710.26	2400.22
710.44	2504.67
710.62	2695.13
710.80	2539.48
710.99	2562.01
711.17	2557.91
711.35	2418.65
711.54	2455.51
711.72	2588.63
711.90	2523.10
712.09	2570.20
712.27	2451.42
712.45	2519.00
712.63	2471.90
712.82	2539.48
713.00	2447.32
713.18	2521.05
713.37	2582.49
713.55	2514.91
713.73	2537.43
713.91	2562.01
714.10	2494.43
714.28	2490.33
714.46	2584.54
714.65	2502.62
714.83	2502.62
715.01	2490.33
715.19	2514.91
715.38	2396.12
715.56	2529.24
715.74	2418.65
715.92	2359.26
716.11	2609.11
716.29	2209.76
716.47	2529.24
716.65	2418.65
716.84	2351.07
717.02	2457.56
717.20	2324.44
717.38	2473.95
717.57	2510.81
717.75	2473.95
717.93	2455.51
718.11	2512.86
718.30	2285.53
718.48	2531.29
718.66	2709.46
718.84	2580.44
719.03	2465.75
719.21	2359.26
719.39	2729.94
719.57	2539.48
719.75	2568.15
719.94	2336.73
720.12	2365.40
720.30	2420.70
720.48	2537.43
720.67	2449.37
720.85	2299.87
721.03	2385.88
721.21	2318.30
721.39	2576.34
721.58	2519.00
721.76	2490.33
721.94	2461.66
722.12	2553.82
722.30	2693.08
722.49	2379.74
722.67	2482.14
722.85	2430.94
723.03	2330.59
723.21	2406.36
723.40	2553.82
723.58	2660.31
723.76	2576.34
723.94	2699.22
724.12	2521.05
724.30	2643.93
724.49	2537.43
724.67	2414.56
724.85	2652.12
725.03	2389.98
725.21	2539.48
725.40	2551.77
725.58	2428.89
725.76	2684.89
725.94	2553.82
726.12	2377.69
726.30	2502.62
726.49	2463.71
726.67	2498.52
726.85	2510.81
727.03	2916.31
727.21	4267.97
727.39	5894.05
727.57	6770.58
727.76	7327.63
727.94	7716.75
728.12	7069.59
728.30	5498.80
728.48	5062.58
728.66	4562.87
728.84	4140.99
729.03	3475.40
729.21	3227.60
729.39	3014.61
729.57	2709.46
729.75	2719.70
729.93	2584.54
730.11	2498.52
730.30	2430.94
730.48	2443.23
730.66	2592.73
730.84	2533.34
731.02	2471.90
731.20	2414.56
731.38	2432.99
731.56	2357.21
731.74	2351.07
731.93	2482.14
732.11	2412.51
732.29	2422.75
732.47	2494.43
732.65	2588.63
732.83	2549.72
733.01	2506.71
733.19	2400.22
733.37	2551.77
733.56	2482.14
733.74	2353.12
733.92	2717.65
734.10	2344.92
734.28	2490.33
734.46	2228.19
734.64	2461.66
734.82	2422.75
735.00	2426.84
735.18	2435.03
735.36	2498.52
735.54	2486.23
735.73	2455.51
735.91	2535.39
736.09	2570.20
736.27	2453.47
736.45	2519.00
736.63	2312.16
736.81	2383.84
736.99	2645.98
737.17	2590.68
737.35	2428.89
737.53	2498.52
737.71	2387.93
737.89	2641.88
738.07	2383.84
738.25	2424.80
738.43	2297.82
738.61	2498.52
738.80	2287.58
738.98	2349.02
739.16	2375.64
739.34	2439.13
739.52	2686.94
739.70	2457.56
739.88	2564.06
740.06	2564.06
740.24	2228.19
740.42	2645.98
740.60	2199.52
740.78	2412.51
740.96	2318.30
741.14	2467.80
741.32	2545.63
741.50	2295.77
741.68	2631.64
741.86	2629.59
742.04	2336.73
742.22	2326.49
742.40	2469.85
742.58	2523.10
742.76	2418.65
742.94	2576.34
743.12	2306.01
743.30	2488.28
743.48	2514.91
743.66	2383.84
743.84	2478.04
744.02	2480.09
744.20	2449.37
744.38	2365.40
744.56	2412.51
744.74	2680.79
744.92	2572.25
745.10	2684.89
745.28	2621.40
745.46	2668.50
745.64	2445.27
745.82	2568.15
746.00	2527.19
746.18	2596.82
746.36	2306.01
746.54	2473.95
746.72	2500.57
746.90	2265.05
747.08	2635.74
747.26	2408.41
747.44	2523.10
747.62	2578.39
747.80	2598.87
747.98	2613.21
748.15	2412.51
748.33	2629.59
748.51	2484.19
748.69	2600.92
748.87	2381.79
749.05	2408.41
749.23	2457.56
749.41	2537.43
749.59	2443.23
749.77	2654.17
749.95	2387.93
750.13	2387.93
750.31	2525.15
750.49	2445.27
750.67	2596.82
750.85	2678.74
751.03	2525.15
751.20	2701.27
751.38	2471.90
751.56	2457.56
751.74	2498.52
751.92	2543.58
752.10	2396.12
752.28	2576.34
752.46	2432.99
752.64	2478.04
752.82	2455.51
753.00	2609.11
753.18	2389.98
753.35	2478.04
753.53	2486.23
753.71	2392.03
753.89	2484.19
754.07	2514.91
754.25	2576.34
754.43	2578.39
754.61	2277.34
754.79	2564.06
754.97	2516.95
755.14	2645.98
755.32	2256.86
755.50	2469.85
755.68	2453.47
755.86	2400.22
756.04	2392.03
756.22	2295.77
756.40	2658.26
756.57	2682.84
756.75	2398.17
756.93	2600.92
757.11	2562.01
757.29	2359.26
757.47	2424.80
757.65	2408.41
757.82	2238.43
758.00	2357.21
758.18	2361.31
758.36	2383.84
758.54	2625.50
758.72	2334.68
758.90	2609.11
759.07	2576.34
759.25	2408.41
759.43	2588.63
759.61	2318.30
759.79	3540.94
759.97	2596.82
760.15	2361.31
760.32	2445.27
760.50	2531.29
760.68	2617.30
760.86	2353.12
761.04	2654.17
761.22	2535.39
761.39	2553.82
761.57	2490.33
761.75	2437.08
761.93	2547.67
762.11	2506.71
762.28	2523.10
762.46	2357.21
762.64	2613.21
762.82	2340.83
763.00	2389.98
763.18	2635.74
763.35	2289.63
763.53	2516.95
763.71	2445.27
763.89	2455.51
764.07	2451.42
764.24	2523.10
764.42	2482.14
764.60	2392.03
764.78	2473.95
764.96	2570.20
765.13	2547.67
765.31	2430.94
765.49	2588.63
765.67	2379.74
765.84	2349.02
766.02	2316.25
766.20	2285.53
766.38	2527.19
766.56	2582.49
766.73	2488.28
766.91	2488.28
767.09	2496.47
767.27	2533.34
767.44	2392.03
767.62	2570.20
767.80	2457.56
767.98	2412.51
768.15	2400.22
768.33	2596.82
768.51	2498.52
768.69	2572.25
768.87	2443.23
769.04	2424.80
769.22	2826.20
769.40	2625.50
769.58	2613.21
769.75	2555.86
769.93	2619.35
770.11	2437.08
770.28	2418.65
770.46	2625.50
770.64	2490.33
770.82	2441.18
770.99	2412.51
771.17	2629.59
771.35	2486.23
771.53	2394.08
771.70	2457.56
771.88	2555.86
772.06	2486.23
772.23	2414.56
772.41	2537.43
772.59	2365.40
772.77	2359.26
772.94	2422.75
773.12	2584.54
773.30	2430.94
773.47	2574.30
773.65	2408.41
773.83	2555.86
774.01	2490.33
774.18	2260.96
774.36	2426.84
774.54	2283.49
774.71	2512.86
774.89	2289.63
775.07	2365.40
775.24	2398.17
775.42	2416.60
775.60	2760.66
775.78	2457.56
775.95	2330.59
776.13	2275.29
776.31	2297.82
776.48	2502.62
776.66	2568.15
776.84	2392.03
777.01	2336.73
777.19	2414.56
777.37	2336.73
777.54	2514.91
777.72	2709.46
777.90	2424.80
778.07	2394.08
778.25	2863.06
778.43	2660.31
778.60	2344.92
778.78	2512.86
778.96	2633.69
779.13	2357.21
779.31	2572.25
779.49	2502.62
779.66	2543.58
779.84	2455.51
780.01	2494.43
780.19	2320.35
780.37	2639.83
780.54	2500.57
780.72	2275.29
780.90	2338.78
781.07	2408.41
781.25	2406.36
781.43	2500.57
781.60	2418.65
781.78	2609.11
781.95	2539.48
782.13	2365.40
782.31	2478.04
782.48	2299.87
782.66	2480.09
782.83	2697.17
783.01	2482.14
783.19	2457.56
783.36	2469.85
783.54	2310.11
783.72	2588.63
783.89	2441.18
784.07	2535.39
784.24	2410.46
784.42	2580.44
784.60	2392.03
784.77	2547.67
784.95	2236.38
785.12	2383.84
785.30	2496.47
785.47	2375.64
785.65	2373.60
785.83	2471.90
786.00	2445.27
786.18	2373.60
786.35	2334.68
786.53	2373.60
786.71	2586.58
786.88	2467.80
787.06	2504.67
787.23	2420.70
787.41	2314.20
787.58	2502.62
787.76	2379.74
787.94	2525.15
788.11	2494.43
788.29	2338.78
788.46	2398.17
788.64	2291.68
788.81	2412.51
788.99	2371.55
789.16	2351.07
789.34	2486.23
789.52	2424.80
789.69	2377.69
789.87	2230.24
790.04	2392.03
790.22	2512.86
790.39	2785.24
790.57	2340.83
790.74	2326.49
790.92	2590.68
791.09	2299.87
791.27	2422.75
791.44	2586.58
791.62	2414.56
791.79	2559.96
791.97	2467.80
792.15	2801.62
792.32	2586.58
792.50	2525.15
792.67	2713.56
792.85	2629.59
793.02	2566.10
793.20	2420.70
793.37	2217.95
793.55	2428.89
793.72	2349.02
793.90	2547.67
794.07	2394.08
794.25	2379.74
794.42	2443.23
794.60	2459.61
794.77	2508.76
794.95	2545.63
795.12	2633.69
795.30	2465.75
795.47	2209.76
795.65	2793.43
795.82	2537.43
796.00	2416.60
796.17	2449.37
796.34	2359.26
796.52	2445.27
796.69	2545.63
796.87	2543.58
797.04	2547.67
797.22	2531.29
797.39	2432.99
797.57	2588.63
797.74	2447.32
797.92	2539.48
798.09	2494.43
798.27	2625.50
798.44	2482.14
798.62	2418.65
798.79	2527.19
798.96	2488.28
799.14	2396.12
799.31	2863.06
799.49	2418.65
799.66	2351.07
799.84	2480.09
800.01	2265.05
800.19	2549.72
800.36	2263.01
800.53	2445.27
800.71	2621.40
800.88	2719.70
801.06	2394.08
801.23	2373.60
801.41	2447.32
801.58	2496.47
801.75	2320.35
801.93	2531.29
802.10	2537.43
802.28	2432.99
802.45	2430.94
802.63	2525.15
802.80	2738.13
802.97	2502.62
803.15	2447.32
803.32	2381.79
803.50	2297.82
803.67	2328.54
803.84	2394.08
804.02	2478.04
804.19	2471.90
804.37	2170.85
804.54	2306.01
804.71	2392.03
804.89	2441.18
805.06	2408.41
805.24	2373.60
805.41	2351.07
805.58	2342.88
805.76	2803.67
805.93	2469.85
806.10	2559.96
806.28	2539.48
806.45	2519.00
806.63	2564.06
806.80	2551.77
806.97	2553.82
807.15	2441.18
807.32	2461.66
807.49	2539.48
807.67	2353.12
807.84	2482.14
808.01	2359.26
808.19	2613.21
808.36	2777.05
808.54	2467.80
808.71	2383.84
808.88	2461.66
809.06	2553.82
809.23	2564.06
809.40	2338.78
809.58	2500.57
809.75	2494.43
809.92	2306.01
810.10	2699.22
810.27	2432.99
810.44	2582.49
810.62	2551.77
810.79	2457.56
810.96	2349.02
811.14	2449.37
811.31	2525.15
811.48	2555.86
811.66	2342.88
811.83	2637.78
812.00	2445.27
812.18	2424.80
812.35	2699.22
812.52	2492.38
812.69	2412.51
812.87	2494.43
813.04	2420.70
813.21	2473.95
813.39	2457.56
813.56	2334.68
813.73	2621.40
813.91	2314.20
814.08	2465.75
814.25	2430.94
814.42	2252.77
814.60	2512.86
814.77	2469.85
814.94	2465.75
815.12	2461.66
815.29	2639.83
815.46	2373.60
815.63	2463.71
815.81	2473.95
815.98	2514.91
816.15	2469.85
816.33	2361.31
816.50	2394.08
816.67	2447.32
816.84	2414.56
817.02	2301.92
817.19	2457.56
817.36	2519.00
817.53	2494.43
817.71	2326.49
817.88	2519.00
818.05	2480.09
818.22	2482.14
818.40	2592.73
818.57	2445.27
818.74	2457.56
818.91	2422.75
819.09	2543.58
819.26	2572.25
819.43	2310.11
819.60	2447.32
819.78	2617.30
819.95	2568.15
820.12	2310.11
820.29	2637.78
820.47	2596.82
820.64	2318.30
820.81	2283.49
820.98	2381.79
821.15	2404.32
821.33	2531.29
821.50	2371.55
821.67	2531.29
821.84	2416.60
822.02	2496.47
822.19	2566.10
822.36	2453.47
822.53	2396.12
822.70	2418.65
822.88	2486.23
823.05	2691.03
823.22	2379.74
823.39	2457.56
823.56	2422.75
823.74	2691.03
823.91	2285.53
824.08	2336.73
824.25	2318.30
824.42	2750.42
824.60	2349.02
824.77	2521.05
824.94	2465.75
825.11	2508.76
825.28	2342.88
825.45	2461.66
825.63	2494.43
825.80	2334.68
825.97	2478.04
826.14	2492.38
826.31	2285.53
826.48	2568.15
826.66	2367.45
826.83	2367.45
827.00	2496.47
827.17	2369.50
827.34	2486.23
827.51	2453.47
827.69	2439.13
827.86	2250.72
828.03	2404.32
828.20	2510.81
828.37	2375.64
828.54	2506.71
828.71	2416.60
828.89	2553.82
829.06	2531.29
829.23	2588.63
829.40	2359.26
829.57	2299.87
829.74	2566.10
829.91	2375.64
830.09	2400.22
830.26	2516.95
830.43	2701.27
830.60	2492.38
830.77	2498.52
830.94	2514.91
831.11	2664.41
831.28	2408.41
831.46	2555.86
831.63	2416.60
831.80	2670.55
831.97	2342.88
832.14	2398.17
832.31	2539.48
832.48	2490.33
832.65	2588.63
832.82	2490.33
832.99	2467.80
833.17	2357.21
833.34	2611.16
833.51	2478.04
833.68	2265.05
833.85	2611.16
834.02	2387.93
834.19	2297.82
834.36	2330.59
834.53	2519.00
834.70	2570.20
834.87	2465.75
835.04	2334.68
835.22	2410.46
835.39	2496.47
835.56	2244.57
835.73	2349.02
835.90	2609.11
836.07	2375.64
836.24	2512.86
836.41	2375.64
836.58	2342.88
836.75	2549.72
836.92	2439.13
837.09	2297.82
837.26	2580.44
837.43	2588.63
837.60	2506.71
837.77	2342.88
837.94	2545.63
838.12	2609.11
838.29	2400.22
838.46	2295.77
838.63	2367.45
838.80	2697.17
838.97	2490.33
839.14	2430.94
839.31	2432.99
839.48	2562.01
839.65	2392.03
839.82	2484.19
839.99	2523.10
840.16	2537.43
840.33	2340.83
840.50	2416.60
840.67	2383.84
840.84	2189.28
841.01	2355.16
841.18	2365.40
841.35	2504.67
841.52	2553.82
841.69	2682.84
841.86	2383.84
842.03	2482.14
842.20	2652.12
842.37	2357.21
842.54	2402.27
842.71	2420.70
842.88	2334.68
843.05	2428.89
843.22	2396.12
843.39	2551.77
843.56	2392.03
843.73	2387.93
843.90	2420.70
844.07	2381.79
844.24	2539.48
844.41	2469.85
844.58	2375.64
844.75	2461.66
844.92	2545.63
845.09	2422.75
845.26	2383.84
845.43	2557.91
845.60	2455.51
845.77	2506.71
845.94	2422.75
846.10	2680.79
846.27	2285.53
846.44	2303.96
846.61	2334.68
846.78	2578.39
846.95	2570.20
847.12	2322.40
847.29	2422.75
847.46	2373.60
847.63	2562.01
847.80	2351.07
847.97	2340.83
848.14	2760.66
848.31	2465.75
848.48	2269.15
848.65	2441.18
848.82	2441.18
848.98	2805.72
849.15	2492.38
849.32	2469.85
849.49	2514.91
849.66	2394.08
849.83	2355.16
850.00	2328.54
850.17	2611.16
850.34	2424.80
850.51	2328.54
850.68	2338.78
850.85	2652.12
851.01	2504.67
851.18	2359.26
851.35	2400.22
851.52	2473.95
851.69	2580.44
851.86	2316.25
852.03	2314.20
852.20	2555.86
852.37	2408.41
852.53	2203.61
852.70	2326.49
852.87	2570.20
853.04	2539.48
853.21	2355.16
853.38	2553.82
853.55	2666.46
853.72	2555.86
853.89	2342.88
854.05	2375.64
854.22	2441.18
854.39	2426.84
854.56	2414.56
854.73	2488.28
854.90	2324.44
855.07	2420.70
855.23	2308.06
855.40	2310.11
855.57	2392.03
855.74	2236.38
855.91	2584.54
856.08	2322.40
856.25	2269.15
856.41	2463.71
856.58	2351.07
856.75	2402.27
856.92	2353.12
857.09	2566.10
857.26	2297.82
857.42	2387.93
857.59	2562.01
857.76	2379.74
857.93	2398.17
858.10	2465.75
858.27	2389.98
858.43	2498.52
858.60	2365.40
858.77	2195.42
858.94	2412.51
859.11	2600.92
859.27	2383.84
859.44	2344.92
859.61	2709.46
859.78	2588.63
859.95	2353.12
860.12	2334.68
860.28	2731.99
860.45	2652.12
860.62	2301.92
860.79	2506.71
860.95	2422.75
861.12	2484.19
861.29	2330.59
861.46	2295.77
861.63	2459.61
861.79	2545.63
861.96	2293.72
862.13	2318.30
862.30	2668.50
862.47	2445.27
862.63	2293.72
862.80	2547.67
862.97	2584.54
863.14	2586.58
863.30	2375.64
863.47	2359.26
863.64	2703.32
863.81	2576.34
863.97	2367.45
864.14	2463.71
864.31	2465.75
864.48	2547.67
864.65	2351.07
864.81	2551.77
864.98	2594.78
865.15	2572.25
865.32	2475.99
865.48	2437.08
865.65	2572.25
865.82	2445.27
865.98	2502.62
866.15	2478.04
866.32	2410.46
866.49	2502.62
866.65	2490.33
866.82	2330.59
866.99	2457.56
867.16	2385.88
867.32	2336.73
867.49	2369.50
867.66	2453.47
867.83	2437.08
867.99	2269.15
868.16	2408.41
868.33	2324.44
868.49	2463.71
868.66	2449.37
868.83	2435.03
868.99	2539.48
869.16	2478.04
869.33	2463.71
869.50	2506.71
869.66	2555.86
869.83	2484.19
870.00	2326.49
870.16	2506.71
870.33	2480.09
870.50	2617.30
870.66	2514.91
870.83	2467.80
871.00	2516.95
871.17	2547.67
871.33	2424.80
871.50	2428.89
871.67	2414.56
871.83	2211.81
872.00	2525.15
872.17	2457.56
872.33	2680.79
872.50	2537.43
872.67	2336.73
872.83	2371.55
873.00	2478.04
873.17	2453.47
873.33	2453.47
873.50	2408.41
873.67	2389.98
873.83	2465.75
874.00	2396.12
874.16	2473.95
874.33	2449.37
874.50	2273.25
874.66	2422.75
874.83	2430.94
875.00	2615.26
875.16	2654.17
875.33	2488.28
875.50	2217.95
875.66	2373.60
875.83	2545.63
875.99	2504.67
876.16	2369.50
876.33	2287.58
876.49	2422.75
876.66	2414.56
876.83	2349.02
876.99	2312.16
877.16	2543.58
877.32	2404.32
877.49	2449.37
877.66	2486.23
877.82	2635.74
877.99	2469.85
878.15	2588.63
878.32	2523.10
878.49	2467.80
878.65	2387.93
878.82	2541.53
878.98	2383.84
879.15	2605.02
879.32	2498.52
879.48	2420.70
879.65	2400.22
879.81	2406.36
879.98	2295.77
880.15	2455.51
880.31	2609.11
880.48	2281.44
880.64	2521.05
880.81	2498.52
880.97	2654.17
881.14	2662.36
881.31	2346.97
881.47	2613.21
881.64	2392.03
881.80	2342.88
881.97	2428.89
882.13	2449.37
882.30	2371.55
882.47	2322.40
882.63	2359.26
882.80	2330.59
882.96	2363.36
883.13	2611.16
883.29	2414.56
883.46	2435.03
883.62	2727.89
883.79	2555.86
883.95	2439.13
884.12	2412.51
884.29	2586.58
884.45	2469.85
884.62	2430.94
884.78	2342.88
884.95	2629.59
885.11	2437.08
885.28	2439.13
885.44	2363.36
885.61	2564.06
885.77	2611.16
885.94	2473.95
886.10	2437.08
886.27	2492.38
886.43	2652.12
886.60	2498.52
886.76	2375.64
886.93	2396.12
887.09	2510.81
887.26	2295.77
887.42	2445.27
887.59	2684.89
887.75	2848.72
887.92	2600.92
888.08	2492.38
888.25	2693.08
888.41	2539.48
888.58	2377.69
888.74	2322.40
888.91	2412.51
>>>>>End Processed Spectral Data<<<<<
