SpectraSuite Data File
++++++++++++++++++++++++++++++++++++
Date: Thu May 05 14:42:11 CEST 2016
User: root
Dark Spectrum Present: No
Reference Spectrum Present: No
Number of Sampled Component Spectra: 1
Spectrometers: USB4C02835
Integration Time (usec): 100000 (USB4C02835)
Spectra Averaged: 1 (USB4C02835)
Boxcar Smoothing: 0 (USB4C02835)
Correct for Electrical Dark: No (USB4C02835)
Strobe/Lamp Enabled: No (USB4C02835)
Correct for Detector Non-linearity: No (USB4C02835)
Correct for Stray Light: No (USB4C02835)
Number of Pixels in Processed Spectrum: 3648
>>>>>Begin Processed Spectral Data<<<<<
177.47	1927.14
177.69	1927.14
177.91	1927.14
178.13	1912.80
178.36	1929.19
178.58	2385.88
178.80	2553.82
179.02	2336.73
179.24	2346.97
179.46	2326.49
179.68	2408.41
179.90	2486.23
180.13	2496.47
180.35	2220.00
180.57	2332.64
180.79	2543.58
181.01	2465.75
181.23	2346.97
181.45	2418.65
181.67	2557.91
181.90	2541.53
182.12	2367.45
182.34	2162.66
182.56	2523.10
182.78	2504.67
183.00	2338.78
183.22	2318.30
183.44	2244.57
183.66	2803.67
183.89	2482.14
184.11	2340.83
184.33	2555.86
184.55	2654.17
184.77	2412.51
184.99	2398.17
185.21	2416.60
185.43	2742.23
185.65	2349.02
185.87	2322.40
186.10	2762.71
186.32	2777.05
186.54	2418.65
186.76	2432.99
186.98	2625.50
187.20	2480.09
187.42	2346.97
187.64	2332.64
187.86	2576.34
188.08	2600.92
188.30	2314.20
188.52	2316.25
188.75	2596.82
188.97	2688.98
189.19	2379.74
189.41	2367.45
189.63	2559.96
189.85	2424.80
190.07	2185.18
190.29	2228.19
190.51	2541.53
190.73	2359.26
190.95	2498.52
191.17	2365.40
191.39	2297.82
191.61	2445.27
191.84	2340.83
192.06	2451.42
192.28	2256.86
192.50	2772.95
192.72	2439.13
192.94	2422.75
193.16	2629.59
193.38	2510.81
193.60	2271.20
193.82	2428.89
194.04	2643.93
194.26	2531.29
194.48	2383.84
194.70	2326.49
194.92	2475.99
195.14	2562.01
195.36	2326.49
195.58	2277.34
195.80	2449.37
196.02	2463.71
196.24	2258.91
196.46	2359.26
196.69	2424.80
196.91	2793.43
197.13	2375.64
197.35	2359.26
197.57	2613.21
197.79	2521.05
198.01	2418.65
198.23	2379.74
198.45	2553.82
198.67	2310.11
198.89	2256.86
199.11	2439.13
199.33	2349.02
199.55	2308.06
199.77	2328.54
199.99	2516.95
200.21	2400.22
200.43	2492.38
200.65	2326.49
200.87	2205.66
201.09	2478.04
201.31	2416.60
201.53	2408.41
201.75	2455.51
201.97	2562.01
202.19	2449.37
202.41	2412.51
202.63	2506.71
202.85	2570.20
203.07	2531.29
203.29	2351.07
203.51	2324.44
203.73	2373.60
203.95	2807.77
204.17	2318.30
204.39	2404.32
204.61	2365.40
204.83	2465.75
205.05	2461.66
205.27	2410.46
205.49	2760.66
205.71	2572.25
205.93	2287.58
206.15	2279.39
206.37	2447.32
206.59	2418.65
206.81	2256.86
207.03	2244.57
207.25	2342.88
207.47	2510.81
207.69	2346.97
207.91	2441.18
208.13	2594.78
208.34	2496.47
208.56	2293.72
208.78	2375.64
209.00	2420.70
209.22	2381.79
209.44	2299.87
209.66	2314.20
209.88	2525.15
210.10	2486.23
210.32	2383.84
210.54	2447.32
210.76	2465.75
210.98	2605.02
211.20	2136.03
211.42	2430.94
211.64	2605.02
211.86	2496.47
212.08	2451.42
212.30	2394.08
212.52	2432.99
212.74	2484.19
212.96	2404.32
213.17	2463.71
213.39	2502.62
213.61	2678.74
213.83	2326.49
214.05	2410.46
214.27	2609.11
214.49	2361.31
214.71	2273.25
214.93	2400.22
215.15	2500.57
215.37	2602.97
215.59	2244.57
215.81	2351.07
216.03	2600.92
216.24	2492.38
216.46	2273.25
216.68	2373.60
216.90	2580.44
217.12	2654.17
217.34	2301.92
217.56	2441.18
217.78	2623.45
218.00	2609.11
218.22	2430.94
218.44	2414.56
218.66	2531.29
218.87	2627.54
219.09	2277.34
219.31	2420.70
219.53	2514.91
219.75	2359.26
219.97	2316.25
220.19	2355.16
220.41	2461.66
220.63	2613.21
220.85	2318.30
221.06	2332.64
221.28	2707.41
221.50	2551.77
221.72	2351.07
221.94	2299.87
222.16	2521.05
222.38	2549.72
222.60	2324.44
222.82	2277.34
223.03	2594.78
223.25	2324.44
223.47	2328.54
223.69	2547.67
223.91	2541.53
224.13	2631.64
224.35	2275.29
224.57	2529.24
224.78	2582.49
225.00	2414.56
225.22	2404.32
225.44	2332.64
225.66	2584.54
225.88	2361.31
226.10	2422.75
226.32	2381.79
226.53	2594.78
226.75	2439.13
226.97	2400.22
227.19	2322.40
227.41	2392.03
227.63	2471.90
227.85	2195.42
228.06	2291.68
228.28	2488.28
228.50	2602.97
228.72	2283.49
228.94	2387.93
229.16	2172.89
229.37	2383.84
229.59	2285.53
229.81	2521.05
230.03	2469.85
230.25	2289.63
230.47	2258.91
230.69	2291.68
230.90	2523.10
231.12	2457.56
231.34	2455.51
231.56	2373.60
231.78	2303.96
232.00	2482.14
232.21	2381.79
232.43	2418.65
232.65	2172.89
232.87	2527.19
233.09	2244.57
233.30	2320.35
233.52	2602.97
233.74	2461.66
233.96	2316.25
234.18	2416.60
234.40	2379.74
234.61	2725.85
234.83	2277.34
235.05	2285.53
235.27	2744.28
235.49	2617.30
235.70	2297.82
235.92	2439.13
236.14	2613.21
236.36	2842.58
236.58	2285.53
236.79	2369.50
237.01	2523.10
237.23	2465.75
237.45	2572.25
237.67	2346.97
237.88	2482.14
238.10	2668.50
238.32	2285.53
238.54	2324.44
238.76	2539.48
238.97	2406.36
239.19	2326.49
239.41	2424.80
239.63	2586.58
239.85	2422.75
240.06	2351.07
240.28	2332.64
240.50	2658.26
240.72	2465.75
240.93	2357.21
241.15	2473.95
241.37	2537.43
241.59	2629.59
241.81	2316.25
242.02	2375.64
242.24	2490.33
242.46	2621.40
242.68	2232.29
242.89	2332.64
243.11	2543.58
243.33	2459.61
243.55	2349.02
243.76	2373.60
243.98	2408.41
244.20	2465.75
244.42	2316.25
244.64	2416.60
244.85	2326.49
245.07	2314.20
245.29	2373.60
245.51	2338.78
245.72	2502.62
245.94	2656.22
246.16	2392.03
246.38	2447.32
246.59	2357.21
246.81	2387.93
247.03	2322.40
247.24	2254.81
247.46	2351.07
247.68	2508.76
247.90	2230.24
248.11	2326.49
248.33	2596.82
248.55	2449.37
248.77	2424.80
248.98	2418.65
249.20	2676.70
249.42	2496.47
249.64	2461.66
249.85	2412.51
250.07	2437.08
250.29	2572.25
250.50	2441.18
250.72	2207.71
250.94	2516.95
251.16	2760.66
251.37	2373.60
251.59	2496.47
251.81	2547.67
252.02	2645.98
252.24	2346.97
252.46	2412.51
252.68	2418.65
252.89	2359.26
253.11	2220.00
253.33	2572.25
253.54	2738.13
253.76	2387.93
253.98	2344.92
254.20	2351.07
254.41	2320.35
254.63	2465.75
254.85	2220.00
255.06	2400.22
255.28	2572.25
255.50	2406.36
255.71	2367.45
255.93	2265.05
256.15	2418.65
256.36	2613.21
256.58	2306.01
256.80	2320.35
257.02	2490.33
257.23	2396.12
257.45	2412.51
257.67	2414.56
257.88	2410.46
258.10	2473.95
258.32	2322.40
258.53	2428.89
258.75	2631.64
258.97	2359.26
259.18	2361.31
259.40	2326.49
259.62	2713.56
259.83	2572.25
260.05	2310.11
260.27	2908.12
260.48	2572.25
260.70	2418.65
260.92	2318.30
261.13	2398.17
261.35	2572.25
261.57	2553.82
261.78	2273.25
262.00	2244.57
262.22	2578.39
262.43	2428.89
262.65	2435.03
262.86	2406.36
263.08	2793.43
263.30	2514.91
263.51	2191.33
263.73	2367.45
263.95	2617.30
264.16	2369.50
264.38	2306.01
264.60	2385.88
264.81	2420.70
265.03	2668.50
265.25	2602.97
265.46	2338.78
265.68	2723.80
265.89	2637.78
266.11	2287.58
266.33	2326.49
266.54	2615.26
266.76	2527.19
266.98	2539.48
267.19	2428.89
267.41	2578.39
267.62	2490.33
267.84	2252.77
268.06	2463.71
268.27	2535.39
268.49	2633.69
268.70	2332.64
268.92	2408.41
269.14	2410.46
269.35	2373.60
269.57	2406.36
269.79	2408.41
270.00	2389.98
270.22	2629.59
270.43	2355.16
270.65	2203.61
270.87	2555.86
271.08	2592.73
271.30	2467.80
271.51	2367.45
271.73	2514.91
271.95	2607.06
272.16	2367.45
272.38	2379.74
272.59	2412.51
272.81	2570.20
273.02	2306.01
273.24	2392.03
273.46	2600.92
273.67	2392.03
273.89	2279.39
274.10	2318.30
274.32	2635.74
274.54	2455.51
274.75	2398.17
274.97	2379.74
275.18	2592.73
275.40	2592.73
275.61	2424.80
275.83	2545.63
276.05	2308.06
276.26	2439.13
276.48	2455.51
276.69	2363.36
276.91	2353.12
277.12	2656.22
277.34	2488.28
277.55	2527.19
277.77	2424.80
277.99	2441.18
278.20	2410.46
278.42	2310.11
278.63	2445.27
278.85	2445.27
279.06	2357.21
279.28	2457.56
279.49	2637.78
279.71	2570.20
279.93	2402.27
280.14	2435.03
280.36	2383.84
280.57	2699.22
280.79	2531.29
281.00	2455.51
281.22	2377.69
281.43	2629.59
281.65	2162.66
281.86	2316.25
282.08	2502.62
282.29	2752.47
282.51	2228.19
282.73	2316.25
282.94	2316.25
283.16	2531.29
283.37	2574.30
283.59	2435.03
283.80	2553.82
284.02	2447.32
284.23	2426.84
284.45	2439.13
284.66	2424.80
284.88	2385.88
285.09	2449.37
285.31	2498.52
285.52	2602.97
285.74	2326.49
285.95	2502.62
286.17	2420.70
286.38	2691.03
286.60	2371.55
286.81	2439.13
287.03	2394.08
287.24	2416.60
287.46	2498.52
287.67	2502.62
287.89	2623.45
288.10	2408.41
288.32	2475.99
288.53	2596.82
288.75	2445.27
288.96	2500.57
289.18	2396.12
289.39	2441.18
289.61	2379.74
289.82	2807.77
290.04	2666.46
290.25	2310.11
290.47	2435.03
290.68	2404.32
290.90	2578.39
291.11	2299.87
291.33	2547.67
291.54	2359.26
291.76	2398.17
291.97	2406.36
292.18	2383.84
292.40	2381.79
292.61	2344.92
292.83	2562.01
293.04	2441.18
293.26	2416.60
293.47	2482.14
293.69	2383.84
293.90	2426.84
294.12	2592.73
294.33	2539.48
294.55	2408.41
294.76	2596.82
294.97	2664.41
295.19	2744.28
295.40	2400.22
295.62	2519.00
295.83	2572.25
296.05	2371.55
296.26	2523.10
296.48	2383.84
296.69	2529.24
296.90	2447.32
297.12	2535.39
297.33	2523.10
297.55	2527.19
297.76	2523.10
297.98	2527.19
298.19	2484.19
298.41	2453.47
298.62	2394.08
298.83	2494.43
299.05	2441.18
299.26	2392.03
299.48	2371.55
299.69	2506.71
299.90	2469.85
300.12	2310.11
300.33	2523.10
300.55	2471.90
300.76	2510.81
300.98	2324.44
301.19	2553.82
301.40	2385.88
301.62	2379.74
301.83	2531.29
302.05	2424.80
302.26	2359.26
302.47	2422.75
302.69	2320.35
302.90	2521.05
303.12	2289.63
303.33	2453.47
303.54	2815.96
303.76	2432.99
303.97	2400.22
304.19	2611.16
304.40	2420.70
304.61	2531.29
304.83	2570.20
305.04	2572.25
305.26	2482.14
305.47	2480.09
305.68	2547.67
305.90	2314.20
306.11	2717.65
306.33	2494.43
306.54	2338.78
306.75	2359.26
306.97	2285.53
307.18	2377.69
307.39	2349.02
307.61	2475.99
307.82	2455.51
308.04	2596.82
308.25	2365.40
308.46	2471.90
308.68	2430.94
308.89	2475.99
309.10	2500.57
309.32	2455.51
309.53	2564.06
309.74	2519.00
309.96	2357.21
310.17	2564.06
310.39	2473.95
310.60	2537.43
310.81	2478.04
311.03	2240.48
311.24	2619.35
311.45	2519.00
311.67	2643.93
311.88	2469.85
312.09	2455.51
312.31	2383.84
312.52	2445.27
312.73	2359.26
312.95	2287.58
313.16	2324.44
313.37	2547.67
313.59	2551.77
313.80	2584.54
314.01	2725.85
314.23	2381.79
314.44	2295.77
314.65	2265.05
314.87	2402.27
315.08	2435.03
315.29	2375.64
315.51	2385.88
315.72	2365.40
315.93	2482.14
316.15	2553.82
316.36	2402.27
316.57	2506.71
316.79	2521.05
317.00	2389.98
317.21	2494.43
317.43	2400.22
317.64	2473.95
317.85	2330.59
318.07	2338.78
318.28	2398.17
318.49	2537.43
318.70	2650.07
318.92	2613.21
319.13	2596.82
319.34	2664.41
319.56	2539.48
319.77	2557.91
319.98	2588.63
320.20	2482.14
320.41	2510.81
320.62	2578.39
320.83	2437.08
321.05	2662.36
321.26	2437.08
321.47	2453.47
321.69	2623.45
321.90	2357.21
322.11	2432.99
322.32	2541.53
322.54	2650.07
322.75	2439.13
322.96	2904.02
323.18	2308.06
323.39	2310.11
323.60	2373.60
323.81	2514.91
324.03	2424.80
324.24	2377.69
324.45	2455.51
324.66	2392.03
324.88	2609.11
325.09	2674.65
325.30	2449.37
325.52	2514.91
325.73	2539.48
325.94	2408.41
326.15	2338.78
326.37	2387.93
326.58	2627.54
326.79	2629.59
327.00	2357.21
327.22	2482.14
327.43	2469.85
327.64	2355.16
327.85	2484.19
328.07	2441.18
328.28	2717.65
328.49	2449.37
328.70	2471.90
328.92	2457.56
329.13	2416.60
329.34	2519.00
329.55	2645.98
329.76	2535.39
329.98	2553.82
330.19	2611.16
330.40	2508.76
330.61	2525.15
330.83	2572.25
331.04	2314.20
331.25	2404.32
331.46	2420.70
331.68	2326.49
331.89	2584.54
332.10	2398.17
332.31	2228.19
332.52	2527.19
332.74	2615.26
332.95	2234.33
333.16	2437.08
333.37	2508.76
333.58	2404.32
333.80	2428.89
334.01	2228.19
334.22	2527.19
334.43	2355.16
334.64	2400.22
334.86	2220.00
335.07	2396.12
335.28	2635.74
335.49	2279.39
335.70	2463.71
335.92	2654.17
336.13	2715.61
336.34	2461.66
336.55	2496.47
336.76	2514.91
336.98	2269.15
337.19	2461.66
337.40	2506.71
337.61	2727.89
337.82	2437.08
338.04	2514.91
338.25	2369.50
338.46	2506.71
338.67	2369.50
338.88	2371.55
339.09	2351.07
339.31	2430.94
339.52	2336.73
339.73	2326.49
339.94	2473.95
340.15	2543.58
340.36	2387.93
340.58	2449.37
340.79	2385.88
341.00	2467.80
341.21	2375.64
341.42	2547.67
341.63	2459.61
341.85	2572.25
342.06	2484.19
342.27	2346.97
342.48	2555.86
342.69	2338.78
342.90	2510.81
343.12	2629.59
343.33	2416.60
343.54	2527.19
343.75	2633.69
343.96	2504.67
344.17	2316.25
344.38	2473.95
344.60	2396.12
344.81	2342.88
345.02	2478.04
345.23	2695.13
345.44	2783.19
345.65	2564.06
345.86	2478.04
346.07	2461.66
346.29	2365.40
346.50	2504.67
346.71	2437.08
346.92	2639.83
347.13	2729.94
347.34	2471.90
347.55	2326.49
347.76	2523.10
347.98	2318.30
348.19	2461.66
348.40	2582.49
348.61	2408.41
348.82	2682.84
349.03	2494.43
349.24	2365.40
349.45	2707.41
349.66	2275.29
349.88	2408.41
350.09	2392.03
350.30	2564.06
350.51	2670.55
350.72	2537.43
350.93	2512.86
351.14	2457.56
351.35	2523.10
351.56	2459.61
351.77	2422.75
351.99	2510.81
352.20	2627.54
352.41	2488.28
352.62	2240.48
352.83	2461.66
353.04	2457.56
353.25	2373.60
353.46	2426.84
353.67	2697.17
353.88	2224.09
354.09	2389.98
354.30	2396.12
354.52	2574.30
354.73	2404.32
354.94	2408.41
355.15	2449.37
355.36	2670.55
355.57	2396.12
355.78	2519.00
355.99	2314.20
356.20	2449.37
356.41	2678.74
356.62	2502.62
356.83	2478.04
357.04	2658.26
357.25	2211.81
357.46	2365.40
357.68	2326.49
357.89	2439.13
358.10	2492.38
358.31	2461.66
358.52	2430.94
358.73	2332.64
358.94	2359.26
359.15	2439.13
359.36	2455.51
359.57	2547.67
359.78	2506.71
359.99	2531.29
360.20	2416.60
360.41	2455.51
360.62	2605.02
360.83	2406.36
361.04	2449.37
361.25	2545.63
361.46	2695.13
361.67	2445.27
361.88	2539.48
362.09	2613.21
362.30	2500.57
362.51	2310.11
362.72	2392.03
362.93	2562.01
363.14	2533.34
363.35	2424.80
363.56	2441.18
363.78	2572.25
363.99	2609.11
364.20	2383.84
364.41	2525.15
364.62	2680.79
364.83	2535.39
365.04	2424.80
365.25	2449.37
365.46	2768.85
365.67	2349.02
365.88	2457.56
366.09	2330.59
366.30	2447.32
366.51	2469.85
366.72	2330.59
366.93	2484.19
367.14	2441.18
367.35	2654.17
367.56	2396.12
367.77	2551.77
367.98	2475.99
368.18	2539.48
368.39	2465.75
368.60	2275.29
368.81	2580.44
369.02	2424.80
369.23	2459.61
369.44	2316.25
369.65	2432.99
369.86	2609.11
370.07	2469.85
370.28	2314.20
370.49	2506.71
370.70	2600.92
370.91	2363.36
371.12	2314.20
371.33	2588.63
371.54	2445.27
371.75	2566.10
371.96	2291.68
372.17	2447.32
372.38	2519.00
372.59	2441.18
372.80	2412.51
373.01	2422.75
373.22	2445.27
373.43	2494.43
373.64	2271.20
373.85	2699.22
374.06	2625.50
374.26	2500.57
374.47	2596.82
374.68	2686.94
374.89	2490.33
375.10	2473.95
375.31	2543.58
375.52	2514.91
375.73	2373.60
375.94	2375.64
376.15	2619.35
376.36	2342.88
376.57	2392.03
376.78	2420.70
376.99	2406.36
377.20	2684.89
377.40	2453.47
377.61	2652.12
377.82	2334.68
378.03	2768.85
378.24	2588.63
378.45	2482.14
378.66	2475.99
378.87	2330.59
379.08	2328.54
379.29	2398.17
379.50	2564.06
379.71	2500.57
379.91	2533.34
380.12	2432.99
380.33	2469.85
380.54	2525.15
380.75	2482.14
380.96	2432.99
381.17	2521.05
381.38	2543.58
381.59	2494.43
381.80	2508.76
382.00	2607.06
382.21	2473.95
382.42	2676.70
382.63	2713.56
382.84	2570.20
383.05	2588.63
383.26	2648.02
383.47	2432.99
383.68	2512.86
383.88	2506.71
384.09	2510.81
384.30	2572.25
384.51	2492.38
384.72	2449.37
384.93	2332.64
385.14	2535.39
385.35	2480.09
385.55	2346.97
385.76	2602.97
385.97	2410.46
386.18	2287.58
386.39	2482.14
386.60	2340.83
386.81	2473.95
387.02	2367.45
387.22	2287.58
387.43	2605.02
387.64	2588.63
387.85	2695.13
388.06	2613.21
388.27	3950.53
388.48	8253.31
388.68	12048.20
388.89	14503.71
389.10	15669.01
389.31	14726.94
389.52	11646.80
389.73	9977.70
389.93	8976.25
390.14	8120.20
390.35	7444.37
390.56	6692.76
390.77	5480.36
390.98	4190.14
391.18	3438.54
391.39	2971.60
391.60	2611.16
391.81	2623.45
392.02	2387.93
392.23	2758.61
392.43	2537.43
392.64	2645.98
392.85	2465.75
393.06	2670.55
393.27	2527.19
393.47	2424.80
393.68	2572.25
393.89	2484.19
394.10	2617.30
394.31	2471.90
394.52	2375.64
394.72	2398.17
394.93	2668.50
395.14	2328.54
395.35	2559.96
395.56	2428.89
395.76	2506.71
395.97	2457.56
396.18	2525.15
396.39	2602.97
396.60	2977.75
396.80	2801.62
397.01	2637.78
397.22	2625.50
397.43	2697.17
397.64	2441.18
397.84	2629.59
398.05	2752.47
398.26	2494.43
398.47	2578.39
398.67	2588.63
398.88	2457.56
399.09	2537.43
399.30	2381.79
399.51	2457.56
399.71	2357.21
399.92	2478.04
400.13	2498.52
400.34	2459.61
400.54	2455.51
400.75	2635.74
400.96	2441.18
401.17	2666.46
401.37	2549.72
401.58	2373.60
401.79	2402.27
402.00	2574.30
402.21	2979.79
402.41	2775.00
402.62	2861.01
402.83	3055.57
403.04	2916.31
403.24	3088.34
403.45	2500.57
403.66	2719.70
403.87	2740.18
404.07	2797.53
404.28	2705.37
404.49	2736.09
404.70	2605.02
404.90	2670.55
405.11	2498.52
405.32	2525.15
405.52	2383.84
405.73	2400.22
405.94	2353.12
406.15	2461.66
406.35	2674.65
406.56	2535.39
406.77	2402.27
406.98	2389.98
407.18	2414.56
407.39	2619.35
407.60	2375.64
407.80	2510.81
408.01	2455.51
408.22	2559.96
408.43	2316.25
408.63	2498.52
408.84	2564.06
409.05	2572.25
409.25	2367.45
409.46	2398.17
409.67	2449.37
409.88	2414.56
410.08	2521.05
410.29	2463.71
410.50	2648.02
410.70	2490.33
410.91	2312.16
411.12	2531.29
411.32	2467.80
411.53	2449.37
411.74	2553.82
411.95	2686.94
412.15	2641.88
412.36	2641.88
412.57	2609.11
412.77	2629.59
412.98	2463.71
413.19	2486.23
413.39	2523.10
413.60	2455.51
413.81	2660.31
414.01	2334.68
414.22	2584.54
414.43	2590.68
414.63	2435.03
414.84	2617.30
415.05	2486.23
415.25	2346.97
415.46	2553.82
415.67	2383.84
415.87	2488.28
416.08	2486.23
416.29	2496.47
416.49	2514.91
416.70	2383.84
416.91	2437.08
417.11	2541.53
417.32	2641.88
417.53	2508.76
417.73	2441.18
417.94	2414.56
418.15	2449.37
418.35	2533.34
418.56	2529.24
418.77	2834.39
418.97	2469.85
419.18	2535.39
419.38	2193.37
419.59	2461.66
419.80	2711.51
420.00	2471.90
420.21	2430.94
420.42	2676.70
420.62	2545.63
420.83	2459.61
421.04	2471.90
421.24	2428.89
421.45	2639.83
421.65	2463.71
421.86	2359.26
422.07	2572.25
422.27	2490.33
422.48	2408.41
422.69	2293.72
422.89	2461.66
423.10	2457.56
423.30	2408.41
423.51	2473.95
423.72	2498.52
423.92	2592.73
424.13	2289.63
424.33	2502.62
424.54	2473.95
424.75	2486.23
424.95	2586.58
425.16	2353.12
425.36	2469.85
425.57	2553.82
425.78	2572.25
425.98	2570.20
426.19	2463.71
426.39	2408.41
426.60	2455.51
426.81	2643.93
427.01	2498.52
427.22	2359.26
427.42	2301.92
427.63	2447.32
427.83	2533.34
428.04	2691.03
428.25	2533.34
428.45	2570.20
428.66	2674.65
428.86	2465.75
429.07	2471.90
429.28	2416.60
429.48	2469.85
429.69	2416.60
429.89	2504.67
430.10	2334.68
430.30	2600.92
430.51	2662.36
430.71	2394.08
430.92	2486.23
431.13	2404.32
431.33	2613.21
431.54	2490.33
431.74	2664.41
431.95	2807.77
432.15	2451.42
432.36	2392.03
432.56	2449.37
432.77	2697.17
432.98	2564.06
433.18	2488.28
433.39	2412.51
433.59	2445.27
433.80	2678.74
434.00	2697.17
434.21	2455.51
434.41	2387.93
434.62	2820.05
434.82	2299.87
435.03	2320.35
435.23	2473.95
435.44	2312.16
435.64	2408.41
435.85	2447.32
436.06	2611.16
436.26	2613.21
436.47	2498.52
436.67	2346.97
436.88	2500.57
437.08	2576.34
437.29	2629.59
437.49	2547.67
437.70	2652.12
437.90	2455.51
438.11	2543.58
438.31	2502.62
438.52	2785.24
438.72	2672.60
438.93	2797.53
439.13	2514.91
439.34	2664.41
439.54	2465.75
439.75	2478.04
439.95	2490.33
440.16	2392.03
440.36	2467.80
440.57	2533.34
440.77	2506.71
440.98	2490.33
441.18	2555.86
441.39	2385.88
441.59	2416.60
441.80	2744.28
442.00	2525.15
442.21	2588.63
442.41	2365.40
442.62	2600.92
442.82	2435.03
443.02	2488.28
443.23	2467.80
443.43	2484.19
443.64	2652.12
443.84	2367.45
444.05	2623.45
444.25	2523.10
444.46	2445.27
444.66	2498.52
444.87	2680.79
445.07	2297.82
445.28	2521.05
445.48	2637.78
445.69	2559.96
445.89	2785.24
446.09	2471.90
446.30	2740.18
446.50	3074.00
446.71	4609.98
446.91	5613.48
447.12	6526.88
447.32	7026.58
447.53	6537.12
447.73	5480.36
447.93	4749.24
448.14	4440.00
448.34	4483.00
448.55	3755.97
448.75	3717.06
448.96	3604.42
449.16	3266.51
449.36	3131.34
449.57	2760.66
449.77	2463.71
449.98	2498.52
450.18	2664.41
450.39	2529.24
450.59	2537.43
450.79	2473.95
451.00	2424.80
451.20	2584.54
451.41	2562.01
451.61	2488.28
451.81	2432.99
452.02	2414.56
452.22	2432.99
452.43	2437.08
452.63	2414.56
452.84	2465.75
453.04	2451.42
453.24	2498.52
453.45	2482.14
453.65	2457.56
453.86	2482.14
454.06	2549.72
454.26	2496.47
454.47	2328.54
454.67	2629.59
454.87	2600.92
455.08	2498.52
455.28	2602.97
455.49	2480.09
455.69	2461.66
455.89	2756.57
456.10	2545.63
456.30	2414.56
456.51	2553.82
456.71	2541.53
456.91	2514.91
457.12	2496.47
457.32	2469.85
457.52	2519.00
457.73	2580.44
457.93	2568.15
458.14	2432.99
458.34	2299.87
458.54	2449.37
458.75	2312.16
458.95	2598.87
459.15	2498.52
459.36	2498.52
459.56	2498.52
459.76	2887.64
459.97	2523.10
460.17	2478.04
460.37	2510.81
460.58	2473.95
460.78	2629.59
460.99	2469.85
461.19	2430.94
461.39	2453.47
461.60	2455.51
461.80	2488.28
462.00	2342.88
462.21	2564.06
462.41	2453.47
462.61	2455.51
462.82	2263.01
463.02	2605.02
463.22	2516.95
463.43	2535.39
463.63	2435.03
463.83	2584.54
464.04	2531.29
464.24	2482.14
464.44	2408.41
464.64	2551.77
464.85	2539.48
465.05	2531.29
465.25	2420.70
465.46	2359.26
465.66	2588.63
465.86	2535.39
466.07	2457.56
466.27	2478.04
466.47	2355.16
466.68	2324.44
466.88	2639.83
467.08	2580.44
467.29	2619.35
467.49	2535.39
467.69	2463.71
467.89	2545.63
468.10	2404.32
468.30	2473.95
468.50	2588.63
468.71	2559.96
468.91	2351.07
469.11	2668.50
469.31	2410.46
469.52	2324.44
469.72	2703.32
469.92	2713.56
470.13	2428.89
470.33	2486.23
470.53	2555.86
470.73	2914.26
470.94	3243.98
471.14	3405.77
471.34	3807.17
471.54	3807.17
471.75	3342.28
471.95	3123.15
472.15	3043.28
472.36	2981.84
472.56	2965.46
472.76	2947.03
472.96	2916.31
473.17	2797.53
473.37	2641.88
473.57	2605.02
473.77	2590.68
473.98	2502.62
474.18	2365.40
474.38	2871.25
474.58	2457.56
474.79	2392.03
474.99	2566.10
475.19	2570.20
475.39	2383.84
475.60	2617.30
475.80	2441.18
476.00	2625.50
476.20	2465.75
476.41	2527.19
476.61	2568.15
476.81	2641.88
477.01	2316.25
477.21	2645.98
477.42	2580.44
477.62	2414.56
477.82	2641.88
478.02	2478.04
478.23	2547.67
478.43	2355.16
478.63	2545.63
478.83	2463.71
479.03	2455.51
479.24	2670.55
479.44	2811.86
479.64	2437.08
479.84	2170.85
480.04	2416.60
480.25	2527.19
480.45	2385.88
480.65	2443.23
480.85	2641.88
481.06	2377.69
481.26	2516.95
481.46	2498.52
481.66	2590.68
481.86	2406.36
482.06	2670.55
482.27	2455.51
482.47	2463.71
482.67	2605.02
482.87	2392.03
483.07	2613.21
483.28	2494.43
483.48	2310.11
483.68	2414.56
483.88	2351.07
484.08	2203.61
484.29	2361.31
484.49	2478.04
484.69	2324.44
484.89	2672.60
485.09	2562.01
485.29	2453.47
485.50	2531.29
485.70	2408.41
485.90	2686.94
486.10	2510.81
486.30	2496.47
486.50	2621.40
486.71	2590.68
486.91	2535.39
487.11	2545.63
487.31	2318.30
487.51	2410.46
487.71	2389.98
487.91	2406.36
488.12	2310.11
488.32	2185.18
488.52	2402.27
488.72	2287.58
488.92	2441.18
489.12	2543.58
489.32	2578.39
489.53	2588.63
489.73	2445.27
489.93	2729.94
490.13	2441.18
490.33	2330.59
490.53	2510.81
490.73	2678.74
490.94	2371.55
491.14	2547.67
491.34	2572.25
491.54	2764.76
491.74	3381.20
491.94	4102.08
492.14	4419.52
492.34	4399.04
492.54	4079.55
492.75	3424.20
492.95	3510.22
493.15	3266.51
493.35	3200.98
493.55	2990.03
493.75	2912.21
493.95	3016.66
494.15	2768.85
494.35	2627.54
494.56	2535.39
494.76	2449.37
494.96	2564.06
495.16	2465.75
495.36	2510.81
495.56	2535.39
495.76	2453.47
495.96	2359.26
496.16	2408.41
496.36	2688.98
496.56	2492.38
496.77	2523.10
496.97	2486.23
497.17	2623.45
497.37	2383.84
497.57	2596.82
497.77	2482.14
497.97	2375.64
498.17	2449.37
498.37	2371.55
498.57	2535.39
498.77	2400.22
498.97	2596.82
499.17	2734.04
499.38	2424.80
499.58	2594.78
499.78	2629.59
499.98	2580.44
500.18	2494.43
500.38	2441.18
500.58	2670.55
500.78	3078.10
500.98	5472.17
501.18	7546.76
501.38	9199.48
501.58	10190.69
501.78	9848.68
501.98	8054.66
502.18	6768.54
502.38	5779.37
502.58	5392.30
502.78	4726.71
502.98	4681.66
503.18	4554.68
503.38	4186.05
503.59	3555.27
503.79	3348.43
503.99	3094.48
504.19	3026.90
504.39	3153.87
504.59	3178.45
504.79	3119.06
504.99	3106.77
505.19	2834.39
505.39	2674.65
505.59	2838.48
505.79	2858.96
505.99	2699.22
506.19	2551.77
506.39	2779.09
506.59	2473.95
506.79	2465.75
506.99	2627.54
507.19	2473.95
507.39	2490.33
507.59	2359.26
507.79	2439.13
507.99	2367.45
508.19	2488.28
508.39	2539.48
508.59	2367.45
508.79	2602.97
508.99	2758.61
509.19	2488.28
509.39	2592.73
509.59	2404.32
509.79	2424.80
509.99	2609.11
510.19	2568.15
510.39	2602.97
510.59	2525.15
510.79	2410.46
510.99	2351.07
511.19	2498.52
511.39	2670.55
511.59	2543.58
511.79	2555.86
511.99	2480.09
512.19	2727.89
512.38	2496.47
512.58	2400.22
512.78	2465.75
512.98	2660.31
513.18	2682.84
513.38	2256.86
513.58	2547.67
513.78	2531.29
513.98	2502.62
514.18	2414.56
514.38	2416.60
514.58	2539.48
514.78	2377.69
514.98	2355.16
515.18	2447.32
515.38	2400.22
515.58	2686.94
515.78	2398.17
515.98	2453.47
516.18	2537.43
516.38	2516.95
516.57	2406.36
516.77	2383.84
516.97	2537.43
517.17	2445.27
517.37	2242.53
517.57	2553.82
517.77	2496.47
517.97	2398.17
518.17	2568.15
518.37	2267.10
518.57	2435.03
518.77	2334.68
518.97	2461.66
519.16	2559.96
519.36	2605.02
519.56	2447.32
519.76	2418.65
519.96	2418.65
520.16	2686.94
520.36	2424.80
520.56	2625.50
520.76	2412.51
520.96	2457.56
521.16	2656.22
521.35	2533.34
521.55	2596.82
521.75	2572.25
521.95	2416.60
522.15	2416.60
522.35	2326.49
522.55	2424.80
522.75	2537.43
522.95	2402.27
523.14	2375.64
523.34	2428.89
523.54	2471.90
523.74	2496.47
523.94	2535.39
524.14	2367.45
524.34	2596.82
524.54	2650.07
524.73	2424.80
524.93	2539.48
525.13	2498.52
525.33	2295.77
525.53	2701.27
525.73	2543.58
525.93	2414.56
526.13	2381.79
526.32	2371.55
526.52	2600.92
526.72	2535.39
526.92	2480.09
527.12	2437.08
527.32	2365.40
527.52	2529.24
527.71	2467.80
527.91	2475.99
528.11	2406.36
528.31	2494.43
528.51	2328.54
528.71	2543.58
528.90	2656.22
529.10	2580.44
529.30	2580.44
529.50	2279.39
529.70	2488.28
529.90	2494.43
530.09	2473.95
530.29	2355.16
530.49	2490.33
530.69	2844.63
530.89	2494.43
531.09	2523.10
531.28	2375.64
531.48	2648.02
531.68	2441.18
531.88	2482.14
532.08	2547.67
532.28	2387.93
532.47	2541.53
532.67	2572.25
532.87	2559.96
533.07	2475.99
533.27	2609.11
533.46	2461.66
533.66	2586.58
533.86	2473.95
534.06	2512.86
534.26	2482.14
534.45	2475.99
534.65	2598.87
534.85	2523.10
535.05	2424.80
535.25	2568.15
535.44	2396.12
535.64	2637.78
535.84	2488.28
536.04	2408.41
536.24	2428.89
536.43	2287.58
536.63	2510.81
536.83	2449.37
537.03	2471.90
537.22	2220.00
537.42	2293.72
537.62	2510.81
537.82	2340.83
538.02	2621.40
538.21	2633.69
538.41	2916.31
538.61	2625.50
538.81	2465.75
539.00	2596.82
539.20	2381.79
539.40	2478.04
539.60	2490.33
539.79	2605.02
539.99	2482.14
540.19	2465.75
540.39	2363.36
540.58	2424.80
540.78	2666.46
540.98	2547.67
541.18	2527.19
541.37	2584.54
541.57	2506.71
541.77	2547.67
541.97	2359.26
542.16	2379.74
542.36	2406.36
542.56	2482.14
542.76	2693.08
542.95	2602.97
543.15	2588.63
543.35	2555.86
543.54	2428.89
543.74	2392.03
543.94	2643.93
544.14	2439.13
544.33	2490.33
544.53	2463.71
544.73	2437.08
544.93	2463.71
545.12	2410.46
545.32	2400.22
545.52	2385.88
545.71	2363.36
545.91	2439.13
546.11	2512.86
546.30	2379.74
546.50	2437.08
546.70	2500.57
546.90	2568.15
547.09	2260.96
547.29	2504.67
547.49	2627.54
547.68	2437.08
547.88	2400.22
548.08	2574.30
548.27	2899.92
548.47	2459.61
548.67	2357.21
548.87	2541.53
549.06	2432.99
549.26	2469.85
549.46	2527.19
549.65	2428.89
549.85	2582.49
550.05	2525.15
550.24	2400.22
550.44	2453.47
550.64	2426.84
550.83	2465.75
551.03	2660.31
551.23	2605.02
551.42	2471.90
551.62	2426.84
551.82	2494.43
552.01	2539.48
552.21	2562.01
552.41	2473.95
552.60	2625.50
552.80	2539.48
553.00	2398.17
553.19	2482.14
553.39	2701.27
553.59	2363.36
553.78	2555.86
553.98	2469.85
554.17	2273.25
554.37	2529.24
554.57	2572.25
554.76	2408.41
554.96	2402.27
555.16	2482.14
555.35	2527.19
555.55	2553.82
555.75	2502.62
555.94	2551.77
556.14	2324.44
556.33	2539.48
556.53	2480.09
556.73	2480.09
556.92	2512.86
557.12	2537.43
557.32	2783.19
557.51	2676.70
557.71	2580.44
557.90	2543.58
558.10	2619.35
558.30	2420.70
558.49	2400.22
558.69	2494.43
558.88	2586.58
559.08	2500.57
559.28	2424.80
559.47	2541.53
559.67	2602.97
559.86	2738.13
560.06	2555.86
560.26	2502.62
560.45	2465.75
560.65	2473.95
560.84	2641.88
561.04	2367.45
561.24	2551.77
561.43	2363.36
561.63	2676.70
561.82	2482.14
562.02	2607.06
562.22	2375.64
562.41	2400.22
562.61	2383.84
562.80	2285.53
563.00	2750.42
563.19	2465.75
563.39	2508.76
563.59	2643.93
563.78	2414.56
563.98	2260.96
564.17	2457.56
564.37	2326.49
564.56	2396.12
564.76	2326.49
564.96	2654.17
565.15	2488.28
565.35	2813.91
565.54	2439.13
565.74	2465.75
565.93	2514.91
566.13	2469.85
566.32	2506.71
566.52	2594.78
566.71	2463.71
566.91	2650.07
567.11	2529.24
567.30	2430.94
567.50	2574.30
567.69	2527.19
567.89	2441.18
568.08	2394.08
568.28	2539.48
568.47	2314.20
568.67	2523.10
568.86	2416.60
569.06	2539.48
569.25	2482.14
569.45	2379.74
569.64	2367.45
569.84	2494.43
570.04	2584.54
570.23	2473.95
570.43	2402.27
570.62	2516.95
570.82	2715.61
571.01	2324.44
571.21	2394.08
571.40	2389.98
571.60	2662.36
571.79	2586.58
571.99	2449.37
572.18	2418.65
572.38	2586.58
572.57	2430.94
572.77	2525.15
572.96	2779.09
573.16	2590.68
573.35	2441.18
573.55	2621.40
573.74	2598.87
573.94	2449.37
574.13	2437.08
574.33	2619.35
574.52	2619.35
574.71	2480.09
574.91	2611.16
575.10	2334.68
575.30	2506.71
575.49	2441.18
575.69	2389.98
575.88	2578.39
576.08	2535.39
576.27	2670.55
576.47	2457.56
576.66	2686.94
576.86	2723.80
577.05	2617.30
577.25	2580.44
577.44	2768.85
577.64	2389.98
577.83	2564.06
578.02	2463.71
578.22	2600.92
578.41	2742.23
578.61	2488.28
578.80	2324.44
579.00	2486.23
579.19	2514.91
579.39	2516.95
579.58	2523.10
579.77	2435.03
579.97	2619.35
580.16	2676.70
580.36	2576.34
580.55	2621.40
580.75	2484.19
580.94	2594.78
581.13	2662.36
581.33	2633.69
581.52	2498.52
581.72	2852.82
581.91	2617.30
582.11	2422.75
582.30	2588.63
582.49	2578.39
582.69	2727.89
582.88	2551.77
583.08	2555.86
583.27	2703.32
583.47	2588.63
583.66	2469.85
583.85	2400.22
584.05	2453.47
584.24	2543.58
584.44	2586.58
584.63	2668.50
584.82	2645.98
585.02	2596.82
585.21	2625.50
585.41	2660.31
585.60	2611.16
585.79	2729.94
585.99	2764.76
586.18	2623.45
586.37	3284.94
586.57	4980.66
586.76	14673.70
586.96	34203.13
587.15	47568.17
587.34	56947.87
587.54	61318.23
587.73	55674.03
587.93	39286.18
588.12	29861.43
588.31	23965.33
588.51	20940.48
588.70	19361.50
588.89	17407.73
589.09	15013.66
589.28	12873.53
589.47	10387.30
589.67	8042.37
589.86	6324.13
590.06	4622.27
590.25	3915.72
590.44	3317.71
590.64	2969.55
590.83	2838.48
591.02	2777.05
591.22	2645.98
591.41	2529.24
591.60	2566.10
591.80	2918.36
591.99	2406.36
592.18	2367.45
592.38	2699.22
592.57	2383.84
592.76	2551.77
592.96	2533.34
593.15	2457.56
593.34	2600.92
593.54	2455.51
593.73	2645.98
593.92	2621.40
594.12	2607.06
594.31	2607.06
594.50	2727.89
594.70	2625.50
594.89	2893.78
595.08	2416.60
595.28	2627.54
595.47	3012.56
595.66	2627.54
595.86	2396.12
596.05	2484.19
596.24	2514.91
596.43	2734.04
596.63	2637.78
596.82	2523.10
597.01	2535.39
597.21	2670.55
597.40	2508.76
597.59	2494.43
597.79	2519.00
597.98	2662.36
598.17	2557.91
598.36	2543.58
598.56	2629.59
598.75	2471.90
598.94	2531.29
599.14	2512.86
599.33	2496.47
599.52	2652.12
599.71	2619.35
599.91	2549.72
600.10	2555.86
600.29	2488.28
600.48	2502.62
600.68	2531.29
600.87	2512.86
601.06	2432.99
601.26	2443.23
601.45	2541.53
601.64	2424.80
601.83	2625.50
602.03	2451.42
602.22	2246.62
602.41	2572.25
602.60	2779.09
602.80	2607.06
602.99	2541.53
603.18	2441.18
603.37	2547.67
603.57	2473.95
603.76	2576.34
603.95	2609.11
604.14	2422.75
604.34	2387.93
604.53	2506.71
604.72	2568.15
604.91	2572.25
605.10	2529.24
605.30	2322.40
605.49	2695.13
605.68	2619.35
605.87	2519.00
606.07	2482.14
606.26	2564.06
606.45	2519.00
606.64	2516.95
606.84	2463.71
607.03	2531.29
607.22	2693.08
607.41	2428.89
607.60	2478.04
607.80	2633.69
607.99	2551.77
608.18	2500.57
608.37	2559.96
608.56	2455.51
608.76	2682.84
608.95	2693.08
609.14	2576.34
609.33	2693.08
609.52	2705.37
609.72	2586.58
609.91	2572.25
610.10	2551.77
610.29	2686.94
610.48	2484.19
610.68	2551.77
610.87	2502.62
611.06	2652.12
611.25	2432.99
611.44	2551.77
611.63	2375.64
611.83	2678.74
612.02	2383.84
612.21	2627.54
612.40	2301.92
612.59	2355.16
612.79	2346.97
612.98	2598.87
613.17	2711.51
613.36	2582.49
613.55	2645.98
613.74	2551.77
613.93	2584.54
614.13	2715.61
614.32	2824.15
614.51	2666.46
614.70	2553.82
614.89	2523.10
615.08	2525.15
615.28	2963.41
615.47	2457.56
615.66	2619.35
615.85	2473.95
616.04	2672.60
616.23	2643.93
616.42	2547.67
616.62	2535.39
616.81	2531.29
617.00	2580.44
617.19	2600.92
617.38	2465.75
617.57	2461.66
617.76	2584.54
617.95	2602.97
618.15	2615.26
618.34	2738.13
618.53	2340.83
618.72	2662.36
618.91	2572.25
619.10	2543.58
619.29	2465.75
619.48	2498.52
619.68	2346.97
619.87	2459.61
620.06	2383.84
620.25	2547.67
620.44	2377.69
620.63	2414.56
620.82	2557.91
621.01	2471.90
621.20	2535.39
621.39	2539.48
621.59	2576.34
621.78	2519.00
621.97	2564.06
622.16	2498.52
622.35	2564.06
622.54	2574.30
622.73	2537.43
622.92	2228.19
623.11	2627.54
623.30	2437.08
623.49	2580.44
623.68	2322.40
623.88	2682.84
624.07	2523.10
624.26	2369.50
624.45	2445.27
624.64	2455.51
624.83	2527.19
625.02	2416.60
625.21	2414.56
625.40	2453.47
625.59	2650.07
625.78	2389.98
625.97	2590.68
626.16	2731.99
626.35	2676.70
626.54	2553.82
626.74	2686.94
626.93	2482.14
627.12	2519.00
627.31	2623.45
627.50	2496.47
627.69	2596.82
627.88	2449.37
628.07	2467.80
628.26	2297.82
628.45	2404.32
628.64	2414.56
628.83	2441.18
629.02	2320.35
629.21	2586.58
629.40	2564.06
629.59	2416.60
629.78	2523.10
629.97	2473.95
630.16	2586.58
630.35	2473.95
630.54	2529.24
630.73	2519.00
630.92	2553.82
631.11	2387.93
631.30	2514.91
631.49	2611.16
631.68	2394.08
631.87	2580.44
632.06	2373.60
632.25	2770.90
632.44	2453.47
632.63	2523.10
632.82	2496.47
633.01	2502.62
633.20	2643.93
633.39	2506.71
633.58	2441.18
633.77	2562.01
633.96	2559.96
634.15	2572.25
634.34	2523.10
634.53	2590.68
634.72	2447.32
634.91	2334.68
635.10	2480.09
635.29	2600.92
635.48	2539.48
635.67	2359.26
635.86	2269.15
636.05	2594.78
636.24	2510.81
636.43	2529.24
636.62	2609.11
636.81	2162.66
637.00	2473.95
637.19	2451.42
637.38	2459.61
637.57	2469.85
637.76	2521.05
637.95	2609.11
638.14	2562.01
638.33	2629.59
638.52	2598.87
638.71	2449.37
638.89	2349.02
639.08	2869.20
639.27	2766.81
639.46	2709.46
639.65	3207.12
639.84	3289.04
640.03	3340.24
640.22	3153.87
640.41	3176.40
640.60	2674.65
640.79	2850.77
640.98	2736.09
641.17	2777.05
641.36	2746.33
641.55	2643.93
641.74	2537.43
641.92	2402.27
642.11	2418.65
642.30	2473.95
642.49	2344.92
642.68	2385.88
642.87	2523.10
643.06	2582.49
643.25	2412.51
643.44	2361.31
643.63	2498.52
643.82	2607.06
644.00	2297.82
644.19	2461.66
644.38	2361.31
644.57	2535.39
644.76	2523.10
644.95	2383.84
645.14	2539.48
645.33	2402.27
645.52	2488.28
645.71	2351.07
645.89	2349.02
646.08	2408.41
646.27	2441.18
646.46	2666.46
646.65	2336.73
646.84	2404.32
647.03	2306.01
647.22	2564.06
647.40	2490.33
647.59	2451.42
647.78	2277.34
647.97	2381.79
648.16	2383.84
648.35	2654.17
648.54	2564.06
648.73	2349.02
648.91	2586.58
649.10	2498.52
649.29	2404.32
649.48	2435.03
649.67	2535.39
649.86	2519.00
650.05	2566.10
650.23	2736.09
650.42	2586.58
650.61	2758.61
650.80	2707.41
650.99	2721.75
651.18	2656.22
651.36	2631.64
651.55	2432.99
651.74	2686.94
651.93	2506.71
652.12	2498.52
652.31	2521.05
652.49	2404.32
652.68	2514.91
652.87	2697.17
653.06	2555.86
653.25	2719.70
653.44	2564.06
653.62	2600.92
653.81	2478.04
654.00	2498.52
654.19	2588.63
654.38	2887.64
654.56	2508.76
654.75	2414.56
654.94	2568.15
655.13	2588.63
655.32	2502.62
655.51	2506.71
655.69	2424.80
655.88	2568.15
656.07	2328.54
656.26	2492.38
656.45	2326.49
656.63	2508.76
656.82	2400.22
657.01	2621.40
657.20	2379.74
657.38	2578.39
657.57	2482.14
657.76	2344.92
657.95	2490.33
658.14	2443.23
658.32	2512.86
658.51	2379.74
658.70	2621.40
658.89	2527.19
659.08	2551.77
659.26	2674.65
659.45	2426.84
659.64	2568.15
659.83	2531.29
660.01	2838.48
660.20	2605.02
660.39	2736.09
660.58	2297.82
660.76	2533.34
660.95	2340.83
661.14	2519.00
661.33	2367.45
661.51	2428.89
661.70	2443.23
661.89	2576.34
662.08	2435.03
662.26	2275.29
662.45	2371.55
662.64	2764.76
662.83	2490.33
663.01	2355.16
663.20	2441.18
663.39	2746.33
663.58	2408.41
663.76	2478.04
663.95	2580.44
664.14	2387.93
664.32	2449.37
664.51	2346.97
664.70	2283.49
664.89	2510.81
665.07	2301.92
665.26	2570.20
665.45	2408.41
665.64	2648.02
665.82	2435.03
666.01	2543.58
666.20	2389.98
666.38	2619.35
666.57	2609.11
666.76	3938.24
666.95	9561.97
667.13	17633.01
667.32	22509.22
667.51	26099.31
667.69	27426.40
667.88	24479.37
668.07	17291.00
668.25	14176.04
668.44	11896.65
668.63	10293.09
668.81	8853.37
669.00	7927.69
669.19	7126.93
669.38	6119.33
669.56	5300.14
669.75	4429.76
669.94	3676.10
670.12	3114.96
670.31	2934.74
670.50	2846.68
670.68	2719.70
670.87	2535.39
671.06	2529.24
671.24	2662.36
671.43	2717.65
671.62	2547.67
671.80	2465.75
671.99	2576.34
672.18	2535.39
672.36	2633.69
672.55	2531.29
672.74	2400.22
672.92	2492.38
673.11	2582.49
673.29	2301.92
673.48	2574.30
673.67	2488.28
673.85	2641.88
674.04	2416.60
674.23	2500.57
674.41	2697.17
674.60	2326.49
674.79	2318.30
674.97	2396.12
675.16	2545.63
675.34	2643.93
675.53	2332.64
675.72	2523.10
675.90	2721.75
676.09	2451.42
676.28	2482.14
676.46	2322.40
676.65	2613.21
676.83	2455.51
677.02	2449.37
677.21	2527.19
677.39	2529.24
677.58	2457.56
677.77	2555.86
677.95	2375.64
678.14	2443.23
678.32	2471.90
678.51	2389.98
678.70	2609.11
678.88	2494.43
679.07	2473.95
679.25	2430.94
679.44	2449.37
679.63	2293.72
679.81	2482.14
680.00	2613.21
680.18	2576.34
680.37	2674.65
680.55	2592.73
680.74	2310.11
680.93	2211.81
681.11	2465.75
681.30	2484.19
681.48	2607.06
681.67	2418.65
681.85	2467.80
682.04	2373.60
682.23	2482.14
682.41	2457.56
682.60	2506.71
682.78	2496.47
682.97	2359.26
683.15	2465.75
683.34	2535.39
683.53	2691.03
683.71	2273.25
683.90	2660.31
684.08	2725.85
684.27	2342.88
684.45	2486.23
684.64	2588.63
684.82	2521.05
685.01	2539.48
685.19	2453.47
685.38	2596.82
685.57	2469.85
685.75	2387.93
685.94	2441.18
686.12	2420.70
686.31	2441.18
686.49	2678.74
686.68	2285.53
686.86	2469.85
687.05	2480.09
687.23	2672.60
687.42	2412.51
687.60	2271.20
687.79	2611.16
687.97	2580.44
688.16	2572.25
688.34	2650.07
688.53	2310.11
688.71	2473.95
688.90	2553.82
689.08	2443.23
689.27	2308.06
689.45	2545.63
689.64	2547.67
689.82	2504.67
690.01	2553.82
690.19	2549.72
690.38	2392.03
690.56	2570.20
690.75	2355.16
690.93	2432.99
691.12	2400.22
691.30	2482.14
691.49	2355.16
691.67	2486.23
691.86	2707.41
692.04	2416.60
692.23	2555.86
692.41	2486.23
692.60	2818.00
692.78	2619.35
692.97	2596.82
693.15	2602.97
693.34	2596.82
693.52	2645.98
693.71	2461.66
693.89	2463.71
694.08	2236.38
694.26	2564.06
694.44	2584.54
694.63	2453.47
694.81	2318.30
695.00	2394.08
695.18	2662.36
695.37	2875.35
695.55	2514.91
695.74	2527.19
695.92	2392.03
696.10	2639.83
696.29	2301.92
696.47	2363.36
696.66	2310.11
696.84	2291.68
697.03	2490.33
697.21	2688.98
697.40	3751.88
697.58	2740.18
697.76	2379.74
697.95	2412.51
698.13	2432.99
698.32	2494.43
698.50	2521.05
698.68	2498.52
698.87	2473.95
699.05	2664.41
699.24	2506.71
699.42	2285.53
699.61	2422.75
699.79	2596.82
699.97	2564.06
700.16	2392.03
700.34	2353.12
700.53	2506.71
700.71	2666.46
700.89	2629.59
701.08	2486.23
701.26	2537.43
701.45	2979.79
701.63	2353.12
701.81	2385.88
702.00	2392.03
702.18	2488.28
702.37	2498.52
702.55	2670.55
702.73	2709.46
702.92	2590.68
703.10	2856.92
703.28	2758.61
703.47	2588.63
703.65	2723.80
703.84	2648.02
704.02	2480.09
704.20	2695.13
704.39	2523.10
704.57	2490.33
704.75	2639.83
704.94	2643.93
705.12	2490.33
705.30	2922.45
705.49	5521.32
705.67	12613.44
705.86	20645.57
706.04	23985.81
706.22	26877.54
706.41	27692.63
706.59	22644.39
706.77	16287.50
706.96	13942.57
707.14	12293.96
707.32	10641.25
707.51	9240.44
707.69	7483.28
707.87	6082.47
708.06	5001.14
708.24	4091.84
708.42	3444.68
708.61	3299.28
708.79	2682.84
708.97	2725.85
709.16	2645.98
709.34	2557.91
709.52	2506.71
709.71	2441.18
709.89	2568.15
710.07	2435.03
710.26	2400.22
710.44	2516.95
710.62	2545.63
710.80	2412.51
710.99	2529.24
711.17	2572.25
711.35	2359.26
711.54	2387.93
711.72	2643.93
711.90	2566.10
712.09	2529.24
712.27	2371.55
712.45	2428.89
712.63	2461.66
712.82	2525.15
713.00	2514.91
713.18	2529.24
713.37	2525.15
713.55	2572.25
713.73	2562.01
713.91	2559.96
714.10	2443.23
714.28	2510.81
714.46	2496.47
714.65	2471.90
714.83	2564.06
715.01	2496.47
715.19	2562.01
715.38	2416.60
715.56	2535.39
715.74	2435.03
715.92	2373.60
716.11	2609.11
716.29	2340.83
716.47	2496.47
716.65	2484.19
716.84	2340.83
717.02	2617.30
717.20	2267.10
717.38	2435.03
717.57	2482.14
717.75	2492.38
717.93	2430.94
718.11	2572.25
718.30	2359.26
718.48	2461.66
718.66	2631.64
718.84	2686.94
719.03	2414.56
719.21	2324.44
719.39	2680.79
719.57	2551.77
719.75	2588.63
719.94	2394.08
720.12	2402.27
720.30	2523.10
720.48	2580.44
720.67	2500.57
720.85	2410.46
721.03	2346.97
721.21	2445.27
721.39	2621.40
721.58	2592.73
721.76	2416.60
721.94	2508.76
722.12	2484.19
722.30	2578.39
722.49	2443.23
722.67	2539.48
722.85	2557.91
723.03	2277.34
723.21	2480.09
723.40	2541.53
723.58	2570.20
723.76	2539.48
723.94	2643.93
724.12	2455.51
724.30	2654.17
724.49	2695.13
724.67	2412.51
724.85	2580.44
725.03	2318.30
725.21	2533.34
725.40	2693.08
725.58	2441.18
725.76	2652.12
725.94	2562.01
726.12	2400.22
726.30	2449.37
726.49	2451.42
726.67	2449.37
726.85	2588.63
727.03	2940.88
727.21	4161.47
727.39	5767.08
727.57	6629.27
727.76	7188.37
727.94	7534.48
728.12	7034.77
728.30	5496.75
728.48	4958.13
728.66	4464.57
728.84	3962.82
729.03	3569.61
729.21	3264.46
729.39	2983.89
729.57	2695.13
729.75	2592.73
729.93	2641.88
730.11	2471.90
730.30	2498.52
730.48	2504.67
730.66	2635.74
730.84	2605.02
731.02	2555.86
731.20	2357.21
731.38	2506.71
731.56	2359.26
731.74	2375.64
731.93	2508.76
732.11	2437.08
732.29	2402.27
732.47	2521.05
732.65	2457.56
732.83	2596.82
733.01	2564.06
733.19	2445.27
733.37	2625.50
733.56	2494.43
733.74	2389.98
733.92	2709.46
734.10	2404.32
734.28	2570.20
734.46	2334.68
734.64	2508.76
734.82	2465.75
735.00	2441.18
735.18	2437.08
735.36	2523.10
735.54	2494.43
735.73	2455.51
735.91	2506.71
736.09	2586.58
736.27	2459.61
736.45	2543.58
736.63	2263.01
736.81	2383.84
736.99	2619.35
737.17	2584.54
737.35	2412.51
737.53	2592.73
737.71	2426.84
737.89	2660.31
738.07	2404.32
738.25	2365.40
738.43	2367.45
738.61	2367.45
738.80	2275.29
738.98	2389.98
739.16	2449.37
739.34	2342.88
739.52	2662.36
739.70	2459.61
739.88	2576.34
740.06	2609.11
740.24	2334.68
740.42	2557.91
740.60	2252.77
740.78	2441.18
740.96	2318.30
741.14	2490.33
741.32	2471.90
741.50	2275.29
741.68	2770.90
741.86	2582.49
742.04	2400.22
742.22	2326.49
742.40	2447.32
742.58	2557.91
742.76	2359.26
742.94	2559.96
743.12	2265.05
743.30	2553.82
743.48	2506.71
743.66	2406.36
743.84	2547.67
744.02	2455.51
744.20	2414.56
744.38	2432.99
744.56	2357.21
744.74	2824.15
744.92	2498.52
745.10	2693.08
745.28	2508.76
745.46	2648.02
745.64	2437.08
745.82	2494.43
746.00	2439.13
746.18	2498.52
746.36	2383.84
746.54	2488.28
746.72	2471.90
746.90	2373.60
747.08	2705.37
747.26	2400.22
747.44	2645.98
747.62	2527.19
747.80	2547.67
747.98	2703.32
748.15	2451.42
748.33	2768.85
748.51	2498.52
748.69	2496.47
748.87	2359.26
749.05	2512.86
749.23	2404.32
749.41	2469.85
749.59	2398.17
749.77	2545.63
749.95	2494.43
750.13	2430.94
750.31	2553.82
750.49	2498.52
750.67	2602.97
750.85	2605.02
751.03	2445.27
751.20	2691.03
751.38	2527.19
751.56	2486.23
751.74	2533.34
751.92	2529.24
752.10	2312.16
752.28	2553.82
752.46	2383.84
752.64	2523.10
752.82	2504.67
753.00	2592.73
753.18	2392.03
753.35	2392.03
753.53	2465.75
753.71	2373.60
753.89	2531.29
754.07	2494.43
754.25	2605.02
754.43	2482.14
754.61	2334.68
754.79	2619.35
754.97	2519.00
755.14	2652.12
755.32	2314.20
755.50	2465.75
755.68	2576.34
755.86	2416.60
756.04	2426.84
756.22	2326.49
756.40	2600.92
756.57	2658.26
756.75	2457.56
756.93	2564.06
757.11	2633.69
757.29	2318.30
757.47	2383.84
757.65	2299.87
757.82	2211.81
758.00	2361.31
758.18	2389.98
758.36	2420.70
758.54	2734.04
758.72	2310.11
758.90	2572.25
759.07	2537.43
759.25	2404.32
759.43	2504.67
759.61	2338.78
759.79	3547.08
759.97	2605.02
760.15	2396.12
760.32	2385.88
760.50	2408.41
760.68	2619.35
760.86	2359.26
761.04	2621.40
761.22	2504.67
761.39	2449.37
761.57	2498.52
761.75	2432.99
761.93	2602.97
762.11	2529.24
762.28	2451.42
762.46	2279.39
762.64	2650.07
762.82	2287.58
763.00	2441.18
763.18	2705.37
763.35	2285.53
763.53	2512.86
763.71	2482.14
763.89	2519.00
764.07	2441.18
764.24	2490.33
764.42	2543.58
764.60	2492.38
764.78	2525.15
764.96	2629.59
765.13	2559.96
765.31	2400.22
765.49	2578.39
765.67	2416.60
765.84	2363.36
766.02	2344.92
766.20	2338.78
766.38	2455.51
766.56	2549.72
766.73	2539.48
766.91	2465.75
767.09	2533.34
767.27	2570.20
767.44	2389.98
767.62	2596.82
767.80	2508.76
767.98	2469.85
768.15	2449.37
768.33	2629.59
768.51	2652.12
768.69	2572.25
768.87	2480.09
769.04	2533.34
769.22	2715.61
769.40	2578.39
769.58	2621.40
769.75	2471.90
769.93	2605.02
770.11	2461.66
770.28	2396.12
770.46	2547.67
770.64	2488.28
770.82	2426.84
770.99	2402.27
771.17	2551.77
771.35	2420.70
771.53	2480.09
771.70	2461.66
771.88	2490.33
772.06	2516.95
772.23	2500.57
772.41	2496.47
772.59	2424.80
772.77	2299.87
772.94	2478.04
773.12	2418.65
773.30	2408.41
773.47	2449.37
773.65	2367.45
773.83	2629.59
774.01	2471.90
774.18	2224.09
774.36	2453.47
774.54	2351.07
774.71	2465.75
774.89	2322.40
775.07	2365.40
775.24	2383.84
775.42	2416.60
775.60	2717.65
775.78	2416.60
775.95	2346.97
776.13	2287.58
776.31	2240.48
776.48	2584.54
776.66	2566.10
776.84	2533.34
777.01	2389.98
777.19	2394.08
777.37	2355.16
777.54	2594.78
777.72	2719.70
777.90	2496.47
778.07	2373.60
778.25	2818.00
778.43	2621.40
778.60	2387.93
778.78	2547.67
778.96	2670.55
779.13	2449.37
779.31	2508.76
779.49	2473.95
779.66	2461.66
779.84	2457.56
780.01	2367.45
780.19	2357.21
780.37	2613.21
780.54	2521.05
780.72	2342.88
780.90	2381.79
781.07	2475.99
781.25	2367.45
781.43	2605.02
781.60	2463.71
781.78	2627.54
781.95	2504.67
782.13	2418.65
782.31	2394.08
782.48	2258.91
782.66	2428.89
782.83	2627.54
783.01	2523.10
783.19	2598.87
783.36	2512.86
783.54	2359.26
783.72	2535.39
783.89	2441.18
784.07	2504.67
784.24	2553.82
784.42	2629.59
784.60	2504.67
784.77	2478.04
784.95	2226.14
785.12	2451.42
785.30	2510.81
785.47	2291.68
785.65	2318.30
785.83	2383.84
786.00	2461.66
786.18	2553.82
786.35	2275.29
786.53	2330.59
786.71	2594.78
786.88	2506.71
787.06	2482.14
787.23	2430.94
787.41	2306.01
787.58	2588.63
787.76	2430.94
787.94	2392.03
788.11	2539.48
788.29	2367.45
788.46	2394.08
788.64	2322.40
788.81	2363.36
788.99	2371.55
789.16	2377.69
789.34	2424.80
789.52	2396.12
789.69	2424.80
789.87	2246.62
790.04	2365.40
790.22	2418.65
790.39	2736.09
790.57	2367.45
790.74	2420.70
790.92	2654.17
791.09	2359.26
791.27	2572.25
791.44	2596.82
791.62	2467.80
791.79	2572.25
791.97	2529.24
792.15	2772.95
792.32	2527.19
792.50	2568.15
792.67	2693.08
792.85	2605.02
793.02	2547.67
793.20	2414.56
793.37	2281.44
793.55	2459.61
793.72	2322.40
793.90	2609.11
794.07	2408.41
794.25	2367.45
794.42	2465.75
794.60	2471.90
794.77	2432.99
794.95	2570.20
795.12	2539.48
795.30	2441.18
795.47	2258.91
795.65	2760.66
795.82	2512.86
796.00	2328.54
796.17	2523.10
796.34	2453.47
796.52	2478.04
796.69	2572.25
796.87	2488.28
797.04	2519.00
797.22	2594.78
797.39	2486.23
797.57	2535.39
797.74	2521.05
797.92	2514.91
798.09	2410.46
798.27	2633.69
798.44	2383.84
798.62	2351.07
798.79	2521.05
798.96	2400.22
799.14	2473.95
799.31	2779.09
799.49	2512.86
799.66	2400.22
799.84	2365.40
800.01	2277.34
800.19	2422.75
800.36	2222.05
800.53	2521.05
800.71	2609.11
800.88	2629.59
801.06	2430.94
801.23	2398.17
801.41	2490.33
801.58	2416.60
801.75	2344.92
801.93	2400.22
802.10	2580.44
802.28	2432.99
802.45	2398.17
802.63	2498.52
802.80	2660.31
802.97	2351.07
803.15	2566.10
803.32	2445.27
803.50	2426.84
803.67	2461.66
803.84	2359.26
804.02	2531.29
804.19	2385.88
804.37	2185.18
804.54	2324.44
804.71	2461.66
804.89	2496.47
805.06	2375.64
805.24	2357.21
805.41	2312.16
805.58	2439.13
805.76	2703.32
805.93	2471.90
806.10	2594.78
806.28	2506.71
806.45	2500.57
806.63	2523.10
806.80	2512.86
806.97	2602.97
807.15	2529.24
807.32	2459.61
807.49	2449.37
807.67	2353.12
807.84	2516.95
808.01	2285.53
808.19	2682.84
808.36	2756.57
808.54	2385.88
808.71	2375.64
808.88	2523.10
809.06	2600.92
809.23	2668.50
809.40	2322.40
809.58	2490.33
809.75	2459.61
809.92	2336.73
810.10	2719.70
810.27	2416.60
810.44	2516.95
810.62	2486.23
810.79	2568.15
810.96	2359.26
811.14	2418.65
811.31	2578.39
811.48	2574.30
811.66	2471.90
811.83	2553.82
812.00	2547.67
812.18	2432.99
812.35	2674.65
812.52	2387.93
812.69	2488.28
812.87	2400.22
813.04	2334.68
813.21	2471.90
813.39	2385.88
813.56	2359.26
813.73	2631.64
813.91	2314.20
814.08	2545.63
814.25	2514.91
814.42	2312.16
814.60	2465.75
814.77	2523.10
814.94	2502.62
815.12	2512.86
815.29	2639.83
815.46	2508.76
815.63	2514.91
815.81	2394.08
815.98	2398.17
816.15	2396.12
816.33	2504.67
816.50	2451.42
816.67	2424.80
816.84	2408.41
817.02	2324.44
817.19	2473.95
817.36	2469.85
817.53	2531.29
817.71	2392.03
817.88	2498.52
818.05	2451.42
818.22	2441.18
818.40	2547.67
818.57	2435.03
818.74	2500.57
818.91	2453.47
819.09	2492.38
819.26	2541.53
819.43	2389.98
819.60	2338.78
819.78	2531.29
819.95	2602.97
820.12	2373.60
820.29	2682.84
820.47	2596.82
820.64	2285.53
820.81	2279.39
820.98	2373.60
821.15	2445.27
821.33	2555.86
821.50	2312.16
821.67	2523.10
821.84	2400.22
822.02	2471.90
822.19	2645.98
822.36	2435.03
822.53	2389.98
822.70	2269.15
822.88	2461.66
823.05	2674.65
823.22	2426.84
823.39	2510.81
823.56	2455.51
823.74	2731.99
823.91	2459.61
824.08	2383.84
824.25	2342.88
824.42	2682.84
824.60	2275.29
824.77	2516.95
824.94	2494.43
825.11	2543.58
825.28	2275.29
825.45	2392.03
825.63	2441.18
825.80	2437.08
825.97	2545.63
826.14	2506.71
826.31	2226.14
826.48	2525.15
826.66	2424.80
826.83	2342.88
827.00	2469.85
827.17	2426.84
827.34	2396.12
827.51	2408.41
827.69	2510.81
827.86	2308.06
828.03	2416.60
828.20	2478.04
828.37	2357.21
828.54	2529.24
828.71	2371.55
828.89	2564.06
829.06	2564.06
829.23	2635.74
829.40	2414.56
829.57	2445.27
829.74	2535.39
829.91	2351.07
830.09	2396.12
830.26	2564.06
830.43	2693.08
830.60	2453.47
830.77	2545.63
830.94	2580.44
831.11	2590.68
831.28	2404.32
831.46	2555.86
831.63	2383.84
831.80	2576.34
831.97	2430.94
832.14	2400.22
832.31	2551.77
832.48	2445.27
832.65	2613.21
832.82	2498.52
832.99	2473.95
833.17	2375.64
833.34	2645.98
833.51	2602.97
833.68	2242.53
833.85	2559.96
834.02	2435.03
834.19	2318.30
834.36	2371.55
834.53	2527.19
834.70	2582.49
834.87	2559.96
835.04	2398.17
835.22	2498.52
835.39	2439.13
835.56	2338.78
835.73	2373.60
835.90	2654.17
836.07	2369.50
836.24	2498.52
836.41	2387.93
836.58	2342.88
836.75	2605.02
836.92	2432.99
837.09	2346.97
837.26	2598.87
837.43	2533.34
837.60	2439.13
837.77	2385.88
837.94	2586.58
838.12	2645.98
838.29	2408.41
838.46	2322.40
838.63	2381.79
838.80	2621.40
838.97	2469.85
839.14	2410.46
839.31	2455.51
839.48	2566.10
839.65	2396.12
839.82	2508.76
839.99	2572.25
840.16	2531.29
840.33	2334.68
840.50	2402.27
840.67	2375.64
840.84	2166.75
841.01	2346.97
841.18	2351.07
841.35	2441.18
841.52	2514.91
841.69	2772.95
841.86	2443.23
842.03	2457.56
842.20	2535.39
842.37	2424.80
842.54	2363.36
842.71	2537.43
842.88	2279.39
843.05	2406.36
843.22	2353.12
843.39	2490.33
843.56	2426.84
843.73	2357.21
843.90	2498.52
844.07	2400.22
844.24	2576.34
844.41	2441.18
844.58	2396.12
844.75	2490.33
844.92	2492.38
845.09	2416.60
845.26	2314.20
845.43	2508.76
845.60	2416.60
845.77	2463.71
845.94	2490.33
846.10	2594.78
846.27	2299.87
846.44	2217.95
846.61	2244.57
846.78	2576.34
846.95	2633.69
847.12	2318.30
847.29	2316.25
847.46	2334.68
847.63	2584.54
847.80	2349.02
847.97	2334.68
848.14	2686.94
848.31	2439.13
848.48	2306.01
848.65	2418.65
848.82	2375.64
848.98	2766.81
849.15	2451.42
849.32	2533.34
849.49	2582.49
849.66	2504.67
849.83	2406.36
850.00	2334.68
850.17	2568.15
850.34	2471.90
850.51	2318.30
850.68	2320.35
850.85	2717.65
851.01	2553.82
851.18	2437.08
851.35	2385.88
851.52	2519.00
851.69	2645.98
851.86	2240.48
852.03	2369.50
852.20	2588.63
852.37	2490.33
852.53	2226.14
852.70	2330.59
852.87	2500.57
853.04	2600.92
853.21	2334.68
853.38	2523.10
853.55	2637.78
853.72	2600.92
853.89	2293.72
854.05	2310.11
854.22	2422.75
854.39	2525.15
854.56	2379.74
854.73	2523.10
854.90	2342.88
855.07	2545.63
855.23	2340.83
855.40	2334.68
855.57	2449.37
855.74	2209.76
855.91	2613.21
856.08	2201.57
856.25	2314.20
856.41	2396.12
856.58	2420.70
856.75	2418.65
856.92	2359.26
857.09	2588.63
857.26	2203.61
857.42	2424.80
857.59	2572.25
857.76	2361.31
857.93	2363.36
858.10	2392.03
858.27	2363.36
858.43	2519.00
858.60	2295.77
858.77	2234.33
858.94	2359.26
859.11	2596.82
859.27	2432.99
859.44	2306.01
859.61	2727.89
859.78	2645.98
859.95	2316.25
860.12	2381.79
860.28	2820.05
860.45	2742.23
860.62	2400.22
860.79	2441.18
860.95	2498.52
861.12	2408.41
861.29	2408.41
861.46	2445.27
861.63	2457.56
861.79	2482.14
861.96	2346.97
862.13	2330.59
862.30	2652.12
862.47	2359.26
862.63	2310.11
862.80	2432.99
862.97	2564.06
863.14	2512.86
863.30	2430.94
863.47	2408.41
863.64	2662.36
863.81	2539.48
863.97	2263.01
864.14	2295.77
864.31	2410.46
864.48	2510.81
864.65	2338.78
864.81	2449.37
864.98	2572.25
865.15	2592.73
865.32	2445.27
865.48	2543.58
865.65	2666.46
865.82	2451.42
865.98	2441.18
866.15	2488.28
866.32	2486.23
866.49	2465.75
866.65	2562.01
866.82	2400.22
866.99	2523.10
867.16	2408.41
867.32	2299.87
867.49	2351.07
867.66	2455.51
867.83	2402.27
867.99	2277.34
868.16	2422.75
868.33	2375.64
868.49	2428.89
868.66	2349.02
868.83	2514.91
868.99	2539.48
869.16	2512.86
869.33	2478.04
869.50	2478.04
869.66	2490.33
869.83	2437.08
870.00	2232.29
870.16	2523.10
870.33	2392.03
870.50	2578.39
870.66	2441.18
870.83	2564.06
871.00	2445.27
871.17	2455.51
871.33	2422.75
871.50	2306.01
871.67	2441.18
871.83	2459.61
872.00	2572.25
872.17	2392.03
872.33	2705.37
872.50	2631.64
872.67	2410.46
872.83	2299.87
873.00	2516.95
873.17	2498.52
873.33	2453.47
873.50	2500.57
873.67	2402.27
873.83	2342.88
874.00	2404.32
874.16	2451.42
874.33	2504.67
874.50	2334.68
874.66	2330.59
874.83	2392.03
875.00	2645.98
875.16	2602.97
875.33	2508.76
875.50	2215.90
875.66	2443.23
875.83	2551.77
875.99	2449.37
876.16	2453.47
876.33	2402.27
876.49	2435.03
876.66	2430.94
876.83	2443.23
876.99	2220.00
877.16	2484.19
877.32	2330.59
877.49	2367.45
877.66	2521.05
877.82	2615.26
877.99	2424.80
878.15	2580.44
878.32	2551.77
878.49	2482.14
878.65	2394.08
878.82	2566.10
878.98	2371.55
879.15	2670.55
879.32	2510.81
879.48	2428.89
879.65	2441.18
879.81	2473.95
879.98	2379.74
880.15	2377.69
880.31	2555.86
880.48	2312.16
880.64	2465.75
880.81	2439.13
880.97	2731.99
881.14	2648.02
881.31	2295.77
881.47	2580.44
881.64	2402.27
881.80	2291.68
881.97	2482.14
882.13	2365.40
882.30	2355.16
882.47	2443.23
882.63	2398.17
882.80	2326.49
882.96	2387.93
883.13	2643.93
883.29	2412.51
883.46	2441.18
883.62	2758.61
883.79	2471.90
883.95	2490.33
884.12	2426.84
884.29	2680.79
884.45	2529.24
884.62	2430.94
884.78	2418.65
884.95	2645.98
885.11	2373.60
885.28	2418.65
885.44	2373.60
885.61	2482.14
885.77	2682.84
885.94	2473.95
886.10	2424.80
886.27	2535.39
886.43	2711.51
886.60	2605.02
886.76	2357.21
886.93	2322.40
887.09	2510.81
887.26	2273.25
887.42	2455.51
887.59	2637.78
887.75	2842.58
887.92	2471.90
888.08	2519.00
888.25	2654.17
888.41	2539.48
888.58	2406.36
888.74	2355.16
888.91	2392.03
>>>>>End Processed Spectral Data<<<<<
