SpectraSuite Data File
++++++++++++++++++++++++++++++++++++
Date: Thu May 05 14:41:56 CEST 2016
User: root
Dark Spectrum Present: No
Reference Spectrum Present: No
Number of Sampled Component Spectra: 1
Spectrometers: USB4C02835
Integration Time (usec): 100000 (USB4C02835)
Spectra Averaged: 1 (USB4C02835)
Boxcar Smoothing: 0 (USB4C02835)
Correct for Electrical Dark: No (USB4C02835)
Strobe/Lamp Enabled: No (USB4C02835)
Correct for Detector Non-linearity: No (USB4C02835)
Correct for Stray Light: No (USB4C02835)
Number of Pixels in Processed Spectrum: 3648
>>>>>Begin Processed Spectral Data<<<<<
177.47	1912.80
177.69	1912.80
177.91	1912.80
178.13	1920.99
178.36	1892.32
178.58	2383.84
178.80	2514.91
179.02	2226.14
179.24	2392.03
179.46	2269.15
179.68	2371.55
179.90	2389.98
180.13	2490.33
180.35	2351.07
180.57	2244.57
180.79	2582.49
181.01	2424.80
181.23	2447.32
181.45	2500.57
181.67	2590.68
181.90	2658.26
182.12	2416.60
182.34	2215.90
182.56	2580.44
182.78	2547.67
183.00	2340.83
183.22	2375.64
183.44	2328.54
183.66	2789.33
183.89	2416.60
184.11	2371.55
184.33	2500.57
184.55	2586.58
184.77	2310.11
184.99	2400.22
185.21	2482.14
185.43	2752.47
185.65	2357.21
185.87	2326.49
186.10	2781.14
186.32	2856.92
186.54	2457.56
186.76	2435.03
186.98	2611.16
187.20	2471.90
187.42	2385.88
187.64	2336.73
187.86	2445.27
188.08	2686.94
188.30	2191.33
188.52	2330.59
188.75	2678.74
188.97	2637.78
189.19	2379.74
189.41	2365.40
189.63	2580.44
189.85	2432.99
190.07	2273.25
190.29	2318.30
190.51	2586.58
190.73	2269.15
190.95	2494.43
191.17	2404.32
191.39	2316.25
191.61	2457.56
191.84	2332.64
192.06	2447.32
192.28	2299.87
192.50	2856.92
192.72	2373.60
192.94	2416.60
193.16	2598.87
193.38	2570.20
193.60	2269.15
193.82	2359.26
194.04	2666.46
194.26	2482.14
194.48	2432.99
194.70	2338.78
194.92	2389.98
195.14	2670.55
195.36	2252.77
195.58	2471.90
195.80	2416.60
196.02	2340.83
196.24	2328.54
196.46	2414.56
196.69	2449.37
196.91	2785.24
197.13	2338.78
197.35	2357.21
197.57	2674.65
197.79	2521.05
198.01	2406.36
198.23	2404.32
198.45	2545.63
198.67	2295.77
198.89	2258.91
199.11	2465.75
199.33	2351.07
199.55	2248.67
199.77	2314.20
199.99	2437.08
200.21	2404.32
200.43	2404.32
200.65	2260.96
200.87	2179.04
201.09	2455.51
201.31	2461.66
201.53	2359.26
201.75	2473.95
201.97	2467.80
202.19	2469.85
202.41	2346.97
202.63	2496.47
202.85	2557.91
203.07	2494.43
203.29	2351.07
203.51	2285.53
203.73	2351.07
203.95	2764.76
204.17	2322.40
204.39	2422.75
204.61	2490.33
204.83	2416.60
205.05	2435.03
205.27	2342.88
205.49	2740.18
205.71	2441.18
205.93	2213.85
206.15	2279.39
206.37	2492.38
206.59	2553.82
206.81	2267.10
207.03	2281.44
207.25	2375.64
207.47	2570.20
207.69	2389.98
207.91	2605.02
208.13	2715.61
208.34	2418.65
208.56	2199.52
208.78	2338.78
209.00	2424.80
209.22	2426.84
209.44	2383.84
209.66	2299.87
209.88	2482.14
210.10	2455.51
210.32	2283.49
210.54	2455.51
210.76	2506.71
210.98	2629.59
211.20	2199.52
211.42	2480.09
211.64	2586.58
211.86	2572.25
212.08	2402.27
212.30	2387.93
212.52	2531.29
212.74	2500.57
212.96	2338.78
213.17	2478.04
213.39	2586.58
213.61	2621.40
213.83	2330.59
214.05	2342.88
214.27	2578.39
214.49	2381.79
214.71	2326.49
214.93	2461.66
215.15	2457.56
215.37	2609.11
215.59	2244.57
215.81	2414.56
216.03	2703.32
216.24	2512.86
216.46	2326.49
216.68	2402.27
216.90	2582.49
217.12	2600.92
217.34	2318.30
217.56	2488.28
217.78	2645.98
218.00	2521.05
218.22	2445.27
218.44	2420.70
218.66	2562.01
218.87	2713.56
219.09	2428.89
219.31	2293.72
219.53	2488.28
219.75	2443.23
219.97	2326.49
220.19	2353.12
220.41	2441.18
220.63	2668.50
220.85	2412.51
221.06	2373.60
221.28	2693.08
221.50	2650.07
221.72	2310.11
221.94	2265.05
222.16	2519.00
222.38	2564.06
222.60	2269.15
222.82	2400.22
223.03	2621.40
223.25	2402.27
223.47	2406.36
223.69	2537.43
223.91	2494.43
224.13	2510.81
224.35	2220.00
224.57	2428.89
224.78	2570.20
225.00	2379.74
225.22	2400.22
225.44	2334.68
225.66	2564.06
225.88	2465.75
226.10	2389.98
226.32	2344.92
226.53	2662.36
226.75	2445.27
226.97	2375.64
227.19	2428.89
227.41	2375.64
227.63	2445.27
227.85	2217.95
228.06	2365.40
228.28	2496.47
228.50	2576.34
228.72	2191.33
228.94	2359.26
229.16	2273.25
229.37	2381.79
229.59	2351.07
229.81	2570.20
230.03	2473.95
230.25	2389.98
230.47	2205.66
230.69	2308.06
230.90	2545.63
231.12	2383.84
231.34	2400.22
231.56	2463.71
231.78	2361.31
232.00	2572.25
232.21	2297.82
232.43	2392.03
232.65	2236.38
232.87	2537.43
233.09	2318.30
233.30	2265.05
233.52	2645.98
233.74	2490.33
233.96	2338.78
234.18	2385.88
234.40	2373.60
234.61	2789.33
234.83	2271.20
235.05	2308.06
235.27	2846.68
235.49	2566.10
235.70	2275.29
235.92	2443.23
236.14	2555.86
236.36	2723.80
236.58	2244.57
236.79	2441.18
237.01	2406.36
237.23	2414.56
237.45	2461.66
237.67	2338.78
237.88	2469.85
238.10	2658.26
238.32	2197.47
238.54	2377.69
238.76	2443.23
238.97	2291.68
239.19	2342.88
239.41	2451.42
239.63	2596.82
239.85	2453.47
240.06	2414.56
240.28	2312.16
240.50	2621.40
240.72	2469.85
240.93	2322.40
241.15	2482.14
241.37	2451.42
241.59	2643.93
241.81	2330.59
242.02	2359.26
242.24	2504.67
242.46	2670.55
242.68	2297.82
242.89	2306.01
243.11	2582.49
243.33	2490.33
243.55	2344.92
243.76	2404.32
243.98	2465.75
244.20	2504.67
244.42	2357.21
244.64	2367.45
244.85	2332.64
245.07	2371.55
245.29	2383.84
245.51	2420.70
245.72	2535.39
245.94	2680.79
246.16	2359.26
246.38	2398.17
246.59	2463.71
246.81	2363.36
247.03	2291.68
247.24	2312.16
247.46	2400.22
247.68	2453.47
247.90	2316.25
248.11	2373.60
248.33	2688.98
248.55	2453.47
248.77	2400.22
248.98	2449.37
249.20	2684.89
249.42	2527.19
249.64	2355.16
249.85	2308.06
250.07	2363.36
250.29	2586.58
250.50	2484.19
250.72	2283.49
250.94	2523.10
251.16	2715.61
251.37	2412.51
251.59	2455.51
251.81	2555.86
252.02	2672.60
252.24	2359.26
252.46	2416.60
252.68	2469.85
252.89	2437.08
253.11	2211.81
253.33	2521.05
253.54	2695.13
253.76	2410.46
253.98	2387.93
254.20	2320.35
254.41	2308.06
254.63	2410.46
254.85	2267.10
255.06	2422.75
255.28	2496.47
255.50	2402.27
255.71	2322.40
255.93	2299.87
256.15	2414.56
256.36	2486.23
256.58	2263.01
256.80	2346.97
257.02	2396.12
257.23	2482.14
257.45	2389.98
257.67	2463.71
257.88	2410.46
258.10	2551.77
258.32	2342.88
258.53	2414.56
258.75	2691.03
258.97	2389.98
259.18	2314.20
259.40	2389.98
259.62	2664.41
259.83	2738.13
260.05	2342.88
260.27	2875.35
260.48	2580.44
260.70	2377.69
260.92	2318.30
261.13	2332.64
261.35	2578.39
261.57	2521.05
261.78	2244.57
262.00	2240.48
262.22	2521.05
262.43	2273.25
262.65	2400.22
262.86	2396.12
263.08	2756.57
263.30	2478.04
263.51	2291.68
263.73	2361.31
263.95	2668.50
264.16	2355.16
264.38	2310.11
264.60	2363.36
264.81	2404.32
265.03	2596.82
265.25	2586.58
265.46	2342.88
265.68	2580.44
265.89	2529.24
266.11	2244.57
266.33	2355.16
266.54	2613.21
266.76	2570.20
266.98	2447.32
267.19	2412.51
267.41	2551.77
267.62	2564.06
267.84	2203.61
268.06	2482.14
268.27	2504.67
268.49	2584.54
268.70	2441.18
268.92	2344.92
269.14	2322.40
269.35	2326.49
269.57	2342.88
269.79	2428.89
270.00	2484.19
270.22	2725.85
270.43	2242.53
270.65	2162.66
270.87	2506.71
271.08	2590.68
271.30	2469.85
271.51	2314.20
271.73	2588.63
271.95	2555.86
272.16	2277.34
272.38	2396.12
272.59	2465.75
272.81	2514.91
273.02	2383.84
273.24	2334.68
273.46	2621.40
273.67	2318.30
273.89	2260.96
274.10	2379.74
274.32	2605.02
274.54	2463.71
274.75	2480.09
274.97	2406.36
275.18	2547.67
275.40	2564.06
275.61	2359.26
275.83	2416.60
276.05	2447.32
276.26	2432.99
276.48	2402.27
276.69	2326.49
276.91	2408.41
277.12	2664.41
277.34	2521.05
277.55	2516.95
277.77	2490.33
277.99	2381.79
278.20	2314.20
278.42	2318.30
278.63	2301.92
278.85	2449.37
279.06	2265.05
279.28	2523.10
279.49	2578.39
279.71	2525.15
279.93	2465.75
280.14	2396.12
280.36	2330.59
280.57	2588.63
280.79	2496.47
281.00	2326.49
281.22	2432.99
281.43	2609.11
281.65	2213.85
281.86	2326.49
282.08	2547.67
282.29	2674.65
282.51	2269.15
282.73	2244.57
282.94	2234.33
283.16	2555.86
283.37	2539.48
283.59	2498.52
283.80	2502.62
284.02	2465.75
284.23	2461.66
284.45	2375.64
284.66	2383.84
284.88	2406.36
285.09	2371.55
285.31	2486.23
285.52	2531.29
285.74	2293.72
285.95	2514.91
286.17	2471.90
286.38	2594.78
286.60	2394.08
286.81	2379.74
287.03	2361.31
287.24	2418.65
287.46	2498.52
287.67	2512.86
287.89	2588.63
288.10	2480.09
288.32	2486.23
288.53	2635.74
288.75	2357.21
288.96	2574.30
289.18	2473.95
289.39	2396.12
289.61	2506.71
289.82	2744.28
290.04	2660.31
290.25	2316.25
290.47	2443.23
290.68	2416.60
290.90	2605.02
291.11	2316.25
291.33	2537.43
291.54	2396.12
291.76	2498.52
291.97	2463.71
292.18	2480.09
292.40	2392.03
292.61	2455.51
292.83	2625.50
293.04	2416.60
293.26	2592.73
293.47	2435.03
293.69	2338.78
293.90	2306.01
294.12	2605.02
294.33	2478.04
294.55	2455.51
294.76	2572.25
294.97	2627.54
295.19	2723.80
295.40	2381.79
295.62	2498.52
295.83	2611.16
296.05	2357.21
296.26	2506.71
296.48	2318.30
296.69	2531.29
296.90	2445.27
297.12	2416.60
297.33	2473.95
297.55	2512.86
297.76	2555.86
297.98	2519.00
298.19	2537.43
298.41	2525.15
298.62	2392.03
298.83	2570.20
299.05	2441.18
299.26	2389.98
299.48	2373.60
299.69	2459.61
299.90	2392.03
300.12	2301.92
300.33	2576.34
300.55	2428.89
300.76	2445.27
300.98	2332.64
301.19	2506.71
301.40	2369.50
301.62	2373.60
301.83	2506.71
302.05	2508.76
302.26	2414.56
302.47	2502.62
302.69	2369.50
302.90	2514.91
303.12	2238.43
303.33	2482.14
303.54	2719.70
303.76	2398.17
303.97	2379.74
304.19	2666.46
304.40	2338.78
304.61	2527.19
304.83	2553.82
305.04	2482.14
305.26	2469.85
305.47	2455.51
305.68	2424.80
305.90	2332.64
306.11	2625.50
306.33	2480.09
306.54	2416.60
306.75	2326.49
306.97	2308.06
307.18	2392.03
307.39	2396.12
307.61	2494.43
307.82	2430.94
308.04	2531.29
308.25	2312.16
308.46	2490.33
308.68	2457.56
308.89	2500.57
309.10	2553.82
309.32	2457.56
309.53	2486.23
309.74	2531.29
309.96	2392.03
310.17	2527.19
310.39	2424.80
310.60	2555.86
310.81	2447.32
311.03	2365.40
311.24	2580.44
311.45	2465.75
311.67	2676.70
311.88	2545.63
312.09	2478.04
312.31	2418.65
312.52	2404.32
312.73	2392.03
312.95	2371.55
313.16	2428.89
313.37	2584.54
313.59	2537.43
313.80	2541.53
314.01	2709.46
314.23	2400.22
314.44	2359.26
314.65	2365.40
314.87	2342.88
315.08	2359.26
315.29	2408.41
315.51	2383.84
315.72	2318.30
315.93	2555.86
316.15	2496.47
316.36	2484.19
316.57	2457.56
316.79	2506.71
317.00	2412.51
317.21	2592.73
317.43	2404.32
317.64	2514.91
317.85	2351.07
318.07	2389.98
318.28	2494.43
318.49	2576.34
318.70	2699.22
318.92	2582.49
319.13	2623.45
319.34	2635.74
319.56	2490.33
319.77	2662.36
319.98	2680.79
320.20	2564.06
320.41	2576.34
320.62	2537.43
320.83	2381.79
321.05	2629.59
321.26	2455.51
321.47	2453.47
321.69	2629.59
321.90	2289.63
322.11	2406.36
322.32	2543.58
322.54	2592.73
322.75	2418.65
322.96	2869.20
323.18	2437.08
323.39	2308.06
323.60	2383.84
323.81	2428.89
324.03	2404.32
324.24	2508.76
324.45	2437.08
324.66	2420.70
324.88	2590.68
325.09	2598.87
325.30	2404.32
325.52	2375.64
325.73	2570.20
325.94	2422.75
326.15	2297.82
326.37	2320.35
326.58	2602.97
326.79	2721.75
327.00	2371.55
327.22	2416.60
327.43	2410.46
327.64	2351.07
327.85	2496.47
328.07	2441.18
328.28	2768.85
328.49	2342.88
328.70	2375.64
328.92	2367.45
329.13	2432.99
329.34	2574.30
329.55	2564.06
329.76	2529.24
329.98	2480.09
330.19	2568.15
330.40	2480.09
330.61	2437.08
330.83	2662.36
331.04	2322.40
331.25	2478.04
331.46	2277.34
331.68	2297.82
331.89	2668.50
332.10	2435.03
332.31	2238.43
332.52	2451.42
332.74	2586.58
332.95	2277.34
333.16	2441.18
333.37	2625.50
333.58	2375.64
333.80	2410.46
334.01	2244.57
334.22	2478.04
334.43	2392.03
334.64	2316.25
334.86	2375.64
335.07	2363.36
335.28	2617.30
335.49	2250.72
335.70	2523.10
335.92	2660.31
336.13	2695.13
336.34	2457.56
336.55	2443.23
336.76	2555.86
336.98	2293.72
337.19	2416.60
337.40	2609.11
337.61	2822.10
337.82	2453.47
338.04	2437.08
338.25	2301.92
338.46	2473.95
338.67	2369.50
338.88	2295.77
339.09	2336.73
339.31	2365.40
339.52	2377.69
339.73	2342.88
339.94	2445.27
340.15	2531.29
340.36	2353.12
340.58	2469.85
340.79	2330.59
341.00	2586.58
341.21	2303.96
341.42	2590.68
341.63	2473.95
341.85	2617.30
342.06	2461.66
342.27	2338.78
342.48	2506.71
342.69	2318.30
342.90	2480.09
343.12	2588.63
343.33	2414.56
343.54	2574.30
343.75	2736.09
343.96	2482.14
344.17	2279.39
344.38	2488.28
344.60	2349.02
344.81	2365.40
345.02	2447.32
345.23	2643.93
345.44	2764.76
345.65	2545.63
345.86	2512.86
346.07	2519.00
346.29	2432.99
346.50	2480.09
346.71	2519.00
346.92	2633.69
347.13	2742.23
347.34	2346.97
347.55	2408.41
347.76	2580.44
347.98	2383.84
348.19	2494.43
348.40	2547.67
348.61	2338.78
348.82	2686.94
349.03	2498.52
349.24	2326.49
349.45	2756.57
349.66	2316.25
349.88	2461.66
350.09	2400.22
350.30	2578.39
350.51	2635.74
350.72	2547.67
350.93	2445.27
351.14	2441.18
351.35	2488.28
351.56	2490.33
351.77	2451.42
351.99	2568.15
352.20	2670.55
352.41	2555.86
352.62	2293.72
352.83	2486.23
353.04	2461.66
353.25	2416.60
353.46	2545.63
353.67	2645.98
353.88	2248.67
354.09	2355.16
354.30	2430.94
354.52	2529.24
354.73	2443.23
354.94	2349.02
355.15	2430.94
355.36	2740.18
355.57	2494.43
355.78	2439.13
355.99	2418.65
356.20	2457.56
356.41	2564.06
356.62	2516.95
356.83	2461.66
357.04	2633.69
357.25	2338.78
357.46	2365.40
357.68	2314.20
357.89	2392.03
358.10	2482.14
358.31	2430.94
358.52	2441.18
358.73	2389.98
358.94	2379.74
359.15	2392.03
359.36	2498.52
359.57	2473.95
359.78	2453.47
359.99	2506.71
360.20	2310.11
360.41	2437.08
360.62	2609.11
360.83	2406.36
361.04	2449.37
361.25	2570.20
361.46	2744.28
361.67	2519.00
361.88	2510.81
362.09	2592.73
362.30	2539.48
362.51	2359.26
362.72	2387.93
362.93	2613.21
363.14	2547.67
363.35	2447.32
363.56	2322.40
363.78	2588.63
363.99	2574.30
364.20	2437.08
364.41	2482.14
364.62	2736.09
364.83	2457.56
365.04	2441.18
365.25	2412.51
365.46	2711.51
365.67	2373.60
365.88	2457.56
366.09	2410.46
366.30	2490.33
366.51	2432.99
366.72	2312.16
366.93	2346.97
367.14	2465.75
367.35	2660.31
367.56	2398.17
367.77	2543.58
367.98	2451.42
368.18	2525.15
368.39	2523.10
368.60	2365.40
368.81	2580.44
369.02	2514.91
369.23	2381.79
369.44	2293.72
369.65	2408.41
369.86	2596.82
370.07	2572.25
370.28	2371.55
370.49	2564.06
370.70	2602.97
370.91	2359.26
371.12	2293.72
371.33	2594.78
371.54	2453.47
371.75	2498.52
371.96	2197.47
372.17	2576.34
372.38	2396.12
372.59	2502.62
372.80	2357.21
373.01	2437.08
373.22	2533.34
373.43	2392.03
373.64	2250.72
373.85	2600.92
374.06	2621.40
374.26	2498.52
374.47	2465.75
374.68	2660.31
374.89	2480.09
375.10	2351.07
375.31	2519.00
375.52	2516.95
375.73	2486.23
375.94	2297.82
376.15	2668.50
376.36	2387.93
376.57	2410.46
376.78	2408.41
376.99	2412.51
377.20	2580.44
377.40	2449.37
377.61	2635.74
377.82	2349.02
378.03	2693.08
378.24	2580.44
378.45	2484.19
378.66	2486.23
378.87	2289.63
379.08	2326.49
379.29	2437.08
379.50	2555.86
379.71	2473.95
379.91	2588.63
380.12	2463.71
380.33	2488.28
380.54	2473.95
380.75	2465.75
380.96	2351.07
381.17	2506.71
381.38	2490.33
381.59	2449.37
381.80	2492.38
382.00	2678.74
382.21	2543.58
382.42	2691.03
382.63	2668.50
382.84	2478.04
383.05	2547.67
383.26	2740.18
383.47	2527.19
383.68	2443.23
383.88	2545.63
384.09	2463.71
384.30	2625.50
384.51	2443.23
384.72	2424.80
384.93	2363.36
385.14	2521.05
385.35	2570.20
385.55	2316.25
385.76	2639.83
385.97	2408.41
386.18	2205.66
386.39	2359.26
386.60	2432.99
386.81	2324.44
387.02	2326.49
387.22	2344.92
387.43	2525.15
387.64	2525.15
387.85	2625.50
388.06	2775.00
388.27	4120.51
388.48	8288.13
388.68	12046.15
388.89	14565.15
389.10	15638.29
389.31	14823.20
389.52	11663.18
389.73	9926.50
389.93	8912.76
390.14	8374.14
390.35	7466.89
390.56	6641.56
390.77	5486.51
390.98	4075.46
391.18	3428.30
391.39	3008.47
391.60	2582.49
391.81	2514.91
392.02	2400.22
392.23	2713.56
392.43	2559.96
392.64	2643.93
392.85	2408.41
393.06	2666.46
393.27	2494.43
393.47	2379.74
393.68	2461.66
393.89	2488.28
394.10	2654.17
394.31	2400.22
394.52	2383.84
394.72	2459.61
394.93	2719.70
395.14	2357.21
395.35	2588.63
395.56	2408.41
395.76	2422.75
395.97	2547.67
396.18	2533.34
396.39	2533.34
396.60	2949.08
396.80	2715.61
397.01	2643.93
397.22	2701.27
397.43	2686.94
397.64	2381.79
397.84	2602.97
398.05	2738.13
398.26	2484.19
398.47	2529.24
398.67	2502.62
398.88	2432.99
399.09	2613.21
399.30	2422.75
399.51	2469.85
399.71	2457.56
399.92	2486.23
400.13	2457.56
400.34	2406.36
400.54	2494.43
400.75	2586.58
400.96	2449.37
401.17	2736.09
401.37	2586.58
401.58	2506.71
401.79	2469.85
402.00	2490.33
402.21	2846.68
402.41	2707.41
402.62	2809.81
402.83	2858.96
403.04	2965.46
403.24	3125.20
403.45	2578.39
403.66	2719.70
403.87	2781.14
404.07	2777.05
404.28	2711.51
404.49	2707.41
404.70	2570.20
404.90	2590.68
405.11	2506.71
405.32	2529.24
405.52	2430.94
405.73	2404.32
405.94	2367.45
406.15	2447.32
406.35	2535.39
406.56	2607.06
406.77	2406.36
406.98	2551.77
407.18	2414.56
407.39	2674.65
407.60	2363.36
407.80	2527.19
408.01	2465.75
408.22	2506.71
408.43	2349.02
408.63	2527.19
408.84	2557.91
409.05	2598.87
409.25	2449.37
409.46	2373.60
409.67	2457.56
409.88	2445.27
410.08	2498.52
410.29	2400.22
410.50	2588.63
410.70	2521.05
410.91	2402.27
411.12	2541.53
411.32	2504.67
411.53	2379.74
411.74	2469.85
411.95	2568.15
412.15	2545.63
412.36	2703.32
412.57	2568.15
412.77	2633.69
412.98	2430.94
413.19	2475.99
413.39	2578.39
413.60	2531.29
413.81	2619.35
414.01	2371.55
414.22	2490.33
414.43	2576.34
414.63	2492.38
414.84	2607.06
415.05	2527.19
415.25	2340.83
415.46	2582.49
415.67	2441.18
415.87	2535.39
416.08	2430.94
416.29	2455.51
416.49	2506.71
416.70	2375.64
416.91	2389.98
417.11	2555.86
417.32	2641.88
417.53	2615.26
417.73	2408.41
417.94	2430.94
418.15	2498.52
418.35	2441.18
418.56	2494.43
418.77	2766.81
418.97	2490.33
419.18	2424.80
419.38	2217.95
419.59	2445.27
419.80	2721.75
420.00	2416.60
420.21	2516.95
420.42	2686.94
420.62	2555.86
420.83	2449.37
421.04	2400.22
421.24	2461.66
421.45	2523.10
421.65	2496.47
421.86	2396.12
422.07	2486.23
422.27	2568.15
422.48	2465.75
422.69	2371.55
422.89	2465.75
423.10	2412.51
423.30	2338.78
423.51	2478.04
423.72	2572.25
423.92	2613.21
424.13	2236.38
424.33	2428.89
424.54	2512.86
424.75	2473.95
424.95	2645.98
425.16	2482.14
425.36	2453.47
425.57	2570.20
425.78	2482.14
425.98	2529.24
426.19	2404.32
426.39	2318.30
426.60	2488.28
426.81	2549.72
427.01	2455.51
427.22	2447.32
427.42	2244.57
427.63	2349.02
427.83	2596.82
428.04	2672.60
428.25	2568.15
428.45	2537.43
428.66	2643.93
428.86	2428.89
429.07	2504.67
429.28	2551.77
429.48	2447.32
429.69	2367.45
429.89	2529.24
430.10	2414.56
430.30	2516.95
430.51	2699.22
430.71	2424.80
430.92	2420.70
431.13	2392.03
431.33	2576.34
431.54	2602.97
431.74	2566.10
431.95	2756.57
432.15	2432.99
432.36	2437.08
432.56	2510.81
432.77	2633.69
432.98	2762.71
433.18	2514.91
433.39	2371.55
433.59	2488.28
433.80	2688.98
434.00	2635.74
434.21	2416.60
434.41	2355.16
434.62	2768.85
434.82	2373.60
435.03	2373.60
435.23	2539.48
435.44	2322.40
435.64	2410.46
435.85	2469.85
436.06	2605.02
436.26	2652.12
436.47	2389.98
436.67	2342.88
436.88	2430.94
437.08	2633.69
437.29	2637.78
437.49	2469.85
437.70	2596.82
437.90	2443.23
438.11	2650.07
438.31	2527.19
438.52	2652.12
438.72	2709.46
438.93	2754.52
439.13	2465.75
439.34	2699.22
439.54	2543.58
439.75	2478.04
439.95	2531.29
440.16	2457.56
440.36	2453.47
440.57	2486.23
440.77	2457.56
440.98	2519.00
441.18	2611.16
441.39	2420.70
441.59	2351.07
441.80	2772.95
442.00	2500.57
442.21	2535.39
442.41	2336.73
442.62	2650.07
442.82	2437.08
443.02	2465.75
443.23	2443.23
443.43	2574.30
443.64	2682.84
443.84	2291.68
444.05	2523.10
444.25	2371.55
444.46	2441.18
444.66	2435.03
444.87	2584.54
445.07	2254.81
445.28	2537.43
445.48	2600.92
445.69	2521.05
445.89	2781.14
446.09	2547.67
446.30	2791.38
446.50	2990.03
446.71	4677.56
446.91	5789.61
447.12	6586.27
447.32	7049.11
447.53	6520.73
447.73	5367.73
447.93	4808.63
448.14	4542.39
448.34	4538.30
448.55	3866.56
448.75	3833.80
448.96	3579.85
449.16	3278.80
449.36	3096.53
449.57	2754.52
449.77	2551.77
449.98	2516.95
450.18	2588.63
450.39	2441.18
450.59	2572.25
450.79	2432.99
451.00	2447.32
451.20	2549.72
451.41	2445.27
451.61	2562.01
451.81	2541.53
452.02	2478.04
452.22	2414.56
452.43	2424.80
452.63	2400.22
452.84	2461.66
453.04	2420.70
453.24	2555.86
453.45	2416.60
453.65	2469.85
453.86	2537.43
454.06	2609.11
454.26	2473.95
454.47	2322.40
454.67	2512.86
454.87	2486.23
455.08	2383.84
455.28	2613.21
455.49	2592.73
455.69	2428.89
455.89	2850.77
456.10	2539.48
456.30	2457.56
456.51	2623.45
456.71	2576.34
456.91	2551.77
457.12	2424.80
457.32	2523.10
457.52	2277.34
457.73	2521.05
457.93	2463.71
458.14	2457.56
458.34	2353.12
458.54	2322.40
458.75	2375.64
458.95	2564.06
459.15	2498.52
459.36	2529.24
459.56	2461.66
459.76	2775.00
459.97	2498.52
460.17	2445.27
460.37	2521.05
460.58	2473.95
460.78	2553.82
460.99	2346.97
461.19	2463.71
461.39	2445.27
461.60	2463.71
461.80	2512.86
462.00	2359.26
462.21	2424.80
462.41	2369.50
462.61	2306.01
462.82	2295.77
463.02	2541.53
463.22	2506.71
463.43	2586.58
463.63	2389.98
463.83	2658.26
464.04	2576.34
464.24	2486.23
464.44	2355.16
464.64	2457.56
464.85	2598.87
465.05	2555.86
465.25	2363.36
465.46	2389.98
465.66	2586.58
465.86	2455.51
466.07	2422.75
466.27	2541.53
466.47	2340.83
466.68	2291.68
466.88	2570.20
467.08	2594.78
467.29	2699.22
467.49	2482.14
467.69	2389.98
467.89	2537.43
468.10	2465.75
468.30	2543.58
468.50	2621.40
468.71	2625.50
468.91	2342.88
469.11	2637.78
469.31	2428.89
469.52	2357.21
469.72	2709.46
469.92	2703.32
470.13	2441.18
470.33	2525.15
470.53	2539.48
470.73	2904.02
470.94	3235.79
471.14	3471.31
471.34	3925.96
471.54	3665.86
471.75	3448.78
471.95	3104.72
472.15	3039.19
472.36	3057.62
472.56	2955.22
472.76	3039.19
472.96	2973.65
473.17	2818.00
473.37	2625.50
473.57	2521.05
473.77	2623.45
473.98	2463.71
474.18	2375.64
474.38	2729.94
474.58	2463.71
474.79	2351.07
474.99	2553.82
475.19	2547.67
475.39	2389.98
475.60	2455.51
475.80	2392.03
476.00	2490.33
476.20	2389.98
476.41	2473.95
476.61	2531.29
476.81	2666.46
477.01	2353.12
477.21	2686.94
477.42	2615.26
477.62	2435.03
477.82	2553.82
478.02	2459.61
478.23	2539.48
478.43	2363.36
478.63	2502.62
478.83	2482.14
479.03	2492.38
479.24	2619.35
479.44	2795.48
479.64	2269.15
479.84	2334.68
480.04	2437.08
480.25	2523.10
480.45	2365.40
480.65	2363.36
480.85	2686.94
481.06	2465.75
481.26	2506.71
481.46	2506.71
481.66	2572.25
481.86	2410.46
482.06	2580.44
482.27	2457.56
482.47	2416.60
482.67	2480.09
482.87	2449.37
483.07	2492.38
483.28	2400.22
483.48	2414.56
483.68	2432.99
483.88	2416.60
484.08	2269.15
484.29	2367.45
484.49	2590.68
484.69	2414.56
484.89	2678.74
485.09	2656.22
485.29	2455.51
485.50	2496.47
485.70	2416.60
485.90	2611.16
486.10	2533.34
486.30	2566.10
486.50	2629.59
486.71	2502.62
486.91	2525.15
487.11	2555.86
487.31	2289.63
487.51	2559.96
487.71	2332.64
487.91	2367.45
488.12	2498.52
488.32	2183.13
488.52	2441.18
488.72	2269.15
488.92	2531.29
489.12	2588.63
489.32	2553.82
489.53	2463.71
489.73	2338.78
489.93	2779.09
490.13	2396.12
490.33	2297.82
490.53	2504.67
490.73	2670.55
490.94	2316.25
491.14	2510.81
491.34	2576.34
491.54	2783.19
491.74	3348.43
491.94	4005.83
492.14	4403.13
492.34	4407.23
492.54	4112.32
492.75	3375.05
492.95	3489.74
493.15	3221.45
493.35	3129.30
493.55	3020.75
493.75	2971.60
493.95	3006.42
494.15	2756.57
494.35	2535.39
494.56	2537.43
494.76	2502.62
494.96	2488.28
495.16	2494.43
495.36	2531.29
495.56	2492.38
495.76	2537.43
495.96	2486.23
496.16	2389.98
496.36	2871.25
496.56	2396.12
496.77	2471.90
496.97	2557.91
497.17	2674.65
497.37	2357.21
497.57	2549.72
497.77	2514.91
497.97	2320.35
498.17	2428.89
498.37	2396.12
498.57	2510.81
498.77	2441.18
498.97	2543.58
499.17	2654.17
499.38	2408.41
499.58	2582.49
499.78	2572.25
499.98	2605.02
500.18	2572.25
500.38	2424.80
500.58	2674.65
500.78	3100.62
500.98	5463.98
501.18	7536.52
501.38	9256.82
501.58	10018.66
501.78	10022.76
501.98	8001.41
502.18	6780.82
502.38	5767.08
502.58	5478.32
502.78	4896.69
502.98	4753.34
503.18	4437.95
503.38	4091.84
503.59	3653.58
503.79	3411.92
503.99	3233.74
504.19	3084.24
504.39	3086.29
504.59	3133.39
504.79	3104.72
504.99	3088.34
505.19	2875.35
505.39	2840.53
505.59	2820.05
505.79	2809.81
505.99	2777.05
506.19	2555.86
506.39	2695.13
506.59	2432.99
506.79	2494.43
506.99	2652.12
507.19	2514.91
507.39	2582.49
507.59	2414.56
507.79	2449.37
507.99	2392.03
508.19	2555.86
508.39	2494.43
508.59	2478.04
508.79	2545.63
508.99	2752.47
509.19	2396.12
509.39	2594.78
509.59	2373.60
509.79	2461.66
509.99	2619.35
510.19	2621.40
510.39	2582.49
510.59	2521.05
510.79	2484.19
510.99	2363.36
511.19	2424.80
511.39	2715.61
511.59	2650.07
511.79	2543.58
511.99	2482.14
512.19	2678.74
512.38	2498.52
512.58	2410.46
512.78	2418.65
512.98	2670.55
513.18	2727.89
513.38	2328.54
513.58	2508.76
513.78	2420.70
513.98	2457.56
514.18	2428.89
514.38	2426.84
514.58	2568.15
514.78	2441.18
514.98	2389.98
515.18	2375.64
515.38	2361.31
515.58	2695.13
515.78	2437.08
515.98	2539.48
516.18	2539.48
516.38	2463.71
516.57	2389.98
516.77	2375.64
516.97	2564.06
517.17	2422.75
517.37	2240.48
517.57	2555.86
517.77	2506.71
517.97	2469.85
518.17	2537.43
518.37	2367.45
518.57	2387.93
518.77	2412.51
518.97	2449.37
519.16	2510.81
519.36	2588.63
519.56	2451.42
519.76	2381.79
519.96	2533.34
520.16	2645.98
520.36	2432.99
520.56	2562.01
520.76	2406.36
520.96	2416.60
521.16	2643.93
521.35	2523.10
521.55	2645.98
521.75	2473.95
521.95	2424.80
522.15	2430.94
522.35	2328.54
522.55	2265.05
522.75	2572.25
522.95	2383.84
523.14	2334.68
523.34	2437.08
523.54	2379.74
523.74	2568.15
523.94	2441.18
524.14	2353.12
524.34	2557.91
524.54	2662.36
524.73	2439.13
524.93	2576.34
525.13	2588.63
525.33	2316.25
525.53	2736.09
525.73	2605.02
525.93	2539.48
526.13	2441.18
526.32	2426.84
526.52	2609.11
526.72	2605.02
526.92	2416.60
527.12	2375.64
527.32	2400.22
527.52	2529.24
527.71	2492.38
527.91	2516.95
528.11	2389.98
528.31	2535.39
528.51	2422.75
528.71	2519.00
528.90	2494.43
529.10	2602.97
529.30	2553.82
529.50	2168.80
529.70	2527.19
529.90	2439.13
530.09	2432.99
530.29	2328.54
530.49	2338.78
530.69	2785.24
530.89	2519.00
531.09	2478.04
531.28	2373.60
531.48	2617.30
531.68	2428.89
531.88	2488.28
532.08	2670.55
532.28	2422.75
532.47	2635.74
532.67	2576.34
532.87	2564.06
533.07	2394.08
533.27	2557.91
533.46	2547.67
533.66	2559.96
533.86	2469.85
534.06	2482.14
534.26	2490.33
534.45	2473.95
534.65	2645.98
534.85	2525.15
535.05	2408.41
535.25	2682.84
535.44	2365.40
535.64	2613.21
535.84	2371.55
536.04	2465.75
536.24	2441.18
536.43	2455.51
536.63	2486.23
536.83	2539.48
537.03	2453.47
537.22	2351.07
537.42	2236.38
537.62	2502.62
537.82	2404.32
538.02	2525.15
538.21	2551.77
538.41	2899.92
538.61	2576.34
538.81	2465.75
539.00	2568.15
539.20	2342.88
539.40	2437.08
539.60	2461.66
539.79	2527.19
539.99	2482.14
540.19	2430.94
540.39	2402.27
540.58	2482.14
540.78	2596.82
540.98	2572.25
541.18	2600.92
541.37	2570.20
541.57	2504.67
541.77	2492.38
541.97	2441.18
542.16	2322.40
542.36	2418.65
542.56	2488.28
542.76	2650.07
542.95	2539.48
543.15	2594.78
543.35	2523.10
543.54	2283.49
543.74	2420.70
543.94	2727.89
544.14	2465.75
544.33	2568.15
544.53	2369.50
544.73	2484.19
544.93	2418.65
545.12	2471.90
545.32	2396.12
545.52	2490.33
545.71	2435.03
545.91	2441.18
546.11	2416.60
546.30	2351.07
546.50	2473.95
546.70	2494.43
546.90	2490.33
547.09	2281.44
547.29	2521.05
547.49	2580.44
547.68	2541.53
547.88	2389.98
548.08	2559.96
548.27	2881.49
548.47	2471.90
548.67	2441.18
548.87	2519.00
549.06	2459.61
549.26	2506.71
549.46	2435.03
549.65	2441.18
549.85	2523.10
550.05	2508.76
550.24	2408.41
550.44	2506.71
550.64	2584.54
550.83	2406.36
551.03	2666.46
551.23	2602.97
551.42	2523.10
551.62	2377.69
551.82	2516.95
552.01	2412.51
552.21	2648.02
552.41	2453.47
552.60	2668.50
552.80	2484.19
553.00	2414.56
553.19	2449.37
553.39	2744.28
553.59	2389.98
553.78	2502.62
553.98	2523.10
554.17	2361.31
554.37	2523.10
554.57	2539.48
554.76	2355.16
554.96	2447.32
555.16	2441.18
555.35	2465.75
555.55	2406.36
555.75	2535.39
555.94	2539.48
556.14	2308.06
556.33	2424.80
556.53	2496.47
556.73	2523.10
556.92	2496.47
557.12	2555.86
557.32	2736.09
557.51	2666.46
557.71	2598.87
557.90	2602.97
558.10	2695.13
558.30	2383.84
558.49	2418.65
558.69	2371.55
558.88	2531.29
559.08	2424.80
559.28	2428.89
559.47	2445.27
559.67	2619.35
559.86	2711.51
560.06	2498.52
560.26	2455.51
560.45	2564.06
560.65	2502.62
560.84	2623.45
561.04	2359.26
561.24	2654.17
561.43	2299.87
561.63	2731.99
561.82	2469.85
562.02	2586.58
562.22	2349.02
562.41	2408.41
562.61	2449.37
562.80	2383.84
563.00	2760.66
563.19	2543.58
563.39	2482.14
563.59	2529.24
563.78	2389.98
563.98	2256.86
564.17	2389.98
564.37	2252.77
564.56	2535.39
564.76	2344.92
564.96	2592.73
565.15	2555.86
565.35	2799.57
565.54	2416.60
565.74	2574.30
565.93	2523.10
566.13	2484.19
566.32	2467.80
566.52	2457.56
566.71	2529.24
566.91	2590.68
567.11	2580.44
567.30	2353.12
567.50	2584.54
567.69	2531.29
567.89	2480.09
568.08	2408.41
568.28	2473.95
568.47	2324.44
568.67	2502.62
568.86	2398.17
569.06	2596.82
569.25	2437.08
569.45	2371.55
569.64	2344.92
569.84	2453.47
570.04	2562.01
570.23	2463.71
570.43	2449.37
570.62	2502.62
570.82	2691.03
571.01	2351.07
571.21	2406.36
571.40	2367.45
571.60	2594.78
571.79	2502.62
571.99	2535.39
572.18	2365.40
572.38	2371.55
572.57	2412.51
572.77	2482.14
572.96	2729.94
573.16	2543.58
573.35	2494.43
573.55	2674.65
573.74	2498.52
573.94	2469.85
574.13	2514.91
574.33	2590.68
574.52	2768.85
574.71	2559.96
574.91	2543.58
575.10	2351.07
575.30	2455.51
575.49	2408.41
575.69	2389.98
575.88	2504.67
576.08	2416.60
576.27	2731.99
576.47	2465.75
576.66	2613.21
576.86	2703.32
577.05	2572.25
577.25	2551.77
577.44	2682.84
577.64	2473.95
577.83	2691.03
578.02	2414.56
578.22	2525.15
578.41	2744.28
578.61	2432.99
578.80	2379.74
579.00	2488.28
579.19	2555.86
579.39	2586.58
579.58	2592.73
579.77	2488.28
579.97	2650.07
580.16	2613.21
580.36	2547.67
580.55	2555.86
580.75	2588.63
580.94	2525.15
581.13	2654.17
581.33	2645.98
581.52	2549.72
581.72	2791.38
581.91	2613.21
582.11	2443.23
582.30	2609.11
582.49	2539.48
582.69	2734.04
582.88	2514.91
583.08	2580.44
583.27	2643.93
583.47	2586.58
583.66	2396.12
583.85	2355.16
584.05	2519.00
584.24	2572.25
584.44	2553.82
584.63	2701.27
584.82	2705.37
585.02	2750.42
585.21	2594.78
585.41	2705.37
585.60	2662.36
585.79	2797.53
585.99	2744.28
586.18	2691.03
586.37	3272.65
586.57	5087.15
586.76	14804.77
586.96	34203.13
587.15	47779.11
587.34	56677.54
587.54	61664.34
587.73	55864.49
587.93	39267.75
588.12	29965.88
588.31	24145.55
588.51	20995.78
588.70	19416.79
588.89	17569.52
589.09	14995.23
589.28	12603.20
589.47	10157.92
589.67	7806.86
589.86	6094.76
590.06	4650.94
590.25	3780.55
590.44	3256.27
590.64	2940.88
590.83	2883.54
591.02	2731.99
591.22	2531.29
591.41	2586.58
591.60	2473.95
591.80	2834.39
591.99	2463.71
592.18	2492.38
592.38	2584.54
592.57	2416.60
592.76	2465.75
592.96	2572.25
593.15	2586.58
593.34	2650.07
593.54	2377.69
593.73	2473.95
593.92	2621.40
594.12	2617.30
594.31	2576.34
594.50	2697.17
594.70	2637.78
594.89	2893.78
595.08	2332.64
595.28	2576.34
595.47	2858.96
595.66	2662.36
595.86	2373.60
596.05	2459.61
596.24	2506.71
596.43	2725.85
596.63	2703.32
596.82	2455.51
597.01	2594.78
597.21	2779.09
597.40	2559.96
597.59	2478.04
597.79	2564.06
597.98	2619.35
598.17	2478.04
598.36	2547.67
598.56	2643.93
598.75	2523.10
598.94	2514.91
599.14	2494.43
599.33	2414.56
599.52	2607.06
599.71	2559.96
599.91	2551.77
600.10	2566.10
600.29	2486.23
600.48	2584.54
600.68	2531.29
600.87	2473.95
601.06	2428.89
601.26	2490.33
601.45	2508.76
601.64	2471.90
601.83	2629.59
602.03	2398.17
602.22	2322.40
602.41	2670.55
602.60	2750.42
602.80	2562.01
602.99	2555.86
603.18	2482.14
603.37	2566.10
603.57	2402.27
603.76	2572.25
603.95	2553.82
604.14	2451.42
604.34	2412.51
604.53	2422.75
604.72	2607.06
604.91	2650.07
605.10	2447.32
605.30	2326.49
605.49	2815.96
605.68	2588.63
605.87	2525.15
606.07	2326.49
606.26	2559.96
606.45	2549.72
606.64	2465.75
606.84	2437.08
607.03	2498.52
607.22	2658.26
607.41	2473.95
607.60	2465.75
607.80	2641.88
607.99	2467.80
608.18	2455.51
608.37	2467.80
608.56	2453.47
608.76	2691.03
608.95	2637.78
609.14	2557.91
609.33	2639.83
609.52	2686.94
609.72	2645.98
609.91	2676.70
610.10	2543.58
610.29	2682.84
610.48	2609.11
610.68	2521.05
610.87	2457.56
611.06	2625.50
611.25	2506.71
611.44	2678.74
611.63	2445.27
611.83	2635.74
612.02	2373.60
612.21	2607.06
612.40	2301.92
612.59	2373.60
612.79	2314.20
612.98	2412.51
613.17	2695.13
613.36	2523.10
613.55	2650.07
613.74	2578.39
613.93	2731.99
614.13	2662.36
614.32	2693.08
614.51	2662.36
614.70	2576.34
614.89	2498.52
615.08	2564.06
615.28	2938.84
615.47	2396.12
615.66	2660.31
615.85	2580.44
616.04	2684.89
616.23	2525.15
616.42	2502.62
616.62	2506.71
616.81	2504.67
617.00	2455.51
617.19	2643.93
617.38	2469.85
617.57	2547.67
617.76	2555.86
617.95	2566.10
618.15	2580.44
618.34	2639.83
618.53	2355.16
618.72	2656.22
618.91	2613.21
619.10	2568.15
619.29	2490.33
619.48	2510.81
619.68	2330.59
619.87	2359.26
620.06	2303.96
620.25	2656.22
620.44	2381.79
620.63	2514.91
620.82	2535.39
621.01	2424.80
621.20	2459.61
621.39	2527.19
621.59	2627.54
621.78	2533.34
621.97	2549.72
622.16	2578.39
622.35	2582.49
622.54	2650.07
622.73	2570.20
622.92	2244.57
623.11	2611.16
623.30	2475.99
623.49	2490.33
623.68	2426.84
623.88	2643.93
624.07	2441.18
624.26	2400.22
624.45	2492.38
624.64	2449.37
624.83	2465.75
625.02	2514.91
625.21	2457.56
625.40	2562.01
625.59	2666.46
625.78	2496.47
625.97	2658.26
626.16	2660.31
626.35	2613.21
626.54	2527.19
626.74	2756.57
626.93	2531.29
627.12	2463.71
627.31	2619.35
627.50	2500.57
627.69	2686.94
627.88	2357.21
628.07	2389.98
628.26	2271.20
628.45	2447.32
628.64	2355.16
628.83	2461.66
629.02	2367.45
629.21	2596.82
629.40	2559.96
629.59	2418.65
629.78	2443.23
629.97	2490.33
630.16	2500.57
630.35	2471.90
630.54	2484.19
630.73	2457.56
630.92	2531.29
631.11	2385.88
631.30	2523.10
631.49	2566.10
631.68	2455.51
631.87	2516.95
632.06	2330.59
632.25	2850.77
632.44	2547.67
632.63	2578.39
632.82	2504.67
633.01	2416.60
633.20	2678.74
633.39	2519.00
633.58	2353.12
633.77	2633.69
633.96	2535.39
634.15	2488.28
634.34	2564.06
634.53	2547.67
634.72	2463.71
634.91	2349.02
635.10	2553.82
635.29	2645.98
635.48	2566.10
635.67	2359.26
635.86	2340.83
636.05	2551.77
636.24	2389.98
636.43	2445.27
636.62	2617.30
636.81	2250.72
637.00	2480.09
637.19	2545.63
637.38	2547.67
637.57	2430.94
637.76	2584.54
637.95	2691.03
638.14	2559.96
638.33	2568.15
638.52	2541.53
638.71	2400.22
638.89	2361.31
639.08	2918.36
639.27	2713.56
639.46	2772.95
639.65	3153.87
639.84	3203.02
640.03	3268.56
640.22	3129.30
640.41	3119.06
640.60	2766.81
640.79	2822.10
640.98	2721.75
641.17	2695.13
641.36	2775.00
641.55	2723.80
641.74	2447.32
641.92	2381.79
642.11	2469.85
642.30	2555.86
642.49	2342.88
642.68	2439.13
642.87	2553.82
643.06	2596.82
643.25	2369.50
643.44	2316.25
643.63	2453.47
643.82	2637.78
644.00	2301.92
644.19	2504.67
644.38	2375.64
644.57	2576.34
644.76	2543.58
644.95	2383.84
645.14	2510.81
645.33	2428.89
645.52	2478.04
645.71	2367.45
645.89	2349.02
646.08	2500.57
646.27	2437.08
646.46	2641.88
646.65	2289.63
646.84	2512.86
647.03	2367.45
647.22	2570.20
647.40	2471.90
647.59	2432.99
647.78	2283.49
647.97	2416.60
648.16	2379.74
648.35	2590.68
648.54	2586.58
648.73	2389.98
648.91	2562.01
649.10	2525.15
649.29	2410.46
649.48	2363.36
649.67	2654.17
649.86	2582.49
650.05	2537.43
650.23	2775.00
650.42	2617.30
650.61	2695.13
650.80	2740.18
650.99	2803.67
651.18	2609.11
651.36	2656.22
651.55	2502.62
651.74	2641.88
651.93	2488.28
652.12	2465.75
652.31	2543.58
652.49	2500.57
652.68	2488.28
652.87	2725.85
653.06	2469.85
653.25	2707.41
653.44	2488.28
653.62	2678.74
653.81	2416.60
654.00	2455.51
654.19	2572.25
654.38	2891.73
654.56	2492.38
654.75	2377.69
654.94	2652.12
655.13	2613.21
655.32	2480.09
655.51	2498.52
655.69	2449.37
655.88	2539.48
656.07	2295.77
656.26	2486.23
656.45	2381.79
656.63	2521.05
656.82	2418.65
657.01	2557.91
657.20	2385.88
657.38	2701.27
657.57	2432.99
657.76	2332.64
657.95	2680.79
658.14	2412.51
658.32	2539.48
658.51	2256.86
658.70	2529.24
658.89	2478.04
659.08	2504.67
659.26	2682.84
659.45	2437.08
659.64	2605.02
659.83	2449.37
660.01	2914.26
660.20	2545.63
660.39	2752.47
660.58	2277.34
660.76	2504.67
660.95	2373.60
661.14	2500.57
661.33	2363.36
661.51	2441.18
661.70	2447.32
661.89	2523.10
662.08	2480.09
662.26	2351.07
662.45	2408.41
662.64	2731.99
662.83	2553.82
663.01	2346.97
663.20	2412.51
663.39	2707.41
663.58	2406.36
663.76	2410.46
663.95	2580.44
664.14	2340.83
664.32	2414.56
664.51	2392.03
664.70	2310.11
664.89	2529.24
665.07	2371.55
665.26	2652.12
665.45	2355.16
665.64	2555.86
665.82	2480.09
666.01	2535.39
666.20	2357.21
666.38	2641.88
666.57	2582.49
666.76	3899.33
666.95	9701.23
667.13	17927.92
667.32	22570.66
667.51	26222.19
667.69	27743.83
667.88	24471.18
668.07	17422.07
668.25	14464.80
668.44	11933.51
668.63	10358.63
668.81	9092.98
669.00	7878.54
669.19	7020.44
669.38	6172.58
669.56	5109.68
669.75	4339.65
669.94	3739.59
670.12	3270.61
670.31	2992.08
670.50	2772.95
670.68	2707.41
670.87	2684.89
671.06	2523.10
671.24	2559.96
671.43	2719.70
671.62	2600.92
671.80	2482.14
671.99	2564.06
672.18	2506.71
672.36	2639.83
672.55	2475.99
672.74	2555.86
672.92	2498.52
673.11	2613.21
673.29	2256.86
673.48	2539.48
673.67	2482.14
673.85	2543.58
674.04	2371.55
674.23	2488.28
674.41	2717.65
674.60	2316.25
674.79	2256.86
674.97	2416.60
675.16	2609.11
675.34	2566.10
675.53	2424.80
675.72	2555.86
675.90	2727.89
676.09	2480.09
676.28	2549.72
676.46	2342.88
676.65	2488.28
676.83	2355.16
677.02	2418.65
677.21	2490.33
677.39	2553.82
677.58	2404.32
677.77	2408.41
677.95	2426.84
678.14	2447.32
678.32	2463.71
678.51	2398.17
678.70	2703.32
678.88	2455.51
679.07	2504.67
679.25	2428.89
679.44	2486.23
679.63	2389.98
679.81	2492.38
680.00	2635.74
680.18	2484.19
680.37	2629.59
680.55	2416.60
680.74	2297.82
680.93	2201.57
681.11	2568.15
681.30	2435.03
681.48	2463.71
681.67	2457.56
681.85	2521.05
682.04	2367.45
682.23	2535.39
682.41	2437.08
682.60	2432.99
682.78	2512.86
682.97	2398.17
683.15	2473.95
683.34	2473.95
683.53	2674.65
683.71	2283.49
683.90	2598.87
684.08	2652.12
684.27	2455.51
684.45	2504.67
684.64	2523.10
684.82	2400.22
685.01	2555.86
685.19	2465.75
685.38	2691.03
685.57	2535.39
685.75	2367.45
685.94	2416.60
686.12	2400.22
686.31	2400.22
686.49	2701.27
686.68	2201.57
686.86	2492.38
687.05	2416.60
687.23	2748.37
687.42	2463.71
687.60	2252.77
687.79	2582.49
687.97	2605.02
688.16	2623.45
688.34	2633.69
688.53	2291.68
688.71	2547.67
688.90	2619.35
689.08	2467.80
689.27	2258.91
689.45	2564.06
689.64	2588.63
689.82	2492.38
690.01	2492.38
690.19	2543.58
690.38	2525.15
690.56	2500.57
690.75	2322.40
690.93	2459.61
691.12	2387.93
691.30	2459.61
691.49	2437.08
691.67	2516.95
691.86	2674.65
692.04	2443.23
692.23	2441.18
692.41	2559.96
692.60	2713.56
692.78	2609.11
692.97	2484.19
693.15	2701.27
693.34	2586.58
693.52	2621.40
693.71	2437.08
693.89	2445.27
694.08	2346.97
694.26	2555.86
694.44	2645.98
694.63	2539.48
694.81	2316.25
695.00	2392.03
695.18	2658.26
695.37	2813.91
695.55	2482.14
695.74	2379.74
695.92	2371.55
696.10	2594.78
696.29	2301.92
696.47	2453.47
696.66	2260.96
696.84	2410.46
697.03	2430.94
697.21	2654.17
697.40	3682.25
697.58	2621.40
697.76	2443.23
697.95	2402.27
698.13	2359.26
698.32	2428.89
698.50	2453.47
698.68	2529.24
698.87	2498.52
699.05	2742.23
699.24	2555.86
699.42	2392.03
699.61	2627.54
699.79	2457.56
699.97	2508.76
700.16	2318.30
700.34	2344.92
700.53	2498.52
700.71	2592.73
700.89	2588.63
701.08	2494.43
701.26	2541.53
701.45	2955.22
701.63	2441.18
701.81	2400.22
702.00	2445.27
702.18	2469.85
702.37	2467.80
702.55	2742.23
702.73	2736.09
702.92	2596.82
703.10	2789.33
703.28	2772.95
703.47	2445.27
703.65	2662.36
703.84	2686.94
704.02	2531.29
704.20	2686.94
704.39	2414.56
704.57	2428.89
704.75	2645.98
704.94	2531.29
705.12	2590.68
705.30	2928.60
705.49	5506.99
705.67	12672.83
705.86	20655.81
706.04	24141.46
706.22	27414.11
706.41	27692.63
706.59	22488.74
706.77	16406.28
706.96	13930.28
707.14	12265.28
707.32	10563.42
707.51	9447.28
707.69	7743.37
707.87	6125.47
708.06	4919.22
708.24	4054.98
708.42	3454.92
708.61	3344.33
708.79	2676.70
708.97	2637.78
709.16	2641.88
709.34	2531.29
709.52	2459.61
709.71	2543.58
709.89	2576.34
710.07	2406.36
710.26	2398.17
710.44	2453.47
710.62	2625.50
710.80	2527.19
710.99	2512.86
711.17	2521.05
711.35	2420.70
711.54	2430.94
711.72	2619.35
711.90	2488.28
712.09	2449.37
712.27	2410.46
712.45	2529.24
712.63	2492.38
712.82	2521.05
713.00	2488.28
713.18	2445.27
713.37	2547.67
713.55	2580.44
713.73	2557.91
713.91	2500.57
714.10	2371.55
714.28	2531.29
714.46	2619.35
714.65	2527.19
714.83	2459.61
715.01	2422.75
715.19	2572.25
715.38	2408.41
715.56	2500.57
715.74	2406.36
715.92	2396.12
716.11	2557.91
716.29	2230.24
716.47	2521.05
716.65	2519.00
716.84	2351.07
717.02	2625.50
717.20	2277.34
717.38	2310.11
717.57	2547.67
717.75	2461.66
717.93	2451.42
718.11	2592.73
718.30	2355.16
718.48	2396.12
718.66	2559.96
718.84	2625.50
719.03	2432.99
719.21	2252.77
719.39	2729.94
719.57	2570.20
719.75	2613.21
719.94	2351.07
720.12	2396.12
720.30	2533.34
720.48	2588.63
720.67	2416.60
720.85	2445.27
721.03	2420.70
721.21	2389.98
721.39	2568.15
721.58	2574.30
721.76	2496.47
721.94	2580.44
722.12	2564.06
722.30	2625.50
722.49	2367.45
722.67	2549.72
722.85	2451.42
723.03	2338.78
723.21	2445.27
723.40	2523.10
723.58	2529.24
723.76	2590.68
723.94	2635.74
724.12	2590.68
724.30	2682.84
724.49	2654.17
724.67	2449.37
724.85	2643.93
725.03	2439.13
725.21	2568.15
725.40	2656.22
725.58	2432.99
725.76	2639.83
725.94	2543.58
726.12	2430.94
726.30	2471.90
726.49	2369.50
726.67	2441.18
726.85	2576.34
727.03	2981.84
727.21	4192.19
727.39	5834.66
727.57	6627.23
727.76	7294.86
727.94	7714.70
728.12	7018.39
728.30	5547.95
728.48	4880.31
728.66	4571.07
728.84	4061.12
729.03	3555.27
729.21	3352.52
729.39	2883.54
729.57	2678.74
729.75	2562.01
729.93	2605.02
730.11	2408.41
730.30	2469.85
730.48	2523.10
730.66	2672.60
730.84	2539.48
731.02	2475.99
731.20	2447.32
731.38	2519.00
731.56	2355.16
731.74	2359.26
731.93	2445.27
732.11	2455.51
732.29	2533.34
732.47	2602.97
732.65	2564.06
732.83	2633.69
733.01	2492.38
733.19	2420.70
733.37	2568.15
733.56	2502.62
733.74	2342.88
733.92	2650.07
734.10	2359.26
734.28	2543.58
734.46	2314.20
734.64	2535.39
734.82	2506.71
735.00	2480.09
735.18	2498.52
735.36	2504.67
735.54	2453.47
735.73	2512.86
735.91	2465.75
736.09	2600.92
736.27	2412.51
736.45	2498.52
736.63	2217.95
736.81	2342.88
736.99	2596.82
737.17	2580.44
737.35	2328.54
737.53	2543.58
737.71	2432.99
737.89	2619.35
738.07	2363.36
738.25	2367.45
738.43	2326.49
738.61	2408.41
738.80	2308.06
738.98	2359.26
739.16	2412.51
739.34	2379.74
739.52	2623.45
739.70	2400.22
739.88	2557.91
740.06	2613.21
740.24	2248.67
740.42	2715.61
740.60	2267.10
740.78	2394.08
740.96	2273.25
741.14	2363.36
741.32	2506.71
741.50	2234.33
741.68	2750.42
741.86	2662.36
742.04	2351.07
742.22	2351.07
742.40	2461.66
742.58	2611.16
742.76	2402.27
742.94	2564.06
743.12	2355.16
743.30	2469.85
743.48	2535.39
743.66	2439.13
743.84	2514.91
744.02	2512.86
744.20	2486.23
744.38	2363.36
744.56	2416.60
744.74	2725.85
744.92	2537.43
745.10	2662.36
745.28	2557.91
745.46	2666.46
745.64	2490.33
745.82	2545.63
746.00	2484.19
746.18	2586.58
746.36	2400.22
746.54	2473.95
746.72	2418.65
746.90	2367.45
747.08	2607.06
747.26	2357.21
747.44	2625.50
747.62	2525.15
747.80	2521.05
747.98	2506.71
748.15	2441.18
748.33	2705.37
748.51	2529.24
748.69	2557.91
748.87	2457.56
749.05	2441.18
749.23	2437.08
749.41	2457.56
749.59	2453.47
749.77	2547.67
749.95	2435.03
750.13	2398.17
750.31	2512.86
750.49	2537.43
750.67	2609.11
750.85	2539.48
751.03	2367.45
751.20	2756.57
751.38	2451.42
751.56	2418.65
751.74	2465.75
751.92	2426.84
752.10	2346.97
752.28	2584.54
752.46	2410.46
752.64	2420.70
752.82	2525.15
753.00	2662.36
753.18	2428.89
753.35	2392.03
753.53	2555.86
753.71	2443.23
753.89	2596.82
754.07	2564.06
754.25	2643.93
754.43	2408.41
754.61	2392.03
754.79	2537.43
754.97	2392.03
755.14	2617.30
755.32	2283.49
755.50	2455.51
755.68	2529.24
755.86	2299.87
756.04	2414.56
756.22	2228.19
756.40	2504.67
756.57	2658.26
756.75	2326.49
756.93	2617.30
757.11	2592.73
757.29	2453.47
757.47	2375.64
757.65	2285.53
757.82	2220.00
758.00	2342.88
758.18	2414.56
758.36	2365.40
758.54	2672.60
758.72	2285.53
758.90	2611.16
759.07	2586.58
759.25	2410.46
759.43	2492.38
759.61	2346.97
759.79	3565.51
759.97	2584.54
760.15	2402.27
760.32	2293.72
760.50	2473.95
760.68	2650.07
760.86	2269.15
761.04	2570.20
761.22	2578.39
761.39	2545.63
761.57	2529.24
761.75	2453.47
761.93	2537.43
762.11	2521.05
762.28	2469.85
762.46	2377.69
762.64	2633.69
762.82	2299.87
763.00	2400.22
763.18	2600.92
763.35	2406.36
763.53	2580.44
763.71	2551.77
763.89	2418.65
764.07	2488.28
764.24	2392.03
764.42	2531.29
764.60	2318.30
764.78	2473.95
764.96	2674.65
765.13	2588.63
765.31	2447.32
765.49	2619.35
765.67	2385.88
765.84	2392.03
766.02	2389.98
766.20	2310.11
766.38	2473.95
766.56	2615.26
766.73	2498.52
766.91	2478.04
767.09	2484.19
767.27	2432.99
767.44	2414.56
767.62	2504.67
767.80	2531.29
767.98	2449.37
768.15	2416.60
768.33	2613.21
768.51	2576.34
768.69	2527.19
768.87	2486.23
769.04	2535.39
769.22	2688.98
769.40	2654.17
769.58	2793.43
769.75	2527.19
769.93	2684.89
770.11	2449.37
770.28	2367.45
770.46	2580.44
770.64	2539.48
770.82	2449.37
770.99	2441.18
771.17	2514.91
771.35	2490.33
771.53	2435.03
771.70	2463.71
771.88	2510.81
772.06	2492.38
772.23	2439.13
772.41	2490.33
772.59	2420.70
772.77	2297.82
772.94	2494.43
773.12	2465.75
773.30	2412.51
773.47	2564.06
773.65	2402.27
773.83	2707.41
774.01	2453.47
774.18	2228.19
774.36	2506.71
774.54	2242.53
774.71	2545.63
774.89	2324.44
775.07	2396.12
775.24	2461.66
775.42	2490.33
775.60	2725.85
775.78	2332.64
775.95	2351.07
776.13	2303.96
776.31	2324.44
776.48	2469.85
776.66	2553.82
776.84	2424.80
777.01	2414.56
777.19	2428.89
777.37	2355.16
777.54	2572.25
777.72	2748.37
777.90	2486.23
778.07	2416.60
778.25	2899.92
778.43	2527.19
778.60	2420.70
778.78	2582.49
778.96	2645.98
779.13	2334.68
779.31	2514.91
779.49	2461.66
779.66	2543.58
779.84	2404.32
780.01	2461.66
780.19	2412.51
780.37	2613.21
780.54	2541.53
780.72	2330.59
780.90	2512.86
781.07	2424.80
781.25	2396.12
781.43	2559.96
781.60	2494.43
781.78	2629.59
781.95	2426.84
782.13	2451.42
782.31	2478.04
782.48	2283.49
782.66	2451.42
782.83	2703.32
783.01	2490.33
783.19	2672.60
783.36	2504.67
783.54	2332.64
783.72	2609.11
783.89	2494.43
784.07	2496.47
784.24	2463.71
784.42	2615.26
784.60	2408.41
784.77	2576.34
784.95	2258.91
785.12	2439.13
785.30	2463.71
785.47	2367.45
785.65	2324.44
785.83	2545.63
786.00	2344.92
786.18	2443.23
786.35	2303.96
786.53	2449.37
786.71	2643.93
786.88	2539.48
787.06	2506.71
787.23	2392.03
787.41	2381.79
787.58	2426.84
787.76	2349.02
787.94	2467.80
788.11	2441.18
788.29	2383.84
788.46	2357.21
788.64	2338.78
788.81	2334.68
788.99	2308.06
789.16	2394.08
789.34	2457.56
789.52	2482.14
789.69	2420.70
789.87	2220.00
790.04	2389.98
790.22	2441.18
790.39	2834.39
790.57	2400.22
790.74	2355.16
790.92	2576.34
791.09	2254.81
791.27	2469.85
791.44	2580.44
791.62	2508.76
791.79	2598.87
791.97	2449.37
792.15	2770.90
792.32	2596.82
792.50	2521.05
792.67	2553.82
792.85	2602.97
793.02	2539.48
793.20	2408.41
793.37	2367.45
793.55	2383.84
793.72	2385.88
793.90	2592.73
794.07	2432.99
794.25	2355.16
794.42	2523.10
794.60	2512.86
794.77	2482.14
794.95	2576.34
795.12	2633.69
795.30	2430.94
795.47	2310.11
795.65	2760.66
795.82	2473.95
796.00	2328.54
796.17	2488.28
796.34	2310.11
796.52	2519.00
796.69	2557.91
796.87	2572.25
797.04	2523.10
797.22	2566.10
797.39	2541.53
797.57	2564.06
797.74	2461.66
797.92	2482.14
798.09	2408.41
798.27	2725.85
798.44	2457.56
798.62	2422.75
798.79	2512.86
798.96	2568.15
799.14	2461.66
799.31	2865.11
799.49	2490.33
799.66	2406.36
799.84	2432.99
800.01	2342.88
800.19	2465.75
800.36	2236.38
800.53	2459.61
800.71	2570.20
800.88	2637.78
801.06	2449.37
801.23	2437.08
801.41	2461.66
801.58	2459.61
801.75	2435.03
801.93	2469.85
802.10	2539.48
802.28	2414.56
802.45	2449.37
802.63	2547.67
802.80	2674.65
802.97	2488.28
803.15	2564.06
803.32	2373.60
803.50	2486.23
803.67	2353.12
803.84	2312.16
804.02	2424.80
804.19	2428.89
804.37	2203.61
804.54	2316.25
804.71	2463.71
804.89	2467.80
805.06	2377.69
805.24	2420.70
805.41	2410.46
805.58	2318.30
805.76	2768.85
805.93	2459.61
806.10	2500.57
806.28	2551.77
806.45	2512.86
806.63	2521.05
806.80	2502.62
806.97	2559.96
807.15	2484.19
807.32	2475.99
807.49	2498.52
807.67	2332.64
807.84	2486.23
808.01	2244.57
808.19	2637.78
808.36	2715.61
808.54	2432.99
808.71	2435.03
808.88	2422.75
809.06	2617.30
809.23	2658.26
809.40	2308.06
809.58	2447.32
809.75	2482.14
809.92	2334.68
810.10	2629.59
810.27	2432.99
810.44	2510.81
810.62	2557.91
810.79	2453.47
810.96	2332.64
811.14	2398.17
811.31	2529.24
811.48	2617.30
811.66	2465.75
811.83	2580.44
812.00	2449.37
812.18	2555.86
812.35	2729.94
812.52	2461.66
812.69	2410.46
812.87	2387.93
813.04	2383.84
813.21	2529.24
813.39	2416.60
813.56	2342.88
813.73	2564.06
813.91	2326.49
814.08	2478.04
814.25	2441.18
814.42	2318.30
814.60	2447.32
814.77	2529.24
814.94	2439.13
815.12	2504.67
815.29	2684.89
815.46	2359.26
815.63	2496.47
815.81	2408.41
815.98	2459.61
816.15	2428.89
816.33	2441.18
816.50	2408.41
816.67	2461.66
816.84	2408.41
817.02	2291.68
817.19	2484.19
817.36	2504.67
817.53	2516.95
817.71	2371.55
817.88	2496.47
818.05	2471.90
818.22	2457.56
818.40	2637.78
818.57	2455.51
818.74	2545.63
818.91	2420.70
819.09	2529.24
819.26	2592.73
819.43	2424.80
819.60	2432.99
819.78	2578.39
819.95	2607.06
820.12	2342.88
820.29	2627.54
820.47	2584.54
820.64	2365.40
820.81	2336.73
820.98	2367.45
821.15	2392.03
821.33	2533.34
821.50	2217.95
821.67	2512.86
821.84	2389.98
822.02	2510.81
822.19	2623.45
822.36	2406.36
822.53	2389.98
822.70	2289.63
822.88	2478.04
823.05	2645.98
823.22	2449.37
823.39	2498.52
823.56	2496.47
823.74	2752.47
823.91	2428.89
824.08	2303.96
824.25	2273.25
824.42	2674.65
824.60	2336.73
824.77	2512.86
824.94	2480.09
825.11	2494.43
825.28	2303.96
825.45	2602.97
825.63	2455.51
825.80	2410.46
825.97	2459.61
826.14	2488.28
826.31	2277.34
826.48	2523.10
826.66	2371.55
826.83	2424.80
827.00	2471.90
827.17	2371.55
827.34	2389.98
827.51	2428.89
827.69	2355.16
827.86	2365.40
828.03	2457.56
828.20	2447.32
828.37	2418.65
828.54	2559.96
828.71	2334.68
828.89	2602.97
829.06	2471.90
829.23	2623.45
829.40	2330.59
829.57	2486.23
829.74	2572.25
829.91	2437.08
830.09	2340.83
830.26	2504.67
830.43	2602.97
830.60	2414.56
830.77	2533.34
830.94	2545.63
831.11	2521.05
831.28	2486.23
831.46	2551.77
831.63	2410.46
831.80	2637.78
831.97	2359.26
832.14	2432.99
832.31	2447.32
832.48	2453.47
832.65	2611.16
832.82	2498.52
832.99	2478.04
833.17	2385.88
833.34	2650.07
833.51	2432.99
833.68	2230.24
833.85	2637.78
834.02	2271.20
834.19	2322.40
834.36	2346.97
834.53	2428.89
834.70	2582.49
834.87	2498.52
835.04	2344.92
835.22	2381.79
835.39	2443.23
835.56	2271.20
835.73	2375.64
835.90	2590.68
836.07	2383.84
836.24	2480.09
836.41	2394.08
836.58	2414.56
836.75	2580.44
836.92	2389.98
837.09	2316.25
837.26	2449.37
837.43	2516.95
837.60	2447.32
837.77	2379.74
837.94	2545.63
838.12	2566.10
838.29	2371.55
838.46	2230.24
838.63	2375.64
838.80	2701.27
838.97	2529.24
839.14	2449.37
839.31	2516.95
839.48	2580.44
839.65	2414.56
839.82	2439.13
839.99	2480.09
840.16	2523.10
840.33	2412.51
840.50	2439.13
840.67	2375.64
840.84	2170.85
841.01	2418.65
841.18	2324.44
841.35	2420.70
841.52	2537.43
841.69	2658.26
841.86	2412.51
842.03	2490.33
842.20	2637.78
842.37	2387.93
842.54	2371.55
842.71	2418.65
842.88	2277.34
843.05	2447.32
843.22	2426.84
843.39	2553.82
843.56	2359.26
843.73	2451.42
843.90	2422.75
844.07	2496.47
844.24	2590.68
844.41	2449.37
844.58	2449.37
844.75	2461.66
844.92	2455.51
845.09	2398.17
845.26	2258.91
845.43	2545.63
845.60	2453.47
845.77	2539.48
845.94	2451.42
846.10	2576.34
846.27	2246.62
846.44	2285.53
846.61	2316.25
846.78	2564.06
846.95	2535.39
847.12	2367.45
847.29	2441.18
847.46	2351.07
847.63	2580.44
847.80	2351.07
847.97	2439.13
848.14	2686.94
848.31	2420.70
848.48	2293.72
848.65	2330.59
848.82	2471.90
848.98	2793.43
849.15	2439.13
849.32	2473.95
849.49	2580.44
849.66	2435.03
849.83	2398.17
850.00	2320.35
850.17	2543.58
850.34	2428.89
850.51	2396.12
850.68	2379.74
850.85	2781.14
851.01	2482.14
851.18	2422.75
851.35	2394.08
851.52	2473.95
851.69	2738.13
851.86	2318.30
852.03	2330.59
852.20	2482.14
852.37	2441.18
852.53	2318.30
852.70	2324.44
852.87	2490.33
853.04	2547.67
853.21	2367.45
853.38	2537.43
853.55	2605.02
853.72	2635.74
853.89	2367.45
854.05	2363.36
854.22	2447.32
854.39	2424.80
854.56	2342.88
854.73	2484.19
854.90	2342.88
855.07	2453.47
855.23	2377.69
855.40	2349.02
855.57	2353.12
855.74	2228.19
855.91	2543.58
856.08	2322.40
856.25	2338.78
856.41	2392.03
856.58	2367.45
856.75	2398.17
856.92	2389.98
857.09	2617.30
857.26	2187.23
857.42	2420.70
857.59	2512.86
857.76	2408.41
857.93	2473.95
858.10	2443.23
858.27	2283.49
858.43	2500.57
858.60	2303.96
858.77	2314.20
858.94	2346.97
859.11	2596.82
859.27	2463.71
859.44	2256.86
859.61	2654.17
859.78	2549.72
859.95	2392.03
860.12	2312.16
860.28	2621.40
860.45	2682.84
860.62	2326.49
860.79	2428.89
860.95	2371.55
861.12	2389.98
861.29	2351.07
861.46	2318.30
861.63	2392.03
861.79	2490.33
861.96	2367.45
862.13	2318.30
862.30	2580.44
862.47	2400.22
862.63	2244.57
862.80	2416.60
862.97	2545.63
863.14	2498.52
863.30	2392.03
863.47	2365.40
863.64	2613.21
863.81	2519.00
863.97	2379.74
864.14	2377.69
864.31	2441.18
864.48	2537.43
864.65	2340.83
864.81	2465.75
864.98	2516.95
865.15	2549.72
865.32	2467.80
865.48	2488.28
865.65	2613.21
865.82	2416.60
865.98	2488.28
866.15	2424.80
866.32	2439.13
866.49	2412.51
866.65	2555.86
866.82	2279.39
866.99	2428.89
867.16	2439.13
867.32	2371.55
867.49	2342.88
867.66	2504.67
867.83	2471.90
867.99	2250.72
868.16	2338.78
868.33	2326.49
868.49	2486.23
868.66	2387.93
868.83	2457.56
868.99	2473.95
869.16	2523.10
869.33	2498.52
869.50	2447.32
869.66	2351.07
869.83	2461.66
870.00	2314.20
870.16	2445.27
870.33	2486.23
870.50	2617.30
870.66	2400.22
870.83	2523.10
871.00	2473.95
871.17	2531.29
871.33	2408.41
871.50	2357.21
871.67	2404.32
871.83	2232.29
872.00	2531.29
872.17	2285.53
872.33	2740.18
872.50	2621.40
872.67	2416.60
872.83	2299.87
873.00	2578.39
873.17	2521.05
873.33	2432.99
873.50	2457.56
873.67	2357.21
873.83	2336.73
874.00	2332.64
874.16	2514.91
874.33	2428.89
874.50	2340.83
874.66	2375.64
874.83	2424.80
875.00	2537.43
875.16	2590.68
875.33	2531.29
875.50	2217.95
875.66	2381.79
875.83	2480.09
875.99	2447.32
876.16	2482.14
876.33	2353.12
876.49	2432.99
876.66	2473.95
876.83	2402.27
876.99	2297.82
877.16	2414.56
877.32	2316.25
877.49	2396.12
877.66	2490.33
877.82	2662.36
877.99	2424.80
878.15	2469.85
878.32	2508.76
878.49	2535.39
878.65	2408.41
878.82	2547.67
878.98	2445.27
879.15	2523.10
879.32	2562.01
879.48	2459.61
879.65	2447.32
879.81	2445.27
879.98	2383.84
880.15	2410.46
880.31	2527.19
880.48	2420.70
880.64	2527.19
880.81	2441.18
880.97	2674.65
881.14	2596.82
881.31	2447.32
881.47	2545.63
881.64	2506.71
881.80	2342.88
881.97	2381.79
882.13	2375.64
882.30	2367.45
882.47	2432.99
882.63	2355.16
882.80	2410.46
882.96	2412.51
883.13	2762.71
883.29	2301.92
883.46	2432.99
883.62	2736.09
883.79	2486.23
883.95	2510.81
884.12	2326.49
884.29	2639.83
884.45	2490.33
884.62	2482.14
884.78	2369.50
884.95	2709.46
885.11	2400.22
885.28	2414.56
885.44	2342.88
885.61	2551.77
885.77	2590.68
885.94	2453.47
886.10	2435.03
886.27	2506.71
886.43	2676.70
886.60	2471.90
886.76	2404.32
886.93	2408.41
887.09	2547.67
887.26	2250.72
887.42	2412.51
887.59	2637.78
887.75	2795.48
887.92	2545.63
888.08	2519.00
888.25	2744.28
888.41	2547.67
888.58	2400.22
888.74	2193.37
888.91	2471.90
>>>>>End Processed Spectral Data<<<<<
