SpectraSuite Data File
++++++++++++++++++++++++++++++++++++
Date: Thu May 05 14:42:13 CEST 2016
User: root
Dark Spectrum Present: No
Reference Spectrum Present: No
Number of Sampled Component Spectra: 1
Spectrometers: USB4C02835
Integration Time (usec): 100000 (USB4C02835)
Spectra Averaged: 1 (USB4C02835)
Boxcar Smoothing: 0 (USB4C02835)
Correct for Electrical Dark: No (USB4C02835)
Strobe/Lamp Enabled: No (USB4C02835)
Correct for Detector Non-linearity: No (USB4C02835)
Correct for Stray Light: No (USB4C02835)
Number of Pixels in Processed Spectrum: 3648
>>>>>Begin Processed Spectral Data<<<<<
177.47	1875.94
177.69	1875.94
177.91	1875.94
178.13	1888.23
178.36	1880.04
178.58	2371.55
178.80	2457.56
179.02	2330.59
179.24	2400.22
179.46	2346.97
179.68	2355.16
179.90	2422.75
180.13	2465.75
180.35	2215.90
180.57	2334.68
180.79	2553.82
181.01	2465.75
181.23	2404.32
181.45	2396.12
181.67	2498.52
181.90	2607.06
182.12	2326.49
182.34	2299.87
182.56	2578.39
182.78	2514.91
183.00	2330.59
183.22	2414.56
183.44	2246.62
183.66	2779.09
183.89	2432.99
184.11	2455.51
184.33	2506.71
184.55	2508.76
184.77	2398.17
184.99	2424.80
185.21	2428.89
185.43	2813.91
185.65	2267.10
185.87	2326.49
186.10	2813.91
186.32	2803.67
186.54	2416.60
186.76	2506.71
186.98	2668.50
187.20	2547.67
187.42	2369.50
187.64	2381.79
187.86	2473.95
188.08	2580.44
188.30	2367.45
188.52	2291.68
188.75	2670.55
188.97	2539.48
189.19	2306.01
189.41	2312.16
189.63	2551.77
189.85	2332.64
190.07	2248.67
190.29	2187.23
190.51	2545.63
190.73	2285.53
190.95	2441.18
191.17	2451.42
191.39	2330.59
191.61	2461.66
191.84	2367.45
192.06	2461.66
192.28	2291.68
192.50	2856.92
192.72	2418.65
192.94	2363.36
193.16	2506.71
193.38	2553.82
193.60	2297.82
193.82	2439.13
194.04	2574.30
194.26	2484.19
194.48	2408.41
194.70	2357.21
194.92	2514.91
195.14	2596.82
195.36	2273.25
195.58	2400.22
195.80	2494.43
196.02	2426.84
196.24	2301.92
196.46	2340.83
196.69	2441.18
196.91	2820.05
197.13	2273.25
197.35	2371.55
197.57	2697.17
197.79	2533.34
198.01	2373.60
198.23	2420.70
198.45	2574.30
198.67	2379.74
198.89	2226.14
199.11	2422.75
199.33	2416.60
199.55	2224.09
199.77	2314.20
199.99	2447.32
200.21	2439.13
200.43	2617.30
200.65	2267.10
200.87	2187.23
201.09	2521.05
201.31	2430.94
201.53	2359.26
201.75	2418.65
201.97	2539.48
202.19	2504.67
202.41	2353.12
202.63	2547.67
202.85	2543.58
203.07	2484.19
203.29	2420.70
203.51	2277.34
203.73	2396.12
203.95	2793.43
204.17	2416.60
204.39	2404.32
204.61	2498.52
204.83	2428.89
205.05	2461.66
205.27	2412.51
205.49	2711.51
205.71	2506.71
205.93	2195.42
206.15	2318.30
206.37	2480.09
206.59	2432.99
206.81	2152.42
207.03	2269.15
207.25	2355.16
207.47	2641.88
207.69	2334.68
207.91	2547.67
208.13	2668.50
208.34	2373.60
208.56	2283.49
208.78	2404.32
209.00	2416.60
209.22	2392.03
209.44	2318.30
209.66	2299.87
209.88	2525.15
210.10	2473.95
210.32	2383.84
210.54	2576.34
210.76	2416.60
210.98	2559.96
211.20	2226.14
211.42	2375.64
211.64	2650.07
211.86	2465.75
212.08	2453.47
212.30	2365.40
212.52	2416.60
212.74	2576.34
212.96	2432.99
213.17	2400.22
213.39	2623.45
213.61	2707.41
213.83	2252.77
214.05	2310.11
214.27	2617.30
214.49	2349.02
214.71	2318.30
214.93	2482.14
215.15	2461.66
215.37	2621.40
215.59	2279.39
215.81	2443.23
216.03	2594.78
216.24	2486.23
216.46	2387.93
216.68	2381.79
216.90	2662.36
217.12	2502.62
217.34	2299.87
217.56	2461.66
217.78	2617.30
218.00	2578.39
218.22	2389.98
218.44	2377.69
218.66	2527.19
218.87	2672.60
219.09	2351.07
219.31	2357.21
219.53	2523.10
219.75	2363.36
219.97	2383.84
220.19	2359.26
220.41	2392.03
220.63	2582.49
220.85	2277.34
221.06	2334.68
221.28	2512.86
221.50	2611.16
221.72	2310.11
221.94	2322.40
222.16	2523.10
222.38	2605.02
222.60	2381.79
222.82	2334.68
223.03	2605.02
223.25	2285.53
223.47	2375.64
223.69	2598.87
223.91	2555.86
224.13	2523.10
224.35	2199.52
224.57	2453.47
224.78	2502.62
225.00	2320.35
225.22	2357.21
225.44	2297.82
225.66	2539.48
225.88	2420.70
226.10	2424.80
226.32	2310.11
226.53	2668.50
226.75	2461.66
226.97	2371.55
227.19	2383.84
227.41	2455.51
227.63	2387.93
227.85	2242.53
228.06	2387.93
228.28	2543.58
228.50	2551.77
228.72	2273.25
228.94	2318.30
229.16	2271.20
229.37	2322.40
229.59	2250.72
229.81	2508.76
230.03	2457.56
230.25	2342.88
230.47	2273.25
230.69	2332.64
230.90	2551.77
231.12	2357.21
231.34	2494.43
231.56	2394.08
231.78	2402.27
232.00	2537.43
232.21	2392.03
232.43	2437.08
232.65	2269.15
232.87	2492.38
233.09	2252.77
233.30	2240.48
233.52	2592.73
233.74	2416.60
233.96	2273.25
234.18	2496.47
234.40	2471.90
234.61	2826.20
234.83	2234.33
235.05	2277.34
235.27	2815.96
235.49	2629.59
235.70	2332.64
235.92	2404.32
236.14	2490.33
236.36	2803.67
236.58	2254.81
236.79	2426.84
237.01	2432.99
237.23	2465.75
237.45	2570.20
237.67	2396.12
237.88	2494.43
238.10	2695.13
238.32	2271.20
238.54	2306.01
238.76	2488.28
238.97	2418.65
239.19	2232.29
239.41	2396.12
239.63	2568.15
239.85	2377.69
240.06	2361.31
240.28	2357.21
240.50	2637.78
240.72	2461.66
240.93	2340.83
241.15	2455.51
241.37	2424.80
241.59	2660.31
241.81	2318.30
242.02	2392.03
242.24	2586.58
242.46	2531.29
242.68	2271.20
242.89	2359.26
243.11	2629.59
243.33	2457.56
243.55	2457.56
243.76	2432.99
243.98	2400.22
244.20	2469.85
244.42	2353.12
244.64	2332.64
244.85	2332.64
245.07	2424.80
245.29	2342.88
245.51	2373.60
245.72	2506.71
245.94	2613.21
246.16	2340.83
246.38	2426.84
246.59	2392.03
246.81	2396.12
247.03	2361.31
247.24	2215.90
247.46	2344.92
247.68	2527.19
247.90	2293.72
248.11	2338.78
248.33	2576.34
248.55	2416.60
248.77	2381.79
248.98	2424.80
249.20	2635.74
249.42	2490.33
249.64	2408.41
249.85	2381.79
250.07	2340.83
250.29	2611.16
250.50	2449.37
250.72	2346.97
250.94	2535.39
251.16	2762.71
251.37	2381.79
251.59	2432.99
251.81	2486.23
252.02	2727.89
252.24	2308.06
252.46	2494.43
252.68	2353.12
252.89	2445.27
253.11	2209.76
253.33	2574.30
253.54	2643.93
253.76	2365.40
253.98	2332.64
254.20	2291.68
254.41	2291.68
254.63	2516.95
254.85	2248.67
255.06	2387.93
255.28	2482.14
255.50	2385.88
255.71	2273.25
255.93	2185.18
256.15	2439.13
256.36	2506.71
256.58	2252.77
256.80	2336.73
257.02	2402.27
257.23	2424.80
257.45	2359.26
257.67	2396.12
257.88	2398.17
258.10	2523.10
258.32	2285.53
258.53	2432.99
258.75	2643.93
258.97	2361.31
259.18	2328.54
259.40	2357.21
259.62	2725.85
259.83	2625.50
260.05	2396.12
260.27	2889.68
260.48	2557.91
260.70	2365.40
260.92	2236.38
261.13	2389.98
261.35	2465.75
261.57	2596.82
261.78	2250.72
262.00	2273.25
262.22	2592.73
262.43	2342.88
262.65	2404.32
262.86	2322.40
263.08	2711.51
263.30	2566.10
263.51	2191.33
263.73	2363.36
263.95	2629.59
264.16	2437.08
264.38	2285.53
264.60	2375.64
264.81	2494.43
265.03	2609.11
265.25	2635.74
265.46	2326.49
265.68	2719.70
265.89	2578.39
266.11	2191.33
266.33	2359.26
266.54	2615.26
266.76	2572.25
266.98	2471.90
267.19	2455.51
267.41	2635.74
267.62	2473.95
267.84	2195.42
268.06	2441.18
268.27	2449.37
268.49	2639.83
268.70	2416.60
268.92	2369.50
269.14	2365.40
269.35	2289.63
269.57	2428.89
269.79	2420.70
270.00	2414.56
270.22	2688.98
270.43	2195.42
270.65	2172.89
270.87	2527.19
271.08	2596.82
271.30	2471.90
271.51	2414.56
271.73	2539.48
271.95	2711.51
272.16	2285.53
272.38	2478.04
272.59	2441.18
272.81	2559.96
273.02	2371.55
273.24	2412.51
273.46	2590.68
273.67	2406.36
273.89	2281.44
274.10	2306.01
274.32	2641.88
274.54	2584.54
274.75	2439.13
274.97	2359.26
275.18	2590.68
275.40	2576.34
275.61	2394.08
275.83	2461.66
276.05	2312.16
276.26	2469.85
276.48	2449.37
276.69	2428.89
276.91	2463.71
277.12	2605.02
277.34	2496.47
277.55	2512.86
277.77	2537.43
277.99	2383.84
278.20	2355.16
278.42	2330.59
278.63	2320.35
278.85	2457.56
279.06	2363.36
279.28	2512.86
279.49	2697.17
279.71	2555.86
279.93	2449.37
280.14	2432.99
280.36	2346.97
280.57	2566.10
280.79	2504.67
281.00	2344.92
281.22	2351.07
281.43	2662.36
281.65	2263.01
281.86	2373.60
282.08	2521.05
282.29	2711.51
282.51	2326.49
282.73	2277.34
282.94	2258.91
283.16	2510.81
283.37	2523.10
283.59	2496.47
283.80	2488.28
284.02	2519.00
284.23	2455.51
284.45	2414.56
284.66	2369.50
284.88	2322.40
285.09	2449.37
285.31	2529.24
285.52	2514.91
285.74	2226.14
285.95	2549.72
286.17	2392.03
286.38	2660.31
286.60	2367.45
286.81	2379.74
287.03	2414.56
287.24	2449.37
287.46	2625.50
287.67	2441.18
287.89	2637.78
288.10	2478.04
288.32	2572.25
288.53	2484.19
288.75	2430.94
288.96	2545.63
289.18	2430.94
289.39	2408.41
289.61	2473.95
289.82	2684.89
290.04	2719.70
290.25	2320.35
290.47	2439.13
290.68	2478.04
290.90	2559.96
291.11	2275.29
291.33	2545.63
291.54	2359.26
291.76	2375.64
291.97	2396.12
292.18	2461.66
292.40	2435.03
292.61	2432.99
292.83	2645.98
293.04	2514.91
293.26	2455.51
293.47	2494.43
293.69	2289.63
293.90	2398.17
294.12	2744.28
294.33	2412.51
294.55	2465.75
294.76	2557.91
294.97	2607.06
295.19	2736.09
295.40	2447.32
295.62	2471.90
295.83	2629.59
296.05	2406.36
296.26	2568.15
296.48	2336.73
296.69	2502.62
296.90	2375.64
297.12	2512.86
297.33	2555.86
297.55	2502.62
297.76	2432.99
297.98	2432.99
298.19	2441.18
298.41	2482.14
298.62	2361.31
298.83	2621.40
299.05	2473.95
299.26	2361.31
299.48	2359.26
299.69	2451.42
299.90	2437.08
300.12	2406.36
300.33	2545.63
300.55	2496.47
300.76	2441.18
300.98	2336.73
301.19	2467.80
301.40	2441.18
301.62	2406.36
301.83	2529.24
302.05	2465.75
302.26	2392.03
302.47	2408.41
302.69	2369.50
302.90	2607.06
303.12	2301.92
303.33	2531.29
303.54	2777.05
303.76	2467.80
303.97	2439.13
304.19	2625.50
304.40	2457.56
304.61	2553.82
304.83	2629.59
305.04	2543.58
305.26	2531.29
305.47	2496.47
305.68	2392.03
305.90	2326.49
306.11	2652.12
306.33	2408.41
306.54	2310.11
306.75	2351.07
306.97	2299.87
307.18	2373.60
307.39	2389.98
307.61	2545.63
307.82	2383.84
308.04	2478.04
308.25	2316.25
308.46	2514.91
308.68	2533.34
308.89	2447.32
309.10	2498.52
309.32	2510.81
309.53	2549.72
309.74	2588.63
309.96	2355.16
310.17	2492.38
310.39	2416.60
310.60	2578.39
310.81	2428.89
311.03	2322.40
311.24	2553.82
311.45	2471.90
311.67	2633.69
311.88	2496.47
312.09	2424.80
312.31	2416.60
312.52	2406.36
312.73	2394.08
312.95	2277.34
313.16	2361.31
313.37	2547.67
313.59	2490.33
313.80	2572.25
314.01	2662.36
314.23	2441.18
314.44	2383.84
314.65	2318.30
314.87	2422.75
315.08	2402.27
315.29	2392.03
315.51	2338.78
315.72	2248.67
315.93	2594.78
316.15	2469.85
316.36	2408.41
316.57	2463.71
316.79	2455.51
317.00	2412.51
317.21	2598.87
317.43	2375.64
317.64	2441.18
317.85	2342.88
318.07	2414.56
318.28	2379.74
318.49	2547.67
318.70	2723.80
318.92	2592.73
319.13	2707.41
319.34	2682.84
319.56	2510.81
319.77	2621.40
319.98	2674.65
320.20	2580.44
320.41	2484.19
320.62	2598.87
320.83	2408.41
321.05	2617.30
321.26	2529.24
321.47	2465.75
321.69	2578.39
321.90	2277.34
322.11	2332.64
322.32	2539.48
322.54	2670.55
322.75	2437.08
322.96	2809.81
323.18	2357.21
323.39	2209.76
323.60	2342.88
323.81	2508.76
324.03	2408.41
324.24	2463.71
324.45	2478.04
324.66	2396.12
324.88	2553.82
325.09	2654.17
325.30	2412.51
325.52	2383.84
325.73	2502.62
325.94	2359.26
326.15	2297.82
326.37	2289.63
326.58	2580.44
326.79	2691.03
327.00	2365.40
327.22	2441.18
327.43	2410.46
327.64	2326.49
327.85	2555.86
328.07	2467.80
328.28	2736.09
328.49	2416.60
328.70	2385.88
328.92	2406.36
329.13	2514.91
329.34	2596.82
329.55	2568.15
329.76	2545.63
329.98	2531.29
330.19	2652.12
330.40	2514.91
330.61	2496.47
330.83	2564.06
331.04	2381.79
331.25	2478.04
331.46	2551.77
331.68	2349.02
331.89	2551.77
332.10	2437.08
332.31	2213.85
332.52	2392.03
332.74	2586.58
332.95	2301.92
333.16	2408.41
333.37	2588.63
333.58	2428.89
333.80	2428.89
334.01	2213.85
334.22	2525.15
334.43	2396.12
334.64	2351.07
334.86	2252.77
335.07	2471.90
335.28	2652.12
335.49	2318.30
335.70	2523.10
335.92	2625.50
336.13	2789.33
336.34	2439.13
336.55	2422.75
336.76	2473.95
336.98	2271.20
337.19	2412.51
337.40	2559.96
337.61	2914.26
337.82	2383.84
338.04	2465.75
338.25	2246.62
338.46	2363.36
338.67	2410.46
338.88	2357.21
339.09	2320.35
339.31	2412.51
339.52	2383.84
339.73	2344.92
339.94	2471.90
340.15	2475.99
340.36	2361.31
340.58	2346.97
340.79	2416.60
341.00	2570.20
341.21	2326.49
341.42	2586.58
341.63	2371.55
341.85	2613.21
342.06	2478.04
342.27	2418.65
342.48	2533.34
342.69	2359.26
342.90	2537.43
343.12	2623.45
343.33	2283.49
343.54	2539.48
343.75	2592.73
343.96	2504.67
344.17	2377.69
344.38	2490.33
344.60	2293.72
344.81	2392.03
345.02	2430.94
345.23	2658.26
345.44	2764.76
345.65	2420.70
345.86	2457.56
346.07	2545.63
346.29	2367.45
346.50	2514.91
346.71	2475.99
346.92	2619.35
347.13	2766.81
347.34	2394.08
347.55	2336.73
347.76	2596.82
347.98	2267.10
348.19	2459.61
348.40	2531.29
348.61	2527.19
348.82	2594.78
349.03	2512.86
349.24	2357.21
349.45	2680.79
349.66	2324.44
349.88	2432.99
350.09	2346.97
350.30	2660.31
350.51	2623.45
350.72	2506.71
350.93	2482.14
351.14	2478.04
351.35	2478.04
351.56	2435.03
351.77	2424.80
351.99	2502.62
352.20	2658.26
352.41	2482.14
352.62	2271.20
352.83	2435.03
353.04	2465.75
353.25	2402.27
353.46	2445.27
353.67	2564.06
353.88	2322.40
354.09	2349.02
354.30	2445.27
354.52	2516.95
354.73	2529.24
354.94	2357.21
355.15	2312.16
355.36	2766.81
355.57	2383.84
355.78	2383.84
355.99	2326.49
356.20	2521.05
356.41	2650.07
356.62	2506.71
356.83	2529.24
357.04	2695.13
357.25	2252.77
357.46	2359.26
357.68	2289.63
357.89	2392.03
358.10	2445.27
358.31	2320.35
358.52	2521.05
358.73	2301.92
358.94	2340.83
359.15	2416.60
359.36	2457.56
359.57	2557.91
359.78	2506.71
359.99	2514.91
360.20	2353.12
360.41	2428.89
360.62	2531.29
360.83	2432.99
361.04	2420.70
361.25	2512.86
361.46	2734.04
361.67	2502.62
361.88	2435.03
362.09	2574.30
362.30	2529.24
362.51	2306.01
362.72	2469.85
362.93	2596.82
363.14	2564.06
363.35	2541.53
363.56	2306.01
363.78	2643.93
363.99	2631.64
364.20	2410.46
364.41	2447.32
364.62	2695.13
364.83	2465.75
365.04	2420.70
365.25	2410.46
365.46	2734.04
365.67	2422.75
365.88	2392.03
366.09	2334.68
366.30	2400.22
366.51	2430.94
366.72	2252.77
366.93	2359.26
367.14	2445.27
367.35	2695.13
367.56	2402.27
367.77	2562.01
367.98	2437.08
368.18	2521.05
368.39	2582.49
368.60	2340.83
368.81	2617.30
369.02	2498.52
369.23	2449.37
369.44	2351.07
369.65	2449.37
369.86	2504.67
370.07	2551.77
370.28	2351.07
370.49	2508.76
370.70	2447.32
370.91	2308.06
371.12	2342.88
371.33	2564.06
371.54	2471.90
371.75	2584.54
371.96	2205.66
372.17	2465.75
372.38	2432.99
372.59	2484.19
372.80	2426.84
373.01	2539.48
373.22	2453.47
373.43	2422.75
373.64	2334.68
373.85	2641.88
374.06	2686.94
374.26	2521.05
374.47	2469.85
374.68	2670.55
374.89	2465.75
375.10	2422.75
375.31	2559.96
375.52	2527.19
375.73	2478.04
375.94	2285.53
376.15	2596.82
376.36	2418.65
376.57	2430.94
376.78	2455.51
376.99	2482.14
377.20	2648.02
377.40	2428.89
377.61	2652.12
377.82	2338.78
378.03	2658.26
378.24	2623.45
378.45	2342.88
378.66	2498.52
378.87	2240.48
379.08	2308.06
379.29	2332.64
379.50	2588.63
379.71	2506.71
379.91	2502.62
380.12	2432.99
380.33	2455.51
380.54	2545.63
380.75	2482.14
380.96	2430.94
381.17	2568.15
381.38	2508.76
381.59	2527.19
381.80	2455.51
382.00	2652.12
382.21	2531.29
382.42	2602.97
382.63	2709.46
382.84	2562.01
383.05	2652.12
383.26	2709.46
383.47	2478.04
383.68	2523.10
383.88	2596.82
384.09	2496.47
384.30	2680.79
384.51	2494.43
384.72	2449.37
384.93	2265.05
385.14	2473.95
385.35	2529.24
385.55	2314.20
385.76	2666.46
385.97	2375.64
386.18	2365.40
386.39	2445.27
386.60	2367.45
386.81	2475.99
387.02	2344.92
387.22	2383.84
387.43	2621.40
387.64	2531.29
387.85	2602.97
388.06	2672.60
388.27	4005.83
388.48	8238.98
388.68	11935.56
388.89	14626.59
389.10	15673.10
389.31	14737.18
389.52	11667.28
389.73	9944.94
389.93	9049.97
390.14	8384.38
390.35	7444.37
390.56	6641.56
390.77	5513.13
390.98	4026.31
391.18	3340.24
391.39	2990.03
391.60	2641.88
391.81	2592.73
392.02	2447.32
392.23	2779.09
392.43	2498.52
392.64	2576.34
392.85	2480.09
393.06	2686.94
393.27	2541.53
393.47	2346.97
393.68	2467.80
393.89	2428.89
394.10	2627.54
394.31	2478.04
394.52	2392.03
394.72	2398.17
394.93	2633.69
395.14	2351.07
395.35	2615.26
395.56	2471.90
395.76	2451.42
395.97	2449.37
396.18	2566.10
396.39	2676.70
396.60	3022.80
396.80	2664.41
397.01	2623.45
397.22	2629.59
397.43	2613.21
397.64	2441.18
397.84	2504.67
398.05	2711.51
398.26	2553.82
398.47	2527.19
398.67	2596.82
398.88	2586.58
399.09	2572.25
399.30	2359.26
399.51	2535.39
399.71	2365.40
399.92	2473.95
400.13	2547.67
400.34	2404.32
400.54	2490.33
400.75	2668.50
400.96	2351.07
401.17	2736.09
401.37	2551.77
401.58	2543.58
401.79	2422.75
402.00	2555.86
402.21	2832.34
402.41	2783.19
402.62	2785.24
402.83	2854.87
403.04	2936.79
403.24	3137.49
403.45	2547.67
403.66	2684.89
403.87	2697.17
404.07	2805.72
404.28	2668.50
404.49	2729.94
404.70	2510.81
404.90	2594.78
405.11	2504.67
405.32	2602.97
405.52	2539.48
405.73	2424.80
405.94	2441.18
406.15	2475.99
406.35	2654.17
406.56	2645.98
406.77	2410.46
406.98	2459.61
407.18	2414.56
407.39	2594.78
407.60	2330.59
407.80	2547.67
408.01	2475.99
408.22	2488.28
408.43	2400.22
408.63	2502.62
408.84	2596.82
409.05	2645.98
409.25	2402.27
409.46	2432.99
409.67	2447.32
409.88	2404.32
410.08	2535.39
410.29	2416.60
410.50	2564.06
410.70	2537.43
410.91	2351.07
411.12	2525.15
411.32	2490.33
411.53	2367.45
411.74	2506.71
411.95	2557.91
412.15	2609.11
412.36	2625.50
412.57	2543.58
412.77	2680.79
412.98	2559.96
413.19	2424.80
413.39	2529.24
413.60	2465.75
413.81	2656.22
414.01	2394.08
414.22	2549.72
414.43	2615.26
414.63	2400.22
414.84	2625.50
415.05	2465.75
415.25	2291.68
415.46	2580.44
415.67	2441.18
415.87	2457.56
416.08	2400.22
416.29	2422.75
416.49	2514.91
416.70	2490.33
416.91	2508.76
417.11	2410.46
417.32	2600.92
417.53	2498.52
417.73	2523.10
417.94	2529.24
418.15	2500.57
418.35	2461.66
418.56	2519.00
418.77	2818.00
418.97	2471.90
419.18	2523.10
419.38	2209.76
419.59	2441.18
419.80	2617.30
420.00	2502.62
420.21	2420.70
420.42	2635.74
420.62	2543.58
420.83	2338.78
421.04	2449.37
421.24	2445.27
421.45	2568.15
421.65	2428.89
421.86	2373.60
422.07	2686.94
422.27	2568.15
422.48	2449.37
422.69	2408.41
422.89	2519.00
423.10	2498.52
423.30	2338.78
423.51	2424.80
423.72	2500.57
423.92	2551.77
424.13	2404.32
424.33	2428.89
424.54	2635.74
424.75	2521.05
424.95	2574.30
425.16	2437.08
425.36	2412.51
425.57	2590.68
425.78	2562.01
425.98	2537.43
426.19	2469.85
426.39	2422.75
426.60	2486.23
426.81	2627.54
427.01	2414.56
427.22	2408.41
427.42	2248.67
427.63	2355.16
427.83	2543.58
428.04	2703.32
428.25	2600.92
428.45	2605.02
428.66	2615.26
428.86	2367.45
429.07	2406.36
429.28	2443.23
429.48	2514.91
429.69	2381.79
429.89	2424.80
430.10	2291.68
430.30	2586.58
430.51	2670.55
430.71	2381.79
430.92	2428.89
431.13	2432.99
431.33	2541.53
431.54	2488.28
431.74	2621.40
431.95	2711.51
432.15	2445.27
432.36	2494.43
432.56	2527.19
432.77	2707.41
432.98	2656.22
433.18	2490.33
433.39	2408.41
433.59	2416.60
433.80	2645.98
434.00	2629.59
434.21	2482.14
434.41	2420.70
434.62	2760.66
434.82	2326.49
435.03	2375.64
435.23	2506.71
435.44	2277.34
435.64	2445.27
435.85	2523.10
436.06	2531.29
436.26	2547.67
436.47	2412.51
436.67	2371.55
436.88	2414.56
437.08	2613.21
437.29	2678.74
437.49	2527.19
437.70	2555.86
437.90	2480.09
438.11	2613.21
438.31	2523.10
438.52	2633.69
438.72	2648.02
438.93	2731.99
439.13	2539.48
439.34	2660.31
439.54	2500.57
439.75	2582.49
439.95	2531.29
440.16	2496.47
440.36	2516.95
440.57	2463.71
440.77	2471.90
440.98	2463.71
441.18	2473.95
441.39	2467.80
441.59	2367.45
441.80	2680.79
442.00	2562.01
442.21	2539.48
442.41	2326.49
442.62	2584.54
442.82	2441.18
443.02	2428.89
443.23	2494.43
443.43	2478.04
443.64	2670.55
443.84	2324.44
444.05	2547.67
444.25	2467.80
444.46	2435.03
444.66	2437.08
444.87	2605.02
445.07	2332.64
445.28	2490.33
445.48	2615.26
445.69	2551.77
445.89	2805.72
446.09	2521.05
446.30	2670.55
446.50	2949.08
446.71	4614.07
446.91	5801.90
447.12	6641.56
447.32	6985.62
447.53	6602.65
447.73	5404.59
447.93	4814.77
448.14	4526.01
448.34	4396.99
448.55	3825.61
448.75	3844.04
448.96	3581.90
449.16	3252.17
449.36	3119.06
449.57	2670.55
449.77	2533.34
449.98	2467.80
450.18	2625.50
450.39	2527.19
450.59	2662.36
450.79	2525.15
451.00	2432.99
451.20	2588.63
451.41	2428.89
451.61	2621.40
451.81	2461.66
452.02	2416.60
452.22	2441.18
452.43	2420.70
452.63	2387.93
452.84	2543.58
453.04	2357.21
453.24	2484.19
453.45	2369.50
453.65	2387.93
453.86	2506.71
454.06	2510.81
454.26	2525.15
454.47	2394.08
454.67	2584.54
454.87	2572.25
455.08	2459.61
455.28	2568.15
455.49	2512.86
455.69	2457.56
455.89	2670.55
456.10	2576.34
456.30	2424.80
456.51	2617.30
456.71	2545.63
456.91	2580.44
457.12	2420.70
457.32	2537.43
457.52	2316.25
457.73	2609.11
457.93	2574.30
458.14	2437.08
458.34	2287.58
458.54	2404.32
458.75	2455.51
458.95	2629.59
459.15	2543.58
459.36	2478.04
459.56	2473.95
459.76	2734.04
459.97	2525.15
460.17	2478.04
460.37	2543.58
460.58	2533.34
460.78	2568.15
460.99	2449.37
461.19	2471.90
461.39	2494.43
461.60	2471.90
461.80	2570.20
462.00	2326.49
462.21	2451.42
462.41	2387.93
462.61	2326.49
462.82	2289.63
463.02	2611.16
463.22	2447.32
463.43	2543.58
463.63	2416.60
463.83	2639.83
464.04	2539.48
464.24	2389.98
464.44	2375.64
464.64	2572.25
464.85	2621.40
465.05	2523.10
465.25	2457.56
465.46	2480.09
465.66	2611.16
465.86	2553.82
466.07	2473.95
466.27	2478.04
466.47	2326.49
466.68	2283.49
466.88	2656.22
467.08	2619.35
467.29	2660.31
467.49	2523.10
467.69	2432.99
467.89	2564.06
468.10	2408.41
468.30	2498.52
468.50	2609.11
468.71	2635.74
468.91	2318.30
469.11	2662.36
469.31	2498.52
469.52	2334.68
469.72	2746.33
469.92	2686.94
470.13	2488.28
470.33	2500.57
470.53	2598.87
470.73	2979.79
470.94	3246.03
471.14	3459.02
471.34	3815.37
471.54	3706.82
471.75	3368.91
471.95	3037.14
472.15	3022.80
472.36	3014.61
472.56	2928.60
472.76	2875.35
472.96	2932.69
473.17	2799.57
473.37	2635.74
473.57	2516.95
473.77	2615.26
473.98	2553.82
474.18	2381.79
474.38	2916.31
474.58	2416.60
474.79	2375.64
474.99	2529.24
475.19	2600.92
475.39	2357.21
475.60	2531.29
475.80	2424.80
476.00	2494.43
476.20	2396.12
476.41	2539.48
476.61	2588.63
476.81	2572.25
477.01	2346.97
477.21	2688.98
477.42	2635.74
477.62	2349.02
477.82	2629.59
478.02	2482.14
478.23	2512.86
478.43	2416.60
478.63	2465.75
478.83	2463.71
479.03	2471.90
479.24	2676.70
479.44	2748.37
479.64	2308.06
479.84	2250.72
480.04	2404.32
480.25	2605.02
480.45	2418.65
480.65	2437.08
480.85	2678.74
481.06	2516.95
481.26	2547.67
481.46	2428.89
481.66	2588.63
481.86	2412.51
482.06	2584.54
482.27	2441.18
482.47	2457.56
482.67	2588.63
482.87	2449.37
483.07	2539.48
483.28	2494.43
483.48	2367.45
483.68	2424.80
483.88	2437.08
484.08	2314.20
484.29	2389.98
484.49	2543.58
484.69	2373.60
484.89	2662.36
485.09	2609.11
485.29	2459.61
485.50	2574.30
485.70	2437.08
485.90	2654.17
486.10	2484.19
486.30	2471.90
486.50	2652.12
486.71	2654.17
486.91	2594.78
487.11	2523.10
487.31	2351.07
487.51	2447.32
487.71	2346.97
487.91	2441.18
488.12	2387.93
488.32	2287.58
488.52	2363.36
488.72	2242.53
488.92	2551.77
489.12	2568.15
489.32	2684.89
489.53	2506.71
489.73	2367.45
489.93	2678.74
490.13	2408.41
490.33	2293.72
490.53	2453.47
490.73	2611.16
490.94	2306.01
491.14	2557.91
491.34	2639.83
491.54	2777.05
491.74	3373.00
491.94	3825.61
492.14	4300.73
492.34	4460.48
492.54	4118.47
492.75	3442.64
492.95	3413.96
493.15	3190.74
493.35	3090.38
493.55	3076.05
493.75	2963.41
493.95	3000.27
494.15	2662.36
494.35	2553.82
494.56	2562.01
494.76	2375.64
494.96	2502.62
495.16	2508.76
495.36	2445.27
495.56	2584.54
495.76	2435.03
495.96	2426.84
496.16	2453.47
496.36	2758.61
496.56	2463.71
496.77	2443.23
496.97	2521.05
497.17	2691.03
497.37	2363.36
497.57	2510.81
497.77	2516.95
497.97	2383.84
498.17	2422.75
498.37	2490.33
498.57	2543.58
498.77	2531.29
498.97	2586.58
499.17	2654.17
499.38	2500.57
499.58	2543.58
499.78	2562.01
499.98	2633.69
500.18	2480.09
500.38	2443.23
500.58	2695.13
500.78	3061.71
500.98	5337.01
501.18	7495.57
501.38	9281.39
501.58	10231.65
501.78	9838.44
501.98	8124.29
502.18	6733.72
502.38	5830.57
502.58	5431.21
502.78	4831.16
502.98	4609.98
503.18	4472.76
503.38	4175.81
503.59	3588.04
503.79	3469.26
503.99	3184.59
504.19	2981.84
504.39	3102.67
504.59	3200.98
504.79	2947.03
504.99	3143.63
505.19	2875.35
505.39	2734.04
505.59	2828.24
505.79	2869.20
505.99	2727.89
506.19	2529.24
506.39	2719.70
506.59	2416.60
506.79	2486.23
506.99	2611.16
507.19	2449.37
507.39	2539.48
507.59	2306.01
507.79	2363.36
507.99	2367.45
508.19	2506.71
508.39	2492.38
508.59	2439.13
508.79	2562.01
508.99	2777.05
509.19	2424.80
509.39	2576.34
509.59	2359.26
509.79	2461.66
509.99	2516.95
510.19	2490.33
510.39	2605.02
510.59	2525.15
510.79	2471.90
510.99	2269.15
511.19	2482.14
511.39	2691.03
511.59	2699.22
511.79	2695.13
511.99	2445.27
512.19	2748.37
512.38	2441.18
512.58	2385.88
512.78	2383.84
512.98	2584.54
513.18	2793.43
513.38	2377.69
513.58	2463.71
513.78	2428.89
513.98	2416.60
514.18	2396.12
514.38	2486.23
514.58	2562.01
514.78	2381.79
514.98	2383.84
515.18	2453.47
515.38	2359.26
515.58	2719.70
515.78	2312.16
515.98	2412.51
516.18	2535.39
516.38	2488.28
516.57	2408.41
516.77	2412.51
516.97	2617.30
517.17	2402.27
517.37	2260.96
517.57	2600.92
517.77	2455.51
517.97	2441.18
518.17	2498.52
518.37	2291.68
518.57	2488.28
518.77	2441.18
518.97	2494.43
519.16	2502.62
519.36	2660.31
519.56	2435.03
519.76	2445.27
519.96	2482.14
520.16	2617.30
520.36	2428.89
520.56	2662.36
520.76	2453.47
520.96	2494.43
521.16	2621.40
521.35	2564.06
521.55	2645.98
521.75	2449.37
521.95	2414.56
522.15	2424.80
522.35	2306.01
522.55	2449.37
522.75	2654.17
522.95	2351.07
523.14	2400.22
523.34	2504.67
523.54	2480.09
523.74	2449.37
523.94	2562.01
524.14	2361.31
524.34	2570.20
524.54	2619.35
524.73	2451.42
524.93	2535.39
525.13	2492.38
525.33	2326.49
525.53	2707.41
525.73	2590.68
525.93	2557.91
526.13	2375.64
526.32	2412.51
526.52	2547.67
526.72	2559.96
526.92	2478.04
527.12	2441.18
527.32	2316.25
527.52	2559.96
527.71	2465.75
527.91	2473.95
528.11	2482.14
528.31	2539.48
528.51	2424.80
528.71	2521.05
528.90	2594.78
529.10	2602.97
529.30	2574.30
529.50	2285.53
529.70	2590.68
529.90	2400.22
530.09	2496.47
530.29	2349.02
530.49	2400.22
530.69	2748.37
530.89	2488.28
531.09	2525.15
531.28	2455.51
531.48	2551.77
531.68	2414.56
531.88	2461.66
532.08	2531.29
532.28	2482.14
532.47	2535.39
532.67	2609.11
532.87	2504.67
533.07	2414.56
533.27	2529.24
533.46	2519.00
533.66	2514.91
533.86	2523.10
534.06	2533.34
534.26	2459.61
534.45	2385.88
534.65	2641.88
534.85	2543.58
535.05	2344.92
535.25	2660.31
535.44	2318.30
535.64	2531.29
535.84	2502.62
536.04	2371.55
536.24	2465.75
536.43	2373.60
536.63	2424.80
536.83	2449.37
537.03	2482.14
537.22	2310.11
537.42	2224.09
537.62	2545.63
537.82	2408.41
538.02	2611.16
538.21	2576.34
538.41	2936.79
538.61	2473.95
538.81	2404.32
539.00	2592.73
539.20	2375.64
539.40	2473.95
539.60	2519.00
539.79	2596.82
539.99	2412.51
540.19	2363.36
540.39	2404.32
540.58	2457.56
540.78	2652.12
540.98	2543.58
541.18	2654.17
541.37	2521.05
541.57	2510.81
541.77	2494.43
541.97	2422.75
542.16	2310.11
542.36	2475.99
542.56	2482.14
542.76	2572.25
542.95	2512.86
543.15	2559.96
543.35	2580.44
543.54	2387.93
543.74	2373.60
543.94	2629.59
544.14	2420.70
544.33	2506.71
544.53	2475.99
544.73	2414.56
544.93	2465.75
545.12	2478.04
545.32	2408.41
545.52	2478.04
545.71	2316.25
545.91	2414.56
546.11	2445.27
546.30	2455.51
546.50	2455.51
546.70	2519.00
546.90	2572.25
547.09	2244.57
547.29	2516.95
547.49	2576.34
547.68	2406.36
547.88	2387.93
548.08	2484.19
548.27	2983.89
548.47	2457.56
548.67	2361.31
548.87	2525.15
549.06	2461.66
549.26	2502.62
549.46	2576.34
549.65	2379.74
549.85	2432.99
550.05	2527.19
550.24	2412.51
550.44	2555.86
550.64	2432.99
550.83	2506.71
551.03	2654.17
551.23	2586.58
551.42	2568.15
551.62	2432.99
551.82	2535.39
552.01	2445.27
552.21	2650.07
552.41	2404.32
552.60	2719.70
552.80	2514.91
553.00	2373.60
553.19	2494.43
553.39	2678.74
553.59	2342.88
553.78	2564.06
553.98	2459.61
554.17	2420.70
554.37	2535.39
554.57	2482.14
554.76	2359.26
554.96	2432.99
555.16	2541.53
555.35	2465.75
555.55	2539.48
555.75	2506.71
555.94	2572.25
556.14	2303.96
556.33	2529.24
556.53	2457.56
556.73	2467.80
556.92	2584.54
557.12	2441.18
557.32	2719.70
557.51	2695.13
557.71	2492.38
557.90	2619.35
558.10	2592.73
558.30	2531.29
558.49	2437.08
558.69	2463.71
558.88	2502.62
559.08	2521.05
559.28	2457.56
559.47	2443.23
559.67	2514.91
559.86	2662.36
560.06	2514.91
560.26	2430.94
560.45	2598.87
560.65	2402.27
560.84	2662.36
561.04	2383.84
561.24	2605.02
561.43	2383.84
561.63	2652.12
561.82	2469.85
562.02	2592.73
562.22	2369.50
562.41	2299.87
562.61	2441.18
562.80	2322.40
563.00	2809.81
563.19	2527.19
563.39	2439.13
563.59	2574.30
563.78	2416.60
563.98	2293.72
564.17	2463.71
564.37	2385.88
564.56	2402.27
564.76	2310.11
564.96	2621.40
565.15	2594.78
565.35	2834.39
565.54	2469.85
565.74	2535.39
565.93	2531.29
566.13	2570.20
566.32	2480.09
566.52	2623.45
566.71	2410.46
566.91	2619.35
567.11	2555.86
567.30	2355.16
567.50	2590.68
567.69	2494.43
567.89	2467.80
568.08	2408.41
568.28	2498.52
568.47	2367.45
568.67	2543.58
568.86	2361.31
569.06	2594.78
569.25	2437.08
569.45	2412.51
569.64	2392.03
569.84	2514.91
570.04	2523.10
570.23	2367.45
570.43	2482.14
570.62	2512.86
570.82	2668.50
571.01	2312.16
571.21	2420.70
571.40	2371.55
571.60	2551.77
571.79	2553.82
571.99	2525.15
572.18	2381.79
572.38	2613.21
572.57	2498.52
572.77	2500.57
572.96	2846.68
573.16	2539.48
573.35	2424.80
573.55	2574.30
573.74	2621.40
573.94	2408.41
574.13	2402.27
574.33	2545.63
574.52	2691.03
574.71	2525.15
574.91	2535.39
575.10	2318.30
575.30	2486.23
575.49	2426.84
575.69	2443.23
575.88	2471.90
576.08	2449.37
576.27	2645.98
576.47	2469.85
576.66	2678.74
576.86	2658.26
577.05	2502.62
577.25	2531.29
577.44	2723.80
577.64	2551.77
577.83	2645.98
578.02	2475.99
578.22	2650.07
578.41	2799.57
578.61	2471.90
578.80	2340.83
579.00	2465.75
579.19	2478.04
579.39	2576.34
579.58	2537.43
579.77	2422.75
579.97	2678.74
580.16	2684.89
580.36	2625.50
580.55	2654.17
580.75	2592.73
580.94	2570.20
581.13	2723.80
581.33	2623.45
581.52	2490.33
581.72	2748.37
581.91	2572.25
582.11	2416.60
582.30	2688.98
582.49	2602.97
582.69	2619.35
582.88	2527.19
583.08	2432.99
583.27	2691.03
583.47	2498.52
583.66	2383.84
583.85	2437.08
584.05	2428.89
584.24	2580.44
584.44	2430.94
584.63	2707.41
584.82	2652.12
585.02	2693.08
585.21	2617.30
585.41	2752.47
585.60	2635.74
585.79	2768.85
585.99	2764.76
586.18	2596.82
586.37	3274.70
586.57	4986.80
586.76	14941.98
586.96	34344.44
587.15	47770.92
587.34	56700.06
587.54	61252.70
587.73	55825.58
587.93	39566.76
588.12	29724.22
588.31	23887.51
588.51	21345.98
588.70	19291.87
588.89	17084.16
589.09	14956.32
589.28	12812.09
589.47	10391.39
589.67	7946.12
589.86	6156.19
590.06	4628.41
590.25	3827.65
590.44	3276.75
590.64	2908.12
590.83	2834.39
591.02	2701.27
591.22	2514.91
591.41	2617.30
591.60	2588.63
591.80	2777.05
591.99	2408.41
592.18	2461.66
592.38	2615.26
592.57	2543.58
592.76	2502.62
592.96	2500.57
593.15	2473.95
593.34	2633.69
593.54	2465.75
593.73	2592.73
593.92	2623.45
594.12	2643.93
594.31	2480.09
594.50	2682.84
594.70	2627.54
594.89	2936.79
595.08	2312.16
595.28	2654.17
595.47	2846.68
595.66	2625.50
595.86	2406.36
596.05	2461.66
596.24	2467.80
596.43	2795.48
596.63	2586.58
596.82	2566.10
597.01	2635.74
597.21	2746.33
597.40	2574.30
597.59	2498.52
597.79	2467.80
597.98	2545.63
598.17	2498.52
598.36	2496.47
598.56	2607.06
598.75	2484.19
598.94	2539.48
599.14	2564.06
599.33	2480.09
599.52	2619.35
599.71	2539.48
599.91	2508.76
600.10	2670.55
600.29	2502.62
600.48	2521.05
600.68	2590.68
600.87	2535.39
601.06	2461.66
601.26	2437.08
601.45	2512.86
601.64	2516.95
601.83	2686.94
602.03	2404.32
602.22	2346.97
602.41	2666.46
602.60	2795.48
602.80	2621.40
602.99	2519.00
603.18	2443.23
603.37	2586.58
603.57	2512.86
603.76	2609.11
603.95	2703.32
604.14	2514.91
604.34	2465.75
604.53	2404.32
604.72	2541.53
604.91	2580.44
605.10	2566.10
605.30	2318.30
605.49	2762.71
605.68	2613.21
605.87	2484.19
606.07	2416.60
606.26	2545.63
606.45	2592.73
606.64	2510.81
606.84	2494.43
607.03	2576.34
607.22	2658.26
607.41	2406.36
607.60	2463.71
607.80	2639.83
607.99	2510.81
608.18	2512.86
608.37	2494.43
608.56	2404.32
608.76	2684.89
608.95	2727.89
609.14	2555.86
609.33	2727.89
609.52	2678.74
609.72	2633.69
609.91	2666.46
610.10	2580.44
610.29	2611.16
610.48	2576.34
610.68	2502.62
610.87	2492.38
611.06	2592.73
611.25	2447.32
611.44	2607.06
611.63	2396.12
611.83	2691.03
612.02	2334.68
612.21	2613.21
612.40	2211.81
612.59	2357.21
612.79	2383.84
612.98	2392.03
613.17	2721.75
613.36	2457.56
613.55	2652.12
613.74	2539.48
613.93	2654.17
614.13	2738.13
614.32	2750.42
614.51	2635.74
614.70	2547.67
614.89	2555.86
615.08	2619.35
615.28	3022.80
615.47	2437.08
615.66	2570.20
615.85	2568.15
616.04	2701.27
616.23	2539.48
616.42	2545.63
616.62	2529.24
616.81	2500.57
617.00	2457.56
617.19	2582.49
617.38	2457.56
617.57	2578.39
617.76	2568.15
617.95	2584.54
618.15	2447.32
618.34	2697.17
618.53	2308.06
618.72	2650.07
618.91	2623.45
619.10	2611.16
619.29	2449.37
619.48	2488.28
619.68	2439.13
619.87	2432.99
620.06	2344.92
620.25	2531.29
620.44	2414.56
620.63	2424.80
620.82	2551.77
621.01	2600.92
621.20	2402.27
621.39	2516.95
621.59	2496.47
621.78	2527.19
621.97	2441.18
622.16	2584.54
622.35	2596.82
622.54	2621.40
622.73	2590.68
622.92	2301.92
623.11	2660.31
623.30	2478.04
623.49	2645.98
623.68	2404.32
623.88	2605.02
624.07	2445.27
624.26	2451.42
624.45	2435.03
624.64	2451.42
624.83	2545.63
625.02	2328.54
625.21	2467.80
625.40	2480.09
625.59	2576.34
625.78	2523.10
625.97	2662.36
626.16	2750.42
626.35	2635.74
626.54	2523.10
626.74	2596.82
626.93	2465.75
627.12	2559.96
627.31	2643.93
627.50	2555.86
627.69	2564.06
627.88	2426.84
628.07	2441.18
628.26	2283.49
628.45	2346.97
628.64	2351.07
628.83	2457.56
629.02	2371.55
629.21	2557.91
629.40	2430.94
629.59	2408.41
629.78	2441.18
629.97	2463.71
630.16	2457.56
630.35	2457.56
630.54	2553.82
630.73	2426.84
630.92	2469.85
631.11	2353.12
631.30	2486.23
631.49	2605.02
631.68	2461.66
631.87	2463.71
632.06	2351.07
632.25	2809.81
632.44	2555.86
632.63	2588.63
632.82	2512.86
633.01	2488.28
633.20	2584.54
633.39	2496.47
633.58	2482.14
633.77	2625.50
633.96	2674.65
634.15	2598.87
634.34	2584.54
634.53	2553.82
634.72	2490.33
634.91	2371.55
635.10	2523.10
635.29	2553.82
635.48	2437.08
635.67	2383.84
635.86	2279.39
636.05	2703.32
636.24	2486.23
636.43	2471.90
636.62	2615.26
636.81	2269.15
637.00	2482.14
637.19	2535.39
637.38	2467.80
637.57	2547.67
637.76	2512.86
637.95	2652.12
638.14	2533.34
638.33	2695.13
638.52	2580.44
638.71	2465.75
638.89	2428.89
639.08	2842.58
639.27	2670.55
639.46	2779.09
639.65	3102.67
639.84	3137.49
640.03	3305.42
640.22	3119.06
640.41	3203.02
640.60	2824.15
640.79	2738.13
640.98	2725.85
641.17	2740.18
641.36	2740.18
641.55	2652.12
641.74	2412.51
641.92	2439.13
642.11	2404.32
642.30	2596.82
642.49	2484.19
642.68	2420.70
642.87	2535.39
643.06	2566.10
643.25	2379.74
643.44	2344.92
643.63	2428.89
643.82	2631.64
644.00	2351.07
644.19	2418.65
644.38	2404.32
644.57	2588.63
644.76	2531.29
644.95	2424.80
645.14	2488.28
645.33	2496.47
645.52	2473.95
645.71	2310.11
645.89	2375.64
646.08	2562.01
646.27	2426.84
646.46	2650.07
646.65	2351.07
646.84	2531.29
647.03	2371.55
647.22	2678.74
647.40	2490.33
647.59	2389.98
647.78	2285.53
647.97	2387.93
648.16	2445.27
648.35	2654.17
648.54	2672.60
648.73	2447.32
648.91	2613.21
649.10	2496.47
649.29	2416.60
649.48	2443.23
649.67	2572.25
649.86	2611.16
650.05	2562.01
650.23	2725.85
650.42	2523.10
650.61	2740.18
650.80	2719.70
650.99	2832.34
651.18	2684.89
651.36	2746.33
651.55	2422.75
651.74	2633.69
651.93	2447.32
652.12	2447.32
652.31	2590.68
652.49	2484.19
652.68	2441.18
652.87	2740.18
653.06	2494.43
653.25	2639.83
653.44	2504.67
653.62	2650.07
653.81	2424.80
654.00	2516.95
654.19	2549.72
654.38	2850.77
654.56	2521.05
654.75	2369.50
654.94	2570.20
655.13	2639.83
655.32	2482.14
655.51	2492.38
655.69	2449.37
655.88	2566.10
656.07	2361.31
656.26	2473.95
656.45	2377.69
656.63	2459.61
656.82	2482.14
657.01	2670.55
657.20	2392.03
657.38	2662.36
657.57	2412.51
657.76	2269.15
657.95	2629.59
658.14	2432.99
658.32	2488.28
658.51	2340.83
658.70	2568.15
658.89	2555.86
659.08	2510.81
659.26	2717.65
659.45	2465.75
659.64	2637.78
659.83	2453.47
660.01	2826.20
660.20	2545.63
660.39	2662.36
660.58	2283.49
660.76	2469.85
660.95	2359.26
661.14	2619.35
661.33	2297.82
661.51	2406.36
661.70	2461.66
661.89	2457.56
662.08	2486.23
662.26	2316.25
662.45	2301.92
662.64	2805.72
662.83	2539.48
663.01	2340.83
663.20	2469.85
663.39	2592.73
663.58	2416.60
663.76	2420.70
663.95	2465.75
664.14	2387.93
664.32	2463.71
664.51	2353.12
664.70	2306.01
664.89	2467.80
665.07	2299.87
665.26	2562.01
665.45	2389.98
665.64	2555.86
665.82	2490.33
666.01	2494.43
666.20	2381.79
666.38	2703.32
666.57	2668.50
666.76	3856.33
666.95	9492.34
667.13	17731.31
667.32	22734.50
667.51	26539.63
667.69	27674.20
667.88	24462.99
668.07	17327.86
668.25	14143.27
668.44	11763.53
668.63	10372.96
668.81	9179.00
669.00	7929.74
669.19	7040.92
669.38	6004.64
669.56	5177.26
669.75	4286.40
669.94	3874.76
670.12	3215.31
670.31	2924.50
670.50	2772.95
670.68	2744.28
670.87	2662.36
671.06	2469.85
671.24	2564.06
671.43	2664.41
671.62	2555.86
671.80	2463.71
671.99	2553.82
672.18	2527.19
672.36	2568.15
672.55	2553.82
672.74	2445.27
672.92	2465.75
673.11	2613.21
673.29	2359.26
673.48	2512.86
673.67	2461.66
673.85	2596.82
674.04	2336.73
674.23	2564.06
674.41	2709.46
674.60	2447.32
674.79	2314.20
674.97	2396.12
675.16	2564.06
675.34	2611.16
675.53	2494.43
675.72	2539.48
675.90	2676.70
676.09	2357.21
676.28	2533.34
676.46	2265.05
676.65	2611.16
676.83	2334.68
677.02	2500.57
677.21	2457.56
677.39	2455.51
677.58	2439.13
677.77	2318.30
677.95	2367.45
678.14	2490.33
678.32	2471.90
678.51	2480.09
678.70	2686.94
678.88	2387.93
679.07	2537.43
679.25	2496.47
679.44	2437.08
679.63	2404.32
679.81	2420.70
680.00	2682.84
680.18	2529.24
680.37	2701.27
680.55	2490.33
680.74	2373.60
680.93	2314.20
681.11	2605.02
681.30	2506.71
681.48	2475.99
681.67	2451.42
681.85	2547.67
682.04	2357.21
682.23	2641.88
682.41	2459.61
682.60	2437.08
682.78	2449.37
682.97	2320.35
683.15	2521.05
683.34	2426.84
683.53	2637.78
683.71	2297.82
683.90	2602.97
684.08	2666.46
684.27	2392.03
684.45	2514.91
684.64	2521.05
684.82	2455.51
685.01	2588.63
685.19	2494.43
685.38	2668.50
685.57	2416.60
685.75	2303.96
685.94	2396.12
686.12	2281.44
686.31	2396.12
686.49	2678.74
686.68	2207.71
686.86	2537.43
687.05	2478.04
687.23	2590.68
687.42	2424.80
687.60	2285.53
687.79	2693.08
687.97	2664.41
688.16	2543.58
688.34	2514.91
688.53	2349.02
688.71	2555.86
688.90	2695.13
689.08	2379.74
689.27	2340.83
689.45	2557.91
689.64	2527.19
689.82	2439.13
690.01	2525.15
690.19	2562.01
690.38	2486.23
690.56	2652.12
690.75	2346.97
690.93	2443.23
691.12	2387.93
691.30	2523.10
691.49	2420.70
691.67	2426.84
691.86	2752.47
692.04	2402.27
692.23	2365.40
692.41	2478.04
692.60	2846.68
692.78	2615.26
692.97	2543.58
693.15	2629.59
693.34	2723.80
693.52	2596.82
693.71	2437.08
693.89	2332.64
694.08	2342.88
694.26	2510.81
694.44	2525.15
694.63	2580.44
694.81	2349.02
695.00	2428.89
695.18	2600.92
695.37	2764.76
695.55	2609.11
695.74	2447.32
695.92	2449.37
696.10	2619.35
696.29	2316.25
696.47	2461.66
696.66	2371.55
696.84	2400.22
697.03	2467.80
697.21	2688.98
697.40	3702.73
697.58	2658.26
697.76	2445.27
697.95	2414.56
698.13	2340.83
698.32	2324.44
698.50	2492.38
698.68	2564.06
698.87	2457.56
699.05	2598.87
699.24	2486.23
699.42	2365.40
699.61	2430.94
699.79	2478.04
699.97	2525.15
700.16	2269.15
700.34	2398.17
700.53	2572.25
700.71	2633.69
700.89	2568.15
701.08	2375.64
701.26	2545.63
701.45	2928.60
701.63	2400.22
701.81	2592.73
702.00	2396.12
702.18	2594.78
702.37	2441.18
702.55	2770.90
702.73	2691.03
702.92	2586.58
703.10	2842.58
703.28	2772.95
703.47	2502.62
703.65	2701.27
703.84	2674.65
704.02	2547.67
704.20	2772.95
704.39	2480.09
704.57	2459.61
704.75	2645.98
704.94	2527.19
705.12	2564.06
705.30	2856.92
705.49	5506.99
705.67	12572.48
705.86	20717.25
706.04	24333.96
706.22	27434.59
706.41	27942.49
706.59	22654.63
706.77	16193.29
706.96	13602.61
707.14	12214.09
707.32	10542.94
707.51	9146.23
707.69	7632.78
707.87	6045.60
708.06	4937.65
708.24	4085.70
708.42	3411.92
708.61	3364.81
708.79	2658.26
708.97	2645.98
709.16	2619.35
709.34	2598.87
709.52	2473.95
709.71	2439.13
709.89	2572.25
710.07	2359.26
710.26	2416.60
710.44	2453.47
710.62	2605.02
710.80	2582.49
710.99	2650.07
711.17	2519.00
711.35	2365.40
711.54	2404.32
711.72	2613.21
711.90	2383.84
712.09	2463.71
712.27	2455.51
712.45	2529.24
712.63	2408.41
712.82	2432.99
713.00	2494.43
713.18	2514.91
713.37	2576.34
713.55	2609.11
713.73	2498.52
713.91	2519.00
714.10	2432.99
714.28	2525.15
714.46	2564.06
714.65	2535.39
714.83	2488.28
715.01	2486.23
715.19	2426.84
715.38	2424.80
715.56	2553.82
715.74	2463.71
715.92	2359.26
716.11	2658.26
716.29	2230.24
716.47	2451.42
716.65	2437.08
716.84	2389.98
717.02	2549.72
717.20	2269.15
717.38	2416.60
717.57	2586.58
717.75	2392.03
717.93	2416.60
718.11	2531.29
718.30	2349.02
718.48	2478.04
718.66	2607.06
718.84	2629.59
719.03	2416.60
719.21	2412.51
719.39	2645.98
719.57	2564.06
719.75	2555.86
719.94	2408.41
720.12	2463.71
720.30	2504.67
720.48	2514.91
720.67	2430.94
720.85	2398.17
721.03	2465.75
721.21	2340.83
721.39	2521.05
721.58	2629.59
721.76	2533.34
721.94	2615.26
722.12	2461.66
722.30	2672.60
722.49	2383.84
722.67	2502.62
722.85	2445.27
723.03	2322.40
723.21	2488.28
723.40	2455.51
723.58	2559.96
723.76	2602.97
723.94	2625.50
724.12	2502.62
724.30	2650.07
724.49	2605.02
724.67	2389.98
724.85	2611.16
725.03	2400.22
725.21	2523.10
725.40	2609.11
725.58	2437.08
725.76	2617.30
725.94	2502.62
726.12	2383.84
726.30	2498.52
726.49	2451.42
726.67	2471.90
726.85	2521.05
727.03	2928.60
727.21	4163.52
727.39	5750.70
727.57	6576.03
727.76	7352.21
727.94	7743.37
728.12	6938.52
728.30	5607.34
728.48	4896.69
728.66	4536.25
728.84	4054.98
729.03	3514.31
729.21	3323.85
729.39	2953.17
729.57	2658.26
729.75	2723.80
729.93	2639.83
730.11	2523.10
730.30	2465.75
730.48	2441.18
730.66	2572.25
730.84	2602.97
731.02	2519.00
731.20	2435.03
731.38	2383.84
731.56	2328.54
731.74	2349.02
731.93	2527.19
732.11	2398.17
732.29	2389.98
732.47	2502.62
732.65	2523.10
732.83	2623.45
733.01	2523.10
733.19	2365.40
733.37	2541.53
733.56	2539.48
733.74	2359.26
733.92	2609.11
734.10	2482.14
734.28	2535.39
734.46	2281.44
734.64	2430.94
734.82	2428.89
735.00	2379.74
735.18	2326.49
735.36	2455.51
735.54	2439.13
735.73	2510.81
735.91	2469.85
736.09	2695.13
736.27	2455.51
736.45	2523.10
736.63	2269.15
736.81	2351.07
736.99	2635.74
737.17	2631.64
737.35	2308.06
737.53	2498.52
737.71	2422.75
737.89	2613.21
738.07	2371.55
738.25	2387.93
738.43	2306.01
738.61	2398.17
738.80	2330.59
738.98	2428.89
739.16	2334.68
739.34	2326.49
739.52	2625.50
739.70	2441.18
739.88	2619.35
740.06	2600.92
740.24	2189.28
740.42	2654.17
740.60	2289.63
740.78	2432.99
740.96	2248.67
741.14	2490.33
741.32	2553.82
741.50	2242.53
741.68	2658.26
741.86	2619.35
742.04	2363.36
742.22	2318.30
742.40	2449.37
742.58	2596.82
742.76	2424.80
742.94	2598.87
743.12	2367.45
743.30	2441.18
743.48	2594.78
743.66	2389.98
743.84	2473.95
744.02	2519.00
744.20	2480.09
744.38	2367.45
744.56	2453.47
744.74	2719.70
744.92	2559.96
745.10	2580.44
745.28	2531.29
745.46	2701.27
745.64	2469.85
745.82	2523.10
746.00	2465.75
746.18	2490.33
746.36	2342.88
746.54	2488.28
746.72	2445.27
746.90	2400.22
747.08	2547.67
747.26	2406.36
747.44	2488.28
747.62	2521.05
747.80	2545.63
747.98	2572.25
748.15	2494.43
748.33	2691.03
748.51	2514.91
748.69	2613.21
748.87	2379.74
749.05	2475.99
749.23	2371.55
749.41	2539.48
749.59	2400.22
749.77	2613.21
749.95	2461.66
750.13	2441.18
750.31	2498.52
750.49	2441.18
750.67	2643.93
750.85	2623.45
751.03	2482.14
751.20	2691.03
751.38	2457.56
751.56	2404.32
751.74	2557.91
751.92	2408.41
752.10	2414.56
752.28	2578.39
752.46	2414.56
752.64	2430.94
752.82	2410.46
753.00	2570.20
753.18	2525.15
753.35	2478.04
753.53	2478.04
753.71	2400.22
753.89	2594.78
754.07	2555.86
754.25	2559.96
754.43	2516.95
754.61	2373.60
754.79	2578.39
754.97	2461.66
755.14	2576.34
755.32	2351.07
755.50	2510.81
755.68	2525.15
755.86	2293.72
756.04	2410.46
756.22	2273.25
756.40	2535.39
756.57	2572.25
756.75	2355.16
756.93	2586.58
757.11	2611.16
757.29	2283.49
757.47	2314.20
757.65	2336.73
757.82	2176.99
758.00	2375.64
758.18	2349.02
758.36	2369.50
758.54	2678.74
758.72	2306.01
758.90	2539.48
759.07	2582.49
759.25	2351.07
759.43	2578.39
759.61	2359.26
759.79	3567.56
759.97	2471.90
760.15	2432.99
760.32	2379.74
760.50	2547.67
760.68	2705.37
760.86	2465.75
761.04	2625.50
761.22	2572.25
761.39	2500.57
761.57	2463.71
761.75	2422.75
761.93	2500.57
762.11	2406.36
762.28	2490.33
762.46	2455.51
762.64	2519.00
762.82	2389.98
763.00	2506.71
763.18	2547.67
763.35	2357.21
763.53	2539.48
763.71	2523.10
763.89	2441.18
764.07	2447.32
764.24	2508.76
764.42	2564.06
764.60	2414.56
764.78	2559.96
764.96	2654.17
765.13	2584.54
765.31	2432.99
765.49	2482.14
765.67	2369.50
765.84	2392.03
766.02	2416.60
766.20	2265.05
766.38	2506.71
766.56	2490.33
766.73	2566.10
766.91	2465.75
767.09	2449.37
767.27	2514.91
767.44	2312.16
767.62	2504.67
767.80	2459.61
767.98	2353.12
768.15	2377.69
768.33	2592.73
768.51	2602.97
768.69	2543.58
768.87	2498.52
769.04	2449.37
769.22	2822.10
769.40	2572.25
769.58	2777.05
769.75	2535.39
769.93	2627.54
770.11	2334.68
770.28	2441.18
770.46	2564.06
770.64	2523.10
770.82	2457.56
770.99	2408.41
771.17	2564.06
771.35	2396.12
771.53	2457.56
771.70	2459.61
771.88	2539.48
772.06	2555.86
772.23	2385.88
772.41	2488.28
772.59	2467.80
772.77	2293.72
772.94	2389.98
773.12	2551.77
773.30	2459.61
773.47	2543.58
773.65	2340.83
773.83	2596.82
774.01	2465.75
774.18	2281.44
774.36	2486.23
774.54	2379.74
774.71	2559.96
774.89	2351.07
775.07	2428.89
775.24	2402.27
775.42	2467.80
775.60	2672.60
775.78	2330.59
775.95	2318.30
776.13	2340.83
776.31	2281.44
776.48	2527.19
776.66	2607.06
776.84	2461.66
777.01	2441.18
777.19	2326.49
777.37	2404.32
777.54	2635.74
777.72	2744.28
777.90	2519.00
778.07	2314.20
778.25	2809.81
778.43	2570.20
778.60	2361.31
778.78	2531.29
778.96	2660.31
779.13	2314.20
779.31	2574.30
779.49	2514.91
779.66	2510.81
779.84	2473.95
780.01	2424.80
780.19	2412.51
780.37	2648.02
780.54	2555.86
780.72	2367.45
780.90	2508.76
781.07	2473.95
781.25	2416.60
781.43	2588.63
781.60	2349.02
781.78	2586.58
781.95	2469.85
782.13	2389.98
782.31	2430.94
782.48	2279.39
782.66	2457.56
782.83	2695.13
783.01	2555.86
783.19	2586.58
783.36	2492.38
783.54	2351.07
783.72	2553.82
783.89	2422.75
784.07	2592.73
784.24	2521.05
784.42	2613.21
784.60	2533.34
784.77	2504.67
784.95	2248.67
785.12	2373.60
785.30	2486.23
785.47	2375.64
785.65	2312.16
785.83	2396.12
786.00	2439.13
786.18	2461.66
786.35	2338.78
786.53	2373.60
786.71	2514.91
786.88	2562.01
787.06	2459.61
787.23	2430.94
787.41	2297.82
787.58	2510.81
787.76	2426.84
787.94	2537.43
788.11	2482.14
788.29	2332.64
788.46	2412.51
788.64	2349.02
788.81	2383.84
788.99	2404.32
789.16	2326.49
789.34	2451.42
789.52	2398.17
789.69	2478.04
789.87	2293.72
790.04	2416.60
790.22	2461.66
790.39	2699.22
790.57	2408.41
790.74	2328.54
790.92	2635.74
791.09	2340.83
791.27	2498.52
791.44	2609.11
791.62	2467.80
791.79	2551.77
791.97	2568.15
792.15	2758.61
792.32	2555.86
792.50	2473.95
792.67	2645.98
792.85	2643.93
793.02	2453.47
793.20	2383.84
793.37	2332.64
793.55	2359.26
793.72	2383.84
793.90	2652.12
794.07	2351.07
794.25	2355.16
794.42	2557.91
794.60	2475.99
794.77	2500.57
794.95	2580.44
795.12	2562.01
795.30	2349.02
795.47	2349.02
795.65	2734.04
795.82	2551.77
796.00	2322.40
796.17	2430.94
796.34	2365.40
796.52	2486.23
796.69	2572.25
796.87	2535.39
797.04	2582.49
797.22	2551.77
797.39	2473.95
797.57	2455.51
797.74	2525.15
797.92	2580.44
798.09	2424.80
798.27	2658.26
798.44	2406.36
798.62	2426.84
798.79	2480.09
798.96	2494.43
799.14	2471.90
799.31	2801.62
799.49	2494.43
799.66	2443.23
799.84	2512.86
800.01	2285.53
800.19	2502.62
800.36	2256.86
800.53	2439.13
800.71	2535.39
800.88	2676.70
801.06	2408.41
801.23	2437.08
801.41	2428.89
801.58	2471.90
801.75	2445.27
801.93	2410.46
802.10	2572.25
802.28	2387.93
802.45	2461.66
802.63	2543.58
802.80	2727.89
802.97	2449.37
803.15	2465.75
803.32	2355.16
803.50	2379.74
803.67	2400.22
803.84	2277.34
804.02	2414.56
804.19	2432.99
804.37	2217.95
804.54	2277.34
804.71	2418.65
804.89	2392.03
805.06	2389.98
805.24	2299.87
805.41	2428.89
805.58	2392.03
805.76	2760.66
805.93	2478.04
806.10	2613.21
806.28	2617.30
806.45	2514.91
806.63	2467.80
806.80	2449.37
806.97	2480.09
807.15	2537.43
807.32	2488.28
807.49	2453.47
807.67	2289.63
807.84	2570.20
808.01	2324.44
808.19	2744.28
808.36	2766.81
808.54	2424.80
808.71	2332.64
808.88	2541.53
809.06	2566.10
809.23	2662.36
809.40	2410.46
809.58	2488.28
809.75	2435.03
809.92	2373.60
810.10	2707.41
810.27	2459.61
810.44	2553.82
810.62	2478.04
810.79	2527.19
810.96	2334.68
811.14	2408.41
811.31	2547.67
811.48	2478.04
811.66	2461.66
811.83	2578.39
812.00	2543.58
812.18	2594.78
812.35	2621.40
812.52	2494.43
812.69	2418.65
812.87	2484.19
813.04	2389.98
813.21	2467.80
813.39	2363.36
813.56	2275.29
813.73	2539.48
813.91	2367.45
814.08	2547.67
814.25	2527.19
814.42	2340.83
814.60	2365.40
814.77	2461.66
814.94	2480.09
815.12	2547.67
815.29	2600.92
815.46	2402.27
815.63	2465.75
815.81	2383.84
815.98	2437.08
816.15	2494.43
816.33	2441.18
816.50	2449.37
816.67	2473.95
816.84	2389.98
817.02	2277.34
817.19	2424.80
817.36	2521.05
817.53	2512.86
817.71	2351.07
817.88	2514.91
818.05	2459.61
818.22	2414.56
818.40	2611.16
818.57	2451.42
818.74	2580.44
818.91	2355.16
819.09	2539.48
819.26	2512.86
819.43	2377.69
819.60	2371.55
819.78	2547.67
819.95	2574.30
820.12	2369.50
820.29	2629.59
820.47	2529.24
820.64	2351.07
820.81	2326.49
820.98	2377.69
821.15	2457.56
821.33	2547.67
821.50	2355.16
821.67	2574.30
821.84	2420.70
822.02	2506.71
822.19	2590.68
822.36	2383.84
822.53	2351.07
822.70	2252.77
822.88	2461.66
823.05	2613.21
823.22	2488.28
823.39	2514.91
823.56	2416.60
823.74	2750.42
823.91	2340.83
824.08	2363.36
824.25	2379.74
824.42	2674.65
824.60	2269.15
824.77	2486.23
824.94	2398.17
825.11	2594.78
825.28	2267.10
825.45	2512.86
825.63	2535.39
825.80	2437.08
825.97	2488.28
826.14	2445.27
826.31	2330.59
826.48	2486.23
826.66	2428.89
826.83	2412.51
827.00	2463.71
827.17	2285.53
827.34	2453.47
827.51	2445.27
827.69	2463.71
827.86	2330.59
828.03	2410.46
828.20	2480.09
828.37	2351.07
828.54	2529.24
828.71	2461.66
828.89	2627.54
829.06	2506.71
829.23	2731.99
829.40	2379.74
829.57	2463.71
829.74	2641.88
829.91	2359.26
830.09	2373.60
830.26	2519.00
830.43	2701.27
830.60	2457.56
830.77	2467.80
830.94	2627.54
831.11	2480.09
831.28	2455.51
831.46	2535.39
831.63	2371.55
831.80	2635.74
831.97	2432.99
832.14	2408.41
832.31	2480.09
832.48	2492.38
832.65	2572.25
832.82	2424.80
832.99	2447.32
833.17	2287.58
833.34	2662.36
833.51	2453.47
833.68	2211.81
833.85	2580.44
834.02	2383.84
834.19	2367.45
834.36	2414.56
834.53	2484.19
834.70	2598.87
834.87	2574.30
835.04	2400.22
835.22	2379.74
835.39	2416.60
835.56	2363.36
835.73	2310.11
835.90	2594.78
836.07	2269.15
836.24	2498.52
836.41	2359.26
836.58	2426.84
836.75	2541.53
836.92	2389.98
837.09	2349.02
837.26	2570.20
837.43	2562.01
837.60	2539.48
837.77	2273.25
837.94	2496.47
838.12	2625.50
838.29	2336.73
838.46	2269.15
838.63	2326.49
838.80	2695.13
838.97	2478.04
839.14	2385.88
839.31	2482.14
839.48	2600.92
839.65	2394.08
839.82	2465.75
839.99	2545.63
840.16	2500.57
840.33	2340.83
840.50	2400.22
840.67	2402.27
840.84	2240.48
841.01	2375.64
841.18	2308.06
841.35	2465.75
841.52	2621.40
841.69	2711.51
841.86	2346.97
842.03	2430.94
842.20	2586.58
842.37	2400.22
842.54	2402.27
842.71	2414.56
842.88	2334.68
843.05	2422.75
843.22	2359.26
843.39	2596.82
843.56	2342.88
843.73	2461.66
843.90	2465.75
844.07	2461.66
844.24	2557.91
844.41	2486.23
844.58	2353.12
844.75	2473.95
844.92	2545.63
845.09	2322.40
845.26	2297.82
845.43	2523.10
845.60	2338.78
845.77	2465.75
845.94	2383.84
846.10	2602.97
846.27	2338.78
846.44	2297.82
846.61	2303.96
846.78	2510.81
846.95	2578.39
847.12	2244.57
847.29	2396.12
847.46	2392.03
847.63	2607.06
847.80	2367.45
847.97	2410.46
848.14	2701.27
848.31	2408.41
848.48	2293.72
848.65	2396.12
848.82	2459.61
848.98	2842.58
849.15	2453.47
849.32	2453.47
849.49	2590.68
849.66	2465.75
849.83	2432.99
850.00	2260.96
850.17	2557.91
850.34	2475.99
850.51	2252.77
850.68	2439.13
850.85	2760.66
851.01	2445.27
851.18	2363.36
851.35	2392.03
851.52	2562.01
851.69	2658.26
851.86	2267.10
852.03	2424.80
852.20	2580.44
852.37	2426.84
852.53	2295.77
852.70	2324.44
852.87	2521.05
853.04	2523.10
853.21	2455.51
853.38	2543.58
853.55	2660.31
853.72	2611.16
853.89	2303.96
854.05	2314.20
854.22	2457.56
854.39	2383.84
854.56	2371.55
854.73	2545.63
854.90	2392.03
855.07	2422.75
855.23	2340.83
855.40	2394.08
855.57	2410.46
855.74	2183.13
855.91	2584.54
856.08	2273.25
856.25	2318.30
856.41	2359.26
856.58	2424.80
856.75	2439.13
856.92	2289.63
857.09	2629.59
857.26	2273.25
857.42	2363.36
857.59	2559.96
857.76	2455.51
857.93	2435.03
858.10	2435.03
858.27	2430.94
858.43	2514.91
858.60	2314.20
858.77	2355.16
858.94	2396.12
859.11	2598.87
859.27	2371.55
859.44	2297.82
859.61	2693.08
859.78	2592.73
859.95	2383.84
860.12	2349.02
860.28	2764.76
860.45	2709.46
860.62	2357.21
860.79	2428.89
860.95	2385.88
861.12	2418.65
861.29	2301.92
861.46	2310.11
861.63	2439.13
861.79	2514.91
861.96	2267.10
862.13	2314.20
862.30	2707.41
862.47	2404.32
862.63	2299.87
862.80	2441.18
862.97	2551.77
863.14	2500.57
863.30	2351.07
863.47	2342.88
863.64	2648.02
863.81	2580.44
863.97	2383.84
864.14	2342.88
864.31	2414.56
864.48	2455.51
864.65	2332.64
864.81	2480.09
864.98	2555.86
865.15	2568.15
865.32	2408.41
865.48	2514.91
865.65	2639.83
865.82	2459.61
865.98	2387.93
866.15	2478.04
866.32	2441.18
866.49	2469.85
866.65	2469.85
866.82	2330.59
866.99	2465.75
867.16	2428.89
867.32	2392.03
867.49	2359.26
867.66	2475.99
867.83	2447.32
867.99	2291.68
868.16	2346.97
868.33	2326.49
868.49	2473.95
868.66	2316.25
868.83	2510.81
868.99	2463.71
869.16	2400.22
869.33	2510.81
869.50	2547.67
869.66	2439.13
869.83	2478.04
870.00	2412.51
870.16	2547.67
870.33	2422.75
870.50	2537.43
870.66	2430.94
870.83	2408.41
871.00	2490.33
871.17	2523.10
871.33	2488.28
871.50	2416.60
871.67	2342.88
871.83	2412.51
872.00	2508.76
872.17	2287.58
872.33	2674.65
872.50	2623.45
872.67	2375.64
872.83	2367.45
873.00	2592.73
873.17	2435.03
873.33	2400.22
873.50	2465.75
873.67	2349.02
873.83	2441.18
874.00	2430.94
874.16	2523.10
874.33	2398.17
874.50	2394.08
874.66	2308.06
874.83	2404.32
875.00	2607.06
875.16	2531.29
875.33	2465.75
875.50	2215.90
875.66	2412.51
875.83	2496.47
875.99	2439.13
876.16	2461.66
876.33	2416.60
876.49	2373.60
876.66	2482.14
876.83	2428.89
876.99	2285.53
877.16	2439.13
877.32	2424.80
877.49	2396.12
877.66	2398.17
877.82	2559.96
877.99	2414.56
878.15	2473.95
878.32	2453.47
878.49	2523.10
878.65	2424.80
878.82	2584.54
878.98	2332.64
879.15	2545.63
879.32	2510.81
879.48	2533.34
879.65	2430.94
879.81	2430.94
879.98	2351.07
880.15	2330.59
880.31	2559.96
880.48	2398.17
880.64	2514.91
880.81	2400.22
880.97	2658.26
881.14	2529.24
881.31	2332.64
881.47	2623.45
881.64	2471.90
881.80	2291.68
881.97	2426.84
882.13	2428.89
882.30	2363.36
882.47	2377.69
882.63	2346.97
882.80	2367.45
882.96	2365.40
883.13	2602.97
883.29	2404.32
883.46	2457.56
883.62	2766.81
883.79	2455.51
883.95	2531.29
884.12	2416.60
884.29	2564.06
884.45	2480.09
884.62	2508.76
884.78	2295.77
884.95	2564.06
885.11	2363.36
885.28	2459.61
885.44	2455.51
885.61	2611.16
885.77	2666.46
885.94	2555.86
886.10	2424.80
886.27	2453.47
886.43	2729.94
886.60	2549.72
886.76	2400.22
886.93	2369.50
887.09	2457.56
887.26	2207.71
887.42	2453.47
887.59	2592.73
887.75	2748.37
887.92	2480.09
888.08	2486.23
888.25	2723.80
888.41	2564.06
888.58	2389.98
888.74	2357.21
888.91	2408.41
>>>>>End Processed Spectral Data<<<<<
