SpectraSuite Data File
++++++++++++++++++++++++++++++++++++
Date: Thu May 05 14:41:25 CEST 2016
User: root
Dark Spectrum Present: No
Reference Spectrum Present: No
Number of Sampled Component Spectra: 1
Spectrometers: USB4C02835
Integration Time (usec): 100000 (USB4C02835)
Spectra Averaged: 1 (USB4C02835)
Boxcar Smoothing: 0 (USB4C02835)
Correct for Electrical Dark: No (USB4C02835)
Strobe/Lamp Enabled: No (USB4C02835)
Correct for Detector Non-linearity: No (USB4C02835)
Correct for Stray Light: No (USB4C02835)
Number of Pixels in Processed Spectrum: 3648
>>>>>Begin Processed Spectral Data<<<<<
177.47	1886.18
177.69	1886.18
177.91	1886.18
178.13	1892.32
178.36	1990.63
178.58	2375.64
178.80	2490.33
179.02	2314.20
179.24	2394.08
179.46	2326.49
179.68	2344.92
179.90	2396.12
180.13	2486.23
180.35	2248.67
180.57	2303.96
180.79	2592.73
181.01	2459.61
181.23	2377.69
181.45	2432.99
181.67	2531.29
181.90	2547.67
182.12	2334.68
182.34	2197.47
182.56	2531.29
182.78	2459.61
183.00	2277.34
183.22	2410.46
183.44	2248.67
183.66	2764.76
183.89	2441.18
184.11	2381.79
184.33	2551.77
184.55	2555.86
184.77	2361.31
184.99	2349.02
185.21	2435.03
185.43	2807.77
185.65	2316.25
185.87	2281.44
186.10	2668.50
186.32	2869.20
186.54	2387.93
186.76	2342.88
186.98	2584.54
187.20	2510.81
187.42	2267.10
187.64	2367.45
187.86	2592.73
188.08	2645.98
188.30	2301.92
188.52	2406.36
188.75	2645.98
188.97	2658.26
189.19	2355.16
189.41	2381.79
189.63	2547.67
189.85	2529.24
190.07	2287.58
190.29	2289.63
190.51	2435.03
190.73	2293.72
190.95	2453.47
191.17	2447.32
191.39	2320.35
191.61	2426.84
191.84	2400.22
192.06	2383.84
192.28	2297.82
192.50	2871.25
192.72	2432.99
192.94	2400.22
193.16	2643.93
193.38	2557.91
193.60	2244.57
193.82	2369.50
194.04	2709.46
194.26	2492.38
194.48	2334.68
194.70	2361.31
194.92	2490.33
195.14	2596.82
195.36	2373.60
195.58	2435.03
195.80	2441.18
196.02	2359.26
196.24	2287.58
196.46	2402.27
196.69	2414.56
196.91	2758.61
197.13	2349.02
197.35	2357.21
197.57	2705.37
197.79	2613.21
198.01	2455.51
198.23	2379.74
198.45	2605.02
198.67	2373.60
198.89	2357.21
199.11	2463.71
199.33	2379.74
199.55	2252.77
199.77	2363.36
199.99	2441.18
200.21	2455.51
200.43	2555.86
200.65	2283.49
200.87	2232.29
201.09	2465.75
201.31	2414.56
201.53	2349.02
201.75	2457.56
201.97	2539.48
202.19	2525.15
202.41	2406.36
202.63	2523.10
202.85	2502.62
203.07	2602.97
203.29	2318.30
203.51	2220.00
203.73	2387.93
203.95	2805.72
204.17	2355.16
204.39	2400.22
204.61	2502.62
204.83	2332.64
205.05	2408.41
205.27	2363.36
205.49	2813.91
205.71	2459.61
205.93	2281.44
206.15	2244.57
206.37	2537.43
206.59	2428.89
206.81	2252.77
207.03	2342.88
207.25	2359.26
207.47	2547.67
207.69	2392.03
207.91	2545.63
208.13	2686.94
208.34	2445.27
208.56	2248.67
208.78	2428.89
209.00	2449.37
209.22	2408.41
209.44	2383.84
209.66	2291.68
209.88	2473.95
210.10	2396.12
210.32	2363.36
210.54	2400.22
210.76	2457.56
210.98	2607.06
211.20	2244.57
211.42	2408.41
211.64	2645.98
211.86	2578.39
212.08	2445.27
212.30	2412.51
212.52	2404.32
212.74	2557.91
212.96	2344.92
213.17	2447.32
213.39	2572.25
213.61	2695.13
213.83	2355.16
214.05	2383.84
214.27	2693.08
214.49	2281.44
214.71	2375.64
214.93	2396.12
215.15	2473.95
215.37	2611.16
215.59	2252.77
215.81	2473.95
216.03	2574.30
216.24	2484.19
216.46	2365.40
216.68	2451.42
216.90	2588.63
217.12	2557.91
217.34	2306.01
217.56	2414.56
217.78	2611.16
218.00	2555.86
218.22	2406.36
218.44	2494.43
218.66	2437.08
218.87	2660.31
219.09	2342.88
219.31	2363.36
219.53	2471.90
219.75	2365.40
219.97	2344.92
220.19	2357.21
220.41	2510.81
220.63	2645.98
220.85	2349.02
221.06	2314.20
221.28	2678.74
221.50	2514.91
221.72	2379.74
221.94	2334.68
222.16	2549.72
222.38	2533.34
222.60	2387.93
222.82	2328.54
223.03	2676.70
223.25	2369.50
223.47	2330.59
223.69	2482.14
223.91	2537.43
224.13	2566.10
224.35	2291.68
224.57	2445.27
224.78	2566.10
225.00	2396.12
225.22	2379.74
225.44	2297.82
225.66	2525.15
225.88	2398.17
226.10	2392.03
226.32	2383.84
226.53	2629.59
226.75	2420.70
226.97	2332.64
227.19	2412.51
227.41	2389.98
227.63	2428.89
227.85	2240.48
228.06	2396.12
228.28	2531.29
228.50	2541.53
228.72	2293.72
228.94	2275.29
229.16	2226.14
229.37	2320.35
229.59	2328.54
229.81	2512.86
230.03	2475.99
230.25	2367.45
230.47	2289.63
230.69	2277.34
230.90	2592.73
231.12	2322.40
231.34	2408.41
231.56	2412.51
231.78	2344.92
232.00	2445.27
232.21	2330.59
232.43	2289.63
232.65	2273.25
232.87	2504.67
233.09	2285.53
233.30	2336.73
233.52	2611.16
233.74	2400.22
233.96	2355.16
234.18	2451.42
234.40	2502.62
234.61	2678.74
234.83	2232.29
235.05	2260.96
235.27	2746.33
235.49	2578.39
235.70	2344.92
235.92	2408.41
236.14	2551.77
236.36	2815.96
236.58	2230.24
236.79	2424.80
237.01	2467.80
237.23	2519.00
237.45	2531.29
237.67	2277.34
237.88	2523.10
238.10	2684.89
238.32	2328.54
238.54	2281.44
238.76	2422.75
238.97	2377.69
239.19	2332.64
239.41	2410.46
239.63	2549.72
239.85	2392.03
240.06	2392.03
240.28	2342.88
240.50	2635.74
240.72	2457.56
240.93	2373.60
241.15	2383.84
241.37	2564.06
241.59	2596.82
241.81	2359.26
242.02	2353.12
242.24	2564.06
242.46	2572.25
242.68	2179.04
242.89	2308.06
243.11	2580.44
243.33	2437.08
243.55	2310.11
243.76	2365.40
243.98	2365.40
244.20	2465.75
244.42	2349.02
244.64	2346.97
244.85	2351.07
245.07	2320.35
245.29	2365.40
245.51	2336.73
245.72	2469.85
245.94	2572.25
246.16	2392.03
246.38	2373.60
246.59	2471.90
246.81	2414.56
247.03	2211.81
247.24	2250.72
247.46	2396.12
247.68	2449.37
247.90	2318.30
248.11	2281.44
248.33	2629.59
248.55	2559.96
248.77	2400.22
248.98	2371.55
249.20	2693.08
249.42	2525.15
249.64	2375.64
249.85	2318.30
250.07	2432.99
250.29	2531.29
250.50	2506.71
250.72	2238.43
250.94	2504.67
251.16	2785.24
251.37	2392.03
251.59	2392.03
251.81	2590.68
252.02	2666.46
252.24	2308.06
252.46	2469.85
252.68	2338.78
252.89	2414.56
253.11	2242.53
253.33	2506.71
253.54	2699.22
253.76	2295.77
253.98	2275.29
254.20	2351.07
254.41	2344.92
254.63	2451.42
254.85	2234.33
255.06	2414.56
255.28	2572.25
255.50	2475.99
255.71	2299.87
255.93	2187.23
256.15	2422.75
256.36	2469.85
256.58	2277.34
256.80	2387.93
257.02	2426.84
257.23	2408.41
257.45	2387.93
257.67	2453.47
257.88	2377.69
258.10	2537.43
258.32	2340.83
258.53	2414.56
258.75	2662.36
258.97	2381.79
259.18	2310.11
259.40	2279.39
259.62	2613.21
259.83	2623.45
260.05	2369.50
260.27	2992.08
260.48	2674.65
260.70	2363.36
260.92	2265.05
261.13	2383.84
261.35	2535.39
261.57	2521.05
261.78	2224.09
262.00	2283.49
262.22	2549.72
262.43	2379.74
262.65	2369.50
262.86	2328.54
263.08	2789.33
263.30	2408.41
263.51	2174.94
263.73	2289.63
263.95	2650.07
264.16	2326.49
264.38	2256.86
264.60	2308.06
264.81	2463.71
265.03	2580.44
265.25	2478.04
265.46	2318.30
265.68	2602.97
265.89	2625.50
266.11	2162.66
266.33	2381.79
266.54	2580.44
266.76	2494.43
266.98	2473.95
267.19	2514.91
267.41	2629.59
267.62	2510.81
267.84	2172.89
268.06	2451.42
268.27	2506.71
268.49	2553.82
268.70	2457.56
268.92	2420.70
269.14	2412.51
269.35	2275.29
269.57	2324.44
269.79	2420.70
270.00	2430.94
270.22	2656.22
270.43	2234.33
270.65	2129.89
270.87	2523.10
271.08	2549.72
271.30	2404.32
271.51	2385.88
271.73	2592.73
271.95	2686.94
272.16	2334.68
272.38	2408.41
272.59	2342.88
272.81	2551.77
273.02	2359.26
273.24	2385.88
273.46	2584.54
273.67	2279.39
273.89	2289.63
274.10	2344.92
274.32	2543.58
274.54	2600.92
274.75	2369.50
274.97	2353.12
275.18	2564.06
275.40	2557.91
275.61	2400.22
275.83	2459.61
276.05	2330.59
276.26	2506.71
276.48	2424.80
276.69	2392.03
276.91	2398.17
277.12	2662.36
277.34	2486.23
277.55	2486.23
277.77	2416.60
277.99	2392.03
278.20	2297.82
278.42	2301.92
278.63	2375.64
278.85	2396.12
279.06	2267.10
279.28	2502.62
279.49	2637.78
279.71	2574.30
279.93	2426.84
280.14	2478.04
280.36	2310.11
280.57	2574.30
280.79	2525.15
281.00	2357.21
281.22	2486.23
281.43	2629.59
281.65	2291.68
281.86	2363.36
282.08	2523.10
282.29	2719.70
282.51	2303.96
282.73	2338.78
282.94	2258.91
283.16	2551.77
283.37	2594.78
283.59	2420.70
283.80	2531.29
284.02	2447.32
284.23	2441.18
284.45	2402.27
284.66	2359.26
284.88	2416.60
285.09	2410.46
285.31	2490.33
285.52	2482.14
285.74	2275.29
285.95	2539.48
286.17	2537.43
286.38	2549.72
286.60	2420.70
286.81	2408.41
287.03	2408.41
287.24	2432.99
287.46	2523.10
287.67	2519.00
287.89	2609.11
288.10	2424.80
288.32	2537.43
288.53	2619.35
288.75	2473.95
288.96	2553.82
289.18	2482.14
289.39	2375.64
289.61	2568.15
289.82	2758.61
290.04	2711.51
290.25	2363.36
290.47	2449.37
290.68	2416.60
290.90	2564.06
291.11	2260.96
291.33	2484.19
291.54	2400.22
291.76	2447.32
291.97	2484.19
292.18	2473.95
292.40	2398.17
292.61	2445.27
292.83	2621.40
293.04	2465.75
293.26	2494.43
293.47	2453.47
293.69	2285.53
293.90	2392.03
294.12	2648.02
294.33	2467.80
294.55	2371.55
294.76	2467.80
294.97	2633.69
295.19	2736.09
295.40	2346.97
295.62	2471.90
295.83	2645.98
296.05	2437.08
296.26	2605.02
296.48	2359.26
296.69	2408.41
296.90	2488.28
297.12	2545.63
297.33	2555.86
297.55	2480.09
297.76	2461.66
297.98	2445.27
298.19	2441.18
298.41	2455.51
298.62	2336.73
298.83	2605.02
299.05	2473.95
299.26	2449.37
299.48	2355.16
299.69	2543.58
299.90	2490.33
300.12	2355.16
300.33	2592.73
300.55	2389.98
300.76	2490.33
300.98	2361.31
301.19	2564.06
301.40	2424.80
301.62	2381.79
301.83	2555.86
302.05	2437.08
302.26	2420.70
302.47	2377.69
302.69	2396.12
302.90	2498.52
303.12	2176.99
303.33	2465.75
303.54	2777.05
303.76	2377.69
303.97	2510.81
304.19	2619.35
304.40	2351.07
304.61	2523.10
304.83	2662.36
305.04	2641.88
305.26	2527.19
305.47	2435.03
305.68	2473.95
305.90	2310.11
306.11	2615.26
306.33	2449.37
306.54	2402.27
306.75	2428.89
306.97	2258.91
307.18	2432.99
307.39	2373.60
307.61	2453.47
307.82	2478.04
308.04	2531.29
308.25	2351.07
308.46	2459.61
308.68	2531.29
308.89	2441.18
309.10	2574.30
309.32	2404.32
309.53	2422.75
309.74	2588.63
309.96	2346.97
310.17	2555.86
310.39	2422.75
310.60	2645.98
310.81	2482.14
311.03	2318.30
311.24	2500.57
311.45	2430.94
311.67	2523.10
311.88	2519.00
312.09	2453.47
312.31	2435.03
312.52	2394.08
312.73	2422.75
312.95	2308.06
313.16	2299.87
313.37	2555.86
313.59	2496.47
313.80	2596.82
314.01	2662.36
314.23	2453.47
314.44	2371.55
314.65	2314.20
314.87	2428.89
315.08	2392.03
315.29	2312.16
315.51	2414.56
315.72	2250.72
315.93	2539.48
316.15	2449.37
316.36	2478.04
316.57	2572.25
316.79	2463.71
317.00	2392.03
317.21	2572.25
317.43	2394.08
317.64	2473.95
317.85	2330.59
318.07	2414.56
318.28	2412.51
318.49	2600.92
318.70	2727.89
318.92	2588.63
319.13	2717.65
319.34	2684.89
319.56	2543.58
319.77	2621.40
319.98	2613.21
320.20	2629.59
320.41	2576.34
320.62	2553.82
320.83	2400.22
321.05	2682.84
321.26	2432.99
321.47	2525.15
321.69	2629.59
321.90	2351.07
322.11	2332.64
322.32	2488.28
322.54	2598.87
322.75	2371.55
322.96	2875.35
323.18	2301.92
323.39	2232.29
323.60	2306.01
323.81	2490.33
324.03	2430.94
324.24	2537.43
324.45	2424.80
324.66	2408.41
324.88	2531.29
325.09	2676.70
325.30	2422.75
325.52	2463.71
325.73	2547.67
325.94	2420.70
326.15	2310.11
326.37	2385.88
326.58	2600.92
326.79	2711.51
327.00	2406.36
327.22	2516.95
327.43	2385.88
327.64	2291.68
327.85	2537.43
328.07	2410.46
328.28	2697.17
328.49	2480.09
328.70	2422.75
328.92	2449.37
329.13	2451.42
329.34	2533.34
329.55	2613.21
329.76	2533.34
329.98	2449.37
330.19	2596.82
330.40	2516.95
330.61	2373.60
330.83	2562.01
331.04	2445.27
331.25	2426.84
331.46	2408.41
331.68	2297.82
331.89	2545.63
332.10	2353.12
332.31	2285.53
332.52	2375.64
332.74	2654.17
332.95	2334.68
333.16	2422.75
333.37	2555.86
333.58	2371.55
333.80	2473.95
334.01	2267.10
334.22	2551.77
334.43	2408.41
334.64	2455.51
334.86	2238.43
335.07	2441.18
335.28	2686.94
335.49	2224.09
335.70	2451.42
335.92	2580.44
336.13	2727.89
336.34	2486.23
336.55	2490.33
336.76	2551.77
336.98	2242.53
337.19	2445.27
337.40	2596.82
337.61	2686.94
337.82	2465.75
338.04	2506.71
338.25	2269.15
338.46	2482.14
338.67	2441.18
338.88	2330.59
339.09	2381.79
339.31	2449.37
339.52	2289.63
339.73	2306.01
339.94	2420.70
340.15	2543.58
340.36	2441.18
340.58	2418.65
340.79	2355.16
341.00	2562.01
341.21	2236.38
341.42	2578.39
341.63	2414.56
341.85	2627.54
342.06	2506.71
342.27	2418.65
342.48	2488.28
342.69	2365.40
342.90	2525.15
343.12	2555.86
343.33	2312.16
343.54	2580.44
343.75	2721.75
343.96	2430.94
344.17	2381.79
344.38	2451.42
344.60	2363.36
344.81	2330.59
345.02	2408.41
345.23	2582.49
345.44	2789.33
345.65	2504.67
345.86	2519.00
346.07	2539.48
346.29	2414.56
346.50	2457.56
346.71	2535.39
346.92	2635.74
347.13	2740.18
347.34	2416.60
347.55	2412.51
347.76	2539.48
347.98	2318.30
348.19	2445.27
348.40	2643.93
348.61	2475.99
348.82	2613.21
349.03	2473.95
349.24	2346.97
349.45	2701.27
349.66	2232.29
349.88	2418.65
350.09	2414.56
350.30	2609.11
350.51	2668.50
350.72	2553.82
350.93	2412.51
351.14	2504.67
351.35	2490.33
351.56	2471.90
351.77	2428.89
351.99	2570.20
352.20	2703.32
352.41	2469.85
352.62	2277.34
352.83	2519.00
353.04	2455.51
353.25	2357.21
353.46	2459.61
353.67	2617.30
353.88	2275.29
354.09	2451.42
354.30	2457.56
354.52	2490.33
354.73	2519.00
354.94	2416.60
355.15	2447.32
355.36	2695.13
355.57	2357.21
355.78	2346.97
355.99	2432.99
356.20	2371.55
356.41	2639.83
356.62	2478.04
356.83	2412.51
357.04	2703.32
357.25	2295.77
357.46	2379.74
357.68	2244.57
357.89	2359.26
358.10	2432.99
358.31	2381.79
358.52	2426.84
358.73	2316.25
358.94	2363.36
359.15	2353.12
359.36	2541.53
359.57	2549.72
359.78	2504.67
359.99	2531.29
360.20	2301.92
360.41	2478.04
360.62	2553.82
360.83	2480.09
361.04	2398.17
361.25	2537.43
361.46	2672.60
361.67	2576.34
361.88	2394.08
362.09	2547.67
362.30	2564.06
362.51	2414.56
362.72	2437.08
362.93	2572.25
363.14	2559.96
363.35	2469.85
363.56	2320.35
363.78	2645.98
363.99	2590.68
364.20	2326.49
364.41	2432.99
364.62	2742.23
364.83	2498.52
365.04	2396.12
365.25	2457.56
365.46	2756.57
365.67	2375.64
365.88	2449.37
366.09	2367.45
366.30	2408.41
366.51	2504.67
366.72	2363.36
366.93	2400.22
367.14	2508.76
367.35	2715.61
367.56	2416.60
367.77	2555.86
367.98	2365.40
368.18	2572.25
368.39	2568.15
368.60	2314.20
368.81	2555.86
369.02	2432.99
369.23	2463.71
369.44	2226.14
369.65	2449.37
369.86	2535.39
370.07	2422.75
370.28	2367.45
370.49	2543.58
370.70	2551.77
370.91	2351.07
371.12	2336.73
371.33	2674.65
371.54	2439.13
371.75	2607.06
371.96	2226.14
372.17	2498.52
372.38	2475.99
372.59	2457.56
372.80	2351.07
373.01	2418.65
373.22	2506.71
373.43	2408.41
373.64	2269.15
373.85	2705.37
374.06	2637.78
374.26	2555.86
374.47	2521.05
374.68	2654.17
374.89	2514.91
375.10	2418.65
375.31	2496.47
375.52	2547.67
375.73	2562.01
375.94	2228.19
376.15	2525.15
376.36	2359.26
376.57	2473.95
376.78	2383.84
376.99	2439.13
377.20	2650.07
377.40	2416.60
377.61	2684.89
377.82	2408.41
378.03	2682.84
378.24	2553.82
378.45	2482.14
378.66	2459.61
378.87	2263.01
379.08	2281.44
379.29	2430.94
379.50	2555.86
379.71	2447.32
379.91	2555.86
380.12	2351.07
380.33	2416.60
380.54	2572.25
380.75	2377.69
380.96	2514.91
381.17	2519.00
381.38	2389.98
381.59	2469.85
381.80	2432.99
382.00	2625.50
382.21	2471.90
382.42	2738.13
382.63	2686.94
382.84	2605.02
383.05	2533.34
383.26	2701.27
383.47	2461.66
383.68	2551.77
383.88	2543.58
384.09	2449.37
384.30	2547.67
384.51	2586.58
384.72	2398.17
384.93	2332.64
385.14	2512.86
385.35	2619.35
385.55	2256.86
385.76	2678.74
385.97	2449.37
386.18	2324.44
386.39	2383.84
386.60	2463.71
386.81	2377.69
387.02	2385.88
387.22	2351.07
387.43	2611.16
387.64	2482.14
387.85	2623.45
388.06	2688.98
388.27	4175.81
388.48	8357.76
388.68	12277.57
388.89	14722.85
389.10	16054.03
389.31	15001.37
389.52	11687.76
389.73	10196.84
389.93	9150.32
390.14	8462.21
390.35	7610.25
390.56	6717.34
390.77	5398.45
390.98	4229.06
391.18	3311.57
391.39	2973.65
391.60	2588.63
391.81	2686.94
392.02	2396.12
392.23	2731.99
392.43	2553.82
392.64	2613.21
392.85	2504.67
393.06	2787.29
393.27	2543.58
393.47	2346.97
393.68	2416.60
393.89	2465.75
394.10	2635.74
394.31	2330.59
394.52	2361.31
394.72	2441.18
394.93	2637.78
395.14	2344.92
395.35	2531.29
395.56	2426.84
395.76	2457.56
395.97	2500.57
396.18	2625.50
396.39	2611.16
396.60	3004.37
396.80	2744.28
397.01	2555.86
397.22	2639.83
397.43	2686.94
397.64	2459.61
397.84	2553.82
398.05	2717.65
398.26	2473.95
398.47	2531.29
398.67	2529.24
398.88	2471.90
399.09	2545.63
399.30	2375.64
399.51	2449.37
399.71	2334.68
399.92	2437.08
400.13	2498.52
400.34	2412.51
400.54	2424.80
400.75	2654.17
400.96	2447.32
401.17	2621.40
401.37	2588.63
401.58	2461.66
401.79	2375.64
402.00	2570.20
402.21	2897.88
402.41	2805.72
402.62	2863.06
402.83	2918.36
403.04	2944.98
403.24	3092.43
403.45	2695.13
403.66	2746.33
403.87	2731.99
404.07	2701.27
404.28	2707.41
404.49	2695.13
404.70	2557.91
404.90	2551.77
405.11	2506.71
405.32	2465.75
405.52	2400.22
405.73	2383.84
405.94	2387.93
406.15	2424.80
406.35	2531.29
406.56	2635.74
406.77	2506.71
406.98	2492.38
407.18	2420.70
407.39	2666.46
407.60	2428.89
407.80	2508.76
408.01	2506.71
408.22	2514.91
408.43	2349.02
408.63	2521.05
408.84	2621.40
409.05	2598.87
409.25	2349.02
409.46	2422.75
409.67	2506.71
409.88	2383.84
410.08	2494.43
410.29	2408.41
410.50	2535.39
410.70	2568.15
410.91	2314.20
411.12	2531.29
411.32	2467.80
411.53	2392.03
411.74	2482.14
411.95	2645.98
412.15	2578.39
412.36	2660.31
412.57	2600.92
412.77	2549.72
412.98	2510.81
413.19	2457.56
413.39	2512.86
413.60	2430.94
413.81	2645.98
414.01	2318.30
414.22	2531.29
414.43	2605.02
414.63	2392.03
414.84	2717.65
415.05	2478.04
415.25	2377.69
415.46	2562.01
415.67	2420.70
415.87	2422.75
416.08	2482.14
416.29	2508.76
416.49	2498.52
416.70	2289.63
416.91	2346.97
417.11	2512.86
417.32	2609.11
417.53	2529.24
417.73	2416.60
417.94	2430.94
418.15	2488.28
418.35	2535.39
418.56	2373.60
418.77	2809.81
418.97	2504.67
419.18	2545.63
419.38	2228.19
419.59	2398.17
419.80	2684.89
420.00	2414.56
420.21	2443.23
420.42	2682.84
420.62	2555.86
420.83	2322.40
421.04	2463.71
421.24	2457.56
421.45	2492.38
421.65	2531.29
421.86	2355.16
422.07	2529.24
422.27	2500.57
422.48	2457.56
422.69	2377.69
422.89	2514.91
423.10	2424.80
423.30	2281.44
423.51	2498.52
423.72	2447.32
423.92	2559.96
424.13	2367.45
424.33	2453.47
424.54	2545.63
424.75	2568.15
424.95	2645.98
425.16	2473.95
425.36	2445.27
425.57	2625.50
425.78	2531.29
425.98	2549.72
426.19	2492.38
426.39	2469.85
426.60	2473.95
426.81	2613.21
427.01	2537.43
427.22	2392.03
427.42	2250.72
427.63	2293.72
427.83	2600.92
428.04	2668.50
428.25	2473.95
428.45	2519.00
428.66	2588.63
428.86	2521.05
429.07	2381.79
429.28	2482.14
429.48	2535.39
429.69	2412.51
429.89	2504.67
430.10	2285.53
430.30	2537.43
430.51	2725.85
430.71	2381.79
430.92	2404.32
431.13	2426.84
431.33	2605.02
431.54	2506.71
431.74	2707.41
431.95	2723.80
432.15	2332.64
432.36	2412.51
432.56	2523.10
432.77	2678.74
432.98	2711.51
433.18	2502.62
433.39	2422.75
433.59	2492.38
433.80	2686.94
434.00	2658.26
434.21	2389.98
434.41	2402.27
434.62	2836.44
434.82	2369.50
435.03	2400.22
435.23	2600.92
435.44	2316.25
435.64	2406.36
435.85	2551.77
436.06	2578.39
436.26	2576.34
436.47	2455.51
436.67	2379.74
436.88	2449.37
437.08	2607.06
437.29	2596.82
437.49	2523.10
437.70	2621.40
437.90	2488.28
438.11	2654.17
438.31	2564.06
438.52	2791.38
438.72	2707.41
438.93	2775.00
439.13	2498.52
439.34	2666.46
439.54	2498.52
439.75	2605.02
439.95	2559.96
440.16	2363.36
440.36	2441.18
440.57	2537.43
440.77	2519.00
440.98	2432.99
441.18	2529.24
441.39	2389.98
441.59	2459.61
441.80	2709.46
442.00	2494.43
442.21	2588.63
442.41	2353.12
442.62	2625.50
442.82	2418.65
443.02	2408.41
443.23	2572.25
443.43	2480.09
443.64	2652.12
443.84	2467.80
444.05	2584.54
444.25	2506.71
444.46	2484.19
444.66	2422.75
444.87	2719.70
445.07	2310.11
445.28	2443.23
445.48	2564.06
445.69	2531.29
445.89	2809.81
446.09	2437.08
446.30	2756.57
446.50	2942.93
446.71	4597.69
446.91	5760.94
447.12	6705.05
447.32	7143.32
447.53	6657.95
447.73	5443.50
447.93	4896.69
448.14	4501.44
448.34	4536.25
448.55	3944.39
448.75	3872.71
448.96	3512.27
449.16	3274.70
449.36	3145.68
449.57	2736.09
449.77	2617.30
449.98	2424.80
450.18	2631.64
450.39	2453.47
450.59	2539.48
450.79	2512.86
451.00	2404.32
451.20	2531.29
451.41	2445.27
451.61	2564.06
451.81	2504.67
452.02	2416.60
452.22	2473.95
452.43	2428.89
452.63	2387.93
452.84	2514.91
453.04	2412.51
453.24	2496.47
453.45	2445.27
453.65	2424.80
453.86	2465.75
454.06	2529.24
454.26	2533.34
454.47	2310.11
454.67	2576.34
454.87	2547.67
455.08	2461.66
455.28	2641.88
455.49	2539.48
455.69	2453.47
455.89	2664.41
456.10	2568.15
456.30	2471.90
456.51	2615.26
456.71	2480.09
456.91	2480.09
457.12	2496.47
457.32	2545.63
457.52	2346.97
457.73	2596.82
457.93	2631.64
458.14	2484.19
458.34	2346.97
458.54	2443.23
458.75	2387.93
458.95	2578.39
459.15	2498.52
459.36	2510.81
459.56	2478.04
459.76	2783.19
459.97	2475.99
460.17	2404.32
460.37	2570.20
460.58	2469.85
460.78	2506.71
460.99	2510.81
461.19	2502.62
461.39	2449.37
461.60	2469.85
461.80	2498.52
462.00	2355.16
462.21	2455.51
462.41	2373.60
462.61	2324.44
462.82	2312.16
463.02	2570.20
463.22	2523.10
463.43	2506.71
463.63	2512.86
463.83	2658.26
464.04	2537.43
464.24	2443.23
464.44	2392.03
464.64	2527.19
464.85	2605.02
465.05	2553.82
465.25	2437.08
465.46	2435.03
465.66	2541.53
465.86	2519.00
466.07	2473.95
466.27	2486.23
466.47	2322.40
466.68	2285.53
466.88	2555.86
467.08	2586.58
467.29	2641.88
467.49	2469.85
467.69	2469.85
467.89	2658.26
468.10	2486.23
468.30	2545.63
468.50	2588.63
468.71	2580.44
468.91	2369.50
469.11	2656.22
469.31	2471.90
469.52	2389.98
469.72	2674.65
469.92	2738.13
470.13	2543.58
470.33	2459.61
470.53	2566.10
470.73	2885.59
470.94	3327.95
471.14	3381.20
471.34	3895.24
471.54	3803.08
471.75	3350.48
471.95	3092.43
472.15	3002.32
472.36	2990.03
472.56	2940.88
472.76	3022.80
472.96	2846.68
473.17	2789.33
473.37	2760.66
473.57	2525.15
473.77	2512.86
473.98	2482.14
474.18	2367.45
474.38	2863.06
474.58	2447.32
474.79	2381.79
474.99	2572.25
475.19	2578.39
475.39	2383.84
475.60	2432.99
475.80	2457.56
476.00	2535.39
476.20	2445.27
476.41	2463.71
476.61	2584.54
476.81	2666.46
477.01	2463.71
477.21	2691.03
477.42	2553.82
477.62	2404.32
477.82	2600.92
478.02	2498.52
478.23	2545.63
478.43	2381.79
478.63	2406.36
478.83	2488.28
479.03	2537.43
479.24	2611.16
479.44	2682.84
479.64	2424.80
479.84	2312.16
480.04	2469.85
480.25	2607.06
480.45	2318.30
480.65	2396.12
480.85	2627.54
481.06	2449.37
481.26	2539.48
481.46	2465.75
481.66	2519.00
481.86	2396.12
482.06	2648.02
482.27	2486.23
482.47	2414.56
482.67	2537.43
482.87	2424.80
483.07	2568.15
483.28	2406.36
483.48	2396.12
483.68	2416.60
483.88	2316.25
484.08	2273.25
484.29	2363.36
484.49	2416.60
484.69	2295.77
484.89	2629.59
485.09	2605.02
485.29	2547.67
485.50	2547.67
485.70	2426.84
485.90	2701.27
486.10	2506.71
486.30	2467.80
486.50	2639.83
486.71	2584.54
486.91	2617.30
487.11	2568.15
487.31	2371.55
487.51	2551.77
487.71	2363.36
487.91	2379.74
488.12	2441.18
488.32	2220.00
488.52	2420.70
488.72	2258.91
488.92	2502.62
489.12	2588.63
489.32	2553.82
489.53	2455.51
489.73	2265.05
489.93	2717.65
490.13	2379.74
490.33	2277.34
490.53	2490.33
490.73	2551.77
490.94	2396.12
491.14	2572.25
491.34	2596.82
491.54	2727.89
491.74	3325.90
491.94	4026.31
492.14	4341.69
492.34	4347.84
492.54	4026.31
492.75	3489.74
492.95	3452.88
493.15	3162.06
493.35	3250.13
493.55	3117.01
493.75	2846.68
493.95	3002.32
494.15	2709.46
494.35	2580.44
494.56	2580.44
494.76	2414.56
494.96	2463.71
495.16	2463.71
495.36	2525.15
495.56	2457.56
495.76	2482.14
495.96	2461.66
496.16	2465.75
496.36	2725.85
496.56	2410.46
496.77	2496.47
496.97	2414.56
497.17	2602.97
497.37	2310.11
497.57	2514.91
497.77	2516.95
497.97	2412.51
498.17	2449.37
498.37	2422.75
498.57	2607.06
498.77	2437.08
498.97	2555.86
499.17	2656.22
499.38	2457.56
499.58	2531.29
499.78	2545.63
499.98	2621.40
500.18	2564.06
500.38	2451.42
500.58	2686.94
500.78	3174.35
500.98	5461.93
501.18	7514.00
501.38	9330.55
501.58	10434.40
501.78	10149.73
501.98	8116.10
502.18	6760.34
502.38	5754.79
502.58	5420.97
502.78	4904.89
502.98	4763.58
503.18	4521.92
503.38	4079.55
503.59	3588.04
503.79	3422.16
503.99	3190.74
504.19	3131.34
504.39	3155.92
504.59	3149.78
504.79	3139.54
504.99	3170.26
505.19	2768.85
505.39	2717.65
505.59	2856.92
505.79	2793.43
505.99	2699.22
506.19	2654.17
506.39	2756.57
506.59	2465.75
506.79	2537.43
506.99	2596.82
507.19	2488.28
507.39	2506.71
507.59	2455.51
507.79	2416.60
507.99	2449.37
508.19	2549.72
508.39	2420.70
508.59	2445.27
508.79	2607.06
508.99	2729.94
509.19	2379.74
509.39	2568.15
509.59	2441.18
509.79	2469.85
509.99	2504.67
510.19	2543.58
510.39	2557.91
510.59	2502.62
510.79	2480.09
510.99	2363.36
511.19	2400.22
511.39	2666.46
511.59	2617.30
511.79	2605.02
511.99	2480.09
512.19	2791.38
512.38	2566.10
512.58	2410.46
512.78	2430.94
512.98	2564.06
513.18	2654.17
513.38	2357.21
513.58	2525.15
513.78	2449.37
513.98	2469.85
514.18	2457.56
514.38	2416.60
514.58	2564.06
514.78	2416.60
514.98	2349.02
515.18	2461.66
515.38	2367.45
515.58	2744.28
515.78	2398.17
515.98	2457.56
516.18	2551.77
516.38	2463.71
516.57	2396.12
516.77	2379.74
516.97	2584.54
517.17	2408.41
517.37	2285.53
517.57	2516.95
517.77	2537.43
517.97	2392.03
518.17	2498.52
518.37	2334.68
518.57	2555.86
518.77	2432.99
518.97	2441.18
519.16	2512.86
519.36	2756.57
519.56	2342.88
519.76	2437.08
519.96	2451.42
520.16	2752.47
520.36	2410.46
520.56	2533.34
520.76	2346.97
520.96	2445.27
521.16	2613.21
521.35	2541.53
521.55	2580.44
521.75	2428.89
521.95	2459.61
522.15	2445.27
522.35	2297.82
522.55	2392.03
522.75	2643.93
522.95	2439.13
523.14	2389.98
523.34	2506.71
523.54	2453.47
523.74	2504.67
523.94	2531.29
524.14	2365.40
524.34	2519.00
524.54	2629.59
524.73	2432.99
524.93	2549.72
525.13	2566.10
525.33	2301.92
525.53	2654.17
525.73	2502.62
525.93	2482.14
526.13	2398.17
526.32	2412.51
526.52	2711.51
526.72	2555.86
526.92	2471.90
527.12	2379.74
527.32	2359.26
527.52	2566.10
527.71	2510.81
527.91	2504.67
528.11	2381.79
528.31	2459.61
528.51	2375.64
528.71	2533.34
528.90	2510.81
529.10	2658.26
529.30	2553.82
529.50	2269.15
529.70	2545.63
529.90	2424.80
530.09	2496.47
530.29	2359.26
530.49	2332.64
530.69	2850.77
530.89	2508.76
531.09	2570.20
531.28	2461.66
531.48	2598.87
531.68	2437.08
531.88	2398.17
532.08	2613.21
532.28	2445.27
532.47	2570.20
532.67	2607.06
532.87	2523.10
533.07	2418.65
533.27	2545.63
533.46	2514.91
533.66	2613.21
533.86	2488.28
534.06	2420.70
534.26	2555.86
534.45	2469.85
534.65	2688.98
534.85	2531.29
535.05	2357.21
535.25	2576.34
535.44	2226.14
535.64	2539.48
535.84	2467.80
536.04	2439.13
536.24	2375.64
536.43	2334.68
536.63	2426.84
536.83	2451.42
537.03	2519.00
537.22	2291.68
537.42	2285.53
537.62	2523.10
537.82	2389.98
538.02	2613.21
538.21	2617.30
538.41	2844.63
538.61	2496.47
538.81	2457.56
539.00	2588.63
539.20	2389.98
539.40	2367.45
539.60	2490.33
539.79	2557.91
539.99	2461.66
540.19	2465.75
540.39	2465.75
540.58	2617.30
540.78	2625.50
540.98	2473.95
541.18	2609.11
541.37	2519.00
541.57	2486.23
541.77	2566.10
541.97	2416.60
542.16	2318.30
542.36	2478.04
542.56	2449.37
542.76	2662.36
542.95	2521.05
543.15	2576.34
543.35	2625.50
543.54	2338.78
543.74	2418.65
543.94	2670.55
544.14	2424.80
544.33	2547.67
544.53	2428.89
544.73	2473.95
544.93	2445.27
545.12	2529.24
545.32	2432.99
545.52	2394.08
545.71	2306.01
545.91	2445.27
546.11	2457.56
546.30	2392.03
546.50	2473.95
546.70	2490.33
546.90	2482.14
547.09	2334.68
547.29	2451.42
547.49	2547.67
547.68	2416.60
547.88	2424.80
548.08	2570.20
548.27	3014.61
548.47	2359.26
548.67	2451.42
548.87	2605.02
549.06	2428.89
549.26	2490.33
549.46	2545.63
549.65	2512.86
549.85	2547.67
550.05	2519.00
550.24	2357.21
550.44	2504.67
550.64	2529.24
550.83	2457.56
551.03	2678.74
551.23	2637.78
551.42	2590.68
551.62	2363.36
551.82	2519.00
552.01	2478.04
552.21	2662.36
552.41	2506.71
552.60	2709.46
552.80	2498.52
553.00	2389.98
553.19	2471.90
553.39	2752.47
553.59	2322.40
553.78	2572.25
553.98	2449.37
554.17	2344.92
554.37	2443.23
554.57	2523.10
554.76	2314.20
554.96	2461.66
555.16	2545.63
555.35	2523.10
555.55	2576.34
555.75	2572.25
555.94	2645.98
556.14	2271.20
556.33	2592.73
556.53	2523.10
556.73	2463.71
556.92	2512.86
557.12	2488.28
557.32	2756.57
557.51	2717.65
557.71	2482.14
557.90	2578.39
558.10	2617.30
558.30	2408.41
558.49	2473.95
558.69	2437.08
558.88	2461.66
559.08	2500.57
559.28	2437.08
559.47	2498.52
559.67	2498.52
559.86	2740.18
560.06	2490.33
560.26	2430.94
560.45	2504.67
560.65	2451.42
560.84	2744.28
561.04	2400.22
561.24	2576.34
561.43	2387.93
561.63	2652.12
561.82	2541.53
562.02	2656.22
562.22	2422.75
562.41	2396.12
562.61	2377.69
562.80	2363.36
563.00	2756.57
563.19	2492.38
563.39	2547.67
563.59	2523.10
563.78	2369.50
563.98	2267.10
564.17	2412.51
564.37	2256.86
564.56	2516.95
564.76	2285.53
564.96	2629.59
565.15	2471.90
565.35	2805.72
565.54	2371.55
565.74	2533.34
565.93	2578.39
566.13	2478.04
566.32	2531.29
566.52	2525.15
566.71	2490.33
566.91	2650.07
567.11	2553.82
567.30	2428.89
567.50	2619.35
567.69	2580.44
567.89	2432.99
568.08	2416.60
568.28	2439.13
568.47	2326.49
568.67	2480.09
568.86	2351.07
569.06	2580.44
569.25	2531.29
569.45	2385.88
569.64	2459.61
569.84	2463.71
570.04	2568.15
570.23	2459.61
570.43	2422.75
570.62	2516.95
570.82	2686.94
571.01	2349.02
571.21	2414.56
571.40	2416.60
571.60	2566.10
571.79	2441.18
571.99	2461.66
572.18	2410.46
572.38	2547.67
572.57	2439.13
572.77	2578.39
572.96	2834.39
573.16	2617.30
573.35	2408.41
573.55	2592.73
573.74	2602.97
573.94	2424.80
574.13	2486.23
574.33	2580.44
574.52	2703.32
574.71	2478.04
574.91	2586.58
575.10	2338.78
575.30	2447.32
575.49	2383.84
575.69	2361.31
575.88	2533.34
576.08	2449.37
576.27	2662.36
576.47	2482.14
576.66	2637.78
576.86	2637.78
577.05	2547.67
577.25	2500.57
577.44	2674.65
577.64	2471.90
577.83	2600.92
578.02	2447.32
578.22	2580.44
578.41	2707.41
578.61	2441.18
578.80	2330.59
579.00	2508.76
579.19	2455.51
579.39	2547.67
579.58	2588.63
579.77	2441.18
579.97	2645.98
580.16	2602.97
580.36	2564.06
580.55	2621.40
580.75	2576.34
580.94	2564.06
581.13	2666.46
581.33	2727.89
581.52	2584.54
581.72	2793.43
581.91	2621.40
582.11	2447.32
582.30	2711.51
582.49	2580.44
582.69	2650.07
582.88	2543.58
583.08	2611.16
583.27	2719.70
583.47	2486.23
583.66	2437.08
583.85	2404.32
584.05	2500.57
584.24	2576.34
584.44	2523.10
584.63	2652.12
584.82	2736.09
585.02	2731.99
585.21	2668.50
585.41	2613.21
585.60	2617.30
585.79	2668.50
585.99	2744.28
586.18	2715.61
586.37	3424.20
586.57	5124.02
586.76	14831.39
586.96	34463.22
587.15	47793.45
587.34	57371.80
587.54	61482.07
587.73	56394.92
587.93	39411.11
588.12	30117.43
588.31	24037.01
588.51	21192.38
588.70	19435.22
588.89	17723.12
589.09	15097.63
589.28	12846.91
589.47	10170.21
589.67	7954.31
589.86	6197.15
590.06	4722.62
590.25	3839.94
590.44	3297.23
590.64	2998.23
590.83	2826.20
591.02	2748.37
591.22	2545.63
591.41	2605.02
591.60	2549.72
591.80	2813.91
591.99	2396.12
592.18	2441.18
592.38	2611.16
592.57	2545.63
592.76	2484.19
592.96	2508.76
593.15	2439.13
593.34	2666.46
593.54	2351.07
593.73	2492.38
593.92	2553.82
594.12	2570.20
594.31	2617.30
594.50	2674.65
594.70	2584.54
594.89	2793.43
595.08	2424.80
595.28	2627.54
595.47	2899.92
595.66	2654.17
595.86	2394.08
596.05	2480.09
596.24	2346.97
596.43	2711.51
596.63	2594.78
596.82	2578.39
597.01	2619.35
597.21	2637.78
597.40	2572.25
597.59	2506.71
597.79	2455.51
597.98	2592.73
598.17	2521.05
598.36	2465.75
598.56	2613.21
598.75	2441.18
598.94	2600.92
599.14	2508.76
599.33	2504.67
599.52	2613.21
599.71	2580.44
599.91	2588.63
600.10	2541.53
600.29	2475.99
600.48	2496.47
600.68	2568.15
600.87	2588.63
601.06	2365.40
601.26	2441.18
601.45	2535.39
601.64	2496.47
601.83	2727.89
602.03	2432.99
602.22	2342.88
602.41	2641.88
602.60	2828.24
602.80	2586.58
602.99	2498.52
603.18	2447.32
603.37	2512.86
603.57	2437.08
603.76	2596.82
603.95	2654.17
604.14	2478.04
604.34	2475.99
604.53	2422.75
604.72	2514.91
604.91	2645.98
605.10	2519.00
605.30	2332.64
605.49	2742.23
605.68	2611.16
605.87	2584.54
606.07	2422.75
606.26	2541.53
606.45	2580.44
606.64	2519.00
606.84	2478.04
607.03	2551.77
607.22	2643.93
607.41	2482.14
607.60	2457.56
607.80	2586.58
607.99	2432.99
608.18	2492.38
608.37	2537.43
608.56	2430.94
608.76	2707.41
608.95	2727.89
609.14	2541.53
609.33	2639.83
609.52	2707.41
609.72	2643.93
609.91	2607.06
610.10	2576.34
610.29	2678.74
610.48	2619.35
610.68	2596.82
610.87	2490.33
611.06	2643.93
611.25	2490.33
611.44	2531.29
611.63	2408.41
611.83	2605.02
612.02	2314.20
612.21	2611.16
612.40	2191.33
612.59	2367.45
612.79	2406.36
612.98	2424.80
613.17	2824.15
613.36	2523.10
613.55	2619.35
613.74	2547.67
613.93	2645.98
614.13	2772.95
614.32	2703.32
614.51	2688.98
614.70	2545.63
614.89	2572.25
615.08	2543.58
615.28	3035.09
615.47	2435.03
615.66	2637.78
615.85	2512.86
616.04	2631.64
616.23	2611.16
616.42	2572.25
616.62	2471.90
616.81	2553.82
617.00	2527.19
617.19	2584.54
617.38	2428.89
617.57	2453.47
617.76	2568.15
617.95	2643.93
618.15	2506.71
618.34	2617.30
618.53	2316.25
618.72	2645.98
618.91	2635.74
619.10	2523.10
619.29	2576.34
619.48	2441.18
619.68	2404.32
619.87	2449.37
620.06	2361.31
620.25	2535.39
620.44	2375.64
620.63	2379.74
620.82	2572.25
621.01	2582.49
621.20	2570.20
621.39	2570.20
621.59	2523.10
621.78	2482.14
621.97	2502.62
622.16	2529.24
622.35	2486.23
622.54	2535.39
622.73	2580.44
622.92	2316.25
623.11	2578.39
623.30	2445.27
623.49	2547.67
623.68	2359.26
623.88	2682.84
624.07	2486.23
624.26	2480.09
624.45	2457.56
624.64	2473.95
624.83	2564.06
625.02	2408.41
625.21	2471.90
625.40	2582.49
625.59	2643.93
625.78	2514.91
625.97	2584.54
626.16	2766.81
626.35	2715.61
626.54	2555.86
626.74	2645.98
626.93	2435.03
627.12	2461.66
627.31	2629.59
627.50	2537.43
627.69	2639.83
627.88	2424.80
628.07	2396.12
628.26	2330.59
628.45	2396.12
628.64	2349.02
628.83	2447.32
629.02	2353.12
629.21	2594.78
629.40	2531.29
629.59	2400.22
629.78	2502.62
629.97	2467.80
630.16	2588.63
630.35	2494.43
630.54	2602.97
630.73	2471.90
630.92	2461.66
631.11	2400.22
631.30	2400.22
631.49	2580.44
631.68	2482.14
631.87	2412.51
632.06	2430.94
632.25	2793.43
632.44	2519.00
632.63	2564.06
632.82	2447.32
633.01	2514.91
633.20	2691.03
633.39	2521.05
633.58	2422.75
633.77	2578.39
633.96	2568.15
634.15	2602.97
634.34	2496.47
634.53	2547.67
634.72	2502.62
634.91	2306.01
635.10	2471.90
635.29	2555.86
635.48	2482.14
635.67	2357.21
635.86	2314.20
636.05	2686.94
636.24	2441.18
636.43	2471.90
636.62	2478.04
636.81	2310.11
637.00	2432.99
637.19	2469.85
637.38	2512.86
637.57	2441.18
637.76	2461.66
637.95	2584.54
638.14	2494.43
638.33	2629.59
638.52	2572.25
638.71	2424.80
638.89	2424.80
639.08	2889.68
639.27	2641.88
639.46	2707.41
639.65	3094.48
639.84	3260.37
640.03	3280.85
640.22	3145.68
640.41	3258.32
640.60	2787.29
640.79	2711.51
640.98	2770.90
641.17	2762.71
641.36	2725.85
641.55	2699.22
641.74	2408.41
641.92	2404.32
642.11	2430.94
642.30	2555.86
642.49	2422.75
642.68	2428.89
642.87	2535.39
643.06	2570.20
643.25	2389.98
643.44	2392.03
643.63	2410.46
643.82	2541.53
644.00	2355.16
644.19	2486.23
644.38	2379.74
644.57	2555.86
644.76	2478.04
644.95	2478.04
645.14	2496.47
645.33	2459.61
645.52	2490.33
645.71	2338.78
645.89	2418.65
646.08	2527.19
646.27	2392.03
646.46	2668.50
646.65	2308.06
646.84	2494.43
647.03	2385.88
647.22	2529.24
647.40	2506.71
647.59	2488.28
647.78	2371.55
647.97	2416.60
648.16	2404.32
648.35	2660.31
648.54	2564.06
648.73	2439.13
648.91	2541.53
649.10	2453.47
649.29	2326.49
649.48	2439.13
649.67	2490.33
649.86	2547.67
650.05	2508.76
650.23	2736.09
650.42	2639.83
650.61	2836.44
650.80	2666.46
650.99	2754.52
651.18	2678.74
651.36	2676.70
651.55	2465.75
651.74	2553.82
651.93	2412.51
652.12	2519.00
652.31	2594.78
652.49	2502.62
652.68	2445.27
652.87	2666.46
653.06	2490.33
653.25	2672.60
653.44	2527.19
653.62	2658.26
653.81	2424.80
654.00	2516.95
654.19	2619.35
654.38	2863.06
654.56	2605.02
654.75	2416.60
654.94	2592.73
655.13	2521.05
655.32	2363.36
655.51	2562.01
655.69	2541.53
655.88	2596.82
656.07	2359.26
656.26	2523.10
656.45	2330.59
656.63	2432.99
656.82	2576.34
657.01	2613.21
657.20	2459.61
657.38	2662.36
657.57	2375.64
657.76	2418.65
657.95	2605.02
658.14	2340.83
658.32	2539.48
658.51	2275.29
658.70	2500.57
658.89	2482.14
659.08	2506.71
659.26	2635.74
659.45	2441.18
659.64	2609.11
659.83	2463.71
660.01	2830.29
660.20	2664.41
660.39	2648.02
660.58	2176.99
660.76	2527.19
660.95	2371.55
661.14	2531.29
661.33	2346.97
661.51	2416.60
661.70	2412.51
661.89	2529.24
662.08	2445.27
662.26	2408.41
662.45	2392.03
662.64	2678.74
662.83	2502.62
663.01	2328.54
663.20	2469.85
663.39	2666.46
663.58	2377.69
663.76	2469.85
663.95	2559.96
664.14	2424.80
664.32	2449.37
664.51	2377.69
664.70	2209.76
664.89	2512.86
665.07	2455.51
665.26	2559.96
665.45	2357.21
665.64	2557.91
665.82	2439.13
666.01	2594.78
666.20	2349.02
666.38	2695.13
666.57	2709.46
666.76	3913.67
666.95	9820.01
667.13	17858.29
667.32	22892.19
667.51	26672.74
667.69	28001.88
667.88	25003.65
668.07	17446.65
668.25	14460.71
668.44	11900.75
668.63	10354.53
668.81	9224.05
669.00	8021.89
669.19	7174.03
669.38	6123.43
669.56	5250.99
669.75	4440.00
669.94	3839.94
670.12	3366.86
670.31	2951.12
670.50	2809.81
670.68	2736.09
670.87	2660.31
671.06	2457.56
671.24	2504.67
671.43	2758.61
671.62	2541.53
671.80	2498.52
671.99	2537.43
672.18	2478.04
672.36	2664.41
672.55	2629.59
672.74	2400.22
672.92	2498.52
673.11	2621.40
673.29	2351.07
673.48	2592.73
673.67	2435.03
673.85	2684.89
674.04	2377.69
674.23	2514.91
674.41	2793.43
674.60	2392.03
674.79	2289.63
674.97	2406.36
675.16	2564.06
675.34	2551.77
675.53	2457.56
675.72	2506.71
675.90	2715.61
676.09	2437.08
676.28	2475.99
676.46	2367.45
676.65	2531.29
676.83	2439.13
677.02	2519.00
677.21	2492.38
677.39	2564.06
677.58	2439.13
677.77	2404.32
677.95	2342.88
678.14	2512.86
678.32	2416.60
678.51	2424.80
678.70	2731.99
678.88	2385.88
679.07	2457.56
679.25	2461.66
679.44	2510.81
679.63	2344.92
679.81	2523.10
680.00	2654.17
680.18	2510.81
680.37	2645.98
680.55	2539.48
680.74	2340.83
680.93	2224.09
681.11	2469.85
681.30	2473.95
681.48	2598.87
681.67	2408.41
681.85	2445.27
682.04	2379.74
682.23	2566.10
682.41	2435.03
682.60	2457.56
682.78	2523.10
682.97	2301.92
683.15	2496.47
683.34	2510.81
683.53	2686.94
683.71	2301.92
683.90	2607.06
684.08	2666.46
684.27	2471.90
684.45	2506.71
684.64	2600.92
684.82	2498.52
685.01	2602.97
685.19	2392.03
685.38	2580.44
685.57	2488.28
685.75	2316.25
685.94	2482.14
686.12	2363.36
686.31	2410.46
686.49	2676.70
686.68	2271.20
686.86	2404.32
687.05	2435.03
687.23	2709.46
687.42	2369.50
687.60	2289.63
687.79	2576.34
687.97	2613.21
688.16	2572.25
688.34	2594.78
688.53	2310.11
688.71	2461.66
688.90	2650.07
689.08	2361.31
689.27	2258.91
689.45	2580.44
689.64	2545.63
689.82	2549.72
690.01	2570.20
690.19	2490.33
690.38	2502.62
690.56	2582.49
690.75	2346.97
690.93	2441.18
691.12	2330.59
691.30	2447.32
691.49	2414.56
691.67	2531.29
691.86	2676.70
692.04	2480.09
692.23	2564.06
692.41	2557.91
692.60	2701.27
692.78	2596.82
692.97	2523.10
693.15	2568.15
693.34	2701.27
693.52	2590.68
693.71	2488.28
693.89	2471.90
694.08	2322.40
694.26	2484.19
694.44	2592.73
694.63	2611.16
694.81	2398.17
695.00	2453.47
695.18	2502.62
695.37	2768.85
695.55	2463.71
695.74	2568.15
695.92	2486.23
696.10	2676.70
696.29	2340.83
696.47	2453.47
696.66	2385.88
696.84	2418.65
697.03	2523.10
697.21	2662.36
697.40	3708.87
697.58	2566.10
697.76	2404.32
697.95	2430.94
698.13	2355.16
698.32	2441.18
698.50	2496.47
698.68	2469.85
698.87	2541.53
699.05	2674.65
699.24	2514.91
699.42	2308.06
699.61	2512.86
699.79	2461.66
699.97	2461.66
700.16	2340.83
700.34	2334.68
700.53	2572.25
700.71	2699.22
700.89	2592.73
701.08	2432.99
701.26	2568.15
701.45	2973.65
701.63	2404.32
701.81	2457.56
702.00	2461.66
702.18	2516.95
702.37	2453.47
702.55	2772.95
702.73	2744.28
702.92	2658.26
703.10	2854.87
703.28	2756.57
703.47	2475.99
703.65	2768.85
703.84	2697.17
704.02	2457.56
704.20	2709.46
704.39	2414.56
704.57	2471.90
704.75	2635.74
704.94	2609.11
705.12	2512.86
705.30	2875.35
705.49	5752.74
705.67	13010.75
705.86	21458.62
706.04	24985.22
706.22	28169.81
706.41	28794.44
706.59	23434.91
706.77	16856.83
706.96	14380.84
707.14	12619.58
707.32	10737.50
707.51	9621.36
707.69	7741.32
707.87	6211.49
708.06	4919.22
708.24	4136.90
708.42	3452.88
708.61	3256.27
708.79	2645.98
708.97	2574.30
709.16	2703.32
709.34	2633.69
709.52	2455.51
709.71	2488.28
709.89	2498.52
710.07	2349.02
710.26	2322.40
710.44	2500.57
710.62	2596.82
710.80	2508.76
710.99	2525.15
711.17	2533.34
711.35	2412.51
711.54	2416.60
711.72	2643.93
711.90	2539.48
712.09	2527.19
712.27	2422.75
712.45	2557.91
712.63	2480.09
712.82	2414.56
713.00	2490.33
713.18	2529.24
713.37	2584.54
713.55	2555.86
713.73	2539.48
713.91	2529.24
714.10	2443.23
714.28	2478.04
714.46	2510.81
714.65	2570.20
714.83	2551.77
715.01	2535.39
715.19	2488.28
715.38	2400.22
715.56	2555.86
715.74	2422.75
715.92	2398.17
716.11	2607.06
716.29	2170.85
716.47	2498.52
716.65	2537.43
716.84	2301.92
717.02	2580.44
717.20	2273.25
717.38	2414.56
717.57	2537.43
717.75	2467.80
717.93	2383.84
718.11	2574.30
718.30	2291.68
718.48	2519.00
718.66	2586.58
718.84	2553.82
719.03	2555.86
719.21	2361.31
719.39	2723.80
719.57	2572.25
719.75	2578.39
719.94	2424.80
720.12	2469.85
720.30	2494.43
720.48	2521.05
720.67	2392.03
720.85	2455.51
721.03	2441.18
721.21	2332.64
721.39	2519.00
721.58	2514.91
721.76	2531.29
721.94	2580.44
722.12	2461.66
722.30	2660.31
722.49	2373.60
722.67	2492.38
722.85	2457.56
723.03	2340.83
723.21	2490.33
723.40	2555.86
723.58	2670.55
723.76	2592.73
723.94	2629.59
724.12	2473.95
724.30	2723.80
724.49	2682.84
724.67	2484.19
724.85	2654.17
725.03	2336.73
725.21	2596.82
725.40	2686.94
725.58	2400.22
725.76	2600.92
725.94	2504.67
726.12	2392.03
726.30	2510.81
726.49	2406.36
726.67	2498.52
726.85	2598.87
727.03	2906.07
727.21	4261.82
727.39	6094.76
727.57	6852.50
727.76	7571.34
727.94	7876.49
728.12	7155.60
728.30	5605.29
728.48	5158.83
728.66	4675.51
728.84	4300.73
729.03	3530.70
729.21	3233.74
729.39	2947.03
729.57	2695.13
729.75	2703.32
729.93	2615.26
730.11	2412.51
730.30	2406.36
730.48	2392.03
730.66	2580.44
730.84	2592.73
731.02	2527.19
731.20	2435.03
731.38	2465.75
731.56	2248.67
731.74	2437.08
731.93	2543.58
732.11	2512.86
732.29	2400.22
732.47	2590.68
732.65	2584.54
732.83	2635.74
733.01	2568.15
733.19	2467.80
733.37	2562.01
733.56	2441.18
733.74	2373.60
733.92	2611.16
734.10	2463.71
734.28	2551.77
734.46	2238.43
734.64	2537.43
734.82	2539.48
735.00	2426.84
735.18	2369.50
735.36	2490.33
735.54	2408.41
735.73	2432.99
735.91	2531.29
736.09	2508.76
736.27	2449.37
736.45	2506.71
736.63	2324.44
736.81	2432.99
736.99	2568.15
737.17	2648.02
737.35	2432.99
737.53	2535.39
737.71	2396.12
737.89	2578.39
738.07	2342.88
738.25	2334.68
738.43	2322.40
738.61	2482.14
738.80	2363.36
738.98	2295.77
739.16	2418.65
739.34	2373.60
739.52	2676.70
739.70	2375.64
739.88	2605.02
740.06	2500.57
740.24	2269.15
740.42	2580.44
740.60	2334.68
740.78	2367.45
740.96	2191.33
741.14	2422.75
741.32	2482.14
741.50	2293.72
741.68	2691.03
741.86	2639.83
742.04	2299.87
742.22	2394.08
742.40	2527.19
742.58	2584.54
742.76	2416.60
742.94	2600.92
743.12	2371.55
743.30	2439.13
743.48	2467.80
743.66	2389.98
743.84	2480.09
744.02	2473.95
744.20	2453.47
744.38	2342.88
744.56	2408.41
744.74	2654.17
744.92	2582.49
745.10	2605.02
745.28	2498.52
745.46	2715.61
745.64	2441.18
745.82	2488.28
746.00	2418.65
746.18	2527.19
746.36	2346.97
746.54	2498.52
746.72	2424.80
746.90	2392.03
747.08	2654.17
747.26	2441.18
747.44	2531.29
747.62	2508.76
747.80	2516.95
747.98	2619.35
748.15	2385.88
748.33	2707.41
748.51	2486.23
748.69	2533.34
748.87	2377.69
749.05	2416.60
749.23	2490.33
749.41	2498.52
749.59	2351.07
749.77	2594.78
749.95	2453.47
750.13	2371.55
750.31	2412.51
750.49	2496.47
750.67	2654.17
750.85	2572.25
751.03	2461.66
751.20	2719.70
751.38	2459.61
751.56	2396.12
751.74	2457.56
751.92	2371.55
752.10	2328.54
752.28	2613.21
752.46	2447.32
752.64	2420.70
752.82	2416.60
753.00	2514.91
753.18	2420.70
753.35	2432.99
753.53	2529.24
753.71	2406.36
753.89	2430.94
754.07	2564.06
754.25	2580.44
754.43	2533.34
754.61	2314.20
754.79	2514.91
754.97	2449.37
755.14	2588.63
755.32	2320.35
755.50	2527.19
755.68	2494.43
755.86	2379.74
756.04	2365.40
756.22	2246.62
756.40	2607.06
756.57	2664.41
756.75	2400.22
756.93	2600.92
757.11	2537.43
757.29	2334.68
757.47	2361.31
757.65	2342.88
757.82	2215.90
758.00	2271.20
758.18	2426.84
758.36	2408.41
758.54	2758.61
758.72	2252.77
758.90	2459.61
759.07	2549.72
759.25	2353.12
759.43	2523.10
759.61	2306.01
759.79	3542.99
759.97	2555.86
760.15	2510.81
760.32	2377.69
760.50	2535.39
760.68	2660.31
760.86	2381.79
761.04	2656.22
761.22	2594.78
761.39	2457.56
761.57	2502.62
761.75	2449.37
761.93	2578.39
762.11	2469.85
762.28	2441.18
762.46	2371.55
762.64	2660.31
762.82	2357.21
763.00	2437.08
763.18	2559.96
763.35	2277.34
763.53	2555.86
763.71	2451.42
763.89	2510.81
764.07	2469.85
764.24	2527.19
764.42	2580.44
764.60	2400.22
764.78	2494.43
764.96	2602.97
765.13	2578.39
765.31	2420.70
765.49	2523.10
765.67	2359.26
765.84	2416.60
766.02	2342.88
766.20	2250.72
766.38	2564.06
766.56	2523.10
766.73	2621.40
766.91	2488.28
767.09	2539.48
767.27	2504.67
767.44	2432.99
767.62	2568.15
767.80	2488.28
767.98	2334.68
768.15	2402.27
768.33	2568.15
768.51	2572.25
768.69	2576.34
768.87	2498.52
769.04	2494.43
769.22	2766.81
769.40	2582.49
769.58	2697.17
769.75	2535.39
769.93	2631.64
770.11	2482.14
770.28	2330.59
770.46	2539.48
770.64	2645.98
770.82	2332.64
770.99	2402.27
771.17	2523.10
771.35	2486.23
771.53	2394.08
771.70	2449.37
771.88	2566.10
772.06	2383.84
772.23	2537.43
772.41	2494.43
772.59	2408.41
772.77	2373.60
772.94	2478.04
773.12	2580.44
773.30	2463.71
773.47	2574.30
773.65	2361.31
773.83	2555.86
774.01	2484.19
774.18	2260.96
774.36	2523.10
774.54	2349.02
774.71	2502.62
774.89	2328.54
775.07	2404.32
775.24	2396.12
775.42	2420.70
775.60	2705.37
775.78	2375.64
775.95	2408.41
776.13	2349.02
776.31	2275.29
776.48	2457.56
776.66	2600.92
776.84	2435.03
777.01	2412.51
777.19	2326.49
777.37	2385.88
777.54	2592.73
777.72	2768.85
777.90	2519.00
778.07	2383.84
778.25	2809.81
778.43	2627.54
778.60	2432.99
778.78	2504.67
778.96	2697.17
779.13	2328.54
779.31	2584.54
779.49	2389.98
779.66	2492.38
779.84	2496.47
780.01	2437.08
780.19	2408.41
780.37	2596.82
780.54	2545.63
780.72	2367.45
780.90	2398.17
781.07	2473.95
781.25	2424.80
781.43	2602.97
781.60	2398.17
781.78	2641.88
781.95	2443.23
782.13	2359.26
782.31	2449.37
782.48	2226.14
782.66	2478.04
782.83	2699.22
783.01	2457.56
783.19	2555.86
783.36	2459.61
783.54	2365.40
783.72	2488.28
783.89	2424.80
784.07	2559.96
784.24	2480.09
784.42	2586.58
784.60	2498.52
784.77	2555.86
784.95	2306.01
785.12	2437.08
785.30	2488.28
785.47	2306.01
785.65	2349.02
785.83	2392.03
786.00	2408.41
786.18	2416.60
786.35	2318.30
786.53	2381.79
786.71	2506.71
786.88	2588.63
787.06	2494.43
787.23	2471.90
787.41	2312.16
787.58	2525.15
787.76	2412.51
787.94	2432.99
788.11	2486.23
788.29	2373.60
788.46	2447.32
788.64	2371.55
788.81	2469.85
788.99	2389.98
789.16	2281.44
789.34	2432.99
789.52	2471.90
789.69	2396.12
789.87	2201.57
790.04	2420.70
790.22	2478.04
790.39	2858.96
790.57	2359.26
790.74	2326.49
790.92	2531.29
791.09	2320.35
791.27	2473.95
791.44	2566.10
791.62	2428.89
791.79	2572.25
791.97	2422.75
792.15	2717.65
792.32	2500.57
792.50	2580.44
792.67	2652.12
792.85	2551.77
793.02	2496.47
793.20	2435.03
793.37	2258.91
793.55	2531.29
793.72	2318.30
793.90	2570.20
794.07	2422.75
794.25	2408.41
794.42	2516.95
794.60	2461.66
794.77	2482.14
794.95	2506.71
795.12	2643.93
795.30	2516.95
795.47	2293.72
795.65	2748.37
795.82	2512.86
796.00	2361.31
796.17	2404.32
796.34	2420.70
796.52	2510.81
796.69	2627.54
796.87	2533.34
797.04	2545.63
797.22	2535.39
797.39	2519.00
797.57	2568.15
797.74	2482.14
797.92	2512.86
798.09	2355.16
798.27	2572.25
798.44	2435.03
798.62	2506.71
798.79	2473.95
798.96	2467.80
799.14	2439.13
799.31	2777.05
799.49	2465.75
799.66	2447.32
799.84	2508.76
800.01	2420.70
800.19	2486.23
800.36	2314.20
800.53	2467.80
800.71	2584.54
800.88	2658.26
801.06	2383.84
801.23	2359.26
801.41	2457.56
801.58	2451.42
801.75	2338.78
801.93	2506.71
802.10	2551.77
802.28	2400.22
802.45	2451.42
802.63	2492.38
802.80	2621.40
802.97	2484.19
803.15	2412.51
803.32	2396.12
803.50	2389.98
803.67	2385.88
803.84	2334.68
804.02	2469.85
804.19	2385.88
804.37	2195.42
804.54	2351.07
804.71	2432.99
804.89	2482.14
805.06	2367.45
805.24	2344.92
805.41	2408.41
805.58	2471.90
805.76	2734.04
805.93	2459.61
806.10	2678.74
806.28	2580.44
806.45	2490.33
806.63	2523.10
806.80	2494.43
806.97	2498.52
807.15	2555.86
807.32	2379.74
807.49	2377.69
807.67	2361.31
807.84	2490.33
808.01	2330.59
808.19	2645.98
808.36	2756.57
808.54	2389.98
808.71	2351.07
808.88	2426.84
809.06	2678.74
809.23	2711.51
809.40	2416.60
809.58	2441.18
809.75	2490.33
809.92	2316.25
810.10	2701.27
810.27	2576.34
810.44	2459.61
810.62	2543.58
810.79	2469.85
810.96	2326.49
811.14	2383.84
811.31	2519.00
811.48	2506.71
811.66	2422.75
811.83	2623.45
812.00	2578.39
812.18	2514.91
812.35	2691.03
812.52	2379.74
812.69	2465.75
812.87	2469.85
813.04	2359.26
813.21	2449.37
813.39	2420.70
813.56	2365.40
813.73	2506.71
813.91	2314.20
814.08	2498.52
814.25	2535.39
814.42	2287.58
814.60	2416.60
814.77	2559.96
814.94	2445.27
815.12	2473.95
815.29	2662.36
815.46	2392.03
815.63	2439.13
815.81	2478.04
815.98	2437.08
816.15	2437.08
816.33	2480.09
816.50	2435.03
816.67	2469.85
816.84	2453.47
817.02	2334.68
817.19	2387.93
817.36	2500.57
817.53	2510.81
817.71	2344.92
817.88	2516.95
818.05	2449.37
818.22	2412.51
818.40	2678.74
818.57	2389.98
818.74	2594.78
818.91	2527.19
819.09	2611.16
819.26	2514.91
819.43	2455.51
819.60	2402.27
819.78	2506.71
819.95	2605.02
820.12	2385.88
820.29	2621.40
820.47	2635.74
820.64	2406.36
820.81	2402.27
820.98	2330.59
821.15	2371.55
821.33	2547.67
821.50	2310.11
821.67	2496.47
821.84	2355.16
822.02	2473.95
822.19	2572.25
822.36	2385.88
822.53	2420.70
822.70	2357.21
822.88	2465.75
823.05	2652.12
823.22	2408.41
823.39	2490.33
823.56	2516.95
823.74	2596.82
823.91	2351.07
824.08	2281.44
824.25	2394.08
824.42	2639.83
824.60	2377.69
824.77	2535.39
824.94	2445.27
825.11	2572.25
825.28	2320.35
825.45	2424.80
825.63	2539.48
825.80	2318.30
825.97	2562.01
826.14	2469.85
826.31	2312.16
826.48	2523.10
826.66	2389.98
826.83	2377.69
827.00	2422.75
827.17	2351.07
827.34	2496.47
827.51	2349.02
827.69	2432.99
827.86	2283.49
828.03	2406.36
828.20	2457.56
828.37	2467.80
828.54	2564.06
828.71	2373.60
828.89	2555.86
829.06	2529.24
829.23	2666.46
829.40	2373.60
829.57	2420.70
829.74	2564.06
829.91	2359.26
830.09	2359.26
830.26	2514.91
830.43	2596.82
830.60	2428.89
830.77	2537.43
830.94	2494.43
831.11	2514.91
831.28	2412.51
831.46	2566.10
831.63	2430.94
831.80	2605.02
831.97	2400.22
832.14	2396.12
832.31	2480.09
832.48	2508.76
832.65	2594.78
832.82	2473.95
832.99	2527.19
833.17	2389.98
833.34	2617.30
833.51	2510.81
833.68	2336.73
833.85	2535.39
834.02	2351.07
834.19	2320.35
834.36	2357.21
834.53	2506.71
834.70	2539.48
834.87	2490.33
835.04	2381.79
835.22	2414.56
835.39	2408.41
835.56	2318.30
835.73	2308.06
835.90	2580.44
836.07	2383.84
836.24	2426.84
836.41	2269.15
836.58	2363.36
836.75	2600.92
836.92	2447.32
837.09	2342.88
837.26	2600.92
837.43	2500.57
837.60	2490.33
837.77	2400.22
837.94	2553.82
838.12	2613.21
838.29	2387.93
838.46	2254.81
838.63	2357.21
838.80	2668.50
838.97	2488.28
839.14	2439.13
839.31	2512.86
839.48	2596.82
839.65	2414.56
839.82	2441.18
839.99	2531.29
840.16	2406.36
840.33	2285.53
840.50	2492.38
840.67	2400.22
840.84	2244.57
841.01	2389.98
841.18	2334.68
841.35	2430.94
841.52	2605.02
841.69	2637.78
841.86	2324.44
842.03	2459.61
842.20	2588.63
842.37	2338.78
842.54	2351.07
842.71	2461.66
842.88	2275.29
843.05	2424.80
843.22	2420.70
843.39	2559.96
843.56	2424.80
843.73	2387.93
843.90	2426.84
844.07	2463.71
844.24	2605.02
844.41	2562.01
844.58	2365.40
844.75	2424.80
844.92	2531.29
845.09	2373.60
845.26	2365.40
845.43	2545.63
845.60	2428.89
845.77	2496.47
845.94	2465.75
846.10	2545.63
846.27	2314.20
846.44	2271.20
846.61	2254.81
846.78	2490.33
846.95	2576.34
847.12	2359.26
847.29	2422.75
847.46	2404.32
847.63	2555.86
847.80	2359.26
847.97	2400.22
848.14	2731.99
848.31	2467.80
848.48	2330.59
848.65	2455.51
848.82	2398.17
848.98	2740.18
849.15	2535.39
849.32	2570.20
849.49	2498.52
849.66	2549.72
849.83	2428.89
850.00	2301.92
850.17	2617.30
850.34	2490.33
850.51	2336.73
850.68	2330.59
850.85	2729.94
851.01	2525.15
851.18	2455.51
851.35	2424.80
851.52	2486.23
851.69	2639.83
851.86	2281.44
852.03	2332.64
852.20	2496.47
852.37	2455.51
852.53	2187.23
852.70	2394.08
852.87	2498.52
853.04	2547.67
853.21	2351.07
853.38	2516.95
853.55	2555.86
853.72	2662.36
853.89	2275.29
854.05	2318.30
854.22	2400.22
854.39	2492.38
854.56	2414.56
854.73	2432.99
854.90	2383.84
855.07	2478.04
855.23	2265.05
855.40	2330.59
855.57	2424.80
855.74	2224.09
855.91	2635.74
856.08	2258.91
856.25	2303.96
856.41	2412.51
856.58	2338.78
856.75	2408.41
856.92	2389.98
857.09	2574.30
857.26	2289.63
857.42	2469.85
857.59	2496.47
857.76	2396.12
857.93	2437.08
858.10	2461.66
858.27	2375.64
858.43	2537.43
858.60	2363.36
858.77	2269.15
858.94	2404.32
859.11	2602.97
859.27	2361.31
859.44	2408.41
859.61	2762.71
859.78	2596.82
859.95	2346.97
860.12	2310.11
860.28	2682.84
860.45	2777.05
860.62	2365.40
860.79	2457.56
860.95	2396.12
861.12	2437.08
861.29	2293.72
861.46	2342.88
861.63	2490.33
861.79	2478.04
861.96	2310.11
862.13	2367.45
862.30	2643.93
862.47	2457.56
862.63	2310.11
862.80	2441.18
862.97	2564.06
863.14	2508.76
863.30	2398.17
863.47	2320.35
863.64	2686.94
863.81	2443.23
863.97	2289.63
864.14	2404.32
864.31	2486.23
864.48	2473.95
864.65	2381.79
864.81	2465.75
864.98	2535.39
865.15	2557.91
865.32	2498.52
865.48	2469.85
865.65	2582.49
865.82	2469.85
865.98	2367.45
866.15	2435.03
866.32	2490.33
866.49	2381.79
866.65	2576.34
866.82	2410.46
866.99	2428.89
867.16	2392.03
867.32	2451.42
867.49	2400.22
867.66	2490.33
867.83	2408.41
867.99	2310.11
868.16	2375.64
868.33	2330.59
868.49	2402.27
868.66	2334.68
868.83	2494.43
868.99	2473.95
869.16	2496.47
869.33	2537.43
869.50	2555.86
869.66	2432.99
869.83	2420.70
870.00	2285.53
870.16	2521.05
870.33	2496.47
870.50	2619.35
870.66	2432.99
870.83	2486.23
871.00	2349.02
871.17	2580.44
871.33	2418.65
871.50	2346.97
871.67	2473.95
871.83	2336.73
872.00	2514.91
872.17	2424.80
872.33	2715.61
872.50	2562.01
872.67	2367.45
872.83	2306.01
873.00	2559.96
873.17	2445.27
873.33	2377.69
873.50	2498.52
873.67	2385.88
873.83	2373.60
874.00	2392.03
874.16	2521.05
874.33	2502.62
874.50	2369.50
874.66	2396.12
874.83	2441.18
875.00	2605.02
875.16	2566.10
875.33	2437.08
875.50	2224.09
875.66	2377.69
875.83	2496.47
875.99	2426.84
876.16	2265.05
876.33	2336.73
876.49	2392.03
876.66	2422.75
876.83	2359.26
876.99	2228.19
877.16	2467.80
877.32	2394.08
877.49	2387.93
877.66	2529.24
877.82	2605.02
877.99	2445.27
878.15	2602.97
878.32	2541.53
878.49	2463.71
878.65	2400.22
878.82	2564.06
878.98	2301.92
879.15	2551.77
879.32	2445.27
879.48	2471.90
879.65	2539.48
879.81	2398.17
879.98	2373.60
880.15	2351.07
880.31	2512.86
880.48	2318.30
880.64	2564.06
880.81	2453.47
880.97	2611.16
881.14	2658.26
881.31	2330.59
881.47	2557.91
881.64	2437.08
881.80	2387.93
881.97	2480.09
882.13	2441.18
882.30	2308.06
882.47	2285.53
882.63	2334.68
882.80	2353.12
882.96	2432.99
883.13	2596.82
883.29	2349.02
883.46	2408.41
883.62	2744.28
883.79	2430.94
883.95	2527.19
884.12	2371.55
884.29	2586.58
884.45	2498.52
884.62	2463.71
884.78	2334.68
884.95	2658.26
885.11	2387.93
885.28	2457.56
885.44	2373.60
885.61	2652.12
885.77	2615.26
885.94	2533.34
886.10	2441.18
886.27	2469.85
886.43	2641.88
886.60	2541.53
886.76	2330.59
886.93	2344.92
887.09	2531.29
887.26	2260.96
887.42	2414.56
887.59	2559.96
887.75	2680.79
887.92	2605.02
888.08	2424.80
888.25	2742.23
888.41	2531.29
888.58	2375.64
888.74	2285.53
888.91	2369.50
>>>>>End Processed Spectral Data<<<<<
