SpectraSuite Data File
++++++++++++++++++++++++++++++++++++
Date: Thu May 05 14:41:41 CEST 2016
User: root
Dark Spectrum Present: No
Reference Spectrum Present: No
Number of Sampled Component Spectra: 1
Spectrometers: USB4C02835
Integration Time (usec): 100000 (USB4C02835)
Spectra Averaged: 1 (USB4C02835)
Boxcar Smoothing: 0 (USB4C02835)
Correct for Electrical Dark: No (USB4C02835)
Strobe/Lamp Enabled: No (USB4C02835)
Correct for Detector Non-linearity: No (USB4C02835)
Correct for Stray Light: No (USB4C02835)
Number of Pixels in Processed Spectrum: 3648
>>>>>Begin Processed Spectral Data<<<<<
177.47	1896.42
177.69	1896.42
177.91	1896.42
178.13	1918.95
178.36	1961.95
178.58	2367.45
178.80	2521.05
179.02	2322.40
179.24	2412.51
179.46	2351.07
179.68	2402.27
179.90	2449.37
180.13	2519.00
180.35	2291.68
180.57	2301.92
180.79	2619.35
181.01	2435.03
181.23	2412.51
181.45	2529.24
181.67	2506.71
181.90	2553.82
182.12	2414.56
182.34	2220.00
182.56	2539.48
182.78	2576.34
183.00	2277.34
183.22	2346.97
183.44	2217.95
183.66	2922.45
183.89	2480.09
184.11	2367.45
184.33	2572.25
184.55	2645.98
184.77	2383.84
184.99	2371.55
185.21	2428.89
185.43	2752.47
185.65	2310.11
185.87	2338.78
186.10	2684.89
186.32	2752.47
186.54	2400.22
186.76	2408.41
186.98	2645.98
187.20	2478.04
187.42	2461.66
187.64	2351.07
187.86	2545.63
188.08	2654.17
188.30	2361.31
188.52	2400.22
188.75	2695.13
188.97	2645.98
189.19	2297.82
189.41	2355.16
189.63	2465.75
189.85	2459.61
190.07	2260.96
190.29	2293.72
190.51	2547.67
190.73	2332.64
190.95	2533.34
191.17	2389.98
191.39	2295.77
191.61	2428.89
191.84	2357.21
192.06	2371.55
192.28	2326.49
192.50	2916.31
192.72	2455.51
192.94	2385.88
193.16	2592.73
193.38	2480.09
193.60	2291.68
193.82	2461.66
194.04	2588.63
194.26	2539.48
194.48	2310.11
194.70	2269.15
194.92	2447.32
195.14	2635.74
195.36	2363.36
195.58	2420.70
195.80	2410.46
196.02	2406.36
196.24	2383.84
196.46	2439.13
196.69	2465.75
196.91	2838.48
197.13	2392.03
197.35	2279.39
197.57	2779.09
197.79	2506.71
198.01	2340.83
198.23	2412.51
198.45	2559.96
198.67	2320.35
198.89	2252.77
199.11	2402.27
199.33	2465.75
199.55	2224.09
199.77	2338.78
199.99	2453.47
200.21	2426.84
200.43	2473.95
200.65	2318.30
200.87	2203.61
201.09	2437.08
201.31	2406.36
201.53	2373.60
201.75	2422.75
201.97	2539.48
202.19	2531.29
202.41	2461.66
202.63	2494.43
202.85	2510.81
203.07	2506.71
203.29	2383.84
203.51	2293.72
203.73	2326.49
203.95	2875.35
204.17	2365.40
204.39	2404.32
204.61	2496.47
204.83	2445.27
205.05	2449.37
205.27	2387.93
205.49	2793.43
205.71	2600.92
205.93	2340.83
206.15	2297.82
206.37	2549.72
206.59	2516.95
206.81	2252.77
207.03	2183.13
207.25	2445.27
207.47	2574.30
207.69	2392.03
207.91	2514.91
208.13	2658.26
208.34	2359.26
208.56	2238.43
208.78	2381.79
209.00	2453.47
209.22	2449.37
209.44	2310.11
209.66	2334.68
209.88	2480.09
210.10	2502.62
210.32	2295.77
210.54	2482.14
210.76	2471.90
210.98	2680.79
211.20	2160.61
211.42	2420.70
211.64	2549.72
211.86	2480.09
212.08	2432.99
212.30	2371.55
212.52	2447.32
212.74	2451.42
212.96	2367.45
213.17	2359.26
213.39	2578.39
213.61	2654.17
213.83	2330.59
214.05	2387.93
214.27	2596.82
214.49	2349.02
214.71	2293.72
214.93	2430.94
215.15	2420.70
215.37	2531.29
215.59	2273.25
215.81	2416.60
216.03	2719.70
216.24	2543.58
216.46	2389.98
216.68	2426.84
216.90	2602.97
217.12	2639.83
217.34	2334.68
217.56	2428.89
217.78	2674.65
218.00	2559.96
218.22	2459.61
218.44	2371.55
218.66	2441.18
218.87	2740.18
219.09	2310.11
219.31	2303.96
219.53	2504.67
219.75	2416.60
219.97	2392.03
220.19	2447.32
220.41	2451.42
220.63	2682.84
220.85	2320.35
221.06	2389.98
221.28	2621.40
221.50	2547.67
221.72	2379.74
221.94	2353.12
222.16	2457.56
222.38	2514.91
222.60	2379.74
222.82	2414.56
223.03	2502.62
223.25	2396.12
223.47	2340.83
223.69	2541.53
223.91	2543.58
224.13	2529.24
224.35	2334.68
224.57	2535.39
224.78	2568.15
225.00	2385.88
225.22	2344.92
225.44	2267.10
225.66	2551.77
225.88	2416.60
226.10	2422.75
226.32	2430.94
226.53	2678.74
226.75	2467.80
226.97	2357.21
227.19	2416.60
227.41	2430.94
227.63	2408.41
227.85	2250.72
228.06	2379.74
228.28	2549.72
228.50	2598.87
228.72	2246.62
228.94	2334.68
229.16	2256.86
229.37	2336.73
229.59	2283.49
229.81	2521.05
230.03	2414.56
230.25	2387.93
230.47	2213.85
230.69	2244.57
230.90	2613.21
231.12	2387.93
231.34	2420.70
231.56	2473.95
231.78	2359.26
232.00	2459.61
232.21	2367.45
232.43	2310.11
232.65	2244.57
232.87	2465.75
233.09	2199.52
233.30	2349.02
233.52	2523.10
233.74	2441.18
233.96	2297.82
234.18	2394.08
234.40	2449.37
234.61	2772.95
234.83	2293.72
235.05	2252.77
235.27	2813.91
235.49	2594.78
235.70	2293.72
235.92	2459.61
236.14	2643.93
236.36	2768.85
236.58	2291.68
236.79	2394.08
237.01	2461.66
237.23	2469.85
237.45	2572.25
237.67	2295.77
237.88	2531.29
238.10	2775.00
238.32	2303.96
238.54	2342.88
238.76	2430.94
238.97	2289.63
239.19	2260.96
239.41	2443.23
239.63	2672.60
239.85	2424.80
240.06	2379.74
240.28	2367.45
240.50	2578.39
240.72	2451.42
240.93	2349.02
241.15	2453.47
241.37	2480.09
241.59	2586.58
241.81	2344.92
242.02	2387.93
242.24	2510.81
242.46	2605.02
242.68	2267.10
242.89	2342.88
243.11	2641.88
243.33	2512.86
243.55	2289.63
243.76	2359.26
243.98	2451.42
244.20	2519.00
244.42	2322.40
244.64	2344.92
244.85	2279.39
245.07	2338.78
245.29	2357.21
245.51	2392.03
245.72	2508.76
245.94	2555.86
246.16	2310.11
246.38	2430.94
246.59	2363.36
246.81	2373.60
247.03	2232.29
247.24	2211.81
247.46	2408.41
247.68	2475.99
247.90	2314.20
248.11	2301.92
248.33	2576.34
248.55	2514.91
248.77	2439.13
248.98	2392.03
249.20	2738.13
249.42	2461.66
249.64	2322.40
249.85	2349.02
250.07	2441.18
250.29	2562.01
250.50	2426.84
250.72	2267.10
250.94	2525.15
251.16	2777.05
251.37	2406.36
251.59	2357.21
251.81	2502.62
252.02	2691.03
252.24	2324.44
252.46	2506.71
252.68	2394.08
252.89	2543.58
253.11	2260.96
253.33	2457.56
253.54	2600.92
253.76	2344.92
253.98	2330.59
254.20	2279.39
254.41	2312.16
254.63	2422.75
254.85	2256.86
255.06	2363.36
255.28	2478.04
255.50	2430.94
255.71	2310.11
255.93	2213.85
256.15	2410.46
256.36	2535.39
256.58	2220.00
256.80	2428.89
257.02	2437.08
257.23	2480.09
257.45	2400.22
257.67	2394.08
257.88	2449.37
258.10	2568.15
258.32	2291.68
258.53	2449.37
258.75	2713.56
258.97	2422.75
259.18	2297.82
259.40	2250.72
259.62	2670.55
259.83	2654.17
260.05	2269.15
260.27	2975.70
260.48	2705.37
260.70	2340.83
260.92	2269.15
261.13	2414.56
261.35	2537.43
261.57	2559.96
261.78	2269.15
262.00	2293.72
262.22	2580.44
262.43	2447.32
262.65	2332.64
262.86	2387.93
263.08	2803.67
263.30	2523.10
263.51	2236.38
263.73	2256.86
263.95	2654.17
264.16	2322.40
264.38	2275.29
264.60	2371.55
264.81	2449.37
265.03	2652.12
265.25	2529.24
265.46	2414.56
265.68	2621.40
265.89	2516.95
266.11	2240.48
266.33	2373.60
266.54	2643.93
266.76	2525.15
266.98	2435.03
267.19	2535.39
267.41	2539.48
267.62	2539.48
267.84	2211.81
268.06	2492.38
268.27	2478.04
268.49	2588.63
268.70	2355.16
268.92	2400.22
269.14	2353.12
269.35	2346.97
269.57	2377.69
269.79	2351.07
270.00	2441.18
270.22	2684.89
270.43	2238.43
270.65	2162.66
270.87	2478.04
271.08	2617.30
271.30	2353.12
271.51	2379.74
271.73	2539.48
271.95	2650.07
272.16	2312.16
272.38	2367.45
272.59	2420.70
272.81	2508.76
273.02	2371.55
273.24	2422.75
273.46	2650.07
273.67	2367.45
273.89	2277.34
274.10	2260.96
274.32	2564.06
274.54	2496.47
274.75	2416.60
274.97	2361.31
275.18	2545.63
275.40	2525.15
275.61	2361.31
275.83	2449.37
276.05	2367.45
276.26	2527.19
276.48	2492.38
276.69	2389.98
276.91	2414.56
277.12	2629.59
277.34	2473.95
277.55	2488.28
277.77	2482.14
277.99	2498.52
278.20	2406.36
278.42	2299.87
278.63	2379.74
278.85	2441.18
279.06	2330.59
279.28	2492.38
279.49	2598.87
279.71	2543.58
279.93	2449.37
280.14	2410.46
280.36	2291.68
280.57	2592.73
280.79	2527.19
281.00	2265.05
281.22	2443.23
281.43	2643.93
281.65	2252.77
281.86	2422.75
282.08	2490.33
282.29	2633.69
282.51	2351.07
282.73	2308.06
282.94	2254.81
283.16	2580.44
283.37	2598.87
283.59	2463.71
283.80	2588.63
284.02	2510.81
284.23	2514.91
284.45	2392.03
284.66	2353.12
284.88	2377.69
285.09	2400.22
285.31	2549.72
285.52	2455.51
285.74	2375.64
285.95	2553.82
286.17	2461.66
286.38	2650.07
286.60	2373.60
286.81	2361.31
287.03	2400.22
287.24	2482.14
287.46	2572.25
287.67	2445.27
287.89	2709.46
288.10	2465.75
288.32	2473.95
288.53	2566.10
288.75	2486.23
288.96	2568.15
289.18	2396.12
289.39	2326.49
289.61	2500.57
289.82	2811.86
290.04	2684.89
290.25	2246.62
290.47	2437.08
290.68	2475.99
290.90	2557.91
291.11	2297.82
291.33	2519.00
291.54	2420.70
291.76	2410.46
291.97	2508.76
292.18	2449.37
292.40	2338.78
292.61	2514.91
292.83	2682.84
293.04	2465.75
293.26	2408.41
293.47	2488.28
293.69	2371.55
293.90	2367.45
294.12	2600.92
294.33	2418.65
294.55	2428.89
294.76	2572.25
294.97	2613.21
295.19	2752.47
295.40	2416.60
295.62	2439.13
295.83	2596.82
296.05	2441.18
296.26	2539.48
296.48	2351.07
296.69	2392.03
296.90	2488.28
297.12	2529.24
297.33	2580.44
297.55	2449.37
297.76	2537.43
297.98	2445.27
298.19	2424.80
298.41	2482.14
298.62	2334.68
298.83	2607.06
299.05	2445.27
299.26	2465.75
299.48	2258.91
299.69	2463.71
299.90	2443.23
300.12	2351.07
300.33	2662.36
300.55	2416.60
300.76	2494.43
300.98	2365.40
301.19	2529.24
301.40	2420.70
301.62	2330.59
301.83	2566.10
302.05	2424.80
302.26	2351.07
302.47	2494.43
302.69	2394.08
302.90	2478.04
303.12	2185.18
303.33	2506.71
303.54	2740.18
303.76	2373.60
303.97	2473.95
304.19	2637.78
304.40	2439.13
304.61	2562.01
304.83	2543.58
305.04	2580.44
305.26	2578.39
305.47	2455.51
305.68	2420.70
305.90	2308.06
306.11	2572.25
306.33	2492.38
306.54	2338.78
306.75	2326.49
306.97	2389.98
307.18	2338.78
307.39	2404.32
307.61	2480.09
307.82	2471.90
308.04	2539.48
308.25	2250.72
308.46	2492.38
308.68	2482.14
308.89	2465.75
309.10	2455.51
309.32	2541.53
309.53	2396.12
309.74	2584.54
309.96	2363.36
310.17	2609.11
310.39	2506.71
310.60	2537.43
310.81	2465.75
311.03	2349.02
311.24	2549.72
311.45	2373.60
311.67	2633.69
311.88	2490.33
312.09	2488.28
312.31	2432.99
312.52	2461.66
312.73	2389.98
312.95	2414.56
313.16	2387.93
313.37	2535.39
313.59	2492.38
313.80	2559.96
314.01	2605.02
314.23	2402.27
314.44	2326.49
314.65	2346.97
314.87	2365.40
315.08	2351.07
315.29	2332.64
315.51	2461.66
315.72	2367.45
315.93	2523.10
316.15	2447.32
316.36	2463.71
316.57	2478.04
316.79	2471.90
317.00	2330.59
317.21	2541.53
317.43	2449.37
317.64	2498.52
317.85	2349.02
318.07	2410.46
318.28	2445.27
318.49	2555.86
318.70	2731.99
318.92	2633.69
319.13	2625.50
319.34	2660.31
319.56	2467.80
319.77	2615.26
319.98	2734.04
320.20	2506.71
320.41	2539.48
320.62	2570.20
320.83	2387.93
321.05	2578.39
321.26	2543.58
321.47	2437.08
321.69	2572.25
321.90	2291.68
322.11	2383.84
322.32	2543.58
322.54	2680.79
322.75	2389.98
322.96	2834.39
323.18	2359.26
323.39	2308.06
323.60	2420.70
323.81	2514.91
324.03	2381.79
324.24	2451.42
324.45	2494.43
324.66	2398.17
324.88	2533.34
325.09	2668.50
325.30	2498.52
325.52	2426.84
325.73	2539.48
325.94	2445.27
326.15	2308.06
326.37	2324.44
326.58	2547.67
326.79	2666.46
327.00	2301.92
327.22	2443.23
327.43	2435.03
327.64	2404.32
327.85	2473.95
328.07	2435.03
328.28	2619.35
328.49	2385.88
328.70	2457.56
328.92	2416.60
329.13	2443.23
329.34	2506.71
329.55	2695.13
329.76	2480.09
329.98	2482.14
330.19	2635.74
330.40	2484.19
330.61	2400.22
330.83	2576.34
331.04	2402.27
331.25	2463.71
331.46	2408.41
331.68	2326.49
331.89	2562.01
332.10	2478.04
332.31	2273.25
332.52	2467.80
332.74	2695.13
332.95	2252.77
333.16	2359.26
333.37	2574.30
333.58	2437.08
333.80	2439.13
334.01	2299.87
334.22	2457.56
334.43	2516.95
334.64	2414.56
334.86	2242.53
335.07	2375.64
335.28	2654.17
335.49	2263.01
335.70	2498.52
335.92	2738.13
336.13	2670.55
336.34	2480.09
336.55	2447.32
336.76	2465.75
336.98	2299.87
337.19	2363.36
337.40	2529.24
337.61	2709.46
337.82	2398.17
338.04	2435.03
338.25	2240.48
338.46	2482.14
338.67	2439.13
338.88	2355.16
339.09	2373.60
339.31	2404.32
339.52	2351.07
339.73	2334.68
339.94	2437.08
340.15	2631.64
340.36	2375.64
340.58	2424.80
340.79	2359.26
341.00	2572.25
341.21	2381.79
341.42	2619.35
341.63	2355.16
341.85	2475.99
342.06	2473.95
342.27	2467.80
342.48	2506.71
342.69	2275.29
342.90	2461.66
343.12	2529.24
343.33	2342.88
343.54	2568.15
343.75	2645.98
343.96	2400.22
344.17	2295.77
344.38	2475.99
344.60	2383.84
344.81	2400.22
345.02	2459.61
345.23	2621.40
345.44	2777.05
345.65	2500.57
345.86	2437.08
346.07	2496.47
346.29	2402.27
346.50	2451.42
346.71	2432.99
346.92	2670.55
347.13	2736.09
347.34	2430.94
347.55	2383.84
347.76	2506.71
347.98	2265.05
348.19	2412.51
348.40	2553.82
348.61	2420.70
348.82	2801.62
349.03	2504.67
349.24	2328.54
349.45	2680.79
349.66	2281.44
349.88	2416.60
350.09	2353.12
350.30	2672.60
350.51	2654.17
350.72	2453.47
350.93	2392.03
351.14	2385.88
351.35	2516.95
351.56	2363.36
351.77	2496.47
351.99	2531.29
352.20	2701.27
352.41	2562.01
352.62	2131.94
352.83	2482.14
353.04	2478.04
353.25	2406.36
353.46	2439.13
353.67	2623.45
353.88	2211.81
354.09	2375.64
354.30	2447.32
354.52	2453.47
354.73	2533.34
354.94	2414.56
355.15	2400.22
355.36	2705.37
355.57	2367.45
355.78	2426.84
355.99	2412.51
356.20	2396.12
356.41	2602.97
356.62	2428.89
356.83	2461.66
357.04	2629.59
357.25	2318.30
357.46	2383.84
357.68	2314.20
357.89	2465.75
358.10	2449.37
358.31	2490.33
358.52	2461.66
358.73	2338.78
358.94	2361.31
359.15	2492.38
359.36	2414.56
359.57	2568.15
359.78	2420.70
359.99	2521.05
360.20	2326.49
360.41	2392.03
360.62	2516.95
360.83	2498.52
361.04	2478.04
361.25	2498.52
361.46	2625.50
361.67	2555.86
361.88	2486.23
362.09	2594.78
362.30	2551.77
362.51	2392.03
362.72	2420.70
362.93	2678.74
363.14	2576.34
363.35	2469.85
363.56	2322.40
363.78	2594.78
363.99	2516.95
364.20	2432.99
364.41	2519.00
364.62	2758.61
364.83	2488.28
365.04	2369.50
365.25	2441.18
365.46	2799.57
365.67	2443.23
365.88	2430.94
366.09	2383.84
366.30	2478.04
366.51	2439.13
366.72	2269.15
366.93	2332.64
367.14	2465.75
367.35	2682.84
367.56	2324.44
367.77	2580.44
367.98	2539.48
368.18	2549.72
368.39	2531.29
368.60	2400.22
368.81	2637.78
369.02	2539.48
369.23	2424.80
369.44	2207.71
369.65	2430.94
369.86	2475.99
370.07	2576.34
370.28	2365.40
370.49	2496.47
370.70	2598.87
370.91	2365.40
371.12	2271.20
371.33	2596.82
371.54	2400.22
371.75	2576.34
371.96	2162.66
372.17	2578.39
372.38	2465.75
372.59	2512.86
372.80	2363.36
373.01	2478.04
373.22	2523.10
373.43	2422.75
373.64	2394.08
373.85	2662.36
374.06	2744.28
374.26	2521.05
374.47	2488.28
374.68	2621.40
374.89	2465.75
375.10	2416.60
375.31	2535.39
375.52	2514.91
375.73	2510.81
375.94	2377.69
376.15	2531.29
376.36	2439.13
376.57	2410.46
376.78	2396.12
376.99	2406.36
377.20	2660.31
377.40	2508.76
377.61	2715.61
377.82	2285.53
378.03	2707.41
378.24	2625.50
378.45	2506.71
378.66	2459.61
378.87	2252.77
379.08	2299.87
379.29	2430.94
379.50	2547.67
379.71	2449.37
379.91	2590.68
380.12	2392.03
380.33	2465.75
380.54	2449.37
380.75	2506.71
380.96	2410.46
381.17	2494.43
381.38	2465.75
381.59	2584.54
381.80	2392.03
382.00	2758.61
382.21	2621.40
382.42	2650.07
382.63	2711.51
382.84	2559.96
383.05	2588.63
383.26	2678.74
383.47	2473.95
383.68	2437.08
383.88	2553.82
384.09	2525.15
384.30	2676.70
384.51	2512.86
384.72	2447.32
384.93	2324.44
385.14	2408.41
385.35	2547.67
385.55	2324.44
385.76	2637.78
385.97	2490.33
386.18	2371.55
386.39	2424.80
386.60	2406.36
386.81	2400.22
387.02	2326.49
387.22	2461.66
387.43	2537.43
387.64	2490.33
387.85	2627.54
388.06	2703.32
388.27	4122.56
388.48	8396.67
388.68	12298.05
388.89	14880.54
389.10	15740.69
389.31	14858.01
389.52	11755.34
389.73	9969.51
389.93	9103.22
390.14	8327.04
390.35	7507.85
390.56	6516.64
390.77	5480.36
390.98	4194.24
391.18	3469.26
391.39	2957.27
391.60	2639.83
391.81	2629.59
392.02	2359.26
392.23	2756.57
392.43	2551.77
392.64	2600.92
392.85	2398.17
393.06	2717.65
393.27	2494.43
393.47	2357.21
393.68	2480.09
393.89	2463.71
394.10	2594.78
394.31	2396.12
394.52	2404.32
394.72	2398.17
394.93	2596.82
395.14	2396.12
395.35	2514.91
395.56	2351.07
395.76	2496.47
395.97	2531.29
396.18	2625.50
396.39	2588.63
396.60	2924.50
396.80	2729.94
397.01	2670.55
397.22	2619.35
397.43	2656.22
397.64	2480.09
397.84	2512.86
398.05	2760.66
398.26	2478.04
398.47	2551.77
398.67	2615.26
398.88	2484.19
399.09	2600.92
399.30	2439.13
399.51	2576.34
399.71	2400.22
399.92	2406.36
400.13	2467.80
400.34	2473.95
400.54	2453.47
400.75	2705.37
400.96	2469.85
401.17	2674.65
401.37	2519.00
401.58	2500.57
401.79	2428.89
402.00	2607.06
402.21	2867.16
402.41	2803.67
402.62	2760.66
402.83	2879.44
403.04	2807.77
403.24	3041.23
403.45	2559.96
403.66	2775.00
403.87	2619.35
404.07	2756.57
404.28	2674.65
404.49	2695.13
404.70	2547.67
404.90	2641.88
405.11	2359.26
405.32	2588.63
405.52	2334.68
405.73	2459.61
405.94	2408.41
406.15	2365.40
406.35	2627.54
406.56	2519.00
406.77	2457.56
406.98	2406.36
407.18	2367.45
407.39	2613.21
407.60	2445.27
407.80	2564.06
408.01	2424.80
408.22	2525.15
408.43	2420.70
408.63	2510.81
408.84	2557.91
409.05	2613.21
409.25	2367.45
409.46	2449.37
409.67	2414.56
409.88	2414.56
410.08	2484.19
410.29	2387.93
410.50	2660.31
410.70	2590.68
410.91	2306.01
411.12	2580.44
411.32	2473.95
411.53	2383.84
411.74	2596.82
411.95	2635.74
412.15	2545.63
412.36	2641.88
412.57	2564.06
412.77	2555.86
412.98	2488.28
413.19	2398.17
413.39	2555.86
413.60	2480.09
413.81	2715.61
414.01	2363.36
414.22	2432.99
414.43	2519.00
414.63	2469.85
414.84	2541.53
415.05	2420.70
415.25	2306.01
415.46	2535.39
415.67	2445.27
415.87	2535.39
416.08	2451.42
416.29	2506.71
416.49	2615.26
416.70	2484.19
416.91	2459.61
417.11	2416.60
417.32	2543.58
417.53	2555.86
417.73	2502.62
417.94	2410.46
418.15	2586.58
418.35	2400.22
418.56	2465.75
418.77	2713.56
418.97	2514.91
419.18	2445.27
419.38	2168.80
419.59	2469.85
419.80	2654.17
420.00	2424.80
420.21	2428.89
420.42	2705.37
420.62	2504.67
420.83	2367.45
421.04	2478.04
421.24	2510.81
421.45	2562.01
421.65	2498.52
421.86	2355.16
422.07	2637.78
422.27	2521.05
422.48	2349.02
422.69	2336.73
422.89	2453.47
423.10	2439.13
423.30	2383.84
423.51	2459.61
423.72	2596.82
423.92	2514.91
424.13	2332.64
424.33	2416.60
424.54	2576.34
424.75	2500.57
424.95	2605.02
425.16	2475.99
425.36	2459.61
425.57	2613.21
425.78	2531.29
425.98	2570.20
426.19	2408.41
426.39	2402.27
426.60	2498.52
426.81	2607.06
427.01	2568.15
427.22	2412.51
427.42	2267.10
427.63	2398.17
427.83	2564.06
428.04	2711.51
428.25	2559.96
428.45	2588.63
428.66	2650.07
428.86	2455.51
429.07	2459.61
429.28	2490.33
429.48	2426.84
429.69	2367.45
429.89	2492.38
430.10	2318.30
430.30	2568.15
430.51	2625.50
430.71	2449.37
430.92	2488.28
431.13	2392.03
431.33	2582.49
431.54	2531.29
431.74	2643.93
431.95	2768.85
432.15	2412.51
432.36	2498.52
432.56	2564.06
432.77	2736.09
432.98	2793.43
433.18	2514.91
433.39	2420.70
433.59	2426.84
433.80	2672.60
434.00	2676.70
434.21	2447.32
434.41	2342.88
434.62	2785.24
434.82	2357.21
435.03	2312.16
435.23	2539.48
435.44	2263.01
435.64	2435.03
435.85	2455.51
436.06	2594.78
436.26	2584.54
436.47	2406.36
436.67	2478.04
436.88	2523.10
437.08	2592.73
437.29	2586.58
437.49	2498.52
437.70	2629.59
437.90	2449.37
438.11	2684.89
438.31	2533.34
438.52	2697.17
438.72	2703.32
438.93	2674.65
439.13	2527.19
439.34	2631.64
439.54	2488.28
439.75	2525.15
439.95	2564.06
440.16	2408.41
440.36	2451.42
440.57	2547.67
440.77	2482.14
440.98	2553.82
441.18	2594.78
441.39	2437.08
441.59	2396.12
441.80	2658.26
442.00	2494.43
442.21	2650.07
442.41	2375.64
442.62	2715.61
442.82	2430.94
443.02	2437.08
443.23	2496.47
443.43	2553.82
443.64	2684.89
443.84	2381.79
444.05	2605.02
444.25	2447.32
444.46	2443.23
444.66	2428.89
444.87	2686.94
445.07	2295.77
445.28	2406.36
445.48	2633.69
445.69	2519.00
445.89	2854.87
446.09	2484.19
446.30	2744.28
446.50	3090.38
446.71	4575.16
446.91	5765.03
447.12	6741.91
447.32	7079.83
447.53	6643.61
447.73	5435.31
447.93	4759.48
448.14	4523.96
448.34	4394.94
448.55	3784.65
448.75	3848.13
448.96	3645.38
449.16	3184.59
449.36	3022.80
449.57	2775.00
449.77	2457.56
449.98	2490.33
450.18	2572.25
450.39	2463.71
450.59	2594.78
450.79	2486.23
451.00	2400.22
451.20	2615.26
451.41	2494.43
451.61	2588.63
451.81	2514.91
452.02	2371.55
452.22	2484.19
452.43	2443.23
452.63	2346.97
452.84	2494.43
453.04	2383.84
453.24	2435.03
453.45	2375.64
453.65	2490.33
453.86	2457.56
454.06	2557.91
454.26	2492.38
454.47	2377.69
454.67	2701.27
454.87	2496.47
455.08	2510.81
455.28	2619.35
455.49	2523.10
455.69	2482.14
455.89	2754.52
456.10	2609.11
456.30	2398.17
456.51	2574.30
456.71	2441.18
456.91	2482.14
457.12	2506.71
457.32	2539.48
457.52	2336.73
457.73	2635.74
457.93	2484.19
458.14	2457.56
458.34	2277.34
458.54	2432.99
458.75	2400.22
458.95	2629.59
459.15	2566.10
459.36	2494.43
459.56	2424.80
459.76	2777.05
459.97	2533.34
460.17	2357.21
460.37	2523.10
460.58	2392.03
460.78	2623.45
460.99	2467.80
461.19	2519.00
461.39	2426.84
461.60	2435.03
461.80	2531.29
462.00	2396.12
462.21	2482.14
462.41	2490.33
462.61	2404.32
462.82	2332.64
463.02	2539.48
463.22	2531.29
463.43	2666.46
463.63	2441.18
463.83	2688.98
464.04	2572.25
464.24	2414.56
464.44	2404.32
464.64	2537.43
464.85	2496.47
465.05	2506.71
465.25	2492.38
465.46	2392.03
465.66	2592.73
465.86	2582.49
466.07	2406.36
466.27	2373.60
466.47	2303.96
466.68	2328.54
466.88	2551.77
467.08	2531.29
467.29	2598.87
467.49	2502.62
467.69	2443.23
467.89	2607.06
468.10	2455.51
468.30	2504.67
468.50	2582.49
468.71	2602.97
468.91	2326.49
469.11	2625.50
469.31	2519.00
469.52	2402.27
469.72	2707.41
469.92	2740.18
470.13	2455.51
470.33	2437.08
470.53	2557.91
470.73	2858.96
470.94	3301.33
471.14	3465.16
471.34	3946.44
471.54	3629.00
471.75	3368.91
471.95	3102.67
472.15	3008.47
472.36	3002.32
472.56	3045.33
472.76	3030.99
472.96	2940.88
473.17	2668.50
473.37	2639.83
473.57	2564.06
473.77	2621.40
473.98	2498.52
474.18	2408.41
474.38	2875.35
474.58	2400.22
474.79	2385.88
474.99	2506.71
475.19	2562.01
475.39	2365.40
475.60	2535.39
475.80	2432.99
476.00	2559.96
476.20	2510.81
476.41	2514.91
476.61	2566.10
476.81	2680.79
477.01	2369.50
477.21	2629.59
477.42	2584.54
477.62	2455.51
477.82	2613.21
478.02	2400.22
478.23	2523.10
478.43	2453.47
478.63	2428.89
478.83	2412.51
479.03	2482.14
479.24	2684.89
479.44	2734.04
479.64	2375.64
479.84	2287.58
480.04	2473.95
480.25	2580.44
480.45	2428.89
480.65	2424.80
480.85	2645.98
481.06	2500.57
481.26	2506.71
481.46	2443.23
481.66	2527.19
481.86	2408.41
482.06	2564.06
482.27	2453.47
482.47	2441.18
482.67	2555.86
482.87	2437.08
483.07	2580.44
483.28	2408.41
483.48	2324.44
483.68	2482.14
483.88	2400.22
484.08	2220.00
484.29	2396.12
484.49	2400.22
484.69	2310.11
484.89	2547.67
485.09	2633.69
485.29	2564.06
485.50	2559.96
485.70	2346.97
485.90	2662.36
486.10	2514.91
486.30	2465.75
486.50	2592.73
486.71	2547.67
486.91	2543.58
487.11	2551.77
487.31	2373.60
487.51	2658.26
487.71	2416.60
487.91	2392.03
488.12	2387.93
488.32	2217.95
488.52	2504.67
488.72	2260.96
488.92	2519.00
489.12	2703.32
489.32	2594.78
489.53	2559.96
489.73	2277.34
489.93	2711.51
490.13	2383.84
490.33	2295.77
490.53	2465.75
490.73	2611.16
490.94	2293.72
491.14	2521.05
491.34	2678.74
491.54	2772.95
491.74	3307.47
491.94	4089.79
492.14	4323.26
492.34	4319.17
492.54	4118.47
492.75	3424.20
492.95	3481.55
493.15	3213.26
493.35	3184.59
493.55	3129.30
493.75	2924.50
493.95	3033.04
494.15	2725.85
494.35	2596.82
494.56	2619.35
494.76	2408.41
494.96	2473.95
495.16	2516.95
495.36	2439.13
495.56	2494.43
495.76	2457.56
495.96	2455.51
496.16	2283.49
496.36	2699.22
496.56	2471.90
496.77	2498.52
496.97	2459.61
497.17	2711.51
497.37	2326.49
497.57	2553.82
497.77	2535.39
497.97	2355.16
498.17	2478.04
498.37	2473.95
498.57	2594.78
498.77	2432.99
498.97	2551.77
499.17	2631.64
499.38	2465.75
499.58	2592.73
499.78	2535.39
499.98	2545.63
500.18	2467.80
500.38	2389.98
500.58	2691.03
500.78	3137.49
500.98	5488.56
501.18	7724.94
501.38	9185.14
501.58	10092.39
501.78	10125.16
501.98	8175.49
502.18	6791.06
502.38	5746.60
502.58	5496.75
502.78	4929.46
502.98	4872.12
503.18	4460.48
503.38	4200.38
503.59	3569.61
503.79	3397.58
503.99	3184.59
504.19	3012.56
504.39	3049.43
504.59	3106.77
504.79	3088.34
504.99	3127.25
505.19	2891.73
505.39	2709.46
505.59	2858.96
505.79	2742.23
505.99	2684.89
506.19	2490.33
506.39	2668.50
506.59	2424.80
506.79	2400.22
506.99	2586.58
507.19	2547.67
507.39	2631.64
507.59	2394.08
507.79	2457.56
507.99	2480.09
508.19	2570.20
508.39	2473.95
508.59	2543.58
508.79	2572.25
508.99	2766.81
509.19	2443.23
509.39	2537.43
509.59	2402.27
509.79	2412.51
509.99	2510.81
510.19	2523.10
510.39	2535.39
510.59	2490.33
510.79	2439.13
510.99	2336.73
511.19	2420.70
511.39	2711.51
511.59	2684.89
511.79	2637.78
511.99	2461.66
512.19	2721.75
512.38	2523.10
512.58	2439.13
512.78	2430.94
512.98	2637.78
513.18	2717.65
513.38	2301.92
513.58	2461.66
513.78	2543.58
513.98	2449.37
514.18	2447.32
514.38	2467.80
514.58	2545.63
514.78	2324.44
514.98	2349.02
515.18	2478.04
515.38	2359.26
515.58	2736.09
515.78	2449.37
515.98	2465.75
516.18	2482.14
516.38	2453.47
516.57	2385.88
516.77	2496.47
516.97	2654.17
517.17	2420.70
517.37	2273.25
517.57	2539.48
517.77	2510.81
517.97	2414.56
518.17	2521.05
518.37	2310.11
518.57	2412.51
518.77	2428.89
518.97	2469.85
519.16	2490.33
519.36	2682.84
519.56	2469.85
519.76	2486.23
519.96	2428.89
520.16	2668.50
520.36	2443.23
520.56	2607.06
520.76	2334.68
520.96	2457.56
521.16	2654.17
521.35	2566.10
521.55	2580.44
521.75	2521.05
521.95	2443.23
522.15	2420.70
522.35	2293.72
522.55	2420.70
522.75	2510.81
522.95	2351.07
523.14	2363.36
523.34	2414.56
523.54	2367.45
523.74	2578.39
523.94	2525.15
524.14	2361.31
524.34	2600.92
524.54	2621.40
524.73	2457.56
524.93	2500.57
525.13	2502.62
525.33	2369.50
525.53	2711.51
525.73	2641.88
525.93	2437.08
526.13	2516.95
526.32	2422.75
526.52	2539.48
526.72	2580.44
526.92	2447.32
527.12	2428.89
527.32	2318.30
527.52	2506.71
527.71	2543.58
527.91	2416.60
528.11	2392.03
528.31	2531.29
528.51	2371.55
528.71	2461.66
528.90	2584.54
529.10	2609.11
529.30	2531.29
529.50	2283.49
529.70	2498.52
529.90	2422.75
530.09	2514.91
530.29	2355.16
530.49	2285.53
530.69	2922.45
530.89	2502.62
531.09	2562.01
531.28	2389.98
531.48	2607.06
531.68	2498.52
531.88	2445.27
532.08	2678.74
532.28	2432.99
532.47	2564.06
532.67	2535.39
532.87	2529.24
533.07	2316.25
533.27	2627.54
533.46	2516.95
533.66	2516.95
533.86	2498.52
534.06	2541.53
534.26	2531.29
534.45	2490.33
534.65	2609.11
534.85	2564.06
535.05	2398.17
535.25	2662.36
535.44	2256.86
535.64	2564.06
535.84	2473.95
536.04	2408.41
536.24	2430.94
536.43	2389.98
536.63	2514.91
536.83	2459.61
537.03	2484.19
537.22	2285.53
537.42	2301.92
537.62	2449.37
537.82	2432.99
538.02	2652.12
538.21	2539.48
538.41	2897.88
538.61	2531.29
538.81	2510.81
539.00	2523.10
539.20	2387.93
539.40	2465.75
539.60	2494.43
539.79	2486.23
539.99	2506.71
540.19	2453.47
540.39	2457.56
540.58	2562.01
540.78	2633.69
540.98	2572.25
541.18	2590.68
541.37	2594.78
541.57	2398.17
541.77	2531.29
541.97	2381.79
542.16	2332.64
542.36	2457.56
542.56	2504.67
542.76	2664.41
542.95	2564.06
543.15	2564.06
543.35	2572.25
543.54	2392.03
543.74	2463.71
543.94	2674.65
544.14	2455.51
544.33	2564.06
544.53	2480.09
544.73	2416.60
544.93	2529.24
545.12	2375.64
545.32	2486.23
545.52	2422.75
545.71	2330.59
545.91	2365.40
546.11	2473.95
546.30	2428.89
546.50	2519.00
546.70	2473.95
546.90	2521.05
547.09	2310.11
547.29	2506.71
547.49	2553.82
547.68	2445.27
547.88	2346.97
548.08	2576.34
548.27	2826.20
548.47	2430.94
548.67	2400.22
548.87	2506.71
549.06	2367.45
549.26	2465.75
549.46	2502.62
549.65	2422.75
549.85	2559.96
550.05	2482.14
550.24	2367.45
550.44	2496.47
550.64	2412.51
550.83	2467.80
551.03	2703.32
551.23	2658.26
551.42	2426.84
551.62	2428.89
551.82	2490.33
552.01	2471.90
552.21	2729.94
552.41	2471.90
552.60	2666.46
552.80	2541.53
553.00	2400.22
553.19	2473.95
553.39	2725.85
553.59	2418.65
553.78	2596.82
553.98	2463.71
554.17	2332.64
554.37	2521.05
554.57	2539.48
554.76	2342.88
554.96	2445.27
555.16	2504.67
555.35	2541.53
555.55	2506.71
555.75	2545.63
555.94	2592.73
556.14	2340.83
556.33	2514.91
556.53	2457.56
556.73	2512.86
556.92	2469.85
557.12	2488.28
557.32	2768.85
557.51	2703.32
557.71	2547.67
557.90	2566.10
558.10	2578.39
558.30	2428.89
558.49	2439.13
558.69	2445.27
558.88	2559.96
559.08	2523.10
559.28	2381.79
559.47	2541.53
559.67	2602.97
559.86	2682.84
560.06	2475.99
560.26	2416.60
560.45	2527.19
560.65	2478.04
560.84	2664.41
561.04	2463.71
561.24	2564.06
561.43	2428.89
561.63	2627.54
561.82	2467.80
562.02	2559.96
562.22	2453.47
562.41	2359.26
562.61	2416.60
562.80	2375.64
563.00	2824.15
563.19	2469.85
563.39	2514.91
563.59	2631.64
563.78	2375.64
563.98	2312.16
564.17	2408.41
564.37	2320.35
564.56	2521.05
564.76	2396.12
564.96	2600.92
565.15	2547.67
565.35	2799.57
565.54	2424.80
565.74	2484.19
565.93	2588.63
566.13	2432.99
566.32	2498.52
566.52	2553.82
566.71	2592.73
566.91	2570.20
567.11	2543.58
567.30	2324.44
567.50	2605.02
567.69	2535.39
567.89	2457.56
568.08	2351.07
568.28	2480.09
568.47	2330.59
568.67	2469.85
568.86	2445.27
569.06	2639.83
569.25	2467.80
569.45	2320.35
569.64	2435.03
569.84	2430.94
570.04	2562.01
570.23	2392.03
570.43	2437.08
570.62	2535.39
570.82	2656.22
571.01	2324.44
571.21	2416.60
571.40	2408.41
571.60	2621.40
571.79	2609.11
571.99	2486.23
572.18	2387.93
572.38	2564.06
572.57	2367.45
572.77	2568.15
572.96	2818.00
573.16	2568.15
573.35	2402.27
573.55	2658.26
573.74	2584.54
573.94	2559.96
574.13	2445.27
574.33	2580.44
574.52	2598.87
574.71	2529.24
574.91	2512.86
575.10	2351.07
575.30	2371.55
575.49	2406.36
575.69	2441.18
575.88	2586.58
576.08	2562.01
576.27	2668.50
576.47	2529.24
576.66	2699.22
576.86	2695.13
577.05	2529.24
577.25	2498.52
577.44	2668.50
577.64	2379.74
577.83	2594.78
578.02	2475.99
578.22	2670.55
578.41	2727.89
578.61	2504.67
578.80	2328.54
579.00	2539.48
579.19	2488.28
579.39	2576.34
579.58	2576.34
579.77	2482.14
579.97	2650.07
580.16	2576.34
580.36	2605.02
580.55	2582.49
580.75	2551.77
580.94	2582.49
581.13	2613.21
581.33	2711.51
581.52	2506.71
581.72	2871.25
581.91	2596.82
582.11	2447.32
582.30	2678.74
582.49	2494.43
582.69	2619.35
582.88	2572.25
583.08	2572.25
583.27	2699.22
583.47	2559.96
583.66	2408.41
583.85	2357.21
584.05	2414.56
584.24	2568.15
584.44	2580.44
584.63	2654.17
584.82	2711.51
585.02	2682.84
585.21	2652.12
585.41	2680.79
585.60	2602.97
585.79	2748.37
585.99	2758.61
586.18	2611.16
586.37	3280.85
586.57	5136.31
586.76	14933.79
586.96	34366.96
587.15	47906.08
587.34	56954.01
587.54	61729.87
587.73	55977.13
587.93	39095.72
588.12	29732.41
588.31	24047.25
588.51	20958.91
588.70	19283.67
588.89	17309.43
589.09	15095.58
589.28	12721.98
589.47	10164.07
589.67	7804.81
589.86	6166.43
590.06	4618.17
590.25	3858.37
590.44	3309.52
590.64	2918.36
590.83	2775.00
591.02	2727.89
591.22	2527.19
591.41	2580.44
591.60	2533.34
591.80	2867.16
591.99	2441.18
592.18	2445.27
592.38	2645.98
592.57	2408.41
592.76	2457.56
592.96	2488.28
593.15	2566.10
593.34	2652.12
593.54	2529.24
593.73	2547.67
593.92	2568.15
594.12	2633.69
594.31	2576.34
594.50	2645.98
594.70	2637.78
594.89	2824.15
595.08	2326.49
595.28	2594.78
595.47	2916.31
595.66	2598.87
595.86	2467.80
596.05	2441.18
596.24	2516.95
596.43	2824.15
596.63	2633.69
596.82	2578.39
597.01	2596.82
597.21	2775.00
597.40	2521.05
597.59	2543.58
597.79	2494.43
597.98	2639.83
598.17	2578.39
598.36	2527.19
598.56	2693.08
598.75	2482.14
598.94	2555.86
599.14	2596.82
599.33	2496.47
599.52	2607.06
599.71	2459.61
599.91	2596.82
600.10	2537.43
600.29	2594.78
600.48	2586.58
600.68	2596.82
600.87	2541.53
601.06	2488.28
601.26	2494.43
601.45	2396.12
601.64	2379.74
601.83	2729.94
602.03	2424.80
602.22	2289.63
602.41	2631.64
602.60	2785.24
602.80	2510.81
602.99	2562.01
603.18	2404.32
603.37	2531.29
603.57	2516.95
603.76	2537.43
603.95	2645.98
604.14	2443.23
604.34	2478.04
604.53	2435.03
604.72	2588.63
604.91	2529.24
605.10	2572.25
605.30	2330.59
605.49	2787.29
605.68	2559.96
605.87	2514.91
606.07	2422.75
606.26	2510.81
606.45	2553.82
606.64	2428.89
606.84	2494.43
607.03	2531.29
607.22	2578.39
607.41	2547.67
607.60	2473.95
607.80	2641.88
607.99	2506.71
608.18	2523.10
608.37	2465.75
608.56	2400.22
608.76	2682.84
608.95	2635.74
609.14	2566.10
609.33	2619.35
609.52	2756.57
609.72	2512.86
609.91	2707.41
610.10	2648.02
610.29	2674.65
610.48	2641.88
610.68	2615.26
610.87	2537.43
611.06	2586.58
611.25	2496.47
611.44	2523.10
611.63	2432.99
611.83	2703.32
612.02	2342.88
612.21	2605.02
612.40	2215.90
612.59	2363.36
612.79	2322.40
612.98	2445.27
613.17	2697.17
613.36	2609.11
613.55	2664.41
613.74	2568.15
613.93	2693.08
614.13	2707.41
614.32	2744.28
614.51	2721.75
614.70	2547.67
614.89	2525.15
615.08	2549.72
615.28	3000.27
615.47	2447.32
615.66	2580.44
615.85	2459.61
616.04	2674.65
616.23	2578.39
616.42	2564.06
616.62	2496.47
616.81	2555.86
617.00	2592.73
617.19	2494.43
617.38	2473.95
617.57	2486.23
617.76	2547.67
617.95	2543.58
618.15	2564.06
618.34	2688.98
618.53	2351.07
618.72	2709.46
618.91	2578.39
619.10	2602.97
619.29	2592.73
619.48	2543.58
619.68	2346.97
619.87	2478.04
620.06	2338.78
620.25	2514.91
620.44	2449.37
620.63	2500.57
620.82	2506.71
621.01	2543.58
621.20	2559.96
621.39	2512.86
621.59	2572.25
621.78	2535.39
621.97	2441.18
622.16	2584.54
622.35	2535.39
622.54	2625.50
622.73	2559.96
622.92	2332.64
623.11	2533.34
623.30	2486.23
623.49	2559.96
623.68	2351.07
623.88	2568.15
624.07	2523.10
624.26	2437.08
624.45	2469.85
624.64	2471.90
624.83	2617.30
625.02	2467.80
625.21	2506.71
625.40	2521.05
625.59	2611.16
625.78	2435.03
625.97	2621.40
626.16	2707.41
626.35	2660.31
626.54	2547.67
626.74	2742.23
626.93	2602.97
627.12	2424.80
627.31	2559.96
627.50	2502.62
627.69	2594.78
627.88	2428.89
628.07	2494.43
628.26	2244.57
628.45	2367.45
628.64	2430.94
628.83	2416.60
629.02	2328.54
629.21	2564.06
629.40	2496.47
629.59	2377.69
629.78	2398.17
629.97	2519.00
630.16	2535.39
630.35	2430.94
630.54	2506.71
630.73	2486.23
630.92	2473.95
631.11	2445.27
631.30	2486.23
631.49	2609.11
631.68	2457.56
631.87	2484.19
632.06	2375.64
632.25	2793.43
632.44	2541.53
632.63	2613.21
632.82	2441.18
633.01	2478.04
633.20	2637.78
633.39	2471.90
633.58	2437.08
633.77	2582.49
633.96	2664.41
634.15	2531.29
634.34	2547.67
634.53	2566.10
634.72	2420.70
634.91	2324.44
635.10	2516.95
635.29	2686.94
635.48	2445.27
635.67	2389.98
635.86	2314.20
636.05	2627.54
636.24	2539.48
636.43	2424.80
636.62	2504.67
636.81	2217.95
637.00	2478.04
637.19	2527.19
637.38	2543.58
637.57	2457.56
637.76	2502.62
637.95	2584.54
638.14	2555.86
638.33	2551.77
638.52	2457.56
638.71	2426.84
638.89	2334.68
639.08	2924.50
639.27	2688.98
639.46	2742.23
639.65	3071.95
639.84	3227.60
640.03	3409.87
640.22	3266.51
640.41	3227.60
640.60	2807.77
640.79	2936.79
640.98	2678.74
641.17	2648.02
641.36	2738.13
641.55	2686.94
641.74	2336.73
641.92	2389.98
642.11	2545.63
642.30	2449.37
642.49	2383.84
642.68	2482.14
642.87	2600.92
643.06	2596.82
643.25	2377.69
643.44	2371.55
643.63	2478.04
643.82	2564.06
644.00	2367.45
644.19	2445.27
644.38	2365.40
644.57	2570.20
644.76	2473.95
644.95	2514.91
645.14	2564.06
645.33	2465.75
645.52	2519.00
645.71	2342.88
645.89	2379.74
646.08	2535.39
646.27	2426.84
646.46	2580.44
646.65	2318.30
646.84	2545.63
647.03	2314.20
647.22	2557.91
647.40	2580.44
647.59	2363.36
647.78	2244.57
647.97	2365.40
648.16	2449.37
648.35	2611.16
648.54	2650.07
648.73	2422.75
648.91	2572.25
649.10	2510.81
649.29	2392.03
649.48	2387.93
649.67	2596.82
649.86	2570.20
650.05	2455.51
650.23	2709.46
650.42	2510.81
650.61	2787.29
650.80	2678.74
650.99	2795.48
651.18	2654.17
651.36	2629.59
651.55	2432.99
651.74	2629.59
651.93	2439.13
652.12	2490.33
652.31	2453.47
652.49	2371.55
652.68	2512.86
652.87	2578.39
653.06	2570.20
653.25	2693.08
653.44	2539.48
653.62	2711.51
653.81	2473.95
654.00	2435.03
654.19	2625.50
654.38	2818.00
654.56	2555.86
654.75	2353.12
654.94	2596.82
655.13	2469.85
655.32	2451.42
655.51	2525.15
655.69	2398.17
655.88	2568.15
656.07	2334.68
656.26	2463.71
656.45	2275.29
656.63	2533.34
656.82	2496.47
657.01	2551.77
657.20	2387.93
657.38	2590.68
657.57	2441.18
657.76	2324.44
657.95	2600.92
658.14	2351.07
658.32	2443.23
658.51	2361.31
658.70	2494.43
658.89	2486.23
659.08	2432.99
659.26	2695.13
659.45	2400.22
659.64	2658.26
659.83	2463.71
660.01	2811.86
660.20	2537.43
660.39	2670.55
660.58	2281.44
660.76	2496.47
660.95	2310.11
661.14	2514.91
661.33	2365.40
661.51	2432.99
661.70	2465.75
661.89	2506.71
662.08	2453.47
662.26	2299.87
662.45	2412.51
662.64	2693.08
662.83	2496.47
663.01	2328.54
663.20	2435.03
663.39	2666.46
663.58	2396.12
663.76	2430.94
663.95	2596.82
664.14	2383.84
664.32	2498.52
664.51	2279.39
664.70	2340.83
664.89	2531.29
665.07	2301.92
665.26	2609.11
665.45	2349.02
665.64	2488.28
665.82	2500.57
666.01	2502.62
666.20	2373.60
666.38	2662.36
666.57	2580.44
666.76	3928.00
666.95	9613.17
667.13	18018.03
667.32	22888.10
667.51	26343.02
667.69	27745.88
667.88	24460.94
668.07	17465.08
668.25	14290.73
668.44	12033.86
668.63	10442.59
668.81	9203.57
669.00	7985.03
669.19	7108.50
669.38	6209.44
669.56	5298.10
669.75	4446.14
669.94	3710.92
670.12	3252.17
670.31	2906.07
670.50	2756.57
670.68	2750.42
670.87	2664.41
671.06	2551.77
671.24	2592.73
671.43	2746.33
671.62	2529.24
671.80	2461.66
671.99	2500.57
672.18	2555.86
672.36	2570.20
672.55	2523.10
672.74	2551.77
672.92	2396.12
673.11	2631.64
673.29	2381.79
673.48	2531.29
673.67	2465.75
673.85	2637.78
674.04	2490.33
674.23	2455.51
674.41	2740.18
674.60	2336.73
674.79	2277.34
674.97	2314.20
675.16	2539.48
675.34	2613.21
675.53	2398.17
675.72	2506.71
675.90	2676.70
676.09	2428.89
676.28	2365.40
676.46	2324.44
676.65	2570.20
676.83	2297.82
677.02	2523.10
677.21	2455.51
677.39	2523.10
677.58	2369.50
677.77	2441.18
677.95	2414.56
678.14	2463.71
678.32	2533.34
678.51	2373.60
678.70	2670.55
678.88	2445.27
679.07	2463.71
679.25	2473.95
679.44	2439.13
679.63	2338.78
679.81	2519.00
680.00	2629.59
680.18	2510.81
680.37	2641.88
680.55	2445.27
680.74	2328.54
680.93	2222.05
681.11	2525.15
681.30	2424.80
681.48	2492.38
681.67	2430.94
681.85	2531.29
682.04	2420.70
682.23	2547.67
682.41	2535.39
682.60	2422.75
682.78	2482.14
682.97	2340.83
683.15	2498.52
683.34	2660.31
683.53	2645.98
683.71	2322.40
683.90	2617.30
684.08	2756.57
684.27	2420.70
684.45	2574.30
684.64	2592.73
684.82	2406.36
685.01	2629.59
685.19	2430.94
685.38	2641.88
685.57	2529.24
685.75	2406.36
685.94	2451.42
686.12	2334.68
686.31	2457.56
686.49	2695.13
686.68	2248.67
686.86	2506.71
687.05	2449.37
687.23	2650.07
687.42	2445.27
687.60	2318.30
687.79	2529.24
687.97	2670.55
688.16	2637.78
688.34	2516.95
688.53	2263.01
688.71	2637.78
688.90	2596.82
689.08	2465.75
689.27	2199.52
689.45	2551.77
689.64	2596.82
689.82	2506.71
690.01	2543.58
690.19	2531.29
690.38	2478.04
690.56	2633.69
690.75	2400.22
690.93	2424.80
691.12	2277.34
691.30	2467.80
691.49	2404.32
691.67	2400.22
691.86	2678.74
692.04	2506.71
692.23	2490.33
692.41	2523.10
692.60	2836.44
692.78	2645.98
692.97	2478.04
693.15	2590.68
693.34	2699.22
693.52	2621.40
693.71	2467.80
693.89	2510.81
694.08	2314.20
694.26	2504.67
694.44	2590.68
694.63	2619.35
694.81	2344.92
695.00	2449.37
695.18	2629.59
695.37	2777.05
695.55	2478.04
695.74	2488.28
695.92	2430.94
696.10	2621.40
696.29	2269.15
696.47	2437.08
696.66	2400.22
696.84	2430.94
697.03	2510.81
697.21	2678.74
697.40	3692.49
697.58	2664.41
697.76	2359.26
697.95	2383.84
698.13	2392.03
698.32	2351.07
698.50	2418.65
698.68	2478.04
698.87	2500.57
699.05	2709.46
699.24	2453.47
699.42	2260.96
699.61	2514.91
699.79	2521.05
699.97	2435.03
700.16	2269.15
700.34	2322.40
700.53	2545.63
700.71	2643.93
700.89	2506.71
701.08	2523.10
701.26	2461.66
701.45	2985.94
701.63	2355.16
701.81	2437.08
702.00	2441.18
702.18	2523.10
702.37	2447.32
702.55	2662.36
702.73	2625.50
702.92	2607.06
703.10	2881.49
703.28	2738.13
703.47	2496.47
703.65	2727.89
703.84	2725.85
704.02	2465.75
704.20	2758.61
704.39	2449.37
704.57	2422.75
704.75	2668.50
704.94	2654.17
705.12	2486.23
705.30	2971.60
705.49	5513.13
705.67	12930.87
705.86	21001.92
706.04	24716.93
706.22	27625.05
706.41	28266.06
706.59	22984.35
706.77	16723.71
706.96	14155.56
707.14	12574.53
707.32	10747.74
707.51	9465.71
707.69	7808.90
707.87	6141.86
708.06	4984.76
708.24	4100.03
708.42	3407.82
708.61	3348.43
708.79	2664.41
708.97	2555.86
709.16	2617.30
709.34	2564.06
709.52	2412.51
709.71	2514.91
709.89	2572.25
710.07	2418.65
710.26	2367.45
710.44	2523.10
710.62	2613.21
710.80	2465.75
710.99	2617.30
711.17	2682.84
711.35	2428.89
711.54	2465.75
711.72	2668.50
711.90	2547.67
712.09	2494.43
712.27	2490.33
712.45	2572.25
712.63	2392.03
712.82	2543.58
713.00	2500.57
713.18	2564.06
713.37	2506.71
713.55	2519.00
713.73	2570.20
713.91	2484.19
714.10	2416.60
714.28	2465.75
714.46	2537.43
714.65	2545.63
714.83	2480.09
715.01	2512.86
715.19	2580.44
715.38	2306.01
715.56	2533.34
715.74	2461.66
715.92	2435.03
716.11	2574.30
716.29	2310.11
716.47	2480.09
716.65	2453.47
716.84	2326.49
717.02	2547.67
717.20	2367.45
717.38	2488.28
717.57	2545.63
717.75	2420.70
717.93	2310.11
718.11	2545.63
718.30	2349.02
718.48	2510.81
718.66	2572.25
718.84	2621.40
719.03	2441.18
719.21	2363.36
719.39	2652.12
719.57	2596.82
719.75	2613.21
719.94	2301.92
720.12	2424.80
720.30	2514.91
720.48	2545.63
720.67	2371.55
720.85	2291.68
721.03	2449.37
721.21	2375.64
721.39	2584.54
721.58	2545.63
721.76	2473.95
721.94	2545.63
722.12	2496.47
722.30	2641.88
722.49	2432.99
722.67	2559.96
722.85	2461.66
723.03	2318.30
723.21	2412.51
723.40	2539.48
723.58	2633.69
723.76	2621.40
723.94	2744.28
724.12	2516.95
724.30	2672.60
724.49	2695.13
724.67	2457.56
724.85	2658.26
725.03	2371.55
725.21	2629.59
725.40	2691.03
725.58	2381.79
725.76	2594.78
725.94	2576.34
726.12	2402.27
726.30	2535.39
726.49	2408.41
726.67	2437.08
726.85	2578.39
727.03	2947.03
727.21	4239.30
727.39	5883.81
727.57	6786.97
727.76	7378.83
727.94	7604.11
728.12	7188.37
728.30	5570.48
728.48	4896.69
728.66	4618.17
728.84	4169.66
729.03	3579.85
729.21	3164.11
729.39	2969.55
729.57	2717.65
729.75	2652.12
729.93	2635.74
730.11	2396.12
730.30	2432.99
730.48	2459.61
730.66	2553.82
730.84	2480.09
731.02	2555.86
731.20	2424.80
731.38	2555.86
731.56	2420.70
731.74	2351.07
731.93	2457.56
732.11	2435.03
732.29	2445.27
732.47	2533.34
732.65	2510.81
732.83	2605.02
733.01	2494.43
733.19	2473.95
733.37	2539.48
733.56	2547.67
733.74	2406.36
733.92	2600.92
734.10	2482.14
734.28	2568.15
734.46	2303.96
734.64	2465.75
734.82	2414.56
735.00	2416.60
735.18	2447.32
735.36	2469.85
735.54	2482.14
735.73	2441.18
735.91	2514.91
736.09	2586.58
736.27	2523.10
736.45	2545.63
736.63	2228.19
736.81	2383.84
736.99	2637.78
737.17	2504.67
737.35	2400.22
737.53	2473.95
737.71	2473.95
737.89	2596.82
738.07	2385.88
738.25	2373.60
738.43	2375.64
738.61	2420.70
738.80	2326.49
738.98	2441.18
739.16	2473.95
739.34	2357.21
739.52	2670.55
739.70	2473.95
739.88	2516.95
740.06	2564.06
740.24	2199.52
740.42	2645.98
740.60	2271.20
740.78	2432.99
740.96	2308.06
741.14	2465.75
741.32	2498.52
741.50	2242.53
741.68	2742.23
741.86	2637.78
742.04	2301.92
742.22	2312.16
742.40	2367.45
742.58	2596.82
742.76	2471.90
742.94	2582.49
743.12	2224.09
743.30	2539.48
743.48	2574.30
743.66	2437.08
743.84	2457.56
744.02	2457.56
744.20	2461.66
744.38	2379.74
744.56	2392.03
744.74	2752.47
744.92	2535.39
745.10	2633.69
745.28	2547.67
745.46	2697.17
745.64	2441.18
745.82	2588.63
746.00	2432.99
746.18	2525.15
746.36	2375.64
746.54	2559.96
746.72	2455.51
746.90	2336.73
747.08	2625.50
747.26	2478.04
747.44	2559.96
747.62	2635.74
747.80	2488.28
747.98	2562.01
748.15	2437.08
748.33	2793.43
748.51	2533.34
748.69	2580.44
748.87	2336.73
749.05	2430.94
749.23	2500.57
749.41	2486.23
749.59	2471.90
749.77	2602.97
749.95	2385.88
750.13	2430.94
750.31	2480.09
750.49	2447.32
750.67	2594.78
750.85	2547.67
751.03	2437.08
751.20	2758.61
751.38	2512.86
751.56	2400.22
751.74	2400.22
751.92	2424.80
752.10	2349.02
752.28	2623.45
752.46	2422.75
752.64	2355.16
752.82	2422.75
753.00	2619.35
753.18	2478.04
753.35	2400.22
753.53	2445.27
753.71	2383.84
753.89	2557.91
754.07	2533.34
754.25	2600.92
754.43	2502.62
754.61	2336.73
754.79	2553.82
754.97	2445.27
755.14	2613.21
755.32	2324.44
755.50	2641.88
755.68	2482.14
755.86	2351.07
756.04	2432.99
756.22	2242.53
756.40	2623.45
756.57	2684.89
756.75	2437.08
756.93	2643.93
757.11	2525.15
757.29	2344.92
757.47	2285.53
757.65	2318.30
757.82	2224.09
758.00	2402.27
758.18	2394.08
758.36	2406.36
758.54	2678.74
758.72	2338.78
758.90	2609.11
759.07	2531.29
759.25	2353.12
759.43	2490.33
759.61	2303.96
759.79	3530.70
759.97	2596.82
760.15	2371.55
760.32	2469.85
760.50	2555.86
760.68	2674.65
760.86	2367.45
761.04	2621.40
761.22	2539.48
761.39	2506.71
761.57	2535.39
761.75	2400.22
761.93	2531.29
762.11	2437.08
762.28	2553.82
762.46	2322.40
762.64	2645.98
762.82	2340.83
763.00	2416.60
763.18	2602.97
763.35	2295.77
763.53	2582.49
763.71	2498.52
763.89	2498.52
764.07	2521.05
764.24	2475.99
764.42	2510.81
764.60	2498.52
764.78	2539.48
764.96	2658.26
765.13	2578.39
765.31	2396.12
765.49	2568.15
765.67	2340.83
765.84	2334.68
766.02	2371.55
766.20	2215.90
766.38	2543.58
766.56	2519.00
766.73	2559.96
766.91	2430.94
767.09	2490.33
767.27	2510.81
767.44	2312.16
767.62	2535.39
767.80	2478.04
767.98	2428.89
768.15	2412.51
768.33	2559.96
768.51	2576.34
768.69	2504.67
768.87	2512.86
769.04	2490.33
769.22	2815.96
769.40	2625.50
769.58	2678.74
769.75	2537.43
769.93	2625.50
770.11	2416.60
770.28	2385.88
770.46	2572.25
770.64	2564.06
770.82	2443.23
770.99	2389.98
771.17	2602.97
771.35	2422.75
771.53	2437.08
771.70	2383.84
771.88	2545.63
772.06	2412.51
772.23	2465.75
772.41	2586.58
772.59	2365.40
772.77	2351.07
772.94	2465.75
773.12	2527.19
773.30	2453.47
773.47	2531.29
773.65	2312.16
773.83	2654.17
774.01	2455.51
774.18	2250.72
774.36	2428.89
774.54	2287.58
774.71	2486.23
774.89	2275.29
775.07	2394.08
775.24	2439.13
775.42	2469.85
775.60	2742.23
775.78	2359.26
775.95	2265.05
776.13	2277.34
776.31	2199.52
776.48	2588.63
776.66	2643.93
776.84	2437.08
777.01	2379.74
777.19	2398.17
777.37	2367.45
777.54	2564.06
777.72	2711.51
777.90	2547.67
778.07	2406.36
778.25	2875.35
778.43	2613.21
778.60	2408.41
778.78	2527.19
778.96	2609.11
779.13	2351.07
779.31	2480.09
779.49	2439.13
779.66	2510.81
779.84	2461.66
780.01	2445.27
780.19	2324.44
780.37	2643.93
780.54	2572.25
780.72	2312.16
780.90	2414.56
781.07	2455.51
781.25	2437.08
781.43	2547.67
781.60	2359.26
781.78	2629.59
781.95	2506.71
782.13	2351.07
782.31	2498.52
782.48	2277.34
782.66	2406.36
782.83	2676.70
783.01	2547.67
783.19	2596.82
783.36	2396.12
783.54	2342.88
783.72	2613.21
783.89	2449.37
784.07	2432.99
784.24	2480.09
784.42	2609.11
784.60	2457.56
784.77	2537.43
784.95	2234.33
785.12	2383.84
785.30	2498.52
785.47	2336.73
785.65	2334.68
785.83	2455.51
786.00	2432.99
786.18	2457.56
786.35	2355.16
786.53	2344.92
786.71	2547.67
786.88	2519.00
787.06	2506.71
787.23	2461.66
787.41	2326.49
787.58	2428.89
787.76	2269.15
787.94	2523.10
788.11	2498.52
788.29	2404.32
788.46	2424.80
788.64	2263.01
788.81	2461.66
788.99	2361.31
789.16	2340.83
789.34	2424.80
789.52	2455.51
789.69	2580.44
789.87	2228.19
790.04	2394.08
790.22	2441.18
790.39	2740.18
790.57	2363.36
790.74	2385.88
790.92	2619.35
791.09	2332.64
791.27	2555.86
791.44	2504.67
791.62	2514.91
791.79	2650.07
791.97	2414.56
792.15	2850.77
792.32	2519.00
792.50	2521.05
792.67	2621.40
792.85	2648.02
793.02	2598.87
793.20	2482.14
793.37	2285.53
793.55	2451.42
793.72	2373.60
793.90	2576.34
794.07	2355.16
794.25	2340.83
794.42	2473.95
794.60	2441.18
794.77	2502.62
794.95	2566.10
795.12	2572.25
795.30	2488.28
795.47	2201.57
795.65	2805.72
795.82	2445.27
796.00	2328.54
796.17	2459.61
796.34	2420.70
796.52	2400.22
796.69	2578.39
796.87	2574.30
797.04	2516.95
797.22	2631.64
797.39	2584.54
797.57	2611.16
797.74	2506.71
797.92	2506.71
798.09	2426.84
798.27	2570.20
798.44	2389.98
798.62	2398.17
798.79	2396.12
798.96	2439.13
799.14	2416.60
799.31	2703.32
799.49	2555.86
799.66	2363.36
799.84	2523.10
800.01	2263.01
800.19	2539.48
800.36	2244.57
800.53	2478.04
800.71	2545.63
800.88	2631.64
801.06	2394.08
801.23	2416.60
801.41	2412.51
801.58	2439.13
801.75	2383.84
801.93	2478.04
802.10	2527.19
802.28	2457.56
802.45	2367.45
802.63	2559.96
802.80	2592.73
802.97	2398.17
803.15	2500.57
803.32	2416.60
803.50	2389.98
803.67	2396.12
803.84	2367.45
804.02	2398.17
804.19	2410.46
804.37	2260.96
804.54	2375.64
804.71	2373.60
804.89	2516.95
805.06	2420.70
805.24	2297.82
805.41	2371.55
805.58	2416.60
805.76	2756.57
805.93	2400.22
806.10	2643.93
806.28	2652.12
806.45	2531.29
806.63	2572.25
806.80	2484.19
806.97	2551.77
807.15	2523.10
807.32	2504.67
807.49	2404.32
807.67	2332.64
807.84	2553.82
808.01	2326.49
808.19	2559.96
808.36	2822.10
808.54	2475.99
808.71	2357.21
808.88	2459.61
809.06	2580.44
809.23	2715.61
809.40	2488.28
809.58	2570.20
809.75	2586.58
809.92	2375.64
810.10	2629.59
810.27	2439.13
810.44	2543.58
810.62	2592.73
810.79	2516.95
810.96	2396.12
811.14	2381.79
811.31	2533.34
811.48	2645.98
811.66	2424.80
811.83	2693.08
812.00	2557.91
812.18	2555.86
812.35	2637.78
812.52	2437.08
812.69	2377.69
812.87	2416.60
813.04	2361.31
813.21	2473.95
813.39	2465.75
813.56	2365.40
813.73	2578.39
813.91	2314.20
814.08	2547.67
814.25	2512.86
814.42	2310.11
814.60	2494.43
814.77	2486.23
814.94	2453.47
815.12	2482.14
815.29	2660.31
815.46	2480.09
815.63	2459.61
815.81	2461.66
815.98	2432.99
816.15	2445.27
816.33	2490.33
816.50	2430.94
816.67	2418.65
816.84	2529.24
817.02	2334.68
817.19	2445.27
817.36	2496.47
817.53	2502.62
817.71	2293.72
817.88	2533.34
818.05	2416.60
818.22	2426.84
818.40	2666.46
818.57	2367.45
818.74	2516.95
818.91	2439.13
819.09	2547.67
819.26	2496.47
819.43	2447.32
819.60	2430.94
819.78	2555.86
819.95	2553.82
820.12	2351.07
820.29	2633.69
820.47	2557.91
820.64	2367.45
820.81	2277.34
820.98	2381.79
821.15	2389.98
821.33	2590.68
821.50	2293.72
821.67	2490.33
821.84	2519.00
822.02	2482.14
822.19	2586.58
822.36	2392.03
822.53	2451.42
822.70	2240.48
822.88	2486.23
823.05	2607.06
823.22	2451.42
823.39	2480.09
823.56	2455.51
823.74	2691.03
823.91	2353.12
824.08	2363.36
824.25	2328.54
824.42	2627.54
824.60	2260.96
824.77	2537.43
824.94	2400.22
825.11	2519.00
825.28	2338.78
825.45	2541.53
825.63	2551.77
825.80	2318.30
825.97	2457.56
826.14	2473.95
826.31	2310.11
826.48	2555.86
826.66	2383.84
826.83	2408.41
827.00	2418.65
827.17	2340.83
827.34	2351.07
827.51	2459.61
827.69	2469.85
827.86	2310.11
828.03	2398.17
828.20	2398.17
828.37	2355.16
828.54	2586.58
828.71	2383.84
828.89	2609.11
829.06	2527.19
829.23	2705.37
829.40	2363.36
829.57	2428.89
829.74	2502.62
829.91	2408.41
830.09	2414.56
830.26	2480.09
830.43	2680.79
830.60	2449.37
830.77	2549.72
830.94	2521.05
831.11	2568.15
831.28	2488.28
831.46	2478.04
831.63	2449.37
831.80	2600.92
831.97	2463.71
832.14	2383.84
832.31	2467.80
832.48	2535.39
832.65	2580.44
832.82	2496.47
832.99	2457.56
833.17	2361.31
833.34	2648.02
833.51	2465.75
833.68	2238.43
833.85	2588.63
834.02	2330.59
834.19	2392.03
834.36	2314.20
834.53	2496.47
834.70	2543.58
834.87	2555.86
835.04	2310.11
835.22	2365.40
835.39	2375.64
835.56	2306.01
835.73	2332.64
835.90	2555.86
836.07	2455.51
836.24	2441.18
836.41	2398.17
836.58	2428.89
836.75	2654.17
836.92	2373.60
837.09	2297.82
837.26	2600.92
837.43	2508.76
837.60	2486.23
837.77	2420.70
837.94	2539.48
838.12	2555.86
838.29	2336.73
838.46	2289.63
838.63	2367.45
838.80	2650.07
838.97	2435.03
839.14	2453.47
839.31	2484.19
839.48	2623.45
839.65	2394.08
839.82	2439.13
839.99	2521.05
840.16	2502.62
840.33	2316.25
840.50	2414.56
840.67	2398.17
840.84	2136.03
841.01	2389.98
841.18	2432.99
841.35	2475.99
841.52	2512.86
841.69	2693.08
841.86	2357.21
842.03	2488.28
842.20	2566.10
842.37	2424.80
842.54	2349.02
842.71	2482.14
842.88	2338.78
843.05	2338.78
843.22	2359.26
843.39	2639.83
843.56	2392.03
843.73	2371.55
843.90	2457.56
844.07	2422.75
844.24	2559.96
844.41	2533.34
844.58	2416.60
844.75	2459.61
844.92	2613.21
845.09	2428.89
845.26	2367.45
845.43	2543.58
845.60	2465.75
845.77	2506.71
845.94	2426.84
846.10	2508.76
846.27	2342.88
846.44	2238.43
846.61	2416.60
846.78	2492.38
846.95	2594.78
847.12	2306.01
847.29	2420.70
847.46	2367.45
847.63	2543.58
847.80	2349.02
847.97	2408.41
848.14	2713.56
848.31	2432.99
848.48	2320.35
848.65	2428.89
848.82	2437.08
848.98	2768.85
849.15	2408.41
849.32	2514.91
849.49	2572.25
849.66	2449.37
849.83	2379.74
850.00	2269.15
850.17	2539.48
850.34	2430.94
850.51	2346.97
850.68	2414.56
850.85	2711.51
851.01	2447.32
851.18	2453.47
851.35	2441.18
851.52	2478.04
851.69	2662.36
851.86	2299.87
852.03	2330.59
852.20	2613.21
852.37	2473.95
852.53	2207.71
852.70	2334.68
852.87	2449.37
853.04	2598.87
853.21	2408.41
853.38	2555.86
853.55	2605.02
853.72	2707.41
853.89	2367.45
854.05	2326.49
854.22	2441.18
854.39	2465.75
854.56	2392.03
854.73	2566.10
854.90	2430.94
855.07	2453.47
855.23	2236.38
855.40	2322.40
855.57	2371.55
855.74	2234.33
855.91	2586.58
856.08	2289.63
856.25	2301.92
856.41	2377.69
856.58	2344.92
856.75	2408.41
856.92	2299.87
857.09	2557.91
857.26	2217.95
857.42	2387.93
857.59	2545.63
857.76	2412.51
857.93	2408.41
858.10	2447.32
858.27	2310.11
858.43	2504.67
858.60	2351.07
858.77	2228.19
858.94	2414.56
859.11	2584.54
859.27	2351.07
859.44	2334.68
859.61	2748.37
859.78	2635.74
859.95	2373.60
860.12	2203.61
860.28	2750.42
860.45	2736.09
860.62	2271.20
860.79	2408.41
860.95	2453.47
861.12	2408.41
861.29	2312.16
861.46	2308.06
861.63	2451.42
861.79	2445.27
861.96	2310.11
862.13	2426.84
862.30	2668.50
862.47	2398.17
862.63	2383.84
862.80	2445.27
862.97	2639.83
863.14	2559.96
863.30	2430.94
863.47	2295.77
863.64	2607.06
863.81	2553.82
863.97	2351.07
864.14	2457.56
864.31	2414.56
864.48	2478.04
864.65	2363.36
864.81	2521.05
864.98	2572.25
865.15	2480.09
865.32	2488.28
865.48	2447.32
865.65	2605.02
865.82	2432.99
865.98	2301.92
866.15	2457.56
866.32	2404.32
866.49	2430.94
866.65	2564.06
866.82	2293.72
866.99	2461.66
867.16	2398.17
867.32	2385.88
867.49	2330.59
867.66	2453.47
867.83	2394.08
867.99	2234.33
868.16	2400.22
868.33	2289.63
868.49	2525.15
868.66	2342.88
868.83	2408.41
868.99	2557.91
869.16	2529.24
869.33	2512.86
869.50	2519.00
869.66	2502.62
869.83	2537.43
870.00	2263.01
870.16	2482.14
870.33	2459.61
870.50	2514.91
870.66	2359.26
870.83	2512.86
871.00	2441.18
871.17	2535.39
871.33	2342.88
871.50	2342.88
871.67	2451.42
871.83	2473.95
872.00	2527.19
872.17	2369.50
872.33	2719.70
872.50	2576.34
872.67	2408.41
872.83	2306.01
873.00	2496.47
873.17	2543.58
873.33	2490.33
873.50	2416.60
873.67	2363.36
873.83	2381.79
874.00	2408.41
874.16	2482.14
874.33	2578.39
874.50	2277.34
874.66	2449.37
874.83	2478.04
875.00	2684.89
875.16	2613.21
875.33	2519.00
875.50	2273.25
875.66	2351.07
875.83	2490.33
875.99	2449.37
876.16	2455.51
876.33	2346.97
876.49	2449.37
876.66	2426.84
876.83	2371.55
876.99	2256.86
877.16	2369.50
877.32	2306.01
877.49	2408.41
877.66	2465.75
877.82	2609.11
877.99	2422.75
878.15	2539.48
878.32	2414.56
878.49	2471.90
878.65	2420.70
878.82	2584.54
878.98	2369.50
879.15	2523.10
879.32	2555.86
879.48	2402.27
879.65	2482.14
879.81	2437.08
879.98	2346.97
880.15	2363.36
880.31	2629.59
880.48	2369.50
880.64	2529.24
880.81	2469.85
880.97	2727.89
881.14	2611.16
881.31	2357.21
881.47	2613.21
881.64	2484.19
881.80	2289.63
881.97	2490.33
882.13	2453.47
882.30	2359.26
882.47	2346.97
882.63	2381.79
882.80	2355.16
882.96	2445.27
883.13	2609.11
883.29	2404.32
883.46	2396.12
883.62	2695.13
883.79	2557.91
883.95	2523.10
884.12	2463.71
884.29	2588.63
884.45	2502.62
884.62	2371.55
884.78	2314.20
884.95	2729.94
885.11	2375.64
885.28	2547.67
885.44	2377.69
885.61	2568.15
885.77	2676.70
885.94	2469.85
886.10	2445.27
886.27	2494.43
886.43	2793.43
886.60	2541.53
886.76	2351.07
886.93	2418.65
887.09	2437.08
887.26	2310.11
887.42	2502.62
887.59	2531.29
887.75	2770.90
887.92	2572.25
888.08	2506.71
888.25	2670.55
888.41	2611.16
888.58	2375.64
888.74	2275.29
888.91	2457.56
>>>>>End Processed Spectral Data<<<<<
