SpectraSuite Data File
++++++++++++++++++++++++++++++++++++
Date: Thu May 05 14:41:51 CEST 2016
User: root
Dark Spectrum Present: No
Reference Spectrum Present: No
Number of Sampled Component Spectra: 1
Spectrometers: USB4C02835
Integration Time (usec): 100000 (USB4C02835)
Spectra Averaged: 1 (USB4C02835)
Boxcar Smoothing: 0 (USB4C02835)
Correct for Electrical Dark: No (USB4C02835)
Strobe/Lamp Enabled: No (USB4C02835)
Correct for Detector Non-linearity: No (USB4C02835)
Correct for Stray Light: No (USB4C02835)
Number of Pixels in Processed Spectrum: 3648
>>>>>Begin Processed Spectral Data<<<<<
177.47	1910.75
177.69	1910.75
177.91	1910.75
178.13	1920.99
178.36	1904.61
178.58	2394.08
178.80	2449.37
179.02	2291.68
179.24	2334.68
179.46	2283.49
179.68	2394.08
179.90	2506.71
180.13	2519.00
180.35	2256.86
180.57	2357.21
180.79	2594.78
181.01	2430.94
181.23	2381.79
181.45	2502.62
181.67	2547.67
181.90	2602.97
182.12	2336.73
182.34	2220.00
182.56	2555.86
182.78	2465.75
183.00	2260.96
183.22	2375.64
183.44	2213.85
183.66	2846.68
183.89	2455.51
184.11	2355.16
184.33	2566.10
184.55	2600.92
184.77	2363.36
184.99	2355.16
185.21	2447.32
185.43	2719.70
185.65	2346.97
185.87	2293.72
186.10	2742.23
186.32	2734.04
186.54	2480.09
186.76	2369.50
186.98	2564.06
187.20	2455.51
187.42	2346.97
187.64	2265.05
187.86	2650.07
188.08	2562.01
188.30	2228.19
188.52	2351.07
188.75	2568.15
188.97	2654.17
189.19	2285.53
189.41	2240.48
189.63	2598.87
189.85	2404.32
190.07	2297.82
190.29	2199.52
190.51	2531.29
190.73	2275.29
190.95	2490.33
191.17	2432.99
191.39	2285.53
191.61	2465.75
191.84	2379.74
192.06	2381.79
192.28	2310.11
192.50	2822.10
192.72	2467.80
192.94	2424.80
193.16	2600.92
193.38	2553.82
193.60	2220.00
193.82	2396.12
194.04	2629.59
194.26	2559.96
194.48	2271.20
194.70	2359.26
194.92	2439.13
195.14	2576.34
195.36	2416.60
195.58	2359.26
195.80	2439.13
196.02	2351.07
196.24	2332.64
196.46	2430.94
196.69	2420.70
196.91	2752.47
197.13	2408.41
197.35	2334.68
197.57	2715.61
197.79	2639.83
198.01	2482.14
198.23	2371.55
198.45	2506.71
198.67	2336.73
198.89	2320.35
199.11	2490.33
199.33	2351.07
199.55	2201.57
199.77	2306.01
199.99	2467.80
200.21	2480.09
200.43	2471.90
200.65	2260.96
200.87	2189.28
201.09	2551.77
201.31	2449.37
201.53	2430.94
201.75	2392.03
201.97	2475.99
202.19	2494.43
202.41	2379.74
202.63	2539.48
202.85	2529.24
203.07	2490.33
203.29	2340.83
203.51	2283.49
203.73	2381.79
203.95	2801.62
204.17	2367.45
204.39	2496.47
204.61	2424.80
204.83	2375.64
205.05	2521.05
205.27	2506.71
205.49	2834.39
205.71	2510.81
205.93	2209.76
206.15	2275.29
206.37	2588.63
206.59	2500.57
206.81	2256.86
207.03	2303.96
207.25	2410.46
207.47	2572.25
207.69	2387.93
207.91	2521.05
208.13	2631.64
208.34	2353.12
208.56	2308.06
208.78	2383.84
209.00	2416.60
209.22	2394.08
209.44	2367.45
209.66	2342.88
209.88	2451.42
210.10	2430.94
210.32	2303.96
210.54	2396.12
210.76	2486.23
210.98	2576.34
211.20	2258.91
211.42	2445.27
211.64	2652.12
211.86	2484.19
212.08	2346.97
212.30	2383.84
212.52	2459.61
212.74	2531.29
212.96	2375.64
213.17	2506.71
213.39	2488.28
213.61	2734.04
213.83	2248.67
214.05	2420.70
214.27	2617.30
214.49	2420.70
214.71	2250.72
214.93	2478.04
215.15	2484.19
215.37	2572.25
215.59	2312.16
215.81	2400.22
216.03	2691.03
216.24	2484.19
216.46	2379.74
216.68	2412.51
216.90	2504.67
217.12	2625.50
217.34	2277.34
217.56	2373.60
217.78	2670.55
218.00	2637.78
218.22	2400.22
218.44	2484.19
218.66	2535.39
218.87	2766.81
219.09	2336.73
219.31	2414.56
219.53	2490.33
219.75	2465.75
219.97	2326.49
220.19	2316.25
220.41	2496.47
220.63	2701.27
220.85	2363.36
221.06	2408.41
221.28	2643.93
221.50	2621.40
221.72	2371.55
221.94	2248.67
222.16	2598.87
222.38	2570.20
222.60	2332.64
222.82	2387.93
223.03	2553.82
223.25	2320.35
223.47	2412.51
223.69	2523.10
223.91	2666.46
224.13	2566.10
224.35	2332.64
224.57	2562.01
224.78	2572.25
225.00	2400.22
225.22	2451.42
225.44	2316.25
225.66	2553.82
225.88	2387.93
226.10	2387.93
226.32	2531.29
226.53	2643.93
226.75	2459.61
226.97	2373.60
227.19	2420.70
227.41	2367.45
227.63	2353.12
227.85	2287.58
228.06	2314.20
228.28	2451.42
228.50	2566.10
228.72	2244.57
228.94	2365.40
229.16	2310.11
229.37	2363.36
229.59	2367.45
229.81	2545.63
230.03	2461.66
230.25	2342.88
230.47	2211.81
230.69	2228.19
230.90	2555.86
231.12	2392.03
231.34	2373.60
231.56	2512.86
231.78	2316.25
232.00	2478.04
232.21	2359.26
232.43	2340.83
232.65	2287.58
232.87	2586.58
233.09	2297.82
233.30	2299.87
233.52	2629.59
233.74	2457.56
233.96	2260.96
234.18	2406.36
234.40	2447.32
234.61	2793.43
234.83	2226.14
235.05	2273.25
235.27	2850.77
235.49	2643.93
235.70	2338.78
235.92	2387.93
236.14	2482.14
236.36	2781.14
236.58	2299.87
236.79	2457.56
237.01	2498.52
237.23	2537.43
237.45	2586.58
237.67	2371.55
237.88	2457.56
238.10	2695.13
238.32	2365.40
238.54	2328.54
238.76	2469.85
238.97	2453.47
239.19	2332.64
239.41	2418.65
239.63	2607.06
239.85	2437.08
240.06	2381.79
240.28	2318.30
240.50	2527.19
240.72	2445.27
240.93	2318.30
241.15	2482.14
241.37	2473.95
241.59	2641.88
241.81	2404.32
242.02	2404.32
242.24	2504.67
242.46	2537.43
242.68	2230.24
242.89	2359.26
243.11	2580.44
243.33	2420.70
243.55	2361.31
243.76	2420.70
243.98	2449.37
244.20	2463.71
244.42	2365.40
244.64	2379.74
244.85	2312.16
245.07	2365.40
245.29	2449.37
245.51	2392.03
245.72	2564.06
245.94	2619.35
246.16	2326.49
246.38	2443.23
246.59	2455.51
246.81	2471.90
247.03	2277.34
247.24	2258.91
247.46	2457.56
247.68	2584.54
247.90	2281.44
248.11	2355.16
248.33	2580.44
248.55	2443.23
248.77	2420.70
248.98	2453.47
249.20	2613.21
249.42	2490.33
249.64	2383.84
249.85	2291.68
250.07	2414.56
250.29	2590.68
250.50	2410.46
250.72	2260.96
250.94	2519.00
251.16	2729.94
251.37	2365.40
251.59	2357.21
251.81	2564.06
252.02	2521.05
252.24	2308.06
252.46	2486.23
252.68	2357.21
252.89	2410.46
253.11	2252.77
253.33	2453.47
253.54	2633.69
253.76	2342.88
253.98	2330.59
254.20	2351.07
254.41	2299.87
254.63	2404.32
254.85	2193.37
255.06	2424.80
255.28	2516.95
255.50	2478.04
255.71	2263.01
255.93	2238.43
256.15	2406.36
256.36	2590.68
256.58	2287.58
256.80	2381.79
257.02	2420.70
257.23	2486.23
257.45	2371.55
257.67	2373.60
257.88	2449.37
258.10	2592.73
258.32	2308.06
258.53	2473.95
258.75	2643.93
258.97	2375.64
259.18	2265.05
259.40	2377.69
259.62	2715.61
259.83	2615.26
260.05	2424.80
260.27	2863.06
260.48	2611.16
260.70	2334.68
260.92	2318.30
261.13	2406.36
261.35	2521.05
261.57	2539.48
261.78	2269.15
262.00	2256.86
262.22	2572.25
262.43	2334.68
262.65	2299.87
262.86	2367.45
263.08	2818.00
263.30	2508.76
263.51	2199.52
263.73	2316.25
263.95	2697.17
264.16	2465.75
264.38	2281.44
264.60	2308.06
264.81	2475.99
265.03	2559.96
265.25	2549.72
265.46	2332.64
265.68	2570.20
265.89	2564.06
266.11	2263.01
266.33	2424.80
266.54	2615.26
266.76	2539.48
266.98	2447.32
267.19	2473.95
267.41	2568.15
267.62	2383.84
267.84	2193.37
268.06	2432.99
268.27	2519.00
268.49	2609.11
268.70	2416.60
268.92	2371.55
269.14	2344.92
269.35	2351.07
269.57	2379.74
269.79	2377.69
270.00	2344.92
270.22	2725.85
270.43	2277.34
270.65	2213.85
270.87	2459.61
271.08	2570.20
271.30	2469.85
271.51	2383.84
271.73	2525.15
271.95	2590.68
272.16	2383.84
272.38	2410.46
272.59	2357.21
272.81	2596.82
273.02	2367.45
273.24	2340.83
273.46	2527.19
273.67	2334.68
273.89	2338.78
274.10	2326.49
274.32	2598.87
274.54	2422.75
274.75	2445.27
274.97	2346.97
275.18	2539.48
275.40	2547.67
275.61	2359.26
275.83	2428.89
276.05	2351.07
276.26	2478.04
276.48	2455.51
276.69	2351.07
276.91	2367.45
277.12	2588.63
277.34	2547.67
277.55	2545.63
277.77	2514.91
277.99	2480.09
278.20	2336.73
278.42	2308.06
278.63	2351.07
278.85	2439.13
279.06	2355.16
279.28	2383.84
279.49	2645.98
279.71	2588.63
279.93	2389.98
280.14	2445.27
280.36	2373.60
280.57	2619.35
280.79	2414.56
281.00	2338.78
281.22	2449.37
281.43	2717.65
281.65	2172.89
281.86	2349.02
282.08	2465.75
282.29	2680.79
282.51	2232.29
282.73	2349.02
282.94	2336.73
283.16	2588.63
283.37	2465.75
283.59	2424.80
283.80	2480.09
284.02	2480.09
284.23	2527.19
284.45	2432.99
284.66	2301.92
284.88	2355.16
285.09	2351.07
285.31	2498.52
285.52	2525.15
285.74	2346.97
285.95	2553.82
286.17	2418.65
286.38	2576.34
286.60	2410.46
286.81	2373.60
287.03	2334.68
287.24	2506.71
287.46	2619.35
287.67	2400.22
287.89	2578.39
288.10	2480.09
288.32	2482.14
288.53	2572.25
288.75	2449.37
288.96	2633.69
289.18	2471.90
289.39	2326.49
289.61	2461.66
289.82	2719.70
290.04	2666.46
290.25	2430.94
290.47	2512.86
290.68	2494.43
290.90	2670.55
291.11	2275.29
291.33	2568.15
291.54	2371.55
291.76	2310.11
291.97	2412.51
292.18	2494.43
292.40	2398.17
292.61	2314.20
292.83	2666.46
293.04	2492.38
293.26	2383.84
293.47	2426.84
293.69	2306.01
293.90	2406.36
294.12	2625.50
294.33	2435.03
294.55	2414.56
294.76	2549.72
294.97	2619.35
295.19	2760.66
295.40	2408.41
295.62	2506.71
295.83	2510.81
296.05	2420.70
296.26	2643.93
296.48	2359.26
296.69	2490.33
296.90	2363.36
297.12	2502.62
297.33	2527.19
297.55	2469.85
297.76	2502.62
297.98	2572.25
298.19	2527.19
298.41	2463.71
298.62	2441.18
298.83	2670.55
299.05	2467.80
299.26	2441.18
299.48	2316.25
299.69	2498.52
299.90	2441.18
300.12	2377.69
300.33	2584.54
300.55	2465.75
300.76	2484.19
300.98	2392.03
301.19	2580.44
301.40	2342.88
301.62	2408.41
301.83	2576.34
302.05	2461.66
302.26	2400.22
302.47	2422.75
302.69	2398.17
302.90	2516.95
303.12	2248.67
303.33	2553.82
303.54	2768.85
303.76	2383.84
303.97	2437.08
304.19	2617.30
304.40	2316.25
304.61	2488.28
304.83	2566.10
305.04	2484.19
305.26	2553.82
305.47	2443.23
305.68	2455.51
305.90	2285.53
306.11	2559.96
306.33	2383.84
306.54	2357.21
306.75	2412.51
306.97	2340.83
307.18	2353.12
307.39	2443.23
307.61	2498.52
307.82	2422.75
308.04	2602.97
308.25	2324.44
308.46	2420.70
308.68	2437.08
308.89	2465.75
309.10	2613.21
309.32	2437.08
309.53	2475.99
309.74	2574.30
309.96	2447.32
310.17	2523.10
310.39	2498.52
310.60	2531.29
310.81	2447.32
311.03	2332.64
311.24	2645.98
311.45	2465.75
311.67	2691.03
311.88	2617.30
312.09	2514.91
312.31	2392.03
312.52	2428.89
312.73	2389.98
312.95	2351.07
313.16	2379.74
313.37	2588.63
313.59	2545.63
313.80	2557.91
314.01	2701.27
314.23	2383.84
314.44	2258.91
314.65	2383.84
314.87	2406.36
315.08	2408.41
315.29	2437.08
315.51	2332.64
315.72	2365.40
315.93	2537.43
316.15	2514.91
316.36	2396.12
316.57	2473.95
316.79	2494.43
317.00	2441.18
317.21	2531.29
317.43	2439.13
317.64	2531.29
317.85	2299.87
318.07	2389.98
318.28	2408.41
318.49	2525.15
318.70	2686.94
318.92	2635.74
319.13	2652.12
319.34	2590.68
319.56	2514.91
319.77	2621.40
319.98	2686.94
320.20	2553.82
320.41	2504.67
320.62	2557.91
320.83	2420.70
321.05	2613.21
321.26	2447.32
321.47	2467.80
321.69	2645.98
321.90	2297.82
322.11	2359.26
322.32	2570.20
322.54	2598.87
322.75	2418.65
322.96	2895.83
323.18	2289.63
323.39	2260.96
323.60	2371.55
323.81	2504.67
324.03	2496.47
324.24	2475.99
324.45	2457.56
324.66	2416.60
324.88	2576.34
325.09	2674.65
325.30	2383.84
325.52	2422.75
325.73	2514.91
325.94	2338.78
326.15	2299.87
326.37	2336.73
326.58	2641.88
326.79	2674.65
327.00	2328.54
327.22	2385.88
327.43	2559.96
327.64	2353.12
327.85	2502.62
328.07	2461.66
328.28	2648.02
328.49	2400.22
328.70	2334.68
328.92	2428.89
329.13	2430.94
329.34	2535.39
329.55	2578.39
329.76	2543.58
329.98	2506.71
330.19	2654.17
330.40	2545.63
330.61	2439.13
330.83	2580.44
331.04	2328.54
331.25	2408.41
331.46	2387.93
331.68	2297.82
331.89	2641.88
332.10	2467.80
332.31	2301.92
332.52	2514.91
332.74	2539.48
332.95	2285.53
333.16	2389.98
333.37	2594.78
333.58	2396.12
333.80	2422.75
334.01	2248.67
334.22	2465.75
334.43	2443.23
334.64	2400.22
334.86	2289.63
335.07	2338.78
335.28	2666.46
335.49	2291.68
335.70	2488.28
335.92	2594.78
336.13	2770.90
336.34	2525.15
336.55	2430.94
336.76	2516.95
336.98	2250.72
337.19	2482.14
337.40	2568.15
337.61	2742.23
337.82	2414.56
338.04	2465.75
338.25	2297.82
338.46	2420.70
338.67	2381.79
338.88	2340.83
339.09	2322.40
339.31	2424.80
339.52	2330.59
339.73	2375.64
339.94	2488.28
340.15	2656.22
340.36	2441.18
340.58	2457.56
340.79	2359.26
341.00	2545.63
341.21	2357.21
341.42	2596.82
341.63	2408.41
341.85	2645.98
342.06	2469.85
342.27	2299.87
342.48	2529.24
342.69	2371.55
342.90	2486.23
343.12	2570.20
343.33	2367.45
343.54	2615.26
343.75	2670.55
343.96	2486.23
344.17	2340.83
344.38	2475.99
344.60	2318.30
344.81	2381.79
345.02	2465.75
345.23	2596.82
345.44	2832.34
345.65	2428.89
345.86	2428.89
346.07	2539.48
346.29	2428.89
346.50	2484.19
346.71	2537.43
346.92	2594.78
347.13	2781.14
347.34	2482.14
347.55	2408.41
347.76	2455.51
347.98	2359.26
348.19	2435.03
348.40	2508.76
348.61	2531.29
348.82	2713.56
349.03	2512.86
349.24	2314.20
349.45	2693.08
349.66	2193.37
349.88	2473.95
350.09	2414.56
350.30	2645.98
350.51	2547.67
350.72	2422.75
350.93	2414.56
351.14	2473.95
351.35	2621.40
351.56	2480.09
351.77	2492.38
351.99	2494.43
352.20	2678.74
352.41	2523.10
352.62	2310.11
352.83	2455.51
353.04	2424.80
353.25	2432.99
353.46	2533.34
353.67	2609.11
353.88	2189.28
354.09	2359.26
354.30	2453.47
354.52	2600.92
354.73	2473.95
354.94	2367.45
355.15	2496.47
355.36	2754.52
355.57	2392.03
355.78	2416.60
355.99	2404.32
356.20	2447.32
356.41	2576.34
356.62	2490.33
356.83	2426.84
357.04	2701.27
357.25	2279.39
357.46	2457.56
357.68	2295.77
357.89	2363.36
358.10	2459.61
358.31	2402.27
358.52	2424.80
358.73	2295.77
358.94	2349.02
359.15	2367.45
359.36	2500.57
359.57	2441.18
359.78	2445.27
359.99	2506.71
360.20	2365.40
360.41	2457.56
360.62	2562.01
360.83	2473.95
361.04	2478.04
361.25	2523.10
361.46	2736.09
361.67	2514.91
361.88	2527.19
362.09	2695.13
362.30	2486.23
362.51	2400.22
362.72	2449.37
362.93	2562.01
363.14	2473.95
363.35	2482.14
363.56	2308.06
363.78	2576.34
363.99	2527.19
364.20	2400.22
364.41	2428.89
364.62	2736.09
364.83	2459.61
365.04	2371.55
365.25	2465.75
365.46	2738.13
365.67	2338.78
365.88	2443.23
366.09	2363.36
366.30	2432.99
366.51	2508.76
366.72	2320.35
366.93	2414.56
367.14	2469.85
367.35	2697.17
367.56	2475.99
367.77	2539.48
367.98	2506.71
368.18	2551.77
368.39	2519.00
368.60	2367.45
368.81	2625.50
369.02	2609.11
369.23	2398.17
369.44	2289.63
369.65	2428.89
369.86	2508.76
370.07	2473.95
370.28	2330.59
370.49	2482.14
370.70	2510.81
370.91	2332.64
371.12	2428.89
371.33	2686.94
371.54	2435.03
371.75	2564.06
371.96	2191.33
372.17	2553.82
372.38	2512.86
372.59	2504.67
372.80	2314.20
373.01	2455.51
373.22	2482.14
373.43	2486.23
373.64	2332.64
373.85	2555.86
374.06	2664.41
374.26	2549.72
374.47	2539.48
374.68	2736.09
374.89	2535.39
375.10	2400.22
375.31	2508.76
375.52	2555.86
375.73	2478.04
375.94	2351.07
376.15	2492.38
376.36	2441.18
376.57	2508.76
376.78	2324.44
376.99	2424.80
377.20	2645.98
377.40	2482.14
377.61	2668.50
377.82	2412.51
378.03	2658.26
378.24	2555.86
378.45	2449.37
378.66	2449.37
378.87	2236.38
379.08	2373.60
379.29	2375.64
379.50	2611.16
379.71	2375.64
379.91	2498.52
380.12	2396.12
380.33	2471.90
380.54	2447.32
380.75	2539.48
380.96	2404.32
381.17	2576.34
381.38	2498.52
381.59	2539.48
381.80	2445.27
382.00	2635.74
382.21	2539.48
382.42	2674.65
382.63	2727.89
382.84	2562.01
383.05	2607.06
383.26	2613.21
383.47	2498.52
383.68	2445.27
383.88	2523.10
384.09	2387.93
384.30	2619.35
384.51	2467.80
384.72	2367.45
384.93	2330.59
385.14	2439.13
385.35	2527.19
385.55	2299.87
385.76	2590.68
385.97	2473.95
386.18	2334.68
386.39	2396.12
386.60	2365.40
386.81	2439.13
387.02	2330.59
387.22	2377.69
387.43	2613.21
387.64	2490.33
387.85	2695.13
388.06	2555.86
388.27	4065.22
388.48	8241.03
388.68	12009.29
388.89	14548.77
389.10	15748.88
389.31	15048.47
389.52	11827.02
389.73	10125.16
389.93	9123.70
390.14	8392.58
390.35	7681.93
390.56	6692.76
390.77	5474.22
390.98	4190.14
391.18	3389.39
391.39	2899.92
391.60	2568.15
391.81	2627.54
392.02	2381.79
392.23	2807.77
392.43	2559.96
392.64	2527.19
392.85	2461.66
393.06	2645.98
393.27	2496.47
393.47	2463.71
393.68	2437.08
393.89	2342.88
394.10	2674.65
394.31	2410.46
394.52	2398.17
394.72	2439.13
394.93	2672.60
395.14	2375.64
395.35	2478.04
395.56	2385.88
395.76	2469.85
395.97	2492.38
396.18	2592.73
396.39	2635.74
396.60	3010.51
396.80	2748.37
397.01	2619.35
397.22	2676.70
397.43	2545.63
397.64	2457.56
397.84	2596.82
398.05	2815.96
398.26	2543.58
398.47	2553.82
398.67	2559.96
398.88	2435.03
399.09	2500.57
399.30	2332.64
399.51	2465.75
399.71	2455.51
399.92	2484.19
400.13	2547.67
400.34	2463.71
400.54	2566.10
400.75	2736.09
400.96	2473.95
401.17	2678.74
401.37	2625.50
401.58	2516.95
401.79	2394.08
402.00	2627.54
402.21	2998.23
402.41	2826.20
402.62	2736.09
402.83	2885.59
403.04	2840.53
403.24	3094.48
403.45	2559.96
403.66	2736.09
403.87	2688.98
404.07	2764.76
404.28	2725.85
404.49	2695.13
404.70	2609.11
404.90	2570.20
405.11	2478.04
405.32	2457.56
405.52	2359.26
405.73	2424.80
405.94	2437.08
406.15	2527.19
406.35	2568.15
406.56	2635.74
406.77	2490.33
406.98	2432.99
407.18	2441.18
407.39	2727.89
407.60	2424.80
407.80	2502.62
408.01	2392.03
408.22	2498.52
408.43	2371.55
408.63	2510.81
408.84	2539.48
409.05	2562.01
409.25	2310.11
409.46	2385.88
409.67	2441.18
409.88	2334.68
410.08	2529.24
410.29	2412.51
410.50	2600.92
410.70	2662.36
410.91	2314.20
411.12	2523.10
411.32	2443.23
411.53	2455.51
411.74	2572.25
411.95	2627.54
412.15	2598.87
412.36	2602.97
412.57	2506.71
412.77	2621.40
412.98	2537.43
413.19	2432.99
413.39	2478.04
413.60	2482.14
413.81	2670.55
414.01	2408.41
414.22	2478.04
414.43	2629.59
414.63	2416.60
414.84	2488.28
415.05	2455.51
415.25	2400.22
415.46	2572.25
415.67	2330.59
415.87	2473.95
416.08	2512.86
416.29	2475.99
416.49	2584.54
416.70	2406.36
416.91	2486.23
417.11	2400.22
417.32	2547.67
417.53	2519.00
417.73	2559.96
417.94	2437.08
418.15	2519.00
418.35	2478.04
418.56	2480.09
418.77	2793.43
418.97	2443.23
419.18	2432.99
419.38	2156.51
419.59	2498.52
419.80	2664.41
420.00	2467.80
420.21	2416.60
420.42	2652.12
420.62	2516.95
420.83	2387.93
421.04	2406.36
421.24	2414.56
421.45	2590.68
421.65	2475.99
421.86	2402.27
422.07	2559.96
422.27	2506.71
422.48	2478.04
422.69	2324.44
422.89	2459.61
423.10	2330.59
423.30	2375.64
423.51	2455.51
423.72	2492.38
423.92	2533.34
424.13	2340.83
424.33	2459.61
424.54	2555.86
424.75	2539.48
424.95	2547.67
425.16	2408.41
425.36	2502.62
425.57	2650.07
425.78	2562.01
425.98	2531.29
426.19	2455.51
426.39	2435.03
426.60	2508.76
426.81	2572.25
427.01	2512.86
427.22	2426.84
427.42	2330.59
427.63	2398.17
427.83	2539.48
428.04	2672.60
428.25	2566.10
428.45	2559.96
428.66	2592.73
428.86	2492.38
429.07	2396.12
429.28	2531.29
429.48	2475.99
429.69	2459.61
429.89	2473.95
430.10	2398.17
430.30	2512.86
430.51	2637.78
430.71	2402.27
430.92	2488.28
431.13	2463.71
431.33	2586.58
431.54	2529.24
431.74	2602.97
431.95	2709.46
432.15	2346.97
432.36	2475.99
432.56	2514.91
432.77	2766.81
432.98	2617.30
433.18	2455.51
433.39	2408.41
433.59	2424.80
433.80	2701.27
434.00	2678.74
434.21	2414.56
434.41	2357.21
434.62	2820.05
434.82	2342.88
435.03	2400.22
435.23	2584.54
435.44	2273.25
435.64	2449.37
435.85	2492.38
436.06	2600.92
436.26	2598.87
436.47	2500.57
436.67	2400.22
436.88	2424.80
437.08	2654.17
437.29	2555.86
437.49	2494.43
437.70	2580.44
437.90	2424.80
438.11	2662.36
438.31	2527.19
438.52	2754.52
438.72	2799.57
438.93	2736.09
439.13	2588.63
439.34	2568.15
439.54	2457.56
439.75	2586.58
439.95	2523.10
440.16	2439.13
440.36	2559.96
440.57	2478.04
440.77	2459.61
440.98	2482.14
441.18	2584.54
441.39	2367.45
441.59	2314.20
441.80	2793.43
442.00	2490.33
442.21	2535.39
442.41	2422.75
442.62	2592.73
442.82	2424.80
443.02	2437.08
443.23	2449.37
443.43	2455.51
443.64	2623.45
443.84	2392.03
444.05	2631.64
444.25	2562.01
444.46	2482.14
444.66	2410.46
444.87	2645.98
445.07	2281.44
445.28	2445.27
445.48	2645.98
445.69	2539.48
445.89	2877.40
446.09	2527.19
446.30	2795.48
446.50	3047.38
446.71	4732.86
446.91	5736.36
447.12	6545.31
447.32	7133.08
447.53	6604.70
447.73	5441.45
447.93	4708.28
448.14	4556.73
448.34	4499.39
448.55	3725.26
448.75	3772.36
448.96	3534.79
449.16	3225.55
449.36	3082.19
449.57	2754.52
449.77	2572.25
449.98	2445.27
450.18	2637.78
450.39	2486.23
450.59	2504.67
450.79	2504.67
451.00	2445.27
451.20	2578.39
451.41	2449.37
451.61	2543.58
451.81	2449.37
452.02	2416.60
452.22	2389.98
452.43	2453.47
452.63	2396.12
452.84	2469.85
453.04	2437.08
453.24	2502.62
453.45	2359.26
453.65	2455.51
453.86	2510.81
454.06	2570.20
454.26	2525.15
454.47	2367.45
454.67	2564.06
454.87	2596.82
455.08	2527.19
455.28	2637.78
455.49	2490.33
455.69	2430.94
455.89	2742.23
456.10	2605.02
456.30	2342.88
456.51	2617.30
456.71	2547.67
456.91	2547.67
457.12	2516.95
457.32	2496.47
457.52	2330.59
457.73	2559.96
457.93	2570.20
458.14	2443.23
458.34	2250.72
458.54	2469.85
458.75	2459.61
458.95	2664.41
459.15	2482.14
459.36	2455.51
459.56	2473.95
459.76	2711.51
459.97	2471.90
460.17	2424.80
460.37	2555.86
460.58	2537.43
460.78	2592.73
460.99	2449.37
461.19	2392.03
461.39	2398.17
461.60	2457.56
461.80	2459.61
462.00	2389.98
462.21	2482.14
462.41	2363.36
462.61	2381.79
462.82	2224.09
463.02	2590.68
463.22	2482.14
463.43	2547.67
463.63	2443.23
463.83	2631.64
464.04	2568.15
464.24	2441.18
464.44	2359.26
464.64	2584.54
464.85	2551.77
465.05	2598.87
465.25	2486.23
465.46	2422.75
465.66	2625.50
465.86	2502.62
466.07	2478.04
466.27	2465.75
466.47	2271.20
466.68	2273.25
466.88	2619.35
467.08	2580.44
467.29	2594.78
467.49	2453.47
467.69	2463.71
467.89	2580.44
468.10	2357.21
468.30	2439.13
468.50	2648.02
468.71	2674.65
468.91	2377.69
469.11	2641.88
469.31	2465.75
469.52	2424.80
469.72	2678.74
469.92	2695.13
470.13	2473.95
470.33	2588.63
470.53	2551.77
470.73	2805.72
470.94	3295.18
471.14	3477.45
471.34	3811.27
471.54	3755.97
471.75	3332.05
471.95	2994.13
472.15	3039.19
472.36	3016.66
472.56	2979.79
472.76	3114.96
472.96	3014.61
473.17	2717.65
473.37	2691.03
473.57	2605.02
473.77	2551.77
473.98	2496.47
474.18	2359.26
474.38	2875.35
474.58	2469.85
474.79	2430.94
474.99	2559.96
475.19	2609.11
475.39	2398.17
475.60	2435.03
475.80	2432.99
476.00	2416.60
476.20	2500.57
476.41	2459.61
476.61	2602.97
476.81	2695.13
477.01	2310.11
477.21	2648.02
477.42	2602.97
477.62	2338.78
477.82	2514.91
478.02	2383.84
478.23	2492.38
478.43	2297.82
478.63	2449.37
478.83	2465.75
479.03	2441.18
479.24	2664.41
479.44	2670.55
479.64	2369.50
479.84	2359.26
480.04	2373.60
480.25	2529.24
480.45	2322.40
480.65	2451.42
480.85	2621.40
481.06	2480.09
481.26	2568.15
481.46	2475.99
481.66	2602.97
481.86	2330.59
482.06	2596.82
482.27	2494.43
482.47	2432.99
482.67	2621.40
482.87	2537.43
483.07	2611.16
483.28	2428.89
483.48	2396.12
483.68	2465.75
483.88	2383.84
484.08	2244.57
484.29	2346.97
484.49	2508.76
484.69	2353.12
484.89	2580.44
485.09	2631.64
485.29	2514.91
485.50	2502.62
485.70	2494.43
485.90	2652.12
486.10	2576.34
486.30	2467.80
486.50	2596.82
486.71	2555.86
486.91	2512.86
487.11	2549.72
487.31	2379.74
487.51	2490.33
487.71	2375.64
487.91	2416.60
488.12	2400.22
488.32	2332.64
488.52	2355.16
488.72	2240.48
488.92	2605.02
489.12	2676.70
489.32	2596.82
489.53	2482.14
489.73	2299.87
489.93	2660.31
490.13	2418.65
490.33	2281.44
490.53	2562.01
490.73	2670.55
490.94	2332.64
491.14	2496.47
491.34	2598.87
491.54	2719.70
491.74	3416.01
491.94	3889.09
492.14	4308.93
492.34	4399.04
492.54	4069.31
492.75	3440.59
492.95	3409.87
493.15	3225.55
493.35	3153.87
493.55	3190.74
493.75	3004.37
493.95	3006.42
494.15	2717.65
494.35	2562.01
494.56	2564.06
494.76	2437.08
494.96	2519.00
495.16	2461.66
495.36	2527.19
495.56	2559.96
495.76	2514.91
495.96	2457.56
496.16	2334.68
496.36	2680.79
496.56	2441.18
496.77	2486.23
496.97	2475.99
497.17	2627.54
497.37	2275.29
497.57	2519.00
497.77	2504.67
497.97	2316.25
498.17	2424.80
498.37	2387.93
498.57	2625.50
498.77	2441.18
498.97	2566.10
499.17	2674.65
499.38	2490.33
499.58	2516.95
499.78	2633.69
499.98	2617.30
500.18	2490.33
500.38	2490.33
500.58	2691.03
500.78	3145.68
500.98	5439.40
501.18	7593.87
501.38	9322.35
501.58	10311.52
501.78	10137.45
501.98	8085.38
502.18	6819.74
502.38	5943.21
502.58	5382.06
502.78	4904.89
502.98	4661.18
503.18	4519.87
503.38	4046.79
503.59	3585.99
503.79	3454.92
503.99	3194.83
504.19	3037.14
504.39	3094.48
504.59	3055.57
504.79	3114.96
504.99	3205.07
505.19	2768.85
505.39	2795.48
505.59	2856.92
505.79	2856.92
505.99	2762.71
506.19	2611.16
506.39	2742.23
506.59	2584.54
506.79	2449.37
506.99	2559.96
507.19	2500.57
507.39	2543.58
507.59	2310.11
507.79	2441.18
507.99	2381.79
508.19	2502.62
508.39	2408.41
508.59	2398.17
508.79	2627.54
508.99	2684.89
509.19	2371.55
509.39	2525.15
509.59	2400.22
509.79	2435.03
509.99	2527.19
510.19	2500.57
510.39	2519.00
510.59	2514.91
510.79	2473.95
510.99	2324.44
511.19	2539.48
511.39	2652.12
511.59	2664.41
511.79	2590.68
511.99	2492.38
512.19	2697.17
512.38	2549.72
512.58	2349.02
512.78	2437.08
512.98	2605.02
513.18	2652.12
513.38	2306.01
513.58	2516.95
513.78	2523.10
513.98	2525.15
514.18	2428.89
514.38	2549.72
514.58	2529.24
514.78	2396.12
514.98	2398.17
515.18	2453.47
515.38	2375.64
515.58	2760.66
515.78	2410.46
515.98	2447.32
516.18	2562.01
516.38	2471.90
516.57	2447.32
516.77	2373.60
516.97	2547.67
517.17	2443.23
517.37	2291.68
517.57	2586.58
517.77	2525.15
517.97	2422.75
518.17	2553.82
518.37	2326.49
518.57	2435.03
518.77	2486.23
518.97	2471.90
519.16	2566.10
519.36	2572.25
519.56	2445.27
519.76	2430.94
519.96	2516.95
520.16	2613.21
520.36	2349.02
520.56	2627.54
520.76	2381.79
520.96	2482.14
521.16	2648.02
521.35	2586.58
521.55	2537.43
521.75	2467.80
521.95	2437.08
522.15	2424.80
522.35	2301.92
522.55	2414.56
522.75	2619.35
522.95	2424.80
523.14	2281.44
523.34	2506.71
523.54	2467.80
523.74	2576.34
523.94	2539.48
524.14	2344.92
524.34	2553.82
524.54	2580.44
524.73	2484.19
524.93	2543.58
525.13	2514.91
525.33	2324.44
525.53	2734.04
525.73	2531.29
525.93	2531.29
526.13	2414.56
526.32	2465.75
526.52	2596.82
526.72	2596.82
526.92	2435.03
527.12	2478.04
527.32	2310.11
527.52	2547.67
527.71	2461.66
527.91	2439.13
528.11	2471.90
528.31	2449.37
528.51	2359.26
528.71	2553.82
528.90	2484.19
529.10	2568.15
529.30	2514.91
529.50	2224.09
529.70	2572.25
529.90	2373.60
530.09	2502.62
530.29	2308.06
530.49	2422.75
530.69	2809.81
530.89	2512.86
531.09	2564.06
531.28	2457.56
531.48	2654.17
531.68	2504.67
531.88	2547.67
532.08	2580.44
532.28	2447.32
532.47	2545.63
532.67	2539.48
532.87	2527.19
533.07	2430.94
533.27	2492.38
533.46	2543.58
533.66	2533.34
533.86	2492.38
534.06	2461.66
534.26	2539.48
534.45	2457.56
534.65	2645.98
534.85	2543.58
535.05	2473.95
535.25	2643.93
535.44	2342.88
535.64	2512.86
535.84	2482.14
536.04	2398.17
536.24	2475.99
536.43	2408.41
536.63	2514.91
536.83	2486.23
537.03	2521.05
537.22	2293.72
537.42	2318.30
537.62	2484.19
537.82	2406.36
538.02	2545.63
538.21	2605.02
538.41	2979.79
538.61	2635.74
538.81	2441.18
539.00	2592.73
539.20	2324.44
539.40	2480.09
539.60	2449.37
539.79	2553.82
539.99	2545.63
540.19	2533.34
540.39	2447.32
540.58	2471.90
540.78	2605.02
540.98	2508.76
541.18	2592.73
541.37	2543.58
541.57	2492.38
541.77	2535.39
541.97	2392.03
542.16	2367.45
542.36	2465.75
542.56	2400.22
542.76	2668.50
542.95	2564.06
543.15	2570.20
543.35	2609.11
543.54	2416.60
543.74	2357.21
543.94	2691.03
544.14	2447.32
544.33	2572.25
544.53	2492.38
544.73	2514.91
544.93	2426.84
545.12	2418.65
545.32	2486.23
545.52	2459.61
545.71	2353.12
545.91	2453.47
546.11	2377.69
546.30	2299.87
546.50	2439.13
546.70	2502.62
546.90	2428.89
547.09	2316.25
547.29	2521.05
547.49	2555.86
547.68	2471.90
547.88	2422.75
548.08	2592.73
548.27	2895.83
548.47	2410.46
548.67	2400.22
548.87	2529.24
549.06	2406.36
549.26	2422.75
549.46	2584.54
549.65	2375.64
549.85	2473.95
550.05	2502.62
550.24	2289.63
550.44	2555.86
550.64	2480.09
550.83	2469.85
551.03	2760.66
551.23	2639.83
551.42	2492.38
551.62	2533.34
551.82	2514.91
552.01	2375.64
552.21	2652.12
552.41	2414.56
552.60	2662.36
552.80	2449.37
553.00	2420.70
553.19	2482.14
553.39	2662.36
553.59	2344.92
553.78	2580.44
553.98	2539.48
554.17	2441.18
554.37	2510.81
554.57	2551.77
554.76	2373.60
554.96	2449.37
555.16	2492.38
555.35	2510.81
555.55	2580.44
555.75	2514.91
555.94	2605.02
556.14	2269.15
556.33	2531.29
556.53	2531.29
556.73	2504.67
556.92	2490.33
557.12	2588.63
557.32	2770.90
557.51	2670.55
557.71	2584.54
557.90	2621.40
558.10	2652.12
558.30	2478.04
558.49	2453.47
558.69	2414.56
558.88	2559.96
559.08	2496.47
559.28	2496.47
559.47	2547.67
559.67	2629.59
559.86	2738.13
560.06	2455.51
560.26	2406.36
560.45	2572.25
560.65	2539.48
560.84	2600.92
561.04	2349.02
561.24	2527.19
561.43	2410.46
561.63	2674.65
561.82	2519.00
562.02	2633.69
562.22	2365.40
562.41	2375.64
562.61	2389.98
562.80	2404.32
563.00	2822.10
563.19	2459.61
563.39	2484.19
563.59	2512.86
563.78	2410.46
563.98	2297.82
564.17	2387.93
564.37	2273.25
564.56	2465.75
564.76	2383.84
564.96	2580.44
565.15	2564.06
565.35	2803.67
565.54	2410.46
565.74	2621.40
565.93	2512.86
566.13	2523.10
566.32	2516.95
566.52	2568.15
566.71	2568.15
566.91	2662.36
567.11	2562.01
567.30	2406.36
567.50	2545.63
567.69	2482.14
567.89	2478.04
568.08	2387.93
568.28	2490.33
568.47	2404.32
568.67	2510.81
568.86	2449.37
569.06	2621.40
569.25	2502.62
569.45	2420.70
569.64	2396.12
569.84	2500.57
570.04	2496.47
570.23	2406.36
570.43	2396.12
570.62	2494.43
570.82	2725.85
571.01	2359.26
571.21	2394.08
571.40	2383.84
571.60	2619.35
571.79	2521.05
571.99	2494.43
572.18	2414.56
572.38	2539.48
572.57	2447.32
572.77	2562.01
572.96	2768.85
573.16	2580.44
573.35	2553.82
573.55	2588.63
573.74	2514.91
573.94	2453.47
574.13	2381.79
574.33	2506.71
574.52	2676.70
574.71	2521.05
574.91	2537.43
575.10	2365.40
575.30	2488.28
575.49	2455.51
575.69	2447.32
575.88	2494.43
576.08	2535.39
576.27	2584.54
576.47	2543.58
576.66	2643.93
576.86	2744.28
577.05	2596.82
577.25	2547.67
577.44	2686.94
577.64	2424.80
577.83	2594.78
578.02	2463.71
578.22	2635.74
578.41	2717.65
578.61	2482.14
578.80	2334.68
579.00	2414.56
579.19	2553.82
579.39	2527.19
579.58	2617.30
579.77	2445.27
579.97	2709.46
580.16	2670.55
580.36	2545.63
580.55	2562.01
580.75	2605.02
580.94	2562.01
581.13	2629.59
581.33	2768.85
581.52	2553.82
581.72	2818.00
581.91	2637.78
582.11	2519.00
582.30	2572.25
582.49	2519.00
582.69	2658.26
582.88	2533.34
583.08	2459.61
583.27	2652.12
583.47	2482.14
583.66	2424.80
583.85	2396.12
584.05	2533.34
584.24	2555.86
584.44	2547.67
584.63	2635.74
584.82	2656.22
585.02	2682.84
585.21	2555.86
585.41	2678.74
585.60	2602.97
585.79	2719.70
585.99	2727.89
586.18	2666.46
586.37	3264.46
586.57	4964.28
586.76	15093.53
586.96	34442.74
587.15	48088.35
587.34	57345.17
587.54	62073.93
587.73	55979.18
587.93	39814.56
588.12	29863.48
588.31	24333.96
588.51	21221.05
588.70	19357.40
588.89	17553.14
589.09	15097.63
589.28	12908.35
589.47	10061.67
589.67	7970.69
589.86	6209.44
590.06	4603.83
590.25	3905.48
590.44	3334.09
590.64	3055.57
590.83	2887.64
591.02	2838.48
591.22	2555.86
591.41	2621.40
591.60	2547.67
591.80	2858.96
591.99	2367.45
592.18	2490.33
592.38	2709.46
592.57	2455.51
592.76	2504.67
592.96	2424.80
593.15	2469.85
593.34	2719.70
593.54	2514.91
593.73	2553.82
593.92	2598.87
594.12	2580.44
594.31	2525.15
594.50	2641.88
594.70	2619.35
594.89	2904.02
595.08	2363.36
595.28	2637.78
595.47	2965.46
595.66	2682.84
595.86	2398.17
596.05	2414.56
596.24	2482.14
596.43	2707.41
596.63	2650.07
596.82	2578.39
597.01	2592.73
597.21	2740.18
597.40	2594.78
597.59	2551.77
597.79	2504.67
597.98	2645.98
598.17	2529.24
598.36	2494.43
598.56	2586.58
598.75	2478.04
598.94	2506.71
599.14	2482.14
599.33	2469.85
599.52	2656.22
599.71	2584.54
599.91	2506.71
600.10	2570.20
600.29	2449.37
600.48	2586.58
600.68	2504.67
600.87	2535.39
601.06	2385.88
601.26	2480.09
601.45	2586.58
601.64	2521.05
601.83	2699.22
602.03	2435.03
602.22	2322.40
602.41	2670.55
602.60	2836.44
602.80	2580.44
602.99	2488.28
603.18	2467.80
603.37	2559.96
603.57	2533.34
603.76	2512.86
603.95	2701.27
604.14	2400.22
604.34	2430.94
604.53	2441.18
604.72	2586.58
604.91	2633.69
605.10	2447.32
605.30	2355.16
605.49	2758.61
605.68	2578.39
605.87	2572.25
606.07	2424.80
606.26	2500.57
606.45	2578.39
606.64	2525.15
606.84	2447.32
607.03	2523.10
607.22	2637.78
607.41	2420.70
607.60	2428.89
607.80	2631.64
607.99	2453.47
608.18	2514.91
608.37	2514.91
608.56	2422.75
608.76	2654.17
608.95	2703.32
609.14	2537.43
609.33	2734.04
609.52	2758.61
609.72	2631.64
609.91	2654.17
610.10	2547.67
610.29	2654.17
610.48	2576.34
610.68	2584.54
610.87	2519.00
611.06	2596.82
611.25	2484.19
611.44	2607.06
611.63	2506.71
611.83	2637.78
612.02	2359.26
612.21	2574.30
612.40	2328.54
612.59	2371.55
612.79	2359.26
612.98	2578.39
613.17	2654.17
613.36	2596.82
613.55	2674.65
613.74	2539.48
613.93	2625.50
614.13	2775.00
614.32	2746.33
614.51	2617.30
614.70	2619.35
614.89	2514.91
615.08	2637.78
615.28	3004.37
615.47	2475.99
615.66	2582.49
615.85	2500.57
616.04	2699.22
616.23	2461.66
616.42	2555.86
616.62	2566.10
616.81	2545.63
617.00	2541.53
617.19	2543.58
617.38	2457.56
617.57	2484.19
617.76	2668.50
617.95	2584.54
618.15	2584.54
618.34	2641.88
618.53	2381.79
618.72	2619.35
618.91	2541.53
619.10	2539.48
619.29	2482.14
619.48	2486.23
619.68	2367.45
619.87	2451.42
620.06	2349.02
620.25	2492.38
620.44	2457.56
620.63	2430.94
620.82	2496.47
621.01	2580.44
621.20	2449.37
621.39	2521.05
621.59	2600.92
621.78	2514.91
621.97	2441.18
622.16	2557.91
622.35	2592.73
622.54	2555.86
622.73	2547.67
622.92	2387.93
623.11	2619.35
623.30	2519.00
623.49	2500.57
623.68	2408.41
623.88	2715.61
624.07	2463.71
624.26	2455.51
624.45	2521.05
624.64	2467.80
624.83	2572.25
625.02	2412.51
625.21	2514.91
625.40	2557.91
625.59	2643.93
625.78	2490.33
625.97	2572.25
626.16	2666.46
626.35	2656.22
626.54	2562.01
626.74	2740.18
626.93	2435.03
627.12	2506.71
627.31	2617.30
627.50	2510.81
627.69	2551.77
627.88	2437.08
628.07	2457.56
628.26	2308.06
628.45	2400.22
628.64	2404.32
628.83	2482.14
629.02	2293.72
629.21	2566.10
629.40	2582.49
629.59	2416.60
629.78	2437.08
629.97	2564.06
630.16	2508.76
630.35	2430.94
630.54	2428.89
630.73	2422.75
630.92	2525.15
631.11	2453.47
631.30	2486.23
631.49	2576.34
631.68	2582.49
631.87	2553.82
632.06	2461.66
632.25	2764.76
632.44	2516.95
632.63	2539.48
632.82	2533.34
633.01	2543.58
633.20	2637.78
633.39	2566.10
633.58	2387.93
633.77	2596.82
633.96	2648.02
634.15	2465.75
634.34	2490.33
634.53	2498.52
634.72	2437.08
634.91	2326.49
635.10	2496.47
635.29	2645.98
635.48	2521.05
635.67	2349.02
635.86	2342.88
636.05	2719.70
636.24	2488.28
636.43	2463.71
636.62	2605.02
636.81	2215.90
637.00	2523.10
637.19	2480.09
637.38	2414.56
637.57	2441.18
637.76	2594.78
637.95	2562.01
638.14	2506.71
638.33	2572.25
638.52	2551.77
638.71	2484.19
638.89	2414.56
639.08	2887.64
639.27	2629.59
639.46	2756.57
639.65	3155.92
639.84	3209.17
640.03	3342.28
640.22	3088.34
640.41	3145.68
640.60	2807.77
640.79	2840.53
640.98	2695.13
641.17	2762.71
641.36	2775.00
641.55	2705.37
641.74	2471.90
641.92	2410.46
642.11	2441.18
642.30	2562.01
642.49	2414.56
642.68	2396.12
642.87	2549.72
643.06	2568.15
643.25	2414.56
643.44	2318.30
643.63	2426.84
643.82	2645.98
644.00	2396.12
644.19	2432.99
644.38	2361.31
644.57	2529.24
644.76	2392.03
644.95	2449.37
645.14	2516.95
645.33	2457.56
645.52	2525.15
645.71	2383.84
645.89	2400.22
646.08	2527.19
646.27	2367.45
646.46	2719.70
646.65	2314.20
646.84	2523.10
647.03	2349.02
647.22	2537.43
647.40	2441.18
647.59	2465.75
647.78	2351.07
647.97	2338.78
648.16	2422.75
648.35	2645.98
648.54	2664.41
648.73	2463.71
648.91	2605.02
649.10	2527.19
649.29	2385.88
649.48	2383.84
649.67	2514.91
649.86	2531.29
650.05	2537.43
650.23	2680.79
650.42	2547.67
650.61	2779.09
650.80	2729.94
650.99	2791.38
651.18	2637.78
651.36	2652.12
651.55	2519.00
651.74	2613.21
651.93	2500.57
652.12	2510.81
652.31	2412.51
652.49	2500.57
652.68	2506.71
652.87	2645.98
653.06	2494.43
653.25	2641.88
653.44	2551.77
653.62	2713.56
653.81	2404.32
654.00	2457.56
654.19	2588.63
654.38	2818.00
654.56	2527.19
654.75	2400.22
654.94	2625.50
655.13	2553.82
655.32	2432.99
655.51	2566.10
655.69	2463.71
655.88	2531.29
656.07	2344.92
656.26	2465.75
656.45	2365.40
656.63	2559.96
656.82	2441.18
657.01	2525.15
657.20	2482.14
657.38	2641.88
657.57	2478.04
657.76	2285.53
657.95	2586.58
658.14	2432.99
658.32	2457.56
658.51	2273.25
658.70	2465.75
658.89	2498.52
659.08	2488.28
659.26	2682.84
659.45	2410.46
659.64	2592.73
659.83	2482.14
660.01	2854.87
660.20	2541.53
660.39	2613.21
660.58	2224.09
660.76	2523.10
660.95	2365.40
661.14	2490.33
661.33	2330.59
661.51	2459.61
661.70	2449.37
661.89	2553.82
662.08	2482.14
662.26	2308.06
662.45	2412.51
662.64	2643.93
662.83	2521.05
663.01	2330.59
663.20	2359.26
663.39	2621.40
663.58	2365.40
663.76	2402.27
663.95	2656.22
664.14	2375.64
664.32	2449.37
664.51	2281.44
664.70	2252.77
664.89	2494.43
665.07	2301.92
665.26	2500.57
665.45	2310.11
665.64	2602.97
665.82	2535.39
666.01	2498.52
666.20	2365.40
666.38	2695.13
666.57	2609.11
666.76	3940.29
666.95	9434.99
667.13	17839.86
667.32	23013.02
667.51	26214.00
667.69	28077.65
667.88	24551.05
668.07	17493.75
668.25	14223.14
668.44	11878.22
668.63	10481.50
668.81	9269.11
669.00	7946.12
669.19	7212.95
669.38	6080.42
669.56	5287.86
669.75	4407.23
669.94	3749.83
670.12	3266.51
670.31	2992.08
670.50	2869.20
670.68	2770.90
670.87	2637.78
671.06	2527.19
671.24	2541.53
671.43	2744.28
671.62	2594.78
671.80	2457.56
671.99	2555.86
672.18	2488.28
672.36	2572.25
672.55	2549.72
672.74	2478.04
672.92	2432.99
673.11	2592.73
673.29	2355.16
673.48	2613.21
673.67	2394.08
673.85	2627.54
674.04	2371.55
674.23	2465.75
674.41	2717.65
674.60	2387.93
674.79	2306.01
674.97	2410.46
675.16	2559.96
675.34	2654.17
675.53	2418.65
675.72	2498.52
675.90	2791.38
676.09	2496.47
676.28	2414.56
676.46	2293.72
676.65	2551.77
676.83	2322.40
677.02	2473.95
677.21	2506.71
677.39	2514.91
677.58	2353.12
677.77	2441.18
677.95	2326.49
678.14	2441.18
678.32	2447.32
678.51	2334.68
678.70	2666.46
678.88	2459.61
679.07	2394.08
679.25	2465.75
679.44	2496.47
679.63	2461.66
679.81	2572.25
680.00	2623.45
680.18	2600.92
680.37	2654.17
680.55	2523.10
680.74	2299.87
680.93	2355.16
681.11	2496.47
681.30	2519.00
681.48	2592.73
681.67	2482.14
681.85	2385.88
682.04	2396.12
682.23	2527.19
682.41	2504.67
682.60	2478.04
682.78	2584.54
682.97	2383.84
683.15	2439.13
683.34	2519.00
683.53	2740.18
683.71	2365.40
683.90	2645.98
684.08	2742.23
684.27	2490.33
684.45	2502.62
684.64	2600.92
684.82	2441.18
685.01	2514.91
685.19	2439.13
685.38	2707.41
685.57	2527.19
685.75	2449.37
685.94	2383.84
686.12	2289.63
686.31	2439.13
686.49	2672.60
686.68	2203.61
686.86	2486.23
687.05	2414.56
687.23	2641.88
687.42	2377.69
687.60	2342.88
687.79	2633.69
687.97	2662.36
688.16	2617.30
688.34	2627.54
688.53	2293.72
688.71	2615.26
688.90	2617.30
689.08	2471.90
689.27	2297.82
689.45	2541.53
689.64	2557.91
689.82	2586.58
690.01	2494.43
690.19	2508.76
690.38	2408.41
690.56	2564.06
690.75	2404.32
690.93	2424.80
691.12	2414.56
691.30	2506.71
691.49	2449.37
691.67	2453.47
691.86	2756.57
692.04	2457.56
692.23	2447.32
692.41	2547.67
692.60	2768.85
692.78	2629.59
692.97	2570.20
693.15	2658.26
693.34	2699.22
693.52	2545.63
693.71	2455.51
693.89	2447.32
694.08	2389.98
694.26	2521.05
694.44	2576.34
694.63	2680.79
694.81	2377.69
695.00	2441.18
695.18	2672.60
695.37	2775.00
695.55	2521.05
695.74	2359.26
695.92	2402.27
696.10	2674.65
696.29	2373.60
696.47	2402.27
696.66	2371.55
696.84	2414.56
697.03	2523.10
697.21	2676.70
697.40	3784.65
697.58	2588.63
697.76	2441.18
697.95	2389.98
698.13	2359.26
698.32	2416.60
698.50	2498.52
698.68	2504.67
698.87	2506.71
699.05	2656.22
699.24	2465.75
699.42	2408.41
699.61	2519.00
699.79	2502.62
699.97	2506.71
700.16	2351.07
700.34	2389.98
700.53	2447.32
700.71	2650.07
700.89	2609.11
701.08	2414.56
701.26	2494.43
701.45	2955.22
701.63	2404.32
701.81	2422.75
702.00	2383.84
702.18	2504.67
702.37	2437.08
702.55	2740.18
702.73	2719.70
702.92	2568.15
703.10	2805.72
703.28	2731.99
703.47	2471.90
703.65	2789.33
703.84	2639.83
704.02	2533.34
704.20	2658.26
704.39	2453.47
704.57	2490.33
704.75	2645.98
704.94	2678.74
705.12	2541.53
705.30	2867.16
705.49	5642.15
705.67	12721.98
705.86	20887.23
706.04	24542.86
706.22	27754.07
706.41	28069.46
706.59	22976.16
706.77	16369.41
706.96	14165.80
707.14	12463.94
707.32	10573.66
707.51	9463.66
707.69	7606.16
707.87	6172.58
708.06	4935.60
708.24	4192.19
708.42	3424.20
708.61	3243.98
708.79	2695.13
708.97	2666.46
709.16	2654.17
709.34	2609.11
709.52	2482.14
709.71	2496.47
709.89	2543.58
710.07	2455.51
710.26	2349.02
710.44	2504.67
710.62	2543.58
710.80	2447.32
710.99	2547.67
711.17	2557.91
711.35	2557.91
711.54	2428.89
711.72	2535.39
711.90	2502.62
712.09	2535.39
712.27	2480.09
712.45	2531.29
712.63	2416.60
712.82	2445.27
713.00	2420.70
713.18	2537.43
713.37	2564.06
713.55	2641.88
713.73	2535.39
713.91	2502.62
714.10	2367.45
714.28	2437.08
714.46	2486.23
714.65	2475.99
714.83	2490.33
715.01	2486.23
715.19	2580.44
715.38	2449.37
715.56	2545.63
715.74	2369.50
715.92	2359.26
716.11	2645.98
716.29	2236.38
716.47	2473.95
716.65	2488.28
716.84	2332.64
717.02	2555.86
717.20	2301.92
717.38	2432.99
717.57	2478.04
717.75	2478.04
717.93	2420.70
718.11	2537.43
718.30	2310.11
718.48	2455.51
718.66	2625.50
718.84	2609.11
719.03	2480.09
719.21	2316.25
719.39	2711.51
719.57	2547.67
719.75	2580.44
719.94	2432.99
720.12	2465.75
720.30	2490.33
720.48	2568.15
720.67	2396.12
720.85	2437.08
721.03	2471.90
721.21	2355.16
721.39	2559.96
721.58	2566.10
721.76	2455.51
721.94	2521.05
722.12	2586.58
722.30	2666.46
722.49	2432.99
722.67	2564.06
722.85	2486.23
723.03	2332.64
723.21	2383.84
723.40	2490.33
723.58	2637.78
723.76	2578.39
723.94	2717.65
724.12	2588.63
724.30	2736.09
724.49	2645.98
724.67	2381.79
724.85	2650.07
725.03	2396.12
725.21	2566.10
725.40	2598.87
725.58	2441.18
725.76	2557.91
725.94	2543.58
726.12	2334.68
726.30	2473.95
726.49	2418.65
726.67	2396.12
726.85	2590.68
727.03	2912.21
727.21	4149.18
727.39	5865.38
727.57	6653.85
727.76	7493.52
727.94	7618.44
728.12	7018.39
728.30	5601.19
728.48	4992.95
728.66	4540.35
728.84	4138.94
729.03	3579.85
729.21	3276.75
729.39	3049.43
729.57	2772.95
729.75	2584.54
729.93	2598.87
730.11	2514.91
730.30	2451.42
730.48	2471.90
730.66	2576.34
730.84	2549.72
731.02	2545.63
731.20	2363.36
731.38	2461.66
731.56	2373.60
731.74	2349.02
731.93	2473.95
732.11	2414.56
732.29	2455.51
732.47	2586.58
732.65	2457.56
732.83	2588.63
733.01	2555.86
733.19	2424.80
733.37	2449.37
733.56	2512.86
733.74	2357.21
733.92	2691.03
734.10	2441.18
734.28	2443.23
734.46	2267.10
734.64	2453.47
734.82	2506.71
735.00	2373.60
735.18	2408.41
735.36	2494.43
735.54	2475.99
735.73	2480.09
735.91	2537.43
736.09	2592.73
736.27	2486.23
736.45	2514.91
736.63	2215.90
736.81	2383.84
736.99	2521.05
737.17	2592.73
737.35	2400.22
737.53	2488.28
737.71	2498.52
737.89	2613.21
738.07	2324.44
738.25	2402.27
738.43	2244.57
738.61	2459.61
738.80	2330.59
738.98	2379.74
739.16	2420.70
739.34	2389.98
739.52	2602.97
739.70	2414.56
739.88	2529.24
740.06	2523.10
740.24	2291.68
740.42	2629.59
740.60	2322.40
740.78	2424.80
740.96	2303.96
741.14	2469.85
741.32	2611.16
741.50	2283.49
741.68	2777.05
741.86	2693.08
742.04	2494.43
742.22	2349.02
742.40	2432.99
742.58	2586.58
742.76	2408.41
742.94	2621.40
743.12	2299.87
743.30	2480.09
743.48	2576.34
743.66	2373.60
743.84	2465.75
744.02	2457.56
744.20	2541.53
744.38	2410.46
744.56	2383.84
744.74	2682.84
744.92	2531.29
745.10	2609.11
745.28	2547.67
745.46	2682.84
745.64	2414.56
745.82	2586.58
746.00	2420.70
746.18	2582.49
746.36	2396.12
746.54	2502.62
746.72	2469.85
746.90	2346.97
747.08	2607.06
747.26	2437.08
747.44	2590.68
747.62	2551.77
747.80	2506.71
747.98	2527.19
748.15	2469.85
748.33	2711.51
748.51	2482.14
748.69	2590.68
748.87	2416.60
749.05	2533.34
749.23	2500.57
749.41	2424.80
749.59	2392.03
749.77	2607.06
749.95	2422.75
750.13	2402.27
750.31	2480.09
750.49	2459.61
750.67	2557.91
750.85	2666.46
751.03	2449.37
751.20	2711.51
751.38	2455.51
751.56	2365.40
751.74	2480.09
751.92	2527.19
752.10	2357.21
752.28	2586.58
752.46	2398.17
752.64	2416.60
752.82	2437.08
753.00	2506.71
753.18	2387.93
753.35	2521.05
753.53	2551.77
753.71	2420.70
753.89	2494.43
754.07	2543.58
754.25	2605.02
754.43	2508.76
754.61	2367.45
754.79	2596.82
754.97	2482.14
755.14	2578.39
755.32	2287.58
755.50	2545.63
755.68	2467.80
755.86	2375.64
756.04	2351.07
756.22	2181.09
756.40	2582.49
756.57	2705.37
756.75	2404.32
756.93	2695.13
757.11	2568.15
757.29	2469.85
757.47	2369.50
757.65	2271.20
757.82	2248.67
758.00	2469.85
758.18	2428.89
758.36	2332.64
758.54	2633.69
758.72	2306.01
758.90	2525.15
759.07	2502.62
759.25	2340.83
759.43	2430.94
759.61	2367.45
759.79	3444.68
759.97	2566.10
760.15	2457.56
760.32	2473.95
760.50	2455.51
760.68	2711.51
760.86	2375.64
761.04	2564.06
761.22	2596.82
761.39	2541.53
761.57	2576.34
761.75	2469.85
761.93	2568.15
762.11	2519.00
762.28	2498.52
762.46	2383.84
762.64	2572.25
762.82	2281.44
763.00	2449.37
763.18	2578.39
763.35	2275.29
763.53	2578.39
763.71	2416.60
763.89	2473.95
764.07	2574.30
764.24	2418.65
764.42	2535.39
764.60	2463.71
764.78	2566.10
764.96	2584.54
765.13	2551.77
765.31	2402.27
765.49	2498.52
765.67	2349.02
765.84	2375.64
766.02	2353.12
766.20	2306.01
766.38	2500.57
766.56	2582.49
766.73	2553.82
766.91	2457.56
767.09	2439.13
767.27	2551.77
767.44	2336.73
767.62	2496.47
767.80	2502.62
767.98	2389.98
768.15	2363.36
768.33	2592.73
768.51	2582.49
768.69	2482.14
768.87	2463.71
769.04	2545.63
769.22	2820.05
769.40	2699.22
769.58	2650.07
769.75	2523.10
769.93	2635.74
770.11	2490.33
770.28	2402.27
770.46	2564.06
770.64	2498.52
770.82	2447.32
770.99	2435.03
771.17	2658.26
771.35	2467.80
771.53	2392.03
771.70	2373.60
771.88	2490.33
772.06	2453.47
772.23	2400.22
772.41	2502.62
772.59	2482.14
772.77	2392.03
772.94	2424.80
773.12	2447.32
773.30	2373.60
773.47	2430.94
773.65	2469.85
773.83	2621.40
774.01	2418.65
774.18	2293.72
774.36	2375.64
774.54	2318.30
774.71	2516.95
774.89	2342.88
775.07	2373.60
775.24	2394.08
775.42	2406.36
775.60	2721.75
775.78	2422.75
775.95	2326.49
776.13	2342.88
776.31	2293.72
776.48	2473.95
776.66	2596.82
776.84	2441.18
777.01	2392.03
777.19	2367.45
777.37	2400.22
777.54	2590.68
777.72	2736.09
777.90	2471.90
778.07	2420.70
778.25	2920.40
778.43	2660.31
778.60	2422.75
778.78	2545.63
778.96	2596.82
779.13	2324.44
779.31	2537.43
779.49	2416.60
779.66	2541.53
779.84	2400.22
780.01	2453.47
780.19	2365.40
780.37	2658.26
780.54	2506.71
780.72	2396.12
780.90	2486.23
781.07	2432.99
781.25	2410.46
781.43	2588.63
781.60	2424.80
781.78	2639.83
781.95	2443.23
782.13	2363.36
782.31	2467.80
782.48	2277.34
782.66	2500.57
782.83	2668.50
783.01	2482.14
783.19	2586.58
783.36	2367.45
783.54	2289.63
783.72	2611.16
783.89	2412.51
784.07	2498.52
784.24	2504.67
784.42	2707.41
784.60	2527.19
784.77	2457.56
784.95	2277.34
785.12	2416.60
785.30	2471.90
785.47	2387.93
785.65	2404.32
785.83	2453.47
786.00	2416.60
786.18	2498.52
786.35	2346.97
786.53	2346.97
786.71	2545.63
786.88	2562.01
787.06	2486.23
787.23	2471.90
787.41	2363.36
787.58	2459.61
787.76	2392.03
787.94	2543.58
788.11	2502.62
788.29	2314.20
788.46	2426.84
788.64	2367.45
788.81	2453.47
788.99	2381.79
789.16	2377.69
789.34	2392.03
789.52	2443.23
789.69	2455.51
789.87	2254.81
790.04	2459.61
790.22	2494.43
790.39	2758.61
790.57	2351.07
790.74	2346.97
790.92	2650.07
791.09	2277.34
791.27	2484.19
791.44	2562.01
791.62	2527.19
791.79	2586.58
791.97	2398.17
792.15	2758.61
792.32	2478.04
792.50	2523.10
792.67	2678.74
792.85	2666.46
793.02	2482.14
793.20	2506.71
793.37	2396.12
793.55	2416.60
793.72	2396.12
793.90	2516.95
794.07	2355.16
794.25	2359.26
794.42	2506.71
794.60	2439.13
794.77	2539.48
794.95	2568.15
795.12	2623.45
795.30	2447.32
795.47	2258.91
795.65	2783.19
795.82	2564.06
796.00	2342.88
796.17	2455.51
796.34	2375.64
796.52	2527.19
796.69	2547.67
796.87	2539.48
797.04	2471.90
797.22	2572.25
797.39	2531.29
797.57	2596.82
797.74	2432.99
797.92	2539.48
798.09	2359.26
798.27	2605.02
798.44	2473.95
798.62	2420.70
798.79	2506.71
798.96	2412.51
799.14	2461.66
799.31	2793.43
799.49	2492.38
799.66	2383.84
799.84	2559.96
800.01	2318.30
800.19	2424.80
800.36	2258.91
800.53	2465.75
800.71	2570.20
800.88	2715.61
801.06	2475.99
801.23	2408.41
801.41	2367.45
801.58	2435.03
801.75	2439.13
801.93	2459.61
802.10	2539.48
802.28	2461.66
802.45	2430.94
802.63	2539.48
802.80	2607.06
802.97	2338.78
803.15	2404.32
803.32	2486.23
803.50	2430.94
803.67	2387.93
803.84	2285.53
804.02	2498.52
804.19	2430.94
804.37	2250.72
804.54	2389.98
804.71	2379.74
804.89	2416.60
805.06	2432.99
805.24	2369.50
805.41	2279.39
805.58	2392.03
805.76	2617.30
805.93	2445.27
806.10	2588.63
806.28	2629.59
806.45	2525.15
806.63	2441.18
806.80	2478.04
806.97	2555.86
807.15	2568.15
807.32	2506.71
807.49	2521.05
807.67	2371.55
807.84	2465.75
808.01	2308.06
808.19	2625.50
808.36	2772.95
808.54	2432.99
808.71	2342.88
808.88	2484.19
809.06	2535.39
809.23	2768.85
809.40	2414.56
809.58	2428.89
809.75	2424.80
809.92	2373.60
810.10	2695.13
810.27	2428.89
810.44	2527.19
810.62	2600.92
810.79	2568.15
810.96	2324.44
811.14	2416.60
811.31	2514.91
811.48	2484.19
811.66	2443.23
811.83	2609.11
812.00	2637.78
812.18	2506.71
812.35	2738.13
812.52	2449.37
812.69	2416.60
812.87	2441.18
813.04	2412.51
813.21	2461.66
813.39	2469.85
813.56	2392.03
813.73	2586.58
813.91	2236.38
814.08	2539.48
814.25	2529.24
814.42	2265.05
814.60	2457.56
814.77	2502.62
814.94	2437.08
815.12	2471.90
815.29	2715.61
815.46	2351.07
815.63	2461.66
815.81	2449.37
815.98	2480.09
816.15	2457.56
816.33	2463.71
816.50	2455.51
816.67	2449.37
816.84	2490.33
817.02	2316.25
817.19	2420.70
817.36	2512.86
817.53	2586.58
817.71	2430.94
817.88	2451.42
818.05	2453.47
818.22	2396.12
818.40	2559.96
818.57	2416.60
818.74	2588.63
818.91	2406.36
819.09	2527.19
819.26	2527.19
819.43	2406.36
819.60	2408.41
819.78	2510.81
819.95	2539.48
820.12	2367.45
820.29	2715.61
820.47	2588.63
820.64	2471.90
820.81	2297.82
820.98	2428.89
821.15	2439.13
821.33	2467.80
821.50	2308.06
821.67	2508.76
821.84	2439.13
822.02	2412.51
822.19	2553.82
822.36	2396.12
822.53	2367.45
822.70	2344.92
822.88	2514.91
823.05	2654.17
823.22	2453.47
823.39	2471.90
823.56	2506.71
823.74	2723.80
823.91	2291.68
824.08	2269.15
824.25	2306.01
824.42	2682.84
824.60	2267.10
824.77	2516.95
824.94	2459.61
825.11	2619.35
825.28	2293.72
825.45	2502.62
825.63	2453.47
825.80	2394.08
825.97	2553.82
826.14	2359.26
826.31	2314.20
826.48	2506.71
826.66	2306.01
826.83	2435.03
827.00	2342.88
827.17	2377.69
827.34	2392.03
827.51	2453.47
827.69	2496.47
827.86	2342.88
828.03	2490.33
828.20	2508.76
828.37	2469.85
828.54	2580.44
828.71	2326.49
828.89	2578.39
829.06	2562.01
829.23	2637.78
829.40	2392.03
829.57	2375.64
829.74	2559.96
829.91	2396.12
830.09	2375.64
830.26	2512.86
830.43	2650.07
830.60	2400.22
830.77	2521.05
830.94	2652.12
831.11	2588.63
831.28	2455.51
831.46	2506.71
831.63	2500.57
831.80	2643.93
831.97	2334.68
832.14	2375.64
832.31	2533.34
832.48	2437.08
832.65	2547.67
832.82	2449.37
832.99	2500.57
833.17	2359.26
833.34	2666.46
833.51	2549.72
833.68	2242.53
833.85	2613.21
834.02	2365.40
834.19	2351.07
834.36	2318.30
834.53	2514.91
834.70	2551.77
834.87	2506.71
835.04	2312.16
835.22	2381.79
835.39	2408.41
835.56	2342.88
835.73	2357.21
835.90	2590.68
836.07	2355.16
836.24	2459.61
836.41	2355.16
836.58	2449.37
836.75	2584.54
836.92	2510.81
837.09	2318.30
837.26	2576.34
837.43	2555.86
837.60	2439.13
837.77	2408.41
837.94	2547.67
838.12	2590.68
838.29	2324.44
838.46	2260.96
838.63	2308.06
838.80	2697.17
838.97	2473.95
839.14	2385.88
839.31	2492.38
839.48	2510.81
839.65	2422.75
839.82	2482.14
839.99	2531.29
840.16	2559.96
840.33	2351.07
840.50	2412.51
840.67	2361.31
840.84	2191.33
841.01	2435.03
841.18	2240.48
841.35	2490.33
841.52	2570.20
841.69	2621.40
841.86	2332.64
842.03	2512.86
842.20	2521.05
842.37	2408.41
842.54	2359.26
842.71	2473.95
842.88	2301.92
843.05	2416.60
843.22	2428.89
843.39	2584.54
843.56	2439.13
843.73	2410.46
843.90	2424.80
844.07	2441.18
844.24	2506.71
844.41	2510.81
844.58	2422.75
844.75	2435.03
844.92	2478.04
845.09	2375.64
845.26	2357.21
845.43	2463.71
845.60	2430.94
845.77	2494.43
845.94	2377.69
846.10	2635.74
846.27	2209.76
846.44	2318.30
846.61	2324.44
846.78	2547.67
846.95	2596.82
847.12	2435.03
847.29	2351.07
847.46	2338.78
847.63	2430.94
847.80	2349.02
847.97	2369.50
848.14	2744.28
848.31	2392.03
848.48	2248.67
848.65	2410.46
848.82	2428.89
848.98	2820.05
849.15	2439.13
849.32	2531.29
849.49	2562.01
849.66	2441.18
849.83	2396.12
850.00	2260.96
850.17	2602.97
850.34	2400.22
850.51	2338.78
850.68	2424.80
850.85	2715.61
851.01	2523.10
851.18	2379.74
851.35	2424.80
851.52	2539.48
851.69	2701.27
851.86	2267.10
852.03	2312.16
852.20	2510.81
852.37	2408.41
852.53	2260.96
852.70	2392.03
852.87	2475.99
853.04	2506.71
853.21	2416.60
853.38	2523.10
853.55	2580.44
853.72	2617.30
853.89	2334.68
854.05	2338.78
854.22	2453.47
854.39	2486.23
854.56	2424.80
854.73	2527.19
854.90	2367.45
855.07	2475.99
855.23	2320.35
855.40	2371.55
855.57	2396.12
855.74	2226.14
855.91	2584.54
856.08	2308.06
856.25	2312.16
856.41	2408.41
856.58	2385.88
856.75	2310.11
856.92	2385.88
857.09	2535.39
857.26	2244.57
857.42	2373.60
857.59	2529.24
857.76	2492.38
857.93	2396.12
858.10	2445.27
858.27	2316.25
858.43	2492.38
858.60	2283.49
858.77	2293.72
858.94	2361.31
859.11	2559.96
859.27	2353.12
859.44	2404.32
859.61	2711.51
859.78	2516.95
859.95	2441.18
860.12	2387.93
860.28	2715.61
860.45	2674.65
860.62	2392.03
860.79	2439.13
860.95	2510.81
861.12	2308.06
861.29	2383.84
861.46	2320.35
861.63	2449.37
861.79	2516.95
861.96	2373.60
862.13	2342.88
862.30	2539.48
862.47	2398.17
862.63	2252.77
862.80	2574.30
862.97	2664.41
863.14	2541.53
863.30	2445.27
863.47	2308.06
863.64	2660.31
863.81	2545.63
863.97	2310.11
864.14	2441.18
864.31	2461.66
864.48	2504.67
864.65	2422.75
864.81	2506.71
864.98	2525.15
865.15	2490.33
865.32	2473.95
865.48	2488.28
865.65	2605.02
865.82	2375.64
865.98	2469.85
866.15	2351.07
866.32	2451.42
866.49	2420.70
866.65	2480.09
866.82	2334.68
866.99	2445.27
867.16	2326.49
867.32	2367.45
867.49	2359.26
867.66	2488.28
867.83	2435.03
867.99	2308.06
868.16	2400.22
868.33	2346.97
868.49	2478.04
868.66	2406.36
868.83	2439.13
868.99	2430.94
869.16	2486.23
869.33	2443.23
869.50	2449.37
869.66	2465.75
869.83	2480.09
870.00	2346.97
870.16	2478.04
870.33	2480.09
870.50	2539.48
870.66	2478.04
870.83	2471.90
871.00	2494.43
871.17	2473.95
871.33	2506.71
871.50	2435.03
871.67	2471.90
871.83	2316.25
872.00	2541.53
872.17	2346.97
872.33	2666.46
872.50	2553.82
872.67	2414.56
872.83	2328.54
873.00	2457.56
873.17	2424.80
873.33	2441.18
873.50	2355.16
873.67	2385.88
873.83	2353.12
874.00	2377.69
874.16	2539.48
874.33	2586.58
874.50	2301.92
874.66	2392.03
874.83	2514.91
875.00	2580.44
875.16	2600.92
875.33	2496.47
875.50	2228.19
875.66	2396.12
875.83	2539.48
875.99	2465.75
876.16	2406.36
876.33	2303.96
876.49	2441.18
876.66	2432.99
876.83	2480.09
876.99	2269.15
877.16	2461.66
877.32	2367.45
877.49	2326.49
877.66	2447.32
877.82	2578.39
877.99	2408.41
878.15	2584.54
878.32	2482.14
878.49	2414.56
878.65	2351.07
878.82	2576.34
878.98	2424.80
879.15	2482.14
879.32	2512.86
879.48	2543.58
879.65	2416.60
879.81	2502.62
879.98	2361.31
880.15	2400.22
880.31	2576.34
880.48	2404.32
880.64	2498.52
880.81	2453.47
880.97	2668.50
881.14	2631.64
881.31	2363.36
881.47	2553.82
881.64	2363.36
881.80	2338.78
881.97	2486.23
882.13	2414.56
882.30	2326.49
882.47	2383.84
882.63	2367.45
882.80	2271.20
882.96	2426.84
883.13	2594.78
883.29	2349.02
883.46	2338.78
883.62	2699.22
883.79	2447.32
883.95	2471.90
884.12	2408.41
884.29	2580.44
884.45	2387.93
884.62	2424.80
884.78	2289.63
884.95	2744.28
885.11	2287.58
885.28	2473.95
885.44	2402.27
885.61	2547.67
885.77	2580.44
885.94	2541.53
886.10	2400.22
886.27	2519.00
886.43	2686.94
886.60	2457.56
886.76	2439.13
886.93	2400.22
887.09	2539.48
887.26	2301.92
887.42	2432.99
887.59	2478.04
887.75	2815.96
887.92	2531.29
888.08	2592.73
888.25	2760.66
888.41	2545.63
888.58	2504.67
888.74	2336.73
888.91	2414.56
>>>>>End Processed Spectral Data<<<<<
