SpectraSuite Data File
++++++++++++++++++++++++++++++++++++
Date: Thu May 05 14:41:34 CEST 2016
User: root
Dark Spectrum Present: No
Reference Spectrum Present: No
Number of Sampled Component Spectra: 1
Spectrometers: USB4C02835
Integration Time (usec): 100000 (USB4C02835)
Spectra Averaged: 1 (USB4C02835)
Boxcar Smoothing: 0 (USB4C02835)
Correct for Electrical Dark: No (USB4C02835)
Strobe/Lamp Enabled: No (USB4C02835)
Correct for Detector Non-linearity: No (USB4C02835)
Correct for Stray Light: No (USB4C02835)
Number of Pixels in Processed Spectrum: 3648
>>>>>Begin Processed Spectral Data<<<<<
177.47	1927.14
177.69	1927.14
177.91	1927.14
178.13	1884.13
178.36	1988.58
178.58	2381.79
178.80	2428.89
179.02	2316.25
179.24	2293.72
179.46	2334.68
179.68	2373.60
179.90	2496.47
180.13	2469.85
180.35	2222.05
180.57	2301.92
180.79	2490.33
181.01	2498.52
181.23	2387.93
181.45	2453.47
181.67	2582.49
181.90	2555.86
182.12	2389.98
182.34	2183.13
182.56	2482.14
182.78	2572.25
183.00	2314.20
183.22	2351.07
183.44	2289.63
183.66	2752.47
183.89	2502.62
184.11	2400.22
184.33	2572.25
184.55	2537.43
184.77	2320.35
184.99	2387.93
185.21	2373.60
185.43	2785.24
185.65	2228.19
185.87	2342.88
186.10	2721.75
186.32	2662.36
186.54	2445.27
186.76	2426.84
186.98	2650.07
187.20	2453.47
187.42	2328.54
187.64	2379.74
187.86	2514.91
188.08	2641.88
188.30	2217.95
188.52	2437.08
188.75	2602.97
188.97	2627.54
189.19	2355.16
189.41	2355.16
189.63	2514.91
189.85	2373.60
190.07	2267.10
190.29	2228.19
190.51	2547.67
190.73	2293.72
190.95	2469.85
191.17	2357.21
191.39	2332.64
191.61	2541.53
191.84	2351.07
192.06	2457.56
192.28	2324.44
192.50	2785.24
192.72	2412.51
192.94	2400.22
193.16	2643.93
193.38	2484.19
193.60	2314.20
193.82	2408.41
194.04	2654.17
194.26	2445.27
194.48	2404.32
194.70	2316.25
194.92	2383.84
195.14	2535.39
195.36	2361.31
195.58	2344.92
195.80	2422.75
196.02	2420.70
196.24	2242.53
196.46	2430.94
196.69	2398.17
196.91	2809.81
197.13	2441.18
197.35	2289.63
197.57	2664.41
197.79	2514.91
198.01	2404.32
198.23	2402.27
198.45	2473.95
198.67	2318.30
198.89	2303.96
199.11	2449.37
199.33	2381.79
199.55	2234.33
199.77	2375.64
199.99	2510.81
200.21	2441.18
200.43	2498.52
200.65	2314.20
200.87	2185.18
201.09	2457.56
201.31	2488.28
201.53	2373.60
201.75	2435.03
201.97	2506.71
202.19	2490.33
202.41	2342.88
202.63	2525.15
202.85	2588.63
203.07	2545.63
203.29	2353.12
203.51	2287.58
203.73	2373.60
203.95	2828.24
204.17	2367.45
204.39	2363.36
204.61	2408.41
204.83	2447.32
205.05	2506.71
205.27	2414.56
205.49	2826.20
205.71	2529.24
205.93	2220.00
206.15	2277.34
206.37	2551.77
206.59	2435.03
206.81	2228.19
207.03	2342.88
207.25	2379.74
207.47	2498.52
207.69	2420.70
207.91	2519.00
208.13	2672.60
208.34	2385.88
208.56	2289.63
208.78	2324.44
209.00	2467.80
209.22	2400.22
209.44	2375.64
209.66	2342.88
209.88	2471.90
210.10	2473.95
210.32	2400.22
210.54	2426.84
210.76	2471.90
210.98	2510.81
211.20	2226.14
211.42	2449.37
211.64	2629.59
211.86	2490.33
212.08	2410.46
212.30	2383.84
212.52	2408.41
212.74	2537.43
212.96	2439.13
213.17	2437.08
213.39	2557.91
213.61	2635.74
213.83	2330.59
214.05	2455.51
214.27	2568.15
214.49	2353.12
214.71	2250.72
214.93	2490.33
215.15	2461.66
215.37	2570.20
215.59	2181.09
215.81	2471.90
216.03	2562.01
216.24	2453.47
216.46	2310.11
216.68	2389.98
216.90	2537.43
217.12	2619.35
217.34	2338.78
217.56	2453.47
217.78	2711.51
218.00	2584.54
218.22	2365.40
218.44	2379.74
218.66	2445.27
218.87	2750.42
219.09	2338.78
219.31	2379.74
219.53	2519.00
219.75	2457.56
219.97	2338.78
220.19	2301.92
220.41	2482.14
220.63	2717.65
220.85	2430.94
221.06	2340.83
221.28	2648.02
221.50	2566.10
221.72	2383.84
221.94	2316.25
222.16	2533.34
222.38	2564.06
222.60	2371.55
222.82	2363.36
223.03	2514.91
223.25	2404.32
223.47	2375.64
223.69	2588.63
223.91	2660.31
224.13	2568.15
224.35	2222.05
224.57	2455.51
224.78	2613.21
225.00	2361.31
225.22	2416.60
225.44	2295.77
225.66	2572.25
225.88	2398.17
226.10	2402.27
226.32	2396.12
226.53	2590.68
226.75	2387.93
226.97	2394.08
227.19	2310.11
227.41	2482.14
227.63	2357.21
227.85	2258.91
228.06	2351.07
228.28	2535.39
228.50	2619.35
228.72	2226.14
228.94	2303.96
229.16	2267.10
229.37	2389.98
229.59	2324.44
229.81	2490.33
230.03	2400.22
230.25	2291.68
230.47	2291.68
230.69	2299.87
230.90	2549.72
231.12	2373.60
231.34	2465.75
231.56	2412.51
231.78	2285.53
232.00	2572.25
232.21	2269.15
232.43	2377.69
232.65	2201.57
232.87	2439.13
233.09	2312.16
233.30	2306.01
233.52	2629.59
233.74	2457.56
233.96	2326.49
234.18	2424.80
234.40	2541.53
234.61	2787.29
234.83	2236.38
235.05	2338.78
235.27	2885.59
235.49	2613.21
235.70	2349.02
235.92	2426.84
236.14	2463.71
236.36	2758.61
236.58	2242.53
236.79	2475.99
237.01	2430.94
237.23	2496.47
237.45	2539.48
237.67	2334.68
237.88	2482.14
238.10	2691.03
238.32	2297.82
238.54	2353.12
238.76	2437.08
238.97	2342.88
239.19	2338.78
239.41	2463.71
239.63	2631.64
239.85	2469.85
240.06	2314.20
240.28	2316.25
240.50	2582.49
240.72	2453.47
240.93	2355.16
241.15	2422.75
241.37	2496.47
241.59	2629.59
241.81	2254.81
242.02	2375.64
242.24	2449.37
242.46	2562.01
242.68	2254.81
242.89	2375.64
243.11	2652.12
243.33	2461.66
243.55	2389.98
243.76	2500.57
243.98	2338.78
244.20	2506.71
244.42	2383.84
244.64	2369.50
244.85	2281.44
245.07	2324.44
245.29	2318.30
245.51	2318.30
245.72	2586.58
245.94	2643.93
246.16	2283.49
246.38	2402.27
246.59	2381.79
246.81	2396.12
247.03	2285.53
247.24	2217.95
247.46	2439.13
247.68	2535.39
247.90	2269.15
248.11	2412.51
248.33	2545.63
248.55	2516.95
248.77	2471.90
248.98	2449.37
249.20	2619.35
249.42	2512.86
249.64	2367.45
249.85	2338.78
250.07	2445.27
250.29	2553.82
250.50	2430.94
250.72	2252.77
250.94	2506.71
251.16	2777.05
251.37	2375.64
251.59	2375.64
251.81	2539.48
252.02	2627.54
252.24	2301.92
252.46	2465.75
252.68	2392.03
252.89	2465.75
253.11	2242.53
253.33	2512.86
253.54	2701.27
253.76	2332.64
253.98	2353.12
254.20	2285.53
254.41	2359.26
254.63	2478.04
254.85	2244.57
255.06	2424.80
255.28	2555.86
255.50	2383.84
255.71	2291.68
255.93	2287.58
256.15	2457.56
256.36	2605.02
256.58	2236.38
256.80	2383.84
257.02	2480.09
257.23	2424.80
257.45	2385.88
257.67	2430.94
257.88	2383.84
258.10	2521.05
258.32	2271.20
258.53	2369.50
258.75	2645.98
258.97	2340.83
259.18	2318.30
259.40	2379.74
259.62	2691.03
259.83	2686.94
260.05	2375.64
260.27	2783.19
260.48	2631.64
260.70	2359.26
260.92	2271.20
261.13	2379.74
261.35	2557.91
261.57	2439.13
261.78	2201.57
262.00	2297.82
262.22	2578.39
262.43	2379.74
262.65	2389.98
262.86	2416.60
263.08	2752.47
263.30	2531.29
263.51	2236.38
263.73	2232.29
263.95	2627.54
264.16	2398.17
264.38	2281.44
264.60	2299.87
264.81	2400.22
265.03	2578.39
265.25	2568.15
265.46	2373.60
265.68	2623.45
265.89	2639.83
266.11	2271.20
266.33	2371.55
266.54	2678.74
266.76	2502.62
266.98	2441.18
267.19	2482.14
267.41	2582.49
267.62	2430.94
267.84	2250.72
268.06	2414.56
268.27	2570.20
268.49	2588.63
268.70	2406.36
268.92	2389.98
269.14	2412.51
269.35	2353.12
269.57	2381.79
269.79	2404.32
270.00	2383.84
270.22	2734.04
270.43	2260.96
270.65	2176.99
270.87	2512.86
271.08	2582.49
271.30	2414.56
271.51	2373.60
271.73	2512.86
271.95	2512.86
272.16	2291.68
272.38	2500.57
272.59	2447.32
272.81	2594.78
273.02	2283.49
273.24	2482.14
273.46	2699.22
273.67	2338.78
273.89	2203.61
274.10	2283.49
274.32	2609.11
274.54	2441.18
274.75	2418.65
274.97	2342.88
275.18	2627.54
275.40	2498.52
275.61	2426.84
275.83	2437.08
276.05	2420.70
276.26	2447.32
276.48	2451.42
276.69	2281.44
276.91	2396.12
277.12	2688.98
277.34	2480.09
277.55	2519.00
277.77	2475.99
277.99	2432.99
278.20	2357.21
278.42	2312.16
278.63	2400.22
278.85	2432.99
279.06	2398.17
279.28	2461.66
279.49	2613.21
279.71	2545.63
279.93	2410.46
280.14	2469.85
280.36	2344.92
280.57	2553.82
280.79	2439.13
281.00	2224.09
281.22	2449.37
281.43	2635.74
281.65	2254.81
281.86	2287.58
282.08	2605.02
282.29	2805.72
282.51	2301.92
282.73	2273.25
282.94	2297.82
283.16	2578.39
283.37	2527.19
283.59	2414.56
283.80	2467.80
284.02	2535.39
284.23	2453.47
284.45	2389.98
284.66	2414.56
284.88	2463.71
285.09	2383.84
285.31	2455.51
285.52	2588.63
285.74	2273.25
285.95	2523.10
286.17	2457.56
286.38	2605.02
286.60	2346.97
286.81	2367.45
287.03	2496.47
287.24	2398.17
287.46	2523.10
287.67	2394.08
287.89	2596.82
288.10	2416.60
288.32	2506.71
288.53	2621.40
288.75	2428.89
288.96	2551.77
289.18	2381.79
289.39	2398.17
289.61	2572.25
289.82	2805.72
290.04	2711.51
290.25	2349.02
290.47	2447.32
290.68	2469.85
290.90	2586.58
291.11	2244.57
291.33	2514.91
291.54	2361.31
291.76	2412.51
291.97	2437.08
292.18	2445.27
292.40	2531.29
292.61	2432.99
292.83	2676.70
293.04	2414.56
293.26	2523.10
293.47	2510.81
293.69	2383.84
293.90	2387.93
294.12	2670.55
294.33	2492.38
294.55	2439.13
294.76	2496.47
294.97	2678.74
295.19	2754.52
295.40	2381.79
295.62	2475.99
295.83	2617.30
296.05	2428.89
296.26	2594.78
296.48	2445.27
296.69	2449.37
296.90	2535.39
297.12	2555.86
297.33	2562.01
297.55	2578.39
297.76	2584.54
297.98	2514.91
298.19	2512.86
298.41	2445.27
298.62	2383.84
298.83	2621.40
299.05	2449.37
299.26	2359.26
299.48	2316.25
299.69	2533.34
299.90	2443.23
300.12	2406.36
300.33	2615.26
300.55	2361.31
300.76	2465.75
300.98	2355.16
301.19	2551.77
301.40	2432.99
301.62	2410.46
301.83	2607.06
302.05	2500.57
302.26	2410.46
302.47	2387.93
302.69	2332.64
302.90	2473.95
303.12	2232.29
303.33	2498.52
303.54	2750.42
303.76	2416.60
303.97	2467.80
304.19	2600.92
304.40	2346.97
304.61	2592.73
304.83	2572.25
305.04	2535.39
305.26	2594.78
305.47	2432.99
305.68	2473.95
305.90	2320.35
306.11	2598.87
306.33	2490.33
306.54	2310.11
306.75	2324.44
306.97	2324.44
307.18	2357.21
307.39	2340.83
307.61	2498.52
307.82	2494.43
308.04	2506.71
308.25	2334.68
308.46	2449.37
308.68	2473.95
308.89	2424.80
309.10	2537.43
309.32	2381.79
309.53	2437.08
309.74	2598.87
309.96	2371.55
310.17	2500.57
310.39	2488.28
310.60	2506.71
310.81	2482.14
311.03	2308.06
311.24	2605.02
311.45	2465.75
311.67	2619.35
311.88	2443.23
312.09	2449.37
312.31	2383.84
312.52	2416.60
312.73	2430.94
312.95	2244.57
313.16	2414.56
313.37	2541.53
313.59	2559.96
313.80	2555.86
314.01	2783.19
314.23	2326.49
314.44	2373.60
314.65	2318.30
314.87	2439.13
315.08	2416.60
315.29	2365.40
315.51	2437.08
315.72	2238.43
315.93	2568.15
316.15	2430.94
316.36	2416.60
316.57	2543.58
316.79	2510.81
317.00	2373.60
317.21	2547.67
317.43	2400.22
317.64	2488.28
317.85	2342.88
318.07	2402.27
318.28	2437.08
318.49	2607.06
318.70	2719.70
318.92	2678.74
319.13	2723.80
319.34	2648.02
319.56	2506.71
319.77	2619.35
319.98	2707.41
320.20	2547.67
320.41	2537.43
320.62	2580.44
320.83	2357.21
321.05	2631.64
321.26	2383.84
321.47	2469.85
321.69	2691.03
321.90	2334.68
322.11	2351.07
322.32	2525.15
322.54	2688.98
322.75	2416.60
322.96	2883.54
323.18	2357.21
323.39	2228.19
323.60	2349.02
323.81	2490.33
324.03	2455.51
324.24	2396.12
324.45	2514.91
324.66	2375.64
324.88	2570.20
325.09	2670.55
325.30	2414.56
325.52	2447.32
325.73	2490.33
325.94	2326.49
326.15	2271.20
326.37	2398.17
326.58	2539.48
326.79	2650.07
327.00	2426.84
327.22	2471.90
327.43	2455.51
327.64	2392.03
327.85	2527.19
328.07	2435.03
328.28	2772.95
328.49	2457.56
328.70	2441.18
328.92	2389.98
329.13	2377.69
329.34	2455.51
329.55	2658.26
329.76	2539.48
329.98	2414.56
330.19	2590.68
330.40	2484.19
330.61	2482.14
330.83	2535.39
331.04	2404.32
331.25	2408.41
331.46	2383.84
331.68	2344.92
331.89	2533.34
332.10	2418.65
332.31	2316.25
332.52	2441.18
332.74	2605.02
332.95	2301.92
333.16	2383.84
333.37	2566.10
333.58	2359.26
333.80	2430.94
334.01	2312.16
334.22	2473.95
334.43	2334.68
334.64	2443.23
334.86	2369.50
335.07	2408.41
335.28	2709.46
335.49	2332.64
335.70	2529.24
335.92	2674.65
336.13	2729.94
336.34	2441.18
336.55	2492.38
336.76	2566.10
336.98	2301.92
337.19	2441.18
337.40	2578.39
337.61	2805.72
337.82	2416.60
338.04	2525.15
338.25	2318.30
338.46	2449.37
338.67	2387.93
338.88	2351.07
339.09	2359.26
339.31	2449.37
339.52	2404.32
339.73	2269.15
339.94	2414.56
340.15	2654.17
340.36	2414.56
340.58	2463.71
340.79	2299.87
341.00	2531.29
341.21	2420.70
341.42	2602.97
341.63	2379.74
341.85	2605.02
342.06	2502.62
342.27	2306.01
342.48	2467.80
342.69	2383.84
342.90	2562.01
343.12	2559.96
343.33	2449.37
343.54	2549.72
343.75	2662.36
343.96	2469.85
344.17	2336.73
344.38	2422.75
344.60	2314.20
344.81	2387.93
345.02	2467.80
345.23	2564.06
345.44	2711.51
345.65	2478.04
345.86	2498.52
346.07	2463.71
346.29	2428.89
346.50	2570.20
346.71	2437.08
346.92	2621.40
347.13	2787.29
347.34	2478.04
347.55	2414.56
347.76	2617.30
347.98	2279.39
348.19	2484.19
348.40	2508.76
348.61	2506.71
348.82	2641.88
349.03	2562.01
349.24	2383.84
349.45	2701.27
349.66	2230.24
349.88	2410.46
350.09	2326.49
350.30	2668.50
350.51	2680.79
350.72	2445.27
350.93	2428.89
351.14	2424.80
351.35	2539.48
351.56	2441.18
351.77	2582.49
351.99	2576.34
352.20	2731.99
352.41	2525.15
352.62	2256.86
352.83	2512.86
353.04	2529.24
353.25	2387.93
353.46	2488.28
353.67	2625.50
353.88	2189.28
354.09	2437.08
354.30	2432.99
354.52	2586.58
354.73	2410.46
354.94	2453.47
355.15	2437.08
355.36	2713.56
355.57	2473.95
355.78	2447.32
355.99	2369.50
356.20	2404.32
356.41	2572.25
356.62	2482.14
356.83	2480.09
357.04	2662.36
357.25	2365.40
357.46	2457.56
357.68	2269.15
357.89	2359.26
358.10	2514.91
358.31	2465.75
358.52	2465.75
358.73	2371.55
358.94	2377.69
359.15	2414.56
359.36	2432.99
359.57	2404.32
359.78	2551.77
359.99	2553.82
360.20	2269.15
360.41	2453.47
360.62	2555.86
360.83	2512.86
361.04	2484.19
361.25	2521.05
361.46	2695.13
361.67	2445.27
361.88	2463.71
362.09	2580.44
362.30	2467.80
362.51	2406.36
362.72	2428.89
362.93	2654.17
363.14	2576.34
363.35	2514.91
363.56	2467.80
363.78	2656.22
363.99	2629.59
364.20	2416.60
364.41	2449.37
364.62	2686.94
364.83	2455.51
365.04	2482.14
365.25	2453.47
365.46	2797.53
365.67	2396.12
365.88	2392.03
366.09	2404.32
366.30	2512.86
366.51	2519.00
366.72	2342.88
366.93	2418.65
367.14	2451.42
367.35	2695.13
367.56	2455.51
367.77	2596.82
367.98	2535.39
368.18	2514.91
368.39	2488.28
368.60	2396.12
368.81	2584.54
369.02	2590.68
369.23	2359.26
369.44	2277.34
369.65	2449.37
369.86	2545.63
370.07	2578.39
370.28	2381.79
370.49	2549.72
370.70	2527.19
370.91	2308.06
371.12	2308.06
371.33	2564.06
371.54	2420.70
371.75	2619.35
371.96	2207.71
372.17	2453.47
372.38	2422.75
372.59	2465.75
372.80	2449.37
373.01	2361.31
373.22	2426.84
373.43	2420.70
373.64	2303.96
373.85	2641.88
374.06	2742.23
374.26	2557.91
374.47	2492.38
374.68	2758.61
374.89	2478.04
375.10	2371.55
375.31	2471.90
375.52	2484.19
375.73	2502.62
375.94	2324.44
376.15	2576.34
376.36	2424.80
376.57	2373.60
376.78	2371.55
376.99	2412.51
377.20	2605.02
377.40	2430.94
377.61	2641.88
377.82	2310.11
378.03	2611.16
378.24	2537.43
378.45	2459.61
378.66	2437.08
378.87	2310.11
379.08	2330.59
379.29	2498.52
379.50	2498.52
379.71	2447.32
379.91	2551.77
380.12	2349.02
380.33	2484.19
380.54	2455.51
380.75	2531.29
380.96	2416.60
381.17	2605.02
381.38	2498.52
381.59	2527.19
381.80	2381.79
382.00	2605.02
382.21	2570.20
382.42	2664.41
382.63	2797.53
382.84	2496.47
383.05	2559.96
383.26	2629.59
383.47	2455.51
383.68	2549.72
383.88	2621.40
384.09	2521.05
384.30	2564.06
384.51	2492.38
384.72	2414.56
384.93	2301.92
385.14	2430.94
385.35	2596.82
385.55	2310.11
385.76	2658.26
385.97	2445.27
386.18	2297.82
386.39	2430.94
386.60	2457.56
386.81	2416.60
387.02	2355.16
387.22	2344.92
387.43	2678.74
387.64	2559.96
387.85	2584.54
388.06	2648.02
388.27	4095.94
388.48	8466.30
388.68	12171.08
388.89	14706.46
389.10	15679.25
389.31	14741.28
389.52	11644.75
389.73	10049.38
389.93	9201.52
390.14	8238.98
390.35	7491.47
390.56	6756.25
390.77	5328.81
390.98	4227.01
391.18	3424.20
391.39	2840.53
391.60	2557.91
391.81	2586.58
392.02	2449.37
392.23	2861.01
392.43	2445.27
392.64	2621.40
392.85	2410.46
393.06	2688.98
393.27	2551.77
393.47	2465.75
393.68	2494.43
393.89	2400.22
394.10	2629.59
394.31	2353.12
394.52	2392.03
394.72	2437.08
394.93	2637.78
395.14	2406.36
395.35	2531.29
395.56	2367.45
395.76	2482.14
395.97	2465.75
396.18	2588.63
396.39	2621.40
396.60	2947.03
396.80	2734.04
397.01	2639.83
397.22	2684.89
397.43	2639.83
397.64	2398.17
397.84	2486.23
398.05	2858.96
398.26	2469.85
398.47	2521.05
398.67	2586.58
398.88	2482.14
399.09	2629.59
399.30	2449.37
399.51	2512.86
399.71	2410.46
399.92	2500.57
400.13	2551.77
400.34	2432.99
400.54	2506.71
400.75	2588.63
400.96	2471.90
401.17	2699.22
401.37	2611.16
401.58	2473.95
401.79	2402.27
402.00	2627.54
402.21	2940.88
402.41	2674.65
402.62	2891.73
402.83	2936.79
403.04	2996.18
403.24	3006.42
403.45	2662.36
403.66	2717.65
403.87	2643.93
404.07	2799.57
404.28	2742.23
404.49	2695.13
404.70	2523.10
404.90	2619.35
405.11	2512.86
405.32	2521.05
405.52	2385.88
405.73	2480.09
405.94	2342.88
406.15	2420.70
406.35	2605.02
406.56	2549.72
406.77	2465.75
406.98	2471.90
407.18	2371.55
407.39	2625.50
407.60	2410.46
407.80	2543.58
408.01	2385.88
408.22	2527.19
408.43	2396.12
408.63	2424.80
408.84	2586.58
409.05	2619.35
409.25	2416.60
409.46	2367.45
409.67	2490.33
409.88	2457.56
410.08	2471.90
410.29	2371.55
410.50	2641.88
410.70	2564.06
410.91	2367.45
411.12	2496.47
411.32	2465.75
411.53	2441.18
411.74	2482.14
411.95	2588.63
412.15	2592.73
412.36	2625.50
412.57	2547.67
412.77	2621.40
412.98	2502.62
413.19	2383.84
413.39	2519.00
413.60	2564.06
413.81	2617.30
414.01	2428.89
414.22	2437.08
414.43	2543.58
414.63	2519.00
414.84	2559.96
415.05	2523.10
415.25	2269.15
415.46	2529.24
415.67	2430.94
415.87	2529.24
416.08	2512.86
416.29	2408.41
416.49	2478.04
416.70	2443.23
416.91	2420.70
417.11	2441.18
417.32	2596.82
417.53	2531.29
417.73	2490.33
417.94	2527.19
418.15	2527.19
418.35	2445.27
418.56	2406.36
418.77	2844.63
418.97	2510.81
419.18	2480.09
419.38	2209.76
419.59	2494.43
419.80	2654.17
420.00	2416.60
420.21	2420.70
420.42	2584.54
420.62	2559.96
420.83	2396.12
421.04	2437.08
421.24	2473.95
421.45	2584.54
421.65	2488.28
421.86	2396.12
422.07	2594.78
422.27	2564.06
422.48	2437.08
422.69	2342.88
422.89	2473.95
423.10	2500.57
423.30	2383.84
423.51	2465.75
423.72	2555.86
423.92	2545.63
424.13	2273.25
424.33	2467.80
424.54	2559.96
424.75	2463.71
424.95	2584.54
425.16	2461.66
425.36	2422.75
425.57	2609.11
425.78	2564.06
425.98	2529.24
426.19	2416.60
426.39	2351.07
426.60	2478.04
426.81	2643.93
427.01	2510.81
427.22	2389.98
427.42	2330.59
427.63	2398.17
427.83	2580.44
428.04	2693.08
428.25	2566.10
428.45	2625.50
428.66	2680.79
428.86	2514.91
429.07	2443.23
429.28	2461.66
429.48	2498.52
429.69	2410.46
429.89	2506.71
430.10	2310.11
430.30	2625.50
430.51	2617.30
430.71	2416.60
430.92	2377.69
431.13	2381.79
431.33	2488.28
431.54	2566.10
431.74	2578.39
431.95	2801.62
432.15	2379.74
432.36	2570.20
432.56	2537.43
432.77	2693.08
432.98	2766.81
433.18	2453.47
433.39	2400.22
433.59	2441.18
433.80	2709.46
434.00	2635.74
434.21	2301.92
434.41	2398.17
434.62	2785.24
434.82	2355.16
435.03	2398.17
435.23	2473.95
435.44	2209.76
435.64	2457.56
435.85	2480.09
436.06	2523.10
436.26	2592.73
436.47	2426.84
436.67	2398.17
436.88	2508.76
437.08	2584.54
437.29	2506.71
437.49	2545.63
437.70	2619.35
437.90	2457.56
438.11	2705.37
438.31	2486.23
438.52	2684.89
438.72	2725.85
438.93	2801.62
439.13	2553.82
439.34	2654.17
439.54	2488.28
439.75	2506.71
439.95	2582.49
440.16	2461.66
440.36	2523.10
440.57	2555.86
440.77	2451.42
440.98	2457.56
441.18	2584.54
441.39	2447.32
441.59	2363.36
441.80	2717.65
442.00	2551.77
442.21	2537.43
442.41	2385.88
442.62	2588.63
442.82	2469.85
443.02	2416.60
443.23	2422.75
443.43	2437.08
443.64	2623.45
443.84	2416.60
444.05	2539.48
444.25	2500.57
444.46	2478.04
444.66	2439.13
444.87	2559.96
445.07	2293.72
445.28	2512.86
445.48	2594.78
445.69	2555.86
445.89	2766.81
446.09	2490.33
446.30	2736.09
446.50	3006.42
446.71	4554.68
446.91	5799.85
447.12	6553.50
447.32	7030.68
447.53	6594.46
447.73	5402.54
447.93	4765.62
448.14	4562.87
448.34	4497.34
448.55	3784.65
448.75	3741.64
448.96	3641.29
449.16	3286.99
449.36	3100.62
449.57	2680.79
449.77	2531.29
449.98	2549.72
450.18	2568.15
450.39	2449.37
450.59	2562.01
450.79	2475.99
451.00	2377.69
451.20	2576.34
451.41	2430.94
451.61	2572.25
451.81	2441.18
452.02	2416.60
452.22	2465.75
452.43	2488.28
452.63	2432.99
452.84	2482.14
453.04	2375.64
453.24	2494.43
453.45	2432.99
453.65	2469.85
453.86	2447.32
454.06	2494.43
454.26	2506.71
454.47	2318.30
454.67	2609.11
454.87	2547.67
455.08	2406.36
455.28	2564.06
455.49	2512.86
455.69	2478.04
455.89	2756.57
456.10	2586.58
456.30	2389.98
456.51	2596.82
456.71	2504.67
456.91	2580.44
457.12	2490.33
457.32	2473.95
457.52	2357.21
457.73	2541.53
457.93	2633.69
458.14	2392.03
458.34	2265.05
458.54	2443.23
458.75	2443.23
458.95	2602.97
459.15	2543.58
459.36	2490.33
459.56	2514.91
459.76	2756.57
459.97	2469.85
460.17	2422.75
460.37	2537.43
460.58	2478.04
460.78	2547.67
460.99	2494.43
461.19	2435.03
461.39	2441.18
461.60	2453.47
461.80	2557.91
462.00	2322.40
462.21	2457.56
462.41	2396.12
462.61	2338.78
462.82	2320.35
463.02	2547.67
463.22	2467.80
463.43	2471.90
463.63	2392.03
463.83	2621.40
464.04	2617.30
464.24	2498.52
464.44	2455.51
464.64	2514.91
464.85	2588.63
465.05	2523.10
465.25	2383.84
465.46	2453.47
465.66	2588.63
465.86	2555.86
466.07	2469.85
466.27	2412.51
466.47	2340.83
466.68	2377.69
466.88	2594.78
467.08	2619.35
467.29	2584.54
467.49	2519.00
467.69	2400.22
467.89	2598.87
468.10	2430.94
468.30	2531.29
468.50	2586.58
468.71	2684.89
468.91	2357.21
469.11	2674.65
469.31	2412.51
469.52	2355.16
469.72	2680.79
469.92	2686.94
470.13	2490.33
470.33	2521.05
470.53	2523.10
470.73	2897.88
470.94	3332.05
471.14	3477.45
471.34	3880.90
471.54	3686.34
471.75	3401.68
471.95	3104.72
472.15	2971.60
472.36	2998.23
472.56	2994.13
472.76	3039.19
472.96	2953.17
473.17	2752.47
473.37	2693.08
473.57	2559.96
473.77	2643.93
473.98	2564.06
474.18	2400.22
474.38	2881.49
474.58	2412.51
474.79	2394.08
474.99	2586.58
475.19	2611.16
475.39	2326.49
475.60	2519.00
475.80	2500.57
476.00	2514.91
476.20	2418.65
476.41	2465.75
476.61	2592.73
476.81	2676.70
477.01	2359.26
477.21	2637.78
477.42	2537.43
477.62	2432.99
477.82	2543.58
478.02	2457.56
478.23	2512.86
478.43	2385.88
478.63	2473.95
478.83	2439.13
479.03	2494.43
479.24	2705.37
479.44	2734.04
479.64	2359.26
479.84	2248.67
480.04	2359.26
480.25	2523.10
480.45	2375.64
480.65	2408.41
480.85	2580.44
481.06	2439.13
481.26	2512.86
481.46	2512.86
481.66	2539.48
481.86	2383.84
482.06	2605.02
482.27	2404.32
482.47	2473.95
482.67	2637.78
482.87	2342.88
483.07	2498.52
483.28	2445.27
483.48	2283.49
483.68	2475.99
483.88	2387.93
484.08	2230.24
484.29	2359.26
484.49	2435.03
484.69	2295.77
484.89	2693.08
485.09	2592.73
485.29	2553.82
485.50	2498.52
485.70	2482.14
485.90	2652.12
486.10	2482.14
486.30	2412.51
486.50	2641.88
486.71	2486.23
486.91	2607.06
487.11	2521.05
487.31	2332.64
487.51	2539.48
487.71	2408.41
487.91	2351.07
488.12	2377.69
488.32	2195.42
488.52	2453.47
488.72	2297.82
488.92	2457.56
489.12	2602.97
489.32	2564.06
489.53	2486.23
489.73	2287.58
489.93	2641.88
490.13	2351.07
490.33	2353.12
490.53	2506.71
490.73	2668.50
490.94	2359.26
491.14	2564.06
491.34	2559.96
491.54	2783.19
491.74	3413.96
491.94	4024.26
492.14	4276.16
492.34	4384.70
492.54	3987.40
492.75	3442.64
492.95	3405.77
493.15	3282.89
493.35	3166.16
493.55	3004.37
493.75	2883.54
493.95	2981.84
494.15	2742.23
494.35	2568.15
494.56	2584.54
494.76	2447.32
494.96	2641.88
495.16	2531.29
495.36	2437.08
495.56	2527.19
495.76	2478.04
495.96	2480.09
496.16	2404.32
496.36	2752.47
496.56	2455.51
496.77	2506.71
496.97	2475.99
497.17	2627.54
497.37	2332.64
497.57	2531.29
497.77	2555.86
497.97	2359.26
498.17	2512.86
498.37	2336.73
498.57	2572.25
498.77	2486.23
498.97	2568.15
499.17	2645.98
499.38	2435.03
499.58	2559.96
499.78	2609.11
499.98	2584.54
500.18	2439.13
500.38	2400.22
500.58	2605.02
500.78	3006.42
500.98	5382.06
501.18	7501.71
501.38	9342.83
501.58	10108.77
501.78	9940.84
501.98	7999.37
502.18	6659.99
502.38	5707.69
502.58	5400.49
502.78	4767.67
502.98	4767.67
503.18	4497.34
503.38	4063.17
503.59	3528.65
503.79	3438.54
503.99	3143.63
504.19	3145.68
504.39	3190.74
504.59	3174.35
504.79	3200.98
504.99	3155.92
505.19	2805.72
505.39	2723.80
505.59	2822.10
505.79	2791.38
505.99	2635.74
506.19	2568.15
506.39	2736.09
506.59	2494.43
506.79	2578.39
506.99	2602.97
507.19	2535.39
507.39	2547.67
507.59	2375.64
507.79	2420.70
507.99	2359.26
508.19	2424.80
508.39	2426.84
508.59	2461.66
508.79	2572.25
508.99	2818.00
509.19	2420.70
509.39	2498.52
509.59	2375.64
509.79	2359.26
509.99	2510.81
510.19	2627.54
510.39	2629.59
510.59	2564.06
510.79	2471.90
510.99	2342.88
511.19	2498.52
511.39	2643.93
511.59	2602.97
511.79	2574.30
511.99	2508.76
512.19	2822.10
512.38	2492.38
512.58	2432.99
512.78	2451.42
512.98	2662.36
513.18	2697.17
513.38	2375.64
513.58	2500.57
513.78	2428.89
513.98	2467.80
514.18	2420.70
514.38	2457.56
514.58	2580.44
514.78	2387.93
514.98	2379.74
515.18	2449.37
515.38	2445.27
515.58	2723.80
515.78	2486.23
515.98	2471.90
516.18	2508.76
516.38	2510.81
516.57	2375.64
516.77	2420.70
516.97	2531.29
517.17	2437.08
517.37	2285.53
517.57	2568.15
517.77	2535.39
517.97	2416.60
518.17	2484.19
518.37	2336.73
518.57	2451.42
518.77	2514.91
518.97	2492.38
519.16	2457.56
519.36	2594.78
519.56	2437.08
519.76	2488.28
519.96	2449.37
520.16	2703.32
520.36	2410.46
520.56	2699.22
520.76	2418.65
520.96	2529.24
521.16	2652.12
521.35	2605.02
521.55	2607.06
521.75	2537.43
521.95	2492.38
522.15	2529.24
522.35	2330.59
522.55	2375.64
522.75	2580.44
522.95	2463.71
523.14	2424.80
523.34	2537.43
523.54	2414.56
523.74	2459.61
523.94	2463.71
524.14	2353.12
524.34	2596.82
524.54	2580.44
524.73	2465.75
524.93	2602.97
525.13	2453.47
525.33	2357.21
525.53	2670.55
525.73	2611.16
525.93	2510.81
526.13	2553.82
526.32	2467.80
526.52	2594.78
526.72	2582.49
526.92	2420.70
527.12	2344.92
527.32	2330.59
527.52	2557.91
527.71	2482.14
527.91	2432.99
528.11	2469.85
528.31	2469.85
528.51	2430.94
528.71	2523.10
528.90	2605.02
529.10	2650.07
529.30	2514.91
529.50	2217.95
529.70	2566.10
529.90	2435.03
530.09	2504.67
530.29	2301.92
530.49	2383.84
530.69	2770.90
530.89	2475.99
531.09	2480.09
531.28	2381.79
531.48	2605.02
531.68	2549.72
531.88	2482.14
532.08	2637.78
532.28	2408.41
532.47	2514.91
532.67	2600.92
532.87	2539.48
533.07	2379.74
533.27	2572.25
533.46	2578.39
533.66	2537.43
533.86	2484.19
534.06	2500.57
534.26	2510.81
534.45	2510.81
534.65	2609.11
534.85	2514.91
535.05	2453.47
535.25	2611.16
535.44	2289.63
535.64	2574.30
535.84	2490.33
536.04	2480.09
536.24	2486.23
536.43	2400.22
536.63	2492.38
536.83	2537.43
537.03	2439.13
537.22	2353.12
537.42	2322.40
537.62	2545.63
537.82	2412.51
538.02	2625.50
538.21	2670.55
538.41	2840.53
538.61	2557.91
538.81	2459.61
539.00	2539.48
539.20	2322.40
539.40	2471.90
539.60	2441.18
539.79	2600.92
539.99	2428.89
540.19	2414.56
540.39	2467.80
540.58	2455.51
540.78	2496.47
540.98	2445.27
541.18	2566.10
541.37	2496.47
541.57	2516.95
541.77	2578.39
541.97	2346.97
542.16	2318.30
542.36	2428.89
542.56	2498.52
542.76	2709.46
542.95	2562.01
543.15	2539.48
543.35	2600.92
543.54	2260.96
543.74	2392.03
543.94	2600.92
544.14	2482.14
544.33	2605.02
544.53	2416.60
544.73	2480.09
544.93	2535.39
545.12	2447.32
545.32	2416.60
545.52	2490.33
545.71	2328.54
545.91	2406.36
546.11	2365.40
546.30	2342.88
546.50	2461.66
546.70	2564.06
546.90	2523.10
547.09	2318.30
547.29	2484.19
547.49	2490.33
547.68	2494.43
547.88	2398.17
548.08	2654.17
548.27	2963.41
548.47	2389.98
548.67	2457.56
548.87	2519.00
549.06	2435.03
549.26	2519.00
549.46	2570.20
549.65	2402.27
549.85	2494.43
550.05	2510.81
550.24	2316.25
550.44	2490.33
550.64	2504.67
550.83	2486.23
551.03	2676.70
551.23	2641.88
551.42	2494.43
551.62	2435.03
551.82	2529.24
552.01	2441.18
552.21	2666.46
552.41	2504.67
552.60	2605.02
552.80	2467.80
553.00	2408.41
553.19	2473.95
553.39	2654.17
553.59	2330.59
553.78	2490.33
553.98	2514.91
554.17	2301.92
554.37	2555.86
554.57	2447.32
554.76	2379.74
554.96	2340.83
555.16	2510.81
555.35	2482.14
555.55	2500.57
555.75	2553.82
555.94	2529.24
556.14	2346.97
556.33	2484.19
556.53	2514.91
556.73	2400.22
556.92	2490.33
557.12	2525.15
557.32	2793.43
557.51	2705.37
557.71	2500.57
557.90	2709.46
558.10	2637.78
558.30	2471.90
558.49	2381.79
558.69	2516.95
558.88	2564.06
559.08	2435.03
559.28	2498.52
559.47	2508.76
559.67	2521.05
559.86	2768.85
560.06	2547.67
560.26	2461.66
560.45	2596.82
560.65	2498.52
560.84	2607.06
561.04	2414.56
561.24	2553.82
561.43	2324.44
561.63	2611.16
561.82	2535.39
562.02	2584.54
562.22	2467.80
562.41	2437.08
562.61	2408.41
562.80	2445.27
563.00	2787.29
563.19	2478.04
563.39	2543.58
563.59	2602.97
563.78	2375.64
563.98	2258.91
564.17	2420.70
564.37	2334.68
564.56	2494.43
564.76	2271.20
564.96	2598.87
565.15	2600.92
565.35	2824.15
565.54	2439.13
565.74	2457.56
565.93	2621.40
566.13	2443.23
566.32	2551.77
566.52	2498.52
566.71	2531.29
566.91	2576.34
567.11	2572.25
567.30	2392.03
567.50	2570.20
567.69	2584.54
567.89	2435.03
568.08	2353.12
568.28	2537.43
568.47	2357.21
568.67	2490.33
568.86	2357.21
569.06	2521.05
569.25	2461.66
569.45	2361.31
569.64	2449.37
569.84	2441.18
570.04	2506.71
570.23	2389.98
570.43	2422.75
570.62	2578.39
570.82	2695.13
571.01	2322.40
571.21	2496.47
571.40	2371.55
571.60	2562.01
571.79	2609.11
571.99	2582.49
572.18	2457.56
572.38	2525.15
572.57	2400.22
572.77	2480.09
572.96	2824.15
573.16	2525.15
573.35	2492.38
573.55	2602.97
573.74	2475.99
573.94	2428.89
574.13	2580.44
574.33	2527.19
574.52	2613.21
574.71	2580.44
574.91	2523.10
575.10	2371.55
575.30	2418.65
575.49	2357.21
575.69	2365.40
575.88	2564.06
576.08	2596.82
576.27	2584.54
576.47	2490.33
576.66	2701.27
576.86	2719.70
577.05	2531.29
577.25	2596.82
577.44	2674.65
577.64	2449.37
577.83	2578.39
578.02	2473.95
578.22	2715.61
578.41	2764.76
578.61	2441.18
578.80	2396.12
579.00	2410.46
579.19	2525.15
579.39	2617.30
579.58	2592.73
579.77	2523.10
579.97	2695.13
580.16	2666.46
580.36	2596.82
580.55	2574.30
580.75	2586.58
580.94	2555.86
581.13	2686.94
581.33	2674.65
581.52	2445.27
581.72	2731.99
581.91	2650.07
582.11	2406.36
582.30	2629.59
582.49	2596.82
582.69	2740.18
582.88	2531.29
583.08	2572.25
583.27	2676.70
583.47	2549.72
583.66	2457.56
583.85	2428.89
584.05	2461.66
584.24	2535.39
584.44	2574.30
584.63	2703.32
584.82	2695.13
585.02	2682.84
585.21	2617.30
585.41	2680.79
585.60	2656.22
585.79	2682.84
585.99	2742.23
586.18	2621.40
586.37	3217.36
586.57	5005.24
586.76	15044.38
586.96	34385.40
587.15	47633.71
587.34	56327.33
587.54	61508.69
587.73	55526.58
587.93	38966.70
588.12	29445.69
588.31	24043.15
588.51	20850.37
588.70	19580.63
588.89	17329.91
589.09	14960.41
589.28	12672.83
589.47	10231.65
589.67	8009.61
589.86	6215.59
590.06	4700.09
590.25	3860.42
590.44	3323.85
590.64	2881.49
590.83	2768.85
591.02	2818.00
591.22	2619.35
591.41	2605.02
591.60	2605.02
591.80	2879.44
591.99	2365.40
592.18	2459.61
592.38	2654.17
592.57	2416.60
592.76	2553.82
592.96	2486.23
593.15	2451.42
593.34	2666.46
593.54	2451.42
593.73	2572.25
593.92	2535.39
594.12	2562.01
594.31	2609.11
594.50	2658.26
594.70	2543.58
594.89	2858.96
595.08	2377.69
595.28	2547.67
595.47	2971.60
595.66	2572.25
595.86	2328.54
596.05	2363.36
596.24	2467.80
596.43	2662.36
596.63	2619.35
596.82	2459.61
597.01	2654.17
597.21	2797.53
597.40	2568.15
597.59	2453.47
597.79	2514.91
597.98	2551.77
598.17	2523.10
598.36	2539.48
598.56	2650.07
598.75	2428.89
598.94	2478.04
599.14	2562.01
599.33	2408.41
599.52	2555.86
599.71	2531.29
599.91	2506.71
600.10	2588.63
600.29	2496.47
600.48	2510.81
600.68	2539.48
600.87	2572.25
601.06	2357.21
601.26	2463.71
601.45	2494.43
601.64	2578.39
601.83	2654.17
602.03	2404.32
602.22	2342.88
602.41	2654.17
602.60	2772.95
602.80	2605.02
602.99	2557.91
603.18	2510.81
603.37	2512.86
603.57	2465.75
603.76	2424.80
603.95	2734.04
604.14	2463.71
604.34	2410.46
604.53	2486.23
604.72	2480.09
604.91	2588.63
605.10	2523.10
605.30	2308.06
605.49	2760.66
605.68	2611.16
605.87	2541.53
606.07	2404.32
606.26	2547.67
606.45	2514.91
606.64	2525.15
606.84	2449.37
607.03	2521.05
607.22	2625.50
607.41	2486.23
607.60	2478.04
607.80	2660.31
607.99	2435.03
608.18	2566.10
608.37	2430.94
608.56	2441.18
608.76	2645.98
608.95	2654.17
609.14	2531.29
609.33	2662.36
609.52	2707.41
609.72	2543.58
609.91	2586.58
610.10	2562.01
610.29	2641.88
610.48	2572.25
610.68	2564.06
610.87	2430.94
611.06	2639.83
611.25	2478.04
611.44	2682.84
611.63	2490.33
611.83	2609.11
612.02	2400.22
612.21	2543.58
612.40	2228.19
612.59	2332.64
612.79	2359.26
612.98	2506.71
613.17	2713.56
613.36	2519.00
613.55	2686.94
613.74	2500.57
613.93	2619.35
614.13	2670.55
614.32	2709.46
614.51	2729.94
614.70	2508.76
614.89	2510.81
615.08	2545.63
615.28	2977.75
615.47	2482.14
615.66	2662.36
615.85	2547.67
616.04	2570.20
616.23	2488.28
616.42	2688.98
616.62	2584.54
616.81	2555.86
617.00	2539.48
617.19	2531.29
617.38	2445.27
617.57	2455.51
617.76	2521.05
617.95	2611.16
618.15	2551.77
618.34	2637.78
618.53	2293.72
618.72	2576.34
618.91	2617.30
619.10	2602.97
619.29	2615.26
619.48	2449.37
619.68	2396.12
619.87	2457.56
620.06	2252.77
620.25	2537.43
620.44	2402.27
620.63	2486.23
620.82	2529.24
621.01	2523.10
621.20	2490.33
621.39	2480.09
621.59	2533.34
621.78	2551.77
621.97	2455.51
622.16	2557.91
622.35	2555.86
622.54	2607.06
622.73	2564.06
622.92	2291.68
623.11	2619.35
623.30	2418.65
623.49	2527.19
623.68	2465.75
623.88	2682.84
624.07	2463.71
624.26	2396.12
624.45	2510.81
624.64	2441.18
624.83	2498.52
625.02	2432.99
625.21	2473.95
625.40	2373.60
625.59	2615.26
625.78	2469.85
625.97	2586.58
626.16	2617.30
626.35	2682.84
626.54	2566.10
626.74	2779.09
626.93	2572.25
627.12	2447.32
627.31	2596.82
627.50	2527.19
627.69	2629.59
627.88	2371.55
628.07	2406.36
628.26	2338.78
628.45	2373.60
628.64	2435.03
628.83	2531.29
629.02	2408.41
629.21	2568.15
629.40	2500.57
629.59	2475.99
629.78	2461.66
629.97	2482.14
630.16	2650.07
630.35	2473.95
630.54	2492.38
630.73	2463.71
630.92	2543.58
631.11	2371.55
631.30	2504.67
631.49	2547.67
631.68	2475.99
631.87	2551.77
632.06	2369.50
632.25	2861.01
632.44	2488.28
632.63	2559.96
632.82	2490.33
633.01	2531.29
633.20	2578.39
633.39	2582.49
633.58	2441.18
633.77	2611.16
633.96	2582.49
634.15	2611.16
634.34	2613.21
634.53	2580.44
634.72	2506.71
634.91	2330.59
635.10	2496.47
635.29	2578.39
635.48	2529.24
635.67	2486.23
635.86	2383.84
636.05	2664.41
636.24	2519.00
636.43	2459.61
636.62	2600.92
636.81	2176.99
637.00	2555.86
637.19	2498.52
637.38	2383.84
637.57	2514.91
637.76	2574.30
637.95	2678.74
638.14	2428.89
638.33	2621.40
638.52	2578.39
638.71	2383.84
638.89	2451.42
639.08	2783.19
639.27	2764.76
639.46	2787.29
639.65	3092.43
639.84	3250.13
640.03	3424.20
640.22	3141.58
640.41	3125.20
640.60	2895.83
640.79	2789.33
640.98	2719.70
641.17	2742.23
641.36	2729.94
641.55	2666.46
641.74	2422.75
641.92	2455.51
642.11	2455.51
642.30	2574.30
642.49	2379.74
642.68	2363.36
642.87	2654.17
643.06	2512.86
643.25	2396.12
643.44	2416.60
643.63	2545.63
643.82	2578.39
644.00	2330.59
644.19	2441.18
644.38	2473.95
644.57	2594.78
644.76	2482.14
644.95	2357.21
645.14	2465.75
645.33	2435.03
645.52	2486.23
645.71	2383.84
645.89	2324.44
646.08	2392.03
646.27	2408.41
646.46	2670.55
646.65	2318.30
646.84	2504.67
647.03	2318.30
647.22	2519.00
647.40	2525.15
647.59	2432.99
647.78	2301.92
647.97	2406.36
648.16	2398.17
648.35	2670.55
648.54	2611.16
648.73	2400.22
648.91	2627.54
649.10	2514.91
649.29	2410.46
649.48	2396.12
649.67	2447.32
649.86	2564.06
650.05	2506.71
650.23	2703.32
650.42	2559.96
650.61	2850.77
650.80	2731.99
650.99	2772.95
651.18	2703.32
651.36	2619.35
651.55	2490.33
651.74	2527.19
651.93	2394.08
652.12	2455.51
652.31	2473.95
652.49	2486.23
652.68	2379.74
652.87	2662.36
653.06	2510.81
653.25	2697.17
653.44	2506.71
653.62	2650.07
653.81	2392.03
654.00	2519.00
654.19	2586.58
654.38	2910.16
654.56	2473.95
654.75	2416.60
654.94	2602.97
655.13	2551.77
655.32	2424.80
655.51	2588.63
655.69	2465.75
655.88	2629.59
656.07	2365.40
656.26	2463.71
656.45	2375.64
656.63	2443.23
656.82	2469.85
657.01	2645.98
657.20	2389.98
657.38	2660.31
657.57	2408.41
657.76	2320.35
657.95	2605.02
658.14	2437.08
658.32	2496.47
658.51	2357.21
658.70	2529.24
658.89	2564.06
659.08	2523.10
659.26	2686.94
659.45	2475.99
659.64	2580.44
659.83	2375.64
660.01	2920.40
660.20	2531.29
660.39	2729.94
660.58	2228.19
660.76	2523.10
660.95	2414.56
661.14	2508.76
661.33	2373.60
661.51	2455.51
661.70	2443.23
661.89	2539.48
662.08	2461.66
662.26	2334.68
662.45	2351.07
662.64	2691.03
662.83	2588.63
663.01	2334.68
663.20	2426.84
663.39	2656.22
663.58	2402.27
663.76	2349.02
663.95	2533.34
664.14	2428.89
664.32	2385.88
664.51	2426.84
664.70	2269.15
664.89	2613.21
665.07	2293.72
665.26	2562.01
665.45	2359.26
665.64	2584.54
665.82	2447.32
666.01	2574.30
666.20	2408.41
666.38	2670.55
666.57	2572.25
666.76	3921.86
666.95	9592.69
667.13	18046.70
667.32	22955.68
667.51	25910.90
667.69	27965.01
667.88	24483.47
668.07	17522.42
668.25	14419.75
668.44	11812.68
668.63	10186.60
668.81	9217.91
669.00	7839.62
669.19	6903.70
669.38	6160.29
669.56	5238.70
669.75	4370.37
669.94	3844.04
670.12	3248.08
670.31	2932.69
670.50	2846.68
670.68	2695.13
670.87	2613.21
671.06	2492.38
671.24	2545.63
671.43	2688.98
671.62	2529.24
671.80	2465.75
671.99	2482.14
672.18	2498.52
672.36	2613.21
672.55	2584.54
672.74	2469.85
672.92	2441.18
673.11	2666.46
673.29	2326.49
673.48	2625.50
673.67	2349.02
673.85	2629.59
674.04	2439.13
674.23	2529.24
674.41	2682.84
674.60	2441.18
674.79	2260.96
674.97	2367.45
675.16	2568.15
675.34	2666.46
675.53	2408.41
675.72	2598.87
675.90	2707.41
676.09	2457.56
676.28	2473.95
676.46	2265.05
676.65	2588.63
676.83	2361.31
677.02	2473.95
677.21	2406.36
677.39	2521.05
677.58	2441.18
677.77	2377.69
677.95	2285.53
678.14	2475.99
678.32	2449.37
678.51	2469.85
678.70	2709.46
678.88	2414.56
679.07	2564.06
679.25	2422.75
679.44	2365.40
679.63	2349.02
679.81	2508.76
680.00	2590.68
680.18	2506.71
680.37	2703.32
680.55	2512.86
680.74	2312.16
680.93	2228.19
681.11	2500.57
681.30	2510.81
681.48	2539.48
681.67	2404.32
681.85	2455.51
682.04	2443.23
682.23	2605.02
682.41	2506.71
682.60	2414.56
682.78	2453.47
682.97	2330.59
683.15	2541.53
683.34	2465.75
683.53	2580.44
683.71	2283.49
683.90	2521.05
684.08	2744.28
684.27	2416.60
684.45	2514.91
684.64	2629.59
684.82	2451.42
685.01	2570.20
685.19	2502.62
685.38	2588.63
685.57	2496.47
685.75	2363.36
685.94	2432.99
686.12	2301.92
686.31	2416.60
686.49	2703.32
686.68	2269.15
686.86	2553.82
687.05	2467.80
687.23	2621.40
687.42	2355.16
687.60	2232.29
687.79	2686.94
687.97	2654.17
688.16	2709.46
688.34	2508.76
688.53	2363.36
688.71	2600.92
688.90	2623.45
689.08	2445.27
689.27	2340.83
689.45	2607.06
689.64	2584.54
689.82	2482.14
690.01	2527.19
690.19	2543.58
690.38	2494.43
690.56	2650.07
690.75	2336.73
690.93	2346.97
691.12	2361.31
691.30	2502.62
691.49	2422.75
691.67	2445.27
691.86	2711.51
692.04	2414.56
692.23	2445.27
692.41	2543.58
692.60	2807.77
692.78	2572.25
692.97	2580.44
693.15	2514.91
693.34	2688.98
693.52	2613.21
693.71	2529.24
693.89	2498.52
694.08	2351.07
694.26	2623.45
694.44	2488.28
694.63	2572.25
694.81	2377.69
695.00	2367.45
695.18	2621.40
695.37	2770.90
695.55	2521.05
695.74	2469.85
695.92	2400.22
696.10	2629.59
696.29	2316.25
696.47	2406.36
696.66	2312.16
696.84	2416.60
697.03	2416.60
697.21	2658.26
697.40	3715.02
697.58	2682.84
697.76	2463.71
697.95	2428.89
698.13	2377.69
698.32	2281.44
698.50	2508.76
698.68	2521.05
698.87	2564.06
699.05	2584.54
699.24	2486.23
699.42	2365.40
699.61	2551.77
699.79	2533.34
699.97	2514.91
700.16	2285.53
700.34	2389.98
700.53	2445.27
700.71	2637.78
700.89	2541.53
701.08	2426.84
701.26	2527.19
701.45	3030.99
701.63	2432.99
701.81	2424.80
702.00	2318.30
702.18	2478.04
702.37	2539.48
702.55	2752.47
702.73	2650.07
702.92	2559.96
703.10	2842.58
703.28	2809.81
703.47	2492.38
703.65	2750.42
703.84	2639.83
704.02	2547.67
704.20	2703.32
704.39	2430.94
704.57	2422.75
704.75	2686.94
704.94	2635.74
705.12	2559.96
705.30	2852.82
705.49	5478.32
705.67	12894.01
705.86	21003.97
706.04	24587.91
706.22	28026.45
706.41	28335.70
706.59	22994.59
706.77	16465.67
706.96	14286.63
707.14	12529.47
707.32	10684.25
707.51	9434.99
707.69	7817.10
707.87	6168.48
708.06	5029.81
708.24	4151.23
708.42	3346.38
708.61	3348.43
708.79	2709.46
708.97	2607.06
709.16	2666.46
709.34	2609.11
709.52	2416.60
709.71	2539.48
709.89	2629.59
710.07	2424.80
710.26	2514.91
710.44	2475.99
710.62	2613.21
710.80	2484.19
710.99	2521.05
711.17	2553.82
711.35	2410.46
711.54	2420.70
711.72	2645.98
711.90	2580.44
712.09	2537.43
712.27	2412.51
712.45	2500.57
712.63	2441.18
712.82	2475.99
713.00	2529.24
713.18	2629.59
713.37	2602.97
713.55	2621.40
713.73	2559.96
713.91	2596.82
714.10	2457.56
714.28	2394.08
714.46	2471.90
714.65	2547.67
714.83	2519.00
715.01	2498.52
715.19	2525.15
715.38	2478.04
715.56	2521.05
715.74	2404.32
715.92	2338.78
716.11	2537.43
716.29	2299.87
716.47	2494.43
716.65	2500.57
716.84	2340.83
717.02	2484.19
717.20	2326.49
717.38	2432.99
717.57	2602.97
717.75	2484.19
717.93	2379.74
718.11	2539.48
718.30	2283.49
718.48	2494.43
718.66	2637.78
718.84	2658.26
719.03	2432.99
719.21	2355.16
719.39	2670.55
719.57	2607.06
719.75	2547.67
719.94	2375.64
720.12	2408.41
720.30	2469.85
720.48	2566.10
720.67	2400.22
720.85	2424.80
721.03	2387.93
721.21	2310.11
721.39	2596.82
721.58	2471.90
721.76	2451.42
721.94	2478.04
722.12	2519.00
722.30	2703.32
722.49	2449.37
722.67	2459.61
722.85	2484.19
723.03	2326.49
723.21	2357.21
723.40	2496.47
723.58	2658.26
723.76	2617.30
723.94	2654.17
724.12	2553.82
724.30	2717.65
724.49	2672.60
724.67	2418.65
724.85	2600.92
725.03	2328.54
725.21	2652.12
725.40	2650.07
725.58	2408.41
725.76	2611.16
725.94	2578.39
726.12	2359.26
726.30	2432.99
726.49	2439.13
726.67	2512.86
726.85	2609.11
727.03	2965.46
727.21	4333.50
727.39	5961.64
727.57	6627.23
727.76	7356.30
727.94	7726.99
728.12	7004.05
728.30	5638.06
728.48	4954.04
728.66	4616.12
728.84	4134.85
729.03	3463.12
729.21	3266.51
729.39	2940.88
729.57	2701.27
729.75	2658.26
729.93	2564.06
730.11	2541.53
730.30	2519.00
730.48	2453.47
730.66	2609.11
730.84	2629.59
731.02	2471.90
731.20	2349.02
731.38	2496.47
731.56	2371.55
731.74	2308.06
731.93	2457.56
732.11	2531.29
732.29	2435.03
732.47	2514.91
732.65	2480.09
732.83	2652.12
733.01	2500.57
733.19	2449.37
733.37	2480.09
733.56	2469.85
733.74	2383.84
733.92	2629.59
734.10	2508.76
734.28	2584.54
734.46	2256.86
734.64	2451.42
734.82	2551.77
735.00	2406.36
735.18	2410.46
735.36	2469.85
735.54	2490.33
735.73	2437.08
735.91	2494.43
736.09	2652.12
736.27	2484.19
736.45	2584.54
736.63	2203.61
736.81	2351.07
736.99	2627.54
737.17	2654.17
737.35	2408.41
737.53	2451.42
737.71	2406.36
737.89	2590.68
738.07	2318.30
738.25	2408.41
738.43	2338.78
738.61	2412.51
738.80	2265.05
738.98	2357.21
739.16	2389.98
739.34	2342.88
739.52	2578.39
739.70	2449.37
739.88	2629.59
740.06	2559.96
740.24	2256.86
740.42	2566.10
740.60	2258.91
740.78	2375.64
740.96	2351.07
741.14	2449.37
741.32	2414.56
741.50	2334.68
741.68	2672.60
741.86	2643.93
742.04	2414.56
742.22	2445.27
742.40	2486.23
742.58	2490.33
742.76	2355.16
742.94	2578.39
743.12	2252.77
743.30	2492.38
743.48	2523.10
743.66	2332.64
743.84	2484.19
744.02	2443.23
744.20	2402.27
744.38	2326.49
744.56	2330.59
744.74	2727.89
744.92	2607.06
745.10	2596.82
745.28	2578.39
745.46	2772.95
745.64	2465.75
745.82	2564.06
746.00	2523.10
746.18	2547.67
746.36	2338.78
746.54	2488.28
746.72	2420.70
746.90	2398.17
747.08	2625.50
747.26	2383.84
747.44	2568.15
747.62	2496.47
747.80	2441.18
747.98	2568.15
748.15	2506.71
748.33	2688.98
748.51	2492.38
748.69	2643.93
748.87	2383.84
749.05	2453.47
749.23	2451.42
749.41	2430.94
749.59	2398.17
749.77	2596.82
749.95	2463.71
750.13	2432.99
750.31	2484.19
750.49	2439.13
750.67	2492.38
750.85	2607.06
751.03	2402.27
751.20	2666.46
751.38	2461.66
751.56	2510.81
751.74	2514.91
751.92	2406.36
752.10	2379.74
752.28	2559.96
752.46	2351.07
752.64	2545.63
752.82	2508.76
753.00	2512.86
753.18	2435.03
753.35	2463.71
753.53	2490.33
753.71	2359.26
753.89	2576.34
754.07	2449.37
754.25	2584.54
754.43	2504.67
754.61	2342.88
754.79	2488.28
754.97	2449.37
755.14	2596.82
755.32	2328.54
755.50	2482.14
755.68	2439.13
755.86	2371.55
756.04	2402.27
756.22	2209.76
756.40	2658.26
756.57	2719.70
756.75	2404.32
756.93	2637.78
757.11	2549.72
757.29	2353.12
757.47	2363.36
757.65	2258.91
757.82	2242.53
758.00	2387.93
758.18	2463.71
758.36	2355.16
758.54	2652.12
758.72	2265.05
758.90	2512.86
759.07	2504.67
759.25	2324.44
759.43	2555.86
759.61	2291.68
759.79	3542.99
759.97	2588.63
760.15	2363.36
760.32	2383.84
760.50	2486.23
760.68	2770.90
760.86	2359.26
761.04	2572.25
761.22	2557.91
761.39	2486.23
761.57	2475.99
761.75	2441.18
761.93	2539.48
762.11	2394.08
762.28	2457.56
762.46	2389.98
762.64	2652.12
762.82	2242.53
763.00	2441.18
763.18	2592.73
763.35	2461.66
763.53	2506.71
763.71	2375.64
763.89	2478.04
764.07	2543.58
764.24	2463.71
764.42	2502.62
764.60	2406.36
764.78	2486.23
764.96	2559.96
765.13	2572.25
765.31	2389.98
765.49	2539.48
765.67	2365.40
765.84	2392.03
766.02	2379.74
766.20	2279.39
766.38	2414.56
766.56	2543.58
766.73	2512.86
766.91	2484.19
767.09	2420.70
767.27	2514.91
767.44	2387.93
767.62	2562.01
767.80	2504.67
767.98	2457.56
768.15	2523.10
768.33	2570.20
768.51	2670.55
768.69	2465.75
768.87	2537.43
769.04	2574.30
769.22	2729.94
769.40	2596.82
769.58	2600.92
769.75	2461.66
769.93	2602.97
770.11	2416.60
770.28	2332.64
770.46	2586.58
770.64	2533.34
770.82	2379.74
770.99	2369.50
771.17	2533.34
771.35	2424.80
771.53	2475.99
771.70	2424.80
771.88	2574.30
772.06	2471.90
772.23	2371.55
772.41	2486.23
772.59	2389.98
772.77	2406.36
772.94	2420.70
773.12	2502.62
773.30	2424.80
773.47	2539.48
773.65	2359.26
773.83	2623.45
774.01	2482.14
774.18	2269.15
774.36	2465.75
774.54	2306.01
774.71	2516.95
774.89	2265.05
775.07	2375.64
775.24	2445.27
775.42	2490.33
775.60	2711.51
775.78	2377.69
775.95	2351.07
776.13	2293.72
776.31	2254.81
776.48	2504.67
776.66	2580.44
776.84	2389.98
777.01	2375.64
777.19	2426.84
777.37	2408.41
777.54	2580.44
777.72	2666.46
777.90	2465.75
778.07	2420.70
778.25	2840.53
778.43	2658.26
778.60	2357.21
778.78	2586.58
778.96	2715.61
779.13	2281.44
779.31	2555.86
779.49	2498.52
779.66	2521.05
779.84	2482.14
780.01	2346.97
780.19	2363.36
780.37	2578.39
780.54	2627.54
780.72	2306.01
780.90	2449.37
781.07	2404.32
781.25	2351.07
781.43	2557.91
781.60	2453.47
781.78	2721.75
781.95	2451.42
782.13	2367.45
782.31	2437.08
782.48	2271.20
782.66	2424.80
782.83	2609.11
783.01	2484.19
783.19	2543.58
783.36	2439.13
783.54	2332.64
783.72	2570.20
783.89	2441.18
784.07	2420.70
784.24	2547.67
784.42	2574.30
784.60	2451.42
784.77	2465.75
784.95	2260.96
785.12	2422.75
785.30	2465.75
785.47	2338.78
785.65	2332.64
785.83	2414.56
786.00	2482.14
786.18	2447.32
786.35	2373.60
786.53	2471.90
786.71	2584.54
786.88	2488.28
787.06	2545.63
787.23	2527.19
787.41	2320.35
787.58	2482.14
787.76	2422.75
787.94	2502.62
788.11	2480.09
788.29	2398.17
788.46	2398.17
788.64	2324.44
788.81	2471.90
788.99	2371.55
789.16	2387.93
789.34	2447.32
789.52	2412.51
789.69	2473.95
789.87	2232.29
790.04	2426.84
790.22	2482.14
790.39	2635.74
790.57	2326.49
790.74	2408.41
790.92	2613.21
791.09	2359.26
791.27	2496.47
791.44	2670.55
791.62	2449.37
791.79	2519.00
791.97	2490.33
792.15	2795.48
792.32	2463.71
792.50	2559.96
792.67	2637.78
792.85	2658.26
793.02	2457.56
793.20	2519.00
793.37	2291.68
793.55	2387.93
793.72	2283.49
793.90	2566.10
794.07	2303.96
794.25	2414.56
794.42	2473.95
794.60	2471.90
794.77	2547.67
794.95	2609.11
795.12	2596.82
795.30	2482.14
795.47	2260.96
795.65	2766.81
795.82	2537.43
796.00	2387.93
796.17	2449.37
796.34	2381.79
796.52	2465.75
796.69	2531.29
796.87	2535.39
797.04	2490.33
797.22	2576.34
797.39	2547.67
797.57	2555.86
797.74	2543.58
797.92	2490.33
798.09	2455.51
798.27	2549.72
798.44	2400.22
798.62	2422.75
798.79	2568.15
798.96	2574.30
799.14	2389.98
799.31	2764.76
799.49	2410.46
799.66	2379.74
799.84	2506.71
800.01	2342.88
800.19	2490.33
800.36	2228.19
800.53	2492.38
800.71	2543.58
800.88	2678.74
801.06	2412.51
801.23	2318.30
801.41	2387.93
801.58	2430.94
801.75	2406.36
801.93	2494.43
802.10	2543.58
802.28	2473.95
802.45	2437.08
802.63	2519.00
802.80	2701.27
802.97	2406.36
803.15	2486.23
803.32	2373.60
803.50	2326.49
803.67	2375.64
803.84	2334.68
804.02	2430.94
804.19	2461.66
804.37	2168.80
804.54	2324.44
804.71	2402.27
804.89	2451.42
805.06	2318.30
805.24	2328.54
805.41	2406.36
805.58	2383.84
805.76	2793.43
805.93	2428.89
806.10	2600.92
806.28	2551.77
806.45	2535.39
806.63	2422.75
806.80	2516.95
806.97	2439.13
807.15	2533.34
807.32	2514.91
807.49	2523.10
807.67	2330.59
807.84	2519.00
808.01	2324.44
808.19	2645.98
808.36	2826.20
808.54	2308.06
808.71	2371.55
808.88	2416.60
809.06	2645.98
809.23	2643.93
809.40	2312.16
809.58	2439.13
809.75	2432.99
809.92	2330.59
810.10	2768.85
810.27	2400.22
810.44	2521.05
810.62	2607.06
810.79	2521.05
810.96	2351.07
811.14	2400.22
811.31	2426.84
811.48	2547.67
811.66	2537.43
811.83	2598.87
812.00	2564.06
812.18	2463.71
812.35	2684.89
812.52	2432.99
812.69	2404.32
812.87	2396.12
813.04	2402.27
813.21	2514.91
813.39	2416.60
813.56	2387.93
813.73	2609.11
813.91	2283.49
814.08	2445.27
814.25	2488.28
814.42	2293.72
814.60	2486.23
814.77	2422.75
814.94	2463.71
815.12	2527.19
815.29	2666.46
815.46	2402.27
815.63	2473.95
815.81	2430.94
815.98	2453.47
816.15	2412.51
816.33	2412.51
816.50	2351.07
816.67	2478.04
816.84	2400.22
817.02	2385.88
817.19	2432.99
817.36	2465.75
817.53	2543.58
817.71	2351.07
817.88	2490.33
818.05	2439.13
818.22	2441.18
818.40	2621.40
818.57	2473.95
818.74	2504.67
818.91	2498.52
819.09	2519.00
819.26	2564.06
819.43	2400.22
819.60	2394.08
819.78	2576.34
819.95	2602.97
820.12	2369.50
820.29	2605.02
820.47	2625.50
820.64	2359.26
820.81	2426.84
820.98	2297.82
821.15	2514.91
821.33	2514.91
821.50	2281.44
821.67	2451.42
821.84	2371.55
822.02	2537.43
822.19	2539.48
822.36	2488.28
822.53	2471.90
822.70	2392.03
822.88	2467.80
823.05	2617.30
823.22	2488.28
823.39	2478.04
823.56	2523.10
823.74	2660.31
823.91	2338.78
824.08	2324.44
824.25	2406.36
824.42	2580.44
824.60	2310.11
824.77	2455.51
824.94	2455.51
825.11	2572.25
825.28	2297.82
825.45	2488.28
825.63	2559.96
825.80	2330.59
825.97	2580.44
826.14	2453.47
826.31	2254.81
826.48	2596.82
826.66	2277.34
826.83	2449.37
827.00	2412.51
827.17	2375.64
827.34	2392.03
827.51	2430.94
827.69	2502.62
827.86	2398.17
828.03	2410.46
828.20	2439.13
828.37	2404.32
828.54	2504.67
828.71	2435.03
828.89	2617.30
829.06	2519.00
829.23	2662.36
829.40	2424.80
829.57	2408.41
829.74	2537.43
829.91	2308.06
830.09	2289.63
830.26	2471.90
830.43	2625.50
830.60	2430.94
830.77	2498.52
830.94	2584.54
831.11	2658.26
831.28	2396.12
831.46	2564.06
831.63	2404.32
831.80	2572.25
831.97	2375.64
832.14	2416.60
832.31	2525.15
832.48	2617.30
832.65	2635.74
832.82	2475.99
832.99	2521.05
833.17	2381.79
833.34	2582.49
833.51	2473.95
833.68	2197.47
833.85	2576.34
834.02	2357.21
834.19	2316.25
834.36	2478.04
834.53	2514.91
834.70	2625.50
834.87	2514.91
835.04	2316.25
835.22	2416.60
835.39	2502.62
835.56	2277.34
835.73	2338.78
835.90	2613.21
836.07	2445.27
836.24	2539.48
836.41	2359.26
836.58	2365.40
836.75	2572.25
836.92	2412.51
837.09	2349.02
837.26	2719.70
837.43	2602.97
837.60	2408.41
837.77	2400.22
837.94	2602.97
838.12	2605.02
838.29	2353.12
838.46	2244.57
838.63	2357.21
838.80	2600.92
838.97	2467.80
839.14	2406.36
839.31	2482.14
839.48	2512.86
839.65	2471.90
839.82	2443.23
839.99	2488.28
840.16	2451.42
840.33	2387.93
840.50	2373.60
840.67	2387.93
840.84	2273.25
841.01	2428.89
841.18	2338.78
841.35	2445.27
841.52	2576.34
841.69	2744.28
841.86	2447.32
842.03	2486.23
842.20	2617.30
842.37	2383.84
842.54	2334.68
842.71	2506.71
842.88	2326.49
843.05	2424.80
843.22	2443.23
843.39	2555.86
843.56	2330.59
843.73	2359.26
843.90	2396.12
844.07	2568.15
844.24	2613.21
844.41	2473.95
844.58	2379.74
844.75	2496.47
844.92	2519.00
845.09	2420.70
845.26	2342.88
845.43	2582.49
845.60	2408.41
845.77	2447.32
845.94	2381.79
846.10	2537.43
846.27	2322.40
846.44	2365.40
846.61	2310.11
846.78	2549.72
846.95	2617.30
847.12	2398.17
847.29	2404.32
847.46	2435.03
847.63	2547.67
847.80	2375.64
847.97	2334.68
848.14	2719.70
848.31	2449.37
848.48	2308.06
848.65	2482.14
848.82	2369.50
848.98	2723.80
849.15	2480.09
849.32	2441.18
849.49	2539.48
849.66	2512.86
849.83	2332.64
850.00	2254.81
850.17	2521.05
850.34	2500.57
850.51	2322.40
850.68	2420.70
850.85	2740.18
851.01	2506.71
851.18	2394.08
851.35	2449.37
851.52	2572.25
851.69	2625.50
851.86	2295.77
852.03	2394.08
852.20	2535.39
852.37	2480.09
852.53	2318.30
852.70	2379.74
852.87	2535.39
853.04	2549.72
853.21	2396.12
853.38	2564.06
853.55	2562.01
853.72	2555.86
853.89	2312.16
854.05	2359.26
854.22	2369.50
854.39	2389.98
854.56	2342.88
854.73	2543.58
854.90	2402.27
855.07	2469.85
855.23	2314.20
855.40	2326.49
855.57	2512.86
855.74	2195.42
855.91	2570.20
856.08	2324.44
856.25	2334.68
856.41	2459.61
856.58	2441.18
856.75	2334.68
856.92	2342.88
857.09	2531.29
857.26	2238.43
857.42	2435.03
857.59	2545.63
857.76	2338.78
857.93	2383.84
858.10	2361.31
858.27	2346.97
858.43	2512.86
858.60	2351.07
858.77	2217.95
858.94	2381.79
859.11	2498.52
859.27	2410.46
859.44	2359.26
859.61	2783.19
859.78	2600.92
859.95	2392.03
860.12	2375.64
860.28	2738.13
860.45	2701.27
860.62	2383.84
860.79	2422.75
860.95	2467.80
861.12	2383.84
861.29	2375.64
861.46	2353.12
861.63	2471.90
861.79	2406.36
861.96	2279.39
862.13	2375.64
862.30	2586.58
862.47	2394.08
862.63	2269.15
862.80	2443.23
862.97	2496.47
863.14	2516.95
863.30	2371.55
863.47	2322.40
863.64	2738.13
863.81	2463.71
863.97	2336.73
864.14	2451.42
864.31	2389.98
864.48	2547.67
864.65	2396.12
864.81	2508.76
864.98	2617.30
865.15	2553.82
865.32	2414.56
865.48	2510.81
865.65	2736.09
865.82	2414.56
865.98	2453.47
866.15	2416.60
866.32	2523.10
866.49	2488.28
866.65	2537.43
866.82	2244.57
866.99	2369.50
867.16	2420.70
867.32	2412.51
867.49	2361.31
867.66	2463.71
867.83	2375.64
867.99	2273.25
868.16	2451.42
868.33	2367.45
868.49	2430.94
868.66	2404.32
868.83	2428.89
868.99	2512.86
869.16	2508.76
869.33	2473.95
869.50	2490.33
869.66	2514.91
869.83	2400.22
870.00	2334.68
870.16	2516.95
870.33	2392.03
870.50	2572.25
870.66	2416.60
870.83	2408.41
871.00	2482.14
871.17	2498.52
871.33	2443.23
871.50	2308.06
871.67	2490.33
871.83	2334.68
872.00	2496.47
872.17	2414.56
872.33	2645.98
872.50	2582.49
872.67	2349.02
872.83	2310.11
873.00	2519.00
873.17	2490.33
873.33	2467.80
873.50	2447.32
873.67	2371.55
873.83	2449.37
874.00	2363.36
874.16	2602.97
874.33	2457.56
874.50	2359.26
874.66	2375.64
874.83	2392.03
875.00	2592.73
875.16	2580.44
875.33	2492.38
875.50	2144.22
875.66	2334.68
875.83	2432.99
875.99	2467.80
876.16	2459.61
876.33	2326.49
876.49	2424.80
876.66	2451.42
876.83	2375.64
876.99	2303.96
877.16	2447.32
877.32	2400.22
877.49	2392.03
877.66	2432.99
877.82	2586.58
877.99	2402.27
878.15	2525.15
878.32	2521.05
878.49	2492.38
878.65	2437.08
878.82	2578.39
878.98	2375.64
879.15	2527.19
879.32	2471.90
879.48	2408.41
879.65	2457.56
879.81	2465.75
879.98	2363.36
880.15	2488.28
880.31	2545.63
880.48	2420.70
880.64	2502.62
880.81	2455.51
880.97	2695.13
881.14	2596.82
881.31	2346.97
881.47	2543.58
881.64	2402.27
881.80	2193.37
881.97	2480.09
882.13	2480.09
882.30	2387.93
882.47	2336.73
882.63	2359.26
882.80	2449.37
882.96	2400.22
883.13	2611.16
883.29	2455.51
883.46	2416.60
883.62	2729.94
883.79	2490.33
883.95	2488.28
884.12	2414.56
884.29	2625.50
884.45	2529.24
884.62	2441.18
884.78	2353.12
884.95	2643.93
885.11	2406.36
885.28	2439.13
885.44	2256.86
885.61	2512.86
885.77	2658.26
885.94	2473.95
886.10	2441.18
886.27	2437.08
886.43	2617.30
886.60	2574.30
886.76	2308.06
886.93	2406.36
887.09	2527.19
887.26	2195.42
887.42	2408.41
887.59	2600.92
887.75	2781.14
887.92	2498.52
888.08	2484.19
888.25	2662.36
888.41	2551.77
888.58	2439.13
888.74	2330.59
888.91	2430.94
>>>>>End Processed Spectral Data<<<<<
