SpectraSuite Data File
++++++++++++++++++++++++++++++++++++
Date: Thu May 05 14:41:27 CEST 2016
User: root
Dark Spectrum Present: No
Reference Spectrum Present: No
Number of Sampled Component Spectra: 1
Spectrometers: USB4C02835
Integration Time (usec): 100000 (USB4C02835)
Spectra Averaged: 1 (USB4C02835)
Boxcar Smoothing: 0 (USB4C02835)
Correct for Electrical Dark: No (USB4C02835)
Strobe/Lamp Enabled: No (USB4C02835)
Correct for Detector Non-linearity: No (USB4C02835)
Correct for Stray Light: No (USB4C02835)
Number of Pixels in Processed Spectrum: 3648
>>>>>Begin Processed Spectral Data<<<<<
177.47	1869.80
177.69	1869.80
177.91	1869.80
178.13	1931.23
178.36	1843.17
178.58	2330.59
178.80	2529.24
179.02	2244.57
179.24	2330.59
179.46	2293.72
179.68	2381.79
179.90	2428.89
180.13	2469.85
180.35	2248.67
180.57	2320.35
180.79	2545.63
181.01	2504.67
181.23	2375.64
181.45	2449.37
181.67	2568.15
181.90	2549.72
182.12	2392.03
182.34	2283.49
182.56	2523.10
182.78	2529.24
183.00	2287.58
183.22	2443.23
183.44	2326.49
183.66	2797.53
183.89	2449.37
184.11	2422.75
184.33	2570.20
184.55	2609.11
184.77	2301.92
184.99	2398.17
185.21	2449.37
185.43	2734.04
185.65	2256.86
185.87	2355.16
186.10	2684.89
186.32	2779.09
186.54	2414.56
186.76	2465.75
186.98	2650.07
187.20	2527.19
187.42	2344.92
187.64	2342.88
187.86	2490.33
188.08	2637.78
188.30	2314.20
188.52	2326.49
188.75	2695.13
188.97	2639.83
189.19	2349.02
189.41	2316.25
189.63	2512.86
189.85	2432.99
190.07	2228.19
190.29	2224.09
190.51	2592.73
190.73	2357.21
190.95	2443.23
191.17	2408.41
191.39	2271.20
191.61	2484.19
191.84	2392.03
192.06	2420.70
192.28	2246.62
192.50	2871.25
192.72	2420.70
192.94	2334.68
193.16	2609.11
193.38	2473.95
193.60	2211.81
193.82	2437.08
194.04	2619.35
194.26	2531.29
194.48	2369.50
194.70	2330.59
194.92	2422.75
195.14	2527.19
195.36	2351.07
195.58	2457.56
195.80	2408.41
196.02	2379.74
196.24	2389.98
196.46	2383.84
196.69	2523.10
196.91	2795.48
197.13	2334.68
197.35	2410.46
197.57	2686.94
197.79	2478.04
198.01	2342.88
198.23	2426.84
198.45	2529.24
198.67	2355.16
198.89	2252.77
199.11	2445.27
199.33	2396.12
199.55	2240.48
199.77	2355.16
199.99	2412.51
200.21	2498.52
200.43	2525.15
200.65	2273.25
200.87	2220.00
201.09	2562.01
201.31	2383.84
201.53	2340.83
201.75	2346.97
201.97	2559.96
202.19	2428.89
202.41	2398.17
202.63	2547.67
202.85	2525.15
203.07	2535.39
203.29	2418.65
203.51	2242.53
203.73	2392.03
203.95	2818.00
204.17	2289.63
204.39	2437.08
204.61	2422.75
204.83	2465.75
205.05	2506.71
205.27	2463.71
205.49	2809.81
205.71	2449.37
205.93	2224.09
206.15	2275.29
206.37	2482.14
206.59	2455.51
206.81	2217.95
207.03	2260.96
207.25	2383.84
207.47	2510.81
207.69	2383.84
207.91	2553.82
208.13	2629.59
208.34	2369.50
208.56	2408.41
208.78	2351.07
209.00	2473.95
209.22	2355.16
209.44	2379.74
209.66	2332.64
209.88	2521.05
210.10	2435.03
210.32	2330.59
210.54	2441.18
210.76	2535.39
210.98	2615.26
211.20	2248.67
211.42	2453.47
211.64	2629.59
211.86	2523.10
212.08	2402.27
212.30	2377.69
212.52	2465.75
212.74	2586.58
212.96	2449.37
213.17	2422.75
213.39	2576.34
213.61	2650.07
213.83	2367.45
214.05	2387.93
214.27	2658.26
214.49	2326.49
214.71	2328.54
214.93	2494.43
215.15	2512.86
215.37	2543.58
215.59	2273.25
215.81	2422.75
216.03	2596.82
216.24	2494.43
216.46	2336.73
216.68	2392.03
216.90	2596.82
217.12	2600.92
217.34	2256.86
217.56	2473.95
217.78	2625.50
218.00	2543.58
218.22	2377.69
218.44	2373.60
218.66	2482.14
218.87	2713.56
219.09	2365.40
219.31	2355.16
219.53	2504.67
219.75	2428.89
219.97	2375.64
220.19	2365.40
220.41	2480.09
220.63	2717.65
220.85	2449.37
221.06	2299.87
221.28	2621.40
221.50	2586.58
221.72	2346.97
221.94	2320.35
222.16	2488.28
222.38	2586.58
222.60	2336.73
222.82	2336.73
223.03	2572.25
223.25	2338.78
223.47	2363.36
223.69	2584.54
223.91	2596.82
224.13	2533.34
224.35	2211.81
224.57	2531.29
224.78	2596.82
225.00	2336.73
225.22	2439.13
225.44	2265.05
225.66	2559.96
225.88	2410.46
226.10	2457.56
226.32	2357.21
226.53	2664.41
226.75	2478.04
226.97	2381.79
227.19	2363.36
227.41	2357.21
227.63	2396.12
227.85	2250.72
228.06	2398.17
228.28	2488.28
228.50	2596.82
228.72	2256.86
228.94	2242.53
229.16	2267.10
229.37	2342.88
229.59	2277.34
229.81	2531.29
230.03	2449.37
230.25	2283.49
230.47	2252.77
230.69	2215.90
230.90	2578.39
231.12	2375.64
231.34	2357.21
231.56	2346.97
231.78	2392.03
232.00	2555.86
232.21	2420.70
232.43	2340.83
232.65	2306.01
232.87	2514.91
233.09	2236.38
233.30	2285.53
233.52	2680.79
233.74	2547.67
233.96	2308.06
234.18	2482.14
234.40	2402.27
234.61	2766.81
234.83	2201.57
235.05	2306.01
235.27	2768.85
235.49	2670.55
235.70	2373.60
235.92	2430.94
236.14	2619.35
236.36	2813.91
236.58	2217.95
236.79	2387.93
237.01	2490.33
237.23	2488.28
237.45	2521.05
237.67	2314.20
237.88	2492.38
238.10	2686.94
238.32	2275.29
238.54	2324.44
238.76	2408.41
238.97	2355.16
239.19	2260.96
239.41	2387.93
239.63	2645.98
239.85	2441.18
240.06	2346.97
240.28	2334.68
240.50	2543.58
240.72	2461.66
240.93	2344.92
241.15	2385.88
241.37	2459.61
241.59	2695.13
241.81	2365.40
242.02	2383.84
242.24	2490.33
242.46	2611.16
242.68	2242.53
242.89	2303.96
243.11	2541.53
243.33	2459.61
243.55	2381.79
243.76	2375.64
243.98	2482.14
244.20	2502.62
244.42	2318.30
244.64	2293.72
244.85	2308.06
245.07	2373.60
245.29	2408.41
245.51	2312.16
245.72	2512.86
245.94	2553.82
246.16	2346.97
246.38	2353.12
246.59	2377.69
246.81	2334.68
247.03	2265.05
247.24	2250.72
247.46	2469.85
247.68	2498.52
247.90	2287.58
248.11	2310.11
248.33	2598.87
248.55	2381.79
248.77	2422.75
248.98	2396.12
249.20	2609.11
249.42	2514.91
249.64	2326.49
249.85	2330.59
250.07	2404.32
250.29	2637.78
250.50	2406.36
250.72	2265.05
250.94	2523.10
251.16	2813.91
251.37	2455.51
251.59	2428.89
251.81	2576.34
252.02	2723.80
252.24	2334.68
252.46	2492.38
252.68	2412.51
252.89	2482.14
253.11	2179.04
253.33	2586.58
253.54	2596.82
253.76	2379.74
253.98	2269.15
254.20	2269.15
254.41	2355.16
254.63	2367.45
254.85	2295.77
255.06	2359.26
255.28	2490.33
255.50	2422.75
255.71	2359.26
255.93	2187.23
256.15	2482.14
256.36	2549.72
256.58	2265.05
256.80	2357.21
257.02	2449.37
257.23	2430.94
257.45	2441.18
257.67	2432.99
257.88	2432.99
258.10	2529.24
258.32	2377.69
258.53	2443.23
258.75	2682.84
258.97	2336.73
259.18	2351.07
259.40	2308.06
259.62	2633.69
259.83	2641.88
260.05	2353.12
260.27	2895.83
260.48	2602.97
260.70	2303.96
260.92	2293.72
261.13	2375.64
261.35	2570.20
261.57	2521.05
261.78	2258.91
262.00	2361.31
262.22	2502.62
262.43	2334.68
262.65	2306.01
262.86	2342.88
263.08	2752.47
263.30	2510.81
263.51	2232.29
263.73	2258.91
263.95	2590.68
264.16	2326.49
264.38	2297.82
264.60	2361.31
264.81	2463.71
265.03	2543.58
265.25	2590.68
265.46	2289.63
265.68	2658.26
265.89	2539.48
266.11	2263.01
266.33	2363.36
266.54	2555.86
266.76	2521.05
266.98	2469.85
267.19	2461.66
267.41	2691.03
267.62	2443.23
267.84	2160.61
268.06	2428.89
268.27	2465.75
268.49	2566.10
268.70	2424.80
268.92	2445.27
269.14	2461.66
269.35	2287.58
269.57	2349.02
269.79	2473.95
270.00	2471.90
270.22	2672.60
270.43	2248.67
270.65	2238.43
270.87	2535.39
271.08	2586.58
271.30	2494.43
271.51	2408.41
271.73	2588.63
271.95	2725.85
272.16	2326.49
272.38	2437.08
272.59	2437.08
272.81	2533.34
273.02	2379.74
273.24	2467.80
273.46	2615.26
273.67	2342.88
273.89	2242.53
274.10	2324.44
274.32	2670.55
274.54	2564.06
274.75	2414.56
274.97	2435.03
275.18	2541.53
275.40	2594.78
275.61	2422.75
275.83	2484.19
276.05	2447.32
276.26	2500.57
276.48	2416.60
276.69	2437.08
276.91	2455.51
277.12	2596.82
277.34	2551.77
277.55	2469.85
277.77	2539.48
277.99	2381.79
278.20	2306.01
278.42	2367.45
278.63	2392.03
278.85	2396.12
279.06	2359.26
279.28	2512.86
279.49	2609.11
279.71	2596.82
279.93	2463.71
280.14	2400.22
280.36	2351.07
280.57	2551.77
280.79	2473.95
281.00	2371.55
281.22	2445.27
281.43	2688.98
281.65	2209.76
281.86	2316.25
282.08	2535.39
282.29	2697.17
282.51	2263.01
282.73	2318.30
282.94	2285.53
283.16	2478.04
283.37	2553.82
283.59	2439.13
283.80	2531.29
284.02	2367.45
284.23	2449.37
284.45	2326.49
284.66	2355.16
284.88	2387.93
285.09	2441.18
285.31	2488.28
285.52	2580.44
285.74	2265.05
285.95	2486.23
286.17	2445.27
286.38	2596.82
286.60	2451.42
286.81	2324.44
287.03	2387.93
287.24	2422.75
287.46	2531.29
287.67	2416.60
287.89	2613.21
288.10	2543.58
288.32	2519.00
288.53	2594.78
288.75	2420.70
288.96	2562.01
289.18	2330.59
289.39	2394.08
289.61	2508.76
289.82	2760.66
290.04	2699.22
290.25	2283.49
290.47	2432.99
290.68	2445.27
290.90	2582.49
291.11	2291.68
291.33	2535.39
291.54	2441.18
291.76	2322.40
291.97	2471.90
292.18	2441.18
292.40	2387.93
292.61	2480.09
292.83	2648.02
293.04	2461.66
293.26	2494.43
293.47	2461.66
293.69	2275.29
293.90	2394.08
294.12	2576.34
294.33	2482.14
294.55	2357.21
294.76	2551.77
294.97	2590.68
295.19	2703.32
295.40	2299.87
295.62	2498.52
295.83	2519.00
296.05	2375.64
296.26	2502.62
296.48	2392.03
296.69	2428.89
296.90	2521.05
297.12	2510.81
297.33	2592.73
297.55	2498.52
297.76	2535.39
297.98	2490.33
298.19	2463.71
298.41	2506.71
298.62	2469.85
298.83	2605.02
299.05	2490.33
299.26	2502.62
299.48	2449.37
299.69	2539.48
299.90	2445.27
300.12	2342.88
300.33	2619.35
300.55	2488.28
300.76	2451.42
300.98	2353.12
301.19	2543.58
301.40	2439.13
301.62	2441.18
301.83	2553.82
302.05	2525.15
302.26	2484.19
302.47	2459.61
302.69	2385.88
302.90	2473.95
303.12	2166.75
303.33	2475.99
303.54	2734.04
303.76	2500.57
303.97	2416.60
304.19	2557.91
304.40	2392.03
304.61	2543.58
304.83	2637.78
305.04	2521.05
305.26	2557.91
305.47	2492.38
305.68	2389.98
305.90	2256.86
306.11	2564.06
306.33	2498.52
306.54	2297.82
306.75	2404.32
306.97	2349.02
307.18	2389.98
307.39	2398.17
307.61	2478.04
307.82	2529.24
308.04	2600.92
308.25	2295.77
308.46	2502.62
308.68	2469.85
308.89	2471.90
309.10	2537.43
309.32	2514.91
309.53	2465.75
309.74	2551.77
309.96	2324.44
310.17	2488.28
310.39	2437.08
310.60	2570.20
310.81	2410.46
311.03	2197.47
311.24	2533.34
311.45	2482.14
311.67	2627.54
311.88	2428.89
312.09	2441.18
312.31	2490.33
312.52	2424.80
312.73	2420.70
312.95	2256.86
313.16	2375.64
313.37	2521.05
313.59	2486.23
313.80	2588.63
314.01	2625.50
314.23	2387.93
314.44	2301.92
314.65	2357.21
314.87	2353.12
315.08	2426.84
315.29	2502.62
315.51	2373.60
315.72	2252.77
315.93	2514.91
316.15	2543.58
316.36	2473.95
316.57	2506.71
316.79	2349.02
317.00	2408.41
317.21	2564.06
317.43	2365.40
317.64	2465.75
317.85	2430.94
318.07	2355.16
318.28	2500.57
318.49	2645.98
318.70	2662.36
318.92	2605.02
319.13	2613.21
319.34	2611.16
319.56	2516.95
319.77	2621.40
319.98	2641.88
320.20	2514.91
320.41	2523.10
320.62	2529.24
320.83	2334.68
321.05	2602.97
321.26	2496.47
321.47	2457.56
321.69	2643.93
321.90	2326.49
322.11	2394.08
322.32	2555.86
322.54	2621.40
322.75	2445.27
322.96	2875.35
323.18	2306.01
323.39	2279.39
323.60	2318.30
323.81	2553.82
324.03	2410.46
324.24	2504.67
324.45	2480.09
324.66	2396.12
324.88	2629.59
325.09	2682.84
325.30	2387.93
325.52	2455.51
325.73	2535.39
325.94	2330.59
326.15	2381.79
326.37	2287.58
326.58	2588.63
326.79	2654.17
327.00	2359.26
327.22	2443.23
327.43	2441.18
327.64	2379.74
327.85	2490.33
328.07	2514.91
328.28	2701.27
328.49	2430.94
328.70	2482.14
328.92	2408.41
329.13	2523.10
329.34	2594.78
329.55	2652.12
329.76	2523.10
329.98	2461.66
330.19	2607.06
330.40	2455.51
330.61	2318.30
330.83	2525.15
331.04	2330.59
331.25	2457.56
331.46	2420.70
331.68	2295.77
331.89	2615.26
332.10	2400.22
332.31	2244.57
332.52	2414.56
332.74	2580.44
332.95	2273.25
333.16	2420.70
333.37	2521.05
333.58	2412.51
333.80	2478.04
334.01	2248.67
334.22	2383.84
334.43	2379.74
334.64	2404.32
334.86	2258.91
335.07	2349.02
335.28	2678.74
335.49	2271.20
335.70	2504.67
335.92	2521.05
336.13	2865.11
336.34	2521.05
336.55	2418.65
336.76	2547.67
336.98	2301.92
337.19	2367.45
337.40	2555.86
337.61	2688.98
337.82	2457.56
338.04	2469.85
338.25	2281.44
338.46	2430.94
338.67	2478.04
338.88	2357.21
339.09	2346.97
339.31	2426.84
339.52	2355.16
339.73	2318.30
339.94	2428.89
340.15	2617.30
340.36	2426.84
340.58	2496.47
340.79	2318.30
341.00	2455.51
341.21	2330.59
341.42	2600.92
341.63	2424.80
341.85	2600.92
342.06	2537.43
342.27	2369.50
342.48	2535.39
342.69	2299.87
342.90	2506.71
343.12	2562.01
343.33	2340.83
343.54	2584.54
343.75	2617.30
343.96	2383.84
344.17	2293.72
344.38	2486.23
344.60	2336.73
344.81	2414.56
345.02	2402.27
345.23	2600.92
345.44	2703.32
345.65	2492.38
345.86	2461.66
346.07	2451.42
346.29	2424.80
346.50	2514.91
346.71	2539.48
346.92	2613.21
347.13	2684.89
347.34	2422.75
347.55	2400.22
347.76	2471.90
347.98	2346.97
348.19	2453.47
348.40	2594.78
348.61	2457.56
348.82	2744.28
349.03	2469.85
349.24	2303.96
349.45	2723.80
349.66	2326.49
349.88	2443.23
350.09	2379.74
350.30	2627.54
350.51	2619.35
350.72	2547.67
350.93	2471.90
351.14	2471.90
351.35	2502.62
351.56	2512.86
351.77	2424.80
351.99	2580.44
352.20	2670.55
352.41	2564.06
352.62	2209.76
352.83	2457.56
353.04	2430.94
353.25	2385.88
353.46	2523.10
353.67	2660.31
353.88	2209.76
354.09	2334.68
354.30	2488.28
354.52	2482.14
354.73	2396.12
354.94	2392.03
355.15	2422.75
355.36	2645.98
355.57	2430.94
355.78	2422.75
355.99	2383.84
356.20	2471.90
356.41	2715.61
356.62	2502.62
356.83	2363.36
357.04	2594.78
357.25	2203.61
357.46	2396.12
357.68	2289.63
357.89	2318.30
358.10	2572.25
358.31	2426.84
358.52	2400.22
358.73	2379.74
358.94	2351.07
359.15	2299.87
359.36	2426.84
359.57	2422.75
359.78	2506.71
359.99	2529.24
360.20	2303.96
360.41	2430.94
360.62	2621.40
360.83	2457.56
361.04	2408.41
361.25	2455.51
361.46	2678.74
361.67	2523.10
361.88	2531.29
362.09	2533.34
362.30	2529.24
362.51	2373.60
362.72	2375.64
362.93	2592.73
363.14	2594.78
363.35	2449.37
363.56	2338.78
363.78	2611.16
363.99	2547.67
364.20	2285.53
364.41	2523.10
364.62	2754.52
364.83	2473.95
365.04	2367.45
365.25	2461.66
365.46	2715.61
365.67	2408.41
365.88	2447.32
366.09	2441.18
366.30	2414.56
366.51	2496.47
366.72	2291.68
366.93	2422.75
367.14	2545.63
367.35	2709.46
367.56	2402.27
367.77	2547.67
367.98	2527.19
368.18	2559.96
368.39	2555.86
368.60	2342.88
368.81	2662.36
369.02	2482.14
369.23	2408.41
369.44	2303.96
369.65	2426.84
369.86	2459.61
370.07	2521.05
370.28	2369.50
370.49	2590.68
370.70	2475.99
370.91	2308.06
371.12	2326.49
371.33	2568.15
371.54	2394.08
371.75	2537.43
371.96	2230.24
372.17	2486.23
372.38	2451.42
372.59	2478.04
372.80	2402.27
373.01	2351.07
373.22	2463.71
373.43	2394.08
373.64	2355.16
373.85	2662.36
374.06	2766.81
374.26	2588.63
374.47	2498.52
374.68	2715.61
374.89	2457.56
375.10	2340.83
375.31	2441.18
375.52	2510.81
375.73	2486.23
375.94	2324.44
376.15	2541.53
376.36	2396.12
376.57	2367.45
376.78	2432.99
376.99	2451.42
377.20	2605.02
377.40	2478.04
377.61	2645.98
377.82	2287.58
378.03	2635.74
378.24	2510.81
378.45	2455.51
378.66	2504.67
378.87	2254.81
379.08	2314.20
379.29	2418.65
379.50	2555.86
379.71	2402.27
379.91	2580.44
380.12	2389.98
380.33	2512.86
380.54	2451.42
380.75	2443.23
380.96	2443.23
381.17	2531.29
381.38	2529.24
381.59	2467.80
381.80	2443.23
382.00	2623.45
382.21	2521.05
382.42	2670.55
382.63	2717.65
382.84	2459.61
383.05	2621.40
383.26	2643.93
383.47	2504.67
383.68	2478.04
383.88	2621.40
384.09	2482.14
384.30	2631.64
384.51	2420.70
384.72	2459.61
384.93	2404.32
385.14	2424.80
385.35	2609.11
385.55	2326.49
385.76	2568.15
385.97	2457.56
386.18	2312.16
386.39	2365.40
386.60	2416.60
386.81	2414.56
387.02	2367.45
387.22	2490.33
387.43	2596.82
387.64	2635.74
387.85	2600.92
388.06	2672.60
388.27	4120.51
388.48	8347.52
388.68	12199.75
388.89	14790.43
389.10	15912.72
389.31	14855.97
389.52	11904.84
389.73	10231.65
389.93	9138.04
390.14	8427.39
390.35	7661.45
390.56	6596.51
390.77	5527.47
390.98	4235.20
391.18	3409.87
391.39	2973.65
391.60	2574.30
391.81	2557.91
392.02	2398.17
392.23	2779.09
392.43	2527.19
392.64	2568.15
392.85	2473.95
393.06	2648.02
393.27	2537.43
393.47	2389.98
393.68	2426.84
393.89	2473.95
394.10	2719.70
394.31	2324.44
394.52	2392.03
394.72	2338.78
394.93	2580.44
395.14	2312.16
395.35	2531.29
395.56	2287.58
395.76	2455.51
395.97	2514.91
396.18	2547.67
396.39	2584.54
396.60	3071.95
396.80	2783.19
397.01	2562.01
397.22	2629.59
397.43	2652.12
397.64	2514.91
397.84	2555.86
398.05	2723.80
398.26	2586.58
398.47	2602.97
398.67	2637.78
398.88	2461.66
399.09	2557.91
399.30	2490.33
399.51	2504.67
399.71	2310.11
399.92	2435.03
400.13	2484.19
400.34	2469.85
400.54	2510.81
400.75	2629.59
400.96	2432.99
401.17	2701.27
401.37	2617.30
401.58	2471.90
401.79	2418.65
402.00	2629.59
402.21	2889.68
402.41	2758.61
402.62	2805.72
402.83	2891.73
403.04	2897.88
403.24	3047.38
403.45	2658.26
403.66	2736.09
403.87	2656.22
404.07	2783.19
404.28	2668.50
404.49	2705.37
404.70	2635.74
404.90	2633.69
405.11	2506.71
405.32	2531.29
405.52	2318.30
405.73	2359.26
405.94	2306.01
406.15	2381.79
406.35	2545.63
406.56	2635.74
406.77	2514.91
406.98	2428.89
407.18	2359.26
407.39	2719.70
407.60	2424.80
407.80	2531.29
408.01	2457.56
408.22	2519.00
408.43	2402.27
408.63	2500.57
408.84	2570.20
409.05	2549.72
409.25	2408.41
409.46	2416.60
409.67	2435.03
409.88	2432.99
410.08	2465.75
410.29	2392.03
410.50	2562.01
410.70	2500.57
410.91	2383.84
411.12	2523.10
411.32	2455.51
411.53	2367.45
411.74	2502.62
411.95	2572.25
412.15	2562.01
412.36	2648.02
412.57	2621.40
412.77	2539.48
412.98	2490.33
413.19	2441.18
413.39	2469.85
413.60	2424.80
413.81	2629.59
414.01	2416.60
414.22	2514.91
414.43	2531.29
414.63	2439.13
414.84	2643.93
415.05	2486.23
415.25	2291.68
415.46	2623.45
415.67	2437.08
415.87	2535.39
416.08	2385.88
416.29	2523.10
416.49	2541.53
416.70	2346.97
416.91	2392.03
417.11	2490.33
417.32	2621.40
417.53	2547.67
417.73	2514.91
417.94	2541.53
418.15	2596.82
418.35	2467.80
418.56	2467.80
418.77	2785.24
418.97	2410.46
419.18	2385.88
419.38	2195.42
419.59	2498.52
419.80	2676.70
420.00	2400.22
420.21	2367.45
420.42	2637.78
420.62	2539.48
420.83	2379.74
421.04	2490.33
421.24	2465.75
421.45	2621.40
421.65	2471.90
421.86	2420.70
422.07	2586.58
422.27	2549.72
422.48	2471.90
422.69	2328.54
422.89	2478.04
423.10	2408.41
423.30	2330.59
423.51	2521.05
423.72	2627.54
423.92	2605.02
424.13	2310.11
424.33	2514.91
424.54	2588.63
424.75	2539.48
424.95	2686.94
425.16	2486.23
425.36	2408.41
425.57	2602.97
425.78	2523.10
425.98	2547.67
426.19	2459.61
426.39	2406.36
426.60	2506.71
426.81	2545.63
427.01	2498.52
427.22	2357.21
427.42	2269.15
427.63	2383.84
427.83	2578.39
428.04	2643.93
428.25	2514.91
428.45	2537.43
428.66	2570.20
428.86	2435.03
429.07	2508.76
429.28	2478.04
429.48	2512.86
429.69	2410.46
429.89	2484.19
430.10	2387.93
430.30	2512.86
430.51	2584.54
430.71	2406.36
430.92	2441.18
431.13	2496.47
431.33	2498.52
431.54	2553.82
431.74	2635.74
431.95	2801.62
432.15	2359.26
432.36	2437.08
432.56	2543.58
432.77	2695.13
432.98	2686.94
433.18	2461.66
433.39	2445.27
433.59	2435.03
433.80	2674.65
434.00	2768.85
434.21	2430.94
434.41	2420.70
434.62	2842.58
434.82	2349.02
435.03	2443.23
435.23	2535.39
435.44	2226.14
435.64	2424.80
435.85	2475.99
436.06	2582.49
436.26	2600.92
436.47	2437.08
436.67	2351.07
436.88	2463.71
437.08	2539.48
437.29	2627.54
437.49	2514.91
437.70	2701.27
437.90	2416.60
438.11	2703.32
438.31	2510.81
438.52	2648.02
438.72	2650.07
438.93	2742.23
439.13	2457.56
439.34	2633.69
439.54	2525.15
439.75	2588.63
439.95	2496.47
440.16	2469.85
440.36	2523.10
440.57	2568.15
440.77	2492.38
440.98	2543.58
441.18	2641.88
441.39	2375.64
441.59	2322.40
441.80	2820.05
442.00	2516.95
442.21	2545.63
442.41	2351.07
442.62	2576.34
442.82	2320.35
443.02	2488.28
443.23	2455.51
443.43	2531.29
443.64	2633.69
443.84	2381.79
444.05	2635.74
444.25	2519.00
444.46	2494.43
444.66	2441.18
444.87	2658.26
445.07	2396.12
445.28	2519.00
445.48	2656.22
445.69	2566.10
445.89	2834.39
446.09	2480.09
446.30	2852.82
446.50	3045.33
446.71	4595.64
446.91	5695.40
447.12	6631.32
447.32	7077.78
447.53	6721.43
447.73	5545.90
447.93	4804.53
448.14	4452.28
448.34	4562.87
448.55	3821.51
448.75	3833.80
448.96	3579.85
449.16	3211.22
449.36	3043.28
449.57	2764.76
449.77	2576.34
449.98	2471.90
450.18	2629.59
450.39	2494.43
450.59	2580.44
450.79	2494.43
451.00	2437.08
451.20	2498.52
451.41	2461.66
451.61	2551.77
451.81	2463.71
452.02	2373.60
452.22	2484.19
452.43	2504.67
452.63	2420.70
452.84	2494.43
453.04	2463.71
453.24	2467.80
453.45	2387.93
453.65	2432.99
453.86	2506.71
454.06	2586.58
454.26	2473.95
454.47	2398.17
454.67	2629.59
454.87	2592.73
455.08	2361.31
455.28	2625.50
455.49	2488.28
455.69	2383.84
455.89	2723.80
456.10	2662.36
456.30	2443.23
456.51	2527.19
456.71	2539.48
456.91	2555.86
457.12	2455.51
457.32	2486.23
457.52	2375.64
457.73	2463.71
457.93	2539.48
458.14	2443.23
458.34	2318.30
458.54	2326.49
458.75	2375.64
458.95	2602.97
459.15	2510.81
459.36	2519.00
459.56	2480.09
459.76	2787.29
459.97	2557.91
460.17	2488.28
460.37	2543.58
460.58	2500.57
460.78	2621.40
460.99	2430.94
461.19	2469.85
461.39	2441.18
461.60	2459.61
461.80	2523.10
462.00	2316.25
462.21	2488.28
462.41	2396.12
462.61	2295.77
462.82	2314.20
463.02	2557.91
463.22	2527.19
463.43	2541.53
463.63	2451.42
463.83	2658.26
464.04	2525.15
464.24	2430.94
464.44	2414.56
464.64	2523.10
464.85	2568.15
465.05	2545.63
465.25	2426.84
465.46	2449.37
465.66	2498.52
465.86	2545.63
466.07	2445.27
466.27	2504.67
466.47	2359.26
466.68	2308.06
466.88	2584.54
467.08	2539.48
467.29	2691.03
467.49	2449.37
467.69	2471.90
467.89	2447.32
468.10	2455.51
468.30	2510.81
468.50	2559.96
468.71	2645.98
468.91	2365.40
469.11	2639.83
469.31	2535.39
469.52	2373.60
469.72	2637.78
469.92	2619.35
470.13	2412.51
470.33	2502.62
470.53	2510.81
470.73	2901.97
470.94	3373.00
471.14	3395.53
471.34	3891.14
471.54	3702.73
471.75	3282.89
471.95	3117.01
472.15	3100.62
472.36	3033.04
472.56	2975.70
472.76	2983.89
472.96	2869.20
473.17	2746.33
473.37	2691.03
473.57	2547.67
473.77	2584.54
473.98	2498.52
474.18	2389.98
474.38	2844.63
474.58	2437.08
474.79	2396.12
474.99	2521.05
475.19	2580.44
475.39	2365.40
475.60	2553.82
475.80	2402.27
476.00	2482.14
476.20	2586.58
476.41	2545.63
476.61	2568.15
476.81	2695.13
477.01	2357.21
477.21	2703.32
477.42	2547.67
477.62	2404.32
477.82	2594.78
478.02	2461.66
478.23	2457.56
478.43	2424.80
478.63	2453.47
478.83	2422.75
479.03	2455.51
479.24	2639.83
479.44	2797.53
479.64	2334.68
479.84	2260.96
480.04	2371.55
480.25	2570.20
480.45	2367.45
480.65	2424.80
480.85	2727.89
481.06	2453.47
481.26	2586.58
481.46	2424.80
481.66	2543.58
481.86	2402.27
482.06	2639.83
482.27	2408.41
482.47	2478.04
482.67	2494.43
482.87	2445.27
483.07	2539.48
483.28	2389.98
483.48	2363.36
483.68	2488.28
483.88	2326.49
484.08	2211.81
484.29	2400.22
484.49	2510.81
484.69	2277.34
484.89	2553.82
485.09	2613.21
485.29	2645.98
485.50	2521.05
485.70	2383.84
485.90	2662.36
486.10	2535.39
486.30	2435.03
486.50	2627.54
486.71	2445.27
486.91	2539.48
487.11	2519.00
487.31	2297.82
487.51	2600.92
487.71	2383.84
487.91	2404.32
488.12	2404.32
488.32	2205.66
488.52	2424.80
488.72	2211.81
488.92	2428.89
489.12	2578.39
489.32	2551.77
489.53	2500.57
489.73	2318.30
489.93	2691.03
490.13	2420.70
490.33	2400.22
490.53	2473.95
490.73	2668.50
490.94	2275.29
491.14	2502.62
491.34	2605.02
491.54	2846.68
491.74	3389.39
491.94	4018.11
492.14	4280.25
492.34	4464.57
492.54	4091.84
492.75	3473.36
492.95	3532.75
493.15	3190.74
493.35	3221.45
493.55	3102.67
493.75	2922.45
493.95	3084.24
494.15	2850.77
494.35	2602.97
494.56	2637.78
494.76	2475.99
494.96	2543.58
495.16	2510.81
495.36	2547.67
495.56	2457.56
495.76	2416.60
495.96	2420.70
496.16	2414.56
496.36	2764.76
496.56	2502.62
496.77	2559.96
496.97	2512.86
497.17	2617.30
497.37	2383.84
497.57	2519.00
497.77	2484.19
497.97	2355.16
498.17	2449.37
498.37	2445.27
498.57	2596.82
498.77	2480.09
498.97	2584.54
499.17	2713.56
499.38	2465.75
499.58	2523.10
499.78	2572.25
499.98	2609.11
500.18	2457.56
500.38	2412.51
500.58	2707.41
500.78	3096.53
500.98	5453.74
501.18	7464.85
501.38	9328.50
501.58	10254.18
501.78	10096.49
501.98	8208.26
502.18	6875.03
502.38	5842.85
502.58	5398.45
502.78	4861.88
502.98	4767.67
503.18	4595.64
503.38	4102.08
503.59	3553.23
503.79	3348.43
503.99	3176.40
504.19	3012.56
504.39	3061.71
504.59	3164.11
504.79	3086.29
504.99	3084.24
505.19	2826.20
505.39	2684.89
505.59	2932.69
505.79	2815.96
505.99	2688.98
506.19	2605.02
506.39	2789.33
506.59	2392.03
506.79	2496.47
506.99	2586.58
507.19	2527.19
507.39	2572.25
507.59	2414.56
507.79	2379.74
507.99	2396.12
508.19	2480.09
508.39	2422.75
508.59	2504.67
508.79	2582.49
508.99	2699.22
509.19	2400.22
509.39	2639.83
509.59	2377.69
509.79	2389.98
509.99	2478.04
510.19	2629.59
510.39	2539.48
510.59	2607.06
510.79	2439.13
510.99	2308.06
511.19	2432.99
511.39	2752.47
511.59	2684.89
511.79	2627.54
511.99	2514.91
512.19	2658.26
512.38	2463.71
512.58	2396.12
512.78	2402.27
512.98	2664.41
513.18	2658.26
513.38	2310.11
513.58	2514.91
513.78	2502.62
513.98	2467.80
514.18	2441.18
514.38	2422.75
514.58	2531.29
514.78	2461.66
514.98	2363.36
515.18	2490.33
515.38	2324.44
515.58	2744.28
515.78	2381.79
515.98	2437.08
516.18	2592.73
516.38	2543.58
516.57	2387.93
516.77	2371.55
516.97	2629.59
517.17	2392.03
517.37	2265.05
517.57	2555.86
517.77	2547.67
517.97	2514.91
518.17	2584.54
518.37	2332.64
518.57	2418.65
518.77	2453.47
518.97	2428.89
519.16	2496.47
519.36	2539.48
519.56	2578.39
519.76	2428.89
519.96	2482.14
520.16	2725.85
520.36	2351.07
520.56	2576.34
520.76	2324.44
520.96	2406.36
521.16	2629.59
521.35	2580.44
521.55	2475.99
521.75	2502.62
521.95	2445.27
522.15	2379.74
522.35	2287.58
522.55	2308.06
522.75	2588.63
522.95	2400.22
523.14	2392.03
523.34	2531.29
523.54	2416.60
523.74	2492.38
523.94	2494.43
524.14	2287.58
524.34	2619.35
524.54	2658.26
524.73	2400.22
524.93	2584.54
525.13	2519.00
525.33	2373.60
525.53	2736.09
525.73	2564.06
525.93	2539.48
526.13	2439.13
526.32	2523.10
526.52	2668.50
526.72	2588.63
526.92	2465.75
527.12	2383.84
527.32	2359.26
527.52	2500.57
527.71	2447.32
527.91	2455.51
528.11	2510.81
528.31	2473.95
528.51	2371.55
528.71	2535.39
528.90	2586.58
529.10	2666.46
529.30	2543.58
529.50	2215.90
529.70	2547.67
529.90	2443.23
530.09	2461.66
530.29	2291.68
530.49	2351.07
530.69	2842.58
530.89	2498.52
531.09	2521.05
531.28	2465.75
531.48	2641.88
531.68	2535.39
531.88	2373.60
532.08	2617.30
532.28	2418.65
532.47	2562.01
532.67	2564.06
532.87	2564.06
533.07	2357.21
533.27	2551.77
533.46	2541.53
533.66	2547.67
533.86	2531.29
534.06	2394.08
534.26	2473.95
534.45	2521.05
534.65	2623.45
534.85	2471.90
535.05	2359.26
535.25	2672.60
535.44	2318.30
535.64	2564.06
535.84	2465.75
536.04	2504.67
536.24	2455.51
536.43	2324.44
536.63	2508.76
536.83	2478.04
537.03	2564.06
537.22	2291.68
537.42	2322.40
537.62	2424.80
537.82	2361.31
538.02	2559.96
538.21	2539.48
538.41	2924.50
538.61	2543.58
538.81	2494.43
539.00	2578.39
539.20	2299.87
539.40	2447.32
539.60	2420.70
539.79	2557.91
539.99	2482.14
540.19	2351.07
540.39	2494.43
540.58	2521.05
540.78	2637.78
540.98	2531.29
541.18	2670.55
541.37	2525.15
541.57	2465.75
541.77	2525.15
541.97	2400.22
542.16	2332.64
542.36	2465.75
542.56	2543.58
542.76	2740.18
542.95	2514.91
543.15	2623.45
543.35	2617.30
543.54	2375.64
543.74	2394.08
543.94	2703.32
544.14	2404.32
544.33	2615.26
544.53	2475.99
544.73	2475.99
544.93	2392.03
545.12	2437.08
545.32	2461.66
545.52	2459.61
545.71	2441.18
545.91	2398.17
546.11	2449.37
546.30	2334.68
546.50	2453.47
546.70	2514.91
546.90	2461.66
547.09	2314.20
547.29	2527.19
547.49	2547.67
547.68	2500.57
547.88	2375.64
548.08	2633.69
548.27	2871.25
548.47	2332.64
548.67	2473.95
548.87	2525.15
549.06	2424.80
549.26	2404.32
549.46	2562.01
549.65	2482.14
549.85	2519.00
550.05	2482.14
550.24	2392.03
550.44	2387.93
550.64	2478.04
550.83	2412.51
551.03	2672.60
551.23	2486.23
551.42	2478.04
551.62	2449.37
551.82	2521.05
552.01	2482.14
552.21	2645.98
552.41	2478.04
552.60	2613.21
552.80	2547.67
553.00	2371.55
553.19	2488.28
553.39	2648.02
553.59	2375.64
553.78	2445.27
553.98	2482.14
554.17	2381.79
554.37	2441.18
554.57	2562.01
554.76	2398.17
554.96	2383.84
555.16	2471.90
555.35	2449.37
555.55	2428.89
555.75	2570.20
555.94	2617.30
556.14	2334.68
556.33	2480.09
556.53	2506.71
556.73	2586.58
556.92	2547.67
557.12	2584.54
557.32	2676.70
557.51	2641.88
557.71	2488.28
557.90	2676.70
558.10	2645.98
558.30	2471.90
558.49	2439.13
558.69	2463.71
558.88	2535.39
559.08	2480.09
559.28	2463.71
559.47	2396.12
559.67	2594.78
559.86	2818.00
560.06	2465.75
560.26	2498.52
560.45	2625.50
560.65	2498.52
560.84	2623.45
561.04	2432.99
561.24	2539.48
561.43	2408.41
561.63	2660.31
561.82	2504.67
562.02	2596.82
562.22	2383.84
562.41	2414.56
562.61	2453.47
562.80	2316.25
563.00	2789.33
563.19	2486.23
563.39	2535.39
563.59	2621.40
563.78	2404.32
563.98	2316.25
564.17	2426.84
564.37	2238.43
564.56	2510.81
564.76	2330.59
564.96	2629.59
565.15	2596.82
565.35	2772.95
565.54	2445.27
565.74	2598.87
565.93	2514.91
566.13	2514.91
566.32	2551.77
566.52	2541.53
566.71	2521.05
566.91	2654.17
567.11	2613.21
567.30	2373.60
567.50	2469.85
567.69	2578.39
567.89	2453.47
568.08	2404.32
568.28	2490.33
568.47	2351.07
568.67	2596.82
568.86	2441.18
569.06	2586.58
569.25	2490.33
569.45	2349.02
569.64	2408.41
569.84	2404.32
570.04	2553.82
570.23	2396.12
570.43	2463.71
570.62	2602.97
570.82	2613.21
571.01	2340.83
571.21	2394.08
571.40	2379.74
571.60	2545.63
571.79	2496.47
571.99	2473.95
572.18	2394.08
572.38	2580.44
572.57	2359.26
572.77	2475.99
572.96	2723.80
573.16	2574.30
573.35	2514.91
573.55	2703.32
573.74	2551.77
573.94	2435.03
574.13	2424.80
574.33	2572.25
574.52	2678.74
574.71	2570.20
574.91	2484.19
575.10	2308.06
575.30	2437.08
575.49	2422.75
575.69	2406.36
575.88	2482.14
576.08	2570.20
576.27	2676.70
576.47	2521.05
576.66	2717.65
576.86	2691.03
577.05	2584.54
577.25	2482.14
577.44	2727.89
577.64	2535.39
577.83	2678.74
578.02	2447.32
578.22	2617.30
578.41	2699.22
578.61	2439.13
578.80	2295.77
579.00	2480.09
579.19	2523.10
579.39	2607.06
579.58	2586.58
579.77	2473.95
579.97	2674.65
580.16	2645.98
580.36	2600.92
580.55	2676.70
580.75	2547.67
580.94	2449.37
581.13	2742.23
581.33	2656.22
581.52	2523.10
581.72	2809.81
581.91	2662.36
582.11	2478.04
582.30	2629.59
582.49	2461.66
582.69	2699.22
582.88	2514.91
583.08	2531.29
583.27	2633.69
583.47	2572.25
583.66	2379.74
583.85	2402.27
584.05	2473.95
584.24	2582.49
584.44	2525.15
584.63	2666.46
584.82	2789.33
585.02	2623.45
585.21	2695.13
585.41	2684.89
585.60	2617.30
585.79	2828.24
585.99	2834.39
586.18	2607.06
586.37	3268.56
586.57	5058.48
586.76	15003.42
586.96	34735.60
587.15	48639.26
587.34	57363.60
587.54	62235.72
587.73	56054.95
587.93	39638.44
588.12	29810.23
588.31	24104.59
588.51	20999.87
588.70	19470.04
588.89	17258.23
589.09	15066.91
589.28	12848.96
589.47	10184.55
589.67	7964.55
589.86	6211.49
590.06	4628.41
590.25	3823.56
590.44	3274.70
590.64	2922.45
590.83	2863.06
591.02	2838.48
591.22	2623.45
591.41	2566.10
591.60	2537.43
591.80	2838.48
591.99	2396.12
592.18	2473.95
592.38	2605.02
592.57	2445.27
592.76	2531.29
592.96	2547.67
593.15	2512.86
593.34	2678.74
593.54	2498.52
593.73	2662.36
593.92	2666.46
594.12	2633.69
594.31	2613.21
594.50	2609.11
594.70	2584.54
594.89	2842.58
595.08	2373.60
595.28	2691.03
595.47	2971.60
595.66	2600.92
595.86	2375.64
596.05	2396.12
596.24	2457.56
596.43	2793.43
596.63	2594.78
596.82	2545.63
597.01	2629.59
597.21	2731.99
597.40	2449.37
597.59	2592.73
597.79	2535.39
597.98	2555.86
598.17	2600.92
598.36	2496.47
598.56	2715.61
598.75	2422.75
598.94	2527.19
599.14	2551.77
599.33	2463.71
599.52	2629.59
599.71	2535.39
599.91	2592.73
600.10	2537.43
600.29	2605.02
600.48	2572.25
600.68	2580.44
600.87	2586.58
601.06	2490.33
601.26	2512.86
601.45	2521.05
601.64	2469.85
601.83	2670.55
602.03	2482.14
602.22	2375.64
602.41	2660.31
602.60	2885.59
602.80	2633.69
602.99	2461.66
603.18	2486.23
603.37	2504.67
603.57	2463.71
603.76	2627.54
603.95	2670.55
604.14	2473.95
604.34	2408.41
604.53	2422.75
604.72	2512.86
604.91	2498.52
605.10	2445.27
605.30	2301.92
605.49	2748.37
605.68	2621.40
605.87	2580.44
606.07	2367.45
606.26	2527.19
606.45	2547.67
606.64	2539.48
606.84	2426.84
607.03	2568.15
607.22	2617.30
607.41	2463.71
607.60	2449.37
607.80	2613.21
607.99	2557.91
608.18	2525.15
608.37	2553.82
608.56	2451.42
608.76	2697.17
608.95	2744.28
609.14	2562.01
609.33	2684.89
609.52	2756.57
609.72	2533.34
609.91	2645.98
610.10	2547.67
610.29	2701.27
610.48	2596.82
610.68	2613.21
610.87	2494.43
611.06	2564.06
611.25	2441.18
611.44	2668.50
611.63	2449.37
611.83	2672.60
612.02	2267.10
612.21	2512.86
612.40	2267.10
612.59	2445.27
612.79	2365.40
612.98	2465.75
613.17	2684.89
613.36	2453.47
613.55	2713.56
613.74	2562.01
613.93	2613.21
614.13	2725.85
614.32	2738.13
614.51	2695.13
614.70	2525.15
614.89	2539.48
615.08	2564.06
615.28	2955.22
615.47	2420.70
615.66	2572.25
615.85	2502.62
616.04	2678.74
616.23	2570.20
616.42	2478.04
616.62	2484.19
616.81	2502.62
617.00	2521.05
617.19	2531.29
617.38	2447.32
617.57	2594.78
617.76	2580.44
617.95	2529.24
618.15	2629.59
618.34	2686.94
618.53	2359.26
618.72	2631.64
618.91	2596.82
619.10	2559.96
619.29	2519.00
619.48	2494.43
619.68	2338.78
619.87	2422.75
620.06	2308.06
620.25	2516.95
620.44	2461.66
620.63	2482.14
620.82	2506.71
621.01	2545.63
621.20	2512.86
621.39	2543.58
621.59	2512.86
621.78	2502.62
621.97	2461.66
622.16	2531.29
622.35	2506.71
622.54	2543.58
622.73	2488.28
622.92	2365.40
623.11	2678.74
623.30	2471.90
623.49	2525.15
623.68	2422.75
623.88	2639.83
624.07	2539.48
624.26	2392.03
624.45	2566.10
624.64	2453.47
624.83	2555.86
625.02	2392.03
625.21	2486.23
625.40	2523.10
625.59	2658.26
625.78	2426.84
625.97	2637.78
626.16	2684.89
626.35	2625.50
626.54	2422.75
626.74	2688.98
626.93	2580.44
627.12	2459.61
627.31	2670.55
627.50	2551.77
627.69	2592.73
627.88	2457.56
628.07	2432.99
628.26	2303.96
628.45	2430.94
628.64	2416.60
628.83	2506.71
629.02	2293.72
629.21	2609.11
629.40	2498.52
629.59	2369.50
629.78	2453.47
629.97	2449.37
630.16	2506.71
630.35	2422.75
630.54	2510.81
630.73	2308.06
630.92	2519.00
631.11	2426.84
631.30	2498.52
631.49	2594.78
631.68	2531.29
631.87	2514.91
632.06	2328.54
632.25	2834.39
632.44	2586.58
632.63	2539.48
632.82	2490.33
633.01	2478.04
633.20	2617.30
633.39	2451.42
633.58	2453.47
633.77	2588.63
633.96	2621.40
634.15	2590.68
634.34	2506.71
634.53	2541.53
634.72	2400.22
634.91	2375.64
635.10	2490.33
635.29	2588.63
635.48	2445.27
635.67	2404.32
635.86	2318.30
636.05	2596.82
636.24	2514.91
636.43	2443.23
636.62	2494.43
636.81	2174.94
637.00	2478.04
637.19	2480.09
637.38	2422.75
637.57	2437.08
637.76	2527.19
637.95	2605.02
638.14	2578.39
638.33	2656.22
638.52	2600.92
638.71	2402.27
638.89	2457.56
639.08	2879.44
639.27	2631.64
639.46	2779.09
639.65	3203.02
639.84	3160.02
640.03	3407.82
640.22	3209.17
640.41	3053.52
640.60	2801.62
640.79	2824.15
640.98	2598.87
641.17	2723.80
641.36	2701.27
641.55	2682.84
641.74	2461.66
641.92	2514.91
642.11	2445.27
642.30	2506.71
642.49	2437.08
642.68	2387.93
642.87	2553.82
643.06	2605.02
643.25	2449.37
643.44	2332.64
643.63	2480.09
643.82	2613.21
644.00	2355.16
644.19	2402.27
644.38	2338.78
644.57	2559.96
644.76	2539.48
644.95	2502.62
645.14	2529.24
645.33	2383.84
645.52	2426.84
645.71	2340.83
645.89	2312.16
646.08	2480.09
646.27	2373.60
646.46	2672.60
646.65	2308.06
646.84	2537.43
647.03	2314.20
647.22	2541.53
647.40	2494.43
647.59	2465.75
647.78	2252.77
647.97	2357.21
648.16	2441.18
648.35	2648.02
648.54	2605.02
648.73	2346.97
648.91	2637.78
649.10	2457.56
649.29	2344.92
649.48	2490.33
649.67	2654.17
649.86	2594.78
650.05	2564.06
650.23	2711.51
650.42	2564.06
650.61	2693.08
650.80	2621.40
650.99	2756.57
651.18	2590.68
651.36	2766.81
651.55	2404.32
651.74	2605.02
651.93	2459.61
652.12	2498.52
652.31	2545.63
652.49	2486.23
652.68	2461.66
652.87	2711.51
653.06	2559.96
653.25	2619.35
653.44	2521.05
653.62	2744.28
653.81	2529.24
654.00	2404.32
654.19	2662.36
654.38	2828.24
654.56	2547.67
654.75	2410.46
654.94	2629.59
655.13	2559.96
655.32	2486.23
655.51	2514.91
655.69	2455.51
655.88	2553.82
656.07	2332.64
656.26	2539.48
656.45	2349.02
656.63	2551.77
656.82	2437.08
657.01	2678.74
657.20	2492.38
657.38	2727.89
657.57	2416.60
657.76	2344.92
657.95	2605.02
658.14	2398.17
658.32	2533.34
658.51	2340.83
658.70	2549.72
658.89	2582.49
659.08	2576.34
659.26	2691.03
659.45	2381.79
659.64	2629.59
659.83	2494.43
660.01	2879.44
660.20	2527.19
660.39	2705.37
660.58	2263.01
660.76	2514.91
660.95	2359.26
661.14	2453.47
661.33	2277.34
661.51	2531.29
661.70	2445.27
661.89	2529.24
662.08	2400.22
662.26	2338.78
662.45	2357.21
662.64	2703.32
662.83	2521.05
663.01	2330.59
663.20	2402.27
663.39	2609.11
663.58	2310.11
663.76	2428.89
663.95	2572.25
664.14	2402.27
664.32	2398.17
664.51	2428.89
664.70	2328.54
664.89	2506.71
665.07	2369.50
665.26	2568.15
665.45	2324.44
665.64	2533.34
665.82	2432.99
666.01	2615.26
666.20	2379.74
666.38	2617.30
666.57	2674.65
666.76	3934.15
666.95	9768.81
667.13	18122.48
667.32	22832.80
667.51	26613.35
667.69	27997.78
667.88	24718.98
668.07	17635.06
668.25	14450.47
668.44	11968.33
668.63	10528.61
668.81	9230.20
669.00	7935.88
669.19	7274.38
669.38	6234.02
669.56	5281.71
669.75	4437.95
669.94	3870.66
670.12	3149.78
670.31	2928.60
670.50	2805.72
670.68	2703.32
670.87	2643.93
671.06	2482.14
671.24	2576.34
671.43	2729.94
671.62	2607.06
671.80	2500.57
671.99	2531.29
672.18	2627.54
672.36	2498.52
672.55	2506.71
672.74	2447.32
672.92	2461.66
673.11	2600.92
673.29	2297.82
673.48	2502.62
673.67	2488.28
673.85	2611.16
674.04	2312.16
674.23	2480.09
674.41	2752.47
674.60	2334.68
674.79	2242.53
674.97	2385.88
675.16	2588.63
675.34	2609.11
675.53	2385.88
675.72	2566.10
675.90	2740.18
676.09	2461.66
676.28	2457.56
676.46	2379.74
676.65	2635.74
676.83	2389.98
677.02	2506.71
677.21	2473.95
677.39	2576.34
677.58	2428.89
677.77	2422.75
677.95	2394.08
678.14	2449.37
678.32	2406.36
678.51	2404.32
678.70	2695.13
678.88	2416.60
679.07	2547.67
679.25	2488.28
679.44	2465.75
679.63	2392.03
679.81	2504.67
680.00	2586.58
680.18	2494.43
680.37	2629.59
680.55	2478.04
680.74	2412.51
680.93	2312.16
681.11	2541.53
681.30	2478.04
681.48	2506.71
681.67	2465.75
681.85	2439.13
682.04	2367.45
682.23	2596.82
682.41	2482.14
682.60	2465.75
682.78	2461.66
682.97	2365.40
683.15	2478.04
683.34	2557.91
683.53	2711.51
683.71	2377.69
683.90	2570.20
684.08	2650.07
684.27	2416.60
684.45	2512.86
684.64	2549.72
684.82	2430.94
685.01	2621.40
685.19	2430.94
685.38	2682.84
685.57	2498.52
685.75	2424.80
685.94	2455.51
686.12	2414.56
686.31	2424.80
686.49	2744.28
686.68	2285.53
686.86	2453.47
687.05	2461.66
687.23	2641.88
687.42	2412.51
687.60	2291.68
687.79	2629.59
687.97	2572.25
688.16	2586.58
688.34	2600.92
688.53	2281.44
688.71	2506.71
688.90	2594.78
689.08	2473.95
689.27	2279.39
689.45	2621.40
689.64	2643.93
689.82	2482.14
690.01	2543.58
690.19	2527.19
690.38	2449.37
690.56	2627.54
690.75	2338.78
690.93	2441.18
691.12	2371.55
691.30	2482.14
691.49	2437.08
691.67	2488.28
691.86	2695.13
692.04	2412.51
692.23	2480.09
692.41	2627.54
692.60	2736.09
692.78	2713.56
692.97	2498.52
693.15	2572.25
693.34	2711.51
693.52	2596.82
693.71	2410.46
693.89	2465.75
694.08	2269.15
694.26	2516.95
694.44	2594.78
694.63	2578.39
694.81	2375.64
695.00	2375.64
695.18	2592.73
695.37	2658.26
695.55	2508.76
695.74	2473.95
695.92	2357.21
696.10	2691.03
696.29	2310.11
696.47	2375.64
696.66	2310.11
696.84	2377.69
697.03	2496.47
697.21	2684.89
697.40	3620.81
697.58	2635.74
697.76	2480.09
697.95	2408.41
698.13	2293.72
698.32	2320.35
698.50	2488.28
698.68	2541.53
698.87	2512.86
699.05	2731.99
699.24	2494.43
699.42	2320.35
699.61	2459.61
699.79	2441.18
699.97	2490.33
700.16	2351.07
700.34	2258.91
700.53	2527.19
700.71	2594.78
700.89	2531.29
701.08	2469.85
701.26	2521.05
701.45	2996.18
701.63	2357.21
701.81	2408.41
702.00	2441.18
702.18	2473.95
702.37	2496.47
702.55	2729.94
702.73	2643.93
702.92	2596.82
703.10	2914.26
703.28	2783.19
703.47	2502.62
703.65	2744.28
703.84	2666.46
704.02	2461.66
704.20	2768.85
704.39	2430.94
704.57	2465.75
704.75	2676.70
704.94	2559.96
705.12	2547.67
705.30	2899.92
705.49	5793.70
705.67	12904.25
705.86	21210.81
706.04	24913.54
706.22	28139.09
706.41	28671.56
706.59	23164.57
706.77	16776.96
706.96	14288.68
707.14	12457.79
707.32	10702.68
707.51	9451.38
707.69	7737.23
707.87	6231.97
708.06	5111.73
708.24	4171.71
708.42	3440.59
708.61	3274.70
708.79	2660.31
708.97	2650.07
709.16	2635.74
709.34	2596.82
709.52	2508.76
709.71	2494.43
709.89	2555.86
710.07	2389.98
710.26	2357.21
710.44	2457.56
710.62	2580.44
710.80	2531.29
710.99	2584.54
711.17	2611.16
711.35	2351.07
711.54	2412.51
711.72	2605.02
711.90	2545.63
712.09	2473.95
712.27	2394.08
712.45	2496.47
712.63	2459.61
712.82	2486.23
713.00	2494.43
713.18	2596.82
713.37	2537.43
713.55	2613.21
713.73	2475.99
713.91	2539.48
714.10	2416.60
714.28	2451.42
714.46	2574.30
714.65	2512.86
714.83	2498.52
715.01	2510.81
715.19	2514.91
715.38	2346.97
715.56	2559.96
715.74	2324.44
715.92	2396.12
716.11	2625.50
716.29	2244.57
716.47	2541.53
716.65	2451.42
716.84	2269.15
717.02	2488.28
717.20	2310.11
717.38	2414.56
717.57	2527.19
717.75	2500.57
717.93	2455.51
718.11	2543.58
718.30	2332.64
718.48	2543.58
718.66	2559.96
718.84	2652.12
719.03	2441.18
719.21	2308.06
719.39	2631.64
719.57	2572.25
719.75	2473.95
719.94	2330.59
720.12	2408.41
720.30	2465.75
720.48	2539.48
720.67	2445.27
720.85	2369.50
721.03	2445.27
721.21	2367.45
721.39	2588.63
721.58	2564.06
721.76	2498.52
721.94	2512.86
722.12	2514.91
722.30	2625.50
722.49	2424.80
722.67	2432.99
722.85	2504.67
723.03	2324.44
723.21	2414.56
723.40	2514.91
723.58	2627.54
723.76	2572.25
723.94	2746.33
724.12	2525.15
724.30	2686.94
724.49	2617.30
724.67	2412.51
724.85	2605.02
725.03	2342.88
725.21	2586.58
725.40	2684.89
725.58	2306.01
725.76	2652.12
725.94	2572.25
726.12	2299.87
726.30	2465.75
726.49	2547.67
726.67	2445.27
726.85	2539.48
727.03	2955.22
727.21	4358.08
727.39	5988.26
727.57	6750.10
727.76	7475.09
727.94	7872.39
728.12	7141.27
728.30	5672.87
728.48	5038.00
728.66	4566.97
728.84	4042.69
729.03	3497.93
729.21	3248.08
729.39	2953.17
729.57	2789.33
729.75	2666.46
729.93	2617.30
730.11	2504.67
730.30	2461.66
730.48	2455.51
730.66	2631.64
730.84	2590.68
731.02	2467.80
731.20	2406.36
731.38	2455.51
731.56	2359.26
731.74	2301.92
731.93	2465.75
732.11	2502.62
732.29	2424.80
732.47	2510.81
732.65	2527.19
732.83	2635.74
733.01	2531.29
733.19	2414.56
733.37	2555.86
733.56	2490.33
733.74	2373.60
733.92	2656.22
734.10	2445.27
734.28	2473.95
734.46	2355.16
734.64	2486.23
734.82	2453.47
735.00	2342.88
735.18	2400.22
735.36	2478.04
735.54	2406.36
735.73	2469.85
735.91	2539.48
736.09	2619.35
736.27	2482.14
736.45	2475.99
736.63	2187.23
736.81	2414.56
736.99	2562.01
737.17	2592.73
737.35	2496.47
737.53	2598.87
737.71	2418.65
737.89	2625.50
738.07	2396.12
738.25	2400.22
738.43	2277.34
738.61	2396.12
738.80	2338.78
738.98	2355.16
739.16	2418.65
739.34	2408.41
739.52	2645.98
739.70	2512.86
739.88	2537.43
740.06	2615.26
740.24	2228.19
740.42	2656.22
740.60	2271.20
740.78	2338.78
740.96	2289.63
741.14	2398.17
741.32	2531.29
741.50	2263.01
741.68	2731.99
741.86	2629.59
742.04	2367.45
742.22	2404.32
742.40	2527.19
742.58	2584.54
742.76	2473.95
742.94	2627.54
743.12	2312.16
743.30	2428.89
743.48	2500.57
743.66	2424.80
743.84	2469.85
744.02	2441.18
744.20	2537.43
744.38	2312.16
744.56	2367.45
744.74	2684.89
744.92	2566.10
745.10	2652.12
745.28	2535.39
745.46	2594.78
745.64	2406.36
745.82	2543.58
746.00	2504.67
746.18	2504.67
746.36	2338.78
746.54	2519.00
746.72	2500.57
746.90	2404.32
747.08	2621.40
747.26	2414.56
747.44	2510.81
747.62	2570.20
747.80	2424.80
747.98	2574.30
748.15	2424.80
748.33	2648.02
748.51	2469.85
748.69	2562.01
748.87	2381.79
749.05	2459.61
749.23	2443.23
749.41	2475.99
749.59	2465.75
749.77	2594.78
749.95	2408.41
750.13	2383.84
750.31	2500.57
750.49	2490.33
750.67	2529.24
750.85	2600.92
751.03	2412.51
751.20	2701.27
751.38	2471.90
751.56	2424.80
751.74	2439.13
751.92	2478.04
752.10	2371.55
752.28	2605.02
752.46	2392.03
752.64	2564.06
752.82	2478.04
753.00	2600.92
753.18	2428.89
753.35	2445.27
753.53	2496.47
753.71	2383.84
753.89	2512.86
754.07	2519.00
754.25	2639.83
754.43	2457.56
754.61	2338.78
754.79	2531.29
754.97	2498.52
755.14	2631.64
755.32	2295.77
755.50	2473.95
755.68	2559.96
755.86	2336.73
756.04	2340.83
756.22	2222.05
756.40	2570.20
756.57	2660.31
756.75	2414.56
756.93	2635.74
757.11	2607.06
757.29	2346.97
757.47	2406.36
757.65	2271.20
757.82	2316.25
758.00	2371.55
758.18	2396.12
758.36	2453.47
758.54	2703.32
758.72	2228.19
758.90	2592.73
759.07	2602.97
759.25	2355.16
759.43	2486.23
759.61	2299.87
759.79	3516.36
759.97	2584.54
760.15	2373.60
760.32	2373.60
760.50	2445.27
760.68	2668.50
760.86	2310.11
761.04	2611.16
761.22	2564.06
761.39	2430.94
761.57	2531.29
761.75	2478.04
761.93	2486.23
762.11	2439.13
762.28	2525.15
762.46	2330.59
762.64	2596.82
762.82	2273.25
763.00	2414.56
763.18	2637.78
763.35	2471.90
763.53	2547.67
763.71	2457.56
763.89	2467.80
764.07	2529.24
764.24	2465.75
764.42	2586.58
764.60	2420.70
764.78	2523.10
764.96	2637.78
765.13	2545.63
765.31	2398.17
765.49	2582.49
765.67	2467.80
765.84	2412.51
766.02	2408.41
766.20	2224.09
766.38	2514.91
766.56	2504.67
766.73	2570.20
766.91	2449.37
767.09	2496.47
767.27	2557.91
767.44	2439.13
767.62	2559.96
767.80	2529.24
767.98	2445.27
768.15	2439.13
768.33	2504.67
768.51	2637.78
768.69	2539.48
768.87	2502.62
769.04	2465.75
769.22	2809.81
769.40	2572.25
769.58	2578.39
769.75	2473.95
769.93	2617.30
770.11	2420.70
770.28	2318.30
770.46	2623.45
770.64	2584.54
770.82	2441.18
770.99	2406.36
771.17	2519.00
771.35	2459.61
771.53	2435.03
771.70	2375.64
771.88	2613.21
772.06	2478.04
772.23	2396.12
772.41	2514.91
772.59	2484.19
772.77	2340.83
772.94	2408.41
773.12	2502.62
773.30	2349.02
773.47	2553.82
773.65	2412.51
773.83	2588.63
774.01	2486.23
774.18	2252.77
774.36	2441.18
774.54	2299.87
774.71	2514.91
774.89	2277.34
775.07	2392.03
775.24	2424.80
775.42	2412.51
775.60	2660.31
775.78	2334.68
775.95	2275.29
776.13	2330.59
776.31	2277.34
776.48	2514.91
776.66	2568.15
776.84	2420.70
777.01	2408.41
777.19	2342.88
777.37	2459.61
777.54	2523.10
777.72	2674.65
777.90	2539.48
778.07	2340.83
778.25	2891.73
778.43	2625.50
778.60	2375.64
778.78	2535.39
778.96	2566.10
779.13	2349.02
779.31	2543.58
779.49	2349.02
779.66	2514.91
779.84	2465.75
780.01	2473.95
780.19	2338.78
780.37	2574.30
780.54	2531.29
780.72	2308.06
780.90	2428.89
781.07	2443.23
781.25	2486.23
781.43	2543.58
781.60	2416.60
781.78	2559.96
781.95	2586.58
782.13	2355.16
782.31	2408.41
782.48	2275.29
782.66	2478.04
782.83	2697.17
783.01	2453.47
783.19	2592.73
783.36	2516.95
783.54	2291.68
783.72	2447.32
783.89	2463.71
784.07	2443.23
784.24	2553.82
784.42	2588.63
784.60	2482.14
784.77	2537.43
784.95	2185.18
785.12	2406.36
785.30	2588.63
785.47	2312.16
785.65	2416.60
785.83	2412.51
786.00	2480.09
786.18	2498.52
786.35	2357.21
786.53	2359.26
786.71	2652.12
786.88	2559.96
787.06	2523.10
787.23	2432.99
787.41	2351.07
787.58	2465.75
787.76	2359.26
787.94	2418.65
788.11	2516.95
788.29	2357.21
788.46	2373.60
788.64	2271.20
788.81	2498.52
788.99	2351.07
789.16	2342.88
789.34	2435.03
789.52	2373.60
789.69	2426.84
789.87	2330.59
790.04	2371.55
790.22	2496.47
790.39	2662.36
790.57	2318.30
790.74	2342.88
790.92	2580.44
791.09	2285.53
791.27	2490.33
791.44	2631.64
791.62	2469.85
791.79	2572.25
791.97	2498.52
792.15	2699.22
792.32	2523.10
792.50	2719.70
792.67	2627.54
792.85	2660.31
793.02	2494.43
793.20	2357.21
793.37	2336.73
793.55	2410.46
793.72	2332.64
793.90	2566.10
794.07	2463.71
794.25	2363.36
794.42	2482.14
794.60	2432.99
794.77	2457.56
794.95	2555.86
795.12	2594.78
795.30	2367.45
795.47	2209.76
795.65	2717.65
795.82	2519.00
796.00	2406.36
796.17	2447.32
796.34	2396.12
796.52	2504.67
796.69	2510.81
796.87	2473.95
797.04	2572.25
797.22	2596.82
797.39	2465.75
797.57	2496.47
797.74	2576.34
797.92	2537.43
798.09	2441.18
798.27	2596.82
798.44	2400.22
798.62	2408.41
798.79	2527.19
798.96	2506.71
799.14	2439.13
799.31	2768.85
799.49	2473.95
799.66	2400.22
799.84	2428.89
800.01	2285.53
800.19	2564.06
800.36	2211.81
800.53	2437.08
800.71	2545.63
800.88	2605.02
801.06	2422.75
801.23	2387.93
801.41	2510.81
801.58	2369.50
801.75	2349.02
801.93	2498.52
802.10	2562.01
802.28	2424.80
802.45	2457.56
802.63	2572.25
802.80	2541.53
802.97	2478.04
803.15	2498.52
803.32	2447.32
803.50	2449.37
803.67	2359.26
803.84	2418.65
804.02	2490.33
804.19	2455.51
804.37	2277.34
804.54	2351.07
804.71	2439.13
804.89	2473.95
805.06	2394.08
805.24	2387.93
805.41	2271.20
805.58	2408.41
805.76	2758.61
805.93	2426.84
806.10	2621.40
806.28	2609.11
806.45	2506.71
806.63	2508.76
806.80	2475.99
806.97	2490.33
807.15	2490.33
807.32	2385.88
807.49	2432.99
807.67	2324.44
807.84	2549.72
808.01	2244.57
808.19	2695.13
808.36	2789.33
808.54	2412.51
808.71	2394.08
808.88	2547.67
809.06	2572.25
809.23	2635.74
809.40	2412.51
809.58	2494.43
809.75	2527.19
809.92	2369.50
810.10	2799.57
810.27	2471.90
810.44	2531.29
810.62	2488.28
810.79	2516.95
810.96	2406.36
811.14	2449.37
811.31	2529.24
811.48	2564.06
811.66	2437.08
811.83	2619.35
812.00	2457.56
812.18	2551.77
812.35	2699.22
812.52	2365.40
812.69	2406.36
812.87	2422.75
813.04	2349.02
813.21	2455.51
813.39	2463.71
813.56	2359.26
813.73	2586.58
813.91	2281.44
814.08	2545.63
814.25	2521.05
814.42	2297.82
814.60	2478.04
814.77	2521.05
814.94	2412.51
815.12	2430.94
815.29	2639.83
815.46	2375.64
815.63	2500.57
815.81	2414.56
815.98	2392.03
816.15	2441.18
816.33	2357.21
816.50	2414.56
816.67	2478.04
816.84	2461.66
817.02	2349.02
817.19	2418.65
817.36	2574.30
817.53	2521.05
817.71	2353.12
817.88	2490.33
818.05	2439.13
818.22	2424.80
818.40	2627.54
818.57	2430.94
818.74	2519.00
818.91	2430.94
819.09	2555.86
819.26	2559.96
819.43	2414.56
819.60	2422.75
819.78	2449.37
819.95	2576.34
820.12	2351.07
820.29	2625.50
820.47	2623.45
820.64	2416.60
820.81	2283.49
820.98	2385.88
821.15	2349.02
821.33	2541.53
821.50	2260.96
821.67	2559.96
821.84	2416.60
822.02	2465.75
822.19	2547.67
822.36	2498.52
822.53	2412.51
822.70	2310.11
822.88	2357.21
823.05	2594.78
823.22	2416.60
823.39	2496.47
823.56	2443.23
823.74	2705.37
823.91	2326.49
824.08	2387.93
824.25	2381.79
824.42	2674.65
824.60	2318.30
824.77	2490.33
824.94	2441.18
825.11	2541.53
825.28	2342.88
825.45	2490.33
825.63	2447.32
825.80	2377.69
825.97	2531.29
826.14	2467.80
826.31	2273.25
826.48	2572.25
826.66	2346.97
826.83	2449.37
827.00	2482.14
827.17	2387.93
827.34	2381.79
827.51	2369.50
827.69	2449.37
827.86	2310.11
828.03	2459.61
828.20	2465.75
828.37	2332.64
828.54	2471.90
828.71	2494.43
828.89	2586.58
829.06	2492.38
829.23	2711.51
829.40	2351.07
829.57	2392.03
829.74	2551.77
829.91	2416.60
830.09	2410.46
830.26	2416.60
830.43	2590.68
830.60	2496.47
830.77	2508.76
830.94	2578.39
831.11	2564.06
831.28	2463.71
831.46	2492.38
831.63	2424.80
831.80	2586.58
831.97	2293.72
832.14	2398.17
832.31	2541.53
832.48	2531.29
832.65	2576.34
832.82	2494.43
832.99	2494.43
833.17	2346.97
833.34	2588.63
833.51	2570.20
833.68	2320.35
833.85	2514.91
834.02	2383.84
834.19	2383.84
834.36	2346.97
834.53	2514.91
834.70	2596.82
834.87	2525.15
835.04	2306.01
835.22	2389.98
835.39	2416.60
835.56	2267.10
835.73	2359.26
835.90	2654.17
836.07	2379.74
836.24	2510.81
836.41	2351.07
836.58	2365.40
836.75	2555.86
836.92	2426.84
837.09	2381.79
837.26	2605.02
837.43	2545.63
837.60	2441.18
837.77	2359.26
837.94	2551.77
838.12	2617.30
838.29	2414.56
838.46	2289.63
838.63	2291.68
838.80	2631.64
838.97	2449.37
839.14	2396.12
839.31	2508.76
839.48	2572.25
839.65	2375.64
839.82	2373.60
839.99	2514.91
840.16	2531.29
840.33	2246.62
840.50	2441.18
840.67	2412.51
840.84	2232.29
841.01	2346.97
841.18	2349.02
841.35	2424.80
841.52	2547.67
841.69	2627.54
841.86	2398.17
842.03	2473.95
842.20	2512.86
842.37	2396.12
842.54	2459.61
842.71	2469.85
842.88	2277.34
843.05	2400.22
843.22	2377.69
843.39	2521.05
843.56	2412.51
843.73	2412.51
843.90	2392.03
844.07	2506.71
844.24	2568.15
844.41	2441.18
844.58	2346.97
844.75	2498.52
844.92	2502.62
845.09	2365.40
845.26	2379.74
845.43	2576.34
845.60	2453.47
845.77	2490.33
845.94	2420.70
846.10	2523.10
846.27	2273.25
846.44	2285.53
846.61	2340.83
846.78	2512.86
846.95	2592.73
847.12	2396.12
847.29	2320.35
847.46	2342.88
847.63	2613.21
847.80	2314.20
847.97	2389.98
848.14	2766.81
848.31	2457.56
848.48	2281.44
848.65	2373.60
848.82	2400.22
848.98	2783.19
849.15	2432.99
849.32	2510.81
849.49	2500.57
849.66	2494.43
849.83	2369.50
850.00	2293.72
850.17	2512.86
850.34	2398.17
850.51	2369.50
850.68	2398.17
850.85	2779.09
851.01	2541.53
851.18	2351.07
851.35	2379.74
851.52	2531.29
851.69	2650.07
851.86	2283.49
852.03	2387.93
852.20	2502.62
852.37	2420.70
852.53	2295.77
852.70	2334.68
852.87	2557.91
853.04	2539.48
853.21	2383.84
853.38	2539.48
853.55	2629.59
853.72	2594.78
853.89	2301.92
854.05	2365.40
854.22	2416.60
854.39	2633.69
854.56	2457.56
854.73	2523.10
854.90	2416.60
855.07	2400.22
855.23	2279.39
855.40	2367.45
855.57	2510.81
855.74	2217.95
855.91	2568.15
856.08	2287.58
856.25	2291.68
856.41	2426.84
856.58	2381.79
856.75	2408.41
856.92	2357.21
857.09	2600.92
857.26	2250.72
857.42	2406.36
857.59	2564.06
857.76	2422.75
857.93	2457.56
858.10	2404.32
858.27	2404.32
858.43	2437.08
858.60	2338.78
858.77	2248.67
858.94	2426.84
859.11	2674.65
859.27	2387.93
859.44	2340.83
859.61	2736.09
859.78	2598.87
859.95	2381.79
860.12	2383.84
860.28	2717.65
860.45	2723.80
860.62	2383.84
860.79	2408.41
860.95	2432.99
861.12	2396.12
861.29	2314.20
861.46	2346.97
861.63	2498.52
861.79	2539.48
861.96	2334.68
862.13	2363.36
862.30	2693.08
862.47	2381.79
862.63	2244.57
862.80	2484.19
862.97	2553.82
863.14	2523.10
863.30	2428.89
863.47	2355.16
863.64	2643.93
863.81	2490.33
863.97	2310.11
864.14	2482.14
864.31	2414.56
864.48	2502.62
864.65	2396.12
864.81	2545.63
864.98	2531.29
865.15	2609.11
865.32	2420.70
865.48	2519.00
865.65	2713.56
865.82	2432.99
865.98	2414.56
866.15	2426.84
866.32	2447.32
866.49	2402.27
866.65	2529.24
866.82	2326.49
866.99	2432.99
867.16	2486.23
867.32	2369.50
867.49	2338.78
867.66	2400.22
867.83	2410.46
867.99	2303.96
868.16	2402.27
868.33	2310.11
868.49	2453.47
868.66	2379.74
868.83	2426.84
868.99	2516.95
869.16	2432.99
869.33	2486.23
869.50	2439.13
869.66	2494.43
869.83	2469.85
870.00	2299.87
870.16	2506.71
870.33	2486.23
870.50	2596.82
870.66	2375.64
870.83	2463.71
871.00	2473.95
871.17	2498.52
871.33	2463.71
871.50	2344.92
871.67	2439.13
871.83	2291.68
872.00	2490.33
872.17	2394.08
872.33	2637.78
872.50	2547.67
872.67	2330.59
872.83	2396.12
873.00	2547.67
873.17	2473.95
873.33	2437.08
873.50	2428.89
873.67	2351.07
873.83	2396.12
874.00	2342.88
874.16	2525.15
874.33	2478.04
874.50	2328.54
874.66	2396.12
874.83	2426.84
875.00	2613.21
875.16	2594.78
875.33	2443.23
875.50	2203.61
875.66	2439.13
875.83	2441.18
875.99	2410.46
876.16	2351.07
876.33	2396.12
876.49	2484.19
876.66	2443.23
876.83	2422.75
876.99	2291.68
877.16	2379.74
877.32	2340.83
877.49	2363.36
877.66	2475.99
877.82	2660.31
877.99	2457.56
878.15	2490.33
878.32	2535.39
878.49	2523.10
878.65	2371.55
878.82	2572.25
878.98	2449.37
879.15	2527.19
879.32	2455.51
879.48	2437.08
879.65	2490.33
879.81	2398.17
879.98	2351.07
880.15	2326.49
880.31	2557.91
880.48	2359.26
880.64	2473.95
880.81	2490.33
880.97	2740.18
881.14	2621.40
881.31	2310.11
881.47	2619.35
881.64	2406.36
881.80	2285.53
881.97	2453.47
882.13	2447.32
882.30	2260.96
882.47	2396.12
882.63	2334.68
882.80	2355.16
882.96	2465.75
883.13	2600.92
883.29	2406.36
883.46	2416.60
883.62	2723.80
883.79	2537.43
883.95	2484.19
884.12	2424.80
884.29	2572.25
884.45	2533.34
884.62	2406.36
884.78	2334.68
884.95	2695.13
885.11	2381.79
885.28	2406.36
885.44	2379.74
885.61	2553.82
885.77	2584.54
885.94	2439.13
886.10	2346.97
886.27	2465.75
886.43	2686.94
886.60	2568.15
886.76	2404.32
886.93	2359.26
887.09	2543.58
887.26	2260.96
887.42	2426.84
887.59	2607.06
887.75	2744.28
887.92	2568.15
888.08	2437.08
888.25	2654.17
888.41	2559.96
888.58	2486.23
888.74	2318.30
888.91	2437.08
>>>>>End Processed Spectral Data<<<<<
