SpectraSuite Data File
++++++++++++++++++++++++++++++++++++
Date: Thu May 05 14:41:38 CEST 2016
User: root
Dark Spectrum Present: No
Reference Spectrum Present: No
Number of Sampled Component Spectra: 1
Spectrometers: USB4C02835
Integration Time (usec): 100000 (USB4C02835)
Spectra Averaged: 1 (USB4C02835)
Boxcar Smoothing: 0 (USB4C02835)
Correct for Electrical Dark: No (USB4C02835)
Strobe/Lamp Enabled: No (USB4C02835)
Correct for Detector Non-linearity: No (USB4C02835)
Correct for Stray Light: No (USB4C02835)
Number of Pixels in Processed Spectrum: 3648
>>>>>Begin Processed Spectral Data<<<<<
177.47	1888.23
177.69	1888.23
177.91	1888.23
178.13	1906.66
178.36	1951.71
178.58	2332.64
178.80	2516.95
179.02	2263.01
179.24	2351.07
179.46	2340.83
179.68	2371.55
179.90	2484.19
180.13	2473.95
180.35	2263.01
180.57	2406.36
180.79	2580.44
181.01	2457.56
181.23	2400.22
181.45	2367.45
181.67	2600.92
181.90	2574.30
182.12	2314.20
182.34	2281.44
182.56	2564.06
182.78	2459.61
183.00	2324.44
183.22	2418.65
183.44	2213.85
183.66	2779.09
183.89	2488.28
184.11	2375.64
184.33	2545.63
184.55	2678.74
184.77	2301.92
184.99	2346.97
185.21	2326.49
185.43	2738.13
185.65	2338.78
185.87	2285.53
186.10	2768.85
186.32	2744.28
186.54	2469.85
186.76	2428.89
186.98	2605.02
187.20	2473.95
187.42	2365.40
187.64	2297.82
187.86	2531.29
188.08	2572.25
188.30	2318.30
188.52	2389.98
188.75	2609.11
188.97	2609.11
189.19	2392.03
189.41	2316.25
189.63	2562.01
189.85	2455.51
190.07	2217.95
190.29	2220.00
190.51	2482.14
190.73	2326.49
190.95	2445.27
191.17	2418.65
191.39	2306.01
191.61	2441.18
191.84	2379.74
192.06	2406.36
192.28	2195.42
192.50	2820.05
192.72	2455.51
192.94	2379.74
193.16	2645.98
193.38	2551.77
193.60	2330.59
193.82	2453.47
194.04	2555.86
194.26	2557.91
194.48	2344.92
194.70	2322.40
194.92	2471.90
195.14	2570.20
195.36	2332.64
195.58	2422.75
195.80	2529.24
196.02	2455.51
196.24	2355.16
196.46	2365.40
196.69	2377.69
196.91	2754.52
197.13	2351.07
197.35	2332.64
197.57	2635.74
197.79	2613.21
198.01	2416.60
198.23	2404.32
198.45	2547.67
198.67	2406.36
198.89	2295.77
199.11	2396.12
199.33	2359.26
199.55	2230.24
199.77	2303.96
199.99	2469.85
200.21	2396.12
200.43	2508.76
200.65	2215.90
200.87	2209.76
201.09	2469.85
201.31	2453.47
201.53	2318.30
201.75	2455.51
201.97	2498.52
202.19	2414.56
202.41	2424.80
202.63	2498.52
202.85	2531.29
203.07	2420.70
203.29	2349.02
203.51	2265.05
203.73	2424.80
203.95	2875.35
204.17	2365.40
204.39	2445.27
204.61	2492.38
204.83	2400.22
205.05	2424.80
205.27	2478.04
205.49	2867.16
205.71	2492.38
205.93	2195.42
206.15	2203.61
206.37	2502.62
206.59	2426.84
206.81	2277.34
207.03	2203.61
207.25	2375.64
207.47	2590.68
207.69	2414.56
207.91	2562.01
208.13	2637.78
208.34	2392.03
208.56	2318.30
208.78	2346.97
209.00	2371.55
209.22	2455.51
209.44	2371.55
209.66	2314.20
209.88	2510.81
210.10	2412.51
210.32	2416.60
210.54	2455.51
210.76	2562.01
210.98	2609.11
211.20	2201.57
211.42	2416.60
211.64	2684.89
211.86	2469.85
212.08	2367.45
212.30	2355.16
212.52	2408.41
212.74	2539.48
212.96	2414.56
213.17	2379.74
213.39	2547.67
213.61	2633.69
213.83	2389.98
214.05	2406.36
214.27	2594.78
214.49	2392.03
214.71	2283.49
214.93	2435.03
215.15	2467.80
215.37	2668.50
215.59	2238.43
215.81	2400.22
216.03	2695.13
216.24	2566.10
216.46	2367.45
216.68	2375.64
216.90	2572.25
217.12	2523.10
217.34	2373.60
217.56	2455.51
217.78	2656.22
218.00	2627.54
218.22	2334.68
218.44	2277.34
218.66	2478.04
218.87	2783.19
219.09	2295.77
219.31	2344.92
219.53	2494.43
219.75	2439.13
219.97	2408.41
220.19	2414.56
220.41	2465.75
220.63	2727.89
220.85	2383.84
221.06	2383.84
221.28	2600.92
221.50	2572.25
221.72	2342.88
221.94	2293.72
222.16	2545.63
222.38	2588.63
222.60	2437.08
222.82	2398.17
223.03	2572.25
223.25	2324.44
223.47	2389.98
223.69	2537.43
223.91	2609.11
224.13	2514.91
224.35	2303.96
224.57	2463.71
224.78	2621.40
225.00	2375.64
225.22	2453.47
225.44	2342.88
225.66	2566.10
225.88	2457.56
226.10	2432.99
226.32	2387.93
226.53	2629.59
226.75	2471.90
226.97	2394.08
227.19	2404.32
227.41	2400.22
227.63	2389.98
227.85	2217.95
228.06	2359.26
228.28	2541.53
228.50	2555.86
228.72	2176.99
228.94	2252.77
229.16	2326.49
229.37	2351.07
229.59	2252.77
229.81	2531.29
230.03	2426.84
230.25	2369.50
230.47	2283.49
230.69	2273.25
230.90	2566.10
231.12	2416.60
231.34	2392.03
231.56	2494.43
231.78	2363.36
232.00	2545.63
232.21	2322.40
232.43	2344.92
232.65	2154.46
232.87	2553.82
233.09	2252.77
233.30	2310.11
233.52	2564.06
233.74	2496.47
233.96	2342.88
234.18	2478.04
234.40	2506.71
234.61	2721.75
234.83	2314.20
235.05	2320.35
235.27	2777.05
235.49	2650.07
235.70	2244.57
235.92	2449.37
236.14	2545.63
236.36	2781.14
236.58	2238.43
236.79	2406.36
237.01	2488.28
237.23	2512.86
237.45	2627.54
237.67	2387.93
237.88	2516.95
238.10	2625.50
238.32	2273.25
238.54	2346.97
238.76	2465.75
238.97	2396.12
239.19	2263.01
239.41	2396.12
239.63	2645.98
239.85	2426.84
240.06	2316.25
240.28	2334.68
240.50	2555.86
240.72	2510.81
240.93	2293.72
241.15	2439.13
241.37	2435.03
241.59	2654.17
241.81	2326.49
242.02	2355.16
242.24	2492.38
242.46	2506.71
242.68	2195.42
242.89	2318.30
243.11	2504.67
243.33	2418.65
243.55	2410.46
243.76	2453.47
243.98	2387.93
244.20	2432.99
244.42	2351.07
244.64	2379.74
244.85	2361.31
245.07	2357.21
245.29	2365.40
245.51	2408.41
245.72	2461.66
245.94	2541.53
246.16	2351.07
246.38	2379.74
246.59	2355.16
246.81	2410.46
247.03	2310.11
247.24	2209.76
247.46	2447.32
247.68	2461.66
247.90	2312.16
248.11	2330.59
248.33	2584.54
248.55	2424.80
248.77	2377.69
248.98	2465.75
249.20	2643.93
249.42	2508.76
249.64	2334.68
249.85	2342.88
250.07	2435.03
250.29	2600.92
250.50	2422.75
250.72	2332.64
250.94	2523.10
251.16	2709.46
251.37	2437.08
251.59	2521.05
251.81	2609.11
252.02	2645.98
252.24	2260.96
252.46	2545.63
252.68	2410.46
252.89	2396.12
253.11	2195.42
253.33	2461.66
253.54	2703.32
253.76	2416.60
253.98	2346.97
254.20	2346.97
254.41	2314.20
254.63	2496.47
254.85	2228.19
255.06	2408.41
255.28	2541.53
255.50	2447.32
255.71	2328.54
255.93	2256.86
256.15	2480.09
256.36	2547.67
256.58	2279.39
256.80	2289.63
257.02	2445.27
257.23	2508.76
257.45	2398.17
257.67	2420.70
257.88	2400.22
258.10	2488.28
258.32	2332.64
258.53	2351.07
258.75	2719.70
258.97	2428.89
259.18	2301.92
259.40	2303.96
259.62	2695.13
259.83	2682.84
260.05	2355.16
260.27	2891.73
260.48	2629.59
260.70	2265.05
260.92	2308.06
261.13	2326.49
261.35	2502.62
261.57	2592.73
261.78	2308.06
262.00	2322.40
262.22	2523.10
262.43	2365.40
262.65	2353.12
262.86	2373.60
263.08	2764.76
263.30	2457.56
263.51	2176.99
263.73	2299.87
263.95	2637.78
264.16	2383.84
264.38	2299.87
264.60	2351.07
264.81	2392.03
265.03	2619.35
265.25	2525.15
265.46	2240.48
265.68	2682.84
265.89	2570.20
266.11	2220.00
266.33	2416.60
266.54	2645.98
266.76	2547.67
266.98	2430.94
267.19	2379.74
267.41	2686.94
267.62	2471.90
267.84	2185.18
268.06	2465.75
268.27	2500.57
268.49	2684.89
268.70	2428.89
268.92	2375.64
269.14	2416.60
269.35	2349.02
269.57	2357.21
269.79	2465.75
270.00	2383.84
270.22	2662.36
270.43	2275.29
270.65	2279.39
270.87	2519.00
271.08	2535.39
271.30	2455.51
271.51	2387.93
271.73	2613.21
271.95	2637.78
272.16	2422.75
272.38	2494.43
272.59	2396.12
272.81	2580.44
273.02	2322.40
273.24	2396.12
273.46	2568.15
273.67	2287.58
273.89	2269.15
274.10	2351.07
274.32	2551.77
274.54	2490.33
274.75	2461.66
274.97	2373.60
275.18	2564.06
275.40	2557.91
275.61	2351.07
275.83	2406.36
276.05	2312.16
276.26	2465.75
276.48	2394.08
276.69	2443.23
276.91	2371.55
277.12	2740.18
277.34	2416.60
277.55	2555.86
277.77	2453.47
277.99	2469.85
278.20	2318.30
278.42	2334.68
278.63	2400.22
278.85	2396.12
279.06	2328.54
279.28	2375.64
279.49	2631.64
279.71	2584.54
279.93	2486.23
280.14	2432.99
280.36	2455.51
280.57	2576.34
280.79	2457.56
281.00	2289.63
281.22	2441.18
281.43	2594.78
281.65	2269.15
281.86	2318.30
282.08	2506.71
282.29	2760.66
282.51	2328.54
282.73	2277.34
282.94	2367.45
283.16	2586.58
283.37	2541.53
283.59	2430.94
283.80	2514.91
284.02	2383.84
284.23	2478.04
284.45	2371.55
284.66	2330.59
284.88	2367.45
285.09	2398.17
285.31	2512.86
285.52	2498.52
285.74	2334.68
285.95	2455.51
286.17	2514.91
286.38	2674.65
286.60	2453.47
286.81	2422.75
287.03	2381.79
287.24	2555.86
287.46	2572.25
287.67	2502.62
287.89	2539.48
288.10	2363.36
288.32	2482.14
288.53	2633.69
288.75	2453.47
288.96	2600.92
289.18	2453.47
289.39	2330.59
289.61	2469.85
289.82	2666.46
290.04	2658.26
290.25	2301.92
290.47	2428.89
290.68	2508.76
290.90	2545.63
291.11	2254.81
291.33	2529.24
291.54	2365.40
291.76	2353.12
291.97	2416.60
292.18	2482.14
292.40	2504.67
292.61	2422.75
292.83	2707.41
293.04	2488.28
293.26	2500.57
293.47	2516.95
293.69	2392.03
293.90	2412.51
294.12	2709.46
294.33	2437.08
294.55	2400.22
294.76	2553.82
294.97	2668.50
295.19	2748.37
295.40	2365.40
295.62	2478.04
295.83	2580.44
296.05	2383.84
296.26	2551.77
296.48	2275.29
296.69	2447.32
296.90	2465.75
297.12	2572.25
297.33	2559.96
297.55	2488.28
297.76	2572.25
297.98	2572.25
298.19	2455.51
298.41	2412.51
298.62	2439.13
298.83	2512.86
299.05	2494.43
299.26	2473.95
299.48	2375.64
299.69	2473.95
299.90	2385.88
300.12	2318.30
300.33	2566.10
300.55	2420.70
300.76	2453.47
300.98	2389.98
301.19	2541.53
301.40	2389.98
301.62	2469.85
301.83	2564.06
302.05	2498.52
302.26	2455.51
302.47	2420.70
302.69	2373.60
302.90	2506.71
303.12	2217.95
303.33	2455.51
303.54	2715.61
303.76	2416.60
303.97	2443.23
304.19	2609.11
304.40	2414.56
304.61	2475.99
304.83	2584.54
305.04	2482.14
305.26	2576.34
305.47	2441.18
305.68	2465.75
305.90	2355.16
306.11	2660.31
306.33	2457.56
306.54	2328.54
306.75	2369.50
306.97	2383.84
307.18	2424.80
307.39	2373.60
307.61	2465.75
307.82	2461.66
308.04	2535.39
308.25	2281.44
308.46	2584.54
308.68	2422.75
308.89	2430.94
309.10	2523.10
309.32	2510.81
309.53	2432.99
309.74	2506.71
309.96	2373.60
310.17	2625.50
310.39	2469.85
310.60	2510.81
310.81	2482.14
311.03	2363.36
311.24	2559.96
311.45	2482.14
311.67	2602.97
311.88	2510.81
312.09	2488.28
312.31	2367.45
312.52	2361.31
312.73	2389.98
312.95	2293.72
313.16	2392.03
313.37	2588.63
313.59	2502.62
313.80	2504.67
314.01	2750.42
314.23	2344.92
314.44	2363.36
314.65	2279.39
314.87	2371.55
315.08	2428.89
315.29	2467.80
315.51	2349.02
315.72	2353.12
315.93	2559.96
316.15	2494.43
316.36	2437.08
316.57	2439.13
316.79	2490.33
317.00	2387.93
317.21	2564.06
317.43	2383.84
317.64	2439.13
317.85	2301.92
318.07	2346.97
318.28	2443.23
318.49	2514.91
318.70	2744.28
318.92	2666.46
319.13	2605.02
319.34	2666.46
319.56	2557.91
319.77	2619.35
319.98	2682.84
320.20	2580.44
320.41	2510.81
320.62	2576.34
320.83	2361.31
321.05	2602.97
321.26	2504.67
321.47	2578.39
321.69	2654.17
321.90	2322.40
322.11	2361.31
322.32	2498.52
322.54	2621.40
322.75	2342.88
322.96	2791.38
323.18	2275.29
323.39	2267.10
323.60	2381.79
323.81	2519.00
324.03	2439.13
324.24	2447.32
324.45	2465.75
324.66	2351.07
324.88	2584.54
325.09	2684.89
325.30	2359.26
325.52	2387.93
325.73	2463.71
325.94	2365.40
326.15	2252.77
326.37	2326.49
326.58	2590.68
326.79	2750.42
327.00	2322.40
327.22	2406.36
327.43	2449.37
327.64	2408.41
327.85	2502.62
328.07	2535.39
328.28	2711.51
328.49	2396.12
328.70	2400.22
328.92	2346.97
329.13	2351.07
329.34	2570.20
329.55	2572.25
329.76	2510.81
329.98	2521.05
330.19	2627.54
330.40	2449.37
330.61	2500.57
330.83	2648.02
331.04	2355.16
331.25	2496.47
331.46	2398.17
331.68	2314.20
331.89	2633.69
332.10	2363.36
332.31	2275.29
332.52	2492.38
332.74	2676.70
332.95	2224.09
333.16	2437.08
333.37	2590.68
333.58	2377.69
333.80	2441.18
334.01	2258.91
334.22	2480.09
334.43	2430.94
334.64	2392.03
334.86	2375.64
335.07	2324.44
335.28	2656.22
335.49	2252.77
335.70	2467.80
335.92	2643.93
336.13	2729.94
336.34	2506.71
336.55	2420.70
336.76	2496.47
336.98	2265.05
337.19	2379.74
337.40	2535.39
337.61	2785.24
337.82	2492.38
338.04	2547.67
338.25	2242.53
338.46	2408.41
338.67	2408.41
338.88	2273.25
339.09	2326.49
339.31	2443.23
339.52	2246.62
339.73	2420.70
339.94	2439.13
340.15	2570.20
340.36	2457.56
340.58	2447.32
340.79	2375.64
341.00	2525.15
341.21	2334.68
341.42	2547.67
341.63	2432.99
341.85	2582.49
342.06	2543.58
342.27	2389.98
342.48	2498.52
342.69	2338.78
342.90	2519.00
343.12	2559.96
343.33	2342.88
343.54	2553.82
343.75	2676.70
343.96	2394.08
344.17	2408.41
344.38	2504.67
344.60	2430.94
344.81	2420.70
345.02	2486.23
345.23	2596.82
345.44	2858.96
345.65	2516.95
345.86	2527.19
346.07	2555.86
346.29	2465.75
346.50	2514.91
346.71	2482.14
346.92	2662.36
347.13	2772.95
347.34	2392.03
347.55	2394.08
347.76	2562.01
347.98	2281.44
348.19	2451.42
348.40	2508.76
348.61	2443.23
348.82	2686.94
349.03	2455.51
349.24	2342.88
349.45	2736.09
349.66	2267.10
349.88	2375.64
350.09	2342.88
350.30	2658.26
350.51	2684.89
350.72	2439.13
350.93	2441.18
351.14	2451.42
351.35	2596.82
351.56	2465.75
351.77	2377.69
351.99	2521.05
352.20	2641.88
352.41	2525.15
352.62	2191.33
352.83	2420.70
353.04	2398.17
353.25	2371.55
353.46	2537.43
353.67	2686.94
353.88	2246.62
354.09	2428.89
354.30	2555.86
354.52	2545.63
354.73	2512.86
354.94	2330.59
355.15	2418.65
355.36	2695.13
355.57	2439.13
355.78	2355.16
355.99	2346.97
356.20	2439.13
356.41	2611.16
356.62	2447.32
356.83	2428.89
357.04	2658.26
357.25	2256.86
357.46	2375.64
357.68	2238.43
357.89	2396.12
358.10	2488.28
358.31	2392.03
358.52	2355.16
358.73	2351.07
358.94	2396.12
359.15	2336.73
359.36	2467.80
359.57	2473.95
359.78	2471.90
359.99	2519.00
360.20	2303.96
360.41	2504.67
360.62	2633.69
360.83	2535.39
361.04	2445.27
361.25	2473.95
361.46	2645.98
361.67	2482.14
361.88	2568.15
362.09	2617.30
362.30	2535.39
362.51	2316.25
362.72	2453.47
362.93	2572.25
363.14	2625.50
363.35	2490.33
363.56	2342.88
363.78	2623.45
363.99	2547.67
364.20	2375.64
364.41	2484.19
364.62	2764.76
364.83	2527.19
365.04	2416.60
365.25	2555.86
365.46	2752.47
365.67	2353.12
365.88	2412.51
366.09	2383.84
366.30	2381.79
366.51	2566.10
366.72	2316.25
366.93	2373.60
367.14	2443.23
367.35	2668.50
367.56	2465.75
367.77	2553.82
367.98	2439.13
368.18	2521.05
368.39	2584.54
368.60	2301.92
368.81	2617.30
369.02	2498.52
369.23	2408.41
369.44	2260.96
369.65	2449.37
369.86	2432.99
370.07	2559.96
370.28	2326.49
370.49	2574.30
370.70	2545.63
370.91	2342.88
371.12	2314.20
371.33	2598.87
371.54	2420.70
371.75	2498.52
371.96	2213.85
372.17	2492.38
372.38	2385.88
372.59	2496.47
372.80	2475.99
373.01	2432.99
373.22	2555.86
373.43	2416.60
373.64	2306.01
373.85	2580.44
374.06	2605.02
374.26	2564.06
374.47	2547.67
374.68	2803.67
374.89	2529.24
375.10	2482.14
375.31	2578.39
375.52	2451.42
375.73	2490.33
375.94	2371.55
376.15	2652.12
376.36	2406.36
376.57	2406.36
376.78	2410.46
376.99	2467.80
377.20	2586.58
377.40	2432.99
377.61	2621.40
377.82	2342.88
378.03	2662.36
378.24	2670.55
378.45	2410.46
378.66	2437.08
378.87	2279.39
379.08	2277.34
379.29	2316.25
379.50	2480.09
379.71	2463.71
379.91	2578.39
380.12	2394.08
380.33	2432.99
380.54	2451.42
380.75	2510.81
380.96	2363.36
381.17	2537.43
381.38	2465.75
381.59	2519.00
381.80	2478.04
382.00	2631.64
382.21	2502.62
382.42	2756.57
382.63	2617.30
382.84	2455.51
383.05	2605.02
383.26	2650.07
383.47	2428.89
383.68	2447.32
383.88	2475.99
384.09	2480.09
384.30	2660.31
384.51	2555.86
384.72	2392.03
384.93	2314.20
385.14	2529.24
385.35	2596.82
385.55	2252.77
385.76	2596.82
385.97	2418.65
386.18	2293.72
386.39	2426.84
386.60	2367.45
386.81	2482.14
387.02	2363.36
387.22	2408.41
387.43	2564.06
387.64	2482.14
387.85	2625.50
388.06	2695.13
388.27	4011.97
388.48	8185.73
388.68	12054.34
388.89	14878.49
389.10	15793.94
389.31	14839.58
389.52	11687.76
389.73	10069.86
389.93	9174.90
390.14	8318.85
390.35	7368.59
390.56	6616.99
390.77	5523.37
390.98	4167.62
391.18	3448.78
391.39	3020.75
391.60	2539.48
391.81	2676.70
392.02	2385.88
392.23	2639.83
392.43	2553.82
392.64	2480.09
392.85	2506.71
393.06	2658.26
393.27	2490.33
393.47	2353.12
393.68	2461.66
393.89	2420.70
394.10	2668.50
394.31	2439.13
394.52	2346.97
394.72	2338.78
394.93	2623.45
395.14	2330.59
395.35	2482.14
395.56	2432.99
395.76	2494.43
395.97	2498.52
396.18	2594.78
396.39	2568.15
396.60	2983.89
396.80	2691.03
397.01	2654.17
397.22	2588.63
397.43	2629.59
397.64	2457.56
397.84	2543.58
398.05	2793.43
398.26	2559.96
398.47	2592.73
398.67	2629.59
398.88	2559.96
399.09	2519.00
399.30	2410.46
399.51	2570.20
399.71	2439.13
399.92	2482.14
400.13	2555.86
400.34	2455.51
400.54	2457.56
400.75	2680.79
400.96	2437.08
401.17	2727.89
401.37	2555.86
401.58	2596.82
401.79	2461.66
402.00	2514.91
402.21	2875.35
402.41	2750.42
402.62	2809.81
402.83	2969.55
403.04	2957.27
403.24	3135.44
403.45	2535.39
403.66	2791.38
403.87	2734.04
404.07	2779.09
404.28	2703.32
404.49	2813.91
404.70	2586.58
404.90	2629.59
405.11	2488.28
405.32	2615.26
405.52	2430.94
405.73	2430.94
405.94	2441.18
406.15	2408.41
406.35	2586.58
406.56	2580.44
406.77	2502.62
406.98	2506.71
407.18	2441.18
407.39	2664.41
407.60	2447.32
407.80	2426.84
408.01	2443.23
408.22	2482.14
408.43	2318.30
408.63	2582.49
408.84	2609.11
409.05	2592.73
409.25	2424.80
409.46	2420.70
409.67	2455.51
409.88	2471.90
410.08	2449.37
410.29	2381.79
410.50	2553.82
410.70	2533.34
410.91	2353.12
411.12	2435.03
411.32	2451.42
411.53	2416.60
411.74	2594.78
411.95	2500.57
412.15	2514.91
412.36	2602.97
412.57	2576.34
412.77	2545.63
412.98	2531.29
413.19	2414.56
413.39	2512.86
413.60	2543.58
413.81	2623.45
414.01	2340.83
414.22	2457.56
414.43	2580.44
414.63	2457.56
414.84	2668.50
415.05	2506.71
415.25	2293.72
415.46	2543.58
415.67	2416.60
415.87	2496.47
416.08	2426.84
416.29	2400.22
416.49	2629.59
416.70	2441.18
416.91	2424.80
417.11	2424.80
417.32	2590.68
417.53	2580.44
417.73	2559.96
417.94	2424.80
418.15	2576.34
418.35	2412.51
418.56	2482.14
418.77	2813.91
418.97	2531.29
419.18	2336.73
419.38	2303.96
419.59	2559.96
419.80	2613.21
420.00	2408.41
420.21	2529.24
420.42	2668.50
420.62	2539.48
420.83	2410.46
421.04	2473.95
421.24	2461.66
421.45	2523.10
421.65	2486.23
421.86	2414.56
422.07	2586.58
422.27	2514.91
422.48	2430.94
422.69	2318.30
422.89	2582.49
423.10	2408.41
423.30	2349.02
423.51	2498.52
423.72	2547.67
423.92	2621.40
424.13	2359.26
424.33	2514.91
424.54	2523.10
424.75	2408.41
424.95	2629.59
425.16	2545.63
425.36	2367.45
425.57	2537.43
425.78	2469.85
425.98	2516.95
426.19	2424.80
426.39	2408.41
426.60	2529.24
426.81	2594.78
427.01	2516.95
427.22	2426.84
427.42	2207.71
427.63	2365.40
427.83	2562.01
428.04	2717.65
428.25	2590.68
428.45	2598.87
428.66	2650.07
428.86	2475.99
429.07	2506.71
429.28	2508.76
429.48	2383.84
429.69	2355.16
429.89	2428.89
430.10	2383.84
430.30	2637.78
430.51	2527.19
430.71	2361.31
430.92	2473.95
431.13	2426.84
431.33	2566.10
431.54	2500.57
431.74	2621.40
431.95	2754.52
432.15	2367.45
432.36	2473.95
432.56	2559.96
432.77	2652.12
432.98	2643.93
433.18	2453.47
433.39	2375.64
433.59	2410.46
433.80	2729.94
434.00	2625.50
434.21	2392.03
434.41	2437.08
434.62	2799.57
434.82	2359.26
435.03	2346.97
435.23	2555.86
435.44	2242.53
435.64	2482.14
435.85	2559.96
436.06	2611.16
436.26	2627.54
436.47	2412.51
436.67	2344.92
436.88	2549.72
437.08	2592.73
437.29	2672.60
437.49	2432.99
437.70	2588.63
437.90	2469.85
438.11	2686.94
438.31	2547.67
438.52	2670.55
438.72	2650.07
438.93	2725.85
439.13	2572.25
439.34	2629.59
439.54	2555.86
439.75	2582.49
439.95	2516.95
440.16	2435.03
440.36	2535.39
440.57	2531.29
440.77	2422.75
440.98	2486.23
441.18	2545.63
441.39	2387.93
441.59	2338.78
441.80	2768.85
442.00	2525.15
442.21	2586.58
442.41	2410.46
442.62	2592.73
442.82	2430.94
443.02	2363.36
443.23	2432.99
443.43	2379.74
443.64	2721.75
443.84	2404.32
444.05	2572.25
444.25	2570.20
444.46	2430.94
444.66	2467.80
444.87	2654.17
445.07	2293.72
445.28	2451.42
445.48	2607.06
445.69	2508.76
445.89	2756.57
446.09	2398.17
446.30	2748.37
446.50	2951.12
446.71	4530.11
446.91	5791.66
447.12	6582.17
447.32	7069.59
447.53	6614.94
447.73	5427.12
447.93	4769.72
448.14	4501.44
448.34	4399.04
448.55	3815.37
448.75	3809.22
448.96	3643.34
449.16	3289.04
449.36	2990.03
449.57	2635.74
449.77	2570.20
449.98	2457.56
450.18	2555.86
450.39	2531.29
450.59	2609.11
450.79	2586.58
451.00	2373.60
451.20	2596.82
451.41	2514.91
451.61	2523.10
451.81	2437.08
452.02	2375.64
452.22	2490.33
452.43	2443.23
452.63	2342.88
452.84	2375.64
453.04	2400.22
453.24	2535.39
453.45	2435.03
453.65	2506.71
453.86	2455.51
454.06	2543.58
454.26	2475.99
454.47	2381.79
454.67	2629.59
454.87	2605.02
455.08	2455.51
455.28	2670.55
455.49	2539.48
455.69	2398.17
455.89	2758.61
456.10	2559.96
456.30	2371.55
456.51	2529.24
456.71	2502.62
456.91	2566.10
457.12	2445.27
457.32	2555.86
457.52	2326.49
457.73	2502.62
457.93	2559.96
458.14	2437.08
458.34	2293.72
458.54	2410.46
458.75	2437.08
458.95	2693.08
459.15	2445.27
459.36	2475.99
459.56	2457.56
459.76	2723.80
459.97	2519.00
460.17	2467.80
460.37	2578.39
460.58	2492.38
460.78	2600.92
460.99	2422.75
461.19	2408.41
461.39	2396.12
461.60	2465.75
461.80	2529.24
462.00	2392.03
462.21	2512.86
462.41	2314.20
462.61	2293.72
462.82	2250.72
463.02	2609.11
463.22	2453.47
463.43	2559.96
463.63	2453.47
463.83	2662.36
464.04	2562.01
464.24	2457.56
464.44	2471.90
464.64	2531.29
464.85	2566.10
465.05	2510.81
465.25	2465.75
465.46	2379.74
465.66	2521.05
465.86	2498.52
466.07	2441.18
466.27	2351.07
466.47	2351.07
466.68	2301.92
466.88	2637.78
467.08	2598.87
467.29	2574.30
467.49	2492.38
467.69	2502.62
467.89	2568.15
468.10	2498.52
468.30	2498.52
468.50	2650.07
468.71	2654.17
468.91	2359.26
469.11	2605.02
469.31	2514.91
469.52	2475.99
469.72	2662.36
469.92	2654.17
470.13	2424.80
470.33	2543.58
470.53	2549.72
470.73	2949.08
470.94	3276.75
471.14	3440.59
471.34	3870.66
471.54	3737.54
471.75	3340.24
471.95	3149.78
472.15	3039.19
472.36	3035.09
472.56	2963.41
472.76	3006.42
472.96	2875.35
473.17	2727.89
473.37	2652.12
473.57	2451.42
473.77	2625.50
473.98	2531.29
474.18	2338.78
474.38	2951.12
474.58	2398.17
474.79	2408.41
474.99	2490.33
475.19	2564.06
475.39	2340.83
475.60	2562.01
475.80	2365.40
476.00	2590.68
476.20	2447.32
476.41	2416.60
476.61	2535.39
476.81	2727.89
477.01	2344.92
477.21	2590.68
477.42	2621.40
477.62	2430.94
477.82	2572.25
478.02	2496.47
478.23	2473.95
478.43	2394.08
478.63	2375.64
478.83	2566.10
479.03	2416.60
479.24	2703.32
479.44	2695.13
479.64	2414.56
479.84	2277.34
480.04	2422.75
480.25	2578.39
480.45	2340.83
480.65	2514.91
480.85	2686.94
481.06	2449.37
481.26	2523.10
481.46	2480.09
481.66	2584.54
481.86	2392.03
482.06	2580.44
482.27	2396.12
482.47	2492.38
482.67	2519.00
482.87	2408.41
483.07	2535.39
483.28	2430.94
483.48	2392.03
483.68	2480.09
483.88	2275.29
484.08	2240.48
484.29	2281.44
484.49	2465.75
484.69	2326.49
484.89	2725.85
485.09	2666.46
485.29	2496.47
485.50	2447.32
485.70	2379.74
485.90	2621.40
486.10	2529.24
486.30	2475.99
486.50	2650.07
486.71	2543.58
486.91	2484.19
487.11	2594.78
487.31	2328.54
487.51	2564.06
487.71	2375.64
487.91	2310.11
488.12	2449.37
488.32	2140.13
488.52	2463.71
488.72	2291.68
488.92	2514.91
489.12	2586.58
489.32	2564.06
489.53	2424.80
489.73	2293.72
489.93	2756.57
490.13	2392.03
490.33	2308.06
490.53	2490.33
490.73	2662.36
490.94	2301.92
491.14	2506.71
491.34	2676.70
491.54	2783.19
491.74	3438.54
491.94	3973.06
492.14	4323.26
492.34	4356.03
492.54	4016.07
492.75	3477.45
492.95	3518.41
493.15	3243.98
493.35	3166.16
493.55	3086.29
493.75	2940.88
493.95	3053.52
494.15	2787.29
494.35	2549.72
494.56	2613.21
494.76	2459.61
494.96	2535.39
495.16	2443.23
495.36	2527.19
495.56	2514.91
495.76	2455.51
495.96	2408.41
496.16	2432.99
496.36	2807.77
496.56	2430.94
496.77	2519.00
496.97	2408.41
497.17	2629.59
497.37	2310.11
497.57	2527.19
497.77	2551.77
497.97	2355.16
498.17	2473.95
498.37	2424.80
498.57	2572.25
498.77	2445.27
498.97	2449.37
499.17	2672.60
499.38	2410.46
499.58	2611.16
499.78	2600.92
499.98	2635.74
500.18	2492.38
500.38	2445.27
500.58	2701.27
500.78	3133.39
500.98	5492.65
501.18	7501.71
501.38	9246.58
501.58	10182.50
501.78	9908.07
501.98	7997.32
502.18	6797.21
502.38	5844.90
502.58	5535.66
502.78	4865.97
502.98	4542.39
503.18	4480.96
503.38	4050.88
503.59	3567.56
503.79	3334.09
503.99	3143.63
504.19	3141.58
504.39	3149.78
504.59	3078.10
504.79	3117.01
504.99	3094.48
505.19	2824.15
505.39	2678.74
505.59	2781.14
505.79	2811.86
505.99	2654.17
506.19	2629.59
506.39	2752.47
506.59	2441.18
506.79	2482.14
506.99	2666.46
507.19	2519.00
507.39	2514.91
507.59	2340.83
507.79	2392.03
507.99	2424.80
508.19	2602.97
508.39	2389.98
508.59	2486.23
508.79	2611.16
508.99	2760.66
509.19	2375.64
509.39	2531.29
509.59	2396.12
509.79	2379.74
509.99	2572.25
510.19	2609.11
510.39	2574.30
510.59	2500.57
510.79	2379.74
510.99	2316.25
511.19	2498.52
511.39	2748.37
511.59	2629.59
511.79	2637.78
511.99	2398.17
512.19	2719.70
512.38	2529.24
512.58	2363.36
512.78	2394.08
512.98	2623.45
513.18	2701.27
513.38	2342.88
513.58	2494.43
513.78	2445.27
513.98	2510.81
514.18	2443.23
514.38	2461.66
514.58	2519.00
514.78	2478.04
514.98	2424.80
515.18	2420.70
515.38	2351.07
515.58	2686.94
515.78	2527.19
515.98	2418.65
516.18	2572.25
516.38	2482.14
516.57	2375.64
516.77	2461.66
516.97	2615.26
517.17	2437.08
517.37	2271.20
517.57	2531.29
517.77	2480.09
517.97	2365.40
518.17	2553.82
518.37	2289.63
518.57	2523.10
518.77	2424.80
518.97	2437.08
519.16	2523.10
519.36	2557.91
519.56	2387.93
519.76	2428.89
519.96	2510.81
520.16	2682.84
520.36	2383.84
520.56	2537.43
520.76	2342.88
520.96	2400.22
521.16	2602.97
521.35	2588.63
521.55	2682.84
521.75	2562.01
521.95	2424.80
522.15	2457.56
522.35	2367.45
522.55	2461.66
522.75	2568.15
522.95	2375.64
523.14	2361.31
523.34	2555.86
523.54	2342.88
523.74	2525.15
523.94	2502.62
524.14	2365.40
524.34	2568.15
524.54	2658.26
524.73	2475.99
524.93	2576.34
525.13	2490.33
525.33	2228.19
525.53	2664.41
525.73	2602.97
525.93	2543.58
526.13	2469.85
526.32	2473.95
526.52	2617.30
526.72	2527.19
526.92	2424.80
527.12	2445.27
527.32	2355.16
527.52	2531.29
527.71	2506.71
527.91	2490.33
528.11	2424.80
528.31	2508.76
528.51	2338.78
528.71	2404.32
528.90	2533.34
529.10	2625.50
529.30	2533.34
529.50	2285.53
529.70	2502.62
529.90	2461.66
530.09	2369.50
530.29	2318.30
530.49	2392.03
530.69	2801.62
530.89	2473.95
531.09	2570.20
531.28	2400.22
531.48	2623.45
531.68	2580.44
531.88	2490.33
532.08	2543.58
532.28	2445.27
532.47	2504.67
532.67	2586.58
532.87	2643.93
533.07	2310.11
533.27	2619.35
533.46	2523.10
533.66	2510.81
533.86	2432.99
534.06	2463.71
534.26	2523.10
534.45	2484.19
534.65	2611.16
534.85	2506.71
535.05	2351.07
535.25	2584.54
535.44	2297.82
535.64	2543.58
535.84	2447.32
536.04	2449.37
536.24	2449.37
536.43	2414.56
536.63	2574.30
536.83	2404.32
537.03	2502.62
537.22	2324.44
537.42	2285.53
537.62	2557.91
537.82	2467.80
538.02	2588.63
538.21	2594.78
538.41	2815.96
538.61	2512.86
538.81	2404.32
539.00	2574.30
539.20	2342.88
539.40	2480.09
539.60	2514.91
539.79	2611.16
539.99	2473.95
540.19	2367.45
540.39	2455.51
540.58	2465.75
540.78	2570.20
540.98	2496.47
541.18	2596.82
541.37	2473.95
541.57	2572.25
541.77	2586.58
541.97	2357.21
542.16	2322.40
542.36	2463.71
542.56	2445.27
542.76	2629.59
542.95	2559.96
543.15	2555.86
543.35	2592.73
543.54	2359.26
543.74	2375.64
543.94	2617.30
544.14	2461.66
544.33	2562.01
544.53	2389.98
544.73	2443.23
544.93	2500.57
545.12	2449.37
545.32	2492.38
545.52	2424.80
545.71	2418.65
545.91	2416.60
546.11	2363.36
546.30	2396.12
546.50	2508.76
546.70	2500.57
546.90	2459.61
547.09	2248.67
547.29	2514.91
547.49	2521.05
547.68	2519.00
547.88	2400.22
548.08	2576.34
548.27	2979.79
548.47	2392.03
548.67	2432.99
548.87	2504.67
549.06	2496.47
549.26	2463.71
549.46	2521.05
549.65	2385.88
549.85	2516.95
550.05	2543.58
550.24	2383.84
550.44	2480.09
550.64	2422.75
550.83	2465.75
551.03	2701.27
551.23	2701.27
551.42	2510.81
551.62	2377.69
551.82	2523.10
552.01	2492.38
552.21	2643.93
552.41	2478.04
552.60	2648.02
552.80	2484.19
553.00	2381.79
553.19	2428.89
553.39	2682.84
553.59	2369.50
553.78	2578.39
553.98	2435.03
554.17	2377.69
554.37	2527.19
554.57	2529.24
554.76	2285.53
554.96	2473.95
555.16	2392.03
555.35	2502.62
555.55	2568.15
555.75	2469.85
555.94	2602.97
556.14	2316.25
556.33	2555.86
556.53	2428.89
556.73	2445.27
556.92	2547.67
557.12	2531.29
557.32	2807.77
557.51	2592.73
557.71	2488.28
557.90	2631.64
558.10	2547.67
558.30	2516.95
558.49	2424.80
558.69	2449.37
558.88	2564.06
559.08	2482.14
559.28	2457.56
559.47	2482.14
559.67	2691.03
559.86	2723.80
560.06	2527.19
560.26	2453.47
560.45	2592.73
560.65	2482.14
560.84	2645.98
561.04	2353.12
561.24	2496.47
561.43	2355.16
561.63	2611.16
561.82	2473.95
562.02	2605.02
562.22	2428.89
562.41	2383.84
562.61	2430.94
562.80	2392.03
563.00	2793.43
563.19	2535.39
563.39	2447.32
563.59	2580.44
563.78	2432.99
563.98	2277.34
564.17	2402.27
564.37	2281.44
564.56	2457.56
564.76	2308.06
564.96	2627.54
565.15	2482.14
565.35	2838.48
565.54	2439.13
565.74	2490.33
565.93	2594.78
566.13	2498.52
566.32	2537.43
566.52	2531.29
566.71	2562.01
566.91	2519.00
567.11	2566.10
567.30	2463.71
567.50	2602.97
567.69	2551.77
567.89	2490.33
568.08	2312.16
568.28	2498.52
568.47	2379.74
568.67	2543.58
568.86	2400.22
569.06	2533.34
569.25	2516.95
569.45	2377.69
569.64	2369.50
569.84	2463.71
570.04	2451.42
570.23	2471.90
570.43	2508.76
570.62	2531.29
570.82	2717.65
571.01	2310.11
571.21	2416.60
571.40	2465.75
571.60	2631.64
571.79	2531.29
571.99	2453.47
572.18	2437.08
572.38	2543.58
572.57	2453.47
572.77	2596.82
572.96	2775.00
573.16	2486.23
573.35	2428.89
573.55	2676.70
573.74	2633.69
573.94	2478.04
574.13	2471.90
574.33	2590.68
574.52	2619.35
574.71	2551.77
574.91	2504.67
575.10	2392.03
575.30	2492.38
575.49	2359.26
575.69	2406.36
575.88	2494.43
576.08	2572.25
576.27	2629.59
576.47	2492.38
576.66	2596.82
576.86	2666.46
577.05	2594.78
577.25	2625.50
577.44	2686.94
577.64	2449.37
577.83	2658.26
578.02	2420.70
578.22	2662.36
578.41	2707.41
578.61	2486.23
578.80	2379.74
579.00	2453.47
579.19	2541.53
579.39	2660.31
579.58	2553.82
579.77	2500.57
579.97	2742.23
580.16	2611.16
580.36	2594.78
580.55	2545.63
580.75	2564.06
580.94	2514.91
581.13	2662.36
581.33	2678.74
581.52	2480.09
581.72	2756.57
581.91	2625.50
582.11	2480.09
582.30	2695.13
582.49	2521.05
582.69	2664.41
582.88	2537.43
583.08	2498.52
583.27	2674.65
583.47	2488.28
583.66	2545.63
583.85	2420.70
584.05	2457.56
584.24	2506.71
584.44	2506.71
584.63	2699.22
584.82	2654.17
585.02	2664.41
585.21	2678.74
585.41	2662.36
585.60	2545.63
585.79	2756.57
585.99	2785.24
586.18	2625.50
586.37	3313.61
586.57	4951.99
586.76	15052.57
586.96	34444.79
587.15	47936.80
587.34	57230.49
587.54	61428.82
587.73	55884.97
587.93	39261.61
588.12	29726.27
588.31	24041.11
588.51	21405.37
588.70	19355.35
588.89	17616.63
589.09	15023.90
589.28	12918.59
589.47	10090.34
589.67	7921.54
589.86	6297.50
590.06	4652.98
590.25	3858.37
590.44	3301.33
590.64	2938.84
590.83	2777.05
591.02	2822.10
591.22	2600.92
591.41	2592.73
591.60	2514.91
591.80	2799.57
591.99	2400.22
592.18	2494.43
592.38	2662.36
592.57	2392.03
592.76	2516.95
592.96	2598.87
593.15	2482.14
593.34	2719.70
593.54	2498.52
593.73	2633.69
593.92	2602.97
594.12	2533.34
594.31	2596.82
594.50	2721.75
594.70	2547.67
594.89	2871.25
595.08	2406.36
595.28	2605.02
595.47	2944.98
595.66	2623.45
595.86	2422.75
596.05	2443.23
596.24	2453.47
596.43	2711.51
596.63	2576.34
596.82	2543.58
597.01	2637.78
597.21	2664.41
597.40	2592.73
597.59	2475.99
597.79	2506.71
597.98	2623.45
598.17	2494.43
598.36	2547.67
598.56	2621.40
598.75	2449.37
598.94	2496.47
599.14	2564.06
599.33	2408.41
599.52	2596.82
599.71	2463.71
599.91	2586.58
600.10	2598.87
600.29	2551.77
600.48	2543.58
600.68	2539.48
600.87	2498.52
601.06	2449.37
601.26	2451.42
601.45	2512.86
601.64	2443.23
601.83	2715.61
602.03	2324.44
602.22	2349.02
602.41	2668.50
602.60	2772.95
602.80	2652.12
602.99	2568.15
603.18	2449.37
603.37	2490.33
603.57	2467.80
603.76	2527.19
603.95	2650.07
604.14	2428.89
604.34	2334.68
604.53	2404.32
604.72	2521.05
604.91	2611.16
605.10	2519.00
605.30	2303.96
605.49	2701.27
605.68	2598.87
605.87	2533.34
606.07	2428.89
606.26	2494.43
606.45	2607.06
606.64	2519.00
606.84	2435.03
607.03	2596.82
607.22	2586.58
607.41	2494.43
607.60	2435.03
607.80	2621.40
607.99	2426.84
608.18	2619.35
608.37	2435.03
608.56	2355.16
608.76	2572.25
608.95	2605.02
609.14	2523.10
609.33	2717.65
609.52	2750.42
609.72	2545.63
609.91	2643.93
610.10	2605.02
610.29	2648.02
610.48	2592.73
610.68	2609.11
610.87	2545.63
611.06	2609.11
611.25	2432.99
611.44	2594.78
611.63	2512.86
611.83	2607.06
612.02	2365.40
612.21	2535.39
612.40	2332.64
612.59	2400.22
612.79	2332.64
612.98	2473.95
613.17	2740.18
613.36	2539.48
613.55	2637.78
613.74	2572.25
613.93	2619.35
614.13	2768.85
614.32	2717.65
614.51	2748.37
614.70	2553.82
614.89	2510.81
615.08	2619.35
615.28	2977.75
615.47	2463.71
615.66	2605.02
615.85	2516.95
616.04	2691.03
616.23	2480.09
616.42	2531.29
616.62	2523.10
616.81	2641.88
617.00	2527.19
617.19	2545.63
617.38	2455.51
617.57	2475.99
617.76	2572.25
617.95	2572.25
618.15	2539.48
618.34	2670.55
618.53	2330.59
618.72	2639.83
618.91	2594.78
619.10	2605.02
619.29	2486.23
619.48	2533.34
619.68	2381.79
619.87	2428.89
620.06	2363.36
620.25	2545.63
620.44	2377.69
620.63	2449.37
620.82	2457.56
621.01	2387.93
621.20	2478.04
621.39	2453.47
621.59	2519.00
621.78	2549.72
621.97	2455.51
622.16	2539.48
622.35	2453.47
622.54	2633.69
622.73	2541.53
622.92	2332.64
623.11	2652.12
623.30	2478.04
623.49	2535.39
623.68	2449.37
623.88	2676.70
624.07	2441.18
624.26	2369.50
624.45	2514.91
624.64	2488.28
624.83	2547.67
625.02	2400.22
625.21	2416.60
625.40	2373.60
625.59	2637.78
625.78	2478.04
625.97	2609.11
626.16	2695.13
626.35	2658.26
626.54	2586.58
626.74	2705.37
626.93	2508.76
627.12	2441.18
627.31	2600.92
627.50	2480.09
627.69	2637.78
627.88	2457.56
628.07	2394.08
628.26	2256.86
628.45	2377.69
628.64	2400.22
628.83	2506.71
629.02	2258.91
629.21	2531.29
629.40	2455.51
629.59	2455.51
629.78	2482.14
629.97	2521.05
630.16	2557.91
630.35	2400.22
630.54	2471.90
630.73	2453.47
630.92	2525.15
631.11	2408.41
631.30	2533.34
631.49	2547.67
631.68	2506.71
631.87	2531.29
632.06	2351.07
632.25	2826.20
632.44	2492.38
632.63	2594.78
632.82	2506.71
633.01	2480.09
633.20	2596.82
633.39	2527.19
633.58	2432.99
633.77	2605.02
633.96	2662.36
634.15	2545.63
634.34	2551.77
634.53	2533.34
634.72	2449.37
634.91	2361.31
635.10	2480.09
635.29	2533.34
635.48	2543.58
635.67	2410.46
635.86	2287.58
636.05	2668.50
636.24	2496.47
636.43	2482.14
636.62	2514.91
636.81	2260.96
637.00	2519.00
637.19	2480.09
637.38	2539.48
637.57	2416.60
637.76	2508.76
637.95	2621.40
638.14	2514.91
638.33	2654.17
638.52	2529.24
638.71	2416.60
638.89	2435.03
639.08	2785.24
639.27	2645.98
639.46	2701.27
639.65	3123.15
639.84	3264.46
640.03	3262.41
640.22	3151.82
640.41	3168.21
640.60	2793.43
640.79	2883.54
640.98	2650.07
641.17	2744.28
641.36	2725.85
641.55	2721.75
641.74	2387.93
641.92	2441.18
642.11	2400.22
642.30	2535.39
642.49	2412.51
642.68	2437.08
642.87	2588.63
643.06	2633.69
643.25	2414.56
643.44	2322.40
643.63	2363.36
643.82	2539.48
644.00	2398.17
644.19	2435.03
644.38	2334.68
644.57	2621.40
644.76	2461.66
644.95	2437.08
645.14	2576.34
645.33	2512.86
645.52	2473.95
645.71	2346.97
645.89	2357.21
646.08	2441.18
646.27	2500.57
646.46	2607.06
646.65	2316.25
646.84	2504.67
647.03	2248.67
647.22	2490.33
647.40	2586.58
647.59	2488.28
647.78	2285.53
647.97	2326.49
648.16	2359.26
648.35	2715.61
648.54	2619.35
648.73	2377.69
648.91	2613.21
649.10	2521.05
649.29	2414.56
649.48	2416.60
649.67	2514.91
649.86	2547.67
650.05	2519.00
650.23	2785.24
650.42	2582.49
650.61	2795.48
650.80	2713.56
650.99	2830.29
651.18	2713.56
651.36	2633.69
651.55	2500.57
651.74	2539.48
651.93	2414.56
652.12	2437.08
652.31	2478.04
652.49	2519.00
652.68	2432.99
652.87	2586.58
653.06	2568.15
653.25	2686.94
653.44	2508.76
653.62	2711.51
653.81	2490.33
654.00	2514.91
654.19	2576.34
654.38	2791.38
654.56	2547.67
654.75	2381.79
654.94	2633.69
655.13	2467.80
655.32	2455.51
655.51	2482.14
655.69	2463.71
655.88	2572.25
656.07	2410.46
656.26	2500.57
656.45	2328.54
656.63	2586.58
656.82	2473.95
657.01	2668.50
657.20	2379.74
657.38	2658.26
657.57	2351.07
657.76	2383.84
657.95	2559.96
658.14	2428.89
658.32	2453.47
658.51	2254.81
658.70	2473.95
658.89	2523.10
659.08	2469.85
659.26	2652.12
659.45	2369.50
659.64	2625.50
659.83	2451.42
660.01	2930.64
660.20	2496.47
660.39	2713.56
660.58	2258.91
660.76	2529.24
660.95	2334.68
661.14	2559.96
661.33	2342.88
661.51	2359.26
661.70	2412.51
661.89	2478.04
662.08	2498.52
662.26	2281.44
662.45	2365.40
662.64	2734.04
662.83	2564.06
663.01	2398.17
663.20	2412.51
663.39	2627.54
663.58	2310.11
663.76	2330.59
663.95	2621.40
664.14	2342.88
664.32	2383.84
664.51	2383.84
664.70	2254.81
664.89	2512.86
665.07	2375.64
665.26	2572.25
665.45	2267.10
665.64	2531.29
665.82	2412.51
666.01	2490.33
666.20	2318.30
666.38	2699.22
666.57	2629.59
666.76	3928.00
666.95	9553.77
667.13	17940.21
667.32	22957.73
667.51	26320.49
667.69	27723.35
667.88	24620.68
668.07	17422.07
668.25	14247.72
668.44	11984.71
668.63	10475.36
668.81	9236.34
669.00	7901.06
669.19	7208.85
669.38	6066.08
669.56	5271.47
669.75	4370.37
669.94	3766.21
670.12	3258.32
670.31	2932.69
670.50	2822.10
670.68	2686.94
670.87	2551.77
671.06	2531.29
671.24	2588.63
671.43	2658.26
671.62	2562.01
671.80	2432.99
671.99	2588.63
672.18	2551.77
672.36	2629.59
672.55	2621.40
672.74	2465.75
672.92	2447.32
673.11	2547.67
673.29	2310.11
673.48	2562.01
673.67	2461.66
673.85	2588.63
674.04	2392.03
674.23	2478.04
674.41	2668.50
674.60	2373.60
674.79	2263.01
674.97	2320.35
675.16	2596.82
675.34	2637.78
675.53	2310.11
675.72	2494.43
675.90	2758.61
676.09	2463.71
676.28	2445.27
676.46	2267.10
676.65	2541.53
676.83	2379.74
677.02	2461.66
677.21	2594.78
677.39	2570.20
677.58	2381.79
677.77	2416.60
677.95	2340.83
678.14	2469.85
678.32	2496.47
678.51	2416.60
678.70	2824.15
678.88	2439.13
679.07	2539.48
679.25	2496.47
679.44	2502.62
679.63	2383.84
679.81	2525.15
680.00	2613.21
680.18	2543.58
680.37	2635.74
680.55	2492.38
680.74	2269.15
680.93	2285.53
681.11	2545.63
681.30	2488.28
681.48	2426.84
681.67	2439.13
681.85	2480.09
682.04	2441.18
682.23	2562.01
682.41	2531.29
682.60	2377.69
682.78	2451.42
682.97	2424.80
683.15	2414.56
683.34	2514.91
683.53	2656.22
683.71	2359.26
683.90	2637.78
684.08	2654.17
684.27	2473.95
684.45	2480.09
684.64	2564.06
684.82	2441.18
685.01	2539.48
685.19	2500.57
685.38	2691.03
685.57	2451.42
685.75	2432.99
685.94	2418.65
686.12	2379.74
686.31	2357.21
686.49	2670.55
686.68	2277.34
686.86	2494.43
687.05	2508.76
687.23	2707.41
687.42	2398.17
687.60	2400.22
687.79	2621.40
687.97	2674.65
688.16	2572.25
688.34	2605.02
688.53	2254.81
688.71	2545.63
688.90	2670.55
689.08	2484.19
689.27	2252.77
689.45	2605.02
689.64	2652.12
689.82	2525.15
690.01	2547.67
690.19	2533.34
690.38	2512.86
690.56	2527.19
690.75	2381.79
690.93	2396.12
691.12	2387.93
691.30	2512.86
691.49	2512.86
691.67	2469.85
691.86	2721.75
692.04	2441.18
692.23	2512.86
692.41	2418.65
692.60	2750.42
692.78	2629.59
692.97	2469.85
693.15	2535.39
693.34	2688.98
693.52	2533.34
693.71	2498.52
693.89	2484.19
694.08	2318.30
694.26	2623.45
694.44	2600.92
694.63	2594.78
694.81	2392.03
695.00	2355.16
695.18	2658.26
695.37	2660.31
695.55	2504.67
695.74	2445.27
695.92	2336.73
696.10	2602.97
696.29	2392.03
696.47	2478.04
696.66	2373.60
696.84	2424.80
697.03	2537.43
697.21	2750.42
697.40	3645.38
697.58	2625.50
697.76	2412.51
697.95	2375.64
698.13	2451.42
698.32	2432.99
698.50	2465.75
698.68	2504.67
698.87	2523.10
699.05	2699.22
699.24	2445.27
699.42	2408.41
699.61	2523.10
699.79	2494.43
699.97	2410.46
700.16	2359.26
700.34	2365.40
700.53	2461.66
700.71	2635.74
700.89	2609.11
701.08	2465.75
701.26	2547.67
701.45	2940.88
701.63	2383.84
701.81	2459.61
702.00	2408.41
702.18	2459.61
702.37	2473.95
702.55	2834.39
702.73	2738.13
702.92	2672.60
703.10	2801.62
703.28	2736.09
703.47	2469.85
703.65	2707.41
703.84	2637.78
704.02	2463.71
704.20	2703.32
704.39	2383.84
704.57	2447.32
704.75	2650.07
704.94	2654.17
705.12	2572.25
705.30	2940.88
705.49	5601.19
705.67	12955.45
705.86	21077.69
706.04	24518.28
706.22	28116.56
706.41	28143.19
706.59	23129.76
706.77	16701.19
706.96	13981.48
707.14	12361.54
707.32	10657.63
707.51	9664.36
707.69	7632.78
707.87	6164.39
708.06	5013.43
708.24	4167.62
708.42	3420.11
708.61	3293.13
708.79	2715.61
708.97	2580.44
709.16	2596.82
709.34	2691.03
709.52	2389.98
709.71	2496.47
709.89	2600.92
710.07	2441.18
710.26	2324.44
710.44	2541.53
710.62	2670.55
710.80	2469.85
710.99	2547.67
711.17	2605.02
711.35	2353.12
711.54	2392.03
711.72	2584.54
711.90	2486.23
712.09	2475.99
712.27	2363.36
712.45	2469.85
712.63	2439.13
712.82	2463.71
713.00	2488.28
713.18	2596.82
713.37	2537.43
713.55	2547.67
713.73	2531.29
713.91	2510.81
714.10	2394.08
714.28	2473.95
714.46	2512.86
714.65	2516.95
714.83	2498.52
715.01	2449.37
715.19	2514.91
715.38	2367.45
715.56	2506.71
715.74	2326.49
715.92	2414.56
716.11	2641.88
716.29	2269.15
716.47	2510.81
716.65	2430.94
716.84	2258.91
717.02	2504.67
717.20	2291.68
717.38	2469.85
717.57	2523.10
717.75	2457.56
717.93	2365.40
718.11	2514.91
718.30	2299.87
718.48	2572.25
718.66	2613.21
718.84	2543.58
719.03	2367.45
719.21	2308.06
719.39	2645.98
719.57	2625.50
719.75	2594.78
719.94	2396.12
720.12	2457.56
720.30	2504.67
720.48	2482.14
720.67	2328.54
720.85	2375.64
721.03	2447.32
721.21	2342.88
721.39	2545.63
721.58	2564.06
721.76	2486.23
721.94	2482.14
722.12	2453.47
722.30	2693.08
722.49	2449.37
722.67	2478.04
722.85	2482.14
723.03	2320.35
723.21	2445.27
723.40	2523.10
723.58	2555.86
723.76	2588.63
723.94	2660.31
724.12	2602.97
724.30	2654.17
724.49	2725.85
724.67	2340.83
724.85	2594.78
725.03	2346.97
725.21	2539.48
725.40	2637.78
725.58	2441.18
725.76	2584.54
725.94	2555.86
726.12	2396.12
726.30	2500.57
726.49	2504.67
726.67	2447.32
726.85	2615.26
727.03	2877.40
727.21	4239.30
727.39	5844.90
727.57	6748.06
727.76	7395.22
727.94	7737.23
728.12	6995.86
728.30	5554.09
728.48	5035.96
728.66	4485.05
728.84	4159.42
729.03	3583.95
729.21	3211.22
729.39	2893.78
729.57	2691.03
729.75	2629.59
729.93	2594.78
730.11	2367.45
730.30	2367.45
730.48	2562.01
730.66	2631.64
730.84	2535.39
731.02	2547.67
731.20	2430.94
731.38	2506.71
731.56	2385.88
731.74	2267.10
731.93	2502.62
732.11	2498.52
732.29	2383.84
732.47	2551.77
732.65	2473.95
732.83	2695.13
733.01	2547.67
733.19	2416.60
733.37	2537.43
733.56	2441.18
733.74	2361.31
733.92	2627.54
734.10	2400.22
734.28	2492.38
734.46	2355.16
734.64	2439.13
734.82	2437.08
735.00	2365.40
735.18	2488.28
735.36	2506.71
735.54	2414.56
735.73	2445.27
735.91	2449.37
736.09	2588.63
736.27	2392.03
736.45	2541.53
736.63	2301.92
736.81	2463.71
736.99	2678.74
737.17	2617.30
737.35	2410.46
737.53	2551.77
737.71	2385.88
737.89	2629.59
738.07	2326.49
738.25	2420.70
738.43	2373.60
738.61	2459.61
738.80	2396.12
738.98	2375.64
739.16	2412.51
739.34	2392.03
739.52	2660.31
739.70	2387.93
739.88	2600.92
740.06	2478.04
740.24	2293.72
740.42	2596.82
740.60	2269.15
740.78	2381.79
740.96	2353.12
741.14	2396.12
741.32	2500.57
741.50	2281.44
741.68	2703.32
741.86	2629.59
742.04	2361.31
742.22	2353.12
742.40	2473.95
742.58	2508.76
742.76	2375.64
742.94	2586.58
743.12	2312.16
743.30	2525.15
743.48	2551.77
743.66	2379.74
743.84	2541.53
744.02	2529.24
744.20	2465.75
744.38	2373.60
744.56	2363.36
744.74	2695.13
744.92	2580.44
745.10	2643.93
745.28	2562.01
745.46	2635.74
745.64	2445.27
745.82	2547.67
746.00	2439.13
746.18	2570.20
746.36	2373.60
746.54	2365.40
746.72	2482.14
746.90	2373.60
747.08	2564.06
747.26	2514.91
747.44	2572.25
747.62	2592.73
747.80	2482.14
747.98	2494.43
748.15	2523.10
748.33	2633.69
748.51	2494.43
748.69	2572.25
748.87	2461.66
749.05	2441.18
749.23	2527.19
749.41	2543.58
749.59	2492.38
749.77	2572.25
749.95	2400.22
750.13	2453.47
750.31	2549.72
750.49	2459.61
750.67	2627.54
750.85	2568.15
751.03	2594.78
751.20	2693.08
751.38	2545.63
751.56	2457.56
751.74	2508.76
751.92	2426.84
752.10	2310.11
752.28	2533.34
752.46	2437.08
752.64	2490.33
752.82	2455.51
753.00	2553.82
753.18	2316.25
753.35	2404.32
753.53	2492.38
753.71	2461.66
753.89	2504.67
754.07	2437.08
754.25	2596.82
754.43	2492.38
754.61	2381.79
754.79	2539.48
754.97	2435.03
755.14	2643.93
755.32	2351.07
755.50	2416.60
755.68	2502.62
755.86	2310.11
756.04	2387.93
756.22	2301.92
756.40	2605.02
756.57	2721.75
756.75	2392.03
756.93	2605.02
757.11	2543.58
757.29	2375.64
757.47	2334.68
757.65	2322.40
757.82	2220.00
758.00	2346.97
758.18	2424.80
758.36	2414.56
758.54	2711.51
758.72	2334.68
758.90	2535.39
759.07	2508.76
759.25	2385.88
759.43	2496.47
759.61	2351.07
759.79	3612.62
759.97	2678.74
760.15	2373.60
760.32	2408.41
760.50	2600.92
760.68	2717.65
760.86	2310.11
761.04	2645.98
761.22	2613.21
761.39	2480.09
761.57	2490.33
761.75	2377.69
761.93	2545.63
762.11	2420.70
762.28	2449.37
762.46	2400.22
762.64	2666.46
762.82	2375.64
763.00	2490.33
763.18	2584.54
763.35	2344.92
763.53	2547.67
763.71	2496.47
763.89	2463.71
764.07	2439.13
764.24	2539.48
764.42	2510.81
764.60	2428.89
764.78	2570.20
764.96	2570.20
765.13	2574.30
765.31	2445.27
765.49	2596.82
765.67	2398.17
765.84	2324.44
766.02	2379.74
766.20	2301.92
766.38	2578.39
766.56	2514.91
766.73	2512.86
766.91	2516.95
767.09	2531.29
767.27	2531.29
767.44	2396.12
767.62	2564.06
767.80	2400.22
767.98	2351.07
768.15	2478.04
768.33	2539.48
768.51	2574.30
768.69	2537.43
768.87	2494.43
769.04	2490.33
769.22	2813.91
769.40	2643.93
769.58	2605.02
769.75	2498.52
769.93	2752.47
770.11	2412.51
770.28	2367.45
770.46	2609.11
770.64	2525.15
770.82	2510.81
770.99	2396.12
771.17	2592.73
771.35	2379.74
771.53	2473.95
771.70	2439.13
771.88	2617.30
772.06	2439.13
772.23	2389.98
772.41	2480.09
772.59	2469.85
772.77	2342.88
772.94	2475.99
773.12	2521.05
773.30	2469.85
773.47	2471.90
773.65	2430.94
773.83	2654.17
774.01	2506.71
774.18	2273.25
774.36	2523.10
774.54	2365.40
774.71	2531.29
774.89	2389.98
775.07	2349.02
775.24	2346.97
775.42	2441.18
775.60	2764.76
775.78	2355.16
775.95	2316.25
776.13	2285.53
776.31	2236.38
776.48	2564.06
776.66	2607.06
776.84	2398.17
777.01	2404.32
777.19	2308.06
777.37	2353.12
777.54	2686.94
777.72	2711.51
777.90	2551.77
778.07	2404.32
778.25	2846.68
778.43	2600.92
778.60	2428.89
778.78	2500.57
778.96	2578.39
779.13	2432.99
779.31	2553.82
779.49	2428.89
779.66	2510.81
779.84	2508.76
780.01	2484.19
780.19	2392.03
780.37	2643.93
780.54	2529.24
780.72	2346.97
780.90	2443.23
781.07	2410.46
781.25	2373.60
781.43	2553.82
781.60	2469.85
781.78	2650.07
781.95	2502.62
782.13	2447.32
782.31	2404.32
782.48	2291.68
782.66	2465.75
782.83	2678.74
783.01	2435.03
783.19	2592.73
783.36	2455.51
783.54	2344.92
783.72	2498.52
783.89	2451.42
784.07	2488.28
784.24	2512.86
784.42	2586.58
784.60	2473.95
784.77	2498.52
784.95	2281.44
785.12	2422.75
785.30	2562.01
785.47	2422.75
785.65	2385.88
785.83	2420.70
786.00	2351.07
786.18	2459.61
786.35	2351.07
786.53	2408.41
786.71	2588.63
786.88	2555.86
787.06	2574.30
787.23	2418.65
787.41	2324.44
787.58	2389.98
787.76	2379.74
787.94	2469.85
788.11	2418.65
788.29	2383.84
788.46	2418.65
788.64	2342.88
788.81	2457.56
788.99	2389.98
789.16	2336.73
789.34	2469.85
789.52	2383.84
789.69	2320.35
789.87	2230.24
790.04	2424.80
790.22	2535.39
790.39	2760.66
790.57	2338.78
790.74	2320.35
790.92	2557.91
791.09	2269.15
791.27	2478.04
791.44	2498.52
791.62	2502.62
791.79	2562.01
791.97	2457.56
792.15	2785.24
792.32	2580.44
792.50	2445.27
792.67	2572.25
792.85	2711.51
793.02	2533.34
793.20	2394.08
793.37	2306.01
793.55	2369.50
793.72	2322.40
793.90	2531.29
794.07	2375.64
794.25	2346.97
794.42	2514.91
794.60	2398.17
794.77	2453.47
794.95	2582.49
795.12	2613.21
795.30	2537.43
795.47	2220.00
795.65	2703.32
795.82	2465.75
796.00	2342.88
796.17	2414.56
796.34	2404.32
796.52	2486.23
796.69	2543.58
796.87	2562.01
797.04	2394.08
797.22	2590.68
797.39	2482.14
797.57	2588.63
797.74	2457.56
797.92	2557.91
798.09	2443.23
798.27	2654.17
798.44	2346.97
798.62	2418.65
798.79	2543.58
798.96	2480.09
799.14	2523.10
799.31	2815.96
799.49	2365.40
799.66	2359.26
799.84	2441.18
800.01	2269.15
800.19	2512.86
800.36	2349.02
800.53	2432.99
800.71	2549.72
800.88	2744.28
801.06	2400.22
801.23	2342.88
801.41	2473.95
801.58	2482.14
801.75	2469.85
801.93	2412.51
802.10	2615.26
802.28	2494.43
802.45	2412.51
802.63	2533.34
802.80	2564.06
802.97	2430.94
803.15	2494.43
803.32	2482.14
803.50	2379.74
803.67	2418.65
803.84	2316.25
804.02	2498.52
804.19	2502.62
804.37	2256.86
804.54	2316.25
804.71	2463.71
804.89	2469.85
805.06	2389.98
805.24	2355.16
805.41	2392.03
805.58	2383.84
805.76	2750.42
805.93	2578.39
806.10	2537.43
806.28	2562.01
806.45	2516.95
806.63	2473.95
806.80	2521.05
806.97	2490.33
807.15	2439.13
807.32	2506.71
807.49	2426.84
807.67	2318.30
807.84	2512.86
808.01	2248.67
808.19	2650.07
808.36	2721.75
808.54	2371.55
808.71	2285.53
808.88	2467.80
809.06	2635.74
809.23	2643.93
809.40	2406.36
809.58	2437.08
809.75	2514.91
809.92	2375.64
810.10	2682.84
810.27	2506.71
810.44	2553.82
810.62	2539.48
810.79	2422.75
810.96	2396.12
811.14	2435.03
811.31	2576.34
811.48	2578.39
811.66	2404.32
811.83	2611.16
812.00	2570.20
812.18	2531.29
812.35	2703.32
812.52	2418.65
812.69	2432.99
812.87	2371.55
813.04	2336.73
813.21	2494.43
813.39	2400.22
813.56	2416.60
813.73	2553.82
813.91	2326.49
814.08	2435.03
814.25	2455.51
814.42	2289.63
814.60	2459.61
814.77	2475.99
814.94	2473.95
815.12	2527.19
815.29	2711.51
815.46	2371.55
815.63	2523.10
815.81	2457.56
815.98	2488.28
816.15	2478.04
816.33	2449.37
816.50	2473.95
816.67	2412.51
816.84	2564.06
817.02	2328.54
817.19	2432.99
817.36	2506.71
817.53	2496.47
817.71	2338.78
817.88	2531.29
818.05	2478.04
818.22	2482.14
818.40	2678.74
818.57	2383.84
818.74	2490.33
818.91	2385.88
819.09	2566.10
819.26	2543.58
819.43	2418.65
819.60	2340.83
819.78	2482.14
819.95	2596.82
820.12	2367.45
820.29	2637.78
820.47	2580.44
820.64	2424.80
820.81	2330.59
820.98	2406.36
821.15	2445.27
821.33	2605.02
821.50	2332.64
821.67	2473.95
821.84	2414.56
822.02	2519.00
822.19	2576.34
822.36	2375.64
822.53	2420.70
822.70	2349.02
822.88	2467.80
823.05	2701.27
823.22	2432.99
823.39	2451.42
823.56	2428.89
823.74	2748.37
823.91	2375.64
824.08	2340.83
824.25	2389.98
824.42	2695.13
824.60	2342.88
824.77	2529.24
824.94	2449.37
825.11	2490.33
825.28	2308.06
825.45	2519.00
825.63	2580.44
825.80	2344.92
825.97	2539.48
826.14	2506.71
826.31	2320.35
826.48	2521.05
826.66	2336.73
826.83	2418.65
827.00	2469.85
827.17	2392.03
827.34	2488.28
827.51	2441.18
827.69	2420.70
827.86	2303.96
828.03	2465.75
828.20	2441.18
828.37	2387.93
828.54	2543.58
828.71	2402.27
828.89	2650.07
829.06	2562.01
829.23	2633.69
829.40	2396.12
829.57	2301.92
829.74	2443.23
829.91	2471.90
830.09	2365.40
830.26	2590.68
830.43	2650.07
830.60	2439.13
830.77	2519.00
830.94	2551.77
831.11	2611.16
831.28	2494.43
831.46	2568.15
831.63	2349.02
831.80	2631.64
831.97	2455.51
832.14	2408.41
832.31	2451.42
832.48	2545.63
832.65	2580.44
832.82	2508.76
832.99	2463.71
833.17	2416.60
833.34	2596.82
833.51	2533.34
833.68	2254.81
833.85	2635.74
834.02	2383.84
834.19	2381.79
834.36	2363.36
834.53	2519.00
834.70	2605.02
834.87	2521.05
835.04	2365.40
835.22	2392.03
835.39	2469.85
835.56	2244.57
835.73	2426.84
835.90	2627.54
836.07	2412.51
836.24	2555.86
836.41	2269.15
836.58	2400.22
836.75	2562.01
836.92	2439.13
837.09	2373.60
837.26	2633.69
837.43	2541.53
837.60	2426.84
837.77	2381.79
837.94	2580.44
838.12	2619.35
838.29	2357.21
838.46	2240.48
838.63	2310.11
838.80	2645.98
838.97	2451.42
839.14	2394.08
839.31	2506.71
839.48	2498.52
839.65	2283.49
839.82	2406.36
839.99	2475.99
840.16	2519.00
840.33	2289.63
840.50	2428.89
840.67	2363.36
840.84	2217.95
841.01	2340.83
841.18	2416.60
841.35	2449.37
841.52	2588.63
841.69	2578.39
841.86	2297.82
842.03	2488.28
842.20	2562.01
842.37	2385.88
842.54	2424.80
842.71	2471.90
842.88	2244.57
843.05	2484.19
843.22	2383.84
843.39	2602.97
843.56	2443.23
843.73	2439.13
843.90	2467.80
844.07	2469.85
844.24	2562.01
844.41	2437.08
844.58	2398.17
844.75	2422.75
844.92	2525.15
845.09	2381.79
845.26	2398.17
845.43	2625.50
845.60	2422.75
845.77	2441.18
845.94	2422.75
846.10	2596.82
846.27	2330.59
846.44	2267.10
846.61	2308.06
846.78	2512.86
846.95	2648.02
847.12	2351.07
847.29	2406.36
847.46	2318.30
847.63	2584.54
847.80	2291.68
847.97	2367.45
848.14	2674.65
848.31	2396.12
848.48	2236.38
848.65	2521.05
848.82	2398.17
848.98	2781.14
849.15	2439.13
849.32	2531.29
849.49	2572.25
849.66	2478.04
849.83	2455.51
850.00	2355.16
850.17	2545.63
850.34	2424.80
850.51	2389.98
850.68	2363.36
850.85	2750.42
851.01	2613.21
851.18	2389.98
851.35	2371.55
851.52	2566.10
851.69	2643.93
851.86	2240.48
852.03	2394.08
852.20	2586.58
852.37	2424.80
852.53	2303.96
852.70	2310.11
852.87	2490.33
853.04	2543.58
853.21	2369.50
853.38	2486.23
853.55	2650.07
853.72	2643.93
853.89	2289.63
854.05	2299.87
854.22	2473.95
854.39	2465.75
854.56	2408.41
854.73	2555.86
854.90	2371.55
855.07	2416.60
855.23	2389.98
855.40	2326.49
855.57	2453.47
855.74	2275.29
855.91	2531.29
856.08	2285.53
856.25	2402.27
856.41	2383.84
856.58	2318.30
856.75	2422.75
856.92	2371.55
857.09	2619.35
857.26	2273.25
857.42	2453.47
857.59	2562.01
857.76	2422.75
857.93	2396.12
858.10	2426.84
858.27	2326.49
858.43	2422.75
858.60	2396.12
858.77	2316.25
858.94	2365.40
859.11	2596.82
859.27	2349.02
859.44	2424.80
859.61	2658.26
859.78	2545.63
859.95	2332.64
860.12	2332.64
860.28	2742.23
860.45	2691.03
860.62	2369.50
860.79	2424.80
860.95	2443.23
861.12	2404.32
861.29	2291.68
861.46	2400.22
861.63	2394.08
861.79	2516.95
861.96	2301.92
862.13	2318.30
862.30	2643.93
862.47	2414.56
862.63	2265.05
862.80	2465.75
862.97	2564.06
863.14	2551.77
863.30	2424.80
863.47	2342.88
863.64	2662.36
863.81	2516.95
863.97	2326.49
864.14	2357.21
864.31	2416.60
864.48	2492.38
864.65	2359.26
864.81	2557.91
864.98	2545.63
865.15	2580.44
865.32	2529.24
865.48	2527.19
865.65	2625.50
865.82	2426.84
865.98	2396.12
866.15	2404.32
866.32	2473.95
866.49	2400.22
866.65	2480.09
866.82	2381.79
866.99	2465.75
867.16	2346.97
867.32	2445.27
867.49	2308.06
867.66	2408.41
867.83	2387.93
867.99	2316.25
868.16	2373.60
868.33	2322.40
868.49	2406.36
868.66	2420.70
868.83	2424.80
868.99	2512.86
869.16	2412.51
869.33	2473.95
869.50	2478.04
869.66	2469.85
869.83	2496.47
870.00	2277.34
870.16	2453.47
870.33	2416.60
870.50	2605.02
870.66	2449.37
870.83	2486.23
871.00	2461.66
871.17	2596.82
871.33	2432.99
871.50	2332.64
871.67	2408.41
871.83	2342.88
872.00	2564.06
872.17	2428.89
872.33	2678.74
872.50	2588.63
872.67	2381.79
872.83	2285.53
873.00	2469.85
873.17	2467.80
873.33	2396.12
873.50	2430.94
873.67	2412.51
873.83	2387.93
874.00	2402.27
874.16	2439.13
874.33	2430.94
874.50	2293.72
874.66	2365.40
874.83	2420.70
875.00	2643.93
875.16	2535.39
875.33	2490.33
875.50	2170.85
875.66	2371.55
875.83	2488.28
875.99	2539.48
876.16	2451.42
876.33	2318.30
876.49	2392.03
876.66	2414.56
876.83	2334.68
876.99	2285.53
877.16	2478.04
877.32	2326.49
877.49	2359.26
877.66	2533.34
877.82	2602.97
877.99	2439.13
878.15	2547.67
878.32	2529.24
878.49	2439.13
878.65	2392.03
878.82	2521.05
878.98	2351.07
879.15	2652.12
879.32	2482.14
879.48	2416.60
879.65	2375.64
879.81	2389.98
879.98	2400.22
880.15	2387.93
880.31	2588.63
880.48	2326.49
880.64	2492.38
880.81	2482.14
880.97	2680.79
881.14	2547.67
881.31	2318.30
881.47	2523.10
881.64	2365.40
881.80	2254.81
881.97	2416.60
882.13	2426.84
882.30	2416.60
882.47	2349.02
882.63	2367.45
882.80	2377.69
882.96	2424.80
883.13	2547.67
883.29	2422.75
883.46	2387.93
883.62	2664.41
883.79	2398.17
883.95	2514.91
884.12	2283.49
884.29	2551.77
884.45	2422.75
884.62	2482.14
884.78	2404.32
884.95	2629.59
885.11	2387.93
885.28	2418.65
885.44	2349.02
885.61	2631.64
885.77	2650.07
885.94	2449.37
886.10	2445.27
886.27	2412.51
886.43	2684.89
886.60	2461.66
886.76	2346.97
886.93	2389.98
887.09	2445.27
887.26	2293.72
887.42	2475.99
887.59	2645.98
887.75	2678.74
887.92	2492.38
888.08	2416.60
888.25	2678.74
888.41	2629.59
888.58	2432.99
888.74	2310.11
888.91	2428.89
>>>>>End Processed Spectral Data<<<<<
