SpectraSuite Data File
++++++++++++++++++++++++++++++++++++
Date: Thu May 05 14:41:49 CEST 2016
User: root
Dark Spectrum Present: No
Reference Spectrum Present: No
Number of Sampled Component Spectra: 1
Spectrometers: USB4C02835
Integration Time (usec): 100000 (USB4C02835)
Spectra Averaged: 1 (USB4C02835)
Boxcar Smoothing: 0 (USB4C02835)
Correct for Electrical Dark: No (USB4C02835)
Strobe/Lamp Enabled: No (USB4C02835)
Correct for Detector Non-linearity: No (USB4C02835)
Correct for Stray Light: No (USB4C02835)
Number of Pixels in Processed Spectrum: 3648
>>>>>Begin Processed Spectral Data<<<<<
177.47	2002.91
177.69	2002.91
177.91	2002.91
178.13	1916.90
178.36	1898.47
178.58	2387.93
178.80	2490.33
179.02	2252.77
179.24	2271.20
179.46	2359.26
179.68	2385.88
179.90	2478.04
180.13	2498.52
180.35	2224.09
180.57	2303.96
180.79	2555.86
181.01	2557.91
181.23	2363.36
181.45	2441.18
181.67	2564.06
181.90	2588.63
182.12	2394.08
182.34	2166.75
182.56	2523.10
182.78	2459.61
183.00	2308.06
183.22	2385.88
183.44	2252.77
183.66	2867.16
183.89	2459.61
184.11	2375.64
184.33	2582.49
184.55	2580.44
184.77	2308.06
184.99	2398.17
185.21	2400.22
185.43	2830.29
185.65	2420.70
185.87	2283.49
186.10	2818.00
186.32	2758.61
186.54	2441.18
186.76	2457.56
186.98	2588.63
187.20	2482.14
187.42	2351.07
187.64	2332.64
187.86	2488.28
188.08	2590.68
188.30	2275.29
188.52	2363.36
188.75	2600.92
188.97	2662.36
189.19	2338.78
189.41	2342.88
189.63	2486.23
189.85	2455.51
190.07	2289.63
190.29	2269.15
190.51	2506.71
190.73	2346.97
190.95	2463.71
191.17	2289.63
191.39	2346.97
191.61	2490.33
191.84	2377.69
192.06	2410.46
192.28	2244.57
192.50	2783.19
192.72	2353.12
192.94	2455.51
193.16	2670.55
193.38	2529.24
193.60	2263.01
193.82	2363.36
194.04	2627.54
194.26	2496.47
194.48	2371.55
194.70	2324.44
194.92	2439.13
195.14	2602.97
195.36	2310.11
195.58	2473.95
195.80	2529.24
196.02	2389.98
196.24	2326.49
196.46	2426.84
196.69	2437.08
196.91	2768.85
197.13	2308.06
197.35	2273.25
197.57	2684.89
197.79	2512.86
198.01	2418.65
198.23	2330.59
198.45	2557.91
198.67	2408.41
198.89	2306.01
199.11	2428.89
199.33	2367.45
199.55	2176.99
199.77	2301.92
199.99	2455.51
200.21	2455.51
200.43	2537.43
200.65	2275.29
200.87	2213.85
201.09	2416.60
201.31	2506.71
201.53	2351.07
201.75	2369.50
201.97	2531.29
202.19	2465.75
202.41	2377.69
202.63	2555.86
202.85	2613.21
203.07	2539.48
203.29	2344.92
203.51	2285.53
203.73	2338.78
203.95	2838.48
204.17	2351.07
204.39	2459.61
204.61	2498.52
204.83	2439.13
205.05	2414.56
205.27	2377.69
205.49	2701.27
205.71	2430.94
205.93	2349.02
206.15	2326.49
206.37	2482.14
206.59	2447.32
206.81	2152.42
207.03	2312.16
207.25	2408.41
207.47	2596.82
207.69	2340.83
207.91	2551.77
208.13	2678.74
208.34	2439.13
208.56	2291.68
208.78	2398.17
209.00	2387.93
209.22	2334.68
209.44	2293.72
209.66	2281.44
209.88	2519.00
210.10	2478.04
210.32	2338.78
210.54	2527.19
210.76	2480.09
210.98	2572.25
211.20	2222.05
211.42	2441.18
211.64	2627.54
211.86	2537.43
212.08	2473.95
212.30	2357.21
212.52	2465.75
212.74	2572.25
212.96	2363.36
213.17	2445.27
213.39	2590.68
213.61	2736.09
213.83	2404.32
214.05	2328.54
214.27	2605.02
214.49	2432.99
214.71	2287.58
214.93	2445.27
215.15	2441.18
215.37	2512.86
215.59	2160.61
215.81	2385.88
216.03	2645.98
216.24	2459.61
216.46	2340.83
216.68	2412.51
216.90	2523.10
217.12	2539.48
217.34	2322.40
217.56	2482.14
217.78	2725.85
218.00	2494.43
218.22	2441.18
218.44	2392.03
218.66	2502.62
218.87	2678.74
219.09	2385.88
219.31	2404.32
219.53	2559.96
219.75	2435.03
219.97	2338.78
220.19	2428.89
220.41	2488.28
220.63	2654.17
220.85	2322.40
221.06	2293.72
221.28	2562.01
221.50	2562.01
221.72	2346.97
221.94	2285.53
222.16	2555.86
222.38	2568.15
222.60	2408.41
222.82	2340.83
223.03	2539.48
223.25	2375.64
223.47	2371.55
223.69	2547.67
223.91	2592.73
224.13	2519.00
224.35	2320.35
224.57	2551.77
224.78	2555.86
225.00	2373.60
225.22	2465.75
225.44	2324.44
225.66	2486.23
225.88	2463.71
226.10	2410.46
226.32	2359.26
226.53	2654.17
226.75	2389.98
226.97	2346.97
227.19	2363.36
227.41	2473.95
227.63	2426.84
227.85	2195.42
228.06	2443.23
228.28	2525.15
228.50	2525.15
228.72	2217.95
228.94	2363.36
229.16	2277.34
229.37	2420.70
229.59	2281.44
229.81	2519.00
230.03	2369.50
230.25	2324.44
230.47	2279.39
230.69	2250.72
230.90	2611.16
231.12	2402.27
231.34	2379.74
231.56	2504.67
231.78	2351.07
232.00	2535.39
232.21	2387.93
232.43	2342.88
232.65	2246.62
232.87	2539.48
233.09	2308.06
233.30	2369.50
233.52	2650.07
233.74	2490.33
233.96	2351.07
234.18	2455.51
234.40	2465.75
234.61	2678.74
234.83	2252.77
235.05	2269.15
235.27	2815.96
235.49	2602.97
235.70	2238.43
235.92	2400.22
236.14	2633.69
236.36	2846.68
236.58	2234.33
236.79	2453.47
237.01	2494.43
237.23	2469.85
237.45	2473.95
237.67	2308.06
237.88	2492.38
238.10	2666.46
238.32	2263.01
238.54	2369.50
238.76	2504.67
238.97	2490.33
239.19	2275.29
239.41	2449.37
239.63	2600.92
239.85	2404.32
240.06	2318.30
240.28	2389.98
240.50	2619.35
240.72	2424.80
240.93	2293.72
241.15	2418.65
241.37	2498.52
241.59	2623.45
241.81	2359.26
242.02	2334.68
242.24	2490.33
242.46	2641.88
242.68	2258.91
242.89	2254.81
243.11	2559.96
243.33	2527.19
243.55	2357.21
243.76	2344.92
243.98	2422.75
244.20	2490.33
244.42	2375.64
244.64	2334.68
244.85	2322.40
245.07	2400.22
245.29	2418.65
245.51	2334.68
245.72	2506.71
245.94	2635.74
246.16	2426.84
246.38	2398.17
246.59	2475.99
246.81	2381.79
247.03	2338.78
247.24	2242.53
247.46	2480.09
247.68	2545.63
247.90	2244.57
248.11	2340.83
248.33	2633.69
248.55	2447.32
248.77	2457.56
248.98	2432.99
249.20	2777.05
249.42	2463.71
249.64	2359.26
249.85	2353.12
250.07	2471.90
250.29	2592.73
250.50	2416.60
250.72	2226.14
250.94	2625.50
251.16	2770.90
251.37	2389.98
251.59	2418.65
251.81	2537.43
252.02	2652.12
252.24	2258.91
252.46	2482.14
252.68	2404.32
252.89	2402.27
253.11	2224.09
253.33	2508.76
253.54	2670.55
253.76	2332.64
253.98	2383.84
254.20	2326.49
254.41	2342.88
254.63	2451.42
254.85	2299.87
255.06	2502.62
255.28	2514.91
255.50	2441.18
255.71	2328.54
255.93	2195.42
256.15	2494.43
256.36	2525.15
256.58	2203.61
256.80	2359.26
257.02	2441.18
257.23	2480.09
257.45	2379.74
257.67	2447.32
257.88	2359.26
258.10	2506.71
258.32	2398.17
258.53	2475.99
258.75	2658.26
258.97	2359.26
259.18	2332.64
259.40	2283.49
259.62	2676.70
259.83	2641.88
260.05	2406.36
260.27	2887.64
260.48	2660.31
260.70	2365.40
260.92	2220.00
261.13	2281.44
261.35	2478.04
261.57	2543.58
261.78	2181.09
262.00	2318.30
262.22	2551.77
262.43	2351.07
262.65	2383.84
262.86	2389.98
263.08	2746.33
263.30	2471.90
263.51	2209.76
263.73	2392.03
263.95	2645.98
264.16	2400.22
264.38	2291.68
264.60	2322.40
264.81	2445.27
265.03	2635.74
265.25	2592.73
265.46	2361.31
265.68	2605.02
265.89	2545.63
266.11	2228.19
266.33	2355.16
266.54	2568.15
266.76	2598.87
266.98	2441.18
267.19	2541.53
267.41	2678.74
267.62	2461.66
267.84	2228.19
268.06	2453.47
268.27	2533.34
268.49	2600.92
268.70	2449.37
268.92	2324.44
269.14	2326.49
269.35	2260.96
269.57	2416.60
269.79	2410.46
270.00	2338.78
270.22	2711.51
270.43	2244.57
270.65	2205.66
270.87	2512.86
271.08	2539.48
271.30	2416.60
271.51	2351.07
271.73	2598.87
271.95	2617.30
272.16	2312.16
272.38	2471.90
272.59	2490.33
272.81	2600.92
273.02	2383.84
273.24	2373.60
273.46	2652.12
273.67	2392.03
273.89	2209.76
274.10	2316.25
274.32	2609.11
274.54	2473.95
274.75	2398.17
274.97	2355.16
275.18	2598.87
275.40	2590.68
275.61	2355.16
275.83	2377.69
276.05	2353.12
276.26	2435.03
276.48	2457.56
276.69	2457.56
276.91	2416.60
277.12	2623.45
277.34	2512.86
277.55	2480.09
277.77	2414.56
277.99	2400.22
278.20	2396.12
278.42	2322.40
278.63	2367.45
278.85	2420.70
279.06	2344.92
279.28	2482.14
279.49	2598.87
279.71	2660.31
279.93	2435.03
280.14	2490.33
280.36	2406.36
280.57	2670.55
280.79	2482.14
281.00	2301.92
281.22	2381.79
281.43	2742.23
281.65	2220.00
281.86	2320.35
282.08	2486.23
282.29	2822.10
282.51	2277.34
282.73	2244.57
282.94	2310.11
283.16	2555.86
283.37	2574.30
283.59	2449.37
283.80	2498.52
284.02	2500.57
284.23	2498.52
284.45	2428.89
284.66	2416.60
284.88	2408.41
285.09	2369.50
285.31	2439.13
285.52	2533.34
285.74	2250.72
285.95	2500.57
286.17	2465.75
286.38	2582.49
286.60	2367.45
286.81	2308.06
287.03	2281.44
287.24	2512.86
287.46	2521.05
287.67	2586.58
287.89	2600.92
288.10	2426.84
288.32	2564.06
288.53	2613.21
288.75	2420.70
288.96	2596.82
289.18	2375.64
289.39	2381.79
289.61	2463.71
289.82	2744.28
290.04	2643.93
290.25	2338.78
290.47	2465.75
290.68	2457.56
290.90	2605.02
291.11	2357.21
291.33	2523.10
291.54	2346.97
291.76	2449.37
291.97	2553.82
292.18	2504.67
292.40	2379.74
292.61	2412.51
292.83	2744.28
293.04	2461.66
293.26	2473.95
293.47	2447.32
293.69	2363.36
293.90	2445.27
294.12	2658.26
294.33	2494.43
294.55	2422.75
294.76	2559.96
294.97	2637.78
295.19	2744.28
295.40	2406.36
295.62	2531.29
295.83	2605.02
296.05	2414.56
296.26	2514.91
296.48	2418.65
296.69	2435.03
296.90	2514.91
297.12	2531.29
297.33	2580.44
297.55	2486.23
297.76	2535.39
297.98	2486.23
298.19	2525.15
298.41	2445.27
298.62	2357.21
298.83	2580.44
299.05	2457.56
299.26	2441.18
299.48	2375.64
299.69	2516.95
299.90	2471.90
300.12	2326.49
300.33	2529.24
300.55	2502.62
300.76	2512.86
300.98	2340.83
301.19	2617.30
301.40	2475.99
301.62	2439.13
301.83	2566.10
302.05	2533.34
302.26	2422.75
302.47	2467.80
302.69	2336.73
302.90	2461.66
303.12	2252.77
303.33	2514.91
303.54	2758.61
303.76	2406.36
303.97	2463.71
304.19	2633.69
304.40	2379.74
304.61	2547.67
304.83	2588.63
305.04	2574.30
305.26	2613.21
305.47	2475.99
305.68	2490.33
305.90	2338.78
306.11	2588.63
306.33	2432.99
306.54	2408.41
306.75	2357.21
306.97	2351.07
307.18	2314.20
307.39	2432.99
307.61	2486.23
307.82	2424.80
308.04	2541.53
308.25	2338.78
308.46	2535.39
308.68	2471.90
308.89	2461.66
309.10	2600.92
309.32	2519.00
309.53	2506.71
309.74	2613.21
309.96	2408.41
310.17	2580.44
310.39	2396.12
310.60	2559.96
310.81	2535.39
311.03	2273.25
311.24	2525.15
311.45	2508.76
311.67	2627.54
311.88	2486.23
312.09	2506.71
312.31	2465.75
312.52	2408.41
312.73	2396.12
312.95	2342.88
313.16	2420.70
313.37	2490.33
313.59	2529.24
313.80	2592.73
314.01	2715.61
314.23	2396.12
314.44	2291.68
314.65	2269.15
314.87	2367.45
315.08	2410.46
315.29	2375.64
315.51	2369.50
315.72	2349.02
315.93	2471.90
316.15	2420.70
316.36	2392.03
316.57	2492.38
316.79	2478.04
317.00	2330.59
317.21	2564.06
317.43	2377.69
317.64	2428.89
317.85	2449.37
318.07	2400.22
318.28	2441.18
318.49	2598.87
318.70	2752.47
318.92	2652.12
319.13	2621.40
319.34	2627.54
319.56	2539.48
319.77	2695.13
319.98	2613.21
320.20	2586.58
320.41	2576.34
320.62	2570.20
320.83	2332.64
321.05	2715.61
321.26	2559.96
321.47	2562.01
321.69	2605.02
321.90	2267.10
322.11	2353.12
322.32	2523.10
322.54	2619.35
322.75	2404.32
322.96	2791.38
323.18	2281.44
323.39	2242.53
323.60	2342.88
323.81	2541.53
324.03	2445.27
324.24	2492.38
324.45	2469.85
324.66	2357.21
324.88	2519.00
325.09	2629.59
325.30	2424.80
325.52	2484.19
325.73	2566.10
325.94	2330.59
326.15	2324.44
326.37	2394.08
326.58	2641.88
326.79	2660.31
327.00	2357.21
327.22	2420.70
327.43	2449.37
327.64	2279.39
327.85	2523.10
328.07	2457.56
328.28	2740.18
328.49	2441.18
328.70	2392.03
328.92	2375.64
329.13	2455.51
329.34	2523.10
329.55	2602.97
329.76	2531.29
329.98	2418.65
330.19	2633.69
330.40	2514.91
330.61	2494.43
330.83	2592.73
331.04	2455.51
331.25	2389.98
331.46	2412.51
331.68	2424.80
331.89	2580.44
332.10	2447.32
332.31	2334.68
332.52	2504.67
332.74	2666.46
332.95	2250.72
333.16	2416.60
333.37	2516.95
333.58	2457.56
333.80	2451.42
334.01	2267.10
334.22	2471.90
334.43	2402.27
334.64	2371.55
334.86	2301.92
335.07	2371.55
335.28	2666.46
335.49	2297.82
335.70	2480.09
335.92	2668.50
336.13	2768.85
336.34	2453.47
336.55	2398.17
336.76	2459.61
336.98	2193.37
337.19	2469.85
337.40	2635.74
337.61	2777.05
337.82	2392.03
338.04	2459.61
338.25	2330.59
338.46	2508.76
338.67	2410.46
338.88	2269.15
339.09	2338.78
339.31	2482.14
339.52	2336.73
339.73	2373.60
339.94	2373.60
340.15	2605.02
340.36	2400.22
340.58	2404.32
340.79	2383.84
341.00	2562.01
341.21	2363.36
341.42	2592.73
341.63	2365.40
341.85	2582.49
342.06	2512.86
342.27	2359.26
342.48	2572.25
342.69	2324.44
342.90	2652.12
343.12	2643.93
343.33	2392.03
343.54	2510.81
343.75	2719.70
343.96	2482.14
344.17	2385.88
344.38	2519.00
344.60	2379.74
344.81	2342.88
345.02	2367.45
345.23	2670.55
345.44	2772.95
345.65	2496.47
345.86	2498.52
346.07	2521.05
346.29	2379.74
346.50	2482.14
346.71	2465.75
346.92	2660.31
347.13	2772.95
347.34	2408.41
347.55	2371.55
347.76	2539.48
347.98	2260.96
348.19	2420.70
348.40	2611.16
348.61	2392.03
348.82	2715.61
349.03	2496.47
349.24	2363.36
349.45	2686.94
349.66	2320.35
349.88	2441.18
350.09	2310.11
350.30	2590.68
350.51	2637.78
350.72	2529.24
350.93	2449.37
351.14	2310.11
351.35	2486.23
351.56	2414.56
351.77	2432.99
351.99	2510.81
352.20	2682.84
352.41	2486.23
352.62	2281.44
352.83	2426.84
353.04	2451.42
353.25	2392.03
353.46	2570.20
353.67	2621.40
353.88	2295.77
354.09	2482.14
354.30	2490.33
354.52	2621.40
354.73	2488.28
354.94	2445.27
355.15	2457.56
355.36	2727.89
355.57	2445.27
355.78	2357.21
355.99	2340.83
356.20	2498.52
356.41	2664.41
356.62	2486.23
356.83	2465.75
357.04	2670.55
357.25	2256.86
357.46	2408.41
357.68	2299.87
357.89	2416.60
358.10	2514.91
358.31	2398.17
358.52	2441.18
358.73	2367.45
358.94	2420.70
359.15	2389.98
359.36	2441.18
359.57	2445.27
359.78	2506.71
359.99	2555.86
360.20	2414.56
360.41	2428.89
360.62	2506.71
360.83	2451.42
361.04	2420.70
361.25	2510.81
361.46	2695.13
361.67	2514.91
361.88	2480.09
362.09	2600.92
362.30	2527.19
362.51	2389.98
362.72	2365.40
362.93	2592.73
363.14	2602.97
363.35	2428.89
363.56	2410.46
363.78	2568.15
363.99	2590.68
364.20	2422.75
364.41	2510.81
364.62	2645.98
364.83	2596.82
365.04	2430.94
365.25	2463.71
365.46	2670.55
365.67	2449.37
365.88	2490.33
366.09	2408.41
366.30	2447.32
366.51	2465.75
366.72	2252.77
366.93	2420.70
367.14	2514.91
367.35	2654.17
367.56	2381.79
367.77	2576.34
367.98	2488.28
368.18	2535.39
368.39	2529.24
368.60	2344.92
368.81	2547.67
369.02	2543.58
369.23	2445.27
369.44	2277.34
369.65	2373.60
369.86	2529.24
370.07	2551.77
370.28	2324.44
370.49	2543.58
370.70	2555.86
370.91	2332.64
371.12	2291.68
371.33	2592.73
371.54	2465.75
371.75	2613.21
371.96	2240.48
372.17	2527.19
372.38	2494.43
372.59	2578.39
372.80	2482.14
373.01	2424.80
373.22	2412.51
373.43	2418.65
373.64	2293.72
373.85	2590.68
374.06	2721.75
374.26	2529.24
374.47	2482.14
374.68	2672.60
374.89	2580.44
375.10	2400.22
375.31	2549.72
375.52	2494.43
375.73	2504.67
375.94	2363.36
376.15	2615.26
376.36	2463.71
376.57	2324.44
376.78	2334.68
376.99	2381.79
377.20	2572.25
377.40	2371.55
377.61	2697.17
377.82	2269.15
378.03	2631.64
378.24	2545.63
378.45	2504.67
378.66	2506.71
378.87	2258.91
379.08	2336.73
379.29	2422.75
379.50	2574.30
379.71	2525.15
379.91	2594.78
380.12	2439.13
380.33	2420.70
380.54	2531.29
380.75	2512.86
380.96	2465.75
381.17	2588.63
381.38	2383.84
381.59	2508.76
381.80	2408.41
382.00	2650.07
382.21	2523.10
382.42	2701.27
382.63	2789.33
382.84	2549.72
383.05	2611.16
383.26	2629.59
383.47	2486.23
383.68	2525.15
383.88	2545.63
384.09	2504.67
384.30	2621.40
384.51	2504.67
384.72	2424.80
384.93	2314.20
385.14	2457.56
385.35	2594.78
385.55	2316.25
385.76	2629.59
385.97	2504.67
386.18	2375.64
386.39	2408.41
386.60	2486.23
386.81	2404.32
387.02	2312.16
387.22	2326.49
387.43	2607.06
387.64	2541.53
387.85	2703.32
388.06	2652.12
388.27	3985.35
388.48	8488.83
388.68	12212.04
388.89	14546.72
389.10	15886.09
389.31	15023.90
389.52	11650.89
389.73	9998.18
389.93	9117.56
390.14	8519.55
390.35	7389.07
390.56	6707.10
390.77	5478.32
390.98	4165.57
391.18	3448.78
391.39	2936.79
391.60	2572.25
391.81	2709.46
392.02	2424.80
392.23	2768.85
392.43	2504.67
392.64	2553.82
392.85	2443.23
393.06	2695.13
393.27	2451.42
393.47	2428.89
393.68	2424.80
393.89	2424.80
394.10	2516.95
394.31	2373.60
394.52	2422.75
394.72	2318.30
394.93	2693.08
395.14	2291.68
395.35	2596.82
395.56	2363.36
395.76	2441.18
395.97	2437.08
396.18	2525.15
396.39	2613.21
396.60	2965.46
396.80	2758.61
397.01	2652.12
397.22	2555.86
397.43	2731.99
397.64	2467.80
397.84	2547.67
398.05	2740.18
398.26	2502.62
398.47	2553.82
398.67	2559.96
398.88	2506.71
399.09	2619.35
399.30	2469.85
399.51	2490.33
399.71	2385.88
399.92	2492.38
400.13	2459.61
400.34	2441.18
400.54	2494.43
400.75	2736.09
400.96	2502.62
401.17	2654.17
401.37	2553.82
401.58	2469.85
401.79	2412.51
402.00	2592.73
402.21	2928.60
402.41	2852.82
402.62	2844.63
402.83	2895.83
403.04	2916.31
403.24	3123.15
403.45	2566.10
403.66	2703.32
403.87	2734.04
404.07	2795.48
404.28	2715.61
404.49	2703.32
404.70	2545.63
404.90	2582.49
405.11	2504.67
405.32	2549.72
405.52	2439.13
405.73	2447.32
405.94	2318.30
406.15	2406.36
406.35	2586.58
406.56	2576.34
406.77	2471.90
406.98	2490.33
407.18	2342.88
407.39	2643.93
407.60	2422.75
407.80	2543.58
408.01	2437.08
408.22	2547.67
408.43	2402.27
408.63	2496.47
408.84	2543.58
409.05	2654.17
409.25	2385.88
409.46	2406.36
409.67	2494.43
409.88	2373.60
410.08	2535.39
410.29	2457.56
410.50	2596.82
410.70	2531.29
410.91	2406.36
411.12	2574.30
411.32	2531.29
411.53	2318.30
411.74	2430.94
411.95	2578.39
412.15	2529.24
412.36	2600.92
412.57	2514.91
412.77	2590.68
412.98	2539.48
413.19	2451.42
413.39	2562.01
413.60	2498.52
413.81	2637.78
414.01	2326.49
414.22	2469.85
414.43	2578.39
414.63	2416.60
414.84	2584.54
415.05	2482.14
415.25	2351.07
415.46	2564.06
415.67	2408.41
415.87	2418.65
416.08	2394.08
416.29	2521.05
416.49	2592.73
416.70	2457.56
416.91	2418.65
417.11	2523.10
417.32	2582.49
417.53	2494.43
417.73	2555.86
417.94	2521.05
418.15	2527.19
418.35	2428.89
418.56	2465.75
418.77	2805.72
418.97	2557.91
419.18	2463.71
419.38	2230.24
419.59	2490.33
419.80	2709.46
420.00	2412.51
420.21	2336.73
420.42	2592.73
420.62	2562.01
420.83	2383.84
421.04	2465.75
421.24	2449.37
421.45	2547.67
421.65	2400.22
421.86	2447.32
422.07	2637.78
422.27	2535.39
422.48	2482.14
422.69	2340.83
422.89	2490.33
423.10	2473.95
423.30	2334.68
423.51	2465.75
423.72	2478.04
423.92	2539.48
424.13	2353.12
424.33	2461.66
424.54	2578.39
424.75	2508.76
424.95	2658.26
425.16	2402.27
425.36	2377.69
425.57	2529.24
425.78	2523.10
425.98	2572.25
426.19	2502.62
426.39	2369.50
426.60	2484.19
426.81	2588.63
427.01	2551.77
427.22	2392.03
427.42	2258.91
427.63	2400.22
427.83	2594.78
428.04	2699.22
428.25	2572.25
428.45	2553.82
428.66	2654.17
428.86	2514.91
429.07	2375.64
429.28	2324.44
429.48	2428.89
429.69	2453.47
429.89	2435.03
430.10	2314.20
430.30	2559.96
430.51	2514.91
430.71	2314.20
430.92	2478.04
431.13	2394.08
431.33	2545.63
431.54	2414.56
431.74	2643.93
431.95	2785.24
432.15	2365.40
432.36	2441.18
432.56	2496.47
432.77	2725.85
432.98	2662.36
433.18	2504.67
433.39	2412.51
433.59	2521.05
433.80	2781.14
434.00	2719.70
434.21	2396.12
434.41	2467.80
434.62	2799.57
434.82	2375.64
435.03	2342.88
435.23	2613.21
435.44	2334.68
435.64	2449.37
435.85	2521.05
436.06	2549.72
436.26	2537.43
436.47	2473.95
436.67	2377.69
436.88	2547.67
437.08	2562.01
437.29	2635.74
437.49	2439.13
437.70	2590.68
437.90	2514.91
438.11	2705.37
438.31	2547.67
438.52	2713.56
438.72	2652.12
438.93	2752.47
439.13	2576.34
439.34	2715.61
439.54	2551.77
439.75	2572.25
439.95	2406.36
440.16	2412.51
440.36	2471.90
440.57	2535.39
440.77	2455.51
440.98	2490.33
441.18	2519.00
441.39	2447.32
441.59	2328.54
441.80	2772.95
442.00	2488.28
442.21	2539.48
442.41	2361.31
442.62	2543.58
442.82	2416.60
443.02	2461.66
443.23	2551.77
443.43	2473.95
443.64	2719.70
443.84	2410.46
444.05	2529.24
444.25	2512.86
444.46	2471.90
444.66	2457.56
444.87	2586.58
445.07	2324.44
445.28	2471.90
445.48	2637.78
445.69	2545.63
445.89	2834.39
446.09	2527.19
446.30	2703.32
446.50	2906.07
446.71	4571.07
446.91	5777.32
447.12	6569.88
447.32	7171.99
447.53	6690.71
447.73	5332.91
447.93	4739.00
448.14	4587.45
448.34	4489.15
448.55	3874.76
448.75	3874.76
448.96	3571.66
449.16	3342.28
449.36	3108.82
449.57	2740.18
449.77	2568.15
449.98	2502.62
450.18	2578.39
450.39	2549.72
450.59	2570.20
450.79	2537.43
451.00	2392.03
451.20	2693.08
451.41	2430.94
451.61	2570.20
451.81	2504.67
452.02	2340.83
452.22	2357.21
452.43	2420.70
452.63	2392.03
452.84	2498.52
453.04	2387.93
453.24	2506.71
453.45	2400.22
453.65	2394.08
453.86	2447.32
454.06	2461.66
454.26	2621.40
454.47	2359.26
454.67	2586.58
454.87	2545.63
455.08	2494.43
455.28	2621.40
455.49	2480.09
455.69	2453.47
455.89	2770.90
456.10	2576.34
456.30	2408.41
456.51	2519.00
456.71	2553.82
456.91	2521.05
457.12	2400.22
457.32	2576.34
457.52	2398.17
457.73	2559.96
457.93	2541.53
458.14	2449.37
458.34	2330.59
458.54	2437.08
458.75	2424.80
458.95	2619.35
459.15	2514.91
459.36	2498.52
459.56	2527.19
459.76	2832.34
459.97	2537.43
460.17	2453.47
460.37	2547.67
460.58	2469.85
460.78	2519.00
460.99	2420.70
461.19	2406.36
461.39	2465.75
461.60	2473.95
461.80	2572.25
462.00	2226.14
462.21	2480.09
462.41	2389.98
462.61	2408.41
462.82	2238.43
463.02	2512.86
463.22	2535.39
463.43	2613.21
463.63	2506.71
463.83	2643.93
464.04	2496.47
464.24	2398.17
464.44	2402.27
464.64	2514.91
464.85	2543.58
465.05	2535.39
465.25	2465.75
465.46	2447.32
465.66	2633.69
465.86	2553.82
466.07	2461.66
466.27	2490.33
466.47	2363.36
466.68	2256.86
466.88	2605.02
467.08	2510.81
467.29	2547.67
467.49	2437.08
467.69	2432.99
467.89	2570.20
468.10	2473.95
468.30	2498.52
468.50	2535.39
468.71	2658.26
468.91	2275.29
469.11	2643.93
469.31	2486.23
469.52	2383.84
469.72	2768.85
469.92	2678.74
470.13	2432.99
470.33	2461.66
470.53	2494.43
470.73	2934.74
470.94	3272.65
471.14	3420.11
471.34	3823.56
471.54	3782.60
471.75	3366.86
471.95	3184.59
472.15	2944.98
472.36	2996.18
472.56	2877.40
472.76	3000.27
472.96	2959.31
473.17	2781.14
473.37	2715.61
473.57	2482.14
473.77	2637.78
473.98	2545.63
474.18	2389.98
474.38	2797.53
474.58	2396.12
474.79	2396.12
474.99	2467.80
475.19	2602.97
475.39	2316.25
475.60	2490.33
475.80	2459.61
476.00	2543.58
476.20	2439.13
476.41	2416.60
476.61	2641.88
476.81	2734.04
477.01	2457.56
477.21	2572.25
477.42	2584.54
477.62	2416.60
477.82	2701.27
478.02	2432.99
478.23	2502.62
478.43	2351.07
478.63	2498.52
478.83	2451.42
479.03	2473.95
479.24	2674.65
479.44	2789.33
479.64	2383.84
479.84	2367.45
480.04	2428.89
480.25	2611.16
480.45	2424.80
480.65	2449.37
480.85	2588.63
481.06	2455.51
481.26	2461.66
481.46	2492.38
481.66	2562.01
481.86	2383.84
482.06	2600.92
482.27	2441.18
482.47	2381.79
482.67	2559.96
482.87	2389.98
483.07	2559.96
483.28	2357.21
483.48	2318.30
483.68	2398.17
483.88	2400.22
484.08	2287.58
484.29	2379.74
484.49	2527.19
484.69	2312.16
484.89	2680.79
485.09	2703.32
485.29	2496.47
485.50	2496.47
485.70	2381.79
485.90	2670.55
486.10	2512.86
486.30	2519.00
486.50	2627.54
486.71	2547.67
486.91	2562.01
487.11	2564.06
487.31	2365.40
487.51	2600.92
487.71	2373.60
487.91	2379.74
488.12	2351.07
488.32	2297.82
488.52	2416.60
488.72	2254.81
488.92	2441.18
489.12	2639.83
489.32	2559.96
489.53	2494.43
489.73	2291.68
489.93	2760.66
490.13	2406.36
490.33	2381.79
490.53	2490.33
490.73	2553.82
490.94	2299.87
491.14	2588.63
491.34	2674.65
491.54	2678.74
491.74	3321.81
491.94	3893.19
492.14	4296.64
492.34	4394.94
492.54	4054.98
492.75	3397.58
492.95	3399.63
493.15	3229.65
493.35	3172.30
493.55	3047.38
493.75	2947.03
493.95	3055.57
494.15	2705.37
494.35	2629.59
494.56	2539.48
494.76	2486.23
494.96	2572.25
495.16	2449.37
495.36	2422.75
495.56	2496.47
495.76	2494.43
495.96	2486.23
496.16	2416.60
496.36	2709.46
496.56	2465.75
496.77	2453.47
496.97	2408.41
497.17	2586.58
497.37	2351.07
497.57	2553.82
497.77	2572.25
497.97	2424.80
498.17	2480.09
498.37	2404.32
498.57	2543.58
498.77	2416.60
498.97	2537.43
499.17	2723.80
499.38	2471.90
499.58	2596.82
499.78	2535.39
499.98	2682.84
500.18	2457.56
500.38	2478.04
500.58	2676.70
500.78	3026.90
500.98	5593.00
501.18	7686.03
501.38	9330.55
501.58	10403.68
501.78	10116.97
501.98	8093.57
502.18	6680.47
502.38	5810.09
502.58	5470.12
502.78	4835.25
502.98	4734.90
503.18	4417.47
503.38	4186.05
503.59	3553.23
503.79	3426.25
503.99	3182.54
504.19	3157.97
504.39	3127.25
504.59	3108.82
504.79	3098.58
504.99	3194.83
505.19	2815.96
505.39	2768.85
505.59	2869.20
505.79	2842.58
505.99	2715.61
506.19	2572.25
506.39	2729.94
506.59	2484.19
506.79	2512.86
506.99	2676.70
507.19	2508.76
507.39	2545.63
507.59	2367.45
507.79	2400.22
507.99	2359.26
508.19	2535.39
508.39	2457.56
508.59	2498.52
508.79	2641.88
508.99	2705.37
509.19	2432.99
509.39	2523.10
509.59	2400.22
509.79	2400.22
509.99	2535.39
510.19	2586.58
510.39	2502.62
510.59	2490.33
510.79	2398.17
510.99	2416.60
511.19	2410.46
511.39	2699.22
511.59	2645.98
511.79	2576.34
511.99	2519.00
512.19	2727.89
512.38	2545.63
512.58	2453.47
512.78	2381.79
512.98	2684.89
513.18	2715.61
513.38	2324.44
513.58	2553.82
513.78	2445.27
513.98	2521.05
514.18	2490.33
514.38	2406.36
514.58	2498.52
514.78	2365.40
514.98	2349.02
515.18	2527.19
515.38	2324.44
515.58	2709.46
515.78	2416.60
515.98	2461.66
516.18	2539.48
516.38	2568.15
516.57	2422.75
516.77	2439.13
516.97	2500.57
517.17	2385.88
517.37	2279.39
517.57	2543.58
517.77	2478.04
517.97	2531.29
518.17	2490.33
518.37	2424.80
518.57	2349.02
518.77	2400.22
518.97	2410.46
519.16	2510.81
519.36	2654.17
519.56	2449.37
519.76	2404.32
519.96	2437.08
520.16	2699.22
520.36	2295.77
520.56	2617.30
520.76	2379.74
520.96	2482.14
521.16	2605.02
521.35	2635.74
521.55	2596.82
521.75	2564.06
521.95	2430.94
522.15	2494.43
522.35	2301.92
522.55	2459.61
522.75	2594.78
522.95	2432.99
523.14	2349.02
523.34	2506.71
523.54	2441.18
523.74	2480.09
523.94	2437.08
524.14	2250.72
524.34	2531.29
524.54	2654.17
524.73	2473.95
524.93	2576.34
525.13	2506.71
525.33	2334.68
525.53	2744.28
525.73	2568.15
525.93	2498.52
526.13	2396.12
526.32	2451.42
526.52	2668.50
526.72	2715.61
526.92	2457.56
527.12	2398.17
527.32	2263.01
527.52	2559.96
527.71	2492.38
527.91	2377.69
528.11	2424.80
528.31	2443.23
528.51	2375.64
528.71	2547.67
528.90	2498.52
529.10	2633.69
529.30	2592.73
529.50	2246.62
529.70	2545.63
529.90	2432.99
530.09	2394.08
530.29	2342.88
530.49	2418.65
530.69	2775.00
530.89	2475.99
531.09	2545.63
531.28	2490.33
531.48	2543.58
531.68	2539.48
531.88	2457.56
532.08	2574.30
532.28	2459.61
532.47	2480.09
532.67	2588.63
532.87	2633.69
533.07	2523.10
533.27	2549.72
533.46	2586.58
533.66	2545.63
533.86	2582.49
534.06	2500.57
534.26	2494.43
534.45	2463.71
534.65	2633.69
534.85	2473.95
535.05	2430.94
535.25	2504.67
535.44	2303.96
535.64	2592.73
535.84	2432.99
536.04	2564.06
536.24	2465.75
536.43	2367.45
536.63	2547.67
536.83	2480.09
537.03	2469.85
537.22	2289.63
537.42	2314.20
537.62	2490.33
537.82	2400.22
538.02	2619.35
538.21	2539.48
538.41	2906.07
538.61	2570.20
538.81	2408.41
539.00	2619.35
539.20	2377.69
539.40	2539.48
539.60	2412.51
539.79	2539.48
539.99	2426.84
540.19	2310.11
540.39	2398.17
540.58	2465.75
540.78	2617.30
540.98	2469.85
541.18	2600.92
541.37	2572.25
541.57	2490.33
541.77	2559.96
541.97	2400.22
542.16	2293.72
542.36	2467.80
542.56	2404.32
542.76	2695.13
542.95	2576.34
543.15	2641.88
543.35	2576.34
543.54	2310.11
543.74	2414.56
543.94	2705.37
544.14	2488.28
544.33	2531.29
544.53	2447.32
544.73	2471.90
544.93	2445.27
545.12	2543.58
545.32	2430.94
545.52	2482.14
545.71	2351.07
545.91	2469.85
546.11	2490.33
546.30	2349.02
546.50	2512.86
546.70	2531.29
546.90	2488.28
547.09	2267.10
547.29	2508.76
547.49	2490.33
547.68	2385.88
547.88	2498.52
548.08	2580.44
548.27	2942.93
548.47	2459.61
548.67	2492.38
548.87	2445.27
549.06	2531.29
549.26	2432.99
549.46	2594.78
549.65	2455.51
549.85	2480.09
550.05	2660.31
550.24	2355.16
550.44	2496.47
550.64	2447.32
550.83	2428.89
551.03	2678.74
551.23	2641.88
551.42	2547.67
551.62	2475.99
551.82	2406.36
552.01	2422.75
552.21	2602.97
552.41	2490.33
552.60	2619.35
552.80	2430.94
553.00	2441.18
553.19	2502.62
553.39	2699.22
553.59	2301.92
553.78	2557.91
553.98	2498.52
554.17	2379.74
554.37	2613.21
554.57	2572.25
554.76	2377.69
554.96	2422.75
555.16	2551.77
555.35	2537.43
555.55	2574.30
555.75	2512.86
555.94	2625.50
556.14	2400.22
556.33	2562.01
556.53	2398.17
556.73	2539.48
556.92	2580.44
557.12	2572.25
557.32	2795.48
557.51	2637.78
557.71	2519.00
557.90	2678.74
558.10	2605.02
558.30	2484.19
558.49	2416.60
558.69	2461.66
558.88	2572.25
559.08	2588.63
559.28	2389.98
559.47	2465.75
559.67	2625.50
559.86	2768.85
560.06	2465.75
560.26	2502.62
560.45	2523.10
560.65	2402.27
560.84	2598.87
561.04	2355.16
561.24	2578.39
561.43	2328.54
561.63	2602.97
561.82	2447.32
562.02	2664.41
562.22	2469.85
562.41	2375.64
562.61	2435.03
562.80	2387.93
563.00	2832.34
563.19	2502.62
563.39	2478.04
563.59	2594.78
563.78	2406.36
563.98	2293.72
564.17	2392.03
564.37	2287.58
564.56	2432.99
564.76	2371.55
564.96	2576.34
565.15	2449.37
565.35	2742.23
565.54	2494.43
565.74	2545.63
565.93	2623.45
566.13	2551.77
566.32	2527.19
566.52	2549.72
566.71	2457.56
566.91	2617.30
567.11	2572.25
567.30	2480.09
567.50	2514.91
567.69	2500.57
567.89	2475.99
568.08	2377.69
568.28	2521.05
568.47	2373.60
568.67	2533.34
568.86	2355.16
569.06	2611.16
569.25	2420.70
569.45	2340.83
569.64	2441.18
569.84	2482.14
570.04	2527.19
570.23	2392.03
570.43	2510.81
570.62	2486.23
570.82	2703.32
571.01	2406.36
571.21	2402.27
571.40	2338.78
571.60	2662.36
571.79	2502.62
571.99	2531.29
572.18	2449.37
572.38	2473.95
572.57	2381.79
572.77	2527.19
572.96	2861.01
573.16	2473.95
573.35	2488.28
573.55	2557.91
573.74	2482.14
573.94	2441.18
574.13	2492.38
574.33	2582.49
574.52	2637.78
574.71	2588.63
574.91	2506.71
575.10	2359.26
575.30	2389.98
575.49	2473.95
575.69	2359.26
575.88	2564.06
576.08	2545.63
576.27	2623.45
576.47	2494.43
576.66	2715.61
576.86	2727.89
577.05	2559.96
577.25	2467.80
577.44	2756.57
577.64	2514.91
577.83	2637.78
578.02	2467.80
578.22	2623.45
578.41	2707.41
578.61	2445.27
578.80	2248.67
579.00	2482.14
579.19	2478.04
579.39	2529.24
579.58	2588.63
579.77	2432.99
579.97	2652.12
580.16	2656.22
580.36	2594.78
580.55	2547.67
580.75	2619.35
580.94	2478.04
581.13	2641.88
581.33	2695.13
581.52	2537.43
581.72	2811.86
581.91	2662.36
582.11	2475.99
582.30	2645.98
582.49	2551.77
582.69	2738.13
582.88	2596.82
583.08	2596.82
583.27	2662.36
583.47	2465.75
583.66	2392.03
583.85	2408.41
584.05	2539.48
584.24	2588.63
584.44	2539.48
584.63	2643.93
584.82	2719.70
585.02	2719.70
585.21	2654.17
585.41	2627.54
585.60	2582.49
585.79	2781.14
585.99	2852.82
586.18	2641.88
586.37	3278.80
586.57	5035.96
586.76	14798.62
586.96	34457.07
587.15	48209.18
587.34	57255.06
587.54	61785.17
587.73	55633.07
587.93	39364.01
588.12	29937.21
588.31	24270.48
588.51	21143.23
588.70	19492.57
588.89	17379.06
589.09	14825.25
589.28	12822.33
589.47	10301.28
589.67	8083.33
589.86	6270.88
590.06	4652.98
590.25	3846.09
590.44	3327.95
590.64	2977.75
590.83	2885.59
591.02	2850.77
591.22	2580.44
591.41	2529.24
591.60	2506.71
591.80	2805.72
591.99	2355.16
592.18	2432.99
592.38	2670.55
592.57	2445.27
592.76	2523.10
592.96	2531.29
593.15	2422.75
593.34	2600.92
593.54	2463.71
593.73	2666.46
593.92	2600.92
594.12	2613.21
594.31	2555.86
594.50	2729.94
594.70	2541.53
594.89	2871.25
595.08	2369.50
595.28	2555.86
595.47	2904.02
595.66	2660.31
595.86	2369.50
596.05	2414.56
596.24	2463.71
596.43	2764.76
596.63	2660.31
596.82	2590.68
597.01	2578.39
597.21	2758.61
597.40	2447.32
597.59	2551.77
597.79	2519.00
597.98	2600.92
598.17	2568.15
598.36	2471.90
598.56	2584.54
598.75	2443.23
598.94	2539.48
599.14	2469.85
599.33	2455.51
599.52	2580.44
599.71	2504.67
599.91	2580.44
600.10	2588.63
600.29	2463.71
600.48	2498.52
600.68	2555.86
600.87	2559.96
601.06	2467.80
601.26	2543.58
601.45	2559.96
601.64	2519.00
601.83	2693.08
602.03	2392.03
602.22	2428.89
602.41	2621.40
602.60	2840.53
602.80	2580.44
602.99	2615.26
603.18	2467.80
603.37	2574.30
603.57	2547.67
603.76	2551.77
603.95	2635.74
604.14	2412.51
604.34	2342.88
604.53	2371.55
604.72	2564.06
604.91	2559.96
605.10	2459.61
605.30	2336.73
605.49	2781.14
605.68	2662.36
605.87	2557.91
606.07	2379.74
606.26	2584.54
606.45	2494.43
606.64	2435.03
606.84	2482.14
607.03	2484.19
607.22	2633.69
607.41	2490.33
607.60	2494.43
607.80	2592.73
607.99	2504.67
608.18	2502.62
608.37	2514.91
608.56	2437.08
608.76	2682.84
608.95	2666.46
609.14	2633.69
609.33	2691.03
609.52	2793.43
609.72	2580.44
609.91	2547.67
610.10	2633.69
610.29	2723.80
610.48	2658.26
610.68	2461.66
610.87	2531.29
611.06	2676.70
611.25	2396.12
611.44	2482.14
611.63	2473.95
611.83	2691.03
612.02	2373.60
612.21	2588.63
612.40	2299.87
612.59	2299.87
612.79	2365.40
612.98	2498.52
613.17	2731.99
613.36	2516.95
613.55	2635.74
613.74	2519.00
613.93	2645.98
614.13	2641.88
614.32	2695.13
614.51	2678.74
614.70	2557.91
614.89	2473.95
615.08	2643.93
615.28	2934.74
615.47	2344.92
615.66	2607.06
615.85	2588.63
616.04	2725.85
616.23	2527.19
616.42	2508.76
616.62	2506.71
616.81	2568.15
617.00	2531.29
617.19	2519.00
617.38	2435.03
617.57	2488.28
617.76	2570.20
617.95	2596.82
618.15	2609.11
618.34	2551.77
618.53	2392.03
618.72	2734.04
618.91	2600.92
619.10	2555.86
619.29	2506.71
619.48	2553.82
619.68	2392.03
619.87	2408.41
620.06	2344.92
620.25	2564.06
620.44	2447.32
620.63	2430.94
620.82	2512.86
621.01	2506.71
621.20	2492.38
621.39	2555.86
621.59	2559.96
621.78	2559.96
621.97	2514.91
622.16	2564.06
622.35	2473.95
622.54	2596.82
622.73	2531.29
622.92	2375.64
623.11	2695.13
623.30	2512.86
623.49	2500.57
623.68	2506.71
623.88	2650.07
624.07	2506.71
624.26	2459.61
624.45	2523.10
624.64	2469.85
624.83	2514.91
625.02	2447.32
625.21	2529.24
625.40	2574.30
625.59	2627.54
625.78	2539.48
625.97	2611.16
626.16	2758.61
626.35	2703.32
626.54	2578.39
626.74	2670.55
626.93	2545.63
627.12	2496.47
627.31	2582.49
627.50	2502.62
627.69	2674.65
627.88	2385.88
628.07	2445.27
628.26	2359.26
628.45	2480.09
628.64	2367.45
628.83	2449.37
629.02	2371.55
629.21	2578.39
629.40	2486.23
629.59	2437.08
629.78	2504.67
629.97	2553.82
630.16	2465.75
630.35	2465.75
630.54	2486.23
630.73	2398.17
630.92	2473.95
631.11	2416.60
631.30	2527.19
631.49	2566.10
631.68	2519.00
631.87	2547.67
632.06	2406.36
632.25	2766.81
632.44	2529.24
632.63	2482.14
632.82	2451.42
633.01	2529.24
633.20	2605.02
633.39	2566.10
633.58	2422.75
633.77	2539.48
633.96	2564.06
634.15	2590.68
634.34	2580.44
634.53	2588.63
634.72	2424.80
634.91	2308.06
635.10	2441.18
635.29	2504.67
635.48	2539.48
635.67	2406.36
635.86	2326.49
636.05	2613.21
636.24	2475.99
636.43	2482.14
636.62	2559.96
636.81	2248.67
637.00	2408.41
637.19	2490.33
637.38	2465.75
637.57	2445.27
637.76	2637.78
637.95	2662.36
638.14	2514.91
638.33	2613.21
638.52	2508.76
638.71	2465.75
638.89	2353.12
639.08	2775.00
639.27	2731.99
639.46	2691.03
639.65	3143.63
639.84	3174.35
640.03	3317.71
640.22	3209.17
640.41	3117.01
640.60	2844.63
640.79	2781.14
640.98	2625.50
641.17	2664.41
641.36	2768.85
641.55	2717.65
641.74	2523.10
641.92	2402.27
642.11	2389.98
642.30	2453.47
642.49	2408.41
642.68	2447.32
642.87	2570.20
643.06	2580.44
643.25	2367.45
643.44	2351.07
643.63	2449.37
643.82	2590.68
644.00	2422.75
644.19	2371.55
644.38	2310.11
644.57	2600.92
644.76	2521.05
644.95	2490.33
645.14	2547.67
645.33	2437.08
645.52	2535.39
645.71	2289.63
645.89	2389.98
646.08	2490.33
646.27	2473.95
646.46	2645.98
646.65	2412.51
646.84	2478.04
647.03	2363.36
647.22	2514.91
647.40	2519.00
647.59	2420.70
647.78	2277.34
647.97	2381.79
648.16	2439.13
648.35	2670.55
648.54	2586.58
648.73	2439.13
648.91	2602.97
649.10	2523.10
649.29	2361.31
649.48	2441.18
649.67	2525.15
649.86	2586.58
650.05	2453.47
650.23	2711.51
650.42	2580.44
650.61	2809.81
650.80	2699.22
650.99	2738.13
651.18	2633.69
651.36	2676.70
651.55	2469.85
651.74	2580.44
651.93	2490.33
652.12	2496.47
652.31	2559.96
652.49	2461.66
652.68	2469.85
652.87	2684.89
653.06	2549.72
653.25	2750.42
653.44	2471.90
653.62	2707.41
653.81	2498.52
654.00	2418.65
654.19	2588.63
654.38	2842.58
654.56	2523.10
654.75	2414.56
654.94	2596.82
655.13	2566.10
655.32	2424.80
655.51	2555.86
655.69	2424.80
655.88	2553.82
656.07	2306.01
656.26	2508.76
656.45	2357.21
656.63	2547.67
656.82	2490.33
657.01	2621.40
657.20	2430.94
657.38	2637.78
657.57	2443.23
657.76	2351.07
657.95	2580.44
658.14	2416.60
658.32	2555.86
658.51	2283.49
658.70	2512.86
658.89	2445.27
659.08	2490.33
659.26	2602.97
659.45	2428.89
659.64	2637.78
659.83	2457.56
660.01	2904.02
660.20	2568.15
660.39	2668.50
660.58	2285.53
660.76	2549.72
660.95	2377.69
661.14	2463.71
661.33	2306.01
661.51	2449.37
661.70	2420.70
661.89	2527.19
662.08	2512.86
662.26	2334.68
662.45	2404.32
662.64	2711.51
662.83	2572.25
663.01	2441.18
663.20	2457.56
663.39	2617.30
663.58	2486.23
663.76	2447.32
663.95	2480.09
664.14	2275.29
664.32	2519.00
664.51	2359.26
664.70	2322.40
664.89	2523.10
665.07	2306.01
665.26	2572.25
665.45	2355.16
665.64	2592.73
665.82	2414.56
666.01	2568.15
666.20	2342.88
666.38	2600.92
666.57	2684.89
666.76	3825.61
666.95	9666.41
667.13	17948.40
667.32	22941.35
667.51	26334.83
667.69	27788.89
667.88	24632.97
668.07	17223.42
668.25	14245.67
668.44	11925.32
668.63	10352.48
668.81	9025.40
669.00	8009.61
669.19	7102.36
669.38	6168.48
669.56	5205.94
669.75	4423.61
669.94	3790.79
670.12	3209.17
670.31	2961.36
670.50	2756.57
670.68	2822.10
670.87	2516.95
671.06	2523.10
671.24	2650.07
671.43	2717.65
671.62	2559.96
671.80	2473.95
671.99	2496.47
672.18	2592.73
672.36	2580.44
672.55	2500.57
672.74	2435.03
672.92	2486.23
673.11	2502.62
673.29	2355.16
673.48	2596.82
673.67	2473.95
673.85	2521.05
674.04	2441.18
674.23	2496.47
674.41	2785.24
674.60	2332.64
674.79	2269.15
674.97	2312.16
675.16	2596.82
675.34	2549.72
675.53	2490.33
675.72	2498.52
675.90	2701.27
676.09	2418.65
676.28	2490.33
676.46	2291.68
676.65	2555.86
676.83	2441.18
677.02	2428.89
677.21	2490.33
677.39	2488.28
677.58	2420.70
677.77	2447.32
677.95	2367.45
678.14	2422.75
678.32	2445.27
678.51	2422.75
678.70	2607.06
678.88	2437.08
679.07	2504.67
679.25	2463.71
679.44	2533.34
679.63	2297.82
679.81	2523.10
680.00	2559.96
680.18	2519.00
680.37	2758.61
680.55	2443.23
680.74	2314.20
680.93	2303.96
681.11	2523.10
681.30	2480.09
681.48	2580.44
681.67	2437.08
681.85	2488.28
682.04	2383.84
682.23	2482.14
682.41	2463.71
682.60	2387.93
682.78	2494.43
682.97	2332.64
683.15	2519.00
683.34	2572.25
683.53	2637.78
683.71	2400.22
683.90	2609.11
684.08	2635.74
684.27	2430.94
684.45	2506.71
684.64	2572.25
684.82	2439.13
685.01	2570.20
685.19	2463.71
685.38	2678.74
685.57	2465.75
685.75	2342.88
685.94	2359.26
686.12	2424.80
686.31	2490.33
686.49	2621.40
686.68	2351.07
686.86	2453.47
687.05	2496.47
687.23	2701.27
687.42	2439.13
687.60	2258.91
687.79	2619.35
687.97	2707.41
688.16	2539.48
688.34	2602.97
688.53	2297.82
688.71	2529.24
688.90	2588.63
689.08	2410.46
689.27	2281.44
689.45	2555.86
689.64	2623.45
689.82	2596.82
690.01	2519.00
690.19	2510.81
690.38	2580.44
690.56	2613.21
690.75	2349.02
690.93	2453.47
691.12	2392.03
691.30	2496.47
691.49	2449.37
691.67	2519.00
691.86	2744.28
692.04	2394.08
692.23	2424.80
692.41	2541.53
692.60	2766.81
692.78	2605.02
692.97	2547.67
693.15	2650.07
693.34	2723.80
693.52	2535.39
693.71	2367.45
693.89	2467.80
694.08	2351.07
694.26	2566.10
694.44	2568.15
694.63	2627.54
694.81	2357.21
695.00	2373.60
695.18	2631.64
695.37	2766.81
695.55	2535.39
695.74	2480.09
695.92	2435.03
696.10	2607.06
696.29	2285.53
696.47	2301.92
696.66	2414.56
696.84	2351.07
697.03	2455.51
697.21	2688.98
697.40	3678.15
697.58	2580.44
697.76	2349.02
697.95	2326.49
698.13	2291.68
698.32	2344.92
698.50	2465.75
698.68	2613.21
698.87	2521.05
699.05	2643.93
699.24	2375.64
699.42	2381.79
699.61	2519.00
699.79	2555.86
699.97	2539.48
700.16	2435.03
700.34	2365.40
700.53	2537.43
700.71	2643.93
700.89	2586.58
701.08	2498.52
701.26	2576.34
701.45	2959.31
701.63	2389.98
701.81	2408.41
702.00	2406.36
702.18	2453.47
702.37	2412.51
702.55	2740.18
702.73	2715.61
702.92	2594.78
703.10	2807.77
703.28	2727.89
703.47	2459.61
703.65	2750.42
703.84	2670.55
704.02	2416.60
704.20	2742.23
704.39	2416.60
704.57	2496.47
704.75	2686.94
704.94	2562.01
705.12	2578.39
705.30	2947.03
705.49	5697.45
705.67	12932.92
705.86	20795.07
706.04	24495.75
706.22	27842.14
706.41	27956.82
706.59	22974.11
706.77	16428.81
706.96	14126.89
707.14	12480.32
707.32	10717.02
707.51	9394.03
707.69	7595.92
707.87	6129.57
708.06	5054.39
708.24	4120.51
708.42	3432.40
708.61	3221.45
708.79	2729.94
708.97	2674.65
709.16	2619.35
709.34	2543.58
709.52	2469.85
709.71	2498.52
709.89	2531.29
710.07	2371.55
710.26	2437.08
710.44	2441.18
710.62	2574.30
710.80	2512.86
710.99	2559.96
711.17	2570.20
711.35	2435.03
711.54	2426.84
711.72	2615.26
711.90	2484.19
712.09	2512.86
712.27	2426.84
712.45	2547.67
712.63	2490.33
712.82	2441.18
713.00	2525.15
713.18	2545.63
713.37	2572.25
713.55	2611.16
713.73	2539.48
713.91	2521.05
714.10	2371.55
714.28	2379.74
714.46	2590.68
714.65	2488.28
714.83	2473.95
715.01	2478.04
715.19	2512.86
715.38	2365.40
715.56	2508.76
715.74	2430.94
715.92	2432.99
716.11	2633.69
716.29	2285.53
716.47	2482.14
716.65	2424.80
716.84	2248.67
717.02	2652.12
717.20	2289.63
717.38	2389.98
717.57	2596.82
717.75	2398.17
717.93	2469.85
718.11	2578.39
718.30	2316.25
718.48	2447.32
718.66	2572.25
718.84	2613.21
719.03	2351.07
719.21	2314.20
719.39	2688.98
719.57	2631.64
719.75	2582.49
719.94	2334.68
720.12	2445.27
720.30	2547.67
720.48	2527.19
720.67	2420.70
720.85	2299.87
721.03	2426.84
721.21	2359.26
721.39	2566.10
721.58	2465.75
721.76	2521.05
721.94	2449.37
722.12	2482.14
722.30	2736.09
722.49	2365.40
722.67	2465.75
722.85	2650.07
723.03	2371.55
723.21	2414.56
723.40	2484.19
723.58	2596.82
723.76	2668.50
723.94	2715.61
724.12	2488.28
724.30	2662.36
724.49	2641.88
724.67	2498.52
724.85	2637.78
725.03	2342.88
725.21	2570.20
725.40	2715.61
725.58	2330.59
725.76	2568.15
725.94	2572.25
726.12	2396.12
726.30	2373.60
726.49	2516.95
726.67	2371.55
726.85	2559.96
727.03	2936.79
727.21	4298.69
727.39	5742.50
727.57	6743.96
727.76	7284.62
727.94	7651.21
728.12	7059.35
728.30	5670.83
728.48	4833.21
728.66	4456.38
728.84	4290.49
729.03	3481.55
729.21	3284.94
729.39	3004.37
729.57	2701.27
729.75	2559.96
729.93	2605.02
730.11	2457.56
730.30	2557.91
730.48	2420.70
730.66	2619.35
730.84	2607.06
731.02	2455.51
731.20	2426.84
731.38	2449.37
731.56	2367.45
731.74	2312.16
731.93	2459.61
732.11	2428.89
732.29	2510.81
732.47	2596.82
732.65	2537.43
732.83	2645.98
733.01	2516.95
733.19	2432.99
733.37	2588.63
733.56	2531.29
733.74	2383.84
733.92	2715.61
734.10	2402.27
734.28	2586.58
734.46	2318.30
734.64	2416.60
734.82	2437.08
735.00	2412.51
735.18	2428.89
735.36	2496.47
735.54	2422.75
735.73	2435.03
735.91	2488.28
736.09	2641.88
736.27	2514.91
736.45	2488.28
736.63	2254.81
736.81	2402.27
736.99	2535.39
737.17	2564.06
737.35	2361.31
737.53	2478.04
737.71	2459.61
737.89	2658.26
738.07	2465.75
738.25	2389.98
738.43	2416.60
738.61	2459.61
738.80	2289.63
738.98	2371.55
739.16	2334.68
739.34	2420.70
739.52	2678.74
739.70	2463.71
739.88	2549.72
740.06	2605.02
740.24	2215.90
740.42	2572.25
740.60	2281.44
740.78	2361.31
740.96	2236.38
741.14	2439.13
741.32	2514.91
741.50	2328.54
741.68	2602.97
741.86	2592.73
742.04	2379.74
742.22	2324.44
742.40	2480.09
742.58	2666.46
742.76	2424.80
742.94	2578.39
743.12	2342.88
743.30	2504.67
743.48	2529.24
743.66	2357.21
743.84	2514.91
744.02	2420.70
744.20	2521.05
744.38	2437.08
744.56	2349.02
744.74	2758.61
744.92	2580.44
745.10	2551.77
745.28	2572.25
745.46	2670.55
745.64	2488.28
745.82	2562.01
746.00	2480.09
746.18	2545.63
746.36	2383.84
746.54	2504.67
746.72	2504.67
746.90	2430.94
747.08	2719.70
747.26	2404.32
747.44	2547.67
747.62	2519.00
747.80	2510.81
747.98	2584.54
748.15	2516.95
748.33	2740.18
748.51	2471.90
748.69	2516.95
748.87	2346.97
749.05	2457.56
749.23	2478.04
749.41	2475.99
749.59	2519.00
749.77	2527.19
749.95	2418.65
750.13	2494.43
750.31	2514.91
750.49	2465.75
750.67	2582.49
750.85	2586.58
751.03	2471.90
751.20	2676.70
751.38	2578.39
751.56	2424.80
751.74	2349.02
751.92	2392.03
752.10	2359.26
752.28	2621.40
752.46	2428.89
752.64	2547.67
752.82	2494.43
753.00	2637.78
753.18	2473.95
753.35	2437.08
753.53	2465.75
753.71	2387.93
753.89	2463.71
754.07	2559.96
754.25	2641.88
754.43	2514.91
754.61	2326.49
754.79	2572.25
754.97	2480.09
755.14	2664.41
755.32	2289.63
755.50	2441.18
755.68	2545.63
755.86	2267.10
756.04	2428.89
756.22	2248.67
756.40	2574.30
756.57	2619.35
756.75	2361.31
756.93	2586.58
757.11	2592.73
757.29	2357.21
757.47	2377.69
757.65	2258.91
757.82	2211.81
758.00	2373.60
758.18	2424.80
758.36	2392.03
758.54	2723.80
758.72	2242.53
758.90	2529.24
759.07	2506.71
759.25	2357.21
759.43	2498.52
759.61	2310.11
759.79	3559.37
759.97	2541.53
760.15	2396.12
760.32	2430.94
760.50	2545.63
760.68	2617.30
760.86	2310.11
761.04	2582.49
761.22	2525.15
761.39	2506.71
761.57	2539.48
761.75	2422.75
761.93	2594.78
762.11	2570.20
762.28	2371.55
762.46	2377.69
762.64	2596.82
762.82	2342.88
763.00	2404.32
763.18	2533.34
763.35	2396.12
763.53	2584.54
763.71	2494.43
763.89	2375.64
764.07	2486.23
764.24	2523.10
764.42	2594.78
764.60	2406.36
764.78	2531.29
764.96	2545.63
765.13	2596.82
765.31	2369.50
765.49	2537.43
765.67	2322.40
765.84	2310.11
766.02	2445.27
766.20	2289.63
766.38	2555.86
766.56	2455.51
766.73	2559.96
766.91	2451.42
767.09	2465.75
767.27	2539.48
767.44	2349.02
767.62	2555.86
767.80	2498.52
767.98	2424.80
768.15	2385.88
768.33	2459.61
768.51	2645.98
768.69	2480.09
768.87	2580.44
769.04	2551.77
769.22	2826.20
769.40	2672.60
769.58	2588.63
769.75	2521.05
769.93	2588.63
770.11	2449.37
770.28	2344.92
770.46	2605.02
770.64	2473.95
770.82	2478.04
770.99	2465.75
771.17	2594.78
771.35	2414.56
771.53	2437.08
771.70	2432.99
771.88	2553.82
772.06	2445.27
772.23	2549.72
772.41	2521.05
772.59	2451.42
772.77	2332.64
772.94	2486.23
773.12	2457.56
773.30	2420.70
773.47	2559.96
773.65	2375.64
773.83	2627.54
774.01	2449.37
774.18	2330.59
774.36	2469.85
774.54	2332.64
774.71	2498.52
774.89	2324.44
775.07	2344.92
775.24	2381.79
775.42	2441.18
775.60	2711.51
775.78	2389.98
775.95	2359.26
776.13	2291.68
776.31	2170.85
776.48	2537.43
776.66	2609.11
776.84	2410.46
777.01	2461.66
777.19	2351.07
777.37	2383.84
777.54	2584.54
777.72	2678.74
777.90	2521.05
778.07	2400.22
778.25	2877.40
778.43	2609.11
778.60	2383.84
778.78	2447.32
778.96	2619.35
779.13	2377.69
779.31	2594.78
779.49	2461.66
779.66	2471.90
779.84	2521.05
780.01	2465.75
780.19	2373.60
780.37	2605.02
780.54	2592.73
780.72	2349.02
780.90	2383.84
781.07	2416.60
781.25	2408.41
781.43	2521.05
781.60	2340.83
781.78	2578.39
781.95	2471.90
782.13	2351.07
782.31	2402.27
782.48	2320.35
782.66	2467.80
782.83	2707.41
783.01	2523.10
783.19	2645.98
783.36	2430.94
783.54	2404.32
783.72	2574.30
783.89	2414.56
784.07	2373.60
784.24	2535.39
784.42	2627.54
784.60	2482.14
784.77	2555.86
784.95	2240.48
785.12	2373.60
785.30	2437.08
785.47	2369.50
785.65	2334.68
785.83	2379.74
786.00	2383.84
786.18	2502.62
786.35	2371.55
786.53	2383.84
786.71	2576.34
786.88	2547.67
787.06	2506.71
787.23	2519.00
787.41	2361.31
787.58	2455.51
787.76	2394.08
787.94	2494.43
788.11	2465.75
788.29	2349.02
788.46	2432.99
788.64	2277.34
788.81	2443.23
788.99	2385.88
789.16	2260.96
789.34	2412.51
789.52	2392.03
789.69	2406.36
789.87	2252.77
790.04	2400.22
790.22	2432.99
790.39	2742.23
790.57	2400.22
790.74	2326.49
790.92	2512.86
791.09	2287.58
791.27	2467.80
791.44	2584.54
791.62	2428.89
791.79	2543.58
791.97	2471.90
792.15	2738.13
792.32	2553.82
792.50	2617.30
792.67	2666.46
792.85	2631.64
793.02	2478.04
793.20	2396.12
793.37	2349.02
793.55	2482.14
793.72	2269.15
793.90	2478.04
794.07	2371.55
794.25	2332.64
794.42	2523.10
794.60	2383.84
794.77	2422.75
794.95	2580.44
795.12	2506.71
795.30	2439.13
795.47	2340.83
795.65	2803.67
795.82	2525.15
796.00	2392.03
796.17	2357.21
796.34	2426.84
796.52	2461.66
796.69	2576.34
796.87	2547.67
797.04	2422.75
797.22	2637.78
797.39	2498.52
797.57	2602.97
797.74	2473.95
797.92	2498.52
798.09	2371.55
798.27	2643.93
798.44	2408.41
798.62	2422.75
798.79	2426.84
798.96	2512.86
799.14	2512.86
799.31	2717.65
799.49	2375.64
799.66	2412.51
799.84	2443.23
800.01	2328.54
800.19	2469.85
800.36	2250.72
800.53	2519.00
800.71	2553.82
800.88	2680.79
801.06	2392.03
801.23	2437.08
801.41	2457.56
801.58	2408.41
801.75	2338.78
801.93	2519.00
802.10	2551.77
802.28	2439.13
802.45	2389.98
802.63	2559.96
802.80	2699.22
802.97	2457.56
803.15	2445.27
803.32	2412.51
803.50	2326.49
803.67	2351.07
803.84	2367.45
804.02	2465.75
804.19	2424.80
804.37	2273.25
804.54	2381.79
804.71	2412.51
804.89	2465.75
805.06	2406.36
805.24	2422.75
805.41	2326.49
805.58	2408.41
805.76	2834.39
805.93	2496.47
806.10	2619.35
806.28	2516.95
806.45	2478.04
806.63	2492.38
806.80	2527.19
806.97	2498.52
807.15	2527.19
807.32	2525.15
807.49	2406.36
807.67	2310.11
807.84	2533.34
808.01	2232.29
808.19	2615.26
808.36	2725.85
808.54	2455.51
808.71	2367.45
808.88	2432.99
809.06	2584.54
809.23	2605.02
809.40	2455.51
809.58	2555.86
809.75	2461.66
809.92	2316.25
810.10	2678.74
810.27	2426.84
810.44	2453.47
810.62	2629.59
810.79	2441.18
810.96	2349.02
811.14	2498.52
811.31	2551.77
811.48	2539.48
811.66	2439.13
811.83	2621.40
812.00	2539.48
812.18	2453.47
812.35	2719.70
812.52	2447.32
812.69	2392.03
812.87	2408.41
813.04	2338.78
813.21	2424.80
813.39	2289.63
813.56	2430.94
813.73	2629.59
813.91	2369.50
814.08	2500.57
814.25	2463.71
814.42	2338.78
814.60	2490.33
814.77	2504.67
814.94	2435.03
815.12	2455.51
815.29	2711.51
815.46	2426.84
815.63	2514.91
815.81	2428.89
815.98	2451.42
816.15	2420.70
816.33	2463.71
816.50	2432.99
816.67	2414.56
816.84	2473.95
817.02	2353.12
817.19	2353.12
817.36	2482.14
817.53	2502.62
817.71	2306.01
817.88	2506.71
818.05	2410.46
818.22	2482.14
818.40	2553.82
818.57	2414.56
818.74	2484.19
818.91	2506.71
819.09	2535.39
819.26	2555.86
819.43	2490.33
819.60	2400.22
819.78	2498.52
819.95	2588.63
820.12	2373.60
820.29	2578.39
820.47	2588.63
820.64	2396.12
820.81	2299.87
820.98	2340.83
821.15	2418.65
821.33	2527.19
821.50	2244.57
821.67	2465.75
821.84	2375.64
822.02	2506.71
822.19	2555.86
822.36	2471.90
822.53	2408.41
822.70	2355.16
822.88	2308.06
823.05	2680.79
823.22	2437.08
823.39	2412.51
823.56	2408.41
823.74	2650.07
823.91	2355.16
824.08	2396.12
824.25	2301.92
824.42	2729.94
824.60	2291.68
824.77	2504.67
824.94	2400.22
825.11	2514.91
825.28	2256.86
825.45	2428.89
825.63	2445.27
825.80	2365.40
825.97	2531.29
826.14	2455.51
826.31	2293.72
826.48	2602.97
826.66	2301.92
826.83	2381.79
827.00	2486.23
827.17	2473.95
827.34	2416.60
827.51	2406.36
827.69	2412.51
827.86	2310.11
828.03	2375.64
828.20	2465.75
828.37	2355.16
828.54	2482.14
828.71	2297.82
828.89	2615.26
829.06	2510.81
829.23	2717.65
829.40	2363.36
829.57	2373.60
829.74	2572.25
829.91	2418.65
830.09	2525.15
830.26	2547.67
830.43	2686.94
830.60	2508.76
830.77	2523.10
830.94	2564.06
831.11	2664.41
831.28	2496.47
831.46	2568.15
831.63	2455.51
831.80	2549.72
831.97	2424.80
832.14	2408.41
832.31	2465.75
832.48	2539.48
832.65	2631.64
832.82	2486.23
832.99	2459.61
833.17	2383.84
833.34	2631.64
833.51	2437.08
833.68	2281.44
833.85	2654.17
834.02	2330.59
834.19	2371.55
834.36	2412.51
834.53	2506.71
834.70	2629.59
834.87	2496.47
835.04	2342.88
835.22	2447.32
835.39	2385.88
835.56	2308.06
835.73	2371.55
835.90	2588.63
836.07	2359.26
836.24	2455.51
836.41	2277.34
836.58	2441.18
836.75	2592.73
836.92	2443.23
837.09	2342.88
837.26	2605.02
837.43	2574.30
837.60	2443.23
837.77	2451.42
837.94	2578.39
838.12	2674.65
838.29	2379.74
838.46	2308.06
838.63	2299.87
838.80	2629.59
838.97	2451.42
839.14	2367.45
839.31	2512.86
839.48	2594.78
839.65	2416.60
839.82	2379.74
839.99	2465.75
840.16	2441.18
840.33	2332.64
840.50	2424.80
840.67	2383.84
840.84	2263.01
841.01	2373.60
841.18	2361.31
841.35	2432.99
841.52	2484.19
841.69	2535.39
841.86	2478.04
842.03	2486.23
842.20	2572.25
842.37	2422.75
842.54	2367.45
842.71	2469.85
842.88	2404.32
843.05	2416.60
843.22	2344.92
843.39	2480.09
843.56	2416.60
843.73	2371.55
843.90	2406.36
844.07	2516.95
844.24	2594.78
844.41	2519.00
844.58	2457.56
844.75	2432.99
844.92	2494.43
845.09	2361.31
845.26	2412.51
845.43	2539.48
845.60	2394.08
845.77	2465.75
845.94	2480.09
846.10	2580.44
846.27	2387.93
846.44	2320.35
846.61	2285.53
846.78	2533.34
846.95	2598.87
847.12	2387.93
847.29	2471.90
847.46	2365.40
847.63	2605.02
847.80	2303.96
847.97	2340.83
848.14	2699.22
848.31	2416.60
848.48	2316.25
848.65	2422.75
848.82	2408.41
848.98	2734.04
849.15	2494.43
849.32	2506.71
849.49	2637.78
849.66	2461.66
849.83	2308.06
850.00	2312.16
850.17	2588.63
850.34	2326.49
850.51	2260.96
850.68	2342.88
850.85	2809.81
851.01	2514.91
851.18	2402.27
851.35	2402.27
851.52	2523.10
851.69	2596.82
851.86	2306.01
852.03	2383.84
852.20	2555.86
852.37	2502.62
852.53	2332.64
852.70	2351.07
852.87	2521.05
853.04	2574.30
853.21	2383.84
853.38	2547.67
853.55	2574.30
853.72	2629.59
853.89	2322.40
854.05	2361.31
854.22	2455.51
854.39	2459.61
854.56	2432.99
854.73	2514.91
854.90	2295.77
855.07	2426.84
855.23	2363.36
855.40	2394.08
855.57	2416.60
855.74	2222.05
855.91	2572.25
856.08	2281.44
856.25	2338.78
856.41	2465.75
856.58	2414.56
856.75	2424.80
856.92	2277.34
857.09	2652.12
857.26	2248.67
857.42	2400.22
857.59	2537.43
857.76	2430.94
857.93	2334.68
858.10	2432.99
858.27	2281.44
858.43	2482.14
858.60	2293.72
858.77	2277.34
858.94	2383.84
859.11	2639.83
859.27	2398.17
859.44	2283.49
859.61	2686.94
859.78	2543.58
859.95	2338.78
860.12	2324.44
860.28	2709.46
860.45	2602.97
860.62	2355.16
860.79	2500.57
860.95	2412.51
861.12	2359.26
861.29	2285.53
861.46	2338.78
861.63	2527.19
861.79	2432.99
861.96	2338.78
862.13	2334.68
862.30	2619.35
862.47	2441.18
862.63	2326.49
862.80	2394.08
862.97	2650.07
863.14	2553.82
863.30	2432.99
863.47	2326.49
863.64	2602.97
863.81	2459.61
863.97	2303.96
864.14	2437.08
864.31	2447.32
864.48	2441.18
864.65	2416.60
864.81	2465.75
864.98	2545.63
865.15	2504.67
865.32	2455.51
865.48	2502.62
865.65	2670.55
865.82	2365.40
865.98	2369.50
866.15	2473.95
866.32	2488.28
866.49	2414.56
866.65	2539.48
866.82	2353.12
866.99	2424.80
867.16	2400.22
867.32	2334.68
867.49	2312.16
867.66	2449.37
867.83	2396.12
867.99	2256.86
868.16	2375.64
868.33	2330.59
868.49	2404.32
868.66	2373.60
868.83	2490.33
868.99	2555.86
869.16	2473.95
869.33	2508.76
869.50	2408.41
869.66	2430.94
869.83	2484.19
870.00	2281.44
870.16	2447.32
870.33	2514.91
870.50	2592.73
870.66	2437.08
870.83	2441.18
871.00	2504.67
871.17	2533.34
871.33	2365.40
871.50	2342.88
871.67	2475.99
871.83	2281.44
872.00	2531.29
872.17	2351.07
872.33	2676.70
872.50	2625.50
872.67	2355.16
872.83	2377.69
873.00	2459.61
873.17	2471.90
873.33	2469.85
873.50	2471.90
873.67	2389.98
873.83	2346.97
874.00	2400.22
874.16	2490.33
874.33	2475.99
874.50	2371.55
874.66	2359.26
874.83	2514.91
875.00	2547.67
875.16	2545.63
875.33	2463.71
875.50	2207.71
875.66	2467.80
875.83	2437.08
875.99	2430.94
876.16	2357.21
876.33	2346.97
876.49	2439.13
876.66	2480.09
876.83	2426.84
876.99	2269.15
877.16	2430.94
877.32	2449.37
877.49	2418.65
877.66	2480.09
877.82	2703.32
877.99	2414.56
878.15	2543.58
878.32	2490.33
878.49	2514.91
878.65	2285.53
878.82	2570.20
878.98	2418.65
879.15	2527.19
879.32	2463.71
879.48	2543.58
879.65	2488.28
879.81	2367.45
879.98	2349.02
880.15	2334.68
880.31	2564.06
880.48	2420.70
880.64	2455.51
880.81	2498.52
880.97	2615.26
881.14	2654.17
881.31	2375.64
881.47	2543.58
881.64	2459.61
881.80	2248.67
881.97	2467.80
882.13	2416.60
882.30	2318.30
882.47	2406.36
882.63	2408.41
882.80	2340.83
882.96	2432.99
883.13	2605.02
883.29	2418.65
883.46	2420.70
883.62	2799.57
883.79	2498.52
883.95	2510.81
884.12	2430.94
884.29	2594.78
884.45	2461.66
884.62	2430.94
884.78	2248.67
884.95	2660.31
885.11	2406.36
885.28	2441.18
885.44	2363.36
885.61	2570.20
885.77	2645.98
885.94	2422.75
886.10	2367.45
886.27	2494.43
886.43	2703.32
886.60	2514.91
886.76	2375.64
886.93	2383.84
887.09	2461.66
887.26	2281.44
887.42	2406.36
887.59	2586.58
887.75	2793.43
887.92	2510.81
888.08	2498.52
888.25	2758.61
888.41	2555.86
888.58	2488.28
888.74	2275.29
888.91	2430.94
>>>>>End Processed Spectral Data<<<<<
