SpectraSuite Data File
++++++++++++++++++++++++++++++++++++
Date: Thu May 05 14:41:50 CEST 2016
User: root
Dark Spectrum Present: No
Reference Spectrum Present: No
Number of Sampled Component Spectra: 1
Spectrometers: USB4C02835
Integration Time (usec): 100000 (USB4C02835)
Spectra Averaged: 1 (USB4C02835)
Boxcar Smoothing: 0 (USB4C02835)
Correct for Electrical Dark: No (USB4C02835)
Strobe/Lamp Enabled: No (USB4C02835)
Correct for Detector Non-linearity: No (USB4C02835)
Correct for Stray Light: No (USB4C02835)
Number of Pixels in Processed Spectrum: 3648
>>>>>Begin Processed Spectral Data<<<<<
177.47	1851.36
177.69	1851.36
177.91	1851.36
178.13	1925.09
178.36	1857.51
178.58	2324.44
178.80	2490.33
179.02	2297.82
179.24	2310.11
179.46	2314.20
179.68	2410.46
179.90	2480.09
180.13	2439.13
180.35	2269.15
180.57	2320.35
180.79	2654.17
181.01	2500.57
181.23	2389.98
181.45	2465.75
181.67	2613.21
181.90	2584.54
182.12	2396.12
182.34	2306.01
182.56	2562.01
182.78	2547.67
183.00	2346.97
183.22	2324.44
183.44	2295.77
183.66	2828.24
183.89	2439.13
184.11	2381.79
184.33	2572.25
184.55	2660.31
184.77	2334.68
184.99	2334.68
185.21	2475.99
185.43	2795.48
185.65	2293.72
185.87	2365.40
186.10	2768.85
186.32	2848.72
186.54	2531.29
186.76	2414.56
186.98	2650.07
187.20	2512.86
187.42	2412.51
187.64	2326.49
187.86	2611.16
188.08	2654.17
188.30	2310.11
188.52	2406.36
188.75	2605.02
188.97	2605.02
189.19	2269.15
189.41	2336.73
189.63	2506.71
189.85	2414.56
190.07	2228.19
190.29	2260.96
190.51	2529.24
190.73	2275.29
190.95	2512.86
191.17	2414.56
191.39	2285.53
191.61	2504.67
191.84	2383.84
192.06	2363.36
192.28	2281.44
192.50	2846.68
192.72	2389.98
192.94	2408.41
193.16	2613.21
193.38	2506.71
193.60	2346.97
193.82	2375.64
194.04	2590.68
194.26	2445.27
194.48	2414.56
194.70	2303.96
194.92	2498.52
195.14	2555.86
195.36	2334.68
195.58	2371.55
195.80	2447.32
196.02	2377.69
196.24	2224.09
196.46	2408.41
196.69	2424.80
196.91	2746.33
197.13	2303.96
197.35	2385.88
197.57	2691.03
197.79	2559.96
198.01	2439.13
198.23	2392.03
198.45	2549.72
198.67	2283.49
198.89	2326.49
199.11	2400.22
199.33	2430.94
199.55	2203.61
199.77	2285.53
199.99	2361.31
200.21	2471.90
200.43	2521.05
200.65	2193.37
200.87	2242.53
201.09	2539.48
201.31	2537.43
201.53	2404.32
201.75	2351.07
201.97	2539.48
202.19	2424.80
202.41	2394.08
202.63	2492.38
202.85	2578.39
203.07	2508.76
203.29	2400.22
203.51	2242.53
203.73	2469.85
203.95	2813.91
204.17	2269.15
204.39	2449.37
204.61	2506.71
204.83	2357.21
205.05	2482.14
205.27	2432.99
205.49	2686.94
205.71	2453.47
205.93	2287.58
206.15	2228.19
206.37	2547.67
206.59	2484.19
206.81	2170.85
207.03	2215.90
207.25	2328.54
207.47	2592.73
207.69	2310.11
207.91	2531.29
208.13	2615.26
208.34	2367.45
208.56	2265.05
208.78	2306.01
209.00	2469.85
209.22	2398.17
209.44	2357.21
209.66	2299.87
209.88	2494.43
210.10	2453.47
210.32	2334.68
210.54	2519.00
210.76	2432.99
210.98	2596.82
211.20	2289.63
211.42	2430.94
211.64	2695.13
211.86	2553.82
212.08	2392.03
212.30	2324.44
212.52	2473.95
212.74	2555.86
212.96	2367.45
213.17	2437.08
213.39	2545.63
213.61	2645.98
213.83	2338.78
214.05	2379.74
214.27	2605.02
214.49	2342.88
214.71	2291.68
214.93	2475.99
215.15	2424.80
215.37	2580.44
215.59	2318.30
215.81	2398.17
216.03	2600.92
216.24	2521.05
216.46	2353.12
216.68	2377.69
216.90	2602.97
217.12	2564.06
217.34	2357.21
217.56	2494.43
217.78	2600.92
218.00	2564.06
218.22	2389.98
218.44	2424.80
218.66	2496.47
218.87	2678.74
219.09	2365.40
219.31	2396.12
219.53	2529.24
219.75	2414.56
219.97	2351.07
220.19	2332.64
220.41	2402.27
220.63	2736.09
220.85	2400.22
221.06	2363.36
221.28	2697.17
221.50	2584.54
221.72	2242.53
221.94	2258.91
222.16	2502.62
222.38	2537.43
222.60	2408.41
222.82	2416.60
223.03	2629.59
223.25	2310.11
223.47	2365.40
223.69	2527.19
223.91	2607.06
224.13	2525.15
224.35	2299.87
224.57	2469.85
224.78	2654.17
225.00	2324.44
225.22	2432.99
225.44	2330.59
225.66	2627.54
225.88	2404.32
226.10	2408.41
226.32	2453.47
226.53	2627.54
226.75	2424.80
226.97	2346.97
227.19	2387.93
227.41	2402.27
227.63	2422.75
227.85	2203.61
228.06	2430.94
228.28	2488.28
228.50	2654.17
228.72	2240.48
228.94	2328.54
229.16	2269.15
229.37	2406.36
229.59	2265.05
229.81	2482.14
230.03	2392.03
230.25	2346.97
230.47	2193.37
230.69	2254.81
230.90	2625.50
231.12	2338.78
231.34	2412.51
231.56	2447.32
231.78	2308.06
232.00	2422.75
232.21	2349.02
232.43	2330.59
232.65	2236.38
232.87	2502.62
233.09	2195.42
233.30	2326.49
233.52	2574.30
233.74	2449.37
233.96	2357.21
234.18	2455.51
234.40	2414.56
234.61	2723.80
234.83	2369.50
235.05	2226.14
235.27	2785.24
235.49	2578.39
235.70	2320.35
235.92	2490.33
236.14	2564.06
236.36	2768.85
236.58	2232.29
236.79	2424.80
237.01	2453.47
237.23	2494.43
237.45	2527.19
237.67	2359.26
237.88	2527.19
238.10	2627.54
238.32	2277.34
238.54	2346.97
238.76	2473.95
238.97	2408.41
239.19	2314.20
239.41	2398.17
239.63	2670.55
239.85	2373.60
240.06	2400.22
240.28	2330.59
240.50	2594.78
240.72	2484.19
240.93	2328.54
241.15	2478.04
241.37	2457.56
241.59	2656.22
241.81	2334.68
242.02	2359.26
242.24	2496.47
242.46	2592.73
242.68	2234.33
242.89	2359.26
243.11	2621.40
243.33	2447.32
243.55	2389.98
243.76	2377.69
243.98	2435.03
244.20	2475.99
244.42	2353.12
244.64	2383.84
244.85	2316.25
245.07	2381.79
245.29	2330.59
245.51	2363.36
245.72	2443.23
245.94	2637.78
246.16	2422.75
246.38	2371.55
246.59	2416.60
246.81	2447.32
247.03	2299.87
247.24	2226.14
247.46	2365.40
247.68	2506.71
247.90	2263.01
248.11	2310.11
248.33	2621.40
248.55	2437.08
248.77	2441.18
248.98	2363.36
249.20	2641.88
249.42	2539.48
249.64	2396.12
249.85	2359.26
250.07	2400.22
250.29	2682.84
250.50	2400.22
250.72	2181.09
250.94	2529.24
251.16	2697.17
251.37	2400.22
251.59	2412.51
251.81	2559.96
252.02	2758.61
252.24	2324.44
252.46	2412.51
252.68	2318.30
252.89	2306.01
253.11	2156.51
253.33	2467.80
253.54	2670.55
253.76	2363.36
253.98	2299.87
254.20	2285.53
254.41	2330.59
254.63	2465.75
254.85	2201.57
255.06	2414.56
255.28	2562.01
255.50	2424.80
255.71	2322.40
255.93	2303.96
256.15	2449.37
256.36	2582.49
256.58	2318.30
256.80	2316.25
257.02	2449.37
257.23	2400.22
257.45	2416.60
257.67	2475.99
257.88	2414.56
258.10	2500.57
258.32	2299.87
258.53	2428.89
258.75	2693.08
258.97	2437.08
259.18	2213.85
259.40	2303.96
259.62	2637.78
259.83	2658.26
260.05	2414.56
260.27	2901.97
260.48	2602.97
260.70	2363.36
260.92	2217.95
261.13	2287.58
261.35	2629.59
261.57	2514.91
261.78	2232.29
262.00	2357.21
262.22	2586.58
262.43	2445.27
262.65	2353.12
262.86	2340.83
263.08	2768.85
263.30	2478.04
263.51	2211.81
263.73	2299.87
263.95	2588.63
264.16	2514.91
264.38	2220.00
264.60	2336.73
264.81	2510.81
265.03	2705.37
265.25	2559.96
265.46	2314.20
265.68	2635.74
265.89	2488.28
266.11	2242.53
266.33	2357.21
266.54	2605.02
266.76	2547.67
266.98	2344.92
267.19	2410.46
267.41	2635.74
267.62	2492.38
267.84	2211.81
268.06	2453.47
268.27	2473.95
268.49	2631.64
268.70	2449.37
268.92	2349.02
269.14	2338.78
269.35	2318.30
269.57	2416.60
269.79	2457.56
270.00	2357.21
270.22	2686.94
270.43	2242.53
270.65	2195.42
270.87	2602.97
271.08	2537.43
271.30	2432.99
271.51	2322.40
271.73	2551.77
271.95	2678.74
272.16	2336.73
272.38	2496.47
272.59	2449.37
272.81	2627.54
273.02	2301.92
273.24	2435.03
273.46	2605.02
273.67	2353.12
273.89	2318.30
274.10	2346.97
274.32	2596.82
274.54	2553.82
274.75	2435.03
274.97	2322.40
275.18	2605.02
275.40	2519.00
275.61	2394.08
275.83	2449.37
276.05	2422.75
276.26	2527.19
276.48	2437.08
276.69	2432.99
276.91	2430.94
277.12	2570.20
277.34	2488.28
277.55	2580.44
277.77	2572.25
277.99	2396.12
278.20	2361.31
278.42	2244.57
278.63	2373.60
278.85	2392.03
279.06	2332.64
279.28	2457.56
279.49	2607.06
279.71	2578.39
279.93	2492.38
280.14	2437.08
280.36	2383.84
280.57	2574.30
280.79	2555.86
281.00	2291.68
281.22	2383.84
281.43	2592.73
281.65	2224.09
281.86	2293.72
282.08	2586.58
282.29	2682.84
282.51	2308.06
282.73	2314.20
282.94	2267.10
283.16	2562.01
283.37	2592.73
283.59	2471.90
283.80	2447.32
284.02	2498.52
284.23	2412.51
284.45	2389.98
284.66	2334.68
284.88	2361.31
285.09	2465.75
285.31	2535.39
285.52	2545.63
285.74	2297.82
285.95	2506.71
286.17	2486.23
286.38	2580.44
286.60	2400.22
286.81	2375.64
287.03	2353.12
287.24	2498.52
287.46	2605.02
287.67	2379.74
287.89	2566.10
288.10	2455.51
288.32	2469.85
288.53	2594.78
288.75	2488.28
288.96	2613.21
289.18	2398.17
289.39	2389.98
289.61	2492.38
289.82	2756.57
290.04	2805.72
290.25	2293.72
290.47	2437.08
290.68	2453.47
290.90	2609.11
291.11	2271.20
291.33	2613.21
291.54	2318.30
291.76	2406.36
291.97	2475.99
292.18	2369.50
292.40	2383.84
292.61	2406.36
292.83	2643.93
293.04	2449.37
293.26	2516.95
293.47	2447.32
293.69	2365.40
293.90	2406.36
294.12	2641.88
294.33	2473.95
294.55	2406.36
294.76	2541.53
294.97	2670.55
295.19	2775.00
295.40	2416.60
295.62	2449.37
295.83	2607.06
296.05	2424.80
296.26	2662.36
296.48	2332.64
296.69	2465.75
296.90	2414.56
297.12	2537.43
297.33	2519.00
297.55	2531.29
297.76	2547.67
297.98	2455.51
298.19	2473.95
298.41	2469.85
298.62	2396.12
298.83	2609.11
299.05	2512.86
299.26	2494.43
299.48	2379.74
299.69	2551.77
299.90	2461.66
300.12	2342.88
300.33	2588.63
300.55	2416.60
300.76	2432.99
300.98	2260.96
301.19	2596.82
301.40	2422.75
301.62	2418.65
301.83	2564.06
302.05	2455.51
302.26	2490.33
302.47	2539.48
302.69	2314.20
302.90	2482.14
303.12	2238.43
303.33	2496.47
303.54	2748.37
303.76	2459.61
303.97	2363.36
304.19	2533.34
304.40	2422.75
304.61	2594.78
304.83	2588.63
305.04	2543.58
305.26	2537.43
305.47	2435.03
305.68	2418.65
305.90	2306.01
306.11	2590.68
306.33	2469.85
306.54	2373.60
306.75	2412.51
306.97	2334.68
307.18	2334.68
307.39	2330.59
307.61	2545.63
307.82	2383.84
308.04	2586.58
308.25	2318.30
308.46	2496.47
308.68	2486.23
308.89	2461.66
309.10	2576.34
309.32	2502.62
309.53	2512.86
309.74	2641.88
309.96	2404.32
310.17	2586.58
310.39	2389.98
310.60	2555.86
310.81	2486.23
311.03	2365.40
311.24	2539.48
311.45	2506.71
311.67	2645.98
311.88	2432.99
312.09	2389.98
312.31	2459.61
312.52	2420.70
312.73	2455.51
312.95	2334.68
313.16	2361.31
313.37	2545.63
313.59	2447.32
313.80	2625.50
314.01	2664.41
314.23	2435.03
314.44	2318.30
314.65	2355.16
314.87	2437.08
315.08	2377.69
315.29	2422.75
315.51	2355.16
315.72	2330.59
315.93	2588.63
316.15	2463.71
316.36	2449.37
316.57	2478.04
316.79	2490.33
317.00	2330.59
317.21	2502.62
317.43	2373.60
317.64	2455.51
317.85	2424.80
318.07	2410.46
318.28	2455.51
318.49	2576.34
318.70	2695.13
318.92	2662.36
319.13	2625.50
319.34	2676.70
319.56	2492.38
319.77	2609.11
319.98	2609.11
320.20	2609.11
320.41	2545.63
320.62	2580.44
320.83	2326.49
321.05	2631.64
321.26	2447.32
321.47	2576.34
321.69	2695.13
321.90	2326.49
322.11	2420.70
322.32	2457.56
322.54	2668.50
322.75	2346.97
322.96	2834.39
323.18	2301.92
323.39	2260.96
323.60	2285.53
323.81	2539.48
324.03	2379.74
324.24	2451.42
324.45	2432.99
324.66	2383.84
324.88	2613.21
325.09	2627.54
325.30	2385.88
325.52	2379.74
325.73	2580.44
325.94	2424.80
326.15	2277.34
326.37	2322.40
326.58	2586.58
326.79	2682.84
327.00	2379.74
327.22	2453.47
327.43	2469.85
327.64	2351.07
327.85	2441.18
328.07	2523.10
328.28	2645.98
328.49	2387.93
328.70	2424.80
328.92	2424.80
329.13	2543.58
329.34	2496.47
329.55	2596.82
329.76	2580.44
329.98	2449.37
330.19	2643.93
330.40	2422.75
330.61	2506.71
330.83	2643.93
331.04	2387.93
331.25	2424.80
331.46	2406.36
331.68	2336.73
331.89	2572.25
332.10	2394.08
332.31	2267.10
332.52	2486.23
332.74	2621.40
332.95	2301.92
333.16	2340.83
333.37	2578.39
333.58	2381.79
333.80	2445.27
334.01	2281.44
334.22	2529.24
334.43	2461.66
334.64	2340.83
334.86	2301.92
335.07	2383.84
335.28	2617.30
335.49	2357.21
335.70	2459.61
335.92	2654.17
336.13	2727.89
336.34	2445.27
336.55	2486.23
336.76	2492.38
336.98	2205.66
337.19	2459.61
337.40	2547.67
337.61	2762.71
337.82	2510.81
338.04	2521.05
338.25	2215.90
338.46	2424.80
338.67	2451.42
338.88	2318.30
339.09	2428.89
339.31	2473.95
339.52	2398.17
339.73	2355.16
339.94	2435.03
340.15	2564.06
340.36	2432.99
340.58	2457.56
340.79	2346.97
341.00	2519.00
341.21	2332.64
341.42	2637.78
341.63	2451.42
341.85	2605.02
342.06	2502.62
342.27	2342.88
342.48	2570.20
342.69	2283.49
342.90	2570.20
343.12	2609.11
343.33	2412.51
343.54	2625.50
343.75	2682.84
343.96	2469.85
344.17	2338.78
344.38	2451.42
344.60	2346.97
344.81	2367.45
345.02	2422.75
345.23	2551.77
345.44	2805.72
345.65	2500.57
345.86	2498.52
346.07	2480.09
346.29	2363.36
346.50	2572.25
346.71	2437.08
346.92	2590.68
347.13	2762.71
347.34	2408.41
347.55	2377.69
347.76	2531.29
347.98	2349.02
348.19	2355.16
348.40	2535.39
348.61	2420.70
348.82	2668.50
349.03	2527.19
349.24	2373.60
349.45	2779.09
349.66	2220.00
349.88	2437.08
350.09	2404.32
350.30	2588.63
350.51	2629.59
350.72	2512.86
350.93	2414.56
351.14	2439.13
351.35	2545.63
351.56	2445.27
351.77	2389.98
351.99	2478.04
352.20	2664.41
352.41	2572.25
352.62	2203.61
352.83	2420.70
353.04	2457.56
353.25	2478.04
353.46	2400.22
353.67	2637.78
353.88	2289.63
354.09	2363.36
354.30	2400.22
354.52	2586.58
354.73	2482.14
354.94	2381.79
355.15	2437.08
355.36	2787.29
355.57	2494.43
355.78	2494.43
355.99	2422.75
356.20	2416.60
356.41	2654.17
356.62	2525.15
356.83	2457.56
357.04	2615.26
357.25	2398.17
357.46	2326.49
357.68	2320.35
357.89	2375.64
358.10	2488.28
358.31	2367.45
358.52	2394.08
358.73	2344.92
358.94	2355.16
359.15	2400.22
359.36	2506.71
359.57	2482.14
359.78	2461.66
359.99	2508.76
360.20	2361.31
360.41	2459.61
360.62	2570.20
360.83	2455.51
361.04	2455.51
361.25	2471.90
361.46	2670.55
361.67	2588.63
361.88	2465.75
362.09	2539.48
362.30	2574.30
362.51	2275.29
362.72	2441.18
362.93	2519.00
363.14	2566.10
363.35	2467.80
363.56	2301.92
363.78	2568.15
363.99	2537.43
364.20	2369.50
364.41	2543.58
364.62	2654.17
364.83	2506.71
365.04	2400.22
365.25	2492.38
365.46	2750.42
365.67	2375.64
365.88	2467.80
366.09	2490.33
366.30	2463.71
366.51	2422.75
366.72	2406.36
366.93	2445.27
367.14	2521.05
367.35	2609.11
367.56	2424.80
367.77	2535.39
367.98	2496.47
368.18	2578.39
368.39	2521.05
368.60	2285.53
368.81	2559.96
369.02	2553.82
369.23	2441.18
369.44	2312.16
369.65	2381.79
369.86	2553.82
370.07	2566.10
370.28	2340.83
370.49	2500.57
370.70	2596.82
370.91	2336.73
371.12	2297.82
371.33	2619.35
371.54	2412.51
371.75	2588.63
371.96	2250.72
372.17	2531.29
372.38	2441.18
372.59	2533.34
372.80	2375.64
373.01	2435.03
373.22	2543.58
373.43	2418.65
373.64	2316.25
373.85	2625.50
374.06	2711.51
374.26	2473.95
374.47	2422.75
374.68	2662.36
374.89	2588.63
375.10	2463.71
375.31	2543.58
375.52	2424.80
375.73	2506.71
375.94	2351.07
376.15	2629.59
376.36	2389.98
376.57	2461.66
376.78	2402.27
376.99	2471.90
377.20	2648.02
377.40	2422.75
377.61	2580.44
377.82	2351.07
378.03	2660.31
378.24	2527.19
378.45	2463.71
378.66	2465.75
378.87	2334.68
379.08	2285.53
379.29	2398.17
379.50	2496.47
379.71	2488.28
379.91	2637.78
380.12	2408.41
380.33	2439.13
380.54	2482.14
380.75	2418.65
380.96	2496.47
381.17	2570.20
381.38	2455.51
381.59	2607.06
381.80	2475.99
382.00	2613.21
382.21	2570.20
382.42	2695.13
382.63	2682.84
382.84	2584.54
383.05	2615.26
383.26	2654.17
383.47	2498.52
383.68	2459.61
383.88	2553.82
384.09	2514.91
384.30	2703.32
384.51	2516.95
384.72	2473.95
384.93	2332.64
385.14	2447.32
385.35	2568.15
385.55	2308.06
385.76	2660.31
385.97	2437.08
386.18	2326.49
386.39	2373.60
386.60	2373.60
386.81	2455.51
387.02	2375.64
387.22	2324.44
387.43	2672.60
387.64	2531.29
387.85	2703.32
388.06	2650.07
388.27	4065.22
388.48	8298.37
388.68	12048.20
388.89	14731.04
389.10	15898.38
389.31	14882.59
389.52	11935.56
389.73	10147.69
389.93	9047.93
390.14	8523.65
390.35	7427.98
390.56	6619.04
390.77	5400.49
390.98	4227.01
391.18	3366.86
391.39	2942.93
391.60	2584.54
391.81	2652.12
392.02	2367.45
392.23	2801.62
392.43	2494.43
392.64	2621.40
392.85	2461.66
393.06	2711.51
393.27	2512.86
393.47	2334.68
393.68	2432.99
393.89	2473.95
394.10	2621.40
394.31	2400.22
394.52	2406.36
394.72	2406.36
394.93	2643.93
395.14	2277.34
395.35	2494.43
395.56	2359.26
395.76	2447.32
395.97	2488.28
396.18	2584.54
396.39	2545.63
396.60	2957.27
396.80	2764.76
397.01	2574.30
397.22	2594.78
397.43	2662.36
397.64	2416.60
397.84	2557.91
398.05	2703.32
398.26	2545.63
398.47	2502.62
398.67	2551.77
398.88	2459.61
399.09	2625.50
399.30	2435.03
399.51	2478.04
399.71	2357.21
399.92	2555.86
400.13	2584.54
400.34	2369.50
400.54	2537.43
400.75	2625.50
400.96	2418.65
401.17	2643.93
401.37	2512.86
401.58	2482.14
401.79	2447.32
402.00	2543.58
402.21	2955.22
402.41	2789.33
402.62	2805.72
402.83	2897.88
403.04	2891.73
403.24	3057.62
403.45	2559.96
403.66	2760.66
403.87	2668.50
404.07	2625.50
404.28	2723.80
404.49	2752.47
404.70	2578.39
404.90	2580.44
405.11	2469.85
405.32	2510.81
405.52	2373.60
405.73	2439.13
405.94	2324.44
406.15	2455.51
406.35	2559.96
406.56	2588.63
406.77	2531.29
406.98	2447.32
407.18	2389.98
407.39	2641.88
407.60	2383.84
407.80	2473.95
408.01	2414.56
408.22	2514.91
408.43	2422.75
408.63	2494.43
408.84	2662.36
409.05	2594.78
409.25	2365.40
409.46	2367.45
409.67	2361.31
409.88	2392.03
410.08	2514.91
410.29	2459.61
410.50	2695.13
410.70	2586.58
410.91	2383.84
411.12	2512.86
411.32	2496.47
411.53	2359.26
411.74	2514.91
411.95	2533.34
412.15	2615.26
412.36	2645.98
412.57	2631.64
412.77	2617.30
412.98	2555.86
413.19	2398.17
413.39	2609.11
413.60	2441.18
413.81	2676.70
414.01	2410.46
414.22	2490.33
414.43	2500.57
414.63	2441.18
414.84	2566.10
415.05	2439.13
415.25	2308.06
415.46	2506.71
415.67	2400.22
415.87	2496.47
416.08	2449.37
416.29	2488.28
416.49	2562.01
416.70	2400.22
416.91	2400.22
417.11	2457.56
417.32	2580.44
417.53	2512.86
417.73	2426.84
417.94	2408.41
418.15	2549.72
418.35	2494.43
418.56	2465.75
418.77	2703.32
418.97	2514.91
419.18	2482.14
419.38	2236.38
419.59	2465.75
419.80	2695.13
420.00	2459.61
420.21	2553.82
420.42	2580.44
420.62	2574.30
420.83	2492.38
421.04	2357.21
421.24	2424.80
421.45	2596.82
421.65	2516.95
421.86	2375.64
422.07	2578.39
422.27	2555.86
422.48	2424.80
422.69	2396.12
422.89	2490.33
423.10	2496.47
423.30	2408.41
423.51	2576.34
423.72	2555.86
423.92	2588.63
424.13	2195.42
424.33	2523.10
424.54	2557.91
424.75	2449.37
424.95	2617.30
425.16	2437.08
425.36	2478.04
425.57	2598.87
425.78	2557.91
425.98	2547.67
426.19	2482.14
426.39	2375.64
426.60	2504.67
426.81	2645.98
427.01	2559.96
427.22	2457.56
427.42	2269.15
427.63	2422.75
427.83	2596.82
428.04	2621.40
428.25	2521.05
428.45	2486.23
428.66	2652.12
428.86	2480.09
429.07	2414.56
429.28	2398.17
429.48	2463.71
429.69	2430.94
429.89	2547.67
430.10	2236.38
430.30	2547.67
430.51	2609.11
430.71	2340.83
430.92	2439.13
431.13	2441.18
431.33	2555.86
431.54	2494.43
431.74	2609.11
431.95	2764.76
432.15	2396.12
432.36	2512.86
432.56	2480.09
432.77	2660.31
432.98	2699.22
433.18	2471.90
433.39	2437.08
433.59	2490.33
433.80	2764.76
434.00	2684.89
434.21	2469.85
434.41	2293.72
434.62	2789.33
434.82	2340.83
435.03	2412.51
435.23	2465.75
435.44	2254.81
435.64	2510.81
435.85	2535.39
436.06	2564.06
436.26	2529.24
436.47	2445.27
436.67	2367.45
436.88	2443.23
437.08	2658.26
437.29	2562.01
437.49	2555.86
437.70	2654.17
437.90	2533.34
438.11	2650.07
438.31	2529.24
438.52	2748.37
438.72	2684.89
438.93	2854.87
439.13	2551.77
439.34	2637.78
439.54	2539.48
439.75	2527.19
439.95	2519.00
440.16	2424.80
440.36	2475.99
440.57	2469.85
440.77	2428.89
440.98	2506.71
441.18	2588.63
441.39	2439.13
441.59	2400.22
441.80	2762.71
442.00	2463.71
442.21	2580.44
442.41	2398.17
442.62	2645.98
442.82	2426.84
443.02	2408.41
443.23	2557.91
443.43	2455.51
443.64	2682.84
443.84	2402.27
444.05	2574.30
444.25	2478.04
444.46	2494.43
444.66	2398.17
444.87	2627.54
445.07	2334.68
445.28	2422.75
445.48	2588.63
445.69	2494.43
445.89	2779.09
446.09	2490.33
446.30	2731.99
446.50	2994.13
446.71	4599.74
446.91	5658.54
447.12	6684.57
447.32	7012.24
447.53	6518.68
447.73	5408.69
447.93	4726.71
448.14	4579.26
448.34	4495.29
448.55	3776.45
448.75	3727.30
448.96	3645.38
449.16	3338.19
449.36	3149.78
449.57	2772.95
449.77	2568.15
449.98	2473.95
450.18	2566.10
450.39	2488.28
450.59	2555.86
450.79	2529.24
451.00	2453.47
451.20	2629.59
451.41	2510.81
451.61	2555.86
451.81	2514.91
452.02	2422.75
452.22	2457.56
452.43	2383.84
452.63	2379.74
452.84	2428.89
453.04	2441.18
453.24	2574.30
453.45	2416.60
453.65	2484.19
453.86	2508.76
454.06	2523.10
454.26	2455.51
454.47	2414.56
454.67	2574.30
454.87	2615.26
455.08	2510.81
455.28	2600.92
455.49	2504.67
455.69	2414.56
455.89	2799.57
456.10	2506.71
456.30	2453.47
456.51	2512.86
456.71	2447.32
456.91	2533.34
457.12	2457.56
457.32	2455.51
457.52	2314.20
457.73	2506.71
457.93	2564.06
458.14	2455.51
458.34	2332.64
458.54	2408.41
458.75	2432.99
458.95	2633.69
459.15	2531.29
459.36	2506.71
459.56	2541.53
459.76	2775.00
459.97	2445.27
460.17	2486.23
460.37	2473.95
460.58	2512.86
460.78	2553.82
460.99	2480.09
461.19	2445.27
461.39	2441.18
461.60	2426.84
461.80	2426.84
462.00	2392.03
462.21	2506.71
462.41	2424.80
462.61	2332.64
462.82	2297.82
463.02	2605.02
463.22	2455.51
463.43	2547.67
463.63	2408.41
463.83	2744.28
464.04	2559.96
464.24	2418.65
464.44	2365.40
464.64	2445.27
464.85	2572.25
465.05	2469.85
465.25	2488.28
465.46	2383.84
465.66	2533.34
465.86	2531.29
466.07	2508.76
466.27	2457.56
466.47	2344.92
466.68	2324.44
466.88	2652.12
467.08	2547.67
467.29	2682.84
467.49	2508.76
467.69	2516.95
467.89	2539.48
468.10	2451.42
468.30	2510.81
468.50	2637.78
468.71	2613.21
468.91	2445.27
469.11	2709.46
469.31	2480.09
469.52	2420.70
469.72	2695.13
469.92	2676.70
470.13	2400.22
470.33	2519.00
470.53	2594.78
470.73	2928.60
470.94	3356.62
471.14	3489.74
471.34	3848.13
471.54	3688.39
471.75	3297.23
471.95	3096.53
472.15	2971.60
472.36	3102.67
472.56	2944.98
472.76	3008.47
472.96	2959.31
473.17	2734.04
473.37	2672.60
473.57	2609.11
473.77	2531.29
473.98	2510.81
474.18	2371.55
474.38	2949.08
474.58	2396.12
474.79	2408.41
474.99	2492.38
475.19	2635.74
475.39	2398.17
475.60	2486.23
475.80	2486.23
476.00	2498.52
476.20	2416.60
476.41	2459.61
476.61	2580.44
476.81	2686.94
477.01	2437.08
477.21	2701.27
477.42	2607.06
477.62	2375.64
477.82	2576.34
478.02	2408.41
478.23	2494.43
478.43	2328.54
478.63	2441.18
478.83	2404.32
479.03	2430.94
479.24	2703.32
479.44	2719.70
479.64	2351.07
479.84	2314.20
480.04	2359.26
480.25	2557.91
480.45	2301.92
480.65	2439.13
480.85	2605.02
481.06	2414.56
481.26	2529.24
481.46	2543.58
481.66	2557.91
481.86	2369.50
482.06	2588.63
482.27	2375.64
482.47	2441.18
482.67	2523.10
482.87	2490.33
483.07	2562.01
483.28	2480.09
483.48	2369.50
483.68	2432.99
483.88	2420.70
484.08	2250.72
484.29	2355.16
484.49	2457.56
484.69	2328.54
484.89	2711.51
485.09	2580.44
485.29	2508.76
485.50	2471.90
485.70	2410.46
485.90	2607.06
486.10	2539.48
486.30	2473.95
486.50	2650.07
486.71	2553.82
486.91	2486.23
487.11	2629.59
487.31	2416.60
487.51	2490.33
487.71	2422.75
487.91	2398.17
488.12	2410.46
488.32	2142.18
488.52	2398.17
488.72	2252.77
488.92	2566.10
489.12	2656.22
489.32	2592.73
489.53	2506.71
489.73	2322.40
489.93	2727.89
490.13	2473.95
490.33	2355.16
490.53	2539.48
490.73	2617.30
490.94	2336.73
491.14	2568.15
491.34	2701.27
491.54	2777.05
491.74	3375.05
491.94	4145.09
492.14	4327.36
492.34	4327.36
492.54	3962.82
492.75	3442.64
492.95	3420.11
493.15	3180.50
493.35	3080.14
493.55	3123.15
493.75	3010.51
493.95	2992.08
494.15	2731.99
494.35	2611.16
494.56	2547.67
494.76	2449.37
494.96	2537.43
495.16	2455.51
495.36	2531.29
495.56	2498.52
495.76	2469.85
495.96	2435.03
496.16	2408.41
496.36	2725.85
496.56	2342.88
496.77	2523.10
496.97	2416.60
497.17	2734.04
497.37	2353.12
497.57	2523.10
497.77	2449.37
497.97	2375.64
498.17	2457.56
498.37	2455.51
498.57	2531.29
498.77	2502.62
498.97	2670.55
499.17	2682.84
499.38	2424.80
499.58	2580.44
499.78	2605.02
499.98	2559.96
500.18	2508.76
500.38	2430.94
500.58	2627.54
500.78	3098.58
500.98	5332.91
501.18	7526.29
501.38	9174.90
501.58	10270.56
501.78	9969.51
501.98	8073.09
502.18	6801.30
502.38	5828.52
502.58	5502.89
502.78	4935.60
502.98	4655.03
503.18	4431.80
503.38	3985.35
503.59	3684.30
503.79	3471.31
503.99	3209.17
504.19	3061.71
504.39	3057.62
504.59	3137.49
504.79	3098.58
504.99	3147.73
505.19	2762.71
505.39	2695.13
505.59	2846.68
505.79	2818.00
505.99	2674.65
506.19	2553.82
506.39	2719.70
506.59	2521.05
506.79	2514.91
506.99	2631.64
507.19	2512.86
507.39	2572.25
507.59	2432.99
507.79	2428.89
507.99	2396.12
508.19	2551.77
508.39	2447.32
508.59	2469.85
508.79	2641.88
508.99	2740.18
509.19	2453.47
509.39	2531.29
509.59	2392.03
509.79	2371.55
509.99	2502.62
510.19	2598.87
510.39	2578.39
510.59	2516.95
510.79	2420.70
510.99	2330.59
511.19	2447.32
511.39	2723.80
511.59	2668.50
511.79	2623.45
511.99	2498.52
512.19	2723.80
512.38	2568.15
512.58	2455.51
512.78	2392.03
512.98	2551.77
513.18	2740.18
513.38	2306.01
513.58	2521.05
513.78	2496.47
513.98	2471.90
514.18	2459.61
514.38	2375.64
514.58	2576.34
514.78	2473.95
514.98	2416.60
515.18	2424.80
515.38	2400.22
515.58	2725.85
515.78	2408.41
515.98	2492.38
516.18	2578.39
516.38	2457.56
516.57	2371.55
516.77	2437.08
516.97	2523.10
517.17	2455.51
517.37	2293.72
517.57	2490.33
517.77	2521.05
517.97	2471.90
518.17	2492.38
518.37	2387.93
518.57	2412.51
518.77	2478.04
518.97	2455.51
519.16	2543.58
519.36	2621.40
519.56	2387.93
519.76	2457.56
519.96	2461.66
520.16	2676.70
520.36	2455.51
520.56	2617.30
520.76	2383.84
520.96	2422.75
521.16	2588.63
521.35	2629.59
521.55	2574.30
521.75	2531.29
521.95	2484.19
522.15	2441.18
522.35	2375.64
522.55	2490.33
522.75	2570.20
522.95	2306.01
523.14	2400.22
523.34	2496.47
523.54	2441.18
523.74	2519.00
523.94	2426.84
524.14	2346.97
524.34	2529.24
524.54	2645.98
524.73	2437.08
524.93	2523.10
525.13	2465.75
525.33	2381.79
525.53	2775.00
525.73	2637.78
525.93	2506.71
526.13	2478.04
526.32	2426.84
526.52	2525.15
526.72	2572.25
526.92	2410.46
527.12	2400.22
527.32	2340.83
527.52	2486.23
527.71	2502.62
527.91	2514.91
528.11	2441.18
528.31	2461.66
528.51	2349.02
528.71	2523.10
528.90	2592.73
529.10	2609.11
529.30	2631.64
529.50	2242.53
529.70	2547.67
529.90	2494.43
530.09	2451.42
530.29	2332.64
530.49	2473.95
530.69	2799.57
530.89	2467.80
531.09	2584.54
531.28	2383.84
531.48	2629.59
531.68	2531.29
531.88	2463.71
532.08	2602.97
532.28	2408.41
532.47	2527.19
532.67	2547.67
532.87	2566.10
533.07	2478.04
533.27	2449.37
533.46	2535.39
533.66	2570.20
533.86	2482.14
534.06	2498.52
534.26	2596.82
534.45	2449.37
534.65	2586.58
534.85	2543.58
535.05	2480.09
535.25	2615.26
535.44	2361.31
535.64	2568.15
535.84	2439.13
536.04	2449.37
536.24	2445.27
536.43	2420.70
536.63	2498.52
536.83	2453.47
537.03	2527.19
537.22	2375.64
537.42	2211.81
537.62	2478.04
537.82	2437.08
538.02	2596.82
538.21	2584.54
538.41	2797.53
538.61	2605.02
538.81	2400.22
539.00	2533.34
539.20	2375.64
539.40	2492.38
539.60	2478.04
539.79	2549.72
539.99	2494.43
540.19	2498.52
540.39	2324.44
540.58	2572.25
540.78	2680.79
540.98	2451.42
541.18	2627.54
541.37	2498.52
541.57	2541.53
541.77	2525.15
541.97	2381.79
542.16	2355.16
542.36	2504.67
542.56	2408.41
542.76	2564.06
542.95	2543.58
543.15	2619.35
543.35	2586.58
543.54	2406.36
543.74	2371.55
543.94	2627.54
544.14	2461.66
544.33	2578.39
544.53	2375.64
544.73	2502.62
544.93	2457.56
545.12	2455.51
545.32	2457.56
545.52	2486.23
545.71	2306.01
545.91	2396.12
546.11	2422.75
546.30	2373.60
546.50	2478.04
546.70	2574.30
546.90	2441.18
547.09	2301.92
547.29	2449.37
547.49	2512.86
547.68	2389.98
547.88	2437.08
548.08	2586.58
548.27	2920.40
548.47	2406.36
548.67	2449.37
548.87	2635.74
549.06	2478.04
549.26	2465.75
549.46	2523.10
549.65	2406.36
549.85	2459.61
550.05	2486.23
550.24	2416.60
550.44	2494.43
550.64	2410.46
550.83	2480.09
551.03	2740.18
551.23	2621.40
551.42	2555.86
551.62	2420.70
551.82	2535.39
552.01	2387.93
552.21	2738.13
552.41	2459.61
552.60	2662.36
552.80	2523.10
553.00	2418.65
553.19	2469.85
553.39	2695.13
553.59	2412.51
553.78	2482.14
553.98	2535.39
554.17	2383.84
554.37	2457.56
554.57	2568.15
554.76	2303.96
554.96	2457.56
555.16	2461.66
555.35	2533.34
555.55	2490.33
555.75	2555.86
555.94	2596.82
556.14	2291.68
556.33	2506.71
556.53	2457.56
556.73	2478.04
556.92	2498.52
557.12	2570.20
557.32	2719.70
557.51	2686.94
557.71	2568.15
557.90	2637.78
558.10	2559.96
558.30	2486.23
558.49	2385.88
558.69	2412.51
558.88	2527.19
559.08	2455.51
559.28	2465.75
559.47	2478.04
559.67	2555.86
559.86	2740.18
560.06	2455.51
560.26	2377.69
560.45	2547.67
560.65	2465.75
560.84	2693.08
561.04	2435.03
561.24	2588.63
561.43	2402.27
561.63	2703.32
561.82	2514.91
562.02	2551.77
562.22	2414.56
562.41	2408.41
562.61	2373.60
562.80	2463.71
563.00	2791.38
563.19	2586.58
563.39	2498.52
563.59	2662.36
563.78	2430.94
563.98	2258.91
564.17	2357.21
564.37	2258.91
564.56	2441.18
564.76	2267.10
564.96	2598.87
565.15	2533.34
565.35	2781.14
565.54	2351.07
565.74	2576.34
565.93	2494.43
566.13	2482.14
566.32	2463.71
566.52	2537.43
566.71	2482.14
566.91	2588.63
567.11	2533.34
567.30	2445.27
567.50	2535.39
567.69	2445.27
567.89	2457.56
568.08	2389.98
568.28	2508.76
568.47	2375.64
568.67	2475.99
568.86	2392.03
569.06	2600.92
569.25	2471.90
569.45	2385.88
569.64	2461.66
569.84	2420.70
570.04	2576.34
570.23	2416.60
570.43	2453.47
570.62	2471.90
570.82	2686.94
571.01	2285.53
571.21	2418.65
571.40	2367.45
571.60	2582.49
571.79	2486.23
571.99	2471.90
572.18	2392.03
572.38	2543.58
572.57	2496.47
572.77	2539.48
572.96	2836.44
573.16	2547.67
573.35	2396.12
573.55	2574.30
573.74	2496.47
573.94	2439.13
574.13	2408.41
574.33	2594.78
574.52	2676.70
574.71	2527.19
574.91	2572.25
575.10	2361.31
575.30	2424.80
575.49	2428.89
575.69	2402.27
575.88	2484.19
576.08	2508.76
576.27	2727.89
576.47	2453.47
576.66	2648.02
576.86	2695.13
577.05	2566.10
577.25	2531.29
577.44	2707.41
577.64	2430.94
577.83	2654.17
578.02	2455.51
578.22	2570.20
578.41	2629.59
578.61	2471.90
578.80	2326.49
579.00	2480.09
579.19	2545.63
579.39	2613.21
579.58	2582.49
579.77	2455.51
579.97	2695.13
580.16	2705.37
580.36	2643.93
580.55	2594.78
580.75	2568.15
580.94	2596.82
581.13	2662.36
581.33	2637.78
581.52	2521.05
581.72	2760.66
581.91	2662.36
582.11	2437.08
582.30	2654.17
582.49	2525.15
582.69	2719.70
582.88	2535.39
583.08	2545.63
583.27	2650.07
583.47	2465.75
583.66	2408.41
583.85	2414.56
584.05	2547.67
584.24	2605.02
584.44	2521.05
584.63	2594.78
584.82	2742.23
585.02	2643.93
585.21	2695.13
585.41	2715.61
585.60	2611.16
585.79	2738.13
585.99	2766.81
586.18	2701.27
586.37	3205.07
586.57	5017.52
586.76	14995.23
586.96	34641.39
587.15	47965.48
587.34	56845.47
587.54	61701.20
587.73	55487.67
587.93	39372.20
588.12	29904.44
588.31	24186.51
588.51	20758.21
588.70	19310.30
588.89	17460.98
589.09	14974.75
589.28	12615.49
589.47	10291.04
589.67	7853.96
589.86	6139.81
590.06	4661.18
590.25	3913.67
590.44	3334.09
590.64	2985.94
590.83	2840.53
591.02	2740.18
591.22	2662.36
591.41	2527.19
591.60	2547.67
591.80	2844.63
591.99	2424.80
592.18	2535.39
592.38	2686.94
592.57	2519.00
592.76	2549.72
592.96	2527.19
593.15	2543.58
593.34	2633.69
593.54	2449.37
593.73	2539.48
593.92	2627.54
594.12	2641.88
594.31	2586.58
594.50	2654.17
594.70	2607.06
594.89	2832.34
595.08	2340.83
595.28	2578.39
595.47	2930.64
595.66	2615.26
595.86	2367.45
596.05	2463.71
596.24	2424.80
596.43	2762.71
596.63	2676.70
596.82	2551.77
597.01	2502.62
597.21	2744.28
597.40	2480.09
597.59	2596.82
597.79	2584.54
597.98	2609.11
598.17	2574.30
598.36	2463.71
598.56	2660.31
598.75	2426.84
598.94	2611.16
599.14	2467.80
599.33	2498.52
599.52	2498.52
599.71	2478.04
599.91	2564.06
600.10	2611.16
600.29	2502.62
600.48	2555.86
600.68	2564.06
600.87	2521.05
601.06	2428.89
601.26	2588.63
601.45	2523.10
601.64	2449.37
601.83	2695.13
602.03	2412.51
602.22	2443.23
602.41	2615.26
602.60	2858.96
602.80	2549.72
602.99	2539.48
603.18	2416.60
603.37	2535.39
603.57	2447.32
603.76	2486.23
603.95	2600.92
604.14	2521.05
604.34	2422.75
604.53	2426.84
604.72	2549.72
604.91	2576.34
605.10	2551.77
605.30	2377.69
605.49	2691.03
605.68	2496.47
605.87	2494.43
606.07	2371.55
606.26	2553.82
606.45	2584.54
606.64	2537.43
606.84	2422.75
607.03	2510.81
607.22	2672.60
607.41	2498.52
607.60	2473.95
607.80	2731.99
607.99	2570.20
608.18	2557.91
608.37	2490.33
608.56	2469.85
608.76	2645.98
608.95	2697.17
609.14	2539.48
609.33	2717.65
609.52	2672.60
609.72	2588.63
609.91	2570.20
610.10	2512.86
610.29	2760.66
610.48	2516.95
610.68	2574.30
610.87	2631.64
611.06	2631.64
611.25	2496.47
611.44	2576.34
611.63	2447.32
611.83	2648.02
612.02	2437.08
612.21	2537.43
612.40	2252.77
612.59	2340.83
612.79	2424.80
612.98	2512.86
613.17	2701.27
613.36	2512.86
613.55	2688.98
613.74	2437.08
613.93	2654.17
614.13	2736.09
614.32	2734.04
614.51	2566.10
614.70	2537.43
614.89	2531.29
615.08	2609.11
615.28	2998.23
615.47	2385.88
615.66	2584.54
615.85	2531.29
616.04	2674.65
616.23	2598.87
616.42	2533.34
616.62	2580.44
616.81	2588.63
617.00	2510.81
617.19	2535.39
617.38	2467.80
617.57	2486.23
617.76	2596.82
617.95	2619.35
618.15	2557.91
618.34	2691.03
618.53	2306.01
618.72	2588.63
618.91	2629.59
619.10	2547.67
619.29	2502.62
619.48	2498.52
619.68	2334.68
619.87	2422.75
620.06	2355.16
620.25	2527.19
620.44	2414.56
620.63	2527.19
620.82	2578.39
621.01	2541.53
621.20	2381.79
621.39	2521.05
621.59	2547.67
621.78	2492.38
621.97	2478.04
622.16	2586.58
622.35	2529.24
622.54	2549.72
622.73	2615.26
622.92	2342.88
623.11	2625.50
623.30	2416.60
623.49	2512.86
623.68	2351.07
623.88	2705.37
624.07	2439.13
624.26	2457.56
624.45	2402.27
624.64	2521.05
624.83	2537.43
625.02	2535.39
625.21	2408.41
625.40	2457.56
625.59	2699.22
625.78	2465.75
625.97	2652.12
626.16	2684.89
626.35	2668.50
626.54	2549.72
626.74	2756.57
626.93	2478.04
627.12	2500.57
627.31	2654.17
627.50	2516.95
627.69	2559.96
627.88	2367.45
628.07	2424.80
628.26	2387.93
628.45	2508.76
628.64	2326.49
628.83	2465.75
629.02	2451.42
629.21	2672.60
629.40	2602.97
629.59	2416.60
629.78	2439.13
629.97	2551.77
630.16	2459.61
630.35	2447.32
630.54	2445.27
630.73	2447.32
630.92	2494.43
631.11	2463.71
631.30	2453.47
631.49	2715.61
631.68	2437.08
631.87	2545.63
632.06	2318.30
632.25	2785.24
632.44	2537.43
632.63	2496.47
632.82	2525.15
633.01	2492.38
633.20	2607.06
633.39	2506.71
633.58	2412.51
633.77	2498.52
633.96	2596.82
634.15	2564.06
634.34	2609.11
634.53	2547.67
634.72	2486.23
634.91	2260.96
635.10	2537.43
635.29	2656.22
635.48	2557.91
635.67	2428.89
635.86	2355.16
636.05	2662.36
636.24	2510.81
636.43	2482.14
636.62	2531.29
636.81	2246.62
637.00	2453.47
637.19	2519.00
637.38	2514.91
637.57	2441.18
637.76	2574.30
637.95	2672.60
638.14	2478.04
638.33	2576.34
638.52	2516.95
638.71	2441.18
638.89	2408.41
639.08	2858.96
639.27	2686.94
639.46	2746.33
639.65	3190.74
639.84	3178.45
640.03	3319.76
640.22	3123.15
640.41	3074.00
640.60	2693.08
640.79	2854.87
640.98	2652.12
641.17	2760.66
641.36	2785.24
641.55	2613.21
641.74	2496.47
641.92	2420.70
642.11	2445.27
642.30	2488.28
642.49	2400.22
642.68	2394.08
642.87	2529.24
643.06	2570.20
643.25	2392.03
643.44	2373.60
643.63	2504.67
643.82	2529.24
644.00	2308.06
644.19	2406.36
644.38	2387.93
644.57	2543.58
644.76	2531.29
644.95	2426.84
645.14	2541.53
645.33	2486.23
645.52	2455.51
645.71	2351.07
645.89	2359.26
646.08	2488.28
646.27	2430.94
646.46	2652.12
646.65	2357.21
646.84	2457.56
647.03	2334.68
647.22	2576.34
647.40	2467.80
647.59	2432.99
647.78	2332.64
647.97	2441.18
648.16	2367.45
648.35	2654.17
648.54	2617.30
648.73	2367.45
648.91	2602.97
649.10	2555.86
649.29	2400.22
649.48	2463.71
649.67	2625.50
649.86	2576.34
650.05	2562.01
650.23	2734.04
650.42	2494.43
650.61	2772.95
650.80	2727.89
650.99	2793.43
651.18	2723.80
651.36	2688.98
651.55	2500.57
651.74	2555.86
651.93	2443.23
652.12	2381.79
652.31	2482.14
652.49	2432.99
652.68	2482.14
652.87	2699.22
653.06	2482.14
653.25	2717.65
653.44	2498.52
653.62	2777.05
653.81	2469.85
654.00	2541.53
654.19	2625.50
654.38	2707.41
654.56	2562.01
654.75	2473.95
654.94	2666.46
655.13	2486.23
655.32	2412.51
655.51	2564.06
655.69	2396.12
655.88	2578.39
656.07	2346.97
656.26	2543.58
656.45	2338.78
656.63	2471.90
656.82	2500.57
657.01	2627.54
657.20	2420.70
657.38	2711.51
657.57	2451.42
657.76	2303.96
657.95	2590.68
658.14	2379.74
658.32	2539.48
658.51	2256.86
658.70	2449.37
658.89	2521.05
659.08	2525.15
659.26	2678.74
659.45	2473.95
659.64	2559.96
659.83	2475.99
660.01	2885.59
660.20	2533.34
660.39	2736.09
660.58	2252.77
660.76	2500.57
660.95	2398.17
661.14	2488.28
661.33	2361.31
661.51	2412.51
661.70	2379.74
661.89	2545.63
662.08	2412.51
662.26	2285.53
662.45	2371.55
662.64	2656.22
662.83	2547.67
663.01	2328.54
663.20	2457.56
663.39	2682.84
663.58	2424.80
663.76	2426.84
663.95	2580.44
664.14	2330.59
664.32	2346.97
664.51	2310.11
664.70	2254.81
664.89	2572.25
665.07	2338.78
665.26	2609.11
665.45	2336.73
665.64	2572.25
665.82	2461.66
666.01	2500.57
666.20	2400.22
666.38	2621.40
666.57	2684.89
666.76	3954.63
666.95	9561.97
667.13	18081.52
667.32	22851.24
667.51	26265.20
667.69	28190.29
667.88	24514.19
668.07	17182.46
668.25	14178.09
668.44	11917.13
668.63	10514.27
668.81	8906.62
669.00	7843.72
669.19	7038.87
669.38	6109.09
669.56	5177.26
669.75	4413.37
669.94	3776.45
670.12	3258.32
670.31	2877.40
670.50	2764.76
670.68	2736.09
670.87	2617.30
671.06	2496.47
671.24	2471.90
671.43	2727.89
671.62	2576.34
671.80	2420.70
671.99	2498.52
672.18	2627.54
672.36	2613.21
672.55	2512.86
672.74	2525.15
672.92	2457.56
673.11	2498.52
673.29	2371.55
673.48	2551.77
673.67	2461.66
673.85	2619.35
674.04	2383.84
674.23	2510.81
674.41	2717.65
674.60	2351.07
674.79	2265.05
674.97	2316.25
675.16	2539.48
675.34	2625.50
675.53	2416.60
675.72	2555.86
675.90	2701.27
676.09	2414.56
676.28	2439.13
676.46	2351.07
676.65	2514.91
676.83	2445.27
677.02	2465.75
677.21	2449.37
677.39	2568.15
677.58	2402.27
677.77	2422.75
677.95	2424.80
678.14	2529.24
678.32	2478.04
678.51	2437.08
678.70	2686.94
678.88	2402.27
679.07	2531.29
679.25	2459.61
679.44	2508.76
679.63	2414.56
679.81	2488.28
680.00	2594.78
680.18	2461.66
680.37	2660.31
680.55	2543.58
680.74	2314.20
680.93	2265.05
681.11	2553.82
681.30	2461.66
681.48	2523.10
681.67	2439.13
681.85	2512.86
682.04	2342.88
682.23	2578.39
682.41	2445.27
682.60	2414.56
682.78	2482.14
682.97	2400.22
683.15	2475.99
683.34	2506.71
683.53	2645.98
683.71	2312.16
683.90	2607.06
684.08	2785.24
684.27	2373.60
684.45	2402.27
684.64	2650.07
684.82	2482.14
685.01	2566.10
685.19	2473.95
685.38	2676.70
685.57	2496.47
685.75	2414.56
685.94	2443.23
686.12	2389.98
686.31	2357.21
686.49	2746.33
686.68	2263.01
686.86	2559.96
687.05	2437.08
687.23	2607.06
687.42	2443.23
687.60	2365.40
687.79	2564.06
687.97	2652.12
688.16	2584.54
688.34	2559.96
688.53	2260.96
688.71	2592.73
688.90	2557.91
689.08	2447.32
689.27	2293.72
689.45	2641.88
689.64	2516.95
689.82	2496.47
690.01	2555.86
690.19	2424.80
690.38	2471.90
690.56	2537.43
690.75	2349.02
690.93	2422.75
691.12	2428.89
691.30	2455.51
691.49	2406.36
691.67	2486.23
691.86	2662.36
692.04	2412.51
692.23	2494.43
692.41	2516.95
692.60	2734.04
692.78	2641.88
692.97	2490.33
693.15	2637.78
693.34	2680.79
693.52	2678.74
693.71	2488.28
693.89	2539.48
694.08	2291.68
694.26	2494.43
694.44	2617.30
694.63	2578.39
694.81	2355.16
695.00	2371.55
695.18	2633.69
695.37	2772.95
695.55	2523.10
695.74	2408.41
695.92	2482.14
696.10	2607.06
696.29	2424.80
696.47	2355.16
696.66	2285.53
696.84	2400.22
697.03	2482.14
697.21	2678.74
697.40	3604.42
697.58	2596.82
697.76	2439.13
697.95	2439.13
698.13	2344.92
698.32	2379.74
698.50	2447.32
698.68	2584.54
698.87	2562.01
699.05	2709.46
699.24	2445.27
699.42	2375.64
699.61	2504.67
699.79	2482.14
699.97	2547.67
700.16	2346.97
700.34	2320.35
700.53	2539.48
700.71	2670.55
700.89	2580.44
701.08	2457.56
701.26	2400.22
701.45	2949.08
701.63	2449.37
701.81	2373.60
702.00	2432.99
702.18	2461.66
702.37	2512.86
702.55	2772.95
702.73	2633.69
702.92	2605.02
703.10	2803.67
703.28	2658.26
703.47	2572.25
703.65	2748.37
703.84	2756.57
704.02	2478.04
704.20	2705.37
704.39	2422.75
704.57	2404.32
704.75	2664.41
704.94	2588.63
705.12	2566.10
705.30	2826.20
705.49	5586.86
705.67	12578.62
705.86	20862.66
706.04	24706.70
706.22	28044.88
706.41	28370.51
706.59	22961.83
706.77	16504.58
706.96	14176.04
707.14	12359.49
707.32	10573.66
707.51	9424.75
707.69	7690.12
707.87	6174.63
708.06	4980.66
708.24	4128.70
708.42	3352.52
708.61	3342.28
708.79	2674.65
708.97	2678.74
709.16	2658.26
709.34	2484.19
709.52	2457.56
709.71	2478.04
709.89	2566.10
710.07	2410.46
710.26	2430.94
710.44	2469.85
710.62	2674.65
710.80	2424.80
710.99	2602.97
711.17	2508.76
711.35	2447.32
711.54	2426.84
711.72	2627.54
711.90	2488.28
712.09	2533.34
712.27	2408.41
712.45	2494.43
712.63	2469.85
712.82	2531.29
713.00	2516.95
713.18	2588.63
713.37	2543.58
713.55	2637.78
713.73	2553.82
713.91	2480.09
714.10	2361.31
714.28	2512.86
714.46	2539.48
714.65	2482.14
714.83	2424.80
715.01	2555.86
715.19	2543.58
715.38	2377.69
715.56	2537.43
715.74	2418.65
715.92	2445.27
716.11	2609.11
716.29	2250.72
716.47	2492.38
716.65	2471.90
716.84	2269.15
717.02	2523.10
717.20	2283.49
717.38	2400.22
717.57	2514.91
717.75	2537.43
717.93	2443.23
718.11	2486.23
718.30	2318.30
718.48	2471.90
718.66	2629.59
718.84	2498.52
719.03	2467.80
719.21	2275.29
719.39	2725.85
719.57	2562.01
719.75	2588.63
719.94	2353.12
720.12	2318.30
720.30	2559.96
720.48	2537.43
720.67	2371.55
720.85	2441.18
721.03	2465.75
721.21	2326.49
721.39	2562.01
721.58	2531.29
721.76	2451.42
721.94	2496.47
722.12	2480.09
722.30	2631.64
722.49	2402.27
722.67	2461.66
722.85	2514.91
723.03	2363.36
723.21	2435.03
723.40	2455.51
723.58	2637.78
723.76	2553.82
723.94	2768.85
724.12	2562.01
724.30	2695.13
724.49	2582.49
724.67	2441.18
724.85	2672.60
725.03	2332.64
725.21	2539.48
725.40	2602.97
725.58	2365.40
725.76	2559.96
725.94	2533.34
726.12	2351.07
726.30	2392.03
726.49	2400.22
726.67	2463.71
726.85	2469.85
727.03	2914.26
727.21	4235.20
727.39	5945.25
727.57	6799.26
727.76	7497.61
727.94	7665.55
728.12	7161.75
728.30	5717.93
728.48	4902.84
728.66	4528.06
728.84	4104.13
729.03	3686.34
729.21	3209.17
729.39	2996.18
729.57	2727.89
729.75	2648.02
729.93	2656.22
730.11	2478.04
730.30	2482.14
730.48	2447.32
730.66	2580.44
730.84	2494.43
731.02	2494.43
731.20	2461.66
731.38	2455.51
731.56	2258.91
731.74	2426.84
731.93	2627.54
732.11	2455.51
732.29	2392.03
732.47	2596.82
732.65	2523.10
732.83	2621.40
733.01	2494.43
733.19	2389.98
733.37	2598.87
733.56	2516.95
733.74	2424.80
733.92	2645.98
734.10	2428.89
734.28	2488.28
734.46	2244.57
734.64	2519.00
734.82	2441.18
735.00	2447.32
735.18	2400.22
735.36	2441.18
735.54	2506.71
735.73	2410.46
735.91	2490.33
736.09	2568.15
736.27	2584.54
736.45	2473.95
736.63	2207.71
736.81	2451.42
736.99	2656.22
737.17	2719.70
737.35	2422.75
737.53	2506.71
737.71	2469.85
737.89	2621.40
738.07	2334.68
738.25	2420.70
738.43	2324.44
738.61	2478.04
738.80	2293.72
738.98	2365.40
739.16	2349.02
739.34	2351.07
739.52	2613.21
739.70	2396.12
739.88	2641.88
740.06	2586.58
740.24	2199.52
740.42	2629.59
740.60	2279.39
740.78	2379.74
740.96	2308.06
741.14	2473.95
741.32	2482.14
741.50	2365.40
741.68	2639.83
741.86	2670.55
742.04	2449.37
742.22	2334.68
742.40	2432.99
742.58	2568.15
742.76	2379.74
742.94	2531.29
743.12	2299.87
743.30	2506.71
743.48	2521.05
743.66	2439.13
743.84	2500.57
744.02	2490.33
744.20	2574.30
744.38	2375.64
744.56	2389.98
744.74	2715.61
744.92	2457.56
745.10	2596.82
745.28	2559.96
745.46	2645.98
745.64	2494.43
745.82	2594.78
746.00	2504.67
746.18	2504.67
746.36	2340.83
746.54	2551.77
746.72	2406.36
746.90	2340.83
747.08	2588.63
747.26	2414.56
747.44	2582.49
747.62	2510.81
747.80	2549.72
747.98	2605.02
748.15	2387.93
748.33	2770.90
748.51	2523.10
748.69	2422.75
748.87	2355.16
749.05	2531.29
749.23	2465.75
749.41	2441.18
749.59	2453.47
749.77	2611.16
749.95	2471.90
750.13	2392.03
750.31	2502.62
750.49	2465.75
750.67	2621.40
750.85	2670.55
751.03	2473.95
751.20	2691.03
751.38	2484.19
751.56	2437.08
751.74	2398.17
751.92	2371.55
752.10	2326.49
752.28	2498.52
752.46	2283.49
752.64	2400.22
752.82	2473.95
753.00	2564.06
753.18	2451.42
753.35	2498.52
753.53	2430.94
753.71	2422.75
753.89	2473.95
754.07	2564.06
754.25	2623.45
754.43	2623.45
754.61	2273.25
754.79	2498.52
754.97	2379.74
755.14	2566.10
755.32	2359.26
755.50	2379.74
755.68	2504.67
755.86	2318.30
756.04	2400.22
756.22	2293.72
756.40	2494.43
756.57	2645.98
756.75	2428.89
756.93	2553.82
757.11	2559.96
757.29	2359.26
757.47	2342.88
757.65	2260.96
757.82	2256.86
758.00	2353.12
758.18	2306.01
758.36	2389.98
758.54	2705.37
758.72	2228.19
758.90	2621.40
759.07	2463.71
759.25	2389.98
759.43	2582.49
759.61	2308.06
759.79	3571.66
759.97	2574.30
760.15	2441.18
760.32	2363.36
760.50	2465.75
760.68	2639.83
760.86	2332.64
761.04	2611.16
761.22	2566.10
761.39	2465.75
761.57	2541.53
761.75	2398.17
761.93	2578.39
762.11	2516.95
762.28	2510.81
762.46	2316.25
762.64	2500.57
762.82	2400.22
763.00	2437.08
763.18	2590.68
763.35	2324.44
763.53	2523.10
763.71	2500.57
763.89	2480.09
764.07	2555.86
764.24	2420.70
764.42	2566.10
764.60	2437.08
764.78	2547.67
764.96	2555.86
765.13	2539.48
765.31	2449.37
765.49	2584.54
765.67	2310.11
765.84	2404.32
766.02	2291.68
766.20	2316.25
766.38	2586.58
766.56	2555.86
766.73	2525.15
766.91	2383.84
767.09	2506.71
767.27	2529.24
767.44	2316.25
767.62	2473.95
767.80	2533.34
767.98	2375.64
768.15	2424.80
768.33	2654.17
768.51	2654.17
768.69	2553.82
768.87	2484.19
769.04	2506.71
769.22	2820.05
769.40	2654.17
769.58	2543.58
769.75	2521.05
769.93	2584.54
770.11	2441.18
770.28	2344.92
770.46	2576.34
770.64	2514.91
770.82	2490.33
770.99	2463.71
771.17	2555.86
771.35	2506.71
771.53	2469.85
771.70	2351.07
771.88	2430.94
772.06	2394.08
772.23	2441.18
772.41	2508.76
772.59	2432.99
772.77	2404.32
772.94	2488.28
773.12	2496.47
773.30	2379.74
773.47	2488.28
773.65	2363.36
773.83	2617.30
774.01	2461.66
774.18	2299.87
774.36	2441.18
774.54	2318.30
774.71	2553.82
774.89	2203.61
775.07	2408.41
775.24	2459.61
775.42	2371.55
775.60	2738.13
775.78	2334.68
775.95	2244.57
776.13	2306.01
776.31	2260.96
776.48	2559.96
776.66	2586.58
776.84	2473.95
777.01	2375.64
777.19	2383.84
777.37	2420.70
777.54	2580.44
777.72	2756.57
777.90	2541.53
778.07	2467.80
778.25	2818.00
778.43	2652.12
778.60	2437.08
778.78	2461.66
778.96	2576.34
779.13	2389.98
779.31	2564.06
779.49	2467.80
779.66	2498.52
779.84	2494.43
780.01	2449.37
780.19	2379.74
780.37	2570.20
780.54	2588.63
780.72	2398.17
780.90	2512.86
781.07	2543.58
781.25	2441.18
781.43	2504.67
781.60	2406.36
781.78	2645.98
781.95	2445.27
782.13	2414.56
782.31	2416.60
782.48	2394.08
782.66	2480.09
782.83	2662.36
783.01	2469.85
783.19	2568.15
783.36	2480.09
783.54	2238.43
783.72	2576.34
783.89	2426.84
784.07	2445.27
784.24	2492.38
784.42	2617.30
784.60	2465.75
784.77	2523.10
784.95	2203.61
785.12	2392.03
785.30	2541.53
785.47	2414.56
785.65	2359.26
785.83	2412.51
786.00	2398.17
786.18	2424.80
786.35	2316.25
786.53	2346.97
786.71	2625.50
786.88	2564.06
787.06	2432.99
787.23	2471.90
787.41	2306.01
787.58	2465.75
787.76	2406.36
787.94	2482.14
788.11	2435.03
788.29	2402.27
788.46	2457.56
788.64	2330.59
788.81	2420.70
788.99	2361.31
789.16	2361.31
789.34	2457.56
789.52	2494.43
789.69	2383.84
789.87	2318.30
790.04	2383.84
790.22	2441.18
790.39	2686.94
790.57	2346.97
790.74	2365.40
790.92	2588.63
791.09	2373.60
791.27	2449.37
791.44	2555.86
791.62	2463.71
791.79	2453.47
791.97	2490.33
792.15	2770.90
792.32	2621.40
792.50	2529.24
792.67	2666.46
792.85	2607.06
793.02	2514.91
793.20	2430.94
793.37	2338.78
793.55	2453.47
793.72	2346.97
793.90	2545.63
794.07	2346.97
794.25	2392.03
794.42	2529.24
794.60	2447.32
794.77	2494.43
794.95	2539.48
795.12	2562.01
795.30	2502.62
795.47	2174.94
795.65	2746.33
795.82	2539.48
796.00	2379.74
796.17	2494.43
796.34	2324.44
796.52	2490.33
796.69	2537.43
796.87	2588.63
797.04	2461.66
797.22	2588.63
797.39	2566.10
797.57	2570.20
797.74	2570.20
797.92	2504.67
798.09	2455.51
798.27	2584.54
798.44	2471.90
798.62	2387.93
798.79	2514.91
798.96	2473.95
799.14	2494.43
799.31	2813.91
799.49	2457.56
799.66	2342.88
799.84	2453.47
800.01	2275.29
800.19	2459.61
800.36	2252.77
800.53	2469.85
800.71	2617.30
800.88	2727.89
801.06	2408.41
801.23	2342.88
801.41	2416.60
801.58	2371.55
801.75	2406.36
801.93	2531.29
802.10	2598.87
802.28	2396.12
802.45	2400.22
802.63	2576.34
802.80	2697.17
802.97	2418.65
803.15	2428.89
803.32	2473.95
803.50	2381.79
803.67	2416.60
803.84	2392.03
804.02	2500.57
804.19	2473.95
804.37	2258.91
804.54	2273.25
804.71	2367.45
804.89	2428.89
805.06	2402.27
805.24	2359.26
805.41	2349.02
805.58	2465.75
805.76	2832.34
805.93	2455.51
806.10	2572.25
806.28	2504.67
806.45	2543.58
806.63	2521.05
806.80	2502.62
806.97	2457.56
807.15	2486.23
807.32	2447.32
807.49	2402.27
807.67	2349.02
807.84	2574.30
808.01	2285.53
808.19	2641.88
808.36	2766.81
808.54	2426.84
808.71	2281.44
808.88	2445.27
809.06	2514.91
809.23	2623.45
809.40	2414.56
809.58	2435.03
809.75	2514.91
809.92	2383.84
810.10	2684.89
810.27	2490.33
810.44	2580.44
810.62	2549.72
810.79	2475.99
810.96	2467.80
811.14	2361.31
811.31	2498.52
811.48	2580.44
811.66	2443.23
811.83	2652.12
812.00	2605.02
812.18	2527.19
812.35	2725.85
812.52	2449.37
812.69	2394.08
812.87	2469.85
813.04	2318.30
813.21	2473.95
813.39	2359.26
813.56	2369.50
813.73	2545.63
813.91	2320.35
814.08	2449.37
814.25	2504.67
814.42	2285.53
814.60	2412.51
814.77	2412.51
814.94	2432.99
815.12	2457.56
815.29	2619.35
815.46	2396.12
815.63	2445.27
815.81	2469.85
815.98	2439.13
816.15	2459.61
816.33	2506.71
816.50	2353.12
816.67	2467.80
816.84	2441.18
817.02	2334.68
817.19	2449.37
817.36	2539.48
817.53	2512.86
817.71	2400.22
817.88	2555.86
818.05	2465.75
818.22	2469.85
818.40	2625.50
818.57	2392.03
818.74	2613.21
818.91	2346.97
819.09	2555.86
819.26	2553.82
819.43	2428.89
819.60	2328.54
819.78	2453.47
819.95	2539.48
820.12	2375.64
820.29	2602.97
820.47	2582.49
820.64	2406.36
820.81	2285.53
820.98	2424.80
821.15	2363.36
821.33	2512.86
821.50	2228.19
821.67	2545.63
821.84	2365.40
822.02	2506.71
822.19	2549.72
822.36	2449.37
822.53	2416.60
822.70	2469.85
822.88	2408.41
823.05	2711.51
823.22	2484.19
823.39	2539.48
823.56	2521.05
823.74	2674.65
823.91	2279.39
824.08	2310.11
824.25	2342.88
824.42	2756.57
824.60	2422.75
824.77	2465.75
824.94	2416.60
825.11	2504.67
825.28	2254.81
825.45	2432.99
825.63	2531.29
825.80	2344.92
825.97	2496.47
826.14	2445.27
826.31	2258.91
826.48	2537.43
826.66	2334.68
826.83	2414.56
827.00	2457.56
827.17	2324.44
827.34	2389.98
827.51	2457.56
827.69	2441.18
827.86	2404.32
828.03	2424.80
828.20	2486.23
828.37	2426.84
828.54	2551.77
828.71	2334.68
828.89	2605.02
829.06	2521.05
829.23	2664.41
829.40	2303.96
829.57	2392.03
829.74	2496.47
829.91	2414.56
830.09	2443.23
830.26	2564.06
830.43	2635.74
830.60	2492.38
830.77	2519.00
830.94	2611.16
831.11	2430.94
831.28	2408.41
831.46	2539.48
831.63	2355.16
831.80	2570.20
831.97	2432.99
832.14	2412.51
832.31	2521.05
832.48	2504.67
832.65	2619.35
832.82	2506.71
832.99	2480.09
833.17	2371.55
833.34	2650.07
833.51	2465.75
833.68	2260.96
833.85	2584.54
834.02	2375.64
834.19	2406.36
834.36	2404.32
834.53	2490.33
834.70	2535.39
834.87	2580.44
835.04	2451.42
835.22	2406.36
835.39	2426.84
835.56	2279.39
835.73	2394.08
835.90	2639.83
836.07	2349.02
836.24	2521.05
836.41	2324.44
836.58	2414.56
836.75	2572.25
836.92	2422.75
837.09	2308.06
837.26	2502.62
837.43	2557.91
837.60	2449.37
837.77	2412.51
837.94	2564.06
838.12	2570.20
838.29	2299.87
838.46	2244.57
838.63	2363.36
838.80	2703.32
838.97	2480.09
839.14	2336.73
839.31	2496.47
839.48	2549.72
839.65	2408.41
839.82	2457.56
839.99	2539.48
840.16	2549.72
840.33	2318.30
840.50	2445.27
840.67	2349.02
840.84	2260.96
841.01	2299.87
841.18	2338.78
841.35	2445.27
841.52	2543.58
841.69	2715.61
841.86	2463.71
842.03	2541.53
842.20	2627.54
842.37	2377.69
842.54	2414.56
842.71	2338.78
842.88	2273.25
843.05	2359.26
843.22	2451.42
843.39	2609.11
843.56	2336.73
843.73	2379.74
843.90	2439.13
844.07	2467.80
844.24	2584.54
844.41	2398.17
844.58	2457.56
844.75	2449.37
844.92	2547.67
845.09	2410.46
845.26	2353.12
845.43	2541.53
845.60	2432.99
845.77	2512.86
845.94	2404.32
846.10	2557.91
846.27	2301.92
846.44	2287.58
846.61	2342.88
846.78	2512.86
846.95	2514.91
847.12	2371.55
847.29	2334.68
847.46	2408.41
847.63	2613.21
847.80	2330.59
847.97	2408.41
848.14	2729.94
848.31	2504.67
848.48	2271.20
848.65	2406.36
848.82	2459.61
848.98	2781.14
849.15	2383.84
849.32	2523.10
849.49	2592.73
849.66	2482.14
849.83	2437.08
850.00	2230.24
850.17	2494.43
850.34	2455.51
850.51	2342.88
850.68	2344.92
850.85	2693.08
851.01	2539.48
851.18	2365.40
851.35	2402.27
851.52	2537.43
851.69	2666.46
851.86	2265.05
852.03	2334.68
852.20	2652.12
852.37	2426.84
852.53	2260.96
852.70	2314.20
852.87	2461.66
853.04	2586.58
853.21	2363.36
853.38	2605.02
853.55	2584.54
853.72	2652.12
853.89	2293.72
854.05	2283.49
854.22	2398.17
854.39	2457.56
854.56	2383.84
854.73	2531.29
854.90	2387.93
855.07	2453.47
855.23	2267.10
855.40	2342.88
855.57	2416.60
855.74	2326.49
855.91	2535.39
856.08	2260.96
856.25	2400.22
856.41	2404.32
856.58	2357.21
856.75	2357.21
856.92	2369.50
857.09	2572.25
857.26	2306.01
857.42	2432.99
857.59	2523.10
857.76	2353.12
857.93	2346.97
858.10	2435.03
858.27	2367.45
858.43	2496.47
858.60	2332.64
858.77	2256.86
858.94	2473.95
859.11	2570.20
859.27	2432.99
859.44	2426.84
859.61	2680.79
859.78	2590.68
859.95	2306.01
860.12	2314.20
860.28	2699.22
860.45	2703.32
860.62	2336.73
860.79	2473.95
860.95	2420.70
861.12	2351.07
861.29	2289.63
861.46	2297.82
861.63	2488.28
861.79	2523.10
861.96	2258.91
862.13	2359.26
862.30	2578.39
862.47	2408.41
862.63	2265.05
862.80	2463.71
862.97	2502.62
863.14	2531.29
863.30	2437.08
863.47	2363.36
863.64	2660.31
863.81	2443.23
863.97	2263.01
864.14	2441.18
864.31	2455.51
864.48	2488.28
864.65	2396.12
864.81	2557.91
864.98	2625.50
865.15	2506.71
865.32	2353.12
865.48	2451.42
865.65	2613.21
865.82	2445.27
865.98	2416.60
866.15	2437.08
866.32	2490.33
866.49	2396.12
866.65	2490.33
866.82	2363.36
866.99	2486.23
867.16	2408.41
867.32	2387.93
867.49	2392.03
867.66	2529.24
867.83	2428.89
867.99	2308.06
868.16	2396.12
868.33	2332.64
868.49	2400.22
868.66	2402.27
868.83	2416.60
868.99	2531.29
869.16	2523.10
869.33	2506.71
869.50	2467.80
869.66	2465.75
869.83	2486.23
870.00	2322.40
870.16	2482.14
870.33	2383.84
870.50	2533.34
870.66	2492.38
870.83	2428.89
871.00	2461.66
871.17	2473.95
871.33	2445.27
871.50	2367.45
871.67	2396.12
871.83	2389.98
872.00	2467.80
872.17	2383.84
872.33	2602.97
872.50	2559.96
872.67	2369.50
872.83	2377.69
873.00	2578.39
873.17	2492.38
873.33	2410.46
873.50	2527.19
873.67	2428.89
873.83	2379.74
874.00	2416.60
874.16	2539.48
874.33	2449.37
874.50	2336.73
874.66	2355.16
874.83	2441.18
875.00	2564.06
875.16	2559.96
875.33	2469.85
875.50	2150.37
875.66	2375.64
875.83	2443.23
875.99	2455.51
876.16	2432.99
876.33	2383.84
876.49	2465.75
876.66	2459.61
876.83	2414.56
876.99	2306.01
877.16	2428.89
877.32	2330.59
877.49	2424.80
877.66	2473.95
877.82	2586.58
877.99	2467.80
878.15	2531.29
878.32	2572.25
878.49	2467.80
878.65	2351.07
878.82	2547.67
878.98	2410.46
879.15	2555.86
879.32	2467.80
879.48	2453.47
879.65	2406.36
879.81	2437.08
879.98	2365.40
880.15	2420.70
880.31	2596.82
880.48	2398.17
880.64	2484.19
880.81	2404.32
880.97	2639.83
881.14	2588.63
881.31	2383.84
881.47	2635.74
881.64	2486.23
881.80	2271.20
881.97	2496.47
882.13	2420.70
882.30	2392.03
882.47	2383.84
882.63	2387.93
882.80	2342.88
882.96	2383.84
883.13	2617.30
883.29	2416.60
883.46	2408.41
883.62	2723.80
883.79	2545.63
883.95	2430.94
884.12	2408.41
884.29	2617.30
884.45	2459.61
884.62	2492.38
884.78	2318.30
884.95	2619.35
885.11	2340.83
885.28	2478.04
885.44	2408.41
885.61	2590.68
885.77	2637.78
885.94	2500.57
886.10	2447.32
886.27	2535.39
886.43	2674.65
886.60	2525.15
886.76	2371.55
886.93	2441.18
887.09	2562.01
887.26	2238.43
887.42	2488.28
887.59	2670.55
887.75	2727.89
887.92	2621.40
888.08	2498.52
888.25	2674.65
888.41	2594.78
888.58	2439.13
888.74	2299.87
888.91	2412.51
>>>>>End Processed Spectral Data<<<<<
