SpectraSuite Data File
++++++++++++++++++++++++++++++++++++
Date: Thu May 05 14:42:23 CEST 2016
User: root
Dark Spectrum Present: No
Reference Spectrum Present: No
Number of Sampled Component Spectra: 1
Spectrometers: USB4C02835
Integration Time (usec): 100000 (USB4C02835)
Spectra Averaged: 1 (USB4C02835)
Boxcar Smoothing: 0 (USB4C02835)
Correct for Electrical Dark: No (USB4C02835)
Strobe/Lamp Enabled: No (USB4C02835)
Correct for Detector Non-linearity: No (USB4C02835)
Correct for Stray Light: No (USB4C02835)
Number of Pixels in Processed Spectrum: 3648
>>>>>Begin Processed Spectral Data<<<<<
177.47	1894.37
177.69	1894.37
177.91	1894.37
178.13	1916.90
178.36	1923.04
178.58	2306.01
178.80	2506.71
179.02	2330.59
179.24	2342.88
179.46	2281.44
179.68	2373.60
179.90	2461.66
180.13	2559.96
180.35	2181.09
180.57	2324.44
180.79	2572.25
181.01	2435.03
181.23	2428.89
181.45	2502.62
181.67	2570.20
181.90	2521.05
182.12	2367.45
182.34	2258.91
182.56	2486.23
182.78	2525.15
183.00	2314.20
183.22	2426.84
183.44	2232.29
183.66	2818.00
183.89	2539.48
184.11	2365.40
184.33	2568.15
184.55	2643.93
184.77	2340.83
184.99	2416.60
185.21	2389.98
185.43	2756.57
185.65	2328.54
185.87	2371.55
186.10	2777.05
186.32	2781.14
186.54	2451.42
186.76	2437.08
186.98	2621.40
187.20	2498.52
187.42	2455.51
187.64	2375.64
187.86	2545.63
188.08	2574.30
188.30	2217.95
188.52	2396.12
188.75	2621.40
188.97	2645.98
189.19	2299.87
189.41	2375.64
189.63	2555.86
189.85	2521.05
190.07	2277.34
190.29	2234.33
190.51	2502.62
190.73	2250.72
190.95	2445.27
191.17	2389.98
191.39	2373.60
191.61	2449.37
191.84	2344.92
192.06	2469.85
192.28	2285.53
192.50	2893.78
192.72	2381.79
192.94	2406.36
193.16	2615.26
193.38	2562.01
193.60	2285.53
193.82	2461.66
194.04	2621.40
194.26	2559.96
194.48	2369.50
194.70	2365.40
194.92	2414.56
195.14	2592.73
195.36	2344.92
195.58	2385.88
195.80	2475.99
196.02	2439.13
196.24	2342.88
196.46	2402.27
196.69	2424.80
196.91	2842.58
197.13	2314.20
197.35	2303.96
197.57	2611.16
197.79	2500.57
198.01	2381.79
198.23	2394.08
198.45	2547.67
198.67	2351.07
198.89	2303.96
199.11	2461.66
199.33	2367.45
199.55	2242.53
199.77	2336.73
199.99	2471.90
200.21	2461.66
200.43	2510.81
200.65	2222.05
200.87	2209.76
201.09	2449.37
201.31	2506.71
201.53	2404.32
201.75	2443.23
201.97	2539.48
202.19	2519.00
202.41	2498.52
202.63	2566.10
202.85	2547.67
203.07	2621.40
203.29	2408.41
203.51	2238.43
203.73	2412.51
203.95	2760.66
204.17	2363.36
204.39	2455.51
204.61	2422.75
204.83	2441.18
205.05	2471.90
205.27	2455.51
205.49	2756.57
205.71	2555.86
205.93	2240.48
206.15	2301.92
206.37	2488.28
206.59	2467.80
206.81	2248.67
207.03	2330.59
207.25	2371.55
207.47	2531.29
207.69	2326.49
207.91	2539.48
208.13	2654.17
208.34	2349.02
208.56	2254.81
208.78	2418.65
209.00	2441.18
209.22	2416.60
209.44	2375.64
209.66	2336.73
209.88	2506.71
210.10	2441.18
210.32	2381.79
210.54	2512.86
210.76	2387.93
210.98	2611.16
211.20	2220.00
211.42	2437.08
211.64	2605.02
211.86	2539.48
212.08	2402.27
212.30	2416.60
212.52	2414.56
212.74	2562.01
212.96	2486.23
213.17	2445.27
213.39	2572.25
213.61	2660.31
213.83	2318.30
214.05	2461.66
214.27	2625.50
214.49	2328.54
214.71	2346.97
214.93	2432.99
215.15	2447.32
215.37	2543.58
215.59	2189.28
215.81	2396.12
216.03	2572.25
216.24	2490.33
216.46	2371.55
216.68	2389.98
216.90	2564.06
217.12	2621.40
217.34	2369.50
217.56	2449.37
217.78	2627.54
218.00	2498.52
218.22	2303.96
218.44	2449.37
218.66	2629.59
218.87	2781.14
219.09	2418.65
219.31	2340.83
219.53	2523.10
219.75	2432.99
219.97	2365.40
220.19	2359.26
220.41	2490.33
220.63	2674.65
220.85	2342.88
221.06	2310.11
221.28	2594.78
221.50	2445.27
221.72	2377.69
221.94	2365.40
222.16	2490.33
222.38	2547.67
222.60	2367.45
222.82	2428.89
223.03	2611.16
223.25	2371.55
223.47	2318.30
223.69	2531.29
223.91	2555.86
224.13	2506.71
224.35	2318.30
224.57	2451.42
224.78	2535.39
225.00	2359.26
225.22	2400.22
225.44	2338.78
225.66	2570.20
225.88	2447.32
226.10	2514.91
226.32	2338.78
226.53	2617.30
226.75	2502.62
226.97	2338.78
227.19	2416.60
227.41	2351.07
227.63	2381.79
227.85	2193.37
228.06	2359.26
228.28	2478.04
228.50	2498.52
228.72	2234.33
228.94	2281.44
229.16	2269.15
229.37	2351.07
229.59	2299.87
229.81	2557.91
230.03	2555.86
230.25	2394.08
230.47	2164.70
230.69	2256.86
230.90	2586.58
231.12	2447.32
231.34	2361.31
231.56	2404.32
231.78	2326.49
232.00	2484.19
232.21	2410.46
232.43	2351.07
232.65	2242.53
232.87	2531.29
233.09	2242.53
233.30	2320.35
233.52	2570.20
233.74	2445.27
233.96	2359.26
234.18	2484.19
234.40	2400.22
234.61	2686.94
234.83	2220.00
235.05	2308.06
235.27	2754.52
235.49	2602.97
235.70	2320.35
235.92	2394.08
236.14	2547.67
236.36	2854.87
236.58	2269.15
236.79	2420.70
237.01	2432.99
237.23	2422.75
237.45	2490.33
237.67	2334.68
237.88	2523.10
238.10	2645.98
238.32	2269.15
238.54	2332.64
238.76	2482.14
238.97	2363.36
239.19	2297.82
239.41	2441.18
239.63	2594.78
239.85	2379.74
240.06	2379.74
240.28	2310.11
240.50	2609.11
240.72	2439.13
240.93	2344.92
241.15	2453.47
241.37	2519.00
241.59	2648.02
241.81	2383.84
242.02	2367.45
242.24	2496.47
242.46	2576.34
242.68	2291.68
242.89	2357.21
243.11	2596.82
243.33	2490.33
243.55	2375.64
243.76	2385.88
243.98	2416.60
244.20	2469.85
244.42	2330.59
244.64	2353.12
244.85	2420.70
245.07	2349.02
245.29	2353.12
245.51	2457.56
245.72	2519.00
245.94	2637.78
246.16	2396.12
246.38	2441.18
246.59	2469.85
246.81	2387.93
247.03	2318.30
247.24	2213.85
247.46	2365.40
247.68	2494.43
247.90	2310.11
248.11	2353.12
248.33	2588.63
248.55	2465.75
248.77	2420.70
248.98	2369.50
249.20	2656.22
249.42	2463.71
249.64	2396.12
249.85	2303.96
250.07	2435.03
250.29	2584.54
250.50	2420.70
250.72	2291.68
250.94	2510.81
251.16	2818.00
251.37	2373.60
251.59	2369.50
251.81	2562.01
252.02	2627.54
252.24	2279.39
252.46	2514.91
252.68	2392.03
252.89	2424.80
253.11	2230.24
253.33	2398.17
253.54	2682.84
253.76	2387.93
253.98	2381.79
254.20	2303.96
254.41	2326.49
254.63	2482.14
254.85	2293.72
255.06	2453.47
255.28	2547.67
255.50	2480.09
255.71	2351.07
255.93	2215.90
256.15	2447.32
256.36	2537.43
256.58	2217.95
256.80	2351.07
257.02	2492.38
257.23	2402.27
257.45	2400.22
257.67	2441.18
257.88	2435.03
258.10	2570.20
258.32	2400.22
258.53	2402.27
258.75	2658.26
258.97	2324.44
259.18	2316.25
259.40	2355.16
259.62	2695.13
259.83	2697.17
260.05	2459.61
260.27	2840.53
260.48	2584.54
260.70	2373.60
260.92	2357.21
261.13	2387.93
261.35	2510.81
261.57	2588.63
261.78	2244.57
262.00	2367.45
262.22	2535.39
262.43	2357.21
262.65	2306.01
262.86	2324.44
263.08	2809.81
263.30	2494.43
263.51	2195.42
263.73	2277.34
263.95	2625.50
264.16	2426.84
264.38	2220.00
264.60	2306.01
264.81	2510.81
265.03	2615.26
265.25	2613.21
265.46	2418.65
265.68	2695.13
265.89	2523.10
266.11	2201.57
266.33	2351.07
266.54	2670.55
266.76	2559.96
266.98	2392.03
267.19	2490.33
267.41	2613.21
267.62	2508.76
267.84	2174.94
268.06	2432.99
268.27	2523.10
268.49	2631.64
268.70	2363.36
268.92	2387.93
269.14	2437.08
269.35	2279.39
269.57	2396.12
269.79	2537.43
270.00	2412.51
270.22	2711.51
270.43	2330.59
270.65	2103.26
270.87	2473.95
271.08	2596.82
271.30	2459.61
271.51	2392.03
271.73	2510.81
271.95	2678.74
272.16	2326.49
272.38	2359.26
272.59	2432.99
272.81	2572.25
273.02	2299.87
273.24	2449.37
273.46	2600.92
273.67	2424.80
273.89	2281.44
274.10	2346.97
274.32	2566.10
274.54	2564.06
274.75	2441.18
274.97	2373.60
275.18	2596.82
275.40	2512.86
275.61	2465.75
275.83	2412.51
276.05	2357.21
276.26	2482.14
276.48	2449.37
276.69	2289.63
276.91	2416.60
277.12	2648.02
277.34	2496.47
277.55	2508.76
277.77	2588.63
277.99	2519.00
278.20	2263.01
278.42	2256.86
278.63	2445.27
278.85	2424.80
279.06	2379.74
279.28	2422.75
279.49	2580.44
279.71	2531.29
279.93	2461.66
280.14	2445.27
280.36	2387.93
280.57	2564.06
280.79	2490.33
281.00	2334.68
281.22	2469.85
281.43	2617.30
281.65	2260.96
281.86	2322.40
282.08	2447.32
282.29	2684.89
282.51	2351.07
282.73	2277.34
282.94	2324.44
283.16	2701.27
283.37	2654.17
283.59	2432.99
283.80	2435.03
284.02	2428.89
284.23	2414.56
284.45	2379.74
284.66	2318.30
284.88	2410.46
285.09	2432.99
285.31	2531.29
285.52	2473.95
285.74	2383.84
285.95	2553.82
286.17	2478.04
286.38	2576.34
286.60	2383.84
286.81	2396.12
287.03	2435.03
287.24	2492.38
287.46	2529.24
287.67	2445.27
287.89	2596.82
288.10	2441.18
288.32	2467.80
288.53	2590.68
288.75	2471.90
288.96	2625.50
289.18	2412.51
289.39	2416.60
289.61	2400.22
289.82	2711.51
290.04	2744.28
290.25	2359.26
290.47	2445.27
290.68	2412.51
290.90	2557.91
291.11	2332.64
291.33	2566.10
291.54	2416.60
291.76	2385.88
291.97	2498.52
292.18	2439.13
292.40	2410.46
292.61	2400.22
292.83	2623.45
293.04	2400.22
293.26	2551.77
293.47	2500.57
293.69	2430.94
293.90	2439.13
294.12	2590.68
294.33	2488.28
294.55	2389.98
294.76	2578.39
294.97	2609.11
295.19	2772.95
295.40	2435.03
295.62	2506.71
295.83	2588.63
296.05	2392.03
296.26	2549.72
296.48	2279.39
296.69	2465.75
296.90	2445.27
297.12	2443.23
297.33	2562.01
297.55	2502.62
297.76	2510.81
297.98	2562.01
298.19	2400.22
298.41	2504.67
298.62	2424.80
298.83	2545.63
299.05	2414.56
299.26	2439.13
299.48	2340.83
299.69	2471.90
299.90	2400.22
300.12	2392.03
300.33	2549.72
300.55	2478.04
300.76	2529.24
300.98	2359.26
301.19	2500.57
301.40	2412.51
301.62	2404.32
301.83	2502.62
302.05	2500.57
302.26	2410.46
302.47	2471.90
302.69	2312.16
302.90	2457.56
303.12	2158.56
303.33	2504.67
303.54	2752.47
303.76	2418.65
303.97	2504.67
304.19	2531.29
304.40	2381.79
304.61	2605.02
304.83	2631.64
305.04	2549.72
305.26	2547.67
305.47	2463.71
305.68	2480.09
305.90	2275.29
306.11	2607.06
306.33	2443.23
306.54	2414.56
306.75	2318.30
306.97	2287.58
307.18	2326.49
307.39	2389.98
307.61	2441.18
307.82	2469.85
308.04	2537.43
308.25	2312.16
308.46	2523.10
308.68	2469.85
308.89	2539.48
309.10	2512.86
309.32	2496.47
309.53	2465.75
309.74	2611.16
309.96	2359.26
310.17	2568.15
310.39	2445.27
310.60	2539.48
310.81	2363.36
311.03	2279.39
311.24	2539.48
311.45	2437.08
311.67	2637.78
311.88	2445.27
312.09	2514.91
312.31	2437.08
312.52	2408.41
312.73	2396.12
312.95	2322.40
313.16	2379.74
313.37	2568.15
313.59	2562.01
313.80	2619.35
314.01	2658.26
314.23	2410.46
314.44	2346.97
314.65	2334.68
314.87	2373.60
315.08	2324.44
315.29	2340.83
315.51	2357.21
315.72	2324.44
315.93	2537.43
316.15	2396.12
316.36	2469.85
316.57	2435.03
316.79	2469.85
317.00	2400.22
317.21	2525.15
317.43	2346.97
317.64	2461.66
317.85	2326.49
318.07	2404.32
318.28	2502.62
318.49	2551.77
318.70	2727.89
318.92	2600.92
319.13	2551.77
319.34	2611.16
319.56	2543.58
319.77	2613.21
319.98	2691.03
320.20	2547.67
320.41	2531.29
320.62	2590.68
320.83	2414.56
321.05	2672.60
321.26	2486.23
321.47	2529.24
321.69	2643.93
321.90	2301.92
322.11	2357.21
322.32	2543.58
322.54	2668.50
322.75	2488.28
322.96	2875.35
323.18	2326.49
323.39	2303.96
323.60	2400.22
323.81	2557.91
324.03	2387.93
324.24	2404.32
324.45	2508.76
324.66	2400.22
324.88	2617.30
325.09	2631.64
325.30	2461.66
325.52	2480.09
325.73	2566.10
325.94	2416.60
326.15	2283.49
326.37	2291.68
326.58	2568.15
326.79	2715.61
327.00	2336.73
327.22	2435.03
327.43	2375.64
327.64	2346.97
327.85	2416.60
328.07	2426.84
328.28	2678.74
328.49	2381.79
328.70	2416.60
328.92	2336.73
329.13	2514.91
329.34	2572.25
329.55	2635.74
329.76	2480.09
329.98	2414.56
330.19	2617.30
330.40	2457.56
330.61	2439.13
330.83	2602.97
331.04	2318.30
331.25	2428.89
331.46	2398.17
331.68	2349.02
331.89	2609.11
332.10	2400.22
332.31	2299.87
332.52	2533.34
332.74	2543.58
332.95	2322.40
333.16	2418.65
333.37	2545.63
333.58	2416.60
333.80	2482.14
334.01	2260.96
334.22	2463.71
334.43	2422.75
334.64	2443.23
334.86	2314.20
335.07	2361.31
335.28	2617.30
335.49	2283.49
335.70	2437.08
335.92	2596.82
336.13	2801.62
336.34	2457.56
336.55	2422.75
336.76	2514.91
336.98	2213.85
337.19	2486.23
337.40	2578.39
337.61	2758.61
337.82	2469.85
338.04	2512.86
338.25	2260.96
338.46	2461.66
338.67	2482.14
338.88	2310.11
339.09	2349.02
339.31	2400.22
339.52	2379.74
339.73	2308.06
339.94	2459.61
340.15	2553.82
340.36	2392.03
340.58	2461.66
340.79	2371.55
341.00	2537.43
341.21	2334.68
341.42	2570.20
341.63	2359.26
341.85	2658.26
342.06	2523.10
342.27	2293.72
342.48	2482.14
342.69	2291.68
342.90	2514.91
343.12	2609.11
343.33	2340.83
343.54	2633.69
343.75	2652.12
343.96	2447.32
344.17	2336.73
344.38	2473.95
344.60	2312.16
344.81	2406.36
345.02	2400.22
345.23	2615.26
345.44	2826.20
345.65	2389.98
345.86	2453.47
346.07	2615.26
346.29	2471.90
346.50	2439.13
346.71	2523.10
346.92	2664.41
347.13	2752.47
347.34	2449.37
347.55	2367.45
347.76	2484.19
347.98	2265.05
348.19	2369.50
348.40	2553.82
348.61	2463.71
348.82	2633.69
349.03	2504.67
349.24	2322.40
349.45	2699.22
349.66	2269.15
349.88	2398.17
350.09	2359.26
350.30	2660.31
350.51	2635.74
350.72	2486.23
350.93	2418.65
351.14	2416.60
351.35	2478.04
351.56	2473.95
351.77	2410.46
351.99	2516.95
352.20	2664.41
352.41	2572.25
352.62	2269.15
352.83	2564.06
353.04	2449.37
353.25	2367.45
353.46	2428.89
353.67	2645.98
353.88	2285.53
354.09	2392.03
354.30	2480.09
354.52	2531.29
354.73	2385.88
354.94	2367.45
355.15	2506.71
355.36	2693.08
355.57	2502.62
355.78	2332.64
355.99	2406.36
356.20	2469.85
356.41	2686.94
356.62	2506.71
356.83	2412.51
357.04	2688.98
357.25	2289.63
357.46	2400.22
357.68	2308.06
357.89	2422.75
358.10	2473.95
358.31	2496.47
358.52	2416.60
358.73	2328.54
358.94	2394.08
359.15	2437.08
359.36	2465.75
359.57	2510.81
359.78	2504.67
359.99	2506.71
360.20	2293.72
360.41	2473.95
360.62	2627.54
360.83	2519.00
361.04	2418.65
361.25	2480.09
361.46	2699.22
361.67	2545.63
361.88	2443.23
362.09	2615.26
362.30	2492.38
362.51	2412.51
362.72	2432.99
362.93	2605.02
363.14	2645.98
363.35	2447.32
363.56	2355.16
363.78	2588.63
363.99	2674.65
364.20	2426.84
364.41	2461.66
364.62	2744.28
364.83	2555.86
365.04	2451.42
365.25	2420.70
365.46	2695.13
365.67	2285.53
365.88	2465.75
366.09	2406.36
366.30	2430.94
366.51	2465.75
366.72	2308.06
366.93	2396.12
367.14	2570.20
367.35	2580.44
367.56	2445.27
367.77	2555.86
367.98	2463.71
368.18	2539.48
368.39	2408.41
368.60	2326.49
368.81	2586.58
369.02	2457.56
369.23	2414.56
369.44	2293.72
369.65	2371.55
369.86	2543.58
370.07	2555.86
370.28	2398.17
370.49	2506.71
370.70	2568.15
370.91	2336.73
371.12	2303.96
371.33	2711.51
371.54	2457.56
371.75	2559.96
371.96	2224.09
372.17	2488.28
372.38	2486.23
372.59	2545.63
372.80	2424.80
373.01	2422.75
373.22	2519.00
373.43	2430.94
373.64	2277.34
373.85	2557.91
374.06	2662.36
374.26	2480.09
374.47	2486.23
374.68	2613.21
374.89	2478.04
375.10	2416.60
375.31	2531.29
375.52	2510.81
375.73	2459.61
375.94	2299.87
376.15	2555.86
376.36	2469.85
376.57	2453.47
376.78	2465.75
376.99	2435.03
377.20	2641.88
377.40	2480.09
377.61	2619.35
377.82	2373.60
378.03	2641.88
378.24	2469.85
378.45	2445.27
378.66	2453.47
378.87	2281.44
379.08	2213.85
379.29	2441.18
379.50	2578.39
379.71	2535.39
379.91	2574.30
380.12	2398.17
380.33	2502.62
380.54	2488.28
380.75	2564.06
380.96	2461.66
381.17	2514.91
381.38	2588.63
381.59	2441.18
381.80	2437.08
382.00	2684.89
382.21	2559.96
382.42	2727.89
382.63	2758.61
382.84	2553.82
383.05	2547.67
383.26	2654.17
383.47	2461.66
383.68	2432.99
383.88	2596.82
384.09	2496.47
384.30	2650.07
384.51	2537.43
384.72	2385.88
384.93	2346.97
385.14	2416.60
385.35	2566.10
385.55	2443.23
385.76	2672.60
385.97	2432.99
386.18	2320.35
386.39	2443.23
386.60	2443.23
386.81	2408.41
387.02	2318.30
387.22	2357.21
387.43	2576.34
387.64	2512.86
387.85	2617.30
388.06	2666.46
388.27	4011.97
388.48	8189.83
388.68	11829.07
388.89	14475.04
389.10	15535.89
389.31	14870.30
389.52	11573.07
389.73	9930.60
389.93	8959.86
390.14	8161.16
390.35	7421.84
390.56	6666.14
390.77	5445.55
390.98	4153.28
391.18	3456.97
391.39	2979.79
391.60	2525.15
391.81	2693.08
392.02	2375.64
392.23	2719.70
392.43	2537.43
392.64	2564.06
392.85	2547.67
393.06	2670.55
393.27	2467.80
393.47	2367.45
393.68	2467.80
393.89	2506.71
394.10	2676.70
394.31	2473.95
394.52	2367.45
394.72	2430.94
394.93	2695.13
395.14	2355.16
395.35	2453.47
395.56	2404.32
395.76	2375.64
395.97	2480.09
396.18	2529.24
396.39	2570.20
396.60	3000.27
396.80	2748.37
397.01	2605.02
397.22	2613.21
397.43	2641.88
397.64	2449.37
397.84	2592.73
398.05	2809.81
398.26	2447.32
398.47	2564.06
398.67	2555.86
398.88	2473.95
399.09	2547.67
399.30	2375.64
399.51	2471.90
399.71	2373.60
399.92	2484.19
400.13	2523.10
400.34	2410.46
400.54	2482.14
400.75	2695.13
400.96	2465.75
401.17	2590.68
401.37	2559.96
401.58	2465.75
401.79	2457.56
402.00	2607.06
402.21	2912.21
402.41	2856.92
402.62	2746.33
402.83	2895.83
403.04	2930.64
403.24	3082.19
403.45	2639.83
403.66	2762.71
403.87	2701.27
404.07	2781.14
404.28	2711.51
404.49	2756.57
404.70	2586.58
404.90	2629.59
405.11	2502.62
405.32	2506.71
405.52	2457.56
405.73	2488.28
405.94	2349.02
406.15	2465.75
406.35	2652.12
406.56	2519.00
406.77	2478.04
406.98	2379.74
407.18	2340.83
407.39	2678.74
407.60	2465.75
407.80	2490.33
408.01	2482.14
408.22	2584.54
408.43	2371.55
408.63	2484.19
408.84	2541.53
409.05	2584.54
409.25	2430.94
409.46	2342.88
409.67	2455.51
409.88	2373.60
410.08	2482.14
410.29	2445.27
410.50	2650.07
410.70	2508.76
410.91	2359.26
411.12	2469.85
411.32	2484.19
411.53	2318.30
411.74	2559.96
411.95	2576.34
412.15	2529.24
412.36	2643.93
412.57	2498.52
412.77	2627.54
412.98	2521.05
413.19	2451.42
413.39	2580.44
413.60	2514.91
413.81	2709.46
414.01	2342.88
414.22	2531.29
414.43	2596.82
414.63	2512.86
414.84	2541.53
415.05	2480.09
415.25	2314.20
415.46	2555.86
415.67	2461.66
415.87	2496.47
416.08	2463.71
416.29	2400.22
416.49	2572.25
416.70	2402.27
416.91	2410.46
417.11	2437.08
417.32	2648.02
417.53	2523.10
417.73	2490.33
417.94	2490.33
418.15	2486.23
418.35	2375.64
418.56	2402.27
418.77	2834.39
418.97	2523.10
419.18	2463.71
419.38	2203.61
419.59	2400.22
419.80	2611.16
420.00	2359.26
420.21	2392.03
420.42	2617.30
420.62	2598.87
420.83	2383.84
421.04	2412.51
421.24	2488.28
421.45	2453.47
421.65	2465.75
421.86	2443.23
422.07	2529.24
422.27	2519.00
422.48	2449.37
422.69	2387.93
422.89	2533.34
423.10	2478.04
423.30	2383.84
423.51	2490.33
423.72	2535.39
423.92	2539.48
424.13	2316.25
424.33	2457.56
424.54	2486.23
424.75	2387.93
424.95	2756.57
425.16	2490.33
425.36	2398.17
425.57	2588.63
425.78	2547.67
425.98	2531.29
426.19	2447.32
426.39	2416.60
426.60	2514.91
426.81	2539.48
427.01	2467.80
427.22	2367.45
427.42	2332.64
427.63	2367.45
427.83	2562.01
428.04	2648.02
428.25	2562.01
428.45	2598.87
428.66	2547.67
428.86	2523.10
429.07	2482.14
429.28	2449.37
429.48	2465.75
429.69	2443.23
429.89	2516.95
430.10	2330.59
430.30	2637.78
430.51	2596.82
430.71	2324.44
430.92	2435.03
431.13	2459.61
431.33	2676.70
431.54	2457.56
431.74	2588.63
431.95	2744.28
432.15	2400.22
432.36	2383.84
432.56	2549.72
432.77	2727.89
432.98	2707.41
433.18	2482.14
433.39	2410.46
433.59	2443.23
433.80	2701.27
434.00	2582.49
434.21	2396.12
434.41	2357.21
434.62	2832.34
434.82	2355.16
435.03	2297.82
435.23	2527.19
435.44	2344.92
435.64	2428.89
435.85	2467.80
436.06	2570.20
436.26	2555.86
436.47	2445.27
436.67	2369.50
436.88	2459.61
437.08	2654.17
437.29	2586.58
437.49	2539.48
437.70	2666.46
437.90	2424.80
438.11	2695.13
438.31	2531.29
438.52	2721.75
438.72	2715.61
438.93	2844.63
439.13	2488.28
439.34	2615.26
439.54	2488.28
439.75	2680.79
439.95	2519.00
440.16	2420.70
440.36	2492.38
440.57	2465.75
440.77	2492.38
440.98	2519.00
441.18	2506.71
441.39	2404.32
441.59	2365.40
441.80	2742.23
442.00	2424.80
442.21	2570.20
442.41	2301.92
442.62	2656.22
442.82	2367.45
443.02	2484.19
443.23	2502.62
443.43	2463.71
443.64	2664.41
443.84	2379.74
444.05	2555.86
444.25	2562.01
444.46	2412.51
444.66	2463.71
444.87	2654.17
445.07	2267.10
445.28	2461.66
445.48	2594.78
445.69	2525.15
445.89	2717.65
446.09	2426.84
446.30	2815.96
446.50	2994.13
446.71	4583.35
446.91	5713.83
447.12	6479.77
447.32	6956.95
447.53	6610.84
447.73	5400.49
447.93	4843.45
448.14	4511.68
448.34	4370.37
448.55	3835.85
448.75	3819.46
448.96	3577.80
449.16	3252.17
449.36	3080.14
449.57	2758.61
449.77	2568.15
449.98	2420.70
450.18	2637.78
450.39	2469.85
450.59	2590.68
450.79	2445.27
451.00	2443.23
451.20	2531.29
451.41	2469.85
451.61	2633.69
451.81	2506.71
452.02	2416.60
452.22	2478.04
452.43	2461.66
452.63	2408.41
452.84	2420.70
453.04	2428.89
453.24	2486.23
453.45	2430.94
453.65	2510.81
453.86	2432.99
454.06	2457.56
454.26	2467.80
454.47	2361.31
454.67	2658.26
454.87	2576.34
455.08	2432.99
455.28	2629.59
455.49	2519.00
455.69	2394.08
455.89	2742.23
456.10	2584.54
456.30	2428.89
456.51	2545.63
456.71	2523.10
456.91	2461.66
457.12	2545.63
457.32	2529.24
457.52	2408.41
457.73	2580.44
457.93	2541.53
458.14	2461.66
458.34	2310.11
458.54	2349.02
458.75	2439.13
458.95	2609.11
459.15	2492.38
459.36	2586.58
459.56	2482.14
459.76	2762.71
459.97	2463.71
460.17	2451.42
460.37	2547.67
460.58	2547.67
460.78	2553.82
460.99	2420.70
461.19	2365.40
461.39	2414.56
461.60	2435.03
461.80	2547.67
462.00	2353.12
462.21	2537.43
462.41	2383.84
462.61	2361.31
462.82	2240.48
463.02	2559.96
463.22	2449.37
463.43	2553.82
463.63	2351.07
463.83	2719.70
464.04	2551.77
464.24	2469.85
464.44	2349.02
464.64	2430.94
464.85	2502.62
465.05	2562.01
465.25	2482.14
465.46	2387.93
465.66	2570.20
465.86	2613.21
466.07	2494.43
466.27	2416.60
466.47	2346.97
466.68	2256.86
466.88	2564.06
467.08	2633.69
467.29	2641.88
467.49	2539.48
467.69	2469.85
467.89	2572.25
468.10	2449.37
468.30	2568.15
468.50	2580.44
468.71	2580.44
468.91	2293.72
469.11	2711.51
469.31	2502.62
469.52	2351.07
469.72	2637.78
469.92	2650.07
470.13	2346.97
470.33	2467.80
470.53	2572.25
470.73	2914.26
470.94	3192.78
471.14	3448.78
471.34	3880.90
471.54	3710.92
471.75	3420.11
471.95	3045.33
472.15	2965.46
472.36	2953.17
472.56	2922.45
472.76	2987.99
472.96	2891.73
473.17	2740.18
473.37	2656.22
473.57	2523.10
473.77	2617.30
473.98	2529.24
474.18	2359.26
474.38	2813.91
474.58	2430.94
474.79	2365.40
474.99	2508.76
475.19	2605.02
475.39	2432.99
475.60	2443.23
475.80	2437.08
476.00	2553.82
476.20	2496.47
476.41	2539.48
476.61	2555.86
476.81	2658.26
477.01	2406.36
477.21	2641.88
477.42	2580.44
477.62	2455.51
477.82	2643.93
478.02	2428.89
478.23	2424.80
478.43	2449.37
478.63	2424.80
478.83	2416.60
479.03	2447.32
479.24	2633.69
479.44	2688.98
479.64	2408.41
479.84	2275.29
480.04	2449.37
480.25	2637.78
480.45	2441.18
480.65	2471.90
480.85	2619.35
481.06	2508.76
481.26	2521.05
481.46	2478.04
481.66	2539.48
481.86	2342.88
482.06	2543.58
482.27	2471.90
482.47	2471.90
482.67	2527.19
482.87	2375.64
483.07	2514.91
483.28	2394.08
483.48	2383.84
483.68	2441.18
483.88	2453.47
484.08	2244.57
484.29	2318.30
484.49	2441.18
484.69	2275.29
484.89	2672.60
485.09	2598.87
485.29	2498.52
485.50	2533.34
485.70	2392.03
485.90	2617.30
486.10	2514.91
486.30	2443.23
486.50	2588.63
486.71	2555.86
486.91	2467.80
487.11	2629.59
487.31	2316.25
487.51	2598.87
487.71	2328.54
487.91	2320.35
488.12	2416.60
488.32	2260.96
488.52	2392.03
488.72	2252.77
488.92	2482.14
489.12	2666.46
489.32	2594.78
489.53	2555.86
489.73	2283.49
489.93	2793.43
490.13	2428.89
490.33	2349.02
490.53	2547.67
490.73	2666.46
490.94	2334.68
491.14	2496.47
491.34	2650.07
491.54	2701.27
491.74	3276.75
491.94	3991.49
492.14	4267.97
492.34	4368.32
492.54	3956.68
492.75	3477.45
492.95	3432.40
493.15	3264.46
493.35	3033.04
493.55	2916.31
493.75	2899.92
493.95	2973.65
494.15	2756.57
494.35	2549.72
494.56	2533.34
494.76	2441.18
494.96	2588.63
495.16	2396.12
495.36	2482.14
495.56	2535.39
495.76	2553.82
495.96	2379.74
496.16	2381.79
496.36	2744.28
496.56	2496.47
496.77	2570.20
496.97	2523.10
497.17	2643.93
497.37	2365.40
497.57	2594.78
497.77	2516.95
497.97	2398.17
498.17	2512.86
498.37	2441.18
498.57	2578.39
498.77	2406.36
498.97	2572.25
499.17	2701.27
499.38	2529.24
499.58	2545.63
499.78	2637.78
499.98	2662.36
500.18	2461.66
500.38	2428.89
500.58	2535.39
500.78	3131.34
500.98	5423.02
501.18	7415.69
501.38	9256.82
501.58	10145.64
501.78	9848.68
501.98	7962.50
502.18	6635.42
502.38	5709.74
502.58	5431.21
502.78	4794.29
502.98	4593.59
503.18	4390.84
503.38	4020.16
503.59	3495.88
503.79	3407.82
503.99	3174.35
504.19	3059.67
504.39	3078.10
504.59	3139.54
504.79	3030.99
504.99	3067.86
505.19	2863.06
505.39	2770.90
505.59	2897.88
505.79	2881.49
505.99	2643.93
506.19	2506.71
506.39	2729.94
506.59	2510.81
506.79	2519.00
506.99	2564.06
507.19	2463.71
507.39	2533.34
507.59	2371.55
507.79	2447.32
507.99	2398.17
508.19	2576.34
508.39	2510.81
508.59	2537.43
508.79	2580.44
508.99	2705.37
509.19	2371.55
509.39	2555.86
509.59	2422.75
509.79	2396.12
509.99	2613.21
510.19	2592.73
510.39	2576.34
510.59	2568.15
510.79	2377.69
510.99	2314.20
511.19	2455.51
511.39	2766.81
511.59	2678.74
511.79	2619.35
511.99	2463.71
512.19	2721.75
512.38	2480.09
512.58	2416.60
512.78	2484.19
512.98	2580.44
513.18	2674.65
513.38	2330.59
513.58	2523.10
513.78	2512.86
513.98	2432.99
514.18	2424.80
514.38	2408.41
514.58	2553.82
514.78	2459.61
514.98	2392.03
515.18	2471.90
515.38	2316.25
515.58	2643.93
515.78	2475.99
515.98	2455.51
516.18	2588.63
516.38	2471.90
516.57	2463.71
516.77	2336.73
516.97	2594.78
517.17	2443.23
517.37	2297.82
517.57	2547.67
517.77	2512.86
517.97	2463.71
518.17	2455.51
518.37	2394.08
518.57	2412.51
518.77	2506.71
518.97	2412.51
519.16	2437.08
519.36	2727.89
519.56	2408.41
519.76	2439.13
519.96	2445.27
520.16	2660.31
520.36	2412.51
520.56	2588.63
520.76	2396.12
520.96	2428.89
521.16	2596.82
521.35	2531.29
521.55	2678.74
521.75	2508.76
521.95	2420.70
522.15	2422.75
522.35	2269.15
522.55	2465.75
522.75	2543.58
522.95	2422.75
523.14	2306.01
523.34	2531.29
523.54	2445.27
523.74	2539.48
523.94	2492.38
524.14	2273.25
524.34	2494.43
524.54	2592.73
524.73	2461.66
524.93	2551.77
525.13	2445.27
525.33	2320.35
525.53	2707.41
525.73	2605.02
525.93	2420.70
526.13	2451.42
526.32	2383.84
526.52	2670.55
526.72	2609.11
526.92	2435.03
527.12	2432.99
527.32	2260.96
527.52	2537.43
527.71	2527.19
527.91	2486.23
528.11	2422.75
528.31	2533.34
528.51	2371.55
528.71	2588.63
528.90	2484.19
529.10	2566.10
529.30	2578.39
529.50	2166.75
529.70	2543.58
529.90	2467.80
530.09	2506.71
530.29	2357.21
530.49	2451.42
530.69	2852.82
530.89	2492.38
531.09	2551.77
531.28	2363.36
531.48	2695.13
531.68	2445.27
531.88	2512.86
532.08	2525.15
532.28	2463.71
532.47	2553.82
532.67	2506.71
532.87	2662.36
533.07	2402.27
533.27	2510.81
533.46	2525.15
533.66	2545.63
533.86	2535.39
534.06	2389.98
534.26	2496.47
534.45	2475.99
534.65	2645.98
534.85	2490.33
535.05	2361.31
535.25	2613.21
535.44	2252.77
535.64	2492.38
535.84	2539.48
536.04	2422.75
536.24	2400.22
536.43	2410.46
536.63	2469.85
536.83	2480.09
537.03	2484.19
537.22	2318.30
537.42	2246.62
537.62	2516.95
537.82	2422.75
538.02	2682.84
538.21	2627.54
538.41	2822.10
538.61	2580.44
538.81	2502.62
539.00	2648.02
539.20	2283.49
539.40	2371.55
539.60	2461.66
539.79	2529.24
539.99	2516.95
540.19	2471.90
540.39	2498.52
540.58	2408.41
540.78	2641.88
540.98	2459.61
541.18	2684.89
541.37	2514.91
541.57	2533.34
541.77	2533.34
541.97	2338.78
542.16	2353.12
542.36	2486.23
542.56	2430.94
542.76	2703.32
542.95	2555.86
543.15	2662.36
543.35	2514.91
543.54	2385.88
543.74	2297.82
543.94	2639.83
544.14	2418.65
544.33	2572.25
544.53	2459.61
544.73	2461.66
544.93	2463.71
545.12	2416.60
545.32	2535.39
545.52	2529.24
545.71	2361.31
545.91	2416.60
546.11	2410.46
546.30	2324.44
546.50	2512.86
546.70	2410.46
546.90	2506.71
547.09	2242.53
547.29	2514.91
547.49	2588.63
547.68	2465.75
547.88	2445.27
548.08	2611.16
548.27	2815.96
548.47	2334.68
548.67	2408.41
548.87	2570.20
549.06	2404.32
549.26	2451.42
549.46	2514.91
549.65	2379.74
549.85	2449.37
550.05	2545.63
550.24	2416.60
550.44	2473.95
550.64	2461.66
550.83	2510.81
551.03	2643.93
551.23	2594.78
551.42	2488.28
551.62	2492.38
551.82	2506.71
552.01	2463.71
552.21	2615.26
552.41	2525.15
552.60	2670.55
552.80	2498.52
553.00	2367.45
553.19	2480.09
553.39	2752.47
553.59	2373.60
553.78	2611.16
553.98	2480.09
554.17	2402.27
554.37	2541.53
554.57	2553.82
554.76	2330.59
554.96	2420.70
555.16	2527.19
555.35	2490.33
555.55	2562.01
555.75	2658.26
555.94	2566.10
556.14	2244.57
556.33	2418.65
556.53	2435.03
556.73	2607.06
556.92	2568.15
557.12	2547.67
557.32	2658.26
557.51	2635.74
557.71	2521.05
557.90	2555.86
558.10	2650.07
558.30	2521.05
558.49	2451.42
558.69	2416.60
558.88	2566.10
559.08	2531.29
559.28	2414.56
559.47	2435.03
559.67	2549.72
559.86	2795.48
560.06	2490.33
560.26	2381.79
560.45	2555.86
560.65	2473.95
560.84	2611.16
561.04	2367.45
561.24	2545.63
561.43	2502.62
561.63	2584.54
561.82	2504.67
562.02	2629.59
562.22	2355.16
562.41	2414.56
562.61	2414.56
562.80	2373.60
563.00	2740.18
563.19	2457.56
563.39	2490.33
563.59	2609.11
563.78	2365.40
563.98	2191.33
564.17	2449.37
564.37	2355.16
564.56	2484.19
564.76	2392.03
564.96	2609.11
565.15	2582.49
565.35	2891.73
565.54	2486.23
565.74	2590.68
565.93	2592.73
566.13	2494.43
566.32	2471.90
566.52	2592.73
566.71	2539.48
566.91	2613.21
567.11	2574.30
567.30	2408.41
567.50	2543.58
567.69	2502.62
567.89	2297.82
568.08	2432.99
568.28	2525.15
568.47	2402.27
568.67	2455.51
568.86	2478.04
569.06	2645.98
569.25	2496.47
569.45	2355.16
569.64	2392.03
569.84	2523.10
570.04	2471.90
570.23	2482.14
570.43	2387.93
570.62	2492.38
570.82	2703.32
571.01	2332.64
571.21	2400.22
571.40	2344.92
571.60	2566.10
571.79	2521.05
571.99	2521.05
572.18	2371.55
572.38	2494.43
572.57	2342.88
572.77	2473.95
572.96	2893.78
573.16	2555.86
573.35	2480.09
573.55	2633.69
573.74	2562.01
573.94	2408.41
574.13	2381.79
574.33	2514.91
574.52	2637.78
574.71	2527.19
574.91	2480.09
575.10	2353.12
575.30	2488.28
575.49	2392.03
575.69	2389.98
575.88	2510.81
576.08	2508.76
576.27	2672.60
576.47	2441.18
576.66	2752.47
576.86	2615.26
577.05	2594.78
577.25	2553.82
577.44	2688.98
577.64	2449.37
577.83	2613.21
578.02	2478.04
578.22	2658.26
578.41	2740.18
578.61	2498.52
578.80	2373.60
579.00	2529.24
579.19	2480.09
579.39	2498.52
579.58	2525.15
579.77	2496.47
579.97	2637.78
580.16	2639.83
580.36	2572.25
580.55	2580.44
580.75	2596.82
580.94	2490.33
581.13	2670.55
581.33	2664.41
581.52	2516.95
581.72	2793.43
581.91	2705.37
582.11	2414.56
582.30	2596.82
582.49	2545.63
582.69	2709.46
582.88	2473.95
583.08	2570.20
583.27	2645.98
583.47	2539.48
583.66	2398.17
583.85	2424.80
584.05	2500.57
584.24	2572.25
584.44	2504.67
584.63	2674.65
584.82	2721.75
585.02	2654.17
585.21	2668.50
585.41	2609.11
585.60	2627.54
585.79	2740.18
585.99	2785.24
586.18	2619.35
586.37	3327.95
586.57	5031.86
586.76	14692.13
586.96	34020.86
587.15	47830.31
587.34	56536.23
587.54	61514.84
587.73	55755.95
587.93	39349.67
588.12	29826.62
588.31	24288.91
588.51	21192.38
588.70	19474.13
588.89	17735.41
589.09	15195.93
589.28	12926.78
589.47	10182.50
589.67	7954.31
589.86	6135.71
590.06	4698.04
590.25	3835.85
590.44	3364.81
590.64	2951.12
590.83	2834.39
591.02	2699.22
591.22	2586.58
591.41	2613.21
591.60	2574.30
591.80	2805.72
591.99	2406.36
592.18	2457.56
592.38	2639.83
592.57	2394.08
592.76	2455.51
592.96	2514.91
593.15	2621.40
593.34	2678.74
593.54	2406.36
593.73	2596.82
593.92	2564.06
594.12	2621.40
594.31	2516.95
594.50	2717.65
594.70	2555.86
594.89	2863.06
595.08	2361.31
595.28	2590.68
595.47	2938.84
595.66	2559.96
595.86	2383.84
596.05	2389.98
596.24	2445.27
596.43	2734.04
596.63	2576.34
596.82	2635.74
597.01	2539.48
597.21	2717.65
597.40	2531.29
597.59	2514.91
597.79	2478.04
597.98	2621.40
598.17	2549.72
598.36	2527.19
598.56	2645.98
598.75	2443.23
598.94	2598.87
599.14	2580.44
599.33	2482.14
599.52	2611.16
599.71	2516.95
599.91	2529.24
600.10	2596.82
600.29	2523.10
600.48	2539.48
600.68	2570.20
600.87	2519.00
601.06	2437.08
601.26	2506.71
601.45	2555.86
601.64	2498.52
601.83	2666.46
602.03	2389.98
602.22	2373.60
602.41	2709.46
602.60	2822.10
602.80	2582.49
602.99	2592.73
603.18	2435.03
603.37	2592.73
603.57	2488.28
603.76	2555.86
603.95	2627.54
604.14	2408.41
604.34	2435.03
604.53	2447.32
604.72	2537.43
604.91	2633.69
605.10	2441.18
605.30	2318.30
605.49	2842.58
605.68	2613.21
605.87	2516.95
606.07	2406.36
606.26	2496.47
606.45	2514.91
606.64	2519.00
606.84	2392.03
607.03	2564.06
607.22	2578.39
607.41	2514.91
607.60	2435.03
607.80	2652.12
607.99	2506.71
608.18	2506.71
608.37	2389.98
608.56	2449.37
608.76	2750.42
608.95	2684.89
609.14	2631.64
609.33	2645.98
609.52	2744.28
609.72	2547.67
609.91	2637.78
610.10	2629.59
610.29	2752.47
610.48	2596.82
610.68	2531.29
610.87	2498.52
611.06	2666.46
611.25	2510.81
611.44	2623.45
611.63	2451.42
611.83	2676.70
612.02	2385.88
612.21	2600.92
612.40	2326.49
612.59	2455.51
612.79	2312.16
612.98	2396.12
613.17	2660.31
613.36	2621.40
613.55	2645.98
613.74	2510.81
613.93	2660.31
614.13	2633.69
614.32	2678.74
614.51	2596.82
614.70	2592.73
614.89	2559.96
615.08	2568.15
615.28	3006.42
615.47	2486.23
615.66	2486.23
615.85	2512.86
616.04	2713.56
616.23	2531.29
616.42	2547.67
616.62	2527.19
616.81	2553.82
617.00	2508.76
617.19	2629.59
617.38	2422.75
617.57	2441.18
617.76	2666.46
617.95	2611.16
618.15	2570.20
618.34	2590.68
618.53	2297.82
618.72	2691.03
618.91	2572.25
619.10	2545.63
619.29	2449.37
619.48	2537.43
619.68	2400.22
619.87	2439.13
620.06	2408.41
620.25	2572.25
620.44	2408.41
620.63	2426.84
620.82	2510.81
621.01	2506.71
621.20	2410.46
621.39	2541.53
621.59	2537.43
621.78	2500.57
621.97	2471.90
622.16	2611.16
622.35	2473.95
622.54	2559.96
622.73	2506.71
622.92	2312.16
623.11	2572.25
623.30	2408.41
623.49	2586.58
623.68	2387.93
623.88	2684.89
624.07	2459.61
624.26	2389.98
624.45	2473.95
624.64	2441.18
624.83	2504.67
625.02	2449.37
625.21	2414.56
625.40	2543.58
625.59	2650.07
625.78	2500.57
625.97	2584.54
626.16	2721.75
626.35	2760.66
626.54	2514.91
626.74	2723.80
626.93	2463.71
627.12	2430.94
627.31	2619.35
627.50	2465.75
627.69	2545.63
627.88	2400.22
628.07	2455.51
628.26	2295.77
628.45	2389.98
628.64	2404.32
628.83	2451.42
629.02	2363.36
629.21	2557.91
629.40	2564.06
629.59	2449.37
629.78	2533.34
629.97	2469.85
630.16	2510.81
630.35	2465.75
630.54	2488.28
630.73	2521.05
630.92	2514.91
631.11	2394.08
631.30	2465.75
631.49	2535.39
631.68	2482.14
631.87	2506.71
632.06	2318.30
632.25	2850.77
632.44	2519.00
632.63	2465.75
632.82	2547.67
633.01	2564.06
633.20	2641.88
633.39	2473.95
633.58	2389.98
633.77	2643.93
633.96	2553.82
634.15	2547.67
634.34	2611.16
634.53	2559.96
634.72	2439.13
634.91	2287.58
635.10	2508.76
635.29	2645.98
635.48	2473.95
635.67	2426.84
635.86	2389.98
636.05	2629.59
636.24	2463.71
636.43	2473.95
636.62	2570.20
636.81	2226.14
637.00	2475.99
637.19	2449.37
637.38	2459.61
637.57	2506.71
637.76	2482.14
637.95	2666.46
638.14	2559.96
638.33	2586.58
638.52	2607.06
638.71	2338.78
638.89	2349.02
639.08	2912.21
639.27	2666.46
639.46	2699.22
639.65	3123.15
639.84	3174.35
640.03	3248.08
640.22	3141.58
640.41	3147.73
640.60	2770.90
640.79	2828.24
640.98	2637.78
641.17	2715.61
641.36	2713.56
641.55	2682.84
641.74	2420.70
641.92	2455.51
642.11	2410.46
642.30	2539.48
642.49	2435.03
642.68	2416.60
642.87	2578.39
643.06	2535.39
643.25	2377.69
643.44	2344.92
643.63	2389.98
643.82	2594.78
644.00	2363.36
644.19	2457.56
644.38	2357.21
644.57	2557.91
644.76	2516.95
644.95	2453.47
645.14	2502.62
645.33	2494.43
645.52	2533.34
645.71	2338.78
645.89	2375.64
646.08	2473.95
646.27	2428.89
646.46	2697.17
646.65	2281.44
646.84	2461.66
647.03	2408.41
647.22	2547.67
647.40	2496.47
647.59	2443.23
647.78	2381.79
647.97	2377.69
648.16	2412.51
648.35	2625.50
648.54	2596.82
648.73	2432.99
648.91	2676.70
649.10	2457.56
649.29	2389.98
649.48	2424.80
649.67	2523.10
649.86	2586.58
650.05	2389.98
650.23	2633.69
650.42	2527.19
650.61	2734.04
650.80	2605.02
650.99	2828.24
651.18	2623.45
651.36	2627.54
651.55	2396.12
651.74	2574.30
651.93	2514.91
652.12	2447.32
652.31	2451.42
652.49	2473.95
652.68	2514.91
652.87	2668.50
653.06	2516.95
653.25	2705.37
653.44	2478.04
653.62	2664.41
653.81	2512.86
654.00	2494.43
654.19	2613.21
654.38	2832.34
654.56	2492.38
654.75	2463.71
654.94	2605.02
655.13	2506.71
655.32	2475.99
655.51	2510.81
655.69	2478.04
655.88	2609.11
656.07	2346.97
656.26	2529.24
656.45	2338.78
656.63	2494.43
656.82	2473.95
657.01	2648.02
657.20	2379.74
657.38	2658.26
657.57	2410.46
657.76	2326.49
657.95	2572.25
658.14	2373.60
658.32	2553.82
658.51	2310.11
658.70	2510.81
658.89	2559.96
659.08	2412.51
659.26	2656.22
659.45	2439.13
659.64	2576.34
659.83	2469.85
660.01	2813.91
660.20	2469.85
660.39	2678.74
660.58	2252.77
660.76	2523.10
660.95	2283.49
661.14	2441.18
661.33	2263.01
661.51	2353.12
661.70	2432.99
661.89	2510.81
662.08	2441.18
662.26	2326.49
662.45	2346.97
662.64	2764.76
662.83	2551.77
663.01	2406.36
663.20	2351.07
663.39	2609.11
663.58	2394.08
663.76	2408.41
663.95	2576.34
664.14	2306.01
664.32	2480.09
664.51	2359.26
664.70	2291.68
664.89	2594.78
665.07	2359.26
665.26	2613.21
665.45	2373.60
665.64	2564.06
665.82	2426.84
666.01	2506.71
666.20	2289.63
666.38	2609.11
666.57	2670.55
666.76	3919.81
666.95	9598.83
667.13	17741.55
667.32	22400.68
667.51	26310.25
667.69	27399.77
667.88	24690.31
668.07	17336.06
668.25	14194.47
668.44	12101.45
668.63	10329.95
668.81	9103.22
669.00	7974.79
669.19	7026.58
669.38	6059.94
669.56	5117.87
669.75	4474.81
669.94	3743.69
670.12	3178.45
670.31	2957.27
670.50	2777.05
670.68	2777.05
670.87	2674.65
671.06	2484.19
671.24	2613.21
671.43	2711.51
671.62	2635.74
671.80	2457.56
671.99	2600.92
672.18	2559.96
672.36	2605.02
672.55	2547.67
672.74	2449.37
672.92	2506.71
673.11	2531.29
673.29	2308.06
673.48	2625.50
673.67	2414.56
673.85	2652.12
674.04	2363.36
674.23	2478.04
674.41	2746.33
674.60	2316.25
674.79	2297.82
674.97	2342.88
675.16	2588.63
675.34	2600.92
675.53	2422.75
675.72	2619.35
675.90	2699.22
676.09	2424.80
676.28	2383.84
676.46	2269.15
676.65	2539.48
676.83	2394.08
677.02	2416.60
677.21	2457.56
677.39	2543.58
677.58	2406.36
677.77	2457.56
677.95	2414.56
678.14	2459.61
678.32	2490.33
678.51	2387.93
678.70	2705.37
678.88	2379.74
679.07	2543.58
679.25	2494.43
679.44	2492.38
679.63	2373.60
679.81	2506.71
680.00	2623.45
680.18	2580.44
680.37	2600.92
680.55	2496.47
680.74	2328.54
680.93	2293.72
681.11	2500.57
681.30	2545.63
681.48	2531.29
681.67	2406.36
681.85	2512.86
682.04	2367.45
682.23	2564.06
682.41	2441.18
682.60	2400.22
682.78	2494.43
682.97	2338.78
683.15	2465.75
683.34	2549.72
683.53	2658.26
683.71	2250.72
683.90	2553.82
684.08	2654.17
684.27	2426.84
684.45	2521.05
684.64	2596.82
684.82	2494.43
685.01	2576.34
685.19	2459.61
685.38	2652.12
685.57	2482.14
685.75	2389.98
685.94	2349.02
686.12	2332.64
686.31	2500.57
686.49	2662.36
686.68	2230.24
686.86	2502.62
687.05	2473.95
687.23	2729.94
687.42	2453.47
687.60	2291.68
687.79	2605.02
687.97	2719.70
688.16	2547.67
688.34	2570.20
688.53	2373.60
688.71	2506.71
688.90	2598.87
689.08	2535.39
689.27	2314.20
689.45	2562.01
689.64	2475.99
689.82	2512.86
690.01	2514.91
690.19	2521.05
690.38	2457.56
690.56	2602.97
690.75	2338.78
690.93	2373.60
691.12	2420.70
691.30	2410.46
691.49	2400.22
691.67	2514.91
691.86	2742.23
692.04	2443.23
692.23	2531.29
692.41	2514.91
692.60	2703.32
692.78	2703.32
692.97	2562.01
693.15	2621.40
693.34	2641.88
693.52	2580.44
693.71	2432.99
693.89	2404.32
694.08	2351.07
694.26	2576.34
694.44	2703.32
694.63	2549.72
694.81	2312.16
695.00	2353.12
695.18	2600.92
695.37	2785.24
695.55	2469.85
695.74	2430.94
695.92	2389.98
696.10	2613.21
696.29	2281.44
696.47	2416.60
696.66	2363.36
696.84	2471.90
697.03	2508.76
697.21	2736.09
697.40	3772.36
697.58	2674.65
697.76	2422.75
697.95	2441.18
698.13	2336.73
698.32	2371.55
698.50	2449.37
698.68	2490.33
698.87	2545.63
699.05	2643.93
699.24	2506.71
699.42	2353.12
699.61	2492.38
699.79	2506.71
699.97	2496.47
700.16	2349.02
700.34	2320.35
700.53	2586.58
700.71	2629.59
700.89	2613.21
701.08	2506.71
701.26	2568.15
701.45	3028.95
701.63	2424.80
701.81	2441.18
702.00	2359.26
702.18	2500.57
702.37	2445.27
702.55	2721.75
702.73	2602.97
702.92	2543.58
703.10	2758.61
703.28	2809.81
703.47	2457.56
703.65	2674.65
703.84	2772.95
704.02	2555.86
704.20	2748.37
704.39	2383.84
704.57	2547.67
704.75	2625.50
704.94	2615.26
705.12	2531.29
705.30	2881.49
705.49	5488.56
705.67	12488.51
705.86	20174.54
706.04	24069.78
706.22	26912.36
706.41	27383.39
706.59	22433.45
706.77	16160.52
706.96	13862.70
707.14	12185.41
707.32	10403.68
707.51	9238.39
707.69	7585.68
707.87	6045.60
708.06	4966.32
708.24	4091.84
708.42	3416.01
708.61	3303.37
708.79	2678.74
708.97	2650.07
709.16	2625.50
709.34	2662.36
709.52	2502.62
709.71	2502.62
709.89	2609.11
710.07	2367.45
710.26	2371.55
710.44	2428.89
710.62	2613.21
710.80	2510.81
710.99	2605.02
711.17	2564.06
711.35	2457.56
711.54	2449.37
711.72	2619.35
711.90	2543.58
712.09	2480.09
712.27	2443.23
712.45	2559.96
712.63	2410.46
712.82	2457.56
713.00	2439.13
713.18	2568.15
713.37	2516.95
713.55	2537.43
713.73	2678.74
713.91	2607.06
714.10	2424.80
714.28	2461.66
714.46	2531.29
714.65	2449.37
714.83	2537.43
715.01	2510.81
715.19	2541.53
715.38	2342.88
715.56	2549.72
715.74	2359.26
715.92	2412.51
716.11	2684.89
716.29	2306.01
716.47	2496.47
716.65	2449.37
716.84	2271.20
717.02	2500.57
717.20	2242.53
717.38	2392.03
717.57	2584.54
717.75	2439.13
717.93	2412.51
718.11	2592.73
718.30	2392.03
718.48	2531.29
718.66	2572.25
718.84	2623.45
719.03	2441.18
719.21	2346.97
719.39	2650.07
719.57	2580.44
719.75	2555.86
719.94	2375.64
720.12	2502.62
720.30	2539.48
720.48	2498.52
720.67	2443.23
720.85	2299.87
721.03	2441.18
721.21	2392.03
721.39	2553.82
721.58	2562.01
721.76	2578.39
721.94	2496.47
722.12	2551.77
722.30	2701.27
722.49	2365.40
722.67	2535.39
722.85	2463.71
723.03	2334.68
723.21	2453.47
723.40	2455.51
723.58	2543.58
723.76	2506.71
723.94	2637.78
724.12	2549.72
724.30	2584.54
724.49	2547.67
724.67	2469.85
724.85	2664.41
725.03	2381.79
725.21	2527.19
725.40	2633.69
725.58	2383.84
725.76	2572.25
725.94	2547.67
726.12	2379.74
726.30	2461.66
726.49	2416.60
726.67	2484.19
726.85	2551.77
727.03	2916.31
727.21	4194.24
727.39	5801.90
727.57	6569.88
727.76	7034.77
727.94	7511.95
728.12	6905.75
728.30	5425.07
728.48	4927.41
728.66	4552.63
728.84	4112.32
729.03	3514.31
729.21	3223.50
729.39	2981.84
729.57	2650.07
729.75	2691.03
729.93	2553.82
730.11	2408.41
730.30	2457.56
730.48	2531.29
730.66	2605.02
730.84	2551.77
731.02	2525.15
731.20	2480.09
731.38	2410.46
731.56	2357.21
731.74	2322.40
731.93	2584.54
732.11	2473.95
732.29	2449.37
732.47	2531.29
732.65	2514.91
732.83	2547.67
733.01	2475.99
733.19	2398.17
733.37	2547.67
733.56	2551.77
733.74	2389.98
733.92	2666.46
734.10	2441.18
734.28	2543.58
734.46	2252.77
734.64	2463.71
734.82	2459.61
735.00	2381.79
735.18	2506.71
735.36	2457.56
735.54	2385.88
735.73	2465.75
735.91	2525.15
736.09	2629.59
736.27	2514.91
736.45	2496.47
736.63	2273.25
736.81	2480.09
736.99	2545.63
737.17	2627.54
737.35	2424.80
737.53	2514.91
737.71	2443.23
737.89	2586.58
738.07	2406.36
738.25	2334.68
738.43	2349.02
738.61	2482.14
738.80	2277.34
738.98	2318.30
739.16	2400.22
739.34	2353.12
739.52	2602.97
739.70	2455.51
739.88	2600.92
740.06	2496.47
740.24	2220.00
740.42	2588.63
740.60	2334.68
740.78	2373.60
740.96	2314.20
741.14	2426.84
741.32	2545.63
741.50	2273.25
741.68	2820.05
741.86	2660.31
742.04	2318.30
742.22	2336.73
742.40	2455.51
742.58	2463.71
742.76	2418.65
742.94	2607.06
743.12	2248.67
743.30	2437.08
743.48	2578.39
743.66	2377.69
743.84	2467.80
744.02	2439.13
744.20	2490.33
744.38	2385.88
744.56	2428.89
744.74	2791.38
744.92	2596.82
745.10	2609.11
745.28	2519.00
745.46	2662.36
745.64	2498.52
745.82	2566.10
746.00	2375.64
746.18	2570.20
746.36	2346.97
746.54	2523.10
746.72	2418.65
746.90	2353.12
747.08	2582.49
747.26	2402.27
747.44	2615.26
747.62	2578.39
747.80	2537.43
747.98	2543.58
748.15	2398.17
748.33	2697.17
748.51	2580.44
748.69	2545.63
748.87	2332.64
749.05	2510.81
749.23	2461.66
749.41	2461.66
749.59	2457.56
749.77	2658.26
749.95	2445.27
750.13	2344.92
750.31	2584.54
750.49	2457.56
750.67	2506.71
750.85	2611.16
751.03	2467.80
751.20	2846.68
751.38	2471.90
751.56	2437.08
751.74	2420.70
751.92	2457.56
752.10	2279.39
752.28	2564.06
752.46	2349.02
752.64	2449.37
752.82	2510.81
753.00	2586.58
753.18	2383.84
753.35	2422.75
753.53	2490.33
753.71	2383.84
753.89	2498.52
754.07	2596.82
754.25	2508.76
754.43	2484.19
754.61	2293.72
754.79	2512.86
754.97	2537.43
755.14	2635.74
755.32	2357.21
755.50	2465.75
755.68	2553.82
755.86	2402.27
756.04	2398.17
756.22	2299.87
756.40	2609.11
756.57	2723.80
756.75	2426.84
756.93	2652.12
757.11	2549.72
757.29	2375.64
757.47	2369.50
757.65	2351.07
757.82	2213.85
758.00	2428.89
758.18	2428.89
758.36	2349.02
758.54	2572.25
758.72	2310.11
758.90	2564.06
759.07	2500.57
759.25	2369.50
759.43	2437.08
759.61	2338.78
759.79	3526.60
759.97	2592.73
760.15	2383.84
760.32	2387.93
760.50	2490.33
760.68	2637.78
760.86	2318.30
761.04	2531.29
761.22	2506.71
761.39	2449.37
761.57	2568.15
761.75	2486.23
761.93	2496.47
762.11	2383.84
762.28	2512.86
762.46	2326.49
762.64	2650.07
762.82	2334.68
763.00	2459.61
763.18	2598.87
763.35	2351.07
763.53	2553.82
763.71	2416.60
763.89	2414.56
764.07	2449.37
764.24	2519.00
764.42	2541.53
764.60	2473.95
764.78	2437.08
764.96	2592.73
765.13	2562.01
765.31	2412.51
765.49	2539.48
765.67	2494.43
765.84	2322.40
766.02	2389.98
766.20	2377.69
766.38	2510.81
766.56	2482.14
766.73	2566.10
766.91	2539.48
767.09	2420.70
767.27	2652.12
767.44	2306.01
767.62	2473.95
767.80	2562.01
767.98	2455.51
768.15	2359.26
768.33	2547.67
768.51	2564.06
768.69	2539.48
768.87	2576.34
769.04	2441.18
769.22	2707.41
769.40	2711.51
769.58	2691.03
769.75	2498.52
769.93	2584.54
770.11	2394.08
770.28	2320.35
770.46	2523.10
770.64	2457.56
770.82	2400.22
770.99	2398.17
771.17	2539.48
771.35	2482.14
771.53	2367.45
771.70	2422.75
771.88	2478.04
772.06	2398.17
772.23	2430.94
772.41	2500.57
772.59	2418.65
772.77	2387.93
772.94	2461.66
773.12	2486.23
773.30	2435.03
773.47	2473.95
773.65	2394.08
773.83	2613.21
774.01	2408.41
774.18	2207.71
774.36	2435.03
774.54	2338.78
774.71	2555.86
774.89	2308.06
775.07	2416.60
775.24	2496.47
775.42	2340.83
775.60	2715.61
775.78	2383.84
775.95	2351.07
776.13	2297.82
776.31	2314.20
776.48	2467.80
776.66	2553.82
776.84	2461.66
777.01	2420.70
777.19	2371.55
777.37	2424.80
777.54	2525.15
777.72	2715.61
777.90	2480.09
778.07	2408.41
778.25	2865.11
778.43	2635.74
778.60	2346.97
778.78	2539.48
778.96	2625.50
779.13	2351.07
779.31	2531.29
779.49	2473.95
779.66	2465.75
779.84	2432.99
780.01	2416.60
780.19	2373.60
780.37	2641.88
780.54	2516.95
780.72	2367.45
780.90	2428.89
781.07	2459.61
781.25	2371.55
781.43	2645.98
781.60	2439.13
781.78	2652.12
781.95	2545.63
782.13	2398.17
782.31	2441.18
782.48	2318.30
782.66	2465.75
782.83	2684.89
783.01	2475.99
783.19	2521.05
783.36	2449.37
783.54	2349.02
783.72	2525.15
783.89	2412.51
784.07	2482.14
784.24	2562.01
784.42	2631.64
784.60	2510.81
784.77	2627.54
784.95	2234.33
785.12	2387.93
785.30	2605.02
785.47	2439.13
785.65	2334.68
785.83	2478.04
786.00	2551.77
786.18	2541.53
786.35	2342.88
786.53	2383.84
786.71	2555.86
786.88	2539.48
787.06	2553.82
787.23	2432.99
787.41	2353.12
787.58	2465.75
787.76	2422.75
787.94	2441.18
788.11	2568.15
788.29	2316.25
788.46	2404.32
788.64	2260.96
788.81	2471.90
788.99	2351.07
789.16	2365.40
789.34	2465.75
789.52	2394.08
789.69	2385.88
789.87	2236.38
790.04	2387.93
790.22	2480.09
790.39	2709.46
790.57	2299.87
790.74	2367.45
790.92	2516.95
791.09	2306.01
791.27	2449.37
791.44	2656.22
791.62	2432.99
791.79	2523.10
791.97	2478.04
792.15	2756.57
792.32	2527.19
792.50	2559.96
792.67	2562.01
792.85	2633.69
793.02	2441.18
793.20	2426.84
793.37	2365.40
793.55	2449.37
793.72	2285.53
793.90	2471.90
794.07	2324.44
794.25	2310.11
794.42	2521.05
794.60	2461.66
794.77	2543.58
794.95	2580.44
795.12	2502.62
795.30	2506.71
795.47	2220.00
795.65	2736.09
795.82	2469.85
796.00	2389.98
796.17	2408.41
796.34	2398.17
796.52	2549.72
796.69	2555.86
796.87	2600.92
797.04	2516.95
797.22	2586.58
797.39	2525.15
797.57	2545.63
797.74	2449.37
797.92	2531.29
798.09	2428.89
798.27	2592.73
798.44	2375.64
798.62	2414.56
798.79	2475.99
798.96	2549.72
799.14	2430.94
799.31	2715.61
799.49	2510.81
799.66	2373.60
799.84	2453.47
800.01	2375.64
800.19	2469.85
800.36	2283.49
800.53	2453.47
800.71	2586.58
800.88	2676.70
801.06	2351.07
801.23	2424.80
801.41	2465.75
801.58	2473.95
801.75	2359.26
801.93	2523.10
802.10	2486.23
802.28	2430.94
802.45	2404.32
802.63	2535.39
802.80	2648.02
802.97	2529.24
803.15	2480.09
803.32	2400.22
803.50	2478.04
803.67	2432.99
803.84	2308.06
804.02	2498.52
804.19	2498.52
804.37	2281.44
804.54	2367.45
804.71	2443.23
804.89	2492.38
805.06	2373.60
805.24	2389.98
805.41	2326.49
805.58	2394.08
805.76	2846.68
805.93	2482.14
806.10	2588.63
806.28	2555.86
806.45	2504.67
806.63	2557.91
806.80	2502.62
806.97	2564.06
807.15	2525.15
807.32	2465.75
807.49	2502.62
807.67	2299.87
807.84	2580.44
808.01	2328.54
808.19	2615.26
808.36	2772.95
808.54	2398.17
808.71	2396.12
808.88	2461.66
809.06	2611.16
809.23	2639.83
809.40	2375.64
809.58	2512.86
809.75	2488.28
809.92	2299.87
810.10	2697.17
810.27	2457.56
810.44	2516.95
810.62	2564.06
810.79	2512.86
810.96	2318.30
811.14	2449.37
811.31	2592.73
811.48	2588.63
811.66	2441.18
811.83	2613.21
812.00	2523.10
812.18	2478.04
812.35	2740.18
812.52	2396.12
812.69	2414.56
812.87	2457.56
813.04	2416.60
813.21	2459.61
813.39	2410.46
813.56	2346.97
813.73	2535.39
813.91	2328.54
814.08	2490.33
814.25	2455.51
814.42	2330.59
814.60	2392.03
814.77	2568.15
814.94	2432.99
815.12	2529.24
815.29	2705.37
815.46	2463.71
815.63	2529.24
815.81	2410.46
815.98	2404.32
816.15	2465.75
816.33	2510.81
816.50	2375.64
816.67	2414.56
816.84	2383.84
817.02	2320.35
817.19	2389.98
817.36	2492.38
817.53	2545.63
817.71	2334.68
817.88	2500.57
818.05	2531.29
818.22	2412.51
818.40	2586.58
818.57	2404.32
818.74	2490.33
818.91	2404.32
819.09	2523.10
819.26	2605.02
819.43	2357.21
819.60	2412.51
819.78	2473.95
819.95	2637.78
820.12	2324.44
820.29	2658.26
820.47	2521.05
820.64	2414.56
820.81	2375.64
820.98	2334.68
821.15	2426.84
821.33	2478.04
821.50	2279.39
821.67	2543.58
821.84	2414.56
822.02	2549.72
822.19	2590.68
822.36	2396.12
822.53	2422.75
822.70	2318.30
822.88	2404.32
823.05	2691.03
823.22	2514.91
823.39	2508.76
823.56	2506.71
823.74	2652.12
823.91	2330.59
824.08	2373.60
824.25	2379.74
824.42	2654.17
824.60	2338.78
824.77	2463.71
824.94	2430.94
825.11	2533.34
825.28	2248.67
825.45	2508.76
825.63	2418.65
825.80	2373.60
825.97	2482.14
826.14	2498.52
826.31	2371.55
826.48	2496.47
826.66	2396.12
826.83	2439.13
827.00	2441.18
827.17	2383.84
827.34	2469.85
827.51	2383.84
827.69	2519.00
827.86	2336.73
828.03	2482.14
828.20	2519.00
828.37	2389.98
828.54	2506.71
828.71	2371.55
828.89	2555.86
829.06	2510.81
829.23	2654.17
829.40	2480.09
829.57	2400.22
829.74	2555.86
829.91	2412.51
830.09	2398.17
830.26	2549.72
830.43	2596.82
830.60	2435.03
830.77	2504.67
830.94	2514.91
831.11	2568.15
831.28	2457.56
831.46	2637.78
831.63	2426.84
831.80	2543.58
831.97	2367.45
832.14	2394.08
832.31	2543.58
832.48	2564.06
832.65	2615.26
832.82	2541.53
832.99	2490.33
833.17	2383.84
833.34	2660.31
833.51	2529.24
833.68	2279.39
833.85	2549.72
834.02	2439.13
834.19	2318.30
834.36	2416.60
834.53	2498.52
834.70	2584.54
834.87	2478.04
835.04	2328.54
835.22	2379.74
835.39	2461.66
835.56	2344.92
835.73	2353.12
835.90	2613.21
836.07	2371.55
836.24	2416.60
836.41	2351.07
836.58	2287.58
836.75	2600.92
836.92	2340.83
837.09	2361.31
837.26	2576.34
837.43	2492.38
837.60	2480.09
837.77	2432.99
837.94	2498.52
838.12	2660.31
838.29	2334.68
838.46	2260.96
838.63	2355.16
838.80	2648.02
838.97	2531.29
839.14	2379.74
839.31	2504.67
839.48	2619.35
839.65	2441.18
839.82	2496.47
839.99	2510.81
840.16	2465.75
840.33	2310.11
840.50	2412.51
840.67	2428.89
840.84	2160.61
841.01	2344.92
841.18	2353.12
841.35	2502.62
841.52	2566.10
841.69	2650.07
841.86	2443.23
842.03	2445.27
842.20	2592.73
842.37	2355.16
842.54	2385.88
842.71	2492.38
842.88	2295.77
843.05	2394.08
843.22	2303.96
843.39	2570.20
843.56	2359.26
843.73	2408.41
843.90	2510.81
844.07	2543.58
844.24	2584.54
844.41	2471.90
844.58	2416.60
844.75	2465.75
844.92	2596.82
845.09	2389.98
845.26	2342.88
845.43	2580.44
845.60	2494.43
845.77	2451.42
845.94	2471.90
846.10	2543.58
846.27	2277.34
846.44	2301.92
846.61	2301.92
846.78	2568.15
846.95	2539.48
847.12	2389.98
847.29	2383.84
847.46	2519.00
847.63	2600.92
847.80	2285.53
847.97	2338.78
848.14	2666.46
848.31	2490.33
848.48	2295.77
848.65	2475.99
848.82	2406.36
848.98	2748.37
849.15	2490.33
849.32	2521.05
849.49	2555.86
849.66	2531.29
849.83	2316.25
850.00	2222.05
850.17	2572.25
850.34	2465.75
850.51	2330.59
850.68	2385.88
850.85	2713.56
851.01	2527.19
851.18	2420.70
851.35	2383.84
851.52	2512.86
851.69	2723.80
851.86	2250.72
852.03	2340.83
852.20	2629.59
852.37	2412.51
852.53	2211.81
852.70	2369.50
852.87	2424.80
853.04	2619.35
853.21	2373.60
853.38	2482.14
853.55	2613.21
853.72	2584.54
853.89	2293.72
854.05	2303.96
854.22	2471.90
854.39	2408.41
854.56	2375.64
854.73	2490.33
854.90	2414.56
855.07	2519.00
855.23	2332.64
855.40	2303.96
855.57	2394.08
855.74	2222.05
855.91	2572.25
856.08	2277.34
856.25	2238.43
856.41	2422.75
856.58	2408.41
856.75	2412.51
856.92	2365.40
857.09	2623.45
857.26	2291.68
857.42	2367.45
857.59	2588.63
857.76	2379.74
857.93	2369.50
858.10	2420.70
858.27	2404.32
858.43	2492.38
858.60	2285.53
858.77	2293.72
858.94	2490.33
859.11	2570.20
859.27	2394.08
859.44	2373.60
859.61	2611.16
859.78	2512.86
859.95	2404.32
860.12	2428.89
860.28	2738.13
860.45	2711.51
860.62	2351.07
860.79	2441.18
860.95	2379.74
861.12	2389.98
861.29	2334.68
861.46	2318.30
861.63	2478.04
861.79	2559.96
861.96	2318.30
862.13	2387.93
862.30	2654.17
862.47	2408.41
862.63	2295.77
862.80	2494.43
862.97	2580.44
863.14	2486.23
863.30	2412.51
863.47	2299.87
863.64	2609.11
863.81	2467.80
863.97	2297.82
864.14	2455.51
864.31	2455.51
864.48	2461.66
864.65	2326.49
864.81	2467.80
864.98	2588.63
865.15	2547.67
865.32	2469.85
865.48	2467.80
865.65	2654.17
865.82	2416.60
865.98	2383.84
866.15	2453.47
866.32	2531.29
866.49	2525.15
866.65	2510.81
866.82	2301.92
866.99	2463.71
867.16	2420.70
867.32	2357.21
867.49	2342.88
867.66	2439.13
867.83	2367.45
867.99	2324.44
868.16	2369.50
868.33	2365.40
868.49	2473.95
868.66	2287.58
868.83	2555.86
868.99	2465.75
869.16	2432.99
869.33	2498.52
869.50	2467.80
869.66	2541.53
869.83	2449.37
870.00	2275.29
870.16	2426.84
870.33	2455.51
870.50	2578.39
870.66	2424.80
870.83	2455.51
871.00	2447.32
871.17	2543.58
871.33	2488.28
871.50	2363.36
871.67	2408.41
871.83	2435.03
872.00	2555.86
872.17	2369.50
872.33	2719.70
872.50	2594.78
872.67	2408.41
872.83	2377.69
873.00	2527.19
873.17	2465.75
873.33	2432.99
873.50	2408.41
873.67	2443.23
873.83	2361.31
874.00	2332.64
874.16	2473.95
874.33	2533.34
874.50	2273.25
874.66	2400.22
874.83	2482.14
875.00	2676.70
875.16	2559.96
875.33	2463.71
875.50	2316.25
875.66	2435.03
875.83	2461.66
875.99	2412.51
876.16	2365.40
876.33	2389.98
876.49	2455.51
876.66	2387.93
876.83	2396.12
876.99	2285.53
877.16	2480.09
877.32	2414.56
877.49	2346.97
877.66	2549.72
877.82	2668.50
877.99	2428.89
878.15	2523.10
878.32	2559.96
878.49	2525.15
878.65	2437.08
878.82	2607.06
878.98	2408.41
879.15	2605.02
879.32	2498.52
879.48	2449.37
879.65	2349.02
879.81	2414.56
879.98	2404.32
880.15	2389.98
880.31	2594.78
880.48	2400.22
880.64	2465.75
880.81	2445.27
880.97	2654.17
881.14	2623.45
881.31	2330.59
881.47	2621.40
881.64	2506.71
881.80	2355.16
881.97	2510.81
882.13	2531.29
882.30	2279.39
882.47	2416.60
882.63	2392.03
882.80	2340.83
882.96	2426.84
883.13	2617.30
883.29	2400.22
883.46	2461.66
883.62	2701.27
883.79	2432.99
883.95	2443.23
884.12	2342.88
884.29	2605.02
884.45	2496.47
884.62	2451.42
884.78	2322.40
884.95	2607.06
885.11	2367.45
885.28	2385.88
885.44	2480.09
885.61	2570.20
885.77	2654.17
885.94	2467.80
886.10	2443.23
886.27	2486.23
886.43	2666.46
886.60	2551.77
886.76	2342.88
886.93	2359.26
887.09	2541.53
887.26	2332.64
887.42	2400.22
887.59	2547.67
887.75	2752.47
887.92	2564.06
888.08	2533.34
888.25	2705.37
888.41	2566.10
888.58	2555.86
888.74	2349.02
888.91	2412.51
>>>>>End Processed Spectral Data<<<<<
