SpectraSuite Data File
++++++++++++++++++++++++++++++++++++
Date: Thu May 05 14:41:33 CEST 2016
User: root
Dark Spectrum Present: No
Reference Spectrum Present: No
Number of Sampled Component Spectra: 1
Spectrometers: USB4C02835
Integration Time (usec): 100000 (USB4C02835)
Spectra Averaged: 1 (USB4C02835)
Boxcar Smoothing: 0 (USB4C02835)
Correct for Electrical Dark: No (USB4C02835)
Strobe/Lamp Enabled: No (USB4C02835)
Correct for Detector Non-linearity: No (USB4C02835)
Correct for Stray Light: No (USB4C02835)
Number of Pixels in Processed Spectrum: 3648
>>>>>Begin Processed Spectral Data<<<<<
177.47	1884.13
177.69	1884.13
177.91	1884.13
178.13	1941.47
178.36	1937.38
178.58	2291.68
178.80	2453.47
179.02	2312.16
179.24	2334.68
179.46	2316.25
179.68	2301.92
179.90	2494.43
180.13	2463.71
180.35	2185.18
180.57	2359.26
180.79	2539.48
181.01	2498.52
181.23	2351.07
181.45	2424.80
181.67	2574.30
181.90	2566.10
182.12	2334.68
182.34	2187.23
182.56	2570.20
182.78	2562.01
183.00	2357.21
183.22	2404.32
183.44	2289.63
183.66	2748.37
183.89	2461.66
184.11	2318.30
184.33	2637.78
184.55	2695.13
184.77	2359.26
184.99	2369.50
185.21	2453.47
185.43	2717.65
185.65	2342.88
185.87	2275.29
186.10	2711.51
186.32	2734.04
186.54	2443.23
186.76	2396.12
186.98	2572.25
187.20	2387.93
187.42	2316.25
187.64	2342.88
187.86	2539.48
188.08	2678.74
188.30	2349.02
188.52	2379.74
188.75	2654.17
188.97	2627.54
189.19	2291.68
189.41	2287.58
189.63	2562.01
189.85	2426.84
190.07	2277.34
190.29	2205.66
190.51	2500.57
190.73	2328.54
190.95	2486.23
191.17	2394.08
191.39	2283.49
191.61	2404.32
191.84	2318.30
192.06	2445.27
192.28	2314.20
192.50	2875.35
192.72	2394.08
192.94	2383.84
193.16	2596.82
193.38	2545.63
193.60	2359.26
193.82	2396.12
194.04	2629.59
194.26	2533.34
194.48	2324.44
194.70	2291.68
194.92	2412.51
195.14	2592.73
195.36	2306.01
195.58	2400.22
195.80	2447.32
196.02	2369.50
196.24	2303.96
196.46	2445.27
196.69	2355.16
196.91	2807.77
197.13	2279.39
197.35	2392.03
197.57	2648.02
197.79	2529.24
198.01	2424.80
198.23	2430.94
198.45	2541.53
198.67	2314.20
198.89	2306.01
199.11	2449.37
199.33	2351.07
199.55	2176.99
199.77	2291.68
199.99	2449.37
200.21	2435.03
200.43	2521.05
200.65	2193.37
200.87	2273.25
201.09	2449.37
201.31	2398.17
201.53	2375.64
201.75	2363.36
201.97	2545.63
202.19	2449.37
202.41	2404.32
202.63	2506.71
202.85	2506.71
203.07	2506.71
203.29	2340.83
203.51	2234.33
203.73	2349.02
203.95	2791.38
204.17	2342.88
204.39	2402.27
204.61	2475.99
204.83	2424.80
205.05	2455.51
205.27	2342.88
205.49	2899.92
205.71	2568.15
205.93	2234.33
206.15	2250.72
206.37	2475.99
206.59	2408.41
206.81	2162.66
207.03	2260.96
207.25	2342.88
207.47	2572.25
207.69	2383.84
207.91	2492.38
208.13	2736.09
208.34	2408.41
208.56	2279.39
208.78	2412.51
209.00	2392.03
209.22	2428.89
209.44	2336.73
209.66	2310.11
209.88	2478.04
210.10	2467.80
210.32	2293.72
210.54	2453.47
210.76	2375.64
210.98	2621.40
211.20	2207.71
211.42	2461.66
211.64	2629.59
211.86	2475.99
212.08	2383.84
212.30	2402.27
212.52	2432.99
212.74	2519.00
212.96	2445.27
213.17	2449.37
213.39	2545.63
213.61	2592.73
213.83	2385.88
214.05	2396.12
214.27	2621.40
214.49	2349.02
214.71	2269.15
214.93	2392.03
215.15	2482.14
215.37	2574.30
215.59	2201.57
215.81	2389.98
216.03	2703.32
216.24	2523.10
216.46	2371.55
216.68	2375.64
216.90	2574.30
217.12	2564.06
217.34	2367.45
217.56	2494.43
217.78	2666.46
218.00	2529.24
218.22	2416.60
218.44	2504.67
218.66	2443.23
218.87	2701.27
219.09	2318.30
219.31	2297.82
219.53	2469.85
219.75	2455.51
219.97	2346.97
220.19	2387.93
220.41	2500.57
220.63	2611.16
220.85	2389.98
221.06	2408.41
221.28	2635.74
221.50	2588.63
221.72	2373.60
221.94	2258.91
222.16	2494.43
222.38	2617.30
222.60	2324.44
222.82	2353.12
223.03	2584.54
223.25	2303.96
223.47	2394.08
223.69	2531.29
223.91	2574.30
224.13	2502.62
224.35	2299.87
224.57	2478.04
224.78	2588.63
225.00	2473.95
225.22	2394.08
225.44	2322.40
225.66	2592.73
225.88	2420.70
226.10	2449.37
226.32	2342.88
226.53	2688.98
226.75	2451.42
226.97	2400.22
227.19	2369.50
227.41	2439.13
227.63	2396.12
227.85	2265.05
228.06	2344.92
228.28	2535.39
228.50	2631.64
228.72	2291.68
228.94	2256.86
229.16	2349.02
229.37	2322.40
229.59	2332.64
229.81	2625.50
230.03	2404.32
230.25	2326.49
230.47	2265.05
230.69	2281.44
230.90	2600.92
231.12	2498.52
231.34	2422.75
231.56	2432.99
231.78	2412.51
232.00	2426.84
232.21	2318.30
232.43	2375.64
232.65	2336.73
232.87	2572.25
233.09	2322.40
233.30	2242.53
233.52	2596.82
233.74	2488.28
233.96	2349.02
234.18	2379.74
234.40	2506.71
234.61	2826.20
234.83	2203.61
235.05	2250.72
235.27	2793.43
235.49	2559.96
235.70	2314.20
235.92	2449.37
236.14	2531.29
236.36	2699.22
236.58	2301.92
236.79	2424.80
237.01	2469.85
237.23	2480.09
237.45	2500.57
237.67	2359.26
237.88	2514.91
238.10	2717.65
238.32	2285.53
238.54	2375.64
238.76	2521.05
238.97	2404.32
239.19	2351.07
239.41	2396.12
239.63	2555.86
239.85	2430.94
240.06	2408.41
240.28	2373.60
240.50	2572.25
240.72	2537.43
240.93	2273.25
241.15	2430.94
241.37	2533.34
241.59	2639.83
241.81	2287.58
242.02	2375.64
242.24	2529.24
242.46	2602.97
242.68	2254.81
242.89	2338.78
243.11	2592.73
243.33	2371.55
243.55	2437.08
243.76	2402.27
243.98	2467.80
244.20	2469.85
244.42	2488.28
244.64	2367.45
244.85	2410.46
245.07	2332.64
245.29	2355.16
245.51	2342.88
245.72	2539.48
245.94	2625.50
246.16	2441.18
246.38	2326.49
246.59	2439.13
246.81	2334.68
247.03	2312.16
247.24	2244.57
247.46	2430.94
247.68	2443.23
247.90	2326.49
248.11	2375.64
248.33	2584.54
248.55	2465.75
248.77	2389.98
248.98	2414.56
249.20	2731.99
249.42	2453.47
249.64	2422.75
249.85	2301.92
250.07	2408.41
250.29	2519.00
250.50	2441.18
250.72	2293.72
250.94	2596.82
251.16	2715.61
251.37	2400.22
251.59	2467.80
251.81	2541.53
252.02	2637.78
252.24	2265.05
252.46	2463.71
252.68	2342.88
252.89	2383.84
253.11	2222.05
253.33	2473.95
253.54	2662.36
253.76	2351.07
253.98	2342.88
254.20	2369.50
254.41	2342.88
254.63	2404.32
254.85	2246.62
255.06	2344.92
255.28	2537.43
255.50	2410.46
255.71	2367.45
255.93	2226.14
256.15	2480.09
256.36	2564.06
256.58	2322.40
256.80	2336.73
257.02	2543.58
257.23	2412.51
257.45	2349.02
257.67	2412.51
257.88	2506.71
258.10	2564.06
258.32	2340.83
258.53	2394.08
258.75	2711.51
258.97	2346.97
259.18	2381.79
259.40	2277.34
259.62	2658.26
259.83	2572.25
260.05	2332.64
260.27	2994.13
260.48	2564.06
260.70	2371.55
260.92	2318.30
261.13	2355.16
261.35	2496.47
261.57	2551.77
261.78	2318.30
262.00	2269.15
262.22	2574.30
262.43	2308.06
262.65	2367.45
262.86	2346.97
263.08	2781.14
263.30	2533.34
263.51	2205.66
263.73	2301.92
263.95	2686.94
264.16	2322.40
264.38	2289.63
264.60	2375.64
264.81	2400.22
265.03	2568.15
265.25	2621.40
265.46	2365.40
265.68	2637.78
265.89	2531.29
266.11	2258.91
266.33	2299.87
266.54	2609.11
266.76	2537.43
266.98	2412.51
267.19	2471.90
267.41	2617.30
267.62	2441.18
267.84	2246.62
268.06	2451.42
268.27	2490.33
268.49	2623.45
268.70	2367.45
268.92	2381.79
269.14	2375.64
269.35	2375.64
269.57	2428.89
269.79	2422.75
270.00	2418.65
270.22	2695.13
270.43	2299.87
270.65	2162.66
270.87	2572.25
271.08	2592.73
271.30	2404.32
271.51	2336.73
271.73	2605.02
271.95	2670.55
272.16	2392.03
272.38	2449.37
272.59	2422.75
272.81	2523.10
273.02	2316.25
273.24	2420.70
273.46	2533.34
273.67	2330.59
273.89	2269.15
274.10	2338.78
274.32	2623.45
274.54	2519.00
274.75	2381.79
274.97	2342.88
275.18	2600.92
275.40	2551.77
275.61	2373.60
275.83	2457.56
276.05	2371.55
276.26	2461.66
276.48	2428.89
276.69	2359.26
276.91	2412.51
277.12	2631.64
277.34	2457.56
277.55	2572.25
277.77	2478.04
277.99	2453.47
278.20	2342.88
278.42	2240.48
278.63	2359.26
278.85	2371.55
279.06	2301.92
279.28	2432.99
279.49	2615.26
279.71	2600.92
279.93	2414.56
280.14	2457.56
280.36	2357.21
280.57	2596.82
280.79	2480.09
281.00	2373.60
281.22	2371.55
281.43	2686.94
281.65	2146.27
281.86	2367.45
282.08	2490.33
282.29	2772.95
282.51	2326.49
282.73	2357.21
282.94	2287.58
283.16	2568.15
283.37	2539.48
283.59	2381.79
283.80	2555.86
284.02	2369.50
284.23	2535.39
284.45	2379.74
284.66	2396.12
284.88	2381.79
285.09	2459.61
285.31	2549.72
285.52	2600.92
285.74	2314.20
285.95	2572.25
286.17	2428.89
286.38	2621.40
286.60	2449.37
286.81	2389.98
287.03	2351.07
287.24	2490.33
287.46	2508.76
287.67	2525.15
287.89	2611.16
288.10	2432.99
288.32	2385.88
288.53	2572.25
288.75	2498.52
288.96	2588.63
289.18	2367.45
289.39	2424.80
289.61	2572.25
289.82	2752.47
290.04	2744.28
290.25	2349.02
290.47	2357.21
290.68	2426.84
290.90	2596.82
291.11	2334.68
291.33	2506.71
291.54	2330.59
291.76	2398.17
291.97	2512.86
292.18	2519.00
292.40	2400.22
292.61	2369.50
292.83	2635.74
293.04	2537.43
293.26	2504.67
293.47	2502.62
293.69	2301.92
293.90	2430.94
294.12	2629.59
294.33	2506.71
294.55	2461.66
294.76	2529.24
294.97	2645.98
295.19	2684.89
295.40	2324.44
295.62	2490.33
295.83	2512.86
296.05	2471.90
296.26	2602.97
296.48	2394.08
296.69	2478.04
296.90	2490.33
297.12	2523.10
297.33	2545.63
297.55	2443.23
297.76	2512.86
297.98	2506.71
298.19	2473.95
298.41	2430.94
298.62	2400.22
298.83	2605.02
299.05	2404.32
299.26	2424.80
299.48	2400.22
299.69	2508.76
299.90	2422.75
300.12	2383.84
300.33	2578.39
300.55	2514.91
300.76	2482.14
300.98	2340.83
301.19	2572.25
301.40	2367.45
301.62	2432.99
301.83	2555.86
302.05	2463.71
302.26	2473.95
302.47	2488.28
302.69	2283.49
302.90	2475.99
303.12	2250.72
303.33	2543.58
303.54	2785.24
303.76	2340.83
303.97	2416.60
304.19	2654.17
304.40	2342.88
304.61	2541.53
304.83	2570.20
305.04	2580.44
305.26	2564.06
305.47	2437.08
305.68	2389.98
305.90	2357.21
306.11	2617.30
306.33	2492.38
306.54	2389.98
306.75	2306.01
306.97	2213.85
307.18	2383.84
307.39	2389.98
307.61	2525.15
307.82	2488.28
308.04	2596.82
308.25	2357.21
308.46	2432.99
308.68	2461.66
308.89	2457.56
309.10	2535.39
309.32	2545.63
309.53	2529.24
309.74	2557.91
309.96	2387.93
310.17	2555.86
310.39	2408.41
310.60	2566.10
310.81	2449.37
311.03	2271.20
311.24	2498.52
311.45	2498.52
311.67	2594.78
311.88	2437.08
312.09	2404.32
312.31	2383.84
312.52	2414.56
312.73	2357.21
312.95	2281.44
313.16	2375.64
313.37	2539.48
313.59	2543.58
313.80	2586.58
314.01	2639.83
314.23	2324.44
314.44	2346.97
314.65	2326.49
314.87	2432.99
315.08	2422.75
315.29	2424.80
315.51	2406.36
315.72	2326.49
315.93	2574.30
316.15	2570.20
316.36	2461.66
316.57	2463.71
316.79	2506.71
317.00	2355.16
317.21	2514.91
317.43	2369.50
317.64	2502.62
317.85	2351.07
318.07	2412.51
318.28	2435.03
318.49	2557.91
318.70	2650.07
318.92	2637.78
319.13	2662.36
319.34	2652.12
319.56	2471.90
319.77	2631.64
319.98	2641.88
320.20	2562.01
320.41	2639.83
320.62	2562.01
320.83	2375.64
321.05	2584.54
321.26	2467.80
321.47	2471.90
321.69	2637.78
321.90	2318.30
322.11	2473.95
322.32	2441.18
322.54	2660.31
322.75	2392.03
322.96	2822.10
323.18	2287.58
323.39	2271.20
323.60	2316.25
323.81	2580.44
324.03	2465.75
324.24	2439.13
324.45	2469.85
324.66	2445.27
324.88	2572.25
325.09	2584.54
325.30	2465.75
325.52	2449.37
325.73	2570.20
325.94	2293.72
326.15	2279.39
326.37	2306.01
326.58	2625.50
326.79	2660.31
327.00	2355.16
327.22	2457.56
327.43	2406.36
327.64	2330.59
327.85	2541.53
328.07	2422.75
328.28	2670.55
328.49	2351.07
328.70	2428.89
328.92	2340.83
329.13	2451.42
329.34	2551.77
329.55	2594.78
329.76	2541.53
329.98	2447.32
330.19	2688.98
330.40	2486.23
330.61	2473.95
330.83	2539.48
331.04	2340.83
331.25	2377.69
331.46	2326.49
331.68	2373.60
331.89	2650.07
332.10	2420.70
332.31	2342.88
332.52	2490.33
332.74	2562.01
332.95	2263.01
333.16	2375.64
333.37	2562.01
333.58	2416.60
333.80	2432.99
334.01	2310.11
334.22	2416.60
334.43	2408.41
334.64	2414.56
334.86	2330.59
335.07	2328.54
335.28	2686.94
335.49	2244.57
335.70	2457.56
335.92	2609.11
336.13	2772.95
336.34	2490.33
336.55	2519.00
336.76	2602.97
336.98	2252.77
337.19	2392.03
337.40	2529.24
337.61	2756.57
337.82	2484.19
338.04	2461.66
338.25	2244.57
338.46	2473.95
338.67	2478.04
338.88	2379.74
339.09	2269.15
339.31	2455.51
339.52	2316.25
339.73	2334.68
339.94	2400.22
340.15	2590.68
340.36	2445.27
340.58	2430.94
340.79	2383.84
341.00	2547.67
341.21	2322.40
341.42	2568.15
341.63	2439.13
341.85	2641.88
342.06	2500.57
342.27	2351.07
342.48	2541.53
342.69	2324.44
342.90	2525.15
343.12	2564.06
343.33	2396.12
343.54	2498.52
343.75	2723.80
343.96	2461.66
344.17	2308.06
344.38	2521.05
344.60	2402.27
344.81	2324.44
345.02	2430.94
345.23	2613.21
345.44	2826.20
345.65	2451.42
345.86	2506.71
346.07	2512.86
346.29	2514.91
346.50	2504.67
346.71	2514.91
346.92	2611.16
347.13	2731.99
347.34	2426.84
347.55	2377.69
347.76	2506.71
347.98	2310.11
348.19	2420.70
348.40	2580.44
348.61	2443.23
348.82	2596.82
349.03	2545.63
349.24	2369.50
349.45	2805.72
349.66	2293.72
349.88	2420.70
350.09	2322.40
350.30	2576.34
350.51	2613.21
350.72	2447.32
350.93	2437.08
351.14	2449.37
351.35	2562.01
351.56	2523.10
351.77	2447.32
351.99	2545.63
352.20	2670.55
352.41	2531.29
352.62	2199.52
352.83	2461.66
353.04	2506.71
353.25	2349.02
353.46	2537.43
353.67	2510.81
353.88	2205.66
354.09	2435.03
354.30	2410.46
354.52	2641.88
354.73	2447.32
354.94	2351.07
355.15	2443.23
355.36	2668.50
355.57	2441.18
355.78	2449.37
355.99	2318.30
356.20	2463.71
356.41	2701.27
356.62	2482.14
356.83	2420.70
357.04	2611.16
357.25	2269.15
357.46	2381.79
357.68	2351.07
357.89	2383.84
358.10	2473.95
358.31	2379.74
358.52	2377.69
358.73	2275.29
358.94	2377.69
359.15	2363.36
359.36	2463.71
359.57	2426.84
359.78	2478.04
359.99	2510.81
360.20	2265.05
360.41	2406.36
360.62	2605.02
360.83	2535.39
361.04	2463.71
361.25	2582.49
361.46	2678.74
361.67	2523.10
361.88	2533.34
362.09	2596.82
362.30	2549.72
362.51	2402.27
362.72	2473.95
362.93	2572.25
363.14	2557.91
363.35	2473.95
363.56	2377.69
363.78	2695.13
363.99	2584.54
364.20	2398.17
364.41	2469.85
364.62	2686.94
364.83	2463.71
365.04	2396.12
365.25	2447.32
365.46	2658.26
365.67	2385.88
365.88	2398.17
366.09	2338.78
366.30	2422.75
366.51	2447.32
366.72	2367.45
366.93	2379.74
367.14	2500.57
367.35	2592.73
367.56	2394.08
367.77	2572.25
367.98	2467.80
368.18	2504.67
368.39	2531.29
368.60	2404.32
368.81	2586.58
369.02	2478.04
369.23	2494.43
369.44	2289.63
369.65	2404.32
369.86	2492.38
370.07	2473.95
370.28	2355.16
370.49	2572.25
370.70	2562.01
370.91	2396.12
371.12	2269.15
371.33	2576.34
371.54	2459.61
371.75	2564.06
371.96	2199.52
372.17	2506.71
372.38	2498.52
372.59	2523.10
372.80	2336.73
373.01	2428.89
373.22	2543.58
373.43	2527.19
373.64	2332.64
373.85	2680.79
374.06	2756.57
374.26	2578.39
374.47	2457.56
374.68	2570.20
374.89	2559.96
375.10	2332.64
375.31	2521.05
375.52	2426.84
375.73	2473.95
375.94	2267.10
376.15	2566.10
376.36	2432.99
376.57	2432.99
376.78	2490.33
376.99	2492.38
377.20	2627.54
377.40	2469.85
377.61	2594.78
377.82	2363.36
378.03	2742.23
378.24	2519.00
378.45	2451.42
378.66	2494.43
378.87	2291.68
379.08	2334.68
379.29	2473.95
379.50	2525.15
379.71	2461.66
379.91	2496.47
380.12	2465.75
380.33	2467.80
380.54	2461.66
380.75	2410.46
380.96	2445.27
381.17	2514.91
381.38	2514.91
381.59	2469.85
381.80	2502.62
382.00	2578.39
382.21	2426.84
382.42	2666.46
382.63	2709.46
382.84	2496.47
383.05	2600.92
383.26	2678.74
383.47	2504.67
383.68	2447.32
383.88	2617.30
384.09	2492.38
384.30	2605.02
384.51	2496.47
384.72	2502.62
384.93	2326.49
385.14	2469.85
385.35	2531.29
385.55	2351.07
385.76	2586.58
385.97	2406.36
386.18	2291.68
386.39	2385.88
386.60	2408.41
386.81	2392.03
387.02	2346.97
387.22	2406.36
387.43	2600.92
387.64	2588.63
387.85	2623.45
388.06	2754.52
388.27	4050.88
388.48	8300.42
388.68	12115.78
388.89	14612.26
389.10	15650.58
389.31	14825.25
389.52	11593.55
389.73	9994.09
389.93	9062.26
390.14	8458.11
390.35	7475.09
390.56	6627.23
390.77	5494.70
390.98	4120.51
391.18	3405.77
391.39	2975.70
391.60	2502.62
391.81	2678.74
392.02	2420.70
392.23	2750.42
392.43	2566.10
392.64	2564.06
392.85	2451.42
393.06	2731.99
393.27	2539.48
393.47	2389.98
393.68	2441.18
393.89	2453.47
394.10	2613.21
394.31	2398.17
394.52	2338.78
394.72	2463.71
394.93	2586.58
395.14	2367.45
395.35	2478.04
395.56	2342.88
395.76	2529.24
395.97	2453.47
396.18	2568.15
396.39	2590.68
396.60	2926.55
396.80	2693.08
397.01	2521.05
397.22	2684.89
397.43	2686.94
397.64	2406.36
397.84	2500.57
398.05	2846.68
398.26	2504.67
398.47	2541.53
398.67	2566.10
398.88	2502.62
399.09	2576.34
399.30	2412.51
399.51	2543.58
399.71	2416.60
399.92	2412.51
400.13	2492.38
400.34	2430.94
400.54	2506.71
400.75	2693.08
400.96	2402.27
401.17	2652.12
401.37	2553.82
401.58	2455.51
401.79	2465.75
402.00	2508.76
402.21	2953.17
402.41	2795.48
402.62	2863.06
402.83	2897.88
403.04	2971.60
403.24	3053.52
403.45	2619.35
403.66	2760.66
403.87	2705.37
404.07	2777.05
404.28	2709.46
404.49	2695.13
404.70	2629.59
404.90	2562.01
405.11	2416.60
405.32	2547.67
405.52	2410.46
405.73	2449.37
405.94	2373.60
406.15	2424.80
406.35	2543.58
406.56	2525.15
406.77	2527.19
406.98	2525.15
407.18	2461.66
407.39	2637.78
407.60	2451.42
407.80	2605.02
408.01	2359.26
408.22	2492.38
408.43	2416.60
408.63	2488.28
408.84	2645.98
409.05	2574.30
409.25	2420.70
409.46	2351.07
409.67	2471.90
409.88	2461.66
410.08	2605.02
410.29	2371.55
410.50	2633.69
410.70	2549.72
410.91	2416.60
411.12	2471.90
411.32	2432.99
411.53	2428.89
411.74	2502.62
411.95	2580.44
412.15	2502.62
412.36	2590.68
412.57	2547.67
412.77	2639.83
412.98	2545.63
413.19	2455.51
413.39	2455.51
413.60	2418.65
413.81	2629.59
414.01	2275.29
414.22	2488.28
414.43	2510.81
414.63	2408.41
414.84	2596.82
415.05	2439.13
415.25	2326.49
415.46	2547.67
415.67	2406.36
415.87	2490.33
416.08	2449.37
416.29	2342.88
416.49	2602.97
416.70	2377.69
416.91	2445.27
417.11	2559.96
417.32	2605.02
417.53	2607.06
417.73	2535.39
417.94	2496.47
418.15	2488.28
418.35	2478.04
418.56	2455.51
418.77	2764.76
418.97	2490.33
419.18	2523.10
419.38	2244.57
419.59	2473.95
419.80	2682.84
420.00	2449.37
420.21	2424.80
420.42	2613.21
420.62	2498.52
420.83	2473.95
421.04	2437.08
421.24	2447.32
421.45	2623.45
421.65	2480.09
421.86	2428.89
422.07	2537.43
422.27	2543.58
422.48	2416.60
422.69	2383.84
422.89	2551.77
423.10	2473.95
423.30	2342.88
423.51	2494.43
423.72	2463.71
423.92	2633.69
424.13	2299.87
424.33	2441.18
424.54	2619.35
424.75	2471.90
424.95	2619.35
425.16	2514.91
425.36	2475.99
425.57	2621.40
425.78	2562.01
425.98	2559.96
426.19	2430.94
426.39	2326.49
426.60	2535.39
426.81	2568.15
427.01	2557.91
427.22	2447.32
427.42	2265.05
427.63	2342.88
427.83	2627.54
428.04	2742.23
428.25	2584.54
428.45	2598.87
428.66	2580.44
428.86	2437.08
429.07	2424.80
429.28	2486.23
429.48	2447.32
429.69	2351.07
429.89	2463.71
430.10	2326.49
430.30	2621.40
430.51	2543.58
430.71	2363.36
430.92	2416.60
431.13	2359.26
431.33	2555.86
431.54	2494.43
431.74	2596.82
431.95	2652.12
432.15	2373.60
432.36	2514.91
432.56	2435.03
432.77	2766.81
432.98	2731.99
433.18	2490.33
433.39	2402.27
433.59	2412.51
433.80	2719.70
434.00	2715.61
434.21	2389.98
434.41	2469.85
434.62	2777.05
434.82	2353.12
435.03	2340.83
435.23	2496.47
435.44	2334.68
435.64	2412.51
435.85	2504.67
436.06	2523.10
436.26	2678.74
436.47	2439.13
436.67	2371.55
436.88	2441.18
437.08	2754.52
437.29	2684.89
437.49	2510.81
437.70	2637.78
437.90	2473.95
438.11	2654.17
438.31	2537.43
438.52	2664.41
438.72	2717.65
438.93	2768.85
439.13	2531.29
439.34	2766.81
439.54	2502.62
439.75	2605.02
439.95	2570.20
440.16	2412.51
440.36	2516.95
440.57	2428.89
440.77	2494.43
440.98	2531.29
441.18	2582.49
441.39	2375.64
441.59	2375.64
441.80	2756.57
442.00	2463.71
442.21	2557.91
442.41	2336.73
442.62	2602.97
442.82	2381.79
443.02	2381.79
443.23	2461.66
443.43	2437.08
443.64	2662.36
443.84	2351.07
444.05	2584.54
444.25	2539.48
444.46	2416.60
444.66	2465.75
444.87	2621.40
445.07	2346.97
445.28	2449.37
445.48	2607.06
445.69	2525.15
445.89	2883.54
446.09	2447.32
446.30	2772.95
446.50	2981.84
446.71	4595.64
446.91	5808.04
447.12	6627.23
447.32	7116.69
447.53	6590.36
447.73	5533.61
447.93	4714.42
448.14	4454.33
448.34	4489.15
448.55	3844.04
448.75	3717.06
448.96	3608.52
449.16	3293.13
449.36	3147.73
449.57	2727.89
449.77	2568.15
449.98	2478.04
450.18	2564.06
450.39	2490.33
450.59	2537.43
450.79	2486.23
451.00	2371.55
451.20	2555.86
451.41	2488.28
451.61	2502.62
451.81	2471.90
452.02	2428.89
452.22	2504.67
452.43	2498.52
452.63	2353.12
452.84	2447.32
453.04	2369.50
453.24	2533.34
453.45	2445.27
453.65	2473.95
453.86	2424.80
454.06	2521.05
454.26	2519.00
454.47	2320.35
454.67	2588.63
454.87	2596.82
455.08	2555.86
455.28	2617.30
455.49	2539.48
455.69	2430.94
455.89	2836.44
456.10	2611.16
456.30	2453.47
456.51	2527.19
456.71	2531.29
456.91	2445.27
457.12	2490.33
457.32	2582.49
457.52	2471.90
457.73	2570.20
457.93	2625.50
458.14	2482.14
458.34	2289.63
458.54	2502.62
458.75	2432.99
458.95	2600.92
459.15	2510.81
459.36	2562.01
459.56	2514.91
459.76	2813.91
459.97	2578.39
460.17	2422.75
460.37	2545.63
460.58	2471.90
460.78	2580.44
460.99	2367.45
461.19	2506.71
461.39	2404.32
461.60	2455.51
461.80	2435.03
462.00	2357.21
462.21	2504.67
462.41	2342.88
462.61	2351.07
462.82	2346.97
463.02	2672.60
463.22	2531.29
463.43	2586.58
463.63	2508.76
463.83	2586.58
464.04	2572.25
464.24	2322.40
464.44	2342.88
464.64	2562.01
464.85	2660.31
465.05	2545.63
465.25	2424.80
465.46	2486.23
465.66	2539.48
465.86	2490.33
466.07	2512.86
466.27	2488.28
466.47	2281.44
466.68	2338.78
466.88	2602.97
467.08	2502.62
467.29	2557.91
467.49	2432.99
467.69	2471.90
467.89	2588.63
468.10	2478.04
468.30	2519.00
468.50	2545.63
468.71	2562.01
468.91	2375.64
469.11	2693.08
469.31	2437.08
469.52	2342.88
469.72	2645.98
469.92	2678.74
470.13	2484.19
470.33	2463.71
470.53	2467.80
470.73	2869.20
470.94	3246.03
471.14	3452.88
471.34	3768.26
471.54	3735.50
471.75	3332.05
471.95	3153.87
472.15	3016.66
472.36	3127.25
472.56	3006.42
472.76	2949.08
472.96	2838.48
473.17	2760.66
473.37	2738.13
473.57	2469.85
473.77	2643.93
473.98	2469.85
474.18	2359.26
474.38	2785.24
474.58	2441.18
474.79	2389.98
474.99	2480.09
475.19	2568.15
475.39	2441.18
475.60	2482.14
475.80	2447.32
476.00	2496.47
476.20	2432.99
476.41	2443.23
476.61	2600.92
476.81	2652.12
477.01	2428.89
477.21	2559.96
477.42	2543.58
477.62	2435.03
477.82	2621.40
478.02	2441.18
478.23	2432.99
478.43	2392.03
478.63	2342.88
478.83	2494.43
479.03	2420.70
479.24	2650.07
479.44	2740.18
479.64	2371.55
479.84	2207.71
480.04	2367.45
480.25	2568.15
480.45	2396.12
480.65	2463.71
480.85	2648.02
481.06	2412.51
481.26	2508.76
481.46	2506.71
481.66	2516.95
481.86	2424.80
482.06	2590.68
482.27	2422.75
482.47	2504.67
482.67	2562.01
482.87	2480.09
483.07	2553.82
483.28	2439.13
483.48	2328.54
483.68	2555.86
483.88	2344.92
484.08	2236.38
484.29	2346.97
484.49	2478.04
484.69	2351.07
484.89	2627.54
485.09	2584.54
485.29	2529.24
485.50	2471.90
485.70	2508.76
485.90	2658.26
486.10	2457.56
486.30	2461.66
486.50	2715.61
486.71	2492.38
486.91	2523.10
487.11	2529.24
487.31	2322.40
487.51	2512.86
487.71	2383.84
487.91	2293.72
488.12	2381.79
488.32	2158.56
488.52	2443.23
488.72	2263.01
488.92	2447.32
489.12	2625.50
489.32	2555.86
489.53	2504.67
489.73	2371.55
489.93	2701.27
490.13	2457.56
490.33	2236.38
490.53	2519.00
490.73	2650.07
490.94	2310.11
491.14	2570.20
491.34	2695.13
491.54	2664.41
491.74	3471.31
491.94	4001.73
492.14	4319.17
492.34	4466.62
492.54	4061.12
492.75	3493.83
492.95	3438.54
493.15	3246.03
493.35	3180.50
493.55	3035.09
493.75	2957.27
493.95	2947.03
494.15	2772.95
494.35	2590.68
494.56	2535.39
494.76	2392.03
494.96	2533.34
495.16	2465.75
495.36	2465.75
495.56	2443.23
495.76	2500.57
495.96	2467.80
496.16	2392.03
496.36	2789.33
496.56	2488.28
496.77	2510.81
496.97	2383.84
497.17	2662.36
497.37	2252.77
497.57	2533.34
497.77	2527.19
497.97	2449.37
498.17	2437.08
498.37	2322.40
498.57	2551.77
498.77	2414.56
498.97	2598.87
499.17	2676.70
499.38	2512.86
499.58	2547.67
499.78	2609.11
499.98	2643.93
500.18	2553.82
500.38	2435.03
500.58	2572.25
500.78	3145.68
500.98	5398.45
501.18	7559.05
501.38	9226.10
501.58	10352.48
501.78	10069.86
501.98	8038.28
502.18	6723.48
502.38	5726.12
502.58	5466.03
502.78	4882.36
502.98	4644.79
503.18	4415.42
503.38	4136.90
503.59	3469.26
503.79	3284.94
503.99	3157.97
504.19	3100.62
504.39	3069.91
504.59	3078.10
504.79	3108.82
504.99	3174.35
505.19	2879.44
505.39	2652.12
505.59	2856.92
505.79	2815.96
505.99	2691.03
506.19	2547.67
506.39	2688.98
506.59	2439.13
506.79	2490.33
506.99	2537.43
507.19	2496.47
507.39	2621.40
507.59	2381.79
507.79	2338.78
507.99	2422.75
508.19	2441.18
508.39	2437.08
508.59	2451.42
508.79	2641.88
508.99	2826.20
509.19	2363.36
509.39	2529.24
509.59	2394.08
509.79	2439.13
509.99	2471.90
510.19	2611.16
510.39	2555.86
510.59	2488.28
510.79	2478.04
510.99	2326.49
511.19	2498.52
511.39	2686.94
511.59	2637.78
511.79	2600.92
511.99	2494.43
512.19	2695.13
512.38	2580.44
512.58	2404.32
512.78	2500.57
512.98	2590.68
513.18	2676.70
513.38	2389.98
513.58	2449.37
513.78	2430.94
513.98	2500.57
514.18	2453.47
514.38	2338.78
514.58	2547.67
514.78	2430.94
514.98	2416.60
515.18	2396.12
515.38	2330.59
515.58	2711.51
515.78	2498.52
515.98	2428.89
516.18	2645.98
516.38	2500.57
516.57	2498.52
516.77	2414.56
516.97	2529.24
517.17	2385.88
517.37	2316.25
517.57	2521.05
517.77	2494.43
517.97	2383.84
518.17	2551.77
518.37	2277.34
518.57	2410.46
518.77	2414.56
518.97	2375.64
519.16	2519.00
519.36	2693.08
519.56	2465.75
519.76	2445.27
519.96	2441.18
520.16	2674.65
520.36	2359.26
520.56	2584.54
520.76	2408.41
520.96	2351.07
521.16	2629.59
521.35	2602.97
521.55	2580.44
521.75	2471.90
521.95	2392.03
522.15	2389.98
522.35	2301.92
522.55	2375.64
522.75	2695.13
522.95	2539.48
523.14	2338.78
523.34	2537.43
523.54	2406.36
523.74	2549.72
523.94	2451.42
524.14	2437.08
524.34	2568.15
524.54	2506.71
524.73	2432.99
524.93	2588.63
525.13	2473.95
525.33	2363.36
525.53	2703.32
525.73	2598.87
525.93	2494.43
526.13	2400.22
526.32	2457.56
526.52	2645.98
526.72	2553.82
526.92	2506.71
527.12	2461.66
527.32	2310.11
527.52	2535.39
527.71	2461.66
527.91	2435.03
528.11	2389.98
528.31	2488.28
528.51	2285.53
528.71	2564.06
528.90	2580.44
529.10	2707.41
529.30	2527.19
529.50	2176.99
529.70	2490.33
529.90	2480.09
530.09	2527.19
530.29	2385.88
530.49	2392.03
530.69	2906.07
530.89	2416.60
531.09	2539.48
531.28	2473.95
531.48	2652.12
531.68	2498.52
531.88	2504.67
532.08	2654.17
532.28	2514.91
532.47	2500.57
532.67	2504.67
532.87	2564.06
533.07	2389.98
533.27	2545.63
533.46	2555.86
533.66	2521.05
533.86	2553.82
534.06	2521.05
534.26	2471.90
534.45	2490.33
534.65	2654.17
534.85	2473.95
535.05	2402.27
535.25	2625.50
535.44	2318.30
535.64	2523.10
535.84	2414.56
536.04	2418.65
536.24	2424.80
536.43	2404.32
536.63	2510.81
536.83	2502.62
537.03	2539.48
537.22	2312.16
537.42	2289.63
537.62	2504.67
537.82	2338.78
538.02	2545.63
538.21	2592.73
538.41	2762.71
538.61	2625.50
538.81	2463.71
539.00	2547.67
539.20	2400.22
539.40	2482.14
539.60	2455.51
539.79	2576.34
539.99	2443.23
540.19	2381.79
540.39	2465.75
540.58	2527.19
540.78	2637.78
540.98	2519.00
541.18	2572.25
541.37	2482.14
541.57	2439.13
541.77	2617.30
541.97	2404.32
542.16	2375.64
542.36	2469.85
542.56	2426.84
542.76	2662.36
542.95	2531.29
543.15	2539.48
543.35	2570.20
543.54	2400.22
543.74	2396.12
543.94	2723.80
544.14	2473.95
544.33	2527.19
544.53	2428.89
544.73	2502.62
544.93	2449.37
545.12	2414.56
545.32	2504.67
545.52	2430.94
545.71	2308.06
545.91	2428.89
546.11	2432.99
546.30	2373.60
546.50	2531.29
546.70	2547.67
546.90	2471.90
547.09	2306.01
547.29	2521.05
547.49	2580.44
547.68	2457.56
547.88	2400.22
548.08	2519.00
548.27	2973.65
548.47	2338.78
548.67	2480.09
548.87	2568.15
549.06	2465.75
549.26	2422.75
549.46	2521.05
549.65	2428.89
549.85	2529.24
550.05	2465.75
550.24	2383.84
550.44	2521.05
550.64	2469.85
550.83	2453.47
551.03	2625.50
551.23	2580.44
551.42	2500.57
551.62	2572.25
551.82	2512.86
552.01	2629.59
552.21	2723.80
552.41	2547.67
552.60	2617.30
552.80	2529.24
553.00	2359.26
553.19	2516.95
553.39	2729.94
553.59	2408.41
553.78	2551.77
553.98	2469.85
554.17	2349.02
554.37	2572.25
554.57	2490.33
554.76	2379.74
554.96	2428.89
555.16	2516.95
555.35	2469.85
555.55	2512.86
555.75	2537.43
555.94	2539.48
556.14	2342.88
556.33	2525.15
556.53	2453.47
556.73	2471.90
556.92	2617.30
557.12	2621.40
557.32	2756.57
557.51	2715.61
557.71	2531.29
557.90	2670.55
558.10	2605.02
558.30	2435.03
558.49	2426.84
558.69	2482.14
558.88	2547.67
559.08	2486.23
559.28	2523.10
559.47	2432.99
559.67	2559.96
559.86	2731.99
560.06	2453.47
560.26	2523.10
560.45	2547.67
560.65	2443.23
560.84	2588.63
561.04	2437.08
561.24	2670.55
561.43	2387.93
561.63	2617.30
561.82	2516.95
562.02	2566.10
562.22	2512.86
562.41	2383.84
562.61	2406.36
562.80	2385.88
563.00	2828.24
563.19	2541.53
563.39	2537.43
563.59	2523.10
563.78	2351.07
563.98	2211.81
564.17	2412.51
564.37	2332.64
564.56	2514.91
564.76	2316.25
564.96	2645.98
565.15	2498.52
565.35	2768.85
565.54	2449.37
565.74	2490.33
565.93	2547.67
566.13	2529.24
566.32	2504.67
566.52	2555.86
566.71	2562.01
566.91	2637.78
567.11	2494.43
567.30	2389.98
567.50	2629.59
567.69	2471.90
567.89	2406.36
568.08	2396.12
568.28	2580.44
568.47	2383.84
568.67	2506.71
568.86	2404.32
569.06	2637.78
569.25	2447.32
569.45	2357.21
569.64	2443.23
569.84	2549.72
570.04	2523.10
570.23	2404.32
570.43	2455.51
570.62	2480.09
570.82	2684.89
571.01	2310.11
571.21	2381.79
571.40	2392.03
571.60	2645.98
571.79	2525.15
571.99	2516.95
572.18	2314.20
572.38	2506.71
572.57	2478.04
572.77	2516.95
572.96	2832.34
573.16	2543.58
573.35	2465.75
573.55	2557.91
573.74	2600.92
573.94	2453.47
574.13	2463.71
574.33	2609.11
574.52	2588.63
574.71	2519.00
574.91	2525.15
575.10	2285.53
575.30	2392.03
575.49	2381.79
575.69	2430.94
575.88	2490.33
576.08	2512.86
576.27	2691.03
576.47	2519.00
576.66	2682.84
576.86	2695.13
577.05	2510.81
577.25	2568.15
577.44	2654.17
577.64	2465.75
577.83	2617.30
578.02	2463.71
578.22	2588.63
578.41	2670.55
578.61	2484.19
578.80	2359.26
579.00	2449.37
579.19	2605.02
579.39	2564.06
579.58	2564.06
579.77	2445.27
579.97	2678.74
580.16	2676.70
580.36	2490.33
580.55	2553.82
580.75	2547.67
580.94	2562.01
581.13	2639.83
581.33	2652.12
581.52	2494.43
581.72	2752.47
581.91	2660.31
582.11	2473.95
582.30	2576.34
582.49	2529.24
582.69	2666.46
582.88	2547.67
583.08	2576.34
583.27	2600.92
583.47	2545.63
583.66	2471.90
583.85	2385.88
584.05	2465.75
584.24	2625.50
584.44	2592.73
584.63	2699.22
584.82	2719.70
585.02	2682.84
585.21	2668.50
585.41	2645.98
585.60	2641.88
585.79	2787.29
585.99	2703.32
586.18	2742.23
586.37	3280.85
586.57	4951.99
586.76	14909.21
586.96	34135.54
587.15	47830.31
587.34	56861.85
587.54	61510.74
587.73	55633.07
587.93	39398.82
588.12	29732.41
588.31	23895.70
588.51	20946.62
588.70	19148.51
588.89	17229.56
589.09	14776.09
589.28	12949.31
589.47	10110.82
589.67	7925.64
589.86	6039.46
590.06	4587.45
590.25	3940.29
590.44	3295.18
590.64	3008.47
590.83	2744.28
591.02	2719.70
591.22	2598.87
591.41	2531.29
591.60	2543.58
591.80	2770.90
591.99	2322.40
592.18	2535.39
592.38	2637.78
592.57	2471.90
592.76	2490.33
592.96	2531.29
593.15	2475.99
593.34	2588.63
593.54	2400.22
593.73	2531.29
593.92	2617.30
594.12	2600.92
594.31	2519.00
594.50	2676.70
594.70	2570.20
594.89	2789.33
595.08	2383.84
595.28	2527.19
595.47	2951.12
595.66	2596.82
595.86	2404.32
596.05	2467.80
596.24	2482.14
596.43	2811.86
596.63	2578.39
596.82	2545.63
597.01	2568.15
597.21	2740.18
597.40	2531.29
597.59	2500.57
597.79	2580.44
597.98	2662.36
598.17	2523.10
598.36	2572.25
598.56	2631.64
598.75	2492.38
598.94	2514.91
599.14	2492.38
599.33	2488.28
599.52	2572.25
599.71	2533.34
599.91	2621.40
600.10	2625.50
600.29	2535.39
600.48	2545.63
600.68	2572.25
600.87	2480.09
601.06	2328.54
601.26	2432.99
601.45	2514.91
601.64	2504.67
601.83	2691.03
602.03	2334.68
602.22	2359.26
602.41	2666.46
602.60	2805.72
602.80	2600.92
602.99	2600.92
603.18	2455.51
603.37	2529.24
603.57	2498.52
603.76	2543.58
603.95	2592.73
604.14	2516.95
604.34	2467.80
604.53	2480.09
604.72	2465.75
604.91	2555.86
605.10	2508.76
605.30	2314.20
605.49	2596.82
605.68	2492.38
605.87	2545.63
606.07	2357.21
606.26	2490.33
606.45	2527.19
606.64	2541.53
606.84	2445.27
607.03	2572.25
607.22	2619.35
607.41	2582.49
607.60	2441.18
607.80	2674.65
607.99	2545.63
608.18	2482.14
608.37	2473.95
608.56	2402.27
608.76	2652.12
608.95	2727.89
609.14	2471.90
609.33	2766.81
609.52	2766.81
609.72	2572.25
609.91	2650.07
610.10	2570.20
610.29	2703.32
610.48	2578.39
610.68	2578.39
610.87	2525.15
611.06	2627.54
611.25	2439.13
611.44	2545.63
611.63	2457.56
611.83	2633.69
612.02	2389.98
612.21	2605.02
612.40	2297.82
612.59	2353.12
612.79	2432.99
612.98	2506.71
613.17	2775.00
613.36	2508.76
613.55	2621.40
613.74	2559.96
613.93	2641.88
614.13	2676.70
614.32	2686.94
614.51	2666.46
614.70	2584.54
614.89	2570.20
615.08	2693.08
615.28	3026.90
615.47	2484.19
615.66	2539.48
615.85	2568.15
616.04	2629.59
616.23	2523.10
616.42	2582.49
616.62	2531.29
616.81	2537.43
617.00	2535.39
617.19	2658.26
617.38	2465.75
617.57	2473.95
617.76	2637.78
617.95	2637.78
618.15	2551.77
618.34	2676.70
618.53	2377.69
618.72	2578.39
618.91	2652.12
619.10	2600.92
619.29	2531.29
619.48	2463.71
619.68	2367.45
619.87	2445.27
620.06	2406.36
620.25	2600.92
620.44	2377.69
620.63	2392.03
620.82	2574.30
621.01	2430.94
621.20	2439.13
621.39	2471.90
621.59	2568.15
621.78	2484.19
621.97	2463.71
622.16	2559.96
622.35	2564.06
622.54	2549.72
622.73	2559.96
622.92	2256.86
623.11	2637.78
623.30	2416.60
623.49	2580.44
623.68	2389.98
623.88	2715.61
624.07	2471.90
624.26	2496.47
624.45	2484.19
624.64	2521.05
624.83	2609.11
625.02	2516.95
625.21	2439.13
625.40	2531.29
625.59	2742.23
625.78	2449.37
625.97	2658.26
626.16	2731.99
626.35	2582.49
626.54	2592.73
626.74	2652.12
626.93	2490.33
627.12	2494.43
627.31	2633.69
627.50	2508.76
627.69	2719.70
627.88	2514.91
628.07	2447.32
628.26	2336.73
628.45	2414.56
628.64	2392.03
628.83	2365.40
629.02	2342.88
629.21	2512.86
629.40	2547.67
629.59	2422.75
629.78	2398.17
629.97	2498.52
630.16	2469.85
630.35	2369.50
630.54	2500.57
630.73	2498.52
630.92	2584.54
631.11	2306.01
631.30	2492.38
631.49	2621.40
631.68	2537.43
631.87	2484.19
632.06	2389.98
632.25	2811.86
632.44	2514.91
632.63	2605.02
632.82	2449.37
633.01	2480.09
633.20	2514.91
633.39	2512.86
633.58	2406.36
633.77	2645.98
633.96	2629.59
634.15	2600.92
634.34	2582.49
634.53	2574.30
634.72	2484.19
634.91	2295.77
635.10	2519.00
635.29	2572.25
635.48	2535.39
635.67	2336.73
635.86	2353.12
636.05	2621.40
636.24	2500.57
636.43	2484.19
636.62	2514.91
636.81	2228.19
637.00	2459.61
637.19	2496.47
637.38	2514.91
637.57	2435.03
637.76	2584.54
637.95	2613.21
638.14	2537.43
638.33	2586.58
638.52	2463.71
638.71	2422.75
638.89	2408.41
639.08	2850.77
639.27	2670.55
639.46	2762.71
639.65	3180.50
639.84	3219.41
640.03	3301.33
640.22	3243.98
640.41	3143.63
640.60	2785.24
640.79	2901.97
640.98	2590.68
641.17	2740.18
641.36	2688.98
641.55	2715.61
641.74	2432.99
641.92	2449.37
642.11	2435.03
642.30	2502.62
642.49	2457.56
642.68	2455.51
642.87	2535.39
643.06	2584.54
643.25	2371.55
643.44	2414.56
643.63	2406.36
643.82	2625.50
644.00	2283.49
644.19	2478.04
644.38	2306.01
644.57	2633.69
644.76	2498.52
644.95	2428.89
645.14	2416.60
645.33	2408.41
645.52	2500.57
645.71	2314.20
645.89	2369.50
646.08	2392.03
646.27	2402.27
646.46	2625.50
646.65	2342.88
646.84	2494.43
647.03	2379.74
647.22	2494.43
647.40	2439.13
647.59	2473.95
647.78	2336.73
647.97	2367.45
648.16	2375.64
648.35	2662.36
648.54	2662.36
648.73	2449.37
648.91	2488.28
649.10	2490.33
649.29	2455.51
649.48	2404.32
649.67	2555.86
649.86	2514.91
650.05	2488.28
650.23	2688.98
650.42	2478.04
650.61	2793.43
650.80	2740.18
650.99	2760.66
651.18	2637.78
651.36	2656.22
651.55	2465.75
651.74	2566.10
651.93	2463.71
652.12	2492.38
652.31	2441.18
652.49	2496.47
652.68	2453.47
652.87	2752.47
653.06	2533.34
653.25	2826.20
653.44	2564.06
653.62	2699.22
653.81	2473.95
654.00	2490.33
654.19	2555.86
654.38	2813.91
654.56	2498.52
654.75	2414.56
654.94	2510.81
655.13	2496.47
655.32	2492.38
655.51	2607.06
655.69	2377.69
655.88	2506.71
656.07	2375.64
656.26	2451.42
656.45	2394.08
656.63	2449.37
656.82	2457.56
657.01	2598.87
657.20	2381.79
657.38	2719.70
657.57	2428.89
657.76	2291.68
657.95	2576.34
658.14	2494.43
658.32	2508.76
658.51	2412.51
658.70	2568.15
658.89	2529.24
659.08	2465.75
659.26	2738.13
659.45	2455.51
659.64	2670.55
659.83	2394.08
660.01	2904.02
660.20	2506.71
660.39	2717.65
660.58	2283.49
660.76	2504.67
660.95	2383.84
661.14	2496.47
661.33	2310.11
661.51	2455.51
661.70	2387.93
661.89	2437.08
662.08	2512.86
662.26	2271.20
662.45	2387.93
662.64	2703.32
662.83	2523.10
663.01	2336.73
663.20	2394.08
663.39	2654.17
663.58	2414.56
663.76	2408.41
663.95	2494.43
664.14	2334.68
664.32	2455.51
664.51	2359.26
664.70	2279.39
664.89	2570.20
665.07	2326.49
665.26	2633.69
665.45	2330.59
665.64	2570.20
665.82	2469.85
666.01	2568.15
666.20	2357.21
666.38	2656.22
666.57	2586.58
666.76	3878.85
666.95	9707.37
667.13	17899.25
667.32	22732.45
667.51	26541.68
667.69	27711.07
667.88	24729.22
668.07	17512.18
668.25	14221.10
668.44	11878.22
668.63	10295.14
668.81	9236.34
669.00	7880.58
669.19	7266.19
669.38	6092.71
669.56	5177.26
669.75	4300.73
669.94	3827.65
670.12	3233.74
670.31	2965.46
670.50	2785.24
670.68	2777.05
670.87	2678.74
671.06	2576.34
671.24	2529.24
671.43	2736.09
671.62	2617.30
671.80	2496.47
671.99	2557.91
672.18	2459.61
672.36	2566.10
672.55	2568.15
672.74	2496.47
672.92	2498.52
673.11	2594.78
673.29	2351.07
673.48	2555.86
673.67	2537.43
673.85	2650.07
674.04	2379.74
674.23	2514.91
674.41	2666.46
674.60	2389.98
674.79	2265.05
674.97	2381.79
675.16	2529.24
675.34	2662.36
675.53	2381.79
675.72	2533.34
675.90	2662.36
676.09	2451.42
676.28	2441.18
676.46	2285.53
676.65	2576.34
676.83	2367.45
677.02	2502.62
677.21	2482.14
677.39	2564.06
677.58	2340.83
677.77	2375.64
677.95	2453.47
678.14	2441.18
678.32	2383.84
678.51	2400.22
678.70	2695.13
678.88	2410.46
679.07	2473.95
679.25	2480.09
679.44	2506.71
679.63	2383.84
679.81	2467.80
680.00	2607.06
680.18	2553.82
680.37	2693.08
680.55	2502.62
680.74	2299.87
680.93	2252.77
681.11	2441.18
681.30	2478.04
681.48	2480.09
681.67	2475.99
681.85	2629.59
682.04	2373.60
682.23	2506.71
682.41	2432.99
682.60	2375.64
682.78	2568.15
682.97	2363.36
683.15	2445.27
683.34	2519.00
683.53	2660.31
683.71	2320.35
683.90	2621.40
684.08	2777.05
684.27	2465.75
684.45	2465.75
684.64	2572.25
684.82	2469.85
685.01	2496.47
685.19	2459.61
685.38	2645.98
685.57	2551.77
685.75	2375.64
685.94	2430.94
686.12	2328.54
686.31	2467.80
686.49	2666.46
686.68	2330.59
686.86	2514.91
687.05	2480.09
687.23	2682.84
687.42	2381.79
687.60	2230.24
687.79	2609.11
687.97	2719.70
688.16	2580.44
688.34	2590.68
688.53	2318.30
688.71	2617.30
688.90	2602.97
689.08	2430.94
689.27	2265.05
689.45	2547.67
689.64	2568.15
689.82	2590.68
690.01	2559.96
690.19	2459.61
690.38	2432.99
690.56	2566.10
690.75	2406.36
690.93	2439.13
691.12	2379.74
691.30	2465.75
691.49	2400.22
691.67	2480.09
691.86	2658.26
692.04	2336.73
692.23	2496.47
692.41	2475.99
692.60	2838.48
692.78	2641.88
692.97	2551.77
693.15	2586.58
693.34	2670.55
693.52	2600.92
693.71	2437.08
693.89	2435.03
694.08	2279.39
694.26	2562.01
694.44	2547.67
694.63	2592.73
694.81	2469.85
695.00	2308.06
695.18	2609.11
695.37	2727.89
695.55	2506.71
695.74	2392.03
695.92	2457.56
696.10	2701.27
696.29	2322.40
696.47	2432.99
696.66	2418.65
696.84	2322.40
697.03	2508.76
697.21	2705.37
697.40	3721.16
697.58	2617.30
697.76	2432.99
697.95	2367.45
698.13	2334.68
698.32	2363.36
698.50	2494.43
698.68	2529.24
698.87	2502.62
699.05	2695.13
699.24	2498.52
699.42	2293.72
699.61	2478.04
699.79	2594.78
699.97	2422.75
700.16	2285.53
700.34	2332.64
700.53	2537.43
700.71	2637.78
700.89	2551.77
701.08	2451.42
701.26	2459.61
701.45	2981.84
701.63	2367.45
701.81	2432.99
702.00	2486.23
702.18	2521.05
702.37	2441.18
702.55	2779.09
702.73	2793.43
702.92	2486.23
703.10	2807.77
703.28	2717.65
703.47	2545.63
703.65	2600.92
703.84	2590.68
704.02	2469.85
704.20	2723.80
704.39	2480.09
704.57	2451.42
704.75	2615.26
704.94	2609.11
705.12	2519.00
705.30	2889.68
705.49	5660.59
705.67	12879.68
705.86	20766.40
706.04	24587.91
706.22	28046.93
706.41	28151.38
706.59	22789.80
706.77	16465.67
706.96	14016.30
707.14	12488.51
707.32	10659.68
707.51	9516.91
707.69	7575.44
707.87	6123.43
708.06	5013.43
708.24	3981.25
708.42	3430.35
708.61	3301.33
708.79	2658.26
708.97	2648.02
709.16	2613.21
709.34	2537.43
709.52	2482.14
709.71	2461.66
709.89	2621.40
710.07	2402.27
710.26	2326.49
710.44	2494.43
710.62	2645.98
710.80	2449.37
710.99	2531.29
711.17	2574.30
711.35	2324.44
711.54	2383.84
711.72	2643.93
711.90	2430.94
712.09	2527.19
712.27	2402.27
712.45	2502.62
712.63	2451.42
712.82	2469.85
713.00	2463.71
713.18	2555.86
713.37	2549.72
713.55	2598.87
713.73	2455.51
713.91	2514.91
714.10	2379.74
714.28	2506.71
714.46	2510.81
714.65	2447.32
714.83	2471.90
715.01	2504.67
715.19	2557.91
715.38	2338.78
715.56	2432.99
715.74	2424.80
715.92	2389.98
716.11	2648.02
716.29	2269.15
716.47	2461.66
716.65	2504.67
716.84	2342.88
717.02	2506.71
717.20	2361.31
717.38	2351.07
717.57	2506.71
717.75	2478.04
717.93	2457.56
718.11	2627.54
718.30	2416.60
718.48	2482.14
718.66	2656.22
718.84	2576.34
719.03	2394.08
719.21	2326.49
719.39	2727.89
719.57	2557.91
719.75	2623.45
719.94	2406.36
720.12	2494.43
720.30	2506.71
720.48	2590.68
720.67	2377.69
720.85	2326.49
721.03	2424.80
721.21	2414.56
721.39	2533.34
721.58	2627.54
721.76	2428.89
721.94	2537.43
722.12	2516.95
722.30	2670.55
722.49	2394.08
722.67	2484.19
722.85	2549.72
723.03	2332.64
723.21	2336.73
723.40	2514.91
723.58	2656.22
723.76	2557.91
723.94	2631.64
724.12	2547.67
724.30	2666.46
724.49	2676.70
724.67	2383.84
724.85	2617.30
725.03	2340.83
725.21	2619.35
725.40	2668.50
725.58	2453.47
725.76	2588.63
725.94	2519.00
726.12	2342.88
726.30	2449.37
726.49	2392.03
726.67	2482.14
726.85	2576.34
727.03	2932.69
727.21	4288.45
727.39	5928.87
727.57	6748.06
727.76	7602.06
727.94	7774.09
728.12	7040.92
728.30	5642.15
728.48	5060.53
728.66	4591.55
728.84	4095.94
729.03	3583.95
729.21	3243.98
729.39	2944.98
729.57	2717.65
729.75	2772.95
729.93	2668.50
730.11	2482.14
730.30	2469.85
730.48	2490.33
730.66	2605.02
730.84	2510.81
731.02	2494.43
731.20	2441.18
731.38	2422.75
731.56	2326.49
731.74	2299.87
731.93	2494.43
732.11	2453.47
732.29	2437.08
732.47	2537.43
732.65	2488.28
732.83	2602.97
733.01	2449.37
733.19	2441.18
733.37	2576.34
733.56	2449.37
733.74	2416.60
733.92	2611.16
734.10	2457.56
734.28	2596.82
734.46	2285.53
734.64	2432.99
734.82	2394.08
735.00	2432.99
735.18	2449.37
735.36	2447.32
735.54	2422.75
735.73	2498.52
735.91	2486.23
736.09	2652.12
736.27	2539.48
736.45	2562.01
736.63	2244.57
736.81	2310.11
736.99	2645.98
737.17	2621.40
737.35	2326.49
737.53	2555.86
737.71	2447.32
737.89	2658.26
738.07	2365.40
738.25	2420.70
738.43	2281.44
738.61	2389.98
738.80	2275.29
738.98	2342.88
739.16	2428.89
739.34	2359.26
739.52	2598.87
739.70	2381.79
739.88	2478.04
740.06	2527.19
740.24	2277.34
740.42	2566.10
740.60	2297.82
740.78	2467.80
740.96	2269.15
741.14	2424.80
741.32	2455.51
741.50	2328.54
741.68	2691.03
741.86	2668.50
742.04	2428.89
742.22	2412.51
742.40	2494.43
742.58	2555.86
742.76	2346.97
742.94	2576.34
743.12	2293.72
743.30	2473.95
743.48	2537.43
743.66	2322.40
743.84	2510.81
744.02	2443.23
744.20	2484.19
744.38	2367.45
744.56	2375.64
744.74	2691.03
744.92	2525.15
745.10	2623.45
745.28	2490.33
745.46	2635.74
745.64	2406.36
745.82	2537.43
746.00	2455.51
746.18	2510.81
746.36	2418.65
746.54	2519.00
746.72	2494.43
746.90	2375.64
747.08	2637.78
747.26	2432.99
747.44	2564.06
747.62	2547.67
747.80	2418.65
747.98	2609.11
748.15	2496.47
748.33	2754.52
748.51	2594.78
748.69	2494.43
748.87	2375.64
749.05	2457.56
749.23	2457.56
749.41	2437.08
749.59	2400.22
749.77	2553.82
749.95	2410.46
750.13	2355.16
750.31	2525.15
750.49	2457.56
750.67	2564.06
750.85	2553.82
751.03	2480.09
751.20	2725.85
751.38	2447.32
751.56	2387.93
751.74	2439.13
751.92	2432.99
752.10	2361.31
752.28	2600.92
752.46	2398.17
752.64	2478.04
752.82	2457.56
753.00	2584.54
753.18	2459.61
753.35	2394.08
753.53	2482.14
753.71	2424.80
753.89	2555.86
754.07	2447.32
754.25	2588.63
754.43	2508.76
754.61	2324.44
754.79	2471.90
754.97	2484.19
755.14	2635.74
755.32	2385.88
755.50	2529.24
755.68	2478.04
755.86	2342.88
756.04	2449.37
756.22	2297.82
756.40	2549.72
756.57	2717.65
756.75	2392.03
756.93	2600.92
757.11	2521.05
757.29	2422.75
757.47	2381.79
757.65	2240.48
757.82	2224.09
758.00	2363.36
758.18	2346.97
758.36	2351.07
758.54	2736.09
758.72	2238.43
758.90	2627.54
759.07	2531.29
759.25	2340.83
759.43	2572.25
759.61	2306.01
759.79	3614.66
759.97	2502.62
760.15	2469.85
760.32	2428.89
760.50	2498.52
760.68	2633.69
760.86	2408.41
761.04	2562.01
761.22	2584.54
761.39	2500.57
761.57	2416.60
761.75	2422.75
761.93	2609.11
762.11	2439.13
762.28	2416.60
762.46	2373.60
762.64	2672.60
762.82	2381.79
763.00	2441.18
763.18	2674.65
763.35	2342.88
763.53	2598.87
763.71	2506.71
763.89	2457.56
764.07	2498.52
764.24	2445.27
764.42	2555.86
764.60	2432.99
764.78	2553.82
764.96	2586.58
765.13	2609.11
765.31	2428.89
765.49	2619.35
765.67	2289.63
765.84	2457.56
766.02	2379.74
766.20	2365.40
766.38	2480.09
766.56	2535.39
766.73	2551.77
766.91	2537.43
767.09	2469.85
767.27	2551.77
767.44	2412.51
767.62	2482.14
767.80	2529.24
767.98	2379.74
768.15	2398.17
768.33	2564.06
768.51	2605.02
768.69	2496.47
768.87	2527.19
769.04	2547.67
769.22	2844.63
769.40	2627.54
769.58	2648.02
769.75	2504.67
769.93	2600.92
770.11	2449.37
770.28	2465.75
770.46	2553.82
770.64	2492.38
770.82	2408.41
770.99	2326.49
771.17	2527.19
771.35	2465.75
771.53	2484.19
771.70	2428.89
771.88	2617.30
772.06	2451.42
772.23	2383.84
772.41	2559.96
772.59	2463.71
772.77	2379.74
772.94	2457.56
773.12	2449.37
773.30	2375.64
773.47	2510.81
773.65	2451.42
773.83	2598.87
774.01	2482.14
774.18	2297.82
774.36	2420.70
774.54	2369.50
774.71	2557.91
774.89	2334.68
775.07	2414.56
775.24	2457.56
775.42	2383.84
775.60	2693.08
775.78	2344.92
775.95	2316.25
776.13	2318.30
776.31	2318.30
776.48	2506.71
776.66	2605.02
776.84	2461.66
777.01	2404.32
777.19	2351.07
777.37	2441.18
777.54	2586.58
777.72	2717.65
777.90	2422.75
778.07	2402.27
778.25	2914.26
778.43	2545.63
778.60	2351.07
778.78	2406.36
778.96	2652.12
779.13	2373.60
779.31	2527.19
779.49	2461.66
779.66	2482.14
779.84	2398.17
780.01	2392.03
780.19	2334.68
780.37	2564.06
780.54	2629.59
780.72	2398.17
780.90	2494.43
781.07	2441.18
781.25	2406.36
781.43	2570.20
781.60	2359.26
781.78	2516.95
781.95	2543.58
782.13	2441.18
782.31	2428.89
782.48	2250.72
782.66	2484.19
782.83	2717.65
783.01	2441.18
783.19	2596.82
783.36	2572.25
783.54	2400.22
783.72	2508.76
783.89	2459.61
784.07	2504.67
784.24	2494.43
784.42	2592.73
784.60	2490.33
784.77	2490.33
784.95	2277.34
785.12	2406.36
785.30	2512.86
785.47	2420.70
785.65	2342.88
785.83	2443.23
786.00	2420.70
786.18	2537.43
786.35	2363.36
786.53	2260.96
786.71	2576.34
786.88	2580.44
787.06	2521.05
787.23	2428.89
787.41	2260.96
787.58	2498.52
787.76	2357.21
787.94	2506.71
788.11	2428.89
788.29	2293.72
788.46	2437.08
788.64	2349.02
788.81	2414.56
788.99	2342.88
789.16	2385.88
789.34	2424.80
789.52	2379.74
789.69	2443.23
789.87	2254.81
790.04	2441.18
790.22	2424.80
790.39	2734.04
790.57	2363.36
790.74	2422.75
790.92	2580.44
791.09	2310.11
791.27	2457.56
791.44	2471.90
791.62	2396.12
791.79	2586.58
791.97	2488.28
792.15	2744.28
792.32	2486.23
792.50	2533.34
792.67	2578.39
792.85	2559.96
793.02	2537.43
793.20	2486.23
793.37	2285.53
793.55	2461.66
793.72	2379.74
793.90	2543.58
794.07	2392.03
794.25	2342.88
794.42	2494.43
794.60	2496.47
794.77	2455.51
794.95	2547.67
795.12	2519.00
795.30	2424.80
795.47	2303.96
795.65	2736.09
795.82	2539.48
796.00	2430.94
796.17	2392.03
796.34	2428.89
796.52	2510.81
796.69	2578.39
796.87	2555.86
797.04	2473.95
797.22	2600.92
797.39	2531.29
797.57	2494.43
797.74	2439.13
797.92	2463.71
798.09	2478.04
798.27	2648.02
798.44	2383.84
798.62	2389.98
798.79	2402.27
798.96	2578.39
799.14	2400.22
799.31	2764.76
799.49	2406.36
799.66	2387.93
799.84	2461.66
800.01	2351.07
800.19	2471.90
800.36	2326.49
800.53	2453.47
800.71	2584.54
800.88	2643.93
801.06	2363.36
801.23	2381.79
801.41	2510.81
801.58	2408.41
801.75	2367.45
801.93	2461.66
802.10	2568.15
802.28	2420.70
802.45	2469.85
802.63	2521.05
802.80	2641.88
802.97	2367.45
803.15	2342.88
803.32	2365.40
803.50	2340.83
803.67	2312.16
803.84	2377.69
804.02	2459.61
804.19	2490.33
804.37	2258.91
804.54	2308.06
804.71	2416.60
804.89	2465.75
805.06	2308.06
805.24	2340.83
805.41	2342.88
805.58	2416.60
805.76	2885.59
805.93	2398.17
806.10	2627.54
806.28	2445.27
806.45	2531.29
806.63	2510.81
806.80	2498.52
806.97	2580.44
807.15	2537.43
807.32	2449.37
807.49	2432.99
807.67	2383.84
807.84	2559.96
808.01	2195.42
808.19	2592.73
808.36	2727.89
808.54	2437.08
808.71	2414.56
808.88	2455.51
809.06	2596.82
809.23	2611.16
809.40	2451.42
809.58	2605.02
809.75	2531.29
809.92	2385.88
810.10	2668.50
810.27	2490.33
810.44	2555.86
810.62	2572.25
810.79	2535.39
810.96	2439.13
811.14	2383.84
811.31	2473.95
811.48	2596.82
811.66	2412.51
811.83	2607.06
812.00	2555.86
812.18	2494.43
812.35	2695.13
812.52	2473.95
812.69	2383.84
812.87	2389.98
813.04	2373.60
813.21	2359.26
813.39	2383.84
813.56	2359.26
813.73	2605.02
813.91	2312.16
814.08	2504.67
814.25	2555.86
814.42	2342.88
814.60	2392.03
814.77	2562.01
814.94	2420.70
815.12	2478.04
815.29	2639.83
815.46	2340.83
815.63	2500.57
815.81	2482.14
815.98	2490.33
816.15	2424.80
816.33	2467.80
816.50	2441.18
816.67	2443.23
816.84	2455.51
817.02	2406.36
817.19	2461.66
817.36	2605.02
817.53	2547.67
817.71	2357.21
817.88	2455.51
818.05	2400.22
818.22	2432.99
818.40	2662.36
818.57	2367.45
818.74	2539.48
818.91	2441.18
819.09	2514.91
819.26	2564.06
819.43	2416.60
819.60	2439.13
819.78	2498.52
819.95	2648.02
820.12	2392.03
820.29	2662.36
820.47	2514.91
820.64	2437.08
820.81	2299.87
820.98	2353.12
821.15	2402.27
821.33	2537.43
821.50	2269.15
821.67	2533.34
821.84	2465.75
822.02	2553.82
822.19	2654.17
822.36	2471.90
822.53	2420.70
822.70	2301.92
822.88	2451.42
823.05	2605.02
823.22	2482.14
823.39	2596.82
823.56	2453.47
823.74	2693.08
823.91	2303.96
824.08	2308.06
824.25	2334.68
824.42	2592.73
824.60	2375.64
824.77	2447.32
824.94	2375.64
825.11	2535.39
825.28	2217.95
825.45	2559.96
825.63	2545.63
825.80	2404.32
825.97	2465.75
826.14	2478.04
826.31	2306.01
826.48	2457.56
826.66	2385.88
826.83	2375.64
827.00	2488.28
827.17	2373.60
827.34	2439.13
827.51	2398.17
827.69	2402.27
827.86	2336.73
828.03	2451.42
828.20	2478.04
828.37	2353.12
828.54	2523.10
828.71	2377.69
828.89	2641.88
829.06	2471.90
829.23	2684.89
829.40	2443.23
829.57	2373.60
829.74	2519.00
829.91	2367.45
830.09	2351.07
830.26	2471.90
830.43	2611.16
830.60	2455.51
830.77	2494.43
830.94	2652.12
831.11	2535.39
831.28	2461.66
831.46	2613.21
831.63	2453.47
831.80	2596.82
831.97	2447.32
832.14	2502.62
832.31	2424.80
832.48	2486.23
832.65	2588.63
832.82	2432.99
832.99	2488.28
833.17	2363.36
833.34	2643.93
833.51	2512.86
833.68	2193.37
833.85	2588.63
834.02	2392.03
834.19	2365.40
834.36	2383.84
834.53	2471.90
834.70	2590.68
834.87	2512.86
835.04	2299.87
835.22	2328.54
835.39	2441.18
835.56	2303.96
835.73	2383.84
835.90	2611.16
836.07	2353.12
836.24	2521.05
836.41	2318.30
836.58	2424.80
836.75	2572.25
836.92	2394.08
837.09	2349.02
837.26	2570.20
837.43	2488.28
837.60	2437.08
837.77	2342.88
837.94	2553.82
838.12	2623.45
838.29	2387.93
838.46	2291.68
838.63	2310.11
838.80	2703.32
838.97	2424.80
839.14	2344.92
839.31	2471.90
839.48	2533.34
839.65	2351.07
839.82	2422.75
839.99	2527.19
840.16	2514.91
840.33	2389.98
840.50	2432.99
840.67	2375.64
840.84	2207.71
841.01	2355.16
841.18	2346.97
841.35	2437.08
841.52	2564.06
841.69	2578.39
841.86	2369.50
842.03	2445.27
842.20	2568.15
842.37	2383.84
842.54	2398.17
842.71	2537.43
842.88	2326.49
843.05	2314.20
843.22	2437.08
843.39	2519.00
843.56	2430.94
843.73	2482.14
843.90	2453.47
844.07	2482.14
844.24	2535.39
844.41	2416.60
844.58	2439.13
844.75	2473.95
844.92	2525.15
845.09	2375.64
845.26	2340.83
845.43	2557.91
845.60	2437.08
845.77	2449.37
845.94	2498.52
846.10	2527.19
846.27	2287.58
846.44	2248.67
846.61	2344.92
846.78	2541.53
846.95	2594.78
847.12	2355.16
847.29	2375.64
847.46	2367.45
847.63	2594.78
847.80	2322.40
847.97	2410.46
848.14	2686.94
848.31	2496.47
848.48	2285.53
848.65	2394.08
848.82	2447.32
848.98	2791.38
849.15	2439.13
849.32	2486.23
849.49	2488.28
849.66	2529.24
849.83	2383.84
850.00	2291.68
850.17	2555.86
850.34	2486.23
850.51	2402.27
850.68	2400.22
850.85	2744.28
851.01	2519.00
851.18	2351.07
851.35	2406.36
851.52	2531.29
851.69	2660.31
851.86	2234.33
852.03	2346.97
852.20	2637.78
852.37	2514.91
852.53	2195.42
852.70	2432.99
852.87	2586.58
853.04	2582.49
853.21	2412.51
853.38	2498.52
853.55	2688.98
853.72	2715.61
853.89	2306.01
854.05	2332.64
854.22	2344.92
854.39	2432.99
854.56	2371.55
854.73	2484.19
854.90	2408.41
855.07	2439.13
855.23	2260.96
855.40	2324.44
855.57	2385.88
855.74	2193.37
855.91	2527.19
856.08	2318.30
856.25	2312.16
856.41	2416.60
856.58	2441.18
856.75	2435.03
856.92	2310.11
857.09	2580.44
857.26	2244.57
857.42	2404.32
857.59	2562.01
857.76	2326.49
857.93	2521.05
858.10	2441.18
858.27	2351.07
858.43	2473.95
858.60	2324.44
858.77	2265.05
858.94	2404.32
859.11	2574.30
859.27	2381.79
859.44	2396.12
859.61	2717.65
859.78	2547.67
859.95	2426.84
860.12	2291.68
860.28	2678.74
860.45	2766.81
860.62	2430.94
860.79	2510.81
860.95	2498.52
861.12	2416.60
861.29	2328.54
861.46	2281.44
861.63	2549.72
861.79	2535.39
861.96	2365.40
862.13	2359.26
862.30	2654.17
862.47	2455.51
862.63	2287.58
862.80	2471.90
862.97	2576.34
863.14	2537.43
863.30	2422.75
863.47	2271.20
863.64	2643.93
863.81	2514.91
863.97	2349.02
864.14	2416.60
864.31	2392.03
864.48	2430.94
864.65	2400.22
864.81	2506.71
864.98	2535.39
865.15	2580.44
865.32	2492.38
865.48	2514.91
865.65	2746.33
865.82	2385.88
865.98	2435.03
866.15	2531.29
866.32	2455.51
866.49	2490.33
866.65	2549.72
866.82	2291.68
866.99	2420.70
867.16	2416.60
867.32	2385.88
867.49	2260.96
867.66	2439.13
867.83	2387.93
867.99	2310.11
868.16	2379.74
868.33	2351.07
868.49	2531.29
868.66	2394.08
868.83	2471.90
868.99	2535.39
869.16	2572.25
869.33	2449.37
869.50	2490.33
869.66	2408.41
869.83	2420.70
870.00	2334.68
870.16	2445.27
870.33	2383.84
870.50	2570.20
870.66	2496.47
870.83	2398.17
871.00	2539.48
871.17	2457.56
871.33	2416.60
871.50	2402.27
871.67	2430.94
871.83	2367.45
872.00	2533.34
872.17	2365.40
872.33	2664.41
872.50	2613.21
872.67	2414.56
872.83	2365.40
873.00	2580.44
873.17	2484.19
873.33	2469.85
873.50	2443.23
873.67	2349.02
873.83	2400.22
874.00	2441.18
874.16	2447.32
874.33	2514.91
874.50	2328.54
874.66	2369.50
874.83	2428.89
875.00	2643.93
875.16	2607.06
875.33	2500.57
875.50	2189.28
875.66	2443.23
875.83	2498.52
875.99	2465.75
876.16	2359.26
876.33	2398.17
876.49	2439.13
876.66	2435.03
876.83	2394.08
876.99	2285.53
877.16	2469.85
877.32	2461.66
877.49	2359.26
877.66	2453.47
877.82	2619.35
877.99	2432.99
878.15	2570.20
878.32	2527.19
878.49	2482.14
878.65	2414.56
878.82	2600.92
878.98	2441.18
879.15	2555.86
879.32	2455.51
879.48	2424.80
879.65	2473.95
879.81	2504.67
879.98	2314.20
880.15	2334.68
880.31	2564.06
880.48	2400.22
880.64	2496.47
880.81	2437.08
880.97	2703.32
881.14	2658.26
881.31	2289.63
881.47	2572.25
881.64	2484.19
881.80	2306.01
881.97	2562.01
882.13	2449.37
882.30	2377.69
882.47	2457.56
882.63	2351.07
882.80	2428.89
882.96	2439.13
883.13	2506.71
883.29	2379.74
883.46	2408.41
883.62	2727.89
883.79	2461.66
883.95	2519.00
884.12	2441.18
884.29	2662.36
884.45	2430.94
884.62	2488.28
884.78	2387.93
884.95	2676.70
885.11	2371.55
885.28	2426.84
885.44	2404.32
885.61	2605.02
885.77	2590.68
885.94	2508.76
886.10	2459.61
886.27	2451.42
886.43	2719.70
886.60	2580.44
886.76	2379.74
886.93	2424.80
887.09	2469.85
887.26	2297.82
887.42	2396.12
887.59	2576.34
887.75	2818.00
887.92	2531.29
888.08	2525.15
888.25	2639.83
888.41	2609.11
888.58	2392.03
888.74	2312.16
888.91	2447.32
>>>>>End Processed Spectral Data<<<<<
