SpectraSuite Data File
++++++++++++++++++++++++++++++++++++
Date: Thu May 05 14:41:46 CEST 2016
User: root
Dark Spectrum Present: No
Reference Spectrum Present: No
Number of Sampled Component Spectra: 1
Spectrometers: USB4C02835
Integration Time (usec): 100000 (USB4C02835)
Spectra Averaged: 1 (USB4C02835)
Boxcar Smoothing: 0 (USB4C02835)
Correct for Electrical Dark: No (USB4C02835)
Strobe/Lamp Enabled: No (USB4C02835)
Correct for Detector Non-linearity: No (USB4C02835)
Correct for Stray Light: No (USB4C02835)
Number of Pixels in Processed Spectrum: 3648
>>>>>Begin Processed Spectral Data<<<<<
177.47	1908.71
177.69	1908.71
177.91	1908.71
178.13	1886.18
178.36	1902.56
178.58	2396.12
178.80	2514.91
179.02	2285.53
179.24	2365.40
179.46	2273.25
179.68	2398.17
179.90	2410.46
180.13	2590.68
180.35	2234.33
180.57	2283.49
180.79	2588.63
181.01	2508.76
181.23	2379.74
181.45	2484.19
181.67	2516.95
181.90	2539.48
182.12	2404.32
182.34	2260.96
182.56	2547.67
182.78	2453.47
183.00	2326.49
183.22	2389.98
183.44	2287.58
183.66	2785.24
183.89	2447.32
184.11	2494.43
184.33	2611.16
184.55	2660.31
184.77	2283.49
184.99	2340.83
185.21	2437.08
185.43	2793.43
185.65	2275.29
185.87	2332.64
186.10	2750.42
186.32	2711.51
186.54	2506.71
186.76	2408.41
186.98	2609.11
187.20	2471.90
187.42	2310.11
187.64	2355.16
187.86	2521.05
188.08	2605.02
188.30	2306.01
188.52	2326.49
188.75	2658.26
188.97	2590.68
189.19	2287.58
189.41	2306.01
189.63	2562.01
189.85	2445.27
190.07	2301.92
190.29	2209.76
190.51	2521.05
190.73	2420.70
190.95	2478.04
191.17	2342.88
191.39	2301.92
191.61	2432.99
191.84	2318.30
192.06	2449.37
192.28	2312.16
192.50	2916.31
192.72	2453.47
192.94	2365.40
193.16	2609.11
193.38	2449.37
193.60	2220.00
193.82	2457.56
194.04	2578.39
194.26	2437.08
194.48	2367.45
194.70	2332.64
194.92	2463.71
195.14	2494.43
195.36	2408.41
195.58	2402.27
195.80	2416.60
196.02	2351.07
196.24	2293.72
196.46	2432.99
196.69	2441.18
196.91	2752.47
197.13	2406.36
197.35	2367.45
197.57	2619.35
197.79	2484.19
198.01	2432.99
198.23	2396.12
198.45	2508.76
198.67	2346.97
198.89	2301.92
199.11	2424.80
199.33	2430.94
199.55	2170.85
199.77	2265.05
199.99	2447.32
200.21	2455.51
200.43	2609.11
200.65	2236.38
200.87	2228.19
201.09	2480.09
201.31	2426.84
201.53	2367.45
201.75	2439.13
201.97	2592.73
202.19	2582.49
202.41	2486.23
202.63	2566.10
202.85	2545.63
203.07	2531.29
203.29	2357.21
203.51	2263.01
203.73	2398.17
203.95	2785.24
204.17	2394.08
204.39	2465.75
204.61	2439.13
204.83	2420.70
205.05	2482.14
205.27	2418.65
205.49	2818.00
205.71	2465.75
205.93	2258.91
206.15	2326.49
206.37	2510.81
206.59	2496.47
206.81	2248.67
207.03	2269.15
207.25	2412.51
207.47	2564.06
207.69	2373.60
207.91	2514.91
208.13	2580.44
208.34	2412.51
208.56	2318.30
208.78	2408.41
209.00	2430.94
209.22	2437.08
209.44	2273.25
209.66	2336.73
209.88	2465.75
210.10	2428.89
210.32	2316.25
210.54	2435.03
210.76	2424.80
210.98	2514.91
211.20	2205.66
211.42	2484.19
211.64	2594.78
211.86	2547.67
212.08	2379.74
212.30	2357.21
212.52	2371.55
212.74	2588.63
212.96	2418.65
213.17	2351.07
213.39	2543.58
213.61	2648.02
213.83	2338.78
214.05	2447.32
214.27	2592.73
214.49	2351.07
214.71	2289.63
214.93	2428.89
215.15	2478.04
215.37	2527.19
215.59	2238.43
215.81	2355.16
216.03	2590.68
216.24	2478.04
216.46	2375.64
216.68	2373.60
216.90	2590.68
217.12	2529.24
217.34	2410.46
217.56	2467.80
217.78	2564.06
218.00	2473.95
218.22	2367.45
218.44	2396.12
218.66	2516.95
218.87	2748.37
219.09	2346.97
219.31	2303.96
219.53	2488.28
219.75	2408.41
219.97	2426.84
220.19	2306.01
220.41	2525.15
220.63	2662.36
220.85	2260.96
221.06	2306.01
221.28	2625.50
221.50	2580.44
221.72	2336.73
221.94	2252.77
222.16	2455.51
222.38	2605.02
222.60	2349.02
222.82	2308.06
223.03	2533.34
223.25	2293.72
223.47	2340.83
223.69	2547.67
223.91	2584.54
224.13	2508.76
224.35	2306.01
224.57	2514.91
224.78	2504.67
225.00	2400.22
225.22	2414.56
225.44	2342.88
225.66	2553.82
225.88	2361.31
226.10	2432.99
226.32	2437.08
226.53	2664.41
226.75	2428.89
226.97	2371.55
227.19	2392.03
227.41	2353.12
227.63	2514.91
227.85	2185.18
228.06	2365.40
228.28	2564.06
228.50	2545.63
228.72	2226.14
228.94	2357.21
229.16	2285.53
229.37	2291.68
229.59	2326.49
229.81	2504.67
230.03	2435.03
230.25	2301.92
230.47	2275.29
230.69	2269.15
230.90	2527.19
231.12	2373.60
231.34	2441.18
231.56	2408.41
231.78	2357.21
232.00	2465.75
232.21	2349.02
232.43	2392.03
232.65	2299.87
232.87	2613.21
233.09	2281.44
233.30	2293.72
233.52	2586.58
233.74	2367.45
233.96	2316.25
234.18	2424.80
234.40	2496.47
234.61	2752.47
234.83	2293.72
235.05	2291.68
235.27	2785.24
235.49	2574.30
235.70	2291.68
235.92	2467.80
236.14	2590.68
236.36	2867.16
236.58	2254.81
236.79	2310.11
237.01	2389.98
237.23	2432.99
237.45	2469.85
237.67	2404.32
237.88	2545.63
238.10	2662.36
238.32	2252.77
238.54	2277.34
238.76	2502.62
238.97	2383.84
239.19	2285.53
239.41	2461.66
239.63	2580.44
239.85	2361.31
240.06	2363.36
240.28	2342.88
240.50	2584.54
240.72	2449.37
240.93	2281.44
241.15	2484.19
241.37	2439.13
241.59	2605.02
241.81	2408.41
242.02	2289.63
242.24	2553.82
242.46	2541.53
242.68	2215.90
242.89	2299.87
243.11	2531.29
243.33	2496.47
243.55	2357.21
243.76	2359.26
243.98	2357.21
244.20	2455.51
244.42	2318.30
244.64	2351.07
244.85	2275.29
245.07	2402.27
245.29	2381.79
245.51	2408.41
245.72	2539.48
245.94	2600.92
246.16	2430.94
246.38	2367.45
246.59	2383.84
246.81	2418.65
247.03	2330.59
247.24	2232.29
247.46	2439.13
247.68	2447.32
247.90	2301.92
248.11	2392.03
248.33	2494.43
248.55	2432.99
248.77	2392.03
248.98	2439.13
249.20	2645.98
249.42	2494.43
249.64	2342.88
249.85	2367.45
250.07	2359.26
250.29	2578.39
250.50	2428.89
250.72	2318.30
250.94	2488.28
251.16	2721.75
251.37	2363.36
251.59	2385.88
251.81	2514.91
252.02	2582.49
252.24	2310.11
252.46	2529.24
252.68	2402.27
252.89	2437.08
253.11	2195.42
253.33	2414.56
253.54	2602.97
253.76	2398.17
253.98	2320.35
254.20	2287.58
254.41	2306.01
254.63	2424.80
254.85	2332.64
255.06	2383.84
255.28	2523.10
255.50	2420.70
255.71	2373.60
255.93	2211.81
256.15	2457.56
256.36	2611.16
256.58	2336.73
256.80	2359.26
257.02	2469.85
257.23	2420.70
257.45	2463.71
257.67	2449.37
257.88	2400.22
258.10	2527.19
258.32	2344.92
258.53	2441.18
258.75	2711.51
258.97	2435.03
259.18	2338.78
259.40	2396.12
259.62	2633.69
259.83	2695.13
260.05	2410.46
260.27	2867.16
260.48	2588.63
260.70	2414.56
260.92	2295.77
261.13	2357.21
261.35	2432.99
261.57	2523.10
261.78	2248.67
262.00	2260.96
262.22	2564.06
262.43	2435.03
262.65	2408.41
262.86	2404.32
263.08	2725.85
263.30	2516.95
263.51	2176.99
263.73	2340.83
263.95	2717.65
264.16	2349.02
264.38	2256.86
264.60	2338.78
264.81	2490.33
265.03	2686.94
265.25	2525.15
265.46	2281.44
265.68	2637.78
265.89	2570.20
266.11	2252.77
266.33	2385.88
266.54	2541.53
266.76	2506.71
266.98	2486.23
267.19	2439.13
267.41	2594.78
267.62	2498.52
267.84	2191.33
268.06	2363.36
268.27	2482.14
268.49	2607.06
268.70	2410.46
268.92	2381.79
269.14	2369.50
269.35	2330.59
269.57	2406.36
269.79	2469.85
270.00	2361.31
270.22	2662.36
270.43	2234.33
270.65	2193.37
270.87	2502.62
271.08	2523.10
271.30	2402.27
271.51	2402.27
271.73	2570.20
271.95	2654.17
272.16	2324.44
272.38	2453.47
272.59	2424.80
272.81	2598.87
273.02	2342.88
273.24	2414.56
273.46	2629.59
273.67	2324.44
273.89	2258.91
274.10	2277.34
274.32	2607.06
274.54	2463.71
274.75	2400.22
274.97	2392.03
275.18	2539.48
275.40	2559.96
275.61	2336.73
275.83	2488.28
276.05	2359.26
276.26	2457.56
276.48	2451.42
276.69	2441.18
276.91	2463.71
277.12	2666.46
277.34	2529.24
277.55	2529.24
277.77	2541.53
277.99	2392.03
278.20	2283.49
278.42	2297.82
278.63	2359.26
278.85	2469.85
279.06	2396.12
279.28	2459.61
279.49	2676.70
279.71	2555.86
279.93	2482.14
280.14	2451.42
280.36	2375.64
280.57	2574.30
280.79	2486.23
281.00	2338.78
281.22	2375.64
281.43	2641.88
281.65	2242.53
281.86	2338.78
282.08	2549.72
282.29	2691.03
282.51	2310.11
282.73	2346.97
282.94	2301.92
283.16	2514.91
283.37	2582.49
283.59	2439.13
283.80	2562.01
284.02	2510.81
284.23	2486.23
284.45	2453.47
284.66	2346.97
284.88	2381.79
285.09	2420.70
285.31	2473.95
285.52	2506.71
285.74	2330.59
285.95	2555.86
286.17	2416.60
286.38	2545.63
286.60	2437.08
286.81	2414.56
287.03	2365.40
287.24	2502.62
287.46	2555.86
287.67	2488.28
287.89	2582.49
288.10	2449.37
288.32	2529.24
288.53	2641.88
288.75	2314.20
288.96	2539.48
289.18	2492.38
289.39	2394.08
289.61	2437.08
289.82	2783.19
290.04	2711.51
290.25	2301.92
290.47	2400.22
290.68	2478.04
290.90	2574.30
291.11	2291.68
291.33	2471.90
291.54	2398.17
291.76	2367.45
291.97	2441.18
292.18	2514.91
292.40	2365.40
292.61	2447.32
292.83	2674.65
293.04	2506.71
293.26	2596.82
293.47	2480.09
293.69	2326.49
293.90	2420.70
294.12	2662.36
294.33	2465.75
294.55	2496.47
294.76	2551.77
294.97	2600.92
295.19	2818.00
295.40	2340.83
295.62	2451.42
295.83	2564.06
296.05	2377.69
296.26	2615.26
296.48	2416.60
296.69	2441.18
296.90	2402.27
297.12	2627.54
297.33	2643.93
297.55	2551.77
297.76	2557.91
297.98	2600.92
298.19	2478.04
298.41	2457.56
298.62	2402.27
298.83	2588.63
299.05	2508.76
299.26	2406.36
299.48	2383.84
299.69	2381.79
299.90	2392.03
300.12	2383.84
300.33	2512.86
300.55	2443.23
300.76	2482.14
300.98	2344.92
301.19	2613.21
301.40	2371.55
301.62	2371.55
301.83	2529.24
302.05	2461.66
302.26	2408.41
302.47	2412.51
302.69	2379.74
302.90	2574.30
303.12	2269.15
303.33	2519.00
303.54	2777.05
303.76	2441.18
303.97	2424.80
304.19	2547.67
304.40	2424.80
304.61	2633.69
304.83	2609.11
305.04	2521.05
305.26	2580.44
305.47	2490.33
305.68	2486.23
305.90	2355.16
306.11	2615.26
306.33	2455.51
306.54	2389.98
306.75	2308.06
306.97	2289.63
307.18	2342.88
307.39	2416.60
307.61	2516.95
307.82	2535.39
308.04	2525.15
308.25	2349.02
308.46	2473.95
308.68	2392.03
308.89	2387.93
309.10	2568.15
309.32	2445.27
309.53	2439.13
309.74	2500.57
309.96	2416.60
310.17	2529.24
310.39	2478.04
310.60	2555.86
310.81	2445.27
311.03	2326.49
311.24	2521.05
311.45	2457.56
311.67	2609.11
311.88	2488.28
312.09	2389.98
312.31	2375.64
312.52	2451.42
312.73	2406.36
312.95	2318.30
313.16	2447.32
313.37	2504.67
313.59	2508.76
313.80	2535.39
314.01	2654.17
314.23	2473.95
314.44	2316.25
314.65	2351.07
314.87	2334.68
315.08	2406.36
315.29	2412.51
315.51	2365.40
315.72	2398.17
315.93	2539.48
316.15	2471.90
316.36	2469.85
316.57	2398.17
316.79	2486.23
317.00	2416.60
317.21	2543.58
317.43	2404.32
317.64	2449.37
317.85	2361.31
318.07	2404.32
318.28	2457.56
318.49	2580.44
318.70	2797.53
318.92	2596.82
319.13	2633.69
319.34	2654.17
319.56	2445.27
319.77	2576.34
319.98	2621.40
320.20	2531.29
320.41	2586.58
320.62	2619.35
320.83	2381.79
321.05	2668.50
321.26	2447.32
321.47	2506.71
321.69	2551.77
321.90	2318.30
322.11	2328.54
322.32	2502.62
322.54	2637.78
322.75	2365.40
322.96	2955.22
323.18	2301.92
323.39	2318.30
323.60	2357.21
323.81	2432.99
324.03	2330.59
324.24	2445.27
324.45	2432.99
324.66	2342.88
324.88	2613.21
325.09	2697.17
325.30	2496.47
325.52	2338.78
325.73	2465.75
325.94	2326.49
326.15	2183.13
326.37	2297.82
326.58	2635.74
326.79	2736.09
327.00	2346.97
327.22	2463.71
327.43	2463.71
327.64	2420.70
327.85	2457.56
328.07	2506.71
328.28	2727.89
328.49	2430.94
328.70	2400.22
328.92	2430.94
329.13	2496.47
329.34	2514.91
329.55	2625.50
329.76	2482.14
329.98	2445.27
330.19	2617.30
330.40	2580.44
330.61	2486.23
330.83	2553.82
331.04	2328.54
331.25	2453.47
331.46	2383.84
331.68	2334.68
331.89	2617.30
332.10	2420.70
332.31	2287.58
332.52	2394.08
332.74	2584.54
332.95	2215.90
333.16	2336.73
333.37	2578.39
333.58	2404.32
333.80	2467.80
334.01	2215.90
334.22	2449.37
334.43	2383.84
334.64	2383.84
334.86	2301.92
335.07	2367.45
335.28	2645.98
335.49	2281.44
335.70	2453.47
335.92	2625.50
336.13	2756.57
336.34	2482.14
336.55	2490.33
336.76	2500.57
336.98	2314.20
337.19	2457.56
337.40	2570.20
337.61	2863.06
337.82	2396.12
338.04	2506.71
338.25	2287.58
338.46	2463.71
338.67	2439.13
338.88	2400.22
339.09	2312.16
339.31	2326.49
339.52	2324.44
339.73	2389.98
339.94	2375.64
340.15	2527.19
340.36	2416.60
340.58	2482.14
340.79	2342.88
341.00	2553.82
341.21	2334.68
341.42	2654.17
341.63	2404.32
341.85	2582.49
342.06	2473.95
342.27	2426.84
342.48	2580.44
342.69	2295.77
342.90	2471.90
343.12	2521.05
343.33	2349.02
343.54	2586.58
343.75	2684.89
343.96	2437.08
344.17	2359.26
344.38	2453.47
344.60	2392.03
344.81	2279.39
345.02	2447.32
345.23	2617.30
345.44	2871.25
345.65	2566.10
345.86	2465.75
346.07	2547.67
346.29	2418.65
346.50	2525.15
346.71	2478.04
346.92	2727.89
347.13	2766.81
347.34	2510.81
347.55	2389.98
347.76	2486.23
347.98	2396.12
348.19	2457.56
348.40	2521.05
348.61	2432.99
348.82	2721.75
349.03	2473.95
349.24	2273.25
349.45	2721.75
349.66	2306.01
349.88	2424.80
350.09	2383.84
350.30	2654.17
350.51	2705.37
350.72	2508.76
350.93	2445.27
351.14	2465.75
351.35	2621.40
351.56	2430.94
351.77	2420.70
351.99	2592.73
352.20	2715.61
352.41	2557.91
352.62	2193.37
352.83	2428.89
353.04	2510.81
353.25	2340.83
353.46	2465.75
353.67	2621.40
353.88	2293.72
354.09	2394.08
354.30	2533.34
354.52	2553.82
354.73	2469.85
354.94	2473.95
355.15	2432.99
355.36	2691.03
355.57	2426.84
355.78	2375.64
355.99	2437.08
356.20	2398.17
356.41	2641.88
356.62	2410.46
356.83	2457.56
357.04	2678.74
357.25	2324.44
357.46	2357.21
357.68	2291.68
357.89	2359.26
358.10	2551.77
358.31	2416.60
358.52	2404.32
358.73	2379.74
358.94	2381.79
359.15	2463.71
359.36	2439.13
359.57	2465.75
359.78	2459.61
359.99	2527.19
360.20	2297.82
360.41	2447.32
360.62	2492.38
360.83	2441.18
361.04	2478.04
361.25	2490.33
361.46	2668.50
361.67	2465.75
361.88	2473.95
362.09	2590.68
362.30	2545.63
362.51	2408.41
362.72	2441.18
362.93	2602.97
363.14	2551.77
363.35	2516.95
363.56	2387.93
363.78	2588.63
363.99	2637.78
364.20	2414.56
364.41	2463.71
364.62	2721.75
364.83	2555.86
365.04	2398.17
365.25	2500.57
365.46	2672.60
365.67	2328.54
365.88	2480.09
366.09	2369.50
366.30	2422.75
366.51	2537.43
366.72	2295.77
366.93	2396.12
367.14	2519.00
367.35	2729.94
367.56	2428.89
367.77	2531.29
367.98	2502.62
368.18	2557.91
368.39	2500.57
368.60	2387.93
368.81	2609.11
369.02	2449.37
369.23	2471.90
369.44	2301.92
369.65	2480.09
369.86	2490.33
370.07	2578.39
370.28	2336.73
370.49	2523.10
370.70	2535.39
370.91	2363.36
371.12	2318.30
371.33	2641.88
371.54	2482.14
371.75	2543.58
371.96	2205.66
372.17	2504.67
372.38	2459.61
372.59	2439.13
372.80	2342.88
373.01	2430.94
373.22	2529.24
373.43	2467.80
373.64	2310.11
373.85	2596.82
374.06	2662.36
374.26	2545.63
374.47	2516.95
374.68	2621.40
374.89	2529.24
375.10	2396.12
375.31	2547.67
375.52	2441.18
375.73	2439.13
375.94	2293.72
376.15	2504.67
376.36	2410.46
376.57	2375.64
376.78	2437.08
376.99	2453.47
377.20	2643.93
377.40	2475.99
377.61	2633.69
377.82	2355.16
378.03	2631.64
378.24	2551.77
378.45	2418.65
378.66	2475.99
378.87	2215.90
379.08	2256.86
379.29	2396.12
379.50	2564.06
379.71	2387.93
379.91	2596.82
380.12	2457.56
380.33	2512.86
380.54	2516.95
380.75	2502.62
380.96	2383.84
381.17	2473.95
381.38	2502.62
381.59	2488.28
381.80	2412.51
382.00	2660.31
382.21	2617.30
382.42	2637.78
382.63	2799.57
382.84	2455.51
383.05	2621.40
383.26	2670.55
383.47	2465.75
383.68	2447.32
383.88	2592.73
384.09	2510.81
384.30	2605.02
384.51	2490.33
384.72	2369.50
384.93	2330.59
385.14	2494.43
385.35	2541.53
385.55	2289.63
385.76	2619.35
385.97	2521.05
386.18	2367.45
386.39	2379.74
386.60	2385.88
386.81	2441.18
387.02	2381.79
387.22	2334.68
387.43	2613.21
387.64	2475.99
387.85	2654.17
388.06	2701.27
388.27	4050.88
388.48	8361.86
388.68	12175.17
388.89	14516.00
389.10	15927.05
389.31	14933.79
389.52	11710.29
389.73	10016.62
389.93	9154.42
390.14	8394.62
390.35	7303.06
390.56	6580.12
390.77	5550.00
390.98	4116.42
391.18	3452.88
391.39	2971.60
391.60	2594.78
391.81	2633.69
392.02	2383.84
392.23	2772.95
392.43	2576.34
392.64	2529.24
392.85	2447.32
393.06	2670.55
393.27	2527.19
393.47	2394.08
393.68	2426.84
393.89	2461.66
394.10	2650.07
394.31	2314.20
394.52	2441.18
394.72	2428.89
394.93	2711.51
395.14	2310.11
395.35	2523.10
395.56	2426.84
395.76	2506.71
395.97	2467.80
396.18	2529.24
396.39	2605.02
396.60	3010.51
396.80	2725.85
397.01	2697.17
397.22	2596.82
397.43	2660.31
397.64	2334.68
397.84	2539.48
398.05	2695.13
398.26	2484.19
398.47	2473.95
398.67	2512.86
398.88	2498.52
399.09	2592.73
399.30	2422.75
399.51	2525.15
399.71	2394.08
399.92	2488.28
400.13	2572.25
400.34	2435.03
400.54	2441.18
400.75	2680.79
400.96	2441.18
401.17	2660.31
401.37	2555.86
401.58	2424.80
401.79	2414.56
402.00	2600.92
402.21	2897.88
402.41	2725.85
402.62	2813.91
402.83	2910.16
403.04	2985.94
403.24	3080.14
403.45	2643.93
403.66	2820.05
403.87	2693.08
404.07	2785.24
404.28	2676.70
404.49	2715.61
404.70	2609.11
404.90	2535.39
405.11	2488.28
405.32	2535.39
405.52	2402.27
405.73	2355.16
405.94	2314.20
406.15	2418.65
406.35	2566.10
406.56	2465.75
406.77	2432.99
406.98	2531.29
407.18	2365.40
407.39	2676.70
407.60	2424.80
407.80	2523.10
408.01	2365.40
408.22	2494.43
408.43	2398.17
408.63	2529.24
408.84	2621.40
409.05	2588.63
409.25	2414.56
409.46	2408.41
409.67	2435.03
409.88	2480.09
410.08	2465.75
410.29	2484.19
410.50	2627.54
410.70	2596.82
410.91	2400.22
411.12	2506.71
411.32	2519.00
411.53	2404.32
411.74	2496.47
411.95	2559.96
412.15	2637.78
412.36	2691.03
412.57	2635.74
412.77	2596.82
412.98	2473.95
413.19	2439.13
413.39	2480.09
413.60	2578.39
413.81	2631.64
414.01	2385.88
414.22	2400.22
414.43	2580.44
414.63	2545.63
414.84	2613.21
415.05	2461.66
415.25	2293.72
415.46	2506.71
415.67	2377.69
415.87	2490.33
416.08	2396.12
416.29	2461.66
416.49	2605.02
416.70	2463.71
416.91	2381.79
417.11	2465.75
417.32	2676.70
417.53	2580.44
417.73	2539.48
417.94	2457.56
418.15	2549.72
418.35	2482.14
418.56	2400.22
418.77	2846.68
418.97	2543.58
419.18	2437.08
419.38	2234.33
419.59	2529.24
419.80	2721.75
420.00	2441.18
420.21	2473.95
420.42	2605.02
420.62	2492.38
420.83	2375.64
421.04	2383.84
421.24	2486.23
421.45	2564.06
421.65	2488.28
421.86	2441.18
422.07	2602.97
422.27	2512.86
422.48	2404.32
422.69	2369.50
422.89	2443.23
423.10	2531.29
423.30	2344.92
423.51	2408.41
423.72	2592.73
423.92	2564.06
424.13	2328.54
424.33	2408.41
424.54	2664.41
424.75	2500.57
424.95	2654.17
425.16	2445.27
425.36	2385.88
425.57	2637.78
425.78	2504.67
425.98	2555.86
426.19	2473.95
426.39	2328.54
426.60	2523.10
426.81	2564.06
427.01	2506.71
427.22	2422.75
427.42	2240.48
427.63	2392.03
427.83	2602.97
428.04	2758.61
428.25	2572.25
428.45	2598.87
428.66	2588.63
428.86	2559.96
429.07	2424.80
429.28	2494.43
429.48	2410.46
429.69	2353.12
429.89	2473.95
430.10	2297.82
430.30	2504.67
430.51	2592.73
430.71	2318.30
430.92	2396.12
431.13	2430.94
431.33	2594.78
431.54	2543.58
431.74	2670.55
431.95	2775.00
432.15	2432.99
432.36	2394.08
432.56	2486.23
432.77	2766.81
432.98	2725.85
433.18	2482.14
433.39	2416.60
433.59	2459.61
433.80	2725.85
434.00	2691.03
434.21	2392.03
434.41	2340.83
434.62	2793.43
434.82	2394.08
435.03	2344.92
435.23	2562.01
435.44	2310.11
435.64	2432.99
435.85	2519.00
436.06	2588.63
436.26	2615.26
436.47	2389.98
436.67	2396.12
436.88	2455.51
437.08	2650.07
437.29	2693.08
437.49	2453.47
437.70	2611.16
437.90	2451.42
438.11	2568.15
438.31	2592.73
438.52	2715.61
438.72	2711.51
438.93	2805.72
439.13	2566.10
439.34	2629.59
439.54	2461.66
439.75	2584.54
439.95	2508.76
440.16	2373.60
440.36	2519.00
440.57	2490.33
440.77	2535.39
440.98	2432.99
441.18	2541.53
441.39	2373.60
441.59	2432.99
441.80	2715.61
442.00	2559.96
442.21	2539.48
442.41	2328.54
442.62	2539.48
442.82	2455.51
443.02	2408.41
443.23	2465.75
443.43	2502.62
443.64	2635.74
443.84	2432.99
444.05	2559.96
444.25	2535.39
444.46	2441.18
444.66	2498.52
444.87	2635.74
445.07	2326.49
445.28	2428.89
445.48	2555.86
445.69	2562.01
445.89	2863.06
446.09	2408.41
446.30	2772.95
446.50	2928.60
446.71	4560.83
446.91	5685.16
447.12	6623.13
447.32	7088.02
447.53	6672.28
447.73	5365.68
447.93	4767.67
448.14	4466.62
448.34	4456.38
448.55	3751.88
448.75	3841.99
448.96	3618.76
449.16	3143.63
449.36	3160.02
449.57	2824.15
449.77	2551.77
449.98	2521.05
450.18	2643.93
450.39	2467.80
450.59	2543.58
450.79	2506.71
451.00	2324.44
451.20	2447.32
451.41	2365.40
451.61	2547.67
451.81	2498.52
452.02	2357.21
452.22	2416.60
452.43	2422.75
452.63	2359.26
452.84	2492.38
453.04	2410.46
453.24	2441.18
453.45	2371.55
453.65	2443.23
453.86	2541.53
454.06	2418.65
454.26	2484.19
454.47	2344.92
454.67	2652.12
454.87	2564.06
455.08	2514.91
455.28	2613.21
455.49	2576.34
455.69	2428.89
455.89	2811.86
456.10	2510.81
456.30	2506.71
456.51	2539.48
456.71	2529.24
456.91	2498.52
457.12	2441.18
457.32	2568.15
457.52	2338.78
457.73	2564.06
457.93	2613.21
458.14	2473.95
458.34	2273.25
458.54	2412.51
458.75	2383.84
458.95	2611.16
459.15	2594.78
459.36	2469.85
459.56	2510.81
459.76	2760.66
459.97	2535.39
460.17	2465.75
460.37	2521.05
460.58	2570.20
460.78	2535.39
460.99	2465.75
461.19	2416.60
461.39	2443.23
461.60	2492.38
461.80	2539.48
462.00	2406.36
462.21	2465.75
462.41	2412.51
462.61	2389.98
462.82	2291.68
463.02	2652.12
463.22	2457.56
463.43	2555.86
463.63	2463.71
463.83	2703.32
464.04	2562.01
464.24	2412.51
464.44	2392.03
464.64	2547.67
464.85	2600.92
465.05	2510.81
465.25	2420.70
465.46	2486.23
465.66	2555.86
465.86	2545.63
466.07	2441.18
466.27	2514.91
466.47	2412.51
466.68	2316.25
466.88	2605.02
467.08	2580.44
467.29	2555.86
467.49	2467.80
467.69	2449.37
467.89	2549.72
468.10	2480.09
468.30	2504.67
468.50	2592.73
468.71	2645.98
468.91	2349.02
469.11	2676.70
469.31	2543.58
469.52	2426.84
469.72	2711.51
469.92	2719.70
470.13	2445.27
470.33	2580.44
470.53	2559.96
470.73	2875.35
470.94	3239.89
471.14	3481.55
471.34	4016.07
471.54	3694.54
471.75	3370.96
471.95	3076.05
472.15	2897.88
472.36	3006.42
472.56	2981.84
472.76	2979.79
472.96	2949.08
473.17	2801.62
473.37	2645.98
473.57	2519.00
473.77	2658.26
473.98	2545.63
474.18	2471.90
474.38	2899.92
474.58	2402.27
474.79	2461.66
474.99	2592.73
475.19	2539.48
475.39	2404.32
475.60	2531.29
475.80	2363.36
476.00	2480.09
476.20	2385.88
476.41	2459.61
476.61	2500.57
476.81	2686.94
477.01	2369.50
477.21	2594.78
477.42	2562.01
477.62	2402.27
477.82	2652.12
478.02	2351.07
478.23	2467.80
478.43	2383.84
478.63	2428.89
478.83	2480.09
479.03	2480.09
479.24	2658.26
479.44	2805.72
479.64	2396.12
479.84	2240.48
480.04	2396.12
480.25	2602.97
480.45	2385.88
480.65	2432.99
480.85	2605.02
481.06	2471.90
481.26	2521.05
481.46	2488.28
481.66	2617.30
481.86	2402.27
482.06	2592.73
482.27	2504.67
482.47	2465.75
482.67	2498.52
482.87	2392.03
483.07	2596.82
483.28	2478.04
483.48	2310.11
483.68	2463.71
483.88	2408.41
484.08	2236.38
484.29	2363.36
484.49	2498.52
484.69	2340.83
484.89	2713.56
485.09	2588.63
485.29	2527.19
485.50	2537.43
485.70	2359.26
485.90	2752.47
486.10	2449.37
486.30	2439.13
486.50	2666.46
486.71	2562.01
486.91	2580.44
487.11	2566.10
487.31	2326.49
487.51	2512.86
487.71	2363.36
487.91	2392.03
488.12	2414.56
488.32	2201.57
488.52	2340.83
488.72	2226.14
488.92	2437.08
489.12	2654.17
489.32	2535.39
489.53	2537.43
489.73	2312.16
489.93	2631.64
490.13	2357.21
490.33	2322.40
490.53	2521.05
490.73	2645.98
490.94	2279.39
491.14	2551.77
491.34	2656.22
491.54	2770.90
491.74	3344.33
491.94	4020.16
492.14	4378.56
492.34	4378.56
492.54	4073.41
492.75	3426.25
492.95	3561.42
493.15	3262.41
493.35	3155.92
493.55	3143.63
493.75	2932.69
493.95	3028.95
494.15	2717.65
494.35	2564.06
494.56	2602.97
494.76	2443.23
494.96	2504.67
495.16	2490.33
495.36	2539.48
495.56	2504.67
495.76	2461.66
495.96	2422.75
496.16	2422.75
496.36	2775.00
496.56	2404.32
496.77	2527.19
496.97	2473.95
497.17	2643.93
497.37	2244.57
497.57	2471.90
497.77	2506.71
497.97	2385.88
498.17	2428.89
498.37	2525.15
498.57	2600.92
498.77	2484.19
498.97	2596.82
499.17	2680.79
499.38	2502.62
499.58	2555.86
499.78	2572.25
499.98	2582.49
500.18	2377.69
500.38	2439.13
500.58	2662.36
500.78	3123.15
500.98	5398.45
501.18	7579.53
501.38	9271.15
501.58	10162.02
501.78	9920.36
501.98	8005.51
502.18	6827.93
502.38	5701.54
502.58	5400.49
502.78	4890.55
502.98	4743.10
503.18	4517.82
503.38	4067.27
503.59	3555.27
503.79	3436.49
503.99	3243.98
504.19	3037.14
504.39	3024.85
504.59	3162.06
504.79	3057.62
504.99	3076.05
505.19	2871.25
505.39	2711.51
505.59	2904.02
505.79	2826.20
505.99	2695.13
506.19	2516.95
506.39	2693.08
506.59	2508.76
506.79	2492.38
506.99	2650.07
507.19	2529.24
507.39	2598.87
507.59	2332.64
507.79	2414.56
507.99	2408.41
508.19	2502.62
508.39	2465.75
508.59	2490.33
508.79	2566.10
508.99	2744.28
509.19	2414.56
509.39	2592.73
509.59	2443.23
509.79	2363.36
509.99	2519.00
510.19	2539.48
510.39	2539.48
510.59	2533.34
510.79	2367.45
510.99	2316.25
511.19	2572.25
511.39	2740.18
511.59	2674.65
511.79	2650.07
511.99	2533.34
512.19	2572.25
512.38	2533.34
512.58	2459.61
512.78	2400.22
512.98	2652.12
513.18	2676.70
513.38	2295.77
513.58	2529.24
513.78	2504.67
513.98	2480.09
514.18	2414.56
514.38	2494.43
514.58	2547.67
514.78	2478.04
514.98	2379.74
515.18	2369.50
515.38	2308.06
515.58	2723.80
515.78	2371.55
515.98	2457.56
516.18	2555.86
516.38	2543.58
516.57	2318.30
516.77	2445.27
516.97	2576.34
517.17	2418.65
517.37	2297.82
517.57	2504.67
517.77	2457.56
517.97	2396.12
518.17	2543.58
518.37	2332.64
518.57	2469.85
518.77	2441.18
518.97	2457.56
519.16	2451.42
519.36	2605.02
519.56	2437.08
519.76	2422.75
519.96	2406.36
520.16	2719.70
520.36	2435.03
520.56	2596.82
520.76	2314.20
520.96	2375.64
521.16	2590.68
521.35	2623.45
521.55	2650.07
521.75	2562.01
521.95	2422.75
522.15	2445.27
522.35	2271.20
522.55	2414.56
522.75	2596.82
522.95	2385.88
523.14	2308.06
523.34	2519.00
523.54	2473.95
523.74	2559.96
523.94	2455.51
524.14	2322.40
524.34	2514.91
524.54	2600.92
524.73	2422.75
524.93	2654.17
525.13	2465.75
525.33	2381.79
525.53	2740.18
525.73	2592.73
525.93	2467.80
526.13	2432.99
526.32	2447.32
526.52	2625.50
526.72	2600.92
526.92	2467.80
527.12	2351.07
527.32	2363.36
527.52	2510.81
527.71	2492.38
527.91	2455.51
528.11	2459.61
528.31	2662.36
528.51	2351.07
528.71	2590.68
528.90	2588.63
529.10	2635.74
529.30	2529.24
529.50	2207.71
529.70	2482.14
529.90	2402.27
530.09	2441.18
530.29	2330.59
530.49	2365.40
530.69	2832.34
530.89	2525.15
531.09	2568.15
531.28	2424.80
531.48	2662.36
531.68	2471.90
531.88	2529.24
532.08	2559.96
532.28	2449.37
532.47	2592.73
532.67	2613.21
532.87	2510.81
533.07	2357.21
533.27	2537.43
533.46	2519.00
533.66	2547.67
533.86	2471.90
534.06	2492.38
534.26	2445.27
534.45	2441.18
534.65	2613.21
534.85	2580.44
535.05	2387.93
535.25	2629.59
535.44	2287.58
535.64	2478.04
535.84	2418.65
536.04	2457.56
536.24	2475.99
536.43	2435.03
536.63	2510.81
536.83	2426.84
537.03	2461.66
537.22	2318.30
537.42	2303.96
537.62	2531.29
537.82	2416.60
538.02	2703.32
538.21	2627.54
538.41	2838.48
538.61	2568.15
538.81	2502.62
539.00	2519.00
539.20	2342.88
539.40	2529.24
539.60	2547.67
539.79	2490.33
539.99	2361.31
540.19	2373.60
540.39	2521.05
540.58	2514.91
540.78	2590.68
540.98	2504.67
541.18	2627.54
541.37	2514.91
541.57	2568.15
541.77	2564.06
541.97	2363.36
542.16	2283.49
542.36	2461.66
542.56	2418.65
542.76	2670.55
542.95	2627.54
543.15	2547.67
543.35	2557.91
543.54	2398.17
543.74	2437.08
543.94	2701.27
544.14	2482.14
544.33	2566.10
544.53	2392.03
544.73	2471.90
544.93	2428.89
545.12	2396.12
545.32	2506.71
545.52	2420.70
545.71	2381.79
545.91	2516.95
546.11	2494.43
546.30	2475.99
546.50	2455.51
546.70	2504.67
546.90	2514.91
547.09	2230.24
547.29	2416.60
547.49	2621.40
547.68	2424.80
547.88	2449.37
548.08	2500.57
548.27	2895.83
548.47	2496.47
548.67	2400.22
548.87	2572.25
549.06	2449.37
549.26	2389.98
549.46	2596.82
549.65	2363.36
549.85	2457.56
550.05	2494.43
550.24	2326.49
550.44	2500.57
550.64	2447.32
550.83	2445.27
551.03	2721.75
551.23	2584.54
551.42	2516.95
551.62	2377.69
551.82	2514.91
552.01	2473.95
552.21	2627.54
552.41	2498.52
552.60	2564.06
552.80	2469.85
553.00	2334.68
553.19	2496.47
553.39	2746.33
553.59	2414.56
553.78	2521.05
553.98	2455.51
554.17	2410.46
554.37	2574.30
554.57	2502.62
554.76	2381.79
554.96	2449.37
555.16	2508.76
555.35	2455.51
555.55	2545.63
555.75	2447.32
555.94	2600.92
556.14	2258.91
556.33	2514.91
556.53	2457.56
556.73	2541.53
556.92	2547.67
557.12	2570.20
557.32	2723.80
557.51	2740.18
557.71	2545.63
557.90	2617.30
558.10	2660.31
558.30	2447.32
558.49	2459.61
558.69	2428.89
558.88	2521.05
559.08	2529.24
559.28	2496.47
559.47	2480.09
559.67	2512.86
559.86	2738.13
560.06	2475.99
560.26	2408.41
560.45	2529.24
560.65	2457.56
560.84	2631.64
561.04	2373.60
561.24	2519.00
561.43	2359.26
561.63	2605.02
561.82	2424.80
562.02	2584.54
562.22	2355.16
562.41	2387.93
562.61	2469.85
562.80	2310.11
563.00	2717.65
563.19	2537.43
563.39	2519.00
563.59	2586.58
563.78	2322.40
563.98	2162.66
564.17	2404.32
564.37	2326.49
564.56	2582.49
564.76	2330.59
564.96	2641.88
565.15	2473.95
565.35	2850.77
565.54	2365.40
565.74	2437.08
565.93	2629.59
566.13	2508.76
566.32	2539.48
566.52	2553.82
566.71	2539.48
566.91	2670.55
567.11	2537.43
567.30	2371.55
567.50	2539.48
567.69	2594.78
567.89	2412.51
568.08	2371.55
568.28	2559.96
568.47	2383.84
568.67	2506.71
568.86	2412.51
569.06	2625.50
569.25	2525.15
569.45	2396.12
569.64	2426.84
569.84	2541.53
570.04	2500.57
570.23	2318.30
570.43	2502.62
570.62	2424.80
570.82	2723.80
571.01	2308.06
571.21	2394.08
571.40	2387.93
571.60	2668.50
571.79	2457.56
571.99	2547.67
572.18	2387.93
572.38	2523.10
572.57	2437.08
572.77	2596.82
572.96	2760.66
573.16	2527.19
573.35	2402.27
573.55	2584.54
573.74	2533.34
573.94	2510.81
574.13	2469.85
574.33	2609.11
574.52	2676.70
574.71	2527.19
574.91	2545.63
575.10	2351.07
575.30	2453.47
575.49	2426.84
575.69	2465.75
575.88	2488.28
576.08	2514.91
576.27	2611.16
576.47	2496.47
576.66	2633.69
576.86	2711.51
577.05	2592.73
577.25	2529.24
577.44	2648.02
577.64	2457.56
577.83	2600.92
578.02	2451.42
578.22	2691.03
578.41	2711.51
578.61	2519.00
578.80	2342.88
579.00	2508.76
579.19	2531.29
579.39	2494.43
579.58	2529.24
579.77	2422.75
579.97	2670.55
580.16	2650.07
580.36	2576.34
580.55	2541.53
580.75	2662.36
580.94	2508.76
581.13	2674.65
581.33	2656.22
581.52	2486.23
581.72	2795.48
581.91	2652.12
582.11	2392.03
582.30	2633.69
582.49	2613.21
582.69	2709.46
582.88	2592.73
583.08	2494.43
583.27	2623.45
583.47	2553.82
583.66	2381.79
583.85	2445.27
584.05	2465.75
584.24	2568.15
584.44	2596.82
584.63	2662.36
584.82	2637.78
585.02	2635.74
585.21	2660.31
585.41	2658.26
585.60	2572.25
585.79	2793.43
585.99	2750.42
586.18	2650.07
586.37	3276.75
586.57	5142.45
586.76	14968.60
586.96	34557.42
587.15	48121.12
587.34	57070.75
587.54	61858.90
587.73	55987.37
587.93	39243.18
588.12	29947.45
588.31	23934.61
588.51	21221.05
588.70	19494.61
588.89	17325.82
589.09	14980.89
589.28	12744.51
589.47	10303.33
589.67	7872.39
589.86	6182.82
590.06	4700.09
590.25	3891.14
590.44	3311.57
590.64	2924.50
590.83	2818.00
591.02	2764.76
591.22	2564.06
591.41	2594.78
591.60	2535.39
591.80	2850.77
591.99	2428.89
592.18	2494.43
592.38	2617.30
592.57	2459.61
592.76	2549.72
592.96	2564.06
593.15	2539.48
593.34	2654.17
593.54	2504.67
593.73	2564.06
593.92	2600.92
594.12	2605.02
594.31	2574.30
594.50	2645.98
594.70	2625.50
594.89	2875.35
595.08	2406.36
595.28	2639.83
595.47	2944.98
595.66	2678.74
595.86	2408.41
596.05	2531.29
596.24	2482.14
596.43	2729.94
596.63	2543.58
596.82	2553.82
597.01	2484.19
597.21	2815.96
597.40	2510.81
597.59	2480.09
597.79	2428.89
597.98	2613.21
598.17	2535.39
598.36	2502.62
598.56	2592.73
598.75	2478.04
598.94	2537.43
599.14	2516.95
599.33	2371.55
599.52	2570.20
599.71	2559.96
599.91	2555.86
600.10	2678.74
600.29	2525.15
600.48	2625.50
600.68	2605.02
600.87	2570.20
601.06	2426.84
601.26	2512.86
601.45	2609.11
601.64	2504.67
601.83	2662.36
602.03	2383.84
602.22	2289.63
602.41	2539.48
602.60	2842.58
602.80	2535.39
602.99	2568.15
603.18	2473.95
603.37	2562.01
603.57	2488.28
603.76	2580.44
603.95	2664.41
604.14	2529.24
604.34	2324.44
604.53	2457.56
604.72	2490.33
604.91	2609.11
605.10	2531.29
605.30	2340.83
605.49	2705.37
605.68	2568.15
605.87	2521.05
606.07	2324.44
606.26	2471.90
606.45	2578.39
606.64	2461.66
606.84	2465.75
607.03	2531.29
607.22	2635.74
607.41	2463.71
607.60	2480.09
607.80	2686.94
607.99	2527.19
608.18	2469.85
608.37	2461.66
608.56	2365.40
608.76	2596.82
608.95	2662.36
609.14	2547.67
609.33	2738.13
609.52	2768.85
609.72	2572.25
609.91	2625.50
610.10	2531.29
610.29	2629.59
610.48	2645.98
610.68	2617.30
610.87	2514.91
611.06	2598.87
611.25	2432.99
611.44	2607.06
611.63	2385.88
611.83	2709.46
612.02	2414.56
612.21	2623.45
612.40	2273.25
612.59	2346.97
612.79	2316.25
612.98	2435.03
613.17	2734.04
613.36	2519.00
613.55	2658.26
613.74	2611.16
613.93	2641.88
614.13	2668.50
614.32	2777.05
614.51	2770.90
614.70	2621.40
614.89	2516.95
615.08	2666.46
615.28	3028.95
615.47	2408.41
615.66	2635.74
615.85	2555.86
616.04	2703.32
616.23	2555.86
616.42	2494.43
616.62	2555.86
616.81	2475.99
617.00	2519.00
617.19	2572.25
617.38	2453.47
617.57	2525.15
617.76	2562.01
617.95	2602.97
618.15	2570.20
618.34	2705.37
618.53	2389.98
618.72	2643.93
618.91	2648.02
619.10	2576.34
619.29	2506.71
619.48	2521.05
619.68	2389.98
619.87	2463.71
620.06	2416.60
620.25	2516.95
620.44	2367.45
620.63	2420.70
620.82	2441.18
621.01	2521.05
621.20	2445.27
621.39	2574.30
621.59	2529.24
621.78	2463.71
621.97	2432.99
622.16	2582.49
622.35	2494.43
622.54	2658.26
622.73	2598.87
622.92	2260.96
623.11	2627.54
623.30	2467.80
623.49	2539.48
623.68	2465.75
623.88	2650.07
624.07	2400.22
624.26	2410.46
624.45	2432.99
624.64	2471.90
624.83	2521.05
625.02	2418.65
625.21	2396.12
625.40	2523.10
625.59	2650.07
625.78	2430.94
625.97	2551.77
626.16	2731.99
626.35	2584.54
626.54	2490.33
626.74	2834.39
626.93	2422.75
627.12	2494.43
627.31	2594.78
627.50	2471.90
627.69	2596.82
627.88	2383.84
628.07	2398.17
628.26	2310.11
628.45	2385.88
628.64	2400.22
628.83	2461.66
629.02	2365.40
629.21	2506.71
629.40	2478.04
629.59	2406.36
629.78	2467.80
629.97	2461.66
630.16	2475.99
630.35	2441.18
630.54	2549.72
630.73	2385.88
630.92	2543.58
631.11	2367.45
631.30	2471.90
631.49	2613.21
631.68	2412.51
631.87	2484.19
632.06	2432.99
632.25	2865.11
632.44	2652.12
632.63	2586.58
632.82	2469.85
633.01	2549.72
633.20	2621.40
633.39	2494.43
633.58	2334.68
633.77	2582.49
633.96	2572.25
634.15	2668.50
634.34	2531.29
634.53	2512.86
634.72	2424.80
634.91	2279.39
635.10	2465.75
635.29	2605.02
635.48	2605.02
635.67	2367.45
635.86	2271.20
636.05	2695.13
636.24	2496.47
636.43	2510.81
636.62	2498.52
636.81	2211.81
637.00	2469.85
637.19	2531.29
637.38	2504.67
637.57	2451.42
637.76	2519.00
637.95	2602.97
638.14	2512.86
638.33	2572.25
638.52	2531.29
638.71	2381.79
638.89	2365.40
639.08	2775.00
639.27	2684.89
639.46	2775.00
639.65	3094.48
639.84	3209.17
640.03	3334.09
640.22	3127.25
640.41	3162.06
640.60	2695.13
640.79	2811.86
640.98	2738.13
641.17	2787.29
641.36	2791.38
641.55	2676.70
641.74	2494.43
641.92	2377.69
642.11	2385.88
642.30	2480.09
642.49	2422.75
642.68	2453.47
642.87	2590.68
643.06	2531.29
643.25	2445.27
643.44	2351.07
643.63	2424.80
643.82	2580.44
644.00	2277.34
644.19	2492.38
644.38	2334.68
644.57	2504.67
644.76	2480.09
644.95	2371.55
645.14	2453.47
645.33	2430.94
645.52	2527.19
645.71	2299.87
645.89	2334.68
646.08	2545.63
646.27	2439.13
646.46	2627.54
646.65	2334.68
646.84	2482.14
647.03	2322.40
647.22	2635.74
647.40	2537.43
647.59	2523.10
647.78	2320.35
647.97	2371.55
648.16	2344.92
648.35	2596.82
648.54	2605.02
648.73	2424.80
648.91	2543.58
649.10	2510.81
649.29	2459.61
649.48	2430.94
649.67	2564.06
649.86	2506.71
650.05	2602.97
650.23	2758.61
650.42	2580.44
650.61	2809.81
650.80	2613.21
650.99	2789.33
651.18	2660.31
651.36	2670.55
651.55	2443.23
651.74	2580.44
651.93	2422.75
652.12	2465.75
652.31	2514.91
652.49	2424.80
652.68	2539.48
652.87	2746.33
653.06	2494.43
653.25	2686.94
653.44	2510.81
653.62	2738.13
653.81	2473.95
654.00	2539.48
654.19	2580.44
654.38	2791.38
654.56	2461.66
654.75	2449.37
654.94	2568.15
655.13	2488.28
655.32	2469.85
655.51	2611.16
655.69	2375.64
655.88	2605.02
656.07	2383.84
656.26	2574.30
656.45	2424.80
656.63	2467.80
656.82	2510.81
657.01	2578.39
657.20	2449.37
657.38	2688.98
657.57	2400.22
657.76	2295.77
657.95	2572.25
658.14	2426.84
658.32	2463.71
658.51	2310.11
658.70	2494.43
658.89	2488.28
659.08	2482.14
659.26	2693.08
659.45	2441.18
659.64	2617.30
659.83	2408.41
660.01	2820.05
660.20	2506.71
660.39	2664.41
660.58	2224.09
660.76	2531.29
660.95	2310.11
661.14	2514.91
661.33	2324.44
661.51	2519.00
661.70	2441.18
661.89	2510.81
662.08	2506.71
662.26	2361.31
662.45	2426.84
662.64	2711.51
662.83	2617.30
663.01	2330.59
663.20	2379.74
663.39	2721.75
663.58	2439.13
663.76	2420.70
663.95	2521.05
664.14	2375.64
664.32	2453.47
664.51	2355.16
664.70	2316.25
664.89	2537.43
665.07	2289.63
665.26	2584.54
665.45	2332.64
665.64	2643.93
665.82	2424.80
666.01	2539.48
666.20	2414.56
666.38	2641.88
666.57	2645.98
666.76	3919.81
666.95	9654.12
667.13	17886.96
667.32	22711.97
667.51	26214.00
667.69	27752.02
667.88	24727.17
668.07	17317.62
668.25	14395.17
668.44	11849.55
668.63	10112.87
668.81	9166.71
669.00	7798.66
669.19	7274.38
669.38	6193.06
669.56	5285.81
669.75	4382.65
669.94	3917.76
670.12	3170.26
670.31	2914.26
670.50	2764.76
670.68	2742.23
670.87	2635.74
671.06	2510.81
671.24	2525.15
671.43	2840.53
671.62	2588.63
671.80	2482.14
671.99	2635.74
672.18	2529.24
672.36	2594.78
672.55	2527.19
672.74	2473.95
672.92	2475.99
673.11	2525.15
673.29	2357.21
673.48	2471.90
673.67	2437.08
673.85	2596.82
674.04	2400.22
674.23	2428.89
674.41	2805.72
674.60	2379.74
674.79	2236.38
674.97	2432.99
675.16	2545.63
675.34	2545.63
675.53	2408.41
675.72	2459.61
675.90	2670.55
676.09	2457.56
676.28	2586.58
676.46	2326.49
676.65	2594.78
676.83	2418.65
677.02	2496.47
677.21	2447.32
677.39	2521.05
677.58	2383.84
677.77	2396.12
677.95	2473.95
678.14	2375.64
678.32	2447.32
678.51	2375.64
678.70	2727.89
678.88	2494.43
679.07	2564.06
679.25	2482.14
679.44	2455.51
679.63	2324.44
679.81	2482.14
680.00	2621.40
680.18	2590.68
680.37	2637.78
680.55	2498.52
680.74	2332.64
680.93	2285.53
681.11	2547.67
681.30	2404.32
681.48	2498.52
681.67	2478.04
681.85	2525.15
682.04	2383.84
682.23	2615.26
682.41	2512.86
682.60	2469.85
682.78	2443.23
682.97	2336.73
683.15	2412.51
683.34	2484.19
683.53	2568.15
683.71	2342.88
683.90	2584.54
684.08	2721.75
684.27	2394.08
684.45	2428.89
684.64	2564.06
684.82	2490.33
685.01	2527.19
685.19	2422.75
685.38	2643.93
685.57	2521.05
685.75	2424.80
685.94	2410.46
686.12	2281.44
686.31	2365.40
686.49	2709.46
686.68	2306.01
686.86	2422.75
687.05	2512.86
687.23	2686.94
687.42	2410.46
687.60	2285.53
687.79	2611.16
687.97	2629.59
688.16	2594.78
688.34	2576.34
688.53	2248.67
688.71	2445.27
688.90	2705.37
689.08	2490.33
689.27	2291.68
689.45	2580.44
689.64	2504.67
689.82	2435.03
690.01	2570.20
690.19	2510.81
690.38	2576.34
690.56	2527.19
690.75	2375.64
690.93	2445.27
691.12	2400.22
691.30	2443.23
691.49	2463.71
691.67	2551.77
691.86	2666.46
692.04	2367.45
692.23	2545.63
692.41	2463.71
692.60	2752.47
692.78	2705.37
692.97	2619.35
693.15	2537.43
693.34	2715.61
693.52	2652.12
693.71	2492.38
693.89	2482.14
694.08	2367.45
694.26	2539.48
694.44	2600.92
694.63	2566.10
694.81	2371.55
695.00	2385.88
695.18	2680.79
695.37	2795.48
695.55	2557.91
695.74	2406.36
695.92	2387.93
696.10	2523.10
696.29	2281.44
696.47	2414.56
696.66	2322.40
696.84	2355.16
697.03	2490.33
697.21	2684.89
697.40	3651.53
697.58	2664.41
697.76	2467.80
697.95	2301.92
698.13	2379.74
698.32	2416.60
698.50	2457.56
698.68	2490.33
698.87	2578.39
699.05	2641.88
699.24	2432.99
699.42	2349.02
699.61	2494.43
699.79	2547.67
699.97	2422.75
700.16	2338.78
700.34	2355.16
700.53	2480.09
700.71	2639.83
700.89	2533.34
701.08	2392.03
701.26	2451.42
701.45	2928.60
701.63	2293.72
701.81	2363.36
702.00	2410.46
702.18	2504.67
702.37	2396.12
702.55	2758.61
702.73	2772.95
702.92	2645.98
703.10	2818.00
703.28	2744.28
703.47	2539.48
703.65	2645.98
703.84	2656.22
704.02	2437.08
704.20	2746.33
704.39	2461.66
704.57	2408.41
704.75	2691.03
704.94	2572.25
705.12	2580.44
705.30	2897.88
705.49	5570.48
705.67	12789.56
705.86	20776.64
706.04	24415.88
706.22	27948.63
706.41	28278.35
706.59	22951.59
706.77	16797.44
706.96	14126.89
707.14	12418.88
707.32	10641.25
707.51	9371.50
707.69	7511.95
707.87	6125.47
708.06	5013.43
708.24	4100.03
708.42	3448.78
708.61	3284.94
708.79	2676.70
708.97	2594.78
709.16	2686.94
709.34	2545.63
709.52	2512.86
709.71	2439.13
709.89	2578.39
710.07	2367.45
710.26	2387.93
710.44	2510.81
710.62	2635.74
710.80	2463.71
710.99	2562.01
711.17	2559.96
711.35	2392.03
711.54	2457.56
711.72	2549.72
711.90	2519.00
712.09	2455.51
712.27	2416.60
712.45	2555.86
712.63	2373.60
712.82	2498.52
713.00	2480.09
713.18	2619.35
713.37	2514.91
713.55	2551.77
713.73	2650.07
713.91	2623.45
714.10	2459.61
714.28	2426.84
714.46	2566.10
714.65	2549.72
714.83	2498.52
715.01	2498.52
715.19	2512.86
715.38	2432.99
715.56	2490.33
715.74	2422.75
715.92	2340.83
716.11	2637.78
716.29	2242.53
716.47	2494.43
716.65	2473.95
716.84	2301.92
717.02	2553.82
717.20	2265.05
717.38	2439.13
717.57	2600.92
717.75	2453.47
717.93	2420.70
718.11	2514.91
718.30	2299.87
718.48	2457.56
718.66	2621.40
718.84	2600.92
719.03	2412.51
719.21	2332.64
719.39	2674.65
719.57	2568.15
719.75	2523.10
719.94	2375.64
720.12	2457.56
720.30	2578.39
720.48	2551.77
720.67	2371.55
720.85	2396.12
721.03	2416.60
721.21	2379.74
721.39	2463.71
721.58	2555.86
721.76	2547.67
721.94	2482.14
722.12	2494.43
722.30	2654.17
722.49	2449.37
722.67	2488.28
722.85	2523.10
723.03	2312.16
723.21	2430.94
723.40	2500.57
723.58	2594.78
723.76	2674.65
723.94	2676.70
724.12	2555.86
724.30	2680.79
724.49	2676.70
724.67	2400.22
724.85	2570.20
725.03	2342.88
725.21	2562.01
725.40	2588.63
725.58	2400.22
725.76	2549.72
725.94	2574.30
726.12	2336.73
726.30	2455.51
726.49	2424.80
726.67	2432.99
726.85	2572.25
727.03	2990.03
727.21	4147.14
727.39	6016.93
727.57	6664.09
727.76	7483.28
727.94	7757.71
728.12	7059.35
728.30	5672.87
728.48	4892.60
728.66	4505.53
728.84	4085.70
729.03	3569.61
729.21	3205.07
729.39	2904.02
729.57	2801.62
729.75	2656.22
729.93	2654.17
730.11	2432.99
730.30	2486.23
730.48	2492.38
730.66	2547.67
730.84	2562.01
731.02	2531.29
731.20	2351.07
731.38	2516.95
731.56	2269.15
731.74	2293.72
731.93	2617.30
732.11	2488.28
732.29	2455.51
732.47	2537.43
732.65	2498.52
732.83	2609.11
733.01	2473.95
733.19	2371.55
733.37	2531.29
733.56	2467.80
733.74	2338.78
733.92	2662.36
734.10	2461.66
734.28	2490.33
734.46	2330.59
734.64	2473.95
734.82	2500.57
735.00	2342.88
735.18	2420.70
735.36	2486.23
735.54	2523.10
735.73	2424.80
735.91	2596.82
736.09	2568.15
736.27	2471.90
736.45	2482.14
736.63	2279.39
736.81	2519.00
736.99	2664.41
737.17	2643.93
737.35	2355.16
737.53	2506.71
737.71	2545.63
737.89	2574.30
738.07	2387.93
738.25	2412.51
738.43	2220.00
738.61	2342.88
738.80	2299.87
738.98	2430.94
739.16	2410.46
739.34	2392.03
739.52	2691.03
739.70	2484.19
739.88	2523.10
740.06	2568.15
740.24	2222.05
740.42	2572.25
740.60	2244.57
740.78	2408.41
740.96	2242.53
741.14	2512.86
741.32	2521.05
741.50	2236.38
741.68	2703.32
741.86	2652.12
742.04	2387.93
742.22	2351.07
742.40	2363.36
742.58	2502.62
742.76	2287.58
742.94	2553.82
743.12	2299.87
743.30	2465.75
743.48	2619.35
743.66	2404.32
743.84	2514.91
744.02	2408.41
744.20	2455.51
744.38	2371.55
744.56	2351.07
744.74	2686.94
744.92	2578.39
745.10	2617.30
745.28	2594.78
745.46	2717.65
745.64	2449.37
745.82	2586.58
746.00	2394.08
746.18	2471.90
746.36	2383.84
746.54	2490.33
746.72	2457.56
746.90	2406.36
747.08	2586.58
747.26	2365.40
747.44	2590.68
747.62	2457.56
747.80	2498.52
747.98	2580.44
748.15	2459.61
748.33	2727.89
748.51	2519.00
748.69	2502.62
748.87	2379.74
749.05	2471.90
749.23	2432.99
749.41	2508.76
749.59	2389.98
749.77	2553.82
749.95	2404.32
750.13	2424.80
750.31	2535.39
750.49	2521.05
750.67	2631.64
750.85	2609.11
751.03	2465.75
751.20	2654.17
751.38	2461.66
751.56	2432.99
751.74	2373.60
751.92	2422.75
752.10	2316.25
752.28	2643.93
752.46	2381.79
752.64	2437.08
752.82	2514.91
753.00	2590.68
753.18	2512.86
753.35	2498.52
753.53	2506.71
753.71	2387.93
753.89	2545.63
754.07	2519.00
754.25	2584.54
754.43	2555.86
754.61	2416.60
754.79	2564.06
754.97	2455.51
755.14	2598.87
755.32	2310.11
755.50	2494.43
755.68	2551.77
755.86	2355.16
756.04	2447.32
756.22	2301.92
756.40	2570.20
756.57	2668.50
756.75	2451.42
756.93	2674.65
757.11	2564.06
757.29	2351.07
757.47	2326.49
757.65	2283.49
757.82	2252.77
758.00	2338.78
758.18	2394.08
758.36	2271.20
758.54	2617.30
758.72	2318.30
758.90	2670.55
759.07	2512.86
759.25	2449.37
759.43	2512.86
759.61	2295.77
759.79	3608.52
759.97	2588.63
760.15	2394.08
760.32	2465.75
760.50	2547.67
760.68	2641.88
760.86	2404.32
761.04	2572.25
761.22	2594.78
761.39	2398.17
761.57	2562.01
761.75	2367.45
761.93	2543.58
762.11	2369.50
762.28	2490.33
762.46	2363.36
762.64	2605.02
762.82	2324.44
763.00	2492.38
763.18	2693.08
763.35	2359.26
763.53	2576.34
763.71	2375.64
763.89	2478.04
764.07	2502.62
764.24	2437.08
764.42	2473.95
764.60	2494.43
764.78	2533.34
764.96	2703.32
765.13	2543.58
765.31	2402.27
765.49	2510.81
765.67	2365.40
765.84	2457.56
766.02	2363.36
766.20	2260.96
766.38	2496.47
766.56	2543.58
766.73	2523.10
766.91	2463.71
767.09	2473.95
767.27	2559.96
767.44	2408.41
767.62	2523.10
767.80	2447.32
767.98	2416.60
768.15	2473.95
768.33	2633.69
768.51	2613.21
768.69	2469.85
768.87	2525.15
769.04	2527.19
769.22	2783.19
769.40	2615.26
769.58	2680.79
769.75	2482.14
769.93	2625.50
770.11	2367.45
770.28	2367.45
770.46	2521.05
770.64	2562.01
770.82	2428.89
770.99	2373.60
771.17	2519.00
771.35	2400.22
771.53	2467.80
771.70	2396.12
771.88	2527.19
772.06	2420.70
772.23	2426.84
772.41	2441.18
772.59	2451.42
772.77	2371.55
772.94	2398.17
773.12	2555.86
773.30	2435.03
773.47	2478.04
773.65	2365.40
773.83	2662.36
774.01	2510.81
774.18	2250.72
774.36	2490.33
774.54	2318.30
774.71	2564.06
774.89	2328.54
775.07	2320.35
775.24	2437.08
775.42	2377.69
775.60	2734.04
775.78	2389.98
775.95	2328.54
776.13	2195.42
776.31	2191.33
776.48	2512.86
776.66	2576.34
776.84	2416.60
777.01	2363.36
777.19	2375.64
777.37	2457.56
777.54	2484.19
777.72	2674.65
777.90	2523.10
778.07	2406.36
778.25	2979.79
778.43	2699.22
778.60	2408.41
778.78	2482.14
778.96	2611.16
779.13	2326.49
779.31	2568.15
779.49	2463.71
779.66	2537.43
779.84	2377.69
780.01	2455.51
780.19	2340.83
780.37	2650.07
780.54	2592.73
780.72	2408.41
780.90	2494.43
781.07	2484.19
781.25	2394.08
781.43	2627.54
781.60	2420.70
781.78	2602.97
781.95	2490.33
782.13	2412.51
782.31	2371.55
782.48	2234.33
782.66	2488.28
782.83	2666.46
783.01	2523.10
783.19	2562.01
783.36	2437.08
783.54	2316.25
783.72	2555.86
783.89	2478.04
784.07	2510.81
784.24	2543.58
784.42	2650.07
784.60	2502.62
784.77	2531.29
784.95	2263.01
785.12	2416.60
785.30	2559.96
785.47	2402.27
785.65	2392.03
785.83	2471.90
786.00	2367.45
786.18	2455.51
786.35	2318.30
786.53	2289.63
786.71	2588.63
786.88	2570.20
787.06	2506.71
787.23	2383.84
787.41	2408.41
787.58	2490.33
787.76	2387.93
787.94	2480.09
788.11	2514.91
788.29	2410.46
788.46	2437.08
788.64	2324.44
788.81	2398.17
788.99	2371.55
789.16	2301.92
789.34	2420.70
789.52	2465.75
789.69	2396.12
789.87	2297.82
790.04	2353.12
790.22	2488.28
790.39	2766.81
790.57	2389.98
790.74	2365.40
790.92	2574.30
791.09	2308.06
791.27	2519.00
791.44	2498.52
791.62	2500.57
791.79	2602.97
791.97	2562.01
792.15	2760.66
792.32	2596.82
792.50	2582.49
792.67	2580.44
792.85	2652.12
793.02	2428.89
793.20	2445.27
793.37	2400.22
793.55	2365.40
793.72	2367.45
793.90	2523.10
794.07	2387.93
794.25	2377.69
794.42	2531.29
794.60	2480.09
794.77	2478.04
794.95	2502.62
795.12	2600.92
795.30	2412.51
795.47	2242.53
795.65	2795.48
795.82	2514.91
796.00	2424.80
796.17	2441.18
796.34	2375.64
796.52	2492.38
796.69	2637.78
796.87	2555.86
797.04	2420.70
797.22	2619.35
797.39	2553.82
797.57	2504.67
797.74	2557.91
797.92	2498.52
798.09	2371.55
798.27	2609.11
798.44	2455.51
798.62	2398.17
798.79	2531.29
798.96	2480.09
799.14	2484.19
799.31	2811.86
799.49	2435.03
799.66	2389.98
799.84	2437.08
800.01	2281.44
800.19	2469.85
800.36	2281.44
800.53	2400.22
800.71	2465.75
800.88	2678.74
801.06	2394.08
801.23	2449.37
801.41	2408.41
801.58	2404.32
801.75	2392.03
801.93	2478.04
802.10	2613.21
802.28	2414.56
802.45	2361.31
802.63	2582.49
802.80	2678.74
802.97	2383.84
803.15	2449.37
803.32	2416.60
803.50	2424.80
803.67	2385.88
803.84	2283.49
804.02	2447.32
804.19	2496.47
804.37	2209.76
804.54	2351.07
804.71	2328.54
804.89	2498.52
805.06	2428.89
805.24	2326.49
805.41	2330.59
805.58	2375.64
805.76	2758.61
805.93	2437.08
806.10	2564.06
806.28	2555.86
806.45	2461.66
806.63	2547.67
806.80	2543.58
806.97	2541.53
807.15	2551.77
807.32	2527.19
807.49	2371.55
807.67	2355.16
807.84	2486.23
808.01	2244.57
808.19	2627.54
808.36	2699.22
808.54	2494.43
808.71	2480.09
808.88	2473.95
809.06	2650.07
809.23	2650.07
809.40	2392.03
809.58	2588.63
809.75	2490.33
809.92	2359.26
810.10	2715.61
810.27	2422.75
810.44	2482.14
810.62	2635.74
810.79	2570.20
810.96	2445.27
811.14	2363.36
811.31	2545.63
811.48	2469.85
811.66	2451.42
811.83	2652.12
812.00	2519.00
812.18	2504.67
812.35	2598.87
812.52	2473.95
812.69	2445.27
812.87	2383.84
813.04	2400.22
813.21	2404.32
813.39	2406.36
813.56	2381.79
813.73	2600.92
813.91	2287.58
814.08	2428.89
814.25	2508.76
814.42	2344.92
814.60	2512.86
814.77	2545.63
814.94	2486.23
815.12	2500.57
815.29	2629.59
815.46	2439.13
815.63	2502.62
815.81	2445.27
815.98	2439.13
816.15	2484.19
816.33	2482.14
816.50	2392.03
816.67	2478.04
816.84	2412.51
817.02	2346.97
817.19	2420.70
817.36	2523.10
817.53	2543.58
817.71	2363.36
817.88	2523.10
818.05	2465.75
818.22	2486.23
818.40	2682.84
818.57	2367.45
818.74	2467.80
818.91	2451.42
819.09	2523.10
819.26	2531.29
819.43	2428.89
819.60	2461.66
819.78	2516.95
819.95	2590.68
820.12	2316.25
820.29	2590.68
820.47	2609.11
820.64	2375.64
820.81	2353.12
820.98	2400.22
821.15	2371.55
821.33	2514.91
821.50	2258.91
821.67	2535.39
821.84	2404.32
822.02	2508.76
822.19	2572.25
822.36	2392.03
822.53	2482.14
822.70	2283.49
822.88	2453.47
823.05	2576.34
823.22	2453.47
823.39	2539.48
823.56	2465.75
823.74	2764.76
823.91	2363.36
824.08	2293.72
824.25	2375.64
824.42	2621.40
824.60	2318.30
824.77	2592.73
824.94	2535.39
825.11	2596.82
825.28	2256.86
825.45	2549.72
825.63	2537.43
825.80	2314.20
825.97	2463.71
826.14	2471.90
826.31	2342.88
826.48	2596.82
826.66	2482.14
826.83	2375.64
827.00	2406.36
827.17	2363.36
827.34	2426.84
827.51	2361.31
827.69	2404.32
827.86	2318.30
828.03	2447.32
828.20	2471.90
828.37	2363.36
828.54	2473.95
828.71	2398.17
828.89	2633.69
829.06	2484.19
829.23	2699.22
829.40	2379.74
829.57	2424.80
829.74	2562.01
829.91	2437.08
830.09	2449.37
830.26	2537.43
830.43	2631.64
830.60	2424.80
830.77	2514.91
830.94	2617.30
831.11	2637.78
831.28	2543.58
831.46	2539.48
831.63	2422.75
831.80	2553.82
831.97	2394.08
832.14	2447.32
832.31	2439.13
832.48	2568.15
832.65	2557.91
832.82	2527.19
832.99	2469.85
833.17	2346.97
833.34	2586.58
833.51	2502.62
833.68	2260.96
833.85	2553.82
834.02	2334.68
834.19	2387.93
834.36	2406.36
834.53	2543.58
834.70	2617.30
834.87	2445.27
835.04	2338.78
835.22	2389.98
835.39	2400.22
835.56	2318.30
835.73	2408.41
835.90	2584.54
836.07	2373.60
836.24	2459.61
836.41	2289.63
836.58	2373.60
836.75	2609.11
836.92	2408.41
837.09	2363.36
837.26	2539.48
837.43	2617.30
837.60	2523.10
837.77	2355.16
837.94	2553.82
838.12	2596.82
838.29	2359.26
838.46	2263.01
838.63	2334.68
838.80	2672.60
838.97	2461.66
839.14	2502.62
839.31	2539.48
839.48	2549.72
839.65	2365.40
839.82	2424.80
839.99	2527.19
840.16	2486.23
840.33	2412.51
840.50	2461.66
840.67	2301.92
840.84	2277.34
841.01	2320.35
841.18	2322.40
841.35	2510.81
841.52	2566.10
841.69	2721.75
841.86	2420.70
842.03	2422.75
842.20	2545.63
842.37	2398.17
842.54	2375.64
842.71	2521.05
842.88	2322.40
843.05	2408.41
843.22	2342.88
843.39	2635.74
843.56	2428.89
843.73	2414.56
843.90	2449.37
844.07	2527.19
844.24	2641.88
844.41	2412.51
844.58	2377.69
844.75	2451.42
844.92	2551.77
845.09	2396.12
845.26	2344.92
845.43	2592.73
845.60	2430.94
845.77	2484.19
845.94	2480.09
846.10	2531.29
846.27	2285.53
846.44	2324.44
846.61	2314.20
846.78	2600.92
846.95	2559.96
847.12	2396.12
847.29	2400.22
847.46	2295.77
847.63	2617.30
847.80	2357.21
847.97	2422.75
848.14	2693.08
848.31	2412.51
848.48	2277.34
848.65	2467.80
848.82	2463.71
848.98	2721.75
849.15	2482.14
849.32	2525.15
849.49	2572.25
849.66	2443.23
849.83	2414.56
850.00	2318.30
850.17	2412.51
850.34	2422.75
850.51	2359.26
850.68	2428.89
850.85	2723.80
851.01	2533.34
851.18	2367.45
851.35	2435.03
851.52	2564.06
851.69	2570.20
851.86	2269.15
852.03	2375.64
852.20	2529.24
852.37	2441.18
852.53	2334.68
852.70	2367.45
852.87	2473.95
853.04	2562.01
853.21	2351.07
853.38	2478.04
853.55	2686.94
853.72	2568.15
853.89	2349.02
854.05	2383.84
854.22	2428.89
854.39	2422.75
854.56	2342.88
854.73	2500.57
854.90	2451.42
855.07	2490.33
855.23	2265.05
855.40	2383.84
855.57	2486.23
855.74	2263.01
855.91	2580.44
856.08	2217.95
856.25	2289.63
856.41	2414.56
856.58	2400.22
856.75	2410.46
856.92	2400.22
857.09	2643.93
857.26	2250.72
857.42	2392.03
857.59	2533.34
857.76	2500.57
857.93	2332.64
858.10	2426.84
858.27	2381.79
858.43	2484.19
858.60	2398.17
858.77	2258.91
858.94	2488.28
859.11	2568.15
859.27	2375.64
859.44	2326.49
859.61	2717.65
859.78	2566.10
859.95	2410.46
860.12	2369.50
860.28	2731.99
860.45	2740.18
860.62	2326.49
860.79	2424.80
860.95	2441.18
861.12	2334.68
861.29	2326.49
861.46	2383.84
861.63	2408.41
861.79	2498.52
861.96	2367.45
862.13	2428.89
862.30	2668.50
862.47	2455.51
862.63	2330.59
862.80	2516.95
862.97	2559.96
863.14	2551.77
863.30	2439.13
863.47	2283.49
863.64	2666.46
863.81	2492.38
863.97	2379.74
864.14	2389.98
864.31	2455.51
864.48	2473.95
864.65	2398.17
864.81	2514.91
864.98	2512.86
865.15	2582.49
865.32	2469.85
865.48	2486.23
865.65	2676.70
865.82	2435.03
865.98	2502.62
866.15	2523.10
866.32	2510.81
866.49	2432.99
866.65	2562.01
866.82	2295.77
866.99	2496.47
867.16	2373.60
867.32	2414.56
867.49	2342.88
867.66	2426.84
867.83	2400.22
867.99	2287.58
868.16	2291.68
868.33	2318.30
868.49	2396.12
868.66	2392.03
868.83	2512.86
868.99	2453.47
869.16	2475.99
869.33	2562.01
869.50	2506.71
869.66	2486.23
869.83	2504.67
870.00	2269.15
870.16	2420.70
870.33	2463.71
870.50	2621.40
870.66	2408.41
870.83	2488.28
871.00	2410.46
871.17	2549.72
871.33	2437.08
871.50	2342.88
871.67	2480.09
871.83	2279.39
872.00	2523.10
872.17	2353.12
872.33	2695.13
872.50	2570.20
872.67	2441.18
872.83	2400.22
873.00	2437.08
873.17	2449.37
873.33	2404.32
873.50	2467.80
873.67	2443.23
873.83	2334.68
874.00	2465.75
874.16	2523.10
874.33	2437.08
874.50	2334.68
874.66	2340.83
874.83	2473.95
875.00	2613.21
875.16	2557.91
875.33	2488.28
875.50	2224.09
875.66	2336.73
875.83	2461.66
875.99	2473.95
876.16	2514.91
876.33	2426.84
876.49	2461.66
876.66	2488.28
876.83	2488.28
876.99	2263.01
877.16	2473.95
877.32	2371.55
877.49	2332.64
877.66	2492.38
877.82	2668.50
877.99	2467.80
878.15	2545.63
878.32	2531.29
878.49	2418.65
878.65	2400.22
878.82	2578.39
878.98	2387.93
879.15	2564.06
879.32	2484.19
879.48	2428.89
879.65	2455.51
879.81	2420.70
879.98	2322.40
880.15	2439.13
880.31	2562.01
880.48	2346.97
880.64	2439.13
880.81	2451.42
880.97	2627.54
881.14	2584.54
881.31	2277.34
881.47	2594.78
881.64	2414.56
881.80	2275.29
881.97	2467.80
882.13	2426.84
882.30	2432.99
882.47	2412.51
882.63	2326.49
882.80	2332.64
882.96	2424.80
883.13	2645.98
883.29	2392.03
883.46	2453.47
883.62	2740.18
883.79	2553.82
883.95	2592.73
884.12	2318.30
884.29	2602.97
884.45	2453.47
884.62	2463.71
884.78	2308.06
884.95	2676.70
885.11	2308.06
885.28	2408.41
885.44	2398.17
885.61	2568.15
885.77	2602.97
885.94	2494.43
886.10	2310.11
886.27	2484.19
886.43	2664.41
886.60	2506.71
886.76	2402.27
886.93	2437.08
887.09	2510.81
887.26	2273.25
887.42	2408.41
887.59	2662.36
887.75	2731.99
887.92	2471.90
888.08	2471.90
888.25	2676.70
888.41	2553.82
888.58	2451.42
888.74	2310.11
888.91	2408.41
>>>>>End Processed Spectral Data<<<<<
