SpectraSuite Data File
++++++++++++++++++++++++++++++++++++
Date: Thu May 05 14:42:06 CEST 2016
User: root
Dark Spectrum Present: No
Reference Spectrum Present: No
Number of Sampled Component Spectra: 1
Spectrometers: USB4C02835
Integration Time (usec): 100000 (USB4C02835)
Spectra Averaged: 1 (USB4C02835)
Boxcar Smoothing: 0 (USB4C02835)
Correct for Electrical Dark: No (USB4C02835)
Strobe/Lamp Enabled: No (USB4C02835)
Correct for Detector Non-linearity: No (USB4C02835)
Correct for Stray Light: No (USB4C02835)
Number of Pixels in Processed Spectrum: 3648
>>>>>Begin Processed Spectral Data<<<<<
177.47	1859.56
177.69	1859.56
177.91	1859.56
178.13	1935.33
178.36	1910.75
178.58	2330.59
178.80	2453.47
179.02	2256.86
179.24	2383.84
179.46	2375.64
179.68	2340.83
179.90	2453.47
180.13	2461.66
180.35	2179.04
180.57	2322.40
180.79	2580.44
181.01	2471.90
181.23	2385.88
181.45	2494.43
181.67	2523.10
181.90	2564.06
182.12	2353.12
182.34	2187.23
182.56	2559.96
182.78	2533.34
183.00	2322.40
183.22	2459.61
183.44	2254.81
183.66	2799.57
183.89	2414.56
184.11	2461.66
184.33	2486.23
184.55	2645.98
184.77	2379.74
184.99	2340.83
185.21	2432.99
185.43	2789.33
185.65	2301.92
185.87	2324.44
186.10	2793.43
186.32	2805.72
186.54	2432.99
186.76	2443.23
186.98	2590.68
187.20	2371.55
187.42	2371.55
187.64	2326.49
187.86	2486.23
188.08	2596.82
188.30	2277.34
188.52	2406.36
188.75	2645.98
188.97	2707.41
189.19	2211.81
189.41	2351.07
189.63	2545.63
189.85	2375.64
190.07	2351.07
190.29	2201.57
190.51	2482.14
190.73	2295.77
190.95	2480.09
191.17	2306.01
191.39	2283.49
191.61	2426.84
191.84	2332.64
192.06	2457.56
192.28	2281.44
192.50	2877.40
192.72	2406.36
192.94	2373.60
193.16	2619.35
193.38	2594.78
193.60	2310.11
193.82	2447.32
194.04	2580.44
194.26	2490.33
194.48	2254.81
194.70	2285.53
194.92	2416.60
195.14	2576.34
195.36	2326.49
195.58	2430.94
195.80	2416.60
196.02	2349.02
196.24	2258.91
196.46	2412.51
196.69	2441.18
196.91	2777.05
197.13	2338.78
197.35	2351.07
197.57	2693.08
197.79	2508.76
198.01	2344.92
198.23	2414.56
198.45	2580.44
198.67	2346.97
198.89	2211.81
199.11	2453.47
199.33	2465.75
199.55	2263.01
199.77	2312.16
199.99	2392.03
200.21	2385.88
200.43	2541.53
200.65	2351.07
200.87	2220.00
201.09	2469.85
201.31	2437.08
201.53	2412.51
201.75	2449.37
201.97	2562.01
202.19	2475.99
202.41	2383.84
202.63	2527.19
202.85	2611.16
203.07	2580.44
203.29	2359.26
203.51	2303.96
203.73	2334.68
203.95	2834.39
204.17	2381.79
204.39	2453.47
204.61	2496.47
204.83	2445.27
205.05	2457.56
205.27	2328.54
205.49	2727.89
205.71	2459.61
205.93	2258.91
206.15	2287.58
206.37	2480.09
206.59	2527.19
206.81	2217.95
207.03	2316.25
207.25	2447.32
207.47	2519.00
207.69	2422.75
207.91	2639.83
208.13	2600.92
208.34	2486.23
208.56	2359.26
208.78	2322.40
209.00	2406.36
209.22	2449.37
209.44	2461.66
209.66	2316.25
209.88	2449.37
210.10	2439.13
210.32	2336.73
210.54	2453.47
210.76	2447.32
210.98	2609.11
211.20	2140.13
211.42	2385.88
211.64	2627.54
211.86	2510.81
212.08	2428.89
212.30	2428.89
212.52	2445.27
212.74	2623.45
212.96	2379.74
213.17	2392.03
213.39	2529.24
213.61	2711.51
213.83	2351.07
214.05	2332.64
214.27	2629.59
214.49	2387.93
214.71	2332.64
214.93	2432.99
215.15	2447.32
215.37	2559.96
215.59	2240.48
215.81	2432.99
216.03	2629.59
216.24	2531.29
216.46	2342.88
216.68	2342.88
216.90	2541.53
217.12	2619.35
217.34	2334.68
217.56	2498.52
217.78	2627.54
218.00	2600.92
218.22	2379.74
218.44	2418.65
218.66	2502.62
218.87	2621.40
219.09	2359.26
219.31	2396.12
219.53	2562.01
219.75	2473.95
219.97	2426.84
220.19	2367.45
220.41	2430.94
220.63	2670.55
220.85	2332.64
221.06	2367.45
221.28	2592.73
221.50	2551.77
221.72	2387.93
221.94	2373.60
222.16	2482.14
222.38	2596.82
222.60	2394.08
222.82	2416.60
223.03	2592.73
223.25	2330.59
223.47	2361.31
223.69	2586.58
223.91	2514.91
224.13	2531.29
224.35	2273.25
224.57	2516.95
224.78	2590.68
225.00	2383.84
225.22	2389.98
225.44	2361.31
225.66	2529.24
225.88	2453.47
226.10	2422.75
226.32	2383.84
226.53	2695.13
226.75	2414.56
226.97	2404.32
227.19	2275.29
227.41	2424.80
227.63	2375.64
227.85	2258.91
228.06	2457.56
228.28	2494.43
228.50	2621.40
228.72	2222.05
228.94	2404.32
229.16	2246.62
229.37	2410.46
229.59	2248.67
229.81	2514.91
230.03	2424.80
230.25	2277.34
230.47	2209.76
230.69	2306.01
230.90	2629.59
231.12	2488.28
231.34	2371.55
231.56	2461.66
231.78	2283.49
232.00	2545.63
232.21	2320.35
232.43	2387.93
232.65	2193.37
232.87	2494.43
233.09	2299.87
233.30	2236.38
233.52	2617.30
233.74	2510.81
233.96	2404.32
234.18	2490.33
234.40	2377.69
234.61	2775.00
234.83	2271.20
235.05	2310.11
235.27	2793.43
235.49	2662.36
235.70	2285.53
235.92	2443.23
236.14	2658.26
236.36	2711.51
236.58	2324.44
236.79	2416.60
237.01	2449.37
237.23	2555.86
237.45	2588.63
237.67	2363.36
237.88	2578.39
238.10	2760.66
238.32	2285.53
238.54	2252.77
238.76	2490.33
238.97	2406.36
239.19	2260.96
239.41	2525.15
239.63	2605.02
239.85	2404.32
240.06	2398.17
240.28	2260.96
240.50	2609.11
240.72	2482.14
240.93	2281.44
241.15	2439.13
241.37	2496.47
241.59	2648.02
241.81	2422.75
242.02	2326.49
242.24	2428.89
242.46	2498.52
242.68	2201.57
242.89	2330.59
243.11	2707.41
243.33	2406.36
243.55	2381.79
243.76	2426.84
243.98	2389.98
244.20	2455.51
244.42	2381.79
244.64	2318.30
244.85	2392.03
245.07	2340.83
245.29	2408.41
245.51	2365.40
245.72	2521.05
245.94	2559.96
246.16	2269.15
246.38	2392.03
246.59	2406.36
246.81	2394.08
247.03	2332.64
247.24	2207.71
247.46	2432.99
247.68	2461.66
247.90	2342.88
248.11	2316.25
248.33	2586.58
248.55	2576.34
248.77	2324.44
248.98	2502.62
249.20	2717.65
249.42	2596.82
249.64	2314.20
249.85	2367.45
250.07	2473.95
250.29	2619.35
250.50	2379.74
250.72	2191.33
250.94	2504.67
251.16	2711.51
251.37	2340.83
251.59	2428.89
251.81	2551.77
252.02	2678.74
252.24	2314.20
252.46	2537.43
252.68	2383.84
252.89	2303.96
253.11	2222.05
253.33	2471.90
253.54	2660.31
253.76	2392.03
253.98	2353.12
254.20	2351.07
254.41	2396.12
254.63	2502.62
254.85	2269.15
255.06	2387.93
255.28	2465.75
255.50	2439.13
255.71	2283.49
255.93	2285.53
256.15	2447.32
256.36	2506.71
256.58	2316.25
256.80	2365.40
257.02	2488.28
257.23	2443.23
257.45	2330.59
257.67	2404.32
257.88	2449.37
258.10	2494.43
258.32	2316.25
258.53	2451.42
258.75	2709.46
258.97	2439.13
259.18	2359.26
259.40	2320.35
259.62	2764.76
259.83	2635.74
260.05	2326.49
260.27	2873.30
260.48	2562.01
260.70	2301.92
260.92	2281.44
261.13	2367.45
261.35	2469.85
261.57	2545.63
261.78	2220.00
262.00	2326.49
262.22	2514.91
262.43	2353.12
262.65	2297.82
262.86	2322.40
263.08	2785.24
263.30	2457.56
263.51	2250.72
263.73	2277.34
263.95	2660.31
264.16	2365.40
264.38	2283.49
264.60	2359.26
264.81	2473.95
265.03	2650.07
265.25	2580.44
265.46	2316.25
265.68	2625.50
265.89	2615.26
266.11	2246.62
266.33	2318.30
266.54	2613.21
266.76	2514.91
266.98	2469.85
267.19	2459.61
267.41	2627.54
267.62	2416.60
267.84	2211.81
268.06	2475.99
268.27	2551.77
268.49	2643.93
268.70	2381.79
268.92	2334.68
269.14	2392.03
269.35	2342.88
269.57	2306.01
269.79	2392.03
270.00	2439.13
270.22	2625.50
270.43	2289.63
270.65	2232.29
270.87	2467.80
271.08	2605.02
271.30	2373.60
271.51	2301.92
271.73	2592.73
271.95	2613.21
272.16	2371.55
272.38	2451.42
272.59	2410.46
272.81	2557.91
273.02	2312.16
273.24	2381.79
273.46	2623.45
273.67	2318.30
273.89	2256.86
274.10	2365.40
274.32	2686.94
274.54	2543.58
274.75	2408.41
274.97	2281.44
275.18	2562.01
275.40	2523.10
275.61	2349.02
275.83	2408.41
276.05	2342.88
276.26	2471.90
276.48	2424.80
276.69	2383.84
276.91	2383.84
277.12	2666.46
277.34	2582.49
277.55	2545.63
277.77	2521.05
277.99	2424.80
278.20	2441.18
278.42	2279.39
278.63	2422.75
278.85	2322.40
279.06	2244.57
279.28	2543.58
279.49	2602.97
279.71	2498.52
279.93	2424.80
280.14	2396.12
280.36	2365.40
280.57	2662.36
280.79	2494.43
281.00	2340.83
281.22	2416.60
281.43	2611.16
281.65	2236.38
281.86	2344.92
282.08	2527.19
282.29	2725.85
282.51	2293.72
282.73	2293.72
282.94	2332.64
283.16	2592.73
283.37	2475.99
283.59	2453.47
283.80	2578.39
284.02	2478.04
284.23	2480.09
284.45	2326.49
284.66	2334.68
284.88	2439.13
285.09	2437.08
285.31	2557.91
285.52	2478.04
285.74	2248.67
285.95	2568.15
286.17	2457.56
286.38	2680.79
286.60	2375.64
286.81	2424.80
287.03	2389.98
287.24	2465.75
287.46	2471.90
287.67	2443.23
287.89	2660.31
288.10	2367.45
288.32	2486.23
288.53	2516.95
288.75	2457.56
288.96	2547.67
289.18	2441.18
289.39	2353.12
289.61	2537.43
289.82	2768.85
290.04	2701.27
290.25	2281.44
290.47	2488.28
290.68	2506.71
290.90	2576.34
291.11	2308.06
291.33	2580.44
291.54	2394.08
291.76	2349.02
291.97	2447.32
292.18	2430.94
292.40	2521.05
292.61	2430.94
292.83	2570.20
293.04	2547.67
293.26	2430.94
293.47	2461.66
293.69	2357.21
293.90	2383.84
294.12	2656.22
294.33	2475.99
294.55	2408.41
294.76	2584.54
294.97	2709.46
295.19	2772.95
295.40	2400.22
295.62	2437.08
295.83	2621.40
296.05	2375.64
296.26	2557.91
296.48	2283.49
296.69	2482.14
296.90	2457.56
297.12	2537.43
297.33	2441.18
297.55	2521.05
297.76	2568.15
297.98	2502.62
298.19	2539.48
298.41	2580.44
298.62	2389.98
298.83	2525.15
299.05	2383.84
299.26	2410.46
299.48	2381.79
299.69	2506.71
299.90	2512.86
300.12	2357.21
300.33	2619.35
300.55	2422.75
300.76	2451.42
300.98	2375.64
301.19	2607.06
301.40	2447.32
301.62	2385.88
301.83	2475.99
302.05	2482.14
302.26	2432.99
302.47	2445.27
302.69	2373.60
302.90	2441.18
303.12	2273.25
303.33	2527.19
303.54	2701.27
303.76	2435.03
303.97	2437.08
304.19	2574.30
304.40	2385.88
304.61	2531.29
304.83	2596.82
305.04	2504.67
305.26	2572.25
305.47	2441.18
305.68	2318.30
305.90	2248.67
306.11	2631.64
306.33	2455.51
306.54	2349.02
306.75	2312.16
306.97	2330.59
307.18	2416.60
307.39	2373.60
307.61	2531.29
307.82	2441.18
308.04	2465.75
308.25	2281.44
308.46	2482.14
308.68	2461.66
308.89	2467.80
309.10	2514.91
309.32	2502.62
309.53	2463.71
309.74	2557.91
309.96	2258.91
310.17	2568.15
310.39	2441.18
310.60	2533.34
310.81	2506.71
311.03	2263.01
311.24	2578.39
311.45	2496.47
311.67	2670.55
311.88	2494.43
312.09	2402.27
312.31	2430.94
312.52	2371.55
312.73	2402.27
312.95	2291.68
313.16	2359.26
313.37	2531.29
313.59	2590.68
313.80	2602.97
314.01	2635.74
314.23	2357.21
314.44	2260.96
314.65	2363.36
314.87	2369.50
315.08	2367.45
315.29	2402.27
315.51	2375.64
315.72	2244.57
315.93	2486.23
316.15	2439.13
316.36	2416.60
316.57	2465.75
316.79	2506.71
317.00	2383.84
317.21	2537.43
317.43	2375.64
317.64	2512.86
317.85	2299.87
318.07	2381.79
318.28	2396.12
318.49	2525.15
318.70	2658.26
318.92	2588.63
319.13	2639.83
319.34	2662.36
319.56	2508.76
319.77	2588.63
319.98	2650.07
320.20	2619.35
320.41	2473.95
320.62	2547.67
320.83	2351.07
321.05	2609.11
321.26	2435.03
321.47	2541.53
321.69	2641.88
321.90	2328.54
322.11	2332.64
322.32	2461.66
322.54	2736.09
322.75	2408.41
322.96	2885.59
323.18	2267.10
323.39	2193.37
323.60	2344.92
323.81	2478.04
324.03	2396.12
324.24	2418.65
324.45	2547.67
324.66	2428.89
324.88	2566.10
325.09	2664.41
325.30	2420.70
325.52	2443.23
325.73	2529.24
325.94	2326.49
326.15	2211.81
326.37	2383.84
326.58	2541.53
326.79	2645.98
327.00	2400.22
327.22	2514.91
327.43	2498.52
327.64	2389.98
327.85	2494.43
328.07	2473.95
328.28	2678.74
328.49	2392.03
328.70	2408.41
328.92	2435.03
329.13	2488.28
329.34	2592.73
329.55	2607.06
329.76	2531.29
329.98	2488.28
330.19	2547.67
330.40	2504.67
330.61	2455.51
330.83	2574.30
331.04	2303.96
331.25	2478.04
331.46	2463.71
331.68	2316.25
331.89	2592.73
332.10	2404.32
332.31	2303.96
332.52	2422.75
332.74	2568.15
332.95	2279.39
333.16	2445.27
333.37	2541.53
333.58	2408.41
333.80	2469.85
334.01	2275.29
334.22	2422.75
334.43	2371.55
334.64	2387.93
334.86	2353.12
335.07	2310.11
335.28	2654.17
335.49	2285.53
335.70	2564.06
335.92	2678.74
336.13	2721.75
336.34	2482.14
336.55	2482.14
336.76	2482.14
336.98	2277.34
337.19	2394.08
337.40	2555.86
337.61	2785.24
337.82	2478.04
338.04	2514.91
338.25	2277.34
338.46	2439.13
338.67	2455.51
338.88	2326.49
339.09	2375.64
339.31	2418.65
339.52	2408.41
339.73	2312.16
339.94	2504.67
340.15	2582.49
340.36	2381.79
340.58	2430.94
340.79	2353.12
341.00	2523.10
341.21	2275.29
341.42	2625.50
341.63	2428.89
341.85	2586.58
342.06	2516.95
342.27	2306.01
342.48	2590.68
342.69	2357.21
342.90	2564.06
343.12	2613.21
343.33	2346.97
343.54	2580.44
343.75	2633.69
343.96	2412.51
344.17	2285.53
344.38	2535.39
344.60	2324.44
344.81	2316.25
345.02	2426.84
345.23	2613.21
345.44	2717.65
345.65	2447.32
345.86	2404.32
346.07	2461.66
346.29	2410.46
346.50	2502.62
346.71	2498.52
346.92	2652.12
347.13	2746.33
347.34	2449.37
347.55	2432.99
347.76	2514.91
347.98	2322.40
348.19	2387.93
348.40	2557.91
348.61	2510.81
348.82	2750.42
349.03	2500.57
349.24	2308.06
349.45	2641.88
349.66	2275.29
349.88	2432.99
350.09	2363.36
350.30	2676.70
350.51	2621.40
350.72	2523.10
350.93	2482.14
351.14	2424.80
351.35	2496.47
351.56	2430.94
351.77	2424.80
351.99	2494.43
352.20	2680.79
352.41	2607.06
352.62	2310.11
352.83	2523.10
353.04	2523.10
353.25	2443.23
353.46	2455.51
353.67	2615.26
353.88	2291.68
354.09	2336.73
354.30	2432.99
354.52	2549.72
354.73	2437.08
354.94	2363.36
355.15	2420.70
355.36	2701.27
355.57	2428.89
355.78	2418.65
355.99	2334.68
356.20	2396.12
356.41	2660.31
356.62	2498.52
356.83	2387.93
357.04	2699.22
357.25	2263.01
357.46	2463.71
357.68	2320.35
357.89	2355.16
358.10	2473.95
358.31	2418.65
358.52	2369.50
358.73	2340.83
358.94	2351.07
359.15	2340.83
359.36	2484.19
359.57	2478.04
359.78	2473.95
359.99	2506.71
360.20	2326.49
360.41	2473.95
360.62	2641.88
360.83	2482.14
361.04	2449.37
361.25	2508.76
361.46	2682.84
361.67	2529.24
361.88	2568.15
362.09	2609.11
362.30	2486.23
362.51	2387.93
362.72	2449.37
362.93	2586.58
363.14	2555.86
363.35	2437.08
363.56	2357.21
363.78	2658.26
363.99	2643.93
364.20	2340.83
364.41	2504.67
364.62	2719.70
364.83	2514.91
365.04	2389.98
365.25	2420.70
365.46	2781.14
365.67	2387.93
365.88	2398.17
366.09	2363.36
366.30	2424.80
366.51	2496.47
366.72	2342.88
366.93	2420.70
367.14	2504.67
367.35	2592.73
367.56	2430.94
367.77	2510.81
367.98	2469.85
368.18	2539.48
368.39	2529.24
368.60	2310.11
368.81	2668.50
369.02	2519.00
369.23	2504.67
369.44	2277.34
369.65	2439.13
369.86	2555.86
370.07	2551.77
370.28	2340.83
370.49	2568.15
370.70	2572.25
370.91	2285.53
371.12	2338.78
371.33	2691.03
371.54	2465.75
371.75	2623.45
371.96	2172.89
372.17	2543.58
372.38	2455.51
372.59	2490.33
372.80	2402.27
373.01	2375.64
373.22	2449.37
373.43	2451.42
373.64	2361.31
373.85	2602.97
374.06	2611.16
374.26	2527.19
374.47	2488.28
374.68	2654.17
374.89	2549.72
375.10	2455.51
375.31	2490.33
375.52	2582.49
375.73	2420.70
375.94	2277.34
376.15	2602.97
376.36	2453.47
376.57	2490.33
376.78	2437.08
376.99	2430.94
377.20	2572.25
377.40	2424.80
377.61	2699.22
377.82	2324.44
378.03	2758.61
378.24	2482.14
378.45	2502.62
378.66	2478.04
378.87	2293.72
379.08	2306.01
379.29	2344.92
379.50	2498.52
379.71	2387.93
379.91	2555.86
380.12	2402.27
380.33	2412.51
380.54	2482.14
380.75	2531.29
380.96	2385.88
381.17	2469.85
381.38	2521.05
381.59	2465.75
381.80	2441.18
382.00	2711.51
382.21	2545.63
382.42	2695.13
382.63	2711.51
382.84	2535.39
383.05	2617.30
383.26	2688.98
383.47	2549.72
383.68	2475.99
383.88	2576.34
384.09	2576.34
384.30	2605.02
384.51	2482.14
384.72	2457.56
384.93	2367.45
385.14	2435.03
385.35	2654.17
385.55	2342.88
385.76	2627.54
385.97	2365.40
386.18	2342.88
386.39	2412.51
386.60	2447.32
386.81	2443.23
387.02	2320.35
387.22	2389.98
387.43	2643.93
387.64	2541.53
387.85	2688.98
388.06	2695.13
388.27	3985.35
388.48	8132.48
388.68	11956.04
388.89	14341.93
389.10	15535.89
389.31	14757.66
389.52	11329.36
389.73	9940.84
389.93	9035.64
390.14	8298.37
390.35	7466.89
390.56	6631.32
390.77	5457.84
390.98	4085.70
391.18	3338.19
391.39	2969.55
391.60	2584.54
391.81	2619.35
392.02	2469.85
392.23	2740.18
392.43	2545.63
392.64	2527.19
392.85	2457.56
393.06	2635.74
393.27	2547.67
393.47	2381.79
393.68	2531.29
393.89	2428.89
394.10	2625.50
394.31	2392.03
394.52	2375.64
394.72	2514.91
394.93	2768.85
395.14	2349.02
395.35	2523.10
395.56	2414.56
395.76	2549.72
395.97	2412.51
396.18	2588.63
396.39	2637.78
396.60	2973.65
396.80	2619.35
397.01	2641.88
397.22	2668.50
397.43	2574.30
397.64	2387.93
397.84	2613.21
398.05	2742.23
398.26	2566.10
398.47	2648.02
398.67	2584.54
398.88	2406.36
399.09	2617.30
399.30	2443.23
399.51	2531.29
399.71	2437.08
399.92	2467.80
400.13	2488.28
400.34	2426.84
400.54	2463.71
400.75	2643.93
400.96	2422.75
401.17	2627.54
401.37	2555.86
401.58	2455.51
401.79	2459.61
402.00	2535.39
402.21	2834.39
402.41	2824.15
402.62	2811.86
402.83	2875.35
403.04	2973.65
403.24	3080.14
403.45	2570.20
403.66	2807.77
403.87	2660.31
404.07	2711.51
404.28	2666.46
404.49	2676.70
404.70	2570.20
404.90	2670.55
405.11	2488.28
405.32	2541.53
405.52	2408.41
405.73	2498.52
405.94	2381.79
406.15	2486.23
406.35	2641.88
406.56	2582.49
406.77	2480.09
406.98	2451.42
407.18	2428.89
407.39	2748.37
407.60	2478.04
407.80	2506.71
408.01	2406.36
408.22	2531.29
408.43	2359.26
408.63	2445.27
408.84	2613.21
409.05	2629.59
409.25	2392.03
409.46	2381.79
409.67	2402.27
409.88	2420.70
410.08	2521.05
410.29	2490.33
410.50	2611.16
410.70	2549.72
410.91	2355.16
411.12	2424.80
411.32	2473.95
411.53	2420.70
411.74	2519.00
411.95	2572.25
412.15	2537.43
412.36	2609.11
412.57	2678.74
412.77	2594.78
412.98	2545.63
413.19	2404.32
413.39	2504.67
413.60	2428.89
413.81	2562.01
414.01	2428.89
414.22	2527.19
414.43	2664.41
414.63	2398.17
414.84	2619.35
415.05	2496.47
415.25	2320.35
415.46	2648.02
415.67	2453.47
415.87	2482.14
416.08	2469.85
416.29	2453.47
416.49	2557.91
416.70	2344.92
416.91	2414.56
417.11	2508.76
417.32	2639.83
417.53	2510.81
417.73	2508.76
417.94	2478.04
418.15	2473.95
418.35	2430.94
418.56	2498.52
418.77	2777.05
418.97	2547.67
419.18	2545.63
419.38	2289.63
419.59	2521.05
419.80	2656.22
420.00	2310.11
420.21	2439.13
420.42	2693.08
420.62	2488.28
420.83	2389.98
421.04	2514.91
421.24	2471.90
421.45	2668.50
421.65	2531.29
421.86	2394.08
422.07	2547.67
422.27	2578.39
422.48	2408.41
422.69	2344.92
422.89	2346.97
423.10	2430.94
423.30	2375.64
423.51	2455.51
423.72	2617.30
423.92	2615.26
424.13	2312.16
424.33	2473.95
424.54	2543.58
424.75	2545.63
424.95	2551.77
425.16	2506.71
425.36	2410.46
425.57	2568.15
425.78	2559.96
425.98	2506.71
426.19	2445.27
426.39	2324.44
426.60	2494.43
426.81	2652.12
427.01	2471.90
427.22	2400.22
427.42	2314.20
427.63	2371.55
427.83	2619.35
428.04	2674.65
428.25	2545.63
428.45	2580.44
428.66	2602.97
428.86	2482.14
429.07	2432.99
429.28	2422.75
429.48	2422.75
429.69	2449.37
429.89	2469.85
430.10	2377.69
430.30	2584.54
430.51	2635.74
430.71	2389.98
430.92	2451.42
431.13	2432.99
431.33	2545.63
431.54	2504.67
431.74	2652.12
431.95	2779.09
432.15	2396.12
432.36	2531.29
432.56	2607.06
432.77	2660.31
432.98	2719.70
433.18	2496.47
433.39	2349.02
433.59	2414.56
433.80	2713.56
434.00	2670.55
434.21	2555.86
434.41	2445.27
434.62	2807.77
434.82	2416.60
435.03	2346.97
435.23	2500.57
435.44	2275.29
435.64	2375.64
435.85	2469.85
436.06	2572.25
436.26	2605.02
436.47	2457.56
436.67	2494.43
436.88	2461.66
437.08	2682.84
437.29	2629.59
437.49	2512.86
437.70	2625.50
437.90	2488.28
438.11	2654.17
438.31	2512.86
438.52	2668.50
438.72	2668.50
438.93	2869.20
439.13	2553.82
439.34	2637.78
439.54	2482.14
439.75	2551.77
439.95	2531.29
440.16	2379.74
440.36	2519.00
440.57	2469.85
440.77	2527.19
440.98	2486.23
441.18	2621.40
441.39	2465.75
441.59	2342.88
441.80	2777.05
442.00	2428.89
442.21	2521.05
442.41	2389.98
442.62	2611.16
442.82	2455.51
443.02	2379.74
443.23	2508.76
443.43	2473.95
443.64	2635.74
443.84	2402.27
444.05	2582.49
444.25	2521.05
444.46	2412.51
444.66	2457.56
444.87	2680.79
445.07	2365.40
445.28	2494.43
445.48	2572.25
445.69	2588.63
445.89	2822.10
446.09	2502.62
446.30	2705.37
446.50	3000.27
446.71	4628.41
446.91	5830.57
447.12	6602.65
447.32	6840.22
447.53	6651.80
447.73	5472.17
447.93	4833.21
448.14	4497.34
448.34	4462.52
448.55	3780.55
448.75	3755.97
448.96	3573.71
449.16	3297.23
449.36	3006.42
449.57	2740.18
449.77	2568.15
449.98	2482.14
450.18	2562.01
450.39	2555.86
450.59	2590.68
450.79	2396.12
451.00	2383.84
451.20	2566.10
451.41	2461.66
451.61	2564.06
451.81	2478.04
452.02	2455.51
452.22	2414.56
452.43	2432.99
452.63	2449.37
452.84	2351.07
453.04	2387.93
453.24	2535.39
453.45	2396.12
453.65	2480.09
453.86	2494.43
454.06	2545.63
454.26	2504.67
454.47	2394.08
454.67	2506.71
454.87	2480.09
455.08	2498.52
455.28	2598.87
455.49	2432.99
455.69	2367.45
455.89	2787.29
456.10	2527.19
456.30	2482.14
456.51	2586.58
456.71	2525.15
456.91	2430.94
457.12	2471.90
457.32	2482.14
457.52	2383.84
457.73	2531.29
457.93	2551.77
458.14	2316.25
458.34	2344.92
458.54	2455.51
458.75	2420.70
458.95	2607.06
459.15	2531.29
459.36	2535.39
459.56	2457.56
459.76	2807.77
459.97	2523.10
460.17	2445.27
460.37	2559.96
460.58	2424.80
460.78	2574.30
460.99	2396.12
461.19	2449.37
461.39	2418.65
461.60	2398.17
461.80	2486.23
462.00	2355.16
462.21	2443.23
462.41	2340.83
462.61	2416.60
462.82	2306.01
463.02	2514.91
463.22	2508.76
463.43	2555.86
463.63	2490.33
463.83	2592.73
464.04	2539.48
464.24	2467.80
464.44	2303.96
464.64	2498.52
464.85	2555.86
465.05	2521.05
465.25	2453.47
465.46	2408.41
465.66	2617.30
465.86	2473.95
466.07	2463.71
466.27	2449.37
466.47	2287.58
466.68	2285.53
466.88	2617.30
467.08	2494.43
467.29	2580.44
467.49	2494.43
467.69	2451.42
467.89	2635.74
468.10	2457.56
468.30	2486.23
468.50	2584.54
468.71	2662.36
468.91	2406.36
469.11	2588.63
469.31	2478.04
469.52	2336.73
469.72	2721.75
469.92	2662.36
470.13	2455.51
470.33	2555.86
470.53	2668.50
470.73	2895.83
470.94	3299.28
471.14	3506.12
471.34	3864.52
471.54	3672.01
471.75	3323.85
471.95	3076.05
472.15	2940.88
472.36	3067.86
472.56	2971.60
472.76	2897.88
472.96	2973.65
473.17	2783.19
473.37	2707.41
473.57	2496.47
473.77	2676.70
473.98	2471.90
474.18	2396.12
474.38	2840.53
474.58	2387.93
474.79	2426.84
474.99	2586.58
475.19	2637.78
475.39	2297.82
475.60	2416.60
475.80	2467.80
476.00	2555.86
476.20	2523.10
476.41	2555.86
476.61	2566.10
476.81	2611.16
477.01	2373.60
477.21	2588.63
477.42	2506.71
477.62	2389.98
477.82	2635.74
478.02	2412.51
478.23	2490.33
478.43	2400.22
478.63	2424.80
478.83	2465.75
479.03	2502.62
479.24	2588.63
479.44	2781.14
479.64	2422.75
479.84	2207.71
480.04	2336.73
480.25	2514.91
480.45	2408.41
480.65	2455.51
480.85	2734.04
481.06	2408.41
481.26	2572.25
481.46	2453.47
481.66	2568.15
481.86	2396.12
482.06	2611.16
482.27	2381.79
482.47	2437.08
482.67	2590.68
482.87	2467.80
483.07	2588.63
483.28	2404.32
483.48	2392.03
483.68	2377.69
483.88	2363.36
484.08	2226.14
484.29	2365.40
484.49	2447.32
484.69	2332.64
484.89	2631.64
485.09	2645.98
485.29	2490.33
485.50	2537.43
485.70	2469.85
485.90	2633.69
486.10	2457.56
486.30	2502.62
486.50	2703.32
486.71	2582.49
486.91	2535.39
487.11	2533.34
487.31	2412.51
487.51	2490.33
487.71	2375.64
487.91	2400.22
488.12	2377.69
488.32	2187.23
488.52	2379.74
488.72	2187.23
488.92	2514.91
489.12	2693.08
489.32	2609.11
489.53	2449.37
489.73	2310.11
489.93	2682.84
490.13	2377.69
490.33	2367.45
490.53	2416.60
490.73	2547.67
490.94	2213.85
491.14	2545.63
491.34	2572.25
491.54	2731.99
491.74	3416.01
491.94	3973.06
492.14	4280.25
492.34	4452.28
492.54	4071.36
492.75	3467.21
492.95	3373.00
493.15	3276.75
493.35	3186.64
493.55	3053.52
493.75	2949.08
493.95	2955.22
494.15	2768.85
494.35	2564.06
494.56	2584.54
494.76	2381.79
494.96	2512.86
495.16	2379.74
495.36	2432.99
495.56	2482.14
495.76	2457.56
495.96	2396.12
496.16	2383.84
496.36	2719.70
496.56	2430.94
496.77	2457.56
496.97	2543.58
497.17	2748.37
497.37	2351.07
497.57	2588.63
497.77	2521.05
497.97	2387.93
498.17	2445.27
498.37	2441.18
498.57	2580.44
498.77	2412.51
498.97	2568.15
499.17	2688.98
499.38	2400.22
499.58	2594.78
499.78	2605.02
499.98	2588.63
500.18	2379.74
500.38	2441.18
500.58	2744.28
500.78	3071.95
500.98	5427.12
501.18	7583.63
501.38	9236.34
501.58	9813.87
501.78	9740.14
501.98	8019.85
502.18	6703.00
502.38	5822.38
502.58	5504.94
502.78	4941.75
502.98	4573.11
503.18	4489.15
503.38	4048.83
503.59	3600.33
503.79	3395.53
503.99	3192.78
504.19	3037.14
504.39	3147.73
504.59	3069.91
504.79	3069.91
504.99	3147.73
505.19	2854.87
505.39	2731.99
505.59	2916.31
505.79	2766.81
505.99	2744.28
506.19	2609.11
506.39	2699.22
506.59	2498.52
506.79	2545.63
506.99	2578.39
507.19	2441.18
507.39	2559.96
507.59	2428.89
507.79	2373.60
507.99	2406.36
508.19	2531.29
508.39	2453.47
508.59	2490.33
508.79	2592.73
508.99	2801.62
509.19	2475.99
509.39	2547.67
509.59	2408.41
509.79	2457.56
509.99	2586.58
510.19	2684.89
510.39	2496.47
510.59	2582.49
510.79	2457.56
510.99	2340.83
511.19	2422.75
511.39	2678.74
511.59	2666.46
511.79	2676.70
511.99	2457.56
512.19	2699.22
512.38	2506.71
512.58	2473.95
512.78	2371.55
512.98	2645.98
513.18	2711.51
513.38	2314.20
513.58	2541.53
513.78	2471.90
513.98	2574.30
514.18	2424.80
514.38	2441.18
514.58	2559.96
514.78	2478.04
514.98	2365.40
515.18	2457.56
515.38	2371.55
515.58	2727.89
515.78	2435.03
515.98	2471.90
516.18	2582.49
516.38	2555.86
516.57	2375.64
516.77	2400.22
516.97	2592.73
517.17	2412.51
517.37	2310.11
517.57	2465.75
517.77	2533.34
517.97	2449.37
518.17	2596.82
518.37	2344.92
518.57	2506.71
518.77	2447.32
518.97	2412.51
519.16	2496.47
519.36	2643.93
519.56	2490.33
519.76	2408.41
519.96	2400.22
520.16	2650.07
520.36	2414.56
520.56	2654.17
520.76	2398.17
520.96	2463.71
521.16	2633.69
521.35	2645.98
521.55	2531.29
521.75	2623.45
521.95	2400.22
522.15	2422.75
522.35	2297.82
522.55	2398.17
522.75	2537.43
522.95	2432.99
523.14	2367.45
523.34	2514.91
523.54	2494.43
523.74	2529.24
523.94	2504.67
524.14	2383.84
524.34	2541.53
524.54	2582.49
524.73	2408.41
524.93	2549.72
525.13	2519.00
525.33	2369.50
525.53	2734.04
525.73	2588.63
525.93	2521.05
526.13	2301.92
526.32	2432.99
526.52	2543.58
526.72	2594.78
526.92	2437.08
527.12	2355.16
527.32	2346.97
527.52	2523.10
527.71	2543.58
527.91	2387.93
528.11	2439.13
528.31	2441.18
528.51	2430.94
528.71	2514.91
528.90	2551.77
529.10	2641.88
529.30	2510.81
529.50	2228.19
529.70	2486.23
529.90	2506.71
530.09	2432.99
530.29	2404.32
530.49	2334.68
530.69	2815.96
530.89	2449.37
531.09	2473.95
531.28	2447.32
531.48	2680.79
531.68	2461.66
531.88	2424.80
532.08	2568.15
532.28	2465.75
532.47	2498.52
532.67	2496.47
532.87	2568.15
533.07	2373.60
533.27	2539.48
533.46	2586.58
533.66	2572.25
533.86	2516.95
534.06	2553.82
534.26	2514.91
534.45	2443.23
534.65	2654.17
534.85	2539.48
535.05	2375.64
535.25	2535.39
535.44	2265.05
535.64	2543.58
535.84	2490.33
536.04	2566.10
536.24	2512.86
536.43	2447.32
536.63	2500.57
536.83	2465.75
537.03	2480.09
537.22	2269.15
537.42	2353.12
537.62	2504.67
537.82	2430.94
538.02	2711.51
538.21	2559.96
538.41	2789.33
538.61	2578.39
538.81	2473.95
539.00	2527.19
539.20	2363.36
539.40	2512.86
539.60	2492.38
539.79	2605.02
539.99	2461.66
540.19	2336.73
540.39	2424.80
540.58	2545.63
540.78	2621.40
540.98	2420.70
541.18	2670.55
541.37	2478.04
541.57	2449.37
541.77	2607.06
541.97	2432.99
542.16	2324.44
542.36	2387.93
542.56	2465.75
542.76	2633.69
542.95	2539.48
543.15	2527.19
543.35	2582.49
543.54	2443.23
543.74	2412.51
543.94	2676.70
544.14	2469.85
544.33	2586.58
544.53	2414.56
544.73	2424.80
544.93	2320.35
545.12	2478.04
545.32	2496.47
545.52	2463.71
545.71	2330.59
545.91	2420.70
546.11	2447.32
546.30	2351.07
546.50	2461.66
546.70	2494.43
546.90	2525.15
547.09	2308.06
547.29	2478.04
547.49	2512.86
547.68	2498.52
547.88	2379.74
548.08	2590.68
548.27	2924.50
548.47	2414.56
548.67	2437.08
548.87	2551.77
549.06	2461.66
549.26	2447.32
549.46	2592.73
549.65	2461.66
549.85	2504.67
550.05	2537.43
550.24	2400.22
550.44	2539.48
550.64	2455.51
550.83	2445.27
551.03	2668.50
551.23	2590.68
551.42	2535.39
551.62	2471.90
551.82	2486.23
552.01	2445.27
552.21	2584.54
552.41	2508.76
552.60	2664.41
552.80	2564.06
553.00	2475.99
553.19	2424.80
553.39	2650.07
553.59	2346.97
553.78	2553.82
553.98	2482.14
554.17	2367.45
554.37	2545.63
554.57	2529.24
554.76	2291.68
554.96	2392.03
555.16	2539.48
555.35	2539.48
555.55	2465.75
555.75	2572.25
555.94	2600.92
556.14	2351.07
556.33	2486.23
556.53	2480.09
556.73	2586.58
556.92	2492.38
557.12	2531.29
557.32	2777.05
557.51	2633.69
557.71	2555.86
557.90	2676.70
558.10	2734.04
558.30	2432.99
558.49	2351.07
558.69	2482.14
558.88	2502.62
559.08	2490.33
559.28	2467.80
559.47	2541.53
559.67	2533.34
559.86	2668.50
560.06	2441.18
560.26	2443.23
560.45	2555.86
560.65	2375.64
560.84	2596.82
561.04	2406.36
561.24	2617.30
561.43	2373.60
561.63	2670.55
561.82	2461.66
562.02	2553.82
562.22	2396.12
562.41	2400.22
562.61	2457.56
562.80	2408.41
563.00	2856.92
563.19	2516.95
563.39	2506.71
563.59	2559.96
563.78	2297.82
563.98	2238.43
564.17	2389.98
564.37	2256.86
564.56	2512.86
564.76	2324.44
564.96	2572.25
565.15	2549.72
565.35	2805.72
565.54	2441.18
565.74	2535.39
565.93	2512.86
566.13	2447.32
566.32	2471.90
566.52	2600.92
566.71	2480.09
566.91	2519.00
567.11	2482.14
567.30	2463.71
567.50	2629.59
567.69	2564.06
567.89	2441.18
568.08	2418.65
568.28	2539.48
568.47	2355.16
568.67	2496.47
568.86	2432.99
569.06	2619.35
569.25	2504.67
569.45	2375.64
569.64	2379.74
569.84	2480.09
570.04	2529.24
570.23	2389.98
570.43	2437.08
570.62	2609.11
570.82	2652.12
571.01	2406.36
571.21	2369.50
571.40	2383.84
571.60	2551.77
571.79	2461.66
571.99	2467.80
572.18	2398.17
572.38	2469.85
572.57	2449.37
572.77	2432.99
572.96	2756.57
573.16	2494.43
573.35	2445.27
573.55	2588.63
573.74	2512.86
573.94	2490.33
574.13	2496.47
574.33	2633.69
574.52	2717.65
574.71	2482.14
574.91	2572.25
575.10	2443.23
575.30	2461.66
575.49	2449.37
575.69	2490.33
575.88	2519.00
576.08	2512.86
576.27	2635.74
576.47	2547.67
576.66	2670.55
576.86	2695.13
577.05	2555.86
577.25	2549.72
577.44	2668.50
577.64	2557.91
577.83	2615.26
578.02	2465.75
578.22	2541.53
578.41	2781.14
578.61	2435.03
578.80	2293.72
579.00	2568.15
579.19	2541.53
579.39	2584.54
579.58	2437.08
579.77	2465.75
579.97	2572.25
580.16	2621.40
580.36	2498.52
580.55	2580.44
580.75	2545.63
580.94	2570.20
581.13	2674.65
581.33	2645.98
581.52	2437.08
581.72	2785.24
581.91	2621.40
582.11	2539.48
582.30	2652.12
582.49	2596.82
582.69	2703.32
582.88	2557.91
583.08	2527.19
583.27	2662.36
583.47	2533.34
583.66	2367.45
583.85	2402.27
584.05	2498.52
584.24	2594.78
584.44	2529.24
584.63	2572.25
584.82	2600.92
585.02	2666.46
585.21	2602.97
585.41	2645.98
585.60	2600.92
585.79	2693.08
585.99	2736.09
586.18	2635.74
586.37	3215.31
586.57	5011.38
586.76	14810.91
586.96	34147.83
587.15	47109.43
587.34	56403.11
587.54	60929.12
587.73	55518.38
587.93	38929.84
588.12	29376.06
588.31	23625.37
588.51	20764.36
588.70	19220.19
588.89	17045.24
589.09	14720.80
589.28	12572.48
589.47	10106.73
589.67	7968.65
589.86	6201.25
590.06	4521.92
590.25	3905.48
590.44	3395.53
590.64	2949.08
590.83	2805.72
591.02	2709.46
591.22	2588.63
591.41	2605.02
591.60	2467.80
591.80	2867.16
591.99	2392.03
592.18	2449.37
592.38	2666.46
592.57	2490.33
592.76	2564.06
592.96	2590.68
593.15	2459.61
593.34	2641.88
593.54	2475.99
593.73	2582.49
593.92	2600.92
594.12	2662.36
594.31	2553.82
594.50	2678.74
594.70	2584.54
594.89	2813.91
595.08	2453.47
595.28	2592.73
595.47	2969.55
595.66	2654.17
595.86	2418.65
596.05	2461.66
596.24	2392.03
596.43	2672.60
596.63	2672.60
596.82	2582.49
597.01	2627.54
597.21	2775.00
597.40	2504.67
597.59	2586.58
597.79	2527.19
597.98	2609.11
598.17	2635.74
598.36	2494.43
598.56	2586.58
598.75	2480.09
598.94	2549.72
599.14	2490.33
599.33	2451.42
599.52	2605.02
599.71	2611.16
599.91	2592.73
600.10	2572.25
600.29	2500.57
600.48	2594.78
600.68	2490.33
600.87	2562.01
601.06	2473.95
601.26	2531.29
601.45	2486.23
601.64	2506.71
601.83	2740.18
602.03	2430.94
602.22	2353.12
602.41	2674.65
602.60	2793.43
602.80	2547.67
602.99	2500.57
603.18	2506.71
603.37	2523.10
603.57	2457.56
603.76	2516.95
603.95	2686.94
604.14	2459.61
604.34	2424.80
604.53	2389.98
604.72	2506.71
604.91	2602.97
605.10	2527.19
605.30	2357.21
605.49	2713.56
605.68	2637.78
605.87	2473.95
606.07	2432.99
606.26	2559.96
606.45	2578.39
606.64	2457.56
606.84	2461.66
607.03	2500.57
607.22	2574.30
607.41	2484.19
607.60	2510.81
607.80	2609.11
607.99	2496.47
608.18	2494.43
608.37	2449.37
608.56	2400.22
608.76	2621.40
608.95	2637.78
609.14	2543.58
609.33	2691.03
609.52	2742.23
609.72	2596.82
609.91	2674.65
610.10	2521.05
610.29	2654.17
610.48	2525.15
610.68	2496.47
610.87	2516.95
611.06	2637.78
611.25	2478.04
611.44	2547.67
611.63	2465.75
611.83	2588.63
612.02	2371.55
612.21	2572.25
612.40	2297.82
612.59	2379.74
612.79	2396.12
612.98	2562.01
613.17	2785.24
613.36	2506.71
613.55	2629.59
613.74	2502.62
613.93	2617.30
614.13	2658.26
614.32	2727.89
614.51	2678.74
614.70	2611.16
614.89	2523.10
615.08	2650.07
615.28	2944.98
615.47	2441.18
615.66	2576.34
615.85	2492.38
616.04	2658.26
616.23	2568.15
616.42	2469.85
616.62	2555.86
616.81	2504.67
617.00	2506.71
617.19	2531.29
617.38	2375.64
617.57	2605.02
617.76	2535.39
617.95	2519.00
618.15	2564.06
618.34	2660.31
618.53	2439.13
618.72	2680.79
618.91	2592.73
619.10	2600.92
619.29	2490.33
619.48	2494.43
619.68	2410.46
619.87	2459.61
620.06	2334.68
620.25	2574.30
620.44	2412.51
620.63	2457.56
620.82	2449.37
621.01	2547.67
621.20	2459.61
621.39	2535.39
621.59	2566.10
621.78	2564.06
621.97	2486.23
622.16	2568.15
622.35	2547.67
622.54	2637.78
622.73	2510.81
622.92	2232.29
623.11	2574.30
623.30	2469.85
623.49	2537.43
623.68	2404.32
623.88	2668.50
624.07	2516.95
624.26	2457.56
624.45	2486.23
624.64	2459.61
624.83	2502.62
625.02	2441.18
625.21	2428.89
625.40	2498.52
625.59	2611.16
625.78	2455.51
625.97	2629.59
626.16	2691.03
626.35	2656.22
626.54	2586.58
626.74	2719.70
626.93	2492.38
627.12	2494.43
627.31	2539.48
627.50	2611.16
627.69	2592.73
627.88	2400.22
628.07	2445.27
628.26	2349.02
628.45	2398.17
628.64	2361.31
628.83	2543.58
629.02	2310.11
629.21	2584.54
629.40	2547.67
629.59	2449.37
629.78	2504.67
629.97	2547.67
630.16	2523.10
630.35	2498.52
630.54	2521.05
630.73	2500.57
630.92	2516.95
631.11	2447.32
631.30	2457.56
631.49	2637.78
631.68	2496.47
631.87	2424.80
632.06	2314.20
632.25	2758.61
632.44	2508.76
632.63	2602.97
632.82	2473.95
633.01	2527.19
633.20	2588.63
633.39	2529.24
633.58	2451.42
633.77	2670.55
633.96	2641.88
634.15	2568.15
634.34	2498.52
634.53	2543.58
634.72	2467.80
634.91	2326.49
635.10	2562.01
635.29	2658.26
635.48	2482.14
635.67	2299.87
635.86	2240.48
636.05	2633.69
636.24	2486.23
636.43	2494.43
636.62	2512.86
636.81	2303.96
637.00	2467.80
637.19	2562.01
637.38	2523.10
637.57	2396.12
637.76	2496.47
637.95	2752.47
638.14	2537.43
638.33	2639.83
638.52	2541.53
638.71	2443.23
638.89	2435.03
639.08	2908.12
639.27	2613.21
639.46	2760.66
639.65	3176.40
639.84	3114.96
640.03	3344.33
640.22	3071.95
640.41	3176.40
640.60	2768.85
640.79	2832.34
640.98	2592.73
641.17	2691.03
641.36	2705.37
641.55	2691.03
641.74	2480.09
641.92	2453.47
642.11	2478.04
642.30	2488.28
642.49	2420.70
642.68	2473.95
642.87	2475.99
643.06	2666.46
643.25	2351.07
643.44	2394.08
643.63	2447.32
643.82	2637.78
644.00	2342.88
644.19	2496.47
644.38	2373.60
644.57	2482.14
644.76	2467.80
644.95	2381.79
645.14	2514.91
645.33	2445.27
645.52	2435.03
645.71	2351.07
645.89	2349.02
646.08	2471.90
646.27	2445.27
646.46	2641.88
646.65	2312.16
646.84	2424.80
647.03	2346.97
647.22	2535.39
647.40	2527.19
647.59	2412.51
647.78	2318.30
647.97	2375.64
648.16	2389.98
648.35	2652.12
648.54	2580.44
648.73	2396.12
648.91	2602.97
649.10	2471.90
649.29	2416.60
649.48	2447.32
649.67	2506.71
649.86	2523.10
650.05	2453.47
650.23	2701.27
650.42	2596.82
650.61	2844.63
650.80	2697.17
650.99	2768.85
651.18	2645.98
651.36	2772.95
651.55	2404.32
651.74	2621.40
651.93	2482.14
652.12	2506.71
652.31	2492.38
652.49	2398.17
652.68	2506.71
652.87	2668.50
653.06	2514.91
653.25	2746.33
653.44	2555.86
653.62	2772.95
653.81	2473.95
654.00	2428.89
654.19	2635.74
654.38	2787.29
654.56	2510.81
654.75	2432.99
654.94	2553.82
655.13	2482.14
655.32	2392.03
655.51	2471.90
655.69	2420.70
655.88	2607.06
656.07	2340.83
656.26	2469.85
656.45	2342.88
656.63	2559.96
656.82	2535.39
657.01	2596.82
657.20	2461.66
657.38	2680.79
657.57	2484.19
657.76	2254.81
657.95	2574.30
658.14	2498.52
658.32	2482.14
658.51	2373.60
658.70	2504.67
658.89	2508.76
659.08	2553.82
659.26	2686.94
659.45	2367.45
659.64	2643.93
659.83	2449.37
660.01	2875.35
660.20	2619.35
660.39	2611.16
660.58	2295.77
660.76	2562.01
660.95	2377.69
661.14	2523.10
661.33	2363.36
661.51	2441.18
661.70	2398.17
661.89	2502.62
662.08	2478.04
662.26	2340.83
662.45	2437.08
662.64	2680.79
662.83	2516.95
663.01	2269.15
663.20	2449.37
663.39	2760.66
663.58	2488.28
663.76	2392.03
663.95	2643.93
664.14	2336.73
664.32	2408.41
664.51	2322.40
664.70	2340.83
664.89	2602.97
665.07	2308.06
665.26	2588.63
665.45	2396.12
665.64	2564.06
665.82	2349.02
666.01	2572.25
666.20	2439.13
666.38	2648.02
666.57	2619.35
666.76	3872.71
666.95	9574.25
667.13	17704.69
667.32	22478.50
667.51	25935.48
667.69	27414.11
667.88	24325.77
668.07	17157.88
668.25	13915.95
668.44	11837.26
668.63	10182.50
668.81	9082.74
669.00	7837.58
669.19	6973.33
669.38	6008.74
669.56	5068.72
669.75	4417.47
669.94	3850.18
670.12	3239.89
670.31	2871.25
670.50	2768.85
670.68	2754.52
670.87	2631.64
671.06	2535.39
671.24	2549.72
671.43	2711.51
671.62	2541.53
671.80	2437.08
671.99	2504.67
672.18	2478.04
672.36	2670.55
672.55	2607.06
672.74	2502.62
672.92	2471.90
673.11	2576.34
673.29	2375.64
673.48	2572.25
673.67	2349.02
673.85	2594.78
674.04	2469.85
674.23	2492.38
674.41	2686.94
674.60	2334.68
674.79	2293.72
674.97	2406.36
675.16	2596.82
675.34	2666.46
675.53	2453.47
675.72	2592.73
675.90	2707.41
676.09	2478.04
676.28	2404.32
676.46	2256.86
676.65	2619.35
676.83	2432.99
677.02	2496.47
677.21	2457.56
677.39	2449.37
677.58	2400.22
677.77	2422.75
677.95	2410.46
678.14	2424.80
678.32	2459.61
678.51	2416.60
678.70	2650.07
678.88	2463.71
679.07	2475.99
679.25	2490.33
679.44	2437.08
679.63	2279.39
679.81	2523.10
680.00	2588.63
680.18	2480.09
680.37	2648.02
680.55	2580.44
680.74	2322.40
680.93	2285.53
681.11	2504.67
681.30	2525.15
681.48	2412.51
681.67	2512.86
681.85	2498.52
682.04	2394.08
682.23	2525.15
682.41	2559.96
682.60	2478.04
682.78	2576.34
682.97	2398.17
683.15	2549.72
683.34	2519.00
683.53	2678.74
683.71	2297.82
683.90	2602.97
684.08	2695.13
684.27	2449.37
684.45	2516.95
684.64	2578.39
684.82	2486.23
685.01	2531.29
685.19	2408.41
685.38	2678.74
685.57	2521.05
685.75	2465.75
685.94	2392.03
686.12	2359.26
686.31	2465.75
686.49	2695.13
686.68	2263.01
686.86	2465.75
687.05	2482.14
687.23	2598.87
687.42	2383.84
687.60	2346.97
687.79	2600.92
687.97	2629.59
688.16	2578.39
688.34	2594.78
688.53	2320.35
688.71	2523.10
688.90	2621.40
689.08	2488.28
689.27	2285.53
689.45	2598.87
689.64	2557.91
689.82	2545.63
690.01	2486.23
690.19	2484.19
690.38	2400.22
690.56	2555.86
690.75	2398.17
690.93	2396.12
691.12	2402.27
691.30	2504.67
691.49	2463.71
691.67	2482.14
691.86	2678.74
692.04	2420.70
692.23	2482.14
692.41	2480.09
692.60	2693.08
692.78	2654.17
692.97	2498.52
693.15	2658.26
693.34	2756.57
693.52	2680.79
693.71	2457.56
693.89	2373.60
694.08	2260.96
694.26	2559.96
694.44	2598.87
694.63	2525.15
694.81	2424.80
695.00	2406.36
695.18	2564.06
695.37	2867.16
695.55	2494.43
695.74	2502.62
695.92	2439.13
696.10	2648.02
696.29	2293.72
696.47	2412.51
696.66	2342.88
696.84	2402.27
697.03	2394.08
697.21	2682.84
697.40	3682.25
697.58	2701.27
697.76	2469.85
697.95	2404.32
698.13	2367.45
698.32	2449.37
698.50	2500.57
698.68	2512.86
698.87	2469.85
699.05	2596.82
699.24	2457.56
699.42	2328.54
699.61	2506.71
699.79	2523.10
699.97	2420.70
700.16	2342.88
700.34	2336.73
700.53	2432.99
700.71	2553.82
700.89	2586.58
701.08	2412.51
701.26	2535.39
701.45	3018.71
701.63	2432.99
701.81	2375.64
702.00	2369.50
702.18	2537.43
702.37	2478.04
702.55	2785.24
702.73	2584.54
702.92	2543.58
703.10	2818.00
703.28	2711.51
703.47	2412.51
703.65	2736.09
703.84	2643.93
704.02	2424.80
704.20	2832.34
704.39	2392.03
704.57	2488.28
704.75	2629.59
704.94	2543.58
705.12	2535.39
705.30	2895.83
705.49	5439.40
705.67	12472.13
705.86	20397.77
706.04	24008.34
706.22	27076.19
706.41	27680.35
706.59	22288.04
706.77	16234.25
706.96	13862.70
707.14	12160.84
707.32	10501.98
707.51	9176.95
707.69	7524.24
707.87	6016.93
708.06	4890.55
708.24	4067.27
708.42	3325.90
708.61	3182.54
708.79	2643.93
708.97	2662.36
709.16	2629.59
709.34	2629.59
709.52	2465.75
709.71	2531.29
709.89	2600.92
710.07	2437.08
710.26	2379.74
710.44	2432.99
710.62	2613.21
710.80	2457.56
710.99	2650.07
711.17	2502.62
711.35	2392.03
711.54	2435.03
711.72	2531.29
711.90	2531.29
712.09	2463.71
712.27	2416.60
712.45	2537.43
712.63	2383.84
712.82	2523.10
713.00	2510.81
713.18	2492.38
713.37	2605.02
713.55	2609.11
713.73	2541.53
713.91	2568.15
714.10	2422.75
714.28	2523.10
714.46	2510.81
714.65	2539.48
714.83	2443.23
715.01	2471.90
715.19	2547.67
715.38	2381.79
715.56	2582.49
715.74	2346.97
715.92	2435.03
716.11	2686.94
716.29	2254.81
716.47	2494.43
716.65	2449.37
716.84	2265.05
717.02	2578.39
717.20	2260.96
717.38	2414.56
717.57	2559.96
717.75	2451.42
717.93	2414.56
718.11	2508.76
718.30	2351.07
718.48	2463.71
718.66	2654.17
718.84	2680.79
719.03	2439.13
719.21	2291.68
719.39	2742.23
719.57	2535.39
719.75	2586.58
719.94	2285.53
720.12	2473.95
720.30	2494.43
720.48	2555.86
720.67	2357.21
720.85	2328.54
721.03	2443.23
721.21	2334.68
721.39	2539.48
721.58	2600.92
721.76	2519.00
721.94	2596.82
722.12	2478.04
722.30	2711.51
722.49	2514.91
722.67	2453.47
722.85	2500.57
723.03	2324.44
723.21	2346.97
723.40	2486.23
723.58	2555.86
723.76	2617.30
723.94	2686.94
724.12	2566.10
724.30	2668.50
724.49	2658.26
724.67	2490.33
724.85	2619.35
725.03	2379.74
725.21	2670.55
725.40	2654.17
725.58	2381.79
725.76	2545.63
725.94	2580.44
726.12	2363.36
726.30	2471.90
726.49	2392.03
726.67	2461.66
726.85	2592.73
727.03	2965.46
727.21	4278.21
727.39	5844.90
727.57	6713.24
727.76	7229.33
727.94	7479.18
728.12	6739.87
728.30	5527.47
728.48	4931.51
728.66	4530.11
728.84	4063.17
729.03	3499.98
729.21	3205.07
729.39	2965.46
729.57	2674.65
729.75	2703.32
729.93	2578.39
730.11	2463.71
730.30	2432.99
730.48	2516.95
730.66	2641.88
730.84	2506.71
731.02	2441.18
731.20	2484.19
731.38	2375.64
731.56	2351.07
731.74	2279.39
731.93	2492.38
732.11	2473.95
732.29	2398.17
732.47	2572.25
732.65	2521.05
732.83	2645.98
733.01	2441.18
733.19	2428.89
733.37	2621.40
733.56	2498.52
733.74	2455.51
733.92	2705.37
734.10	2412.51
734.28	2553.82
734.46	2330.59
734.64	2412.51
734.82	2449.37
735.00	2392.03
735.18	2486.23
735.36	2551.77
735.54	2467.80
735.73	2447.32
735.91	2555.86
736.09	2578.39
736.27	2543.58
736.45	2475.99
736.63	2252.77
736.81	2490.33
736.99	2613.21
737.17	2592.73
737.35	2435.03
737.53	2594.78
737.71	2408.41
737.89	2623.45
738.07	2394.08
738.25	2357.21
738.43	2357.21
738.61	2490.33
738.80	2277.34
738.98	2361.31
739.16	2357.21
739.34	2373.60
739.52	2602.97
739.70	2447.32
739.88	2562.01
740.06	2596.82
740.24	2306.01
740.42	2637.78
740.60	2263.01
740.78	2359.26
740.96	2293.72
741.14	2402.27
741.32	2459.61
741.50	2334.68
741.68	2688.98
741.86	2717.65
742.04	2318.30
742.22	2326.49
742.40	2428.89
742.58	2605.02
742.76	2342.88
742.94	2654.17
743.12	2246.62
743.30	2492.38
743.48	2496.47
743.66	2334.68
743.84	2482.14
744.02	2420.70
744.20	2416.60
744.38	2373.60
744.56	2441.18
744.74	2670.55
744.92	2590.68
745.10	2658.26
745.28	2602.97
745.46	2668.50
745.64	2492.38
745.82	2512.86
746.00	2475.99
746.18	2492.38
746.36	2447.32
746.54	2562.01
746.72	2506.71
746.90	2394.08
747.08	2670.55
747.26	2408.41
747.44	2574.30
747.62	2594.78
747.80	2508.76
747.98	2545.63
748.15	2437.08
748.33	2670.55
748.51	2510.81
748.69	2553.82
748.87	2418.65
749.05	2498.52
749.23	2502.62
749.41	2432.99
749.59	2428.89
749.77	2660.31
749.95	2340.83
750.13	2414.56
750.31	2506.71
750.49	2490.33
750.67	2617.30
750.85	2570.20
751.03	2549.72
751.20	2725.85
751.38	2437.08
751.56	2437.08
751.74	2389.98
751.92	2471.90
752.10	2306.01
752.28	2605.02
752.46	2379.74
752.64	2381.79
752.82	2486.23
753.00	2678.74
753.18	2373.60
753.35	2449.37
753.53	2463.71
753.71	2392.03
753.89	2533.34
754.07	2555.86
754.25	2613.21
754.43	2543.58
754.61	2328.54
754.79	2519.00
754.97	2461.66
755.14	2605.02
755.32	2375.64
755.50	2523.10
755.68	2519.00
755.86	2328.54
756.04	2387.93
756.22	2310.11
756.40	2572.25
756.57	2703.32
756.75	2375.64
756.93	2596.82
757.11	2486.23
757.29	2367.45
757.47	2355.16
757.65	2326.49
757.82	2170.85
758.00	2363.36
758.18	2394.08
758.36	2375.64
758.54	2703.32
758.72	2199.52
758.90	2506.71
759.07	2523.10
759.25	2443.23
759.43	2502.62
759.61	2336.73
759.79	3569.61
759.97	2557.91
760.15	2447.32
760.32	2441.18
760.50	2643.93
760.68	2662.36
760.86	2250.72
761.04	2693.08
761.22	2549.72
761.39	2416.60
761.57	2480.09
761.75	2445.27
761.93	2482.14
762.11	2502.62
762.28	2535.39
762.46	2392.03
762.64	2637.78
762.82	2279.39
763.00	2496.47
763.18	2580.44
763.35	2303.96
763.53	2568.15
763.71	2469.85
763.89	2467.80
764.07	2482.14
764.24	2541.53
764.42	2588.63
764.60	2420.70
764.78	2539.48
764.96	2613.21
765.13	2566.10
765.31	2451.42
765.49	2584.54
765.67	2400.22
765.84	2355.16
766.02	2414.56
766.20	2340.83
766.38	2602.97
766.56	2543.58
766.73	2502.62
766.91	2521.05
767.09	2471.90
767.27	2465.75
767.44	2318.30
767.62	2547.67
767.80	2498.52
767.98	2424.80
768.15	2437.08
768.33	2519.00
768.51	2539.48
768.69	2465.75
768.87	2494.43
769.04	2490.33
769.22	2775.00
769.40	2609.11
769.58	2662.36
769.75	2592.73
769.93	2699.22
770.11	2437.08
770.28	2271.20
770.46	2615.26
770.64	2453.47
770.82	2396.12
770.99	2371.55
771.17	2562.01
771.35	2494.43
771.53	2449.37
771.70	2330.59
771.88	2529.24
772.06	2398.17
772.23	2398.17
772.41	2611.16
772.59	2471.90
772.77	2457.56
772.94	2496.47
773.12	2486.23
773.30	2457.56
773.47	2455.51
773.65	2310.11
773.83	2641.88
774.01	2428.89
774.18	2291.68
774.36	2482.14
774.54	2402.27
774.71	2568.15
774.89	2322.40
775.07	2361.31
775.24	2346.97
775.42	2398.17
775.60	2744.28
775.78	2367.45
775.95	2308.06
776.13	2275.29
776.31	2254.81
776.48	2475.99
776.66	2533.34
776.84	2435.03
777.01	2297.82
777.19	2260.96
777.37	2355.16
777.54	2480.09
777.72	2701.27
777.90	2506.71
778.07	2375.64
778.25	2854.87
778.43	2609.11
778.60	2363.36
778.78	2574.30
778.96	2682.84
779.13	2367.45
779.31	2572.25
779.49	2432.99
779.66	2527.19
779.84	2424.80
780.01	2465.75
780.19	2447.32
780.37	2541.53
780.54	2568.15
780.72	2351.07
780.90	2455.51
781.07	2410.46
781.25	2416.60
781.43	2533.34
781.60	2471.90
781.78	2641.88
781.95	2488.28
782.13	2334.68
782.31	2439.13
782.48	2306.01
782.66	2473.95
782.83	2684.89
783.01	2478.04
783.19	2613.21
783.36	2449.37
783.54	2398.17
783.72	2506.71
783.89	2326.49
784.07	2523.10
784.24	2525.15
784.42	2590.68
784.60	2521.05
784.77	2482.14
784.95	2285.53
785.12	2414.56
785.30	2519.00
785.47	2365.40
785.65	2349.02
785.83	2469.85
786.00	2340.83
786.18	2379.74
786.35	2320.35
786.53	2342.88
786.71	2564.06
786.88	2545.63
787.06	2426.84
787.23	2461.66
787.41	2273.25
787.58	2435.03
787.76	2406.36
787.94	2482.14
788.11	2512.86
788.29	2271.20
788.46	2400.22
788.64	2355.16
788.81	2473.95
788.99	2351.07
789.16	2277.34
789.34	2451.42
789.52	2426.84
789.69	2443.23
789.87	2195.42
790.04	2365.40
790.22	2484.19
790.39	2727.89
790.57	2334.68
790.74	2375.64
790.92	2598.87
791.09	2285.53
791.27	2445.27
791.44	2545.63
791.62	2490.33
791.79	2596.82
791.97	2465.75
792.15	2820.05
792.32	2551.77
792.50	2562.01
792.67	2650.07
792.85	2645.98
793.02	2496.47
793.20	2375.64
793.37	2326.49
793.55	2404.32
793.72	2449.37
793.90	2486.23
794.07	2367.45
794.25	2416.60
794.42	2570.20
794.60	2432.99
794.77	2424.80
794.95	2471.90
795.12	2580.44
795.30	2420.70
795.47	2312.16
795.65	2740.18
795.82	2506.71
796.00	2441.18
796.17	2404.32
796.34	2328.54
796.52	2539.48
796.69	2607.06
796.87	2514.91
797.04	2545.63
797.22	2592.73
797.39	2519.00
797.57	2559.96
797.74	2521.05
797.92	2529.24
798.09	2447.32
798.27	2590.68
798.44	2357.21
798.62	2416.60
798.79	2521.05
798.96	2422.75
799.14	2465.75
799.31	2809.81
799.49	2453.47
799.66	2394.08
799.84	2543.58
800.01	2426.84
800.19	2463.71
800.36	2258.91
800.53	2463.71
800.71	2537.43
800.88	2678.74
801.06	2322.40
801.23	2502.62
801.41	2387.93
801.58	2367.45
801.75	2420.70
801.93	2598.87
802.10	2553.82
802.28	2418.65
802.45	2387.93
802.63	2553.82
802.80	2605.02
802.97	2404.32
803.15	2478.04
803.32	2441.18
803.50	2389.98
803.67	2443.23
803.84	2281.44
804.02	2455.51
804.19	2365.40
804.37	2195.42
804.54	2346.97
804.71	2344.92
804.89	2422.75
805.06	2387.93
805.24	2400.22
805.41	2332.64
805.58	2422.75
805.76	2738.13
805.93	2496.47
806.10	2627.54
806.28	2578.39
806.45	2449.37
806.63	2527.19
806.80	2496.47
806.97	2559.96
807.15	2496.47
807.32	2465.75
807.49	2461.66
807.67	2334.68
807.84	2465.75
808.01	2336.73
808.19	2666.46
808.36	2709.46
808.54	2418.65
808.71	2365.40
808.88	2455.51
809.06	2621.40
809.23	2602.97
809.40	2375.64
809.58	2471.90
809.75	2478.04
809.92	2424.80
810.10	2727.89
810.27	2426.84
810.44	2480.09
810.62	2564.06
810.79	2506.71
810.96	2371.55
811.14	2351.07
811.31	2498.52
811.48	2516.95
811.66	2463.71
811.83	2564.06
812.00	2535.39
812.18	2432.99
812.35	2652.12
812.52	2482.14
812.69	2342.88
812.87	2351.07
813.04	2396.12
813.21	2369.50
813.39	2349.02
813.56	2422.75
813.73	2650.07
813.91	2361.31
814.08	2455.51
814.25	2488.28
814.42	2340.83
814.60	2439.13
814.77	2428.89
814.94	2453.47
815.12	2457.56
815.29	2645.98
815.46	2324.44
815.63	2451.42
815.81	2428.89
815.98	2420.70
816.15	2510.81
816.33	2471.90
816.50	2443.23
816.67	2496.47
816.84	2486.23
817.02	2301.92
817.19	2416.60
817.36	2432.99
817.53	2527.19
817.71	2355.16
817.88	2504.67
818.05	2445.27
818.22	2400.22
818.40	2639.83
818.57	2383.84
818.74	2512.86
818.91	2432.99
819.09	2463.71
819.26	2580.44
819.43	2357.21
819.60	2414.56
819.78	2500.57
819.95	2543.58
820.12	2338.78
820.29	2680.79
820.47	2586.58
820.64	2371.55
820.81	2308.06
820.98	2418.65
821.15	2426.84
821.33	2600.92
821.50	2344.92
821.67	2512.86
821.84	2430.94
822.02	2498.52
822.19	2588.63
822.36	2410.46
822.53	2439.13
822.70	2326.49
822.88	2416.60
823.05	2602.97
823.22	2373.60
823.39	2488.28
823.56	2439.13
823.74	2623.45
823.91	2373.60
824.08	2293.72
824.25	2412.51
824.42	2701.27
824.60	2306.01
824.77	2490.33
824.94	2435.03
825.11	2549.72
825.28	2289.63
825.45	2439.13
825.63	2463.71
825.80	2351.07
825.97	2490.33
826.14	2506.71
826.31	2295.77
826.48	2510.81
826.66	2381.79
826.83	2359.26
827.00	2355.16
827.17	2324.44
827.34	2406.36
827.51	2342.88
827.69	2369.50
827.86	2346.97
828.03	2437.08
828.20	2478.04
828.37	2449.37
828.54	2555.86
828.71	2392.03
828.89	2592.73
829.06	2519.00
829.23	2703.32
829.40	2410.46
829.57	2334.68
829.74	2523.10
829.91	2453.47
830.09	2351.07
830.26	2588.63
830.43	2670.55
830.60	2465.75
830.77	2641.88
830.94	2598.87
831.11	2480.09
831.28	2400.22
831.46	2514.91
831.63	2432.99
831.80	2584.54
831.97	2351.07
832.14	2355.16
832.31	2432.99
832.48	2562.01
832.65	2605.02
832.82	2449.37
832.99	2461.66
833.17	2328.54
833.34	2590.68
833.51	2545.63
833.68	2172.89
833.85	2611.16
834.02	2420.70
834.19	2312.16
834.36	2389.98
834.53	2475.99
834.70	2551.77
834.87	2555.86
835.04	2318.30
835.22	2334.68
835.39	2455.51
835.56	2265.05
835.73	2402.27
835.90	2629.59
836.07	2281.44
836.24	2457.56
836.41	2332.64
836.58	2400.22
836.75	2596.82
836.92	2383.84
837.09	2396.12
837.26	2568.15
837.43	2486.23
837.60	2430.94
837.77	2404.32
837.94	2570.20
838.12	2605.02
838.29	2392.03
838.46	2291.68
838.63	2353.12
838.80	2672.60
838.97	2469.85
839.14	2406.36
839.31	2402.27
839.48	2607.06
839.65	2373.60
839.82	2467.80
839.99	2531.29
840.16	2424.80
840.33	2338.78
840.50	2346.97
840.67	2351.07
840.84	2228.19
841.01	2281.44
841.18	2297.82
841.35	2473.95
841.52	2588.63
841.69	2662.36
841.86	2389.98
842.03	2527.19
842.20	2586.58
842.37	2346.97
842.54	2424.80
842.71	2555.86
842.88	2303.96
843.05	2412.51
843.22	2359.26
843.39	2514.91
843.56	2473.95
843.73	2359.26
843.90	2400.22
844.07	2514.91
844.24	2621.40
844.41	2435.03
844.58	2387.93
844.75	2379.74
844.92	2506.71
845.09	2410.46
845.26	2402.27
845.43	2553.82
845.60	2379.74
845.77	2500.57
845.94	2469.85
846.10	2617.30
846.27	2316.25
846.44	2361.31
846.61	2269.15
846.78	2574.30
846.95	2539.48
847.12	2303.96
847.29	2428.89
847.46	2383.84
847.63	2516.95
847.80	2383.84
847.97	2330.59
848.14	2795.48
848.31	2463.71
848.48	2316.25
848.65	2471.90
848.82	2439.13
848.98	2750.42
849.15	2486.23
849.32	2482.14
849.49	2551.77
849.66	2496.47
849.83	2359.26
850.00	2365.40
850.17	2602.97
850.34	2389.98
850.51	2363.36
850.68	2365.40
850.85	2701.27
851.01	2490.33
851.18	2463.71
851.35	2408.41
851.52	2605.02
851.69	2578.39
851.86	2211.81
852.03	2375.64
852.20	2584.54
852.37	2521.05
852.53	2293.72
852.70	2406.36
852.87	2416.60
853.04	2547.67
853.21	2375.64
853.38	2557.91
853.55	2564.06
853.72	2574.30
853.89	2297.82
854.05	2316.25
854.22	2379.74
854.39	2443.23
854.56	2342.88
854.73	2455.51
854.90	2363.36
855.07	2539.48
855.23	2303.96
855.40	2383.84
855.57	2418.65
855.74	2254.81
855.91	2531.29
856.08	2334.68
856.25	2314.20
856.41	2441.18
856.58	2408.41
856.75	2402.27
856.92	2381.79
857.09	2582.49
857.26	2260.96
857.42	2439.13
857.59	2600.92
857.76	2437.08
857.93	2447.32
858.10	2455.51
858.27	2330.59
858.43	2508.76
858.60	2412.51
858.77	2269.15
858.94	2457.56
859.11	2596.82
859.27	2379.74
859.44	2387.93
859.61	2664.41
859.78	2527.19
859.95	2359.26
860.12	2375.64
860.28	2742.23
860.45	2748.37
860.62	2394.08
860.79	2482.14
860.95	2430.94
861.12	2310.11
861.29	2306.01
861.46	2369.50
861.63	2410.46
861.79	2523.10
861.96	2326.49
862.13	2342.88
862.30	2691.03
862.47	2453.47
862.63	2260.96
862.80	2445.27
862.97	2586.58
863.14	2543.58
863.30	2455.51
863.47	2324.44
863.64	2676.70
863.81	2480.09
863.97	2334.68
864.14	2453.47
864.31	2441.18
864.48	2590.68
864.65	2406.36
864.81	2592.73
864.98	2527.19
865.15	2621.40
865.32	2432.99
865.48	2447.32
865.65	2643.93
865.82	2387.93
865.98	2408.41
866.15	2527.19
866.32	2494.43
866.49	2473.95
866.65	2506.71
866.82	2285.53
866.99	2531.29
867.16	2324.44
867.32	2396.12
867.49	2232.29
867.66	2424.80
867.83	2422.75
867.99	2363.36
868.16	2465.75
868.33	2308.06
868.49	2357.21
868.66	2455.51
868.83	2457.56
868.99	2564.06
869.16	2498.52
869.33	2445.27
869.50	2498.52
869.66	2418.65
869.83	2441.18
870.00	2285.53
870.16	2457.56
870.33	2443.23
870.50	2564.06
870.66	2453.47
870.83	2467.80
871.00	2492.38
871.17	2537.43
871.33	2426.84
871.50	2365.40
871.67	2465.75
871.83	2422.75
872.00	2512.86
872.17	2400.22
872.33	2668.50
872.50	2633.69
872.67	2394.08
872.83	2424.80
873.00	2498.52
873.17	2512.86
873.33	2478.04
873.50	2441.18
873.67	2332.64
873.83	2363.36
874.00	2351.07
874.16	2473.95
874.33	2545.63
874.50	2285.53
874.66	2437.08
874.83	2406.36
875.00	2512.86
875.16	2625.50
875.33	2426.84
875.50	2228.19
875.66	2443.23
875.83	2533.34
875.99	2490.33
876.16	2445.27
876.33	2369.50
876.49	2453.47
876.66	2359.26
876.83	2420.70
876.99	2291.68
877.16	2555.86
877.32	2334.68
877.49	2416.60
877.66	2510.81
877.82	2658.26
877.99	2484.19
878.15	2555.86
878.32	2449.37
878.49	2500.57
878.65	2410.46
878.82	2545.63
878.98	2426.84
879.15	2619.35
879.32	2547.67
879.48	2453.47
879.65	2443.23
879.81	2439.13
879.98	2379.74
880.15	2326.49
880.31	2535.39
880.48	2295.77
880.64	2471.90
880.81	2402.27
880.97	2652.12
881.14	2615.26
881.31	2291.68
881.47	2547.67
881.64	2412.51
881.80	2250.72
881.97	2471.90
882.13	2389.98
882.30	2342.88
882.47	2449.37
882.63	2369.50
882.80	2346.97
882.96	2371.55
883.13	2695.13
883.29	2482.14
883.46	2408.41
883.62	2789.33
883.79	2459.61
883.95	2482.14
884.12	2353.12
884.29	2613.21
884.45	2541.53
884.62	2453.47
884.78	2303.96
884.95	2662.36
885.11	2383.84
885.28	2500.57
885.44	2394.08
885.61	2562.01
885.77	2686.94
885.94	2422.75
886.10	2531.29
886.27	2543.58
886.43	2629.59
886.60	2490.33
886.76	2338.78
886.93	2432.99
887.09	2490.33
887.26	2213.85
887.42	2439.13
887.59	2617.30
887.75	2742.23
887.92	2572.25
888.08	2478.04
888.25	2674.65
888.41	2541.53
888.58	2432.99
888.74	2314.20
888.91	2420.70
>>>>>End Processed Spectral Data<<<<<
