SpectraSuite Data File
++++++++++++++++++++++++++++++++++++
Date: Thu May 05 14:41:28 CEST 2016
User: root
Dark Spectrum Present: No
Reference Spectrum Present: No
Number of Sampled Component Spectra: 1
Spectrometers: USB4C02835
Integration Time (usec): 100000 (USB4C02835)
Spectra Averaged: 1 (USB4C02835)
Boxcar Smoothing: 0 (USB4C02835)
Correct for Electrical Dark: No (USB4C02835)
Strobe/Lamp Enabled: No (USB4C02835)
Correct for Detector Non-linearity: No (USB4C02835)
Correct for Stray Light: No (USB4C02835)
Number of Pixels in Processed Spectrum: 3648
>>>>>Begin Processed Spectral Data<<<<<
177.47	1865.70
177.69	1865.70
177.91	1865.70
178.13	1927.14
178.36	1914.85
178.58	2377.69
178.80	2551.77
179.02	2336.73
179.24	2353.12
179.46	2334.68
179.68	2351.07
179.90	2406.36
180.13	2500.57
180.35	2195.42
180.57	2336.73
180.79	2592.73
181.01	2510.81
181.23	2408.41
181.45	2432.99
181.67	2637.78
181.90	2514.91
182.12	2346.97
182.34	2234.33
182.56	2516.95
182.78	2498.52
183.00	2265.05
183.22	2340.83
183.44	2267.10
183.66	2887.64
183.89	2449.37
184.11	2416.60
184.33	2574.30
184.55	2635.74
184.77	2383.84
184.99	2357.21
185.21	2449.37
185.43	2758.61
185.65	2359.26
185.87	2326.49
186.10	2709.46
186.32	2691.03
186.54	2381.79
186.76	2422.75
186.98	2568.15
187.20	2396.12
187.42	2283.49
187.64	2369.50
187.86	2521.05
188.08	2615.26
188.30	2285.53
188.52	2359.26
188.75	2621.40
188.97	2672.60
189.19	2355.16
189.41	2297.82
189.63	2609.11
189.85	2484.19
190.07	2232.29
190.29	2232.29
190.51	2523.10
190.73	2273.25
190.95	2504.67
191.17	2361.31
191.39	2299.87
191.61	2441.18
191.84	2375.64
192.06	2498.52
192.28	2314.20
192.50	2920.40
192.72	2461.66
192.94	2406.36
193.16	2613.21
193.38	2580.44
193.60	2260.96
193.82	2369.50
194.04	2654.17
194.26	2475.99
194.48	2371.55
194.70	2314.20
194.92	2455.51
195.14	2613.21
195.36	2299.87
195.58	2365.40
195.80	2504.67
196.02	2414.56
196.24	2385.88
196.46	2445.27
196.69	2457.56
196.91	2836.44
197.13	2373.60
197.35	2375.64
197.57	2662.36
197.79	2514.91
198.01	2396.12
198.23	2379.74
198.45	2584.54
198.67	2367.45
198.89	2236.38
199.11	2359.26
199.33	2424.80
199.55	2232.29
199.77	2285.53
199.99	2469.85
200.21	2441.18
200.43	2523.10
200.65	2244.57
200.87	2211.81
201.09	2473.95
201.31	2408.41
201.53	2351.07
201.75	2314.20
201.97	2564.06
202.19	2521.05
202.41	2340.83
202.63	2529.24
202.85	2619.35
203.07	2512.86
203.29	2283.49
203.51	2265.05
203.73	2328.54
203.95	2863.06
204.17	2383.84
204.39	2430.94
204.61	2535.39
204.83	2504.67
205.05	2387.93
205.27	2375.64
205.49	2828.24
205.71	2375.64
205.93	2260.96
206.15	2258.91
206.37	2480.09
206.59	2408.41
206.81	2252.77
207.03	2273.25
207.25	2332.64
207.47	2613.21
207.69	2375.64
207.91	2502.62
208.13	2600.92
208.34	2424.80
208.56	2287.58
208.78	2330.59
209.00	2375.64
209.22	2441.18
209.44	2359.26
209.66	2293.72
209.88	2535.39
210.10	2516.95
210.32	2387.93
210.54	2432.99
210.76	2367.45
210.98	2545.63
211.20	2224.09
211.42	2482.14
211.64	2643.93
211.86	2486.23
212.08	2441.18
212.30	2400.22
212.52	2502.62
212.74	2543.58
212.96	2387.93
213.17	2392.03
213.39	2564.06
213.61	2650.07
213.83	2357.21
214.05	2383.84
214.27	2572.25
214.49	2340.83
214.71	2281.44
214.93	2418.65
215.15	2494.43
215.37	2602.97
215.59	2260.96
215.81	2445.27
216.03	2625.50
216.24	2551.77
216.46	2371.55
216.68	2445.27
216.90	2580.44
217.12	2557.91
217.34	2314.20
217.56	2475.99
217.78	2643.93
218.00	2521.05
218.22	2408.41
218.44	2357.21
218.66	2490.33
218.87	2688.98
219.09	2334.68
219.31	2383.84
219.53	2502.62
219.75	2471.90
219.97	2367.45
220.19	2312.16
220.41	2510.81
220.63	2707.41
220.85	2400.22
221.06	2379.74
221.28	2658.26
221.50	2469.85
221.72	2293.72
221.94	2242.53
222.16	2455.51
222.38	2598.87
222.60	2351.07
222.82	2351.07
223.03	2584.54
223.25	2392.03
223.47	2342.88
223.69	2525.15
223.91	2512.86
224.13	2564.06
224.35	2275.29
224.57	2484.19
224.78	2557.91
225.00	2363.36
225.22	2398.17
225.44	2316.25
225.66	2586.58
225.88	2314.20
226.10	2389.98
226.32	2422.75
226.53	2635.74
226.75	2432.99
226.97	2385.88
227.19	2369.50
227.41	2396.12
227.63	2432.99
227.85	2217.95
228.06	2340.83
228.28	2435.03
228.50	2621.40
228.72	2211.81
228.94	2318.30
229.16	2365.40
229.37	2326.49
229.59	2320.35
229.81	2498.52
230.03	2408.41
230.25	2377.69
230.47	2197.47
230.69	2281.44
230.90	2547.67
231.12	2414.56
231.34	2412.51
231.56	2426.84
231.78	2318.30
232.00	2523.10
232.21	2400.22
232.43	2252.77
232.65	2230.24
232.87	2553.82
233.09	2220.00
233.30	2299.87
233.52	2670.55
233.74	2467.80
233.96	2359.26
234.18	2453.47
234.40	2445.27
234.61	2748.37
234.83	2314.20
235.05	2291.68
235.27	2815.96
235.49	2645.98
235.70	2314.20
235.92	2484.19
236.14	2572.25
236.36	2854.87
236.58	2193.37
236.79	2410.46
237.01	2482.14
237.23	2441.18
237.45	2465.75
237.67	2365.40
237.88	2455.51
238.10	2688.98
238.32	2299.87
238.54	2310.11
238.76	2424.80
238.97	2396.12
239.19	2226.14
239.41	2408.41
239.63	2598.87
239.85	2402.27
240.06	2365.40
240.28	2371.55
240.50	2588.63
240.72	2367.45
240.93	2326.49
241.15	2424.80
241.37	2469.85
241.59	2617.30
241.81	2447.32
242.02	2353.12
242.24	2473.95
242.46	2535.39
242.68	2242.53
242.89	2269.15
243.11	2611.16
243.33	2445.27
243.55	2349.02
243.76	2387.93
243.98	2508.76
244.20	2467.80
244.42	2322.40
244.64	2373.60
244.85	2334.68
245.07	2398.17
245.29	2326.49
245.51	2422.75
245.72	2504.67
245.94	2572.25
246.16	2389.98
246.38	2400.22
246.59	2451.42
246.81	2406.36
247.03	2324.44
247.24	2228.19
247.46	2379.74
247.68	2482.14
247.90	2299.87
248.11	2383.84
248.33	2602.97
248.55	2488.28
248.77	2318.30
248.98	2389.98
249.20	2699.22
249.42	2480.09
249.64	2373.60
249.85	2320.35
250.07	2355.16
250.29	2615.26
250.50	2461.66
250.72	2238.43
250.94	2592.73
251.16	2762.71
251.37	2346.97
251.59	2457.56
251.81	2535.39
252.02	2676.70
252.24	2328.54
252.46	2455.51
252.68	2381.79
252.89	2467.80
253.11	2224.09
253.33	2525.15
253.54	2707.41
253.76	2340.83
253.98	2332.64
254.20	2265.05
254.41	2351.07
254.63	2432.99
254.85	2297.82
255.06	2416.60
255.28	2514.91
255.50	2494.43
255.71	2398.17
255.93	2248.67
256.15	2473.95
256.36	2516.95
256.58	2299.87
256.80	2365.40
257.02	2514.91
257.23	2439.13
257.45	2328.54
257.67	2480.09
257.88	2404.32
258.10	2519.00
258.32	2387.93
258.53	2389.98
258.75	2693.08
258.97	2373.60
259.18	2398.17
259.40	2353.12
259.62	2654.17
259.83	2662.36
260.05	2359.26
260.27	2826.20
260.48	2602.97
260.70	2420.70
260.92	2301.92
261.13	2424.80
261.35	2498.52
261.57	2531.29
261.78	2232.29
262.00	2279.39
262.22	2641.88
262.43	2396.12
262.65	2402.27
262.86	2443.23
263.08	2826.20
263.30	2465.75
263.51	2213.85
263.73	2273.25
263.95	2625.50
264.16	2523.10
264.38	2277.34
264.60	2367.45
264.81	2418.65
265.03	2588.63
265.25	2592.73
265.46	2383.84
265.68	2648.02
265.89	2553.82
266.11	2260.96
266.33	2349.02
266.54	2617.30
266.76	2506.71
266.98	2351.07
267.19	2447.32
267.41	2627.54
267.62	2457.56
267.84	2209.76
268.06	2457.56
268.27	2545.63
268.49	2547.67
268.70	2420.70
268.92	2428.89
269.14	2373.60
269.35	2385.88
269.57	2367.45
269.79	2432.99
270.00	2363.36
270.22	2641.88
270.43	2285.53
270.65	2158.56
270.87	2586.58
271.08	2615.26
271.30	2471.90
271.51	2349.02
271.73	2549.72
271.95	2660.31
272.16	2383.84
272.38	2475.99
272.59	2478.04
272.81	2586.58
273.02	2349.02
273.24	2437.08
273.46	2660.31
273.67	2291.68
273.89	2273.25
274.10	2326.49
274.32	2678.74
274.54	2572.25
274.75	2400.22
274.97	2416.60
275.18	2609.11
275.40	2555.86
275.61	2346.97
275.83	2473.95
276.05	2318.30
276.26	2428.89
276.48	2432.99
276.69	2422.75
276.91	2453.47
277.12	2635.74
277.34	2451.42
277.55	2543.58
277.77	2412.51
277.99	2457.56
278.20	2269.15
278.42	2275.29
278.63	2336.73
278.85	2404.32
279.06	2383.84
279.28	2551.77
279.49	2572.25
279.71	2619.35
279.93	2383.84
280.14	2498.52
280.36	2383.84
280.57	2586.58
280.79	2506.71
281.00	2396.12
281.22	2439.13
281.43	2613.21
281.65	2248.67
281.86	2349.02
282.08	2463.71
282.29	2717.65
282.51	2170.85
282.73	2267.10
282.94	2310.11
283.16	2572.25
283.37	2594.78
283.59	2371.55
283.80	2531.29
284.02	2469.85
284.23	2508.76
284.45	2437.08
284.66	2404.32
284.88	2404.32
285.09	2365.40
285.31	2523.10
285.52	2496.47
285.74	2258.91
285.95	2486.23
286.17	2502.62
286.38	2566.10
286.60	2375.64
286.81	2396.12
287.03	2467.80
287.24	2465.75
287.46	2555.86
287.67	2502.62
287.89	2682.84
288.10	2510.81
288.32	2498.52
288.53	2605.02
288.75	2480.09
288.96	2562.01
289.18	2486.23
289.39	2359.26
289.61	2447.32
289.82	2709.46
290.04	2738.13
290.25	2346.97
290.47	2392.03
290.68	2498.52
290.90	2572.25
291.11	2277.34
291.33	2568.15
291.54	2467.80
291.76	2428.89
291.97	2447.32
292.18	2461.66
292.40	2406.36
292.61	2437.08
292.83	2682.84
293.04	2473.95
293.26	2527.19
293.47	2432.99
293.69	2123.74
293.90	2408.41
294.12	2699.22
294.33	2490.33
294.55	2484.19
294.76	2539.48
294.97	2613.21
295.19	2709.46
295.40	2400.22
295.62	2437.08
295.83	2600.92
296.05	2410.46
296.26	2551.77
296.48	2344.92
296.69	2449.37
296.90	2437.08
297.12	2613.21
297.33	2600.92
297.55	2529.24
297.76	2539.48
297.98	2559.96
298.19	2455.51
298.41	2471.90
298.62	2353.12
298.83	2596.82
299.05	2469.85
299.26	2379.74
299.48	2330.59
299.69	2488.28
299.90	2488.28
300.12	2424.80
300.33	2613.21
300.55	2482.14
300.76	2523.10
300.98	2316.25
301.19	2539.48
301.40	2377.69
301.62	2453.47
301.83	2531.29
302.05	2543.58
302.26	2373.60
302.47	2428.89
302.69	2357.21
302.90	2500.57
303.12	2289.63
303.33	2553.82
303.54	2721.75
303.76	2414.56
303.97	2361.31
304.19	2613.21
304.40	2351.07
304.61	2514.91
304.83	2521.05
305.04	2506.71
305.26	2547.67
305.47	2445.27
305.68	2484.19
305.90	2357.21
306.11	2621.40
306.33	2486.23
306.54	2349.02
306.75	2439.13
306.97	2258.91
307.18	2342.88
307.39	2414.56
307.61	2480.09
307.82	2441.18
308.04	2535.39
308.25	2342.88
308.46	2432.99
308.68	2449.37
308.89	2512.86
309.10	2531.29
309.32	2404.32
309.53	2459.61
309.74	2539.48
309.96	2387.93
310.17	2531.29
310.39	2406.36
310.60	2553.82
310.81	2445.27
311.03	2338.78
311.24	2613.21
311.45	2529.24
311.67	2629.59
311.88	2488.28
312.09	2402.27
312.31	2332.64
312.52	2387.93
312.73	2439.13
312.95	2340.83
313.16	2314.20
313.37	2582.49
313.59	2559.96
313.80	2570.20
314.01	2650.07
314.23	2371.55
314.44	2318.30
314.65	2379.74
314.87	2404.32
315.08	2396.12
315.29	2424.80
315.51	2342.88
315.72	2336.73
315.93	2549.72
316.15	2473.95
316.36	2469.85
316.57	2445.27
316.79	2435.03
317.00	2371.55
317.21	2584.54
317.43	2416.60
317.64	2478.04
317.85	2306.01
318.07	2359.26
318.28	2437.08
318.49	2553.82
318.70	2748.37
318.92	2564.06
319.13	2662.36
319.34	2621.40
319.56	2547.67
319.77	2701.27
319.98	2650.07
320.20	2623.45
320.41	2519.00
320.62	2578.39
320.83	2377.69
321.05	2596.82
321.26	2432.99
321.47	2500.57
321.69	2580.44
321.90	2320.35
322.11	2340.83
322.32	2482.14
322.54	2637.78
322.75	2447.32
322.96	2883.54
323.18	2379.74
323.39	2310.11
323.60	2428.89
323.81	2545.63
324.03	2420.70
324.24	2432.99
324.45	2420.70
324.66	2326.49
324.88	2637.78
325.09	2709.46
325.30	2303.96
325.52	2467.80
325.73	2580.44
325.94	2455.51
326.15	2263.01
326.37	2287.58
326.58	2496.47
326.79	2705.37
327.00	2326.49
327.22	2383.84
327.43	2533.34
327.64	2361.31
327.85	2564.06
328.07	2504.67
328.28	2699.22
328.49	2351.07
328.70	2359.26
328.92	2449.37
329.13	2488.28
329.34	2498.52
329.55	2691.03
329.76	2531.29
329.98	2449.37
330.19	2684.89
330.40	2455.51
330.61	2475.99
330.83	2662.36
331.04	2451.42
331.25	2480.09
331.46	2408.41
331.68	2383.84
331.89	2605.02
332.10	2447.32
332.31	2224.09
332.52	2478.04
332.74	2559.96
332.95	2318.30
333.16	2475.99
333.37	2588.63
333.58	2441.18
333.80	2488.28
334.01	2322.40
334.22	2496.47
334.43	2387.93
334.64	2392.03
334.86	2353.12
335.07	2334.68
335.28	2703.32
335.49	2301.92
335.70	2523.10
335.92	2703.32
336.13	2791.38
336.34	2469.85
336.55	2457.56
336.76	2523.10
336.98	2281.44
337.19	2449.37
337.40	2533.34
337.61	2746.33
337.82	2457.56
338.04	2488.28
338.25	2310.11
338.46	2539.48
338.67	2416.60
338.88	2314.20
339.09	2267.10
339.31	2406.36
339.52	2342.88
339.73	2326.49
339.94	2430.94
340.15	2547.67
340.36	2463.71
340.58	2422.75
340.79	2254.81
341.00	2549.72
341.21	2392.03
341.42	2607.06
341.63	2441.18
341.85	2621.40
342.06	2473.95
342.27	2369.50
342.48	2447.32
342.69	2346.97
342.90	2572.25
343.12	2553.82
343.33	2310.11
343.54	2592.73
343.75	2648.02
343.96	2428.89
344.17	2359.26
344.38	2443.23
344.60	2387.93
344.81	2424.80
345.02	2453.47
345.23	2623.45
345.44	2738.13
345.65	2465.75
345.86	2412.51
346.07	2504.67
346.29	2422.75
346.50	2498.52
346.71	2562.01
346.92	2551.77
347.13	2721.75
347.34	2420.70
347.55	2422.75
347.76	2465.75
347.98	2293.72
348.19	2439.13
348.40	2572.25
348.61	2420.70
348.82	2623.45
349.03	2537.43
349.24	2314.20
349.45	2662.36
349.66	2201.57
349.88	2488.28
350.09	2322.40
350.30	2590.68
350.51	2607.06
350.72	2519.00
350.93	2432.99
351.14	2379.74
351.35	2535.39
351.56	2486.23
351.77	2494.43
351.99	2512.86
352.20	2654.17
352.41	2545.63
352.62	2246.62
352.83	2545.63
353.04	2478.04
353.25	2377.69
353.46	2494.43
353.67	2592.73
353.88	2220.00
354.09	2420.70
354.30	2404.32
354.52	2570.20
354.73	2469.85
354.94	2441.18
355.15	2523.10
355.36	2719.70
355.57	2478.04
355.78	2387.93
355.99	2369.50
356.20	2475.99
356.41	2547.67
356.62	2535.39
356.83	2471.90
357.04	2588.63
357.25	2271.20
357.46	2408.41
357.68	2297.82
357.89	2457.56
358.10	2488.28
358.31	2471.90
358.52	2379.74
358.73	2355.16
358.94	2338.78
359.15	2422.75
359.36	2475.99
359.57	2439.13
359.78	2504.67
359.99	2551.77
360.20	2338.78
360.41	2461.66
360.62	2521.05
360.83	2447.32
361.04	2430.94
361.25	2572.25
361.46	2758.61
361.67	2506.71
361.88	2432.99
362.09	2641.88
362.30	2547.67
362.51	2297.82
362.72	2449.37
362.93	2584.54
363.14	2619.35
363.35	2473.95
363.56	2349.02
363.78	2607.06
363.99	2605.02
364.20	2375.64
364.41	2467.80
364.62	2770.90
364.83	2527.19
365.04	2404.32
365.25	2420.70
365.46	2795.48
365.67	2340.83
365.88	2519.00
366.09	2389.98
366.30	2455.51
366.51	2557.91
366.72	2234.33
366.93	2443.23
367.14	2482.14
367.35	2666.46
367.56	2316.25
367.77	2527.19
367.98	2416.60
368.18	2447.32
368.39	2527.19
368.60	2410.46
368.81	2543.58
369.02	2498.52
369.23	2494.43
369.44	2267.10
369.65	2400.22
369.86	2523.10
370.07	2555.86
370.28	2389.98
370.49	2541.53
370.70	2529.24
370.91	2326.49
371.12	2236.38
371.33	2590.68
371.54	2396.12
371.75	2531.29
371.96	2111.46
372.17	2432.99
372.38	2449.37
372.59	2502.62
372.80	2453.47
373.01	2480.09
373.22	2465.75
373.43	2449.37
373.64	2342.88
373.85	2633.69
374.06	2711.51
374.26	2535.39
374.47	2457.56
374.68	2596.82
374.89	2512.86
375.10	2424.80
375.31	2547.67
375.52	2461.66
375.73	2463.71
375.94	2408.41
376.15	2652.12
376.36	2422.75
376.57	2392.03
376.78	2422.75
376.99	2449.37
377.20	2686.94
377.40	2439.13
377.61	2664.41
377.82	2359.26
378.03	2717.65
378.24	2617.30
378.45	2478.04
378.66	2383.84
378.87	2244.57
379.08	2281.44
379.29	2389.98
379.50	2500.57
379.71	2553.82
379.91	2594.78
380.12	2447.32
380.33	2410.46
380.54	2426.84
380.75	2494.43
380.96	2355.16
381.17	2551.77
381.38	2432.99
381.59	2576.34
381.80	2402.27
382.00	2686.94
382.21	2539.48
382.42	2650.07
382.63	2807.77
382.84	2469.85
383.05	2615.26
383.26	2709.46
383.47	2457.56
383.68	2519.00
383.88	2625.50
384.09	2439.13
384.30	2639.83
384.51	2465.75
384.72	2365.40
384.93	2371.55
385.14	2461.66
385.35	2535.39
385.55	2349.02
385.76	2658.26
385.97	2410.46
386.18	2330.59
386.39	2381.79
386.60	2398.17
386.81	2379.74
387.02	2281.44
387.22	2312.16
387.43	2650.07
387.64	2553.82
387.85	2652.12
388.06	2590.68
388.27	4005.83
388.48	8265.60
388.68	12121.93
388.89	14829.34
389.10	16031.50
389.31	15130.39
389.52	11835.21
389.73	10080.10
389.93	9138.04
390.14	8535.93
390.35	7667.60
390.56	6598.56
390.77	5492.65
390.98	4294.59
391.18	3416.01
391.39	3022.80
391.60	2512.86
391.81	2678.74
392.02	2381.79
392.23	2789.33
392.43	2486.23
392.64	2596.82
392.85	2543.58
393.06	2760.66
393.27	2510.81
393.47	2379.74
393.68	2498.52
393.89	2400.22
394.10	2576.34
394.31	2326.49
394.52	2328.54
394.72	2349.02
394.93	2652.12
395.14	2285.53
395.35	2418.65
395.56	2406.36
395.76	2420.70
395.97	2389.98
396.18	2568.15
396.39	2660.31
396.60	2975.70
396.80	2752.47
397.01	2629.59
397.22	2693.08
397.43	2695.13
397.64	2441.18
397.84	2611.16
398.05	2654.17
398.26	2482.14
398.47	2598.87
398.67	2559.96
398.88	2598.87
399.09	2576.34
399.30	2338.78
399.51	2572.25
399.71	2330.59
399.92	2496.47
400.13	2568.15
400.34	2439.13
400.54	2502.62
400.75	2688.98
400.96	2406.36
401.17	2684.89
401.37	2576.34
401.58	2463.71
401.79	2396.12
402.00	2535.39
402.21	2985.94
402.41	2834.39
402.62	2785.24
402.83	2908.12
403.04	2928.60
403.24	3090.38
403.45	2711.51
403.66	2834.39
403.87	2670.55
404.07	2789.33
404.28	2727.89
404.49	2736.09
404.70	2568.15
404.90	2547.67
405.11	2461.66
405.32	2570.20
405.52	2459.61
405.73	2349.02
405.94	2359.26
406.15	2453.47
406.35	2537.43
406.56	2588.63
406.77	2461.66
406.98	2473.95
407.18	2334.68
407.39	2707.41
407.60	2420.70
407.80	2500.57
408.01	2387.93
408.22	2537.43
408.43	2400.22
408.63	2592.73
408.84	2562.01
409.05	2633.69
409.25	2375.64
409.46	2404.32
409.67	2396.12
409.88	2363.36
410.08	2480.09
410.29	2363.36
410.50	2523.10
410.70	2541.53
410.91	2256.86
411.12	2502.62
411.32	2465.75
411.53	2369.50
411.74	2486.23
411.95	2586.58
412.15	2609.11
412.36	2617.30
412.57	2473.95
412.77	2582.49
412.98	2510.81
413.19	2432.99
413.39	2461.66
413.60	2482.14
413.81	2678.74
414.01	2387.93
414.22	2469.85
414.43	2559.96
414.63	2494.43
414.84	2637.78
415.05	2502.62
415.25	2289.63
415.46	2494.43
415.67	2449.37
415.87	2529.24
416.08	2432.99
416.29	2369.50
416.49	2596.82
416.70	2332.64
416.91	2418.65
417.11	2439.13
417.32	2623.45
417.53	2578.39
417.73	2510.81
417.94	2447.32
418.15	2592.73
418.35	2578.39
418.56	2459.61
418.77	2797.53
418.97	2500.57
419.18	2385.88
419.38	2211.81
419.59	2467.80
419.80	2680.79
420.00	2424.80
420.21	2473.95
420.42	2670.55
420.62	2500.57
420.83	2349.02
421.04	2398.17
421.24	2519.00
421.45	2639.83
421.65	2430.94
421.86	2357.21
422.07	2557.91
422.27	2588.63
422.48	2375.64
422.69	2295.77
422.89	2396.12
423.10	2404.32
423.30	2346.97
423.51	2527.19
423.72	2514.91
423.92	2557.91
424.13	2295.77
424.33	2502.62
424.54	2469.85
424.75	2521.05
424.95	2676.70
425.16	2512.86
425.36	2437.08
425.57	2498.52
425.78	2449.37
425.98	2541.53
426.19	2422.75
426.39	2330.59
426.60	2453.47
426.81	2596.82
427.01	2512.86
427.22	2447.32
427.42	2240.48
427.63	2379.74
427.83	2523.10
428.04	2678.74
428.25	2576.34
428.45	2582.49
428.66	2658.26
428.86	2480.09
429.07	2449.37
429.28	2535.39
429.48	2529.24
429.69	2410.46
429.89	2519.00
430.10	2357.21
430.30	2568.15
430.51	2668.50
430.71	2379.74
430.92	2443.23
431.13	2461.66
431.33	2439.13
431.54	2451.42
431.74	2629.59
431.95	2731.99
432.15	2400.22
432.36	2506.71
432.56	2488.28
432.77	2738.13
432.98	2742.23
433.18	2471.90
433.39	2357.21
433.59	2432.99
433.80	2760.66
434.00	2658.26
434.21	2449.37
434.41	2502.62
434.62	2803.67
434.82	2392.03
435.03	2443.23
435.23	2500.57
435.44	2295.77
435.64	2453.47
435.85	2443.23
436.06	2553.82
436.26	2633.69
436.47	2402.27
436.67	2334.68
436.88	2535.39
437.08	2686.94
437.29	2566.10
437.49	2441.18
437.70	2695.13
437.90	2512.86
438.11	2590.68
438.31	2529.24
438.52	2756.57
438.72	2695.13
438.93	2793.43
439.13	2592.73
439.34	2637.78
439.54	2514.91
439.75	2578.39
439.95	2568.15
440.16	2422.75
440.36	2529.24
440.57	2490.33
440.77	2449.37
440.98	2471.90
441.18	2525.15
441.39	2359.26
441.59	2291.68
441.80	2813.91
442.00	2580.44
442.21	2555.86
442.41	2316.25
442.62	2709.46
442.82	2455.51
443.02	2426.84
443.23	2504.67
443.43	2459.61
443.64	2695.13
443.84	2443.23
444.05	2572.25
444.25	2570.20
444.46	2373.60
444.66	2435.03
444.87	2586.58
445.07	2297.82
445.28	2428.89
445.48	2629.59
445.69	2555.86
445.89	2680.79
446.09	2490.33
446.30	2777.05
446.50	2963.41
446.71	4577.21
446.91	5865.38
447.12	6629.27
447.32	7116.69
447.53	6698.91
447.73	5513.13
447.93	4919.22
448.14	4446.14
448.34	4394.94
448.55	3755.97
448.75	3852.23
448.96	3534.79
449.16	3293.13
449.36	3133.39
449.57	2707.41
449.77	2539.48
449.98	2453.47
450.18	2621.40
450.39	2510.81
450.59	2555.86
450.79	2531.29
451.00	2357.21
451.20	2621.40
451.41	2461.66
451.61	2539.48
451.81	2519.00
452.02	2371.55
452.22	2430.94
452.43	2445.27
452.63	2430.94
452.84	2459.61
453.04	2443.23
453.24	2494.43
453.45	2410.46
453.65	2437.08
453.86	2523.10
454.06	2629.59
454.26	2539.48
454.47	2373.60
454.67	2576.34
454.87	2648.02
455.08	2439.13
455.28	2641.88
455.49	2512.86
455.69	2406.36
455.89	2736.09
456.10	2605.02
456.30	2488.28
456.51	2600.92
456.71	2502.62
456.91	2488.28
457.12	2430.94
457.32	2478.04
457.52	2379.74
457.73	2531.29
457.93	2537.43
458.14	2406.36
458.34	2244.57
458.54	2383.84
458.75	2428.89
458.95	2596.82
459.15	2496.47
459.36	2529.24
459.56	2445.27
459.76	2777.05
459.97	2562.01
460.17	2418.65
460.37	2547.67
460.58	2512.86
460.78	2543.58
460.99	2392.03
461.19	2428.89
461.39	2392.03
461.60	2482.14
461.80	2543.58
462.00	2330.59
462.21	2457.56
462.41	2410.46
462.61	2346.97
462.82	2322.40
463.02	2568.15
463.22	2467.80
463.43	2488.28
463.63	2437.08
463.83	2678.74
464.04	2506.71
464.24	2422.75
464.44	2422.75
464.64	2447.32
464.85	2541.53
465.05	2527.19
465.25	2465.75
465.46	2355.16
465.66	2584.54
465.86	2549.72
466.07	2480.09
466.27	2488.28
466.47	2334.68
466.68	2293.72
466.88	2613.21
467.08	2562.01
467.29	2574.30
467.49	2521.05
467.69	2449.37
467.89	2590.68
468.10	2514.91
468.30	2545.63
468.50	2623.45
468.71	2650.07
468.91	2357.21
469.11	2676.70
469.31	2547.67
469.52	2353.12
469.72	2688.98
469.92	2715.61
470.13	2478.04
470.33	2506.71
470.53	2506.71
470.73	2805.72
470.94	3338.19
471.14	3426.25
471.34	3977.16
471.54	3717.06
471.75	3424.20
471.95	3112.91
472.15	3018.71
472.36	3018.71
472.56	2955.22
472.76	2947.03
472.96	2924.50
473.17	2793.43
473.37	2625.50
473.57	2498.52
473.77	2570.20
473.98	2594.78
474.18	2392.03
474.38	2832.34
474.58	2412.51
474.79	2342.88
474.99	2527.19
475.19	2607.06
475.39	2387.93
475.60	2514.91
475.80	2465.75
476.00	2498.52
476.20	2478.04
476.41	2516.95
476.61	2596.82
476.81	2650.07
477.01	2334.68
477.21	2633.69
477.42	2645.98
477.62	2396.12
477.82	2731.99
478.02	2396.12
478.23	2510.81
478.43	2435.03
478.63	2412.51
478.83	2494.43
479.03	2480.09
479.24	2645.98
479.44	2768.85
479.64	2426.84
479.84	2299.87
480.04	2363.36
480.25	2572.25
480.45	2336.73
480.65	2432.99
480.85	2703.32
481.06	2451.42
481.26	2506.71
481.46	2500.57
481.66	2504.67
481.86	2328.54
482.06	2637.78
482.27	2424.80
482.47	2371.55
482.67	2490.33
482.87	2406.36
483.07	2588.63
483.28	2432.99
483.48	2349.02
483.68	2365.40
483.88	2363.36
484.08	2256.86
484.29	2379.74
484.49	2490.33
484.69	2346.97
484.89	2660.31
485.09	2656.22
485.29	2516.95
485.50	2465.75
485.70	2389.98
485.90	2682.84
486.10	2467.80
486.30	2467.80
486.50	2631.64
486.71	2514.91
486.91	2494.43
487.11	2514.91
487.31	2351.07
487.51	2611.16
487.71	2383.84
487.91	2308.06
488.12	2406.36
488.32	2224.09
488.52	2475.99
488.72	2207.71
488.92	2453.47
489.12	2605.02
489.32	2658.26
489.53	2484.19
489.73	2326.49
489.93	2678.74
490.13	2445.27
490.33	2312.16
490.53	2473.95
490.73	2572.25
490.94	2316.25
491.14	2568.15
491.34	2600.92
491.54	2664.41
491.74	3407.82
491.94	4085.70
492.14	4454.33
492.34	4366.27
492.54	4061.12
492.75	3497.93
492.95	3479.50
493.15	3358.67
493.35	3203.02
493.55	3086.29
493.75	2934.74
493.95	3039.19
494.15	2740.18
494.35	2588.63
494.56	2617.30
494.76	2504.67
494.96	2580.44
495.16	2533.34
495.36	2471.90
495.56	2566.10
495.76	2475.99
495.96	2414.56
496.16	2389.98
496.36	2719.70
496.56	2435.03
496.77	2523.10
496.97	2516.95
497.17	2592.73
497.37	2258.91
497.57	2600.92
497.77	2529.24
497.97	2381.79
498.17	2482.14
498.37	2473.95
498.57	2492.38
498.77	2494.43
498.97	2564.06
499.17	2719.70
499.38	2502.62
499.58	2562.01
499.78	2609.11
499.98	2543.58
500.18	2435.03
500.38	2422.75
500.58	2629.59
500.78	3117.01
500.98	5550.00
501.18	7585.68
501.38	9402.22
501.58	10254.18
501.78	10145.64
501.98	8116.10
502.18	6811.54
502.38	5830.57
502.58	5486.51
502.78	4880.31
502.98	4702.14
503.18	4544.44
503.38	4161.47
503.59	3600.33
503.79	3506.12
503.99	3135.44
504.19	3055.57
504.39	3057.62
504.59	3121.10
504.79	3078.10
504.99	3207.12
505.19	2799.57
505.39	2678.74
505.59	2920.40
505.79	2750.42
505.99	2654.17
506.19	2578.39
506.39	2744.28
506.59	2559.96
506.79	2527.19
506.99	2562.01
507.19	2475.99
507.39	2449.37
507.59	2289.63
507.79	2346.97
507.99	2349.02
508.19	2469.85
508.39	2424.80
508.59	2402.27
508.79	2541.53
508.99	2711.51
509.19	2340.83
509.39	2562.01
509.59	2402.27
509.79	2432.99
509.99	2480.09
510.19	2547.67
510.39	2529.24
510.59	2490.33
510.79	2437.08
510.99	2389.98
511.19	2412.51
511.39	2777.05
511.59	2643.93
511.79	2643.93
511.99	2451.42
512.19	2695.13
512.38	2514.91
512.58	2389.98
512.78	2439.13
512.98	2559.96
513.18	2754.52
513.38	2324.44
513.58	2549.72
513.78	2367.45
513.98	2508.76
514.18	2512.86
514.38	2416.60
514.58	2490.33
514.78	2480.09
514.98	2318.30
515.18	2416.60
515.38	2359.26
515.58	2760.66
515.78	2437.08
515.98	2514.91
516.18	2553.82
516.38	2484.19
516.57	2463.71
516.77	2371.55
516.97	2531.29
517.17	2455.51
517.37	2252.77
517.57	2502.62
517.77	2404.32
517.97	2369.50
518.17	2586.58
518.37	2330.59
518.57	2410.46
518.77	2406.36
518.97	2408.41
519.16	2435.03
519.36	2678.74
519.56	2400.22
519.76	2437.08
519.96	2406.36
520.16	2693.08
520.36	2353.12
520.56	2543.58
520.76	2379.74
520.96	2416.60
521.16	2609.11
521.35	2654.17
521.55	2576.34
521.75	2461.66
521.95	2389.98
522.15	2445.27
522.35	2308.06
522.55	2359.26
522.75	2645.98
522.95	2437.08
523.14	2404.32
523.34	2469.85
523.54	2402.27
523.74	2551.77
523.94	2557.91
524.14	2289.63
524.34	2537.43
524.54	2533.34
524.73	2412.51
524.93	2598.87
525.13	2570.20
525.33	2332.64
525.53	2775.00
525.73	2621.40
525.93	2486.23
526.13	2385.88
526.32	2414.56
526.52	2629.59
526.72	2578.39
526.92	2418.65
527.12	2406.36
527.32	2314.20
527.52	2557.91
527.71	2537.43
527.91	2443.23
528.11	2435.03
528.31	2514.91
528.51	2422.75
528.71	2572.25
528.90	2553.82
529.10	2580.44
529.30	2615.26
529.50	2209.76
529.70	2488.28
529.90	2473.95
530.09	2512.86
530.29	2320.35
530.49	2353.12
530.69	2879.44
530.89	2533.34
531.09	2510.81
531.28	2404.32
531.48	2609.11
531.68	2418.65
531.88	2514.91
532.08	2590.68
532.28	2496.47
532.47	2551.77
532.67	2519.00
532.87	2580.44
533.07	2392.03
533.27	2643.93
533.46	2662.36
533.66	2574.30
533.86	2449.37
534.06	2389.98
534.26	2471.90
534.45	2410.46
534.65	2631.64
534.85	2551.77
535.05	2416.60
535.25	2584.54
535.44	2260.96
535.64	2516.95
535.84	2508.76
536.04	2510.81
536.24	2482.14
536.43	2424.80
536.63	2455.51
536.83	2482.14
537.03	2500.57
537.22	2420.70
537.42	2301.92
537.62	2521.05
537.82	2336.73
538.02	2549.72
538.21	2584.54
538.41	2908.12
538.61	2564.06
538.81	2420.70
539.00	2596.82
539.20	2334.68
539.40	2402.27
539.60	2408.41
539.79	2559.96
539.99	2447.32
540.19	2369.50
540.39	2453.47
540.58	2559.96
540.78	2631.64
540.98	2504.67
541.18	2662.36
541.37	2498.52
541.57	2519.00
541.77	2463.71
541.97	2326.49
542.16	2310.11
542.36	2531.29
542.56	2371.55
542.76	2621.40
542.95	2580.44
543.15	2523.10
543.35	2537.43
543.54	2443.23
543.74	2383.84
543.94	2611.16
544.14	2406.36
544.33	2535.39
544.53	2441.18
544.73	2514.91
544.93	2367.45
545.12	2461.66
545.32	2412.51
545.52	2432.99
545.71	2402.27
545.91	2377.69
546.11	2316.25
546.30	2342.88
546.50	2514.91
546.70	2467.80
546.90	2547.67
547.09	2209.76
547.29	2523.10
547.49	2574.30
547.68	2510.81
547.88	2441.18
548.08	2471.90
548.27	2940.88
548.47	2318.30
548.67	2392.03
548.87	2602.97
549.06	2402.27
549.26	2432.99
549.46	2473.95
549.65	2504.67
549.85	2465.75
550.05	2502.62
550.24	2392.03
550.44	2484.19
550.64	2449.37
550.83	2418.65
551.03	2758.61
551.23	2645.98
551.42	2580.44
551.62	2435.03
551.82	2557.91
552.01	2430.94
552.21	2580.44
552.41	2459.61
552.60	2752.47
552.80	2475.99
553.00	2416.60
553.19	2408.41
553.39	2686.94
553.59	2332.64
553.78	2504.67
553.98	2480.09
554.17	2314.20
554.37	2533.34
554.57	2523.10
554.76	2328.54
554.96	2494.43
555.16	2473.95
555.35	2553.82
555.55	2443.23
555.75	2504.67
555.94	2611.16
556.14	2303.96
556.33	2547.67
556.53	2537.43
556.73	2521.05
556.92	2416.60
557.12	2539.48
557.32	2760.66
557.51	2684.89
557.71	2494.43
557.90	2633.69
558.10	2668.50
558.30	2498.52
558.49	2430.94
558.69	2482.14
558.88	2586.58
559.08	2510.81
559.28	2447.32
559.47	2465.75
559.67	2539.48
559.86	2764.76
560.06	2475.99
560.26	2420.70
560.45	2635.74
560.65	2514.91
560.84	2643.93
561.04	2410.46
561.24	2609.11
561.43	2424.80
561.63	2584.54
561.82	2494.43
562.02	2617.30
562.22	2441.18
562.41	2316.25
562.61	2369.50
562.80	2392.03
563.00	2844.63
563.19	2500.57
563.39	2555.86
563.59	2539.48
563.78	2428.89
563.98	2222.05
564.17	2396.12
564.37	2256.86
564.56	2441.18
564.76	2371.55
564.96	2613.21
565.15	2588.63
565.35	2846.68
565.54	2435.03
565.74	2543.58
565.93	2588.63
566.13	2490.33
566.32	2529.24
566.52	2578.39
566.71	2519.00
566.91	2514.91
567.11	2529.24
567.30	2373.60
567.50	2588.63
567.69	2580.44
567.89	2482.14
568.08	2441.18
568.28	2559.96
568.47	2441.18
568.67	2537.43
568.86	2459.61
569.06	2586.58
569.25	2508.76
569.45	2379.74
569.64	2326.49
569.84	2521.05
570.04	2576.34
570.23	2385.88
570.43	2443.23
570.62	2521.05
570.82	2695.13
571.01	2361.31
571.21	2416.60
571.40	2406.36
571.60	2533.34
571.79	2562.01
571.99	2465.75
572.18	2455.51
572.38	2590.68
572.57	2494.43
572.77	2533.34
572.96	2846.68
573.16	2562.01
573.35	2412.51
573.55	2654.17
573.74	2609.11
573.94	2432.99
574.13	2447.32
574.33	2555.86
574.52	2664.41
574.71	2498.52
574.91	2514.91
575.10	2332.64
575.30	2502.62
575.49	2441.18
575.69	2406.36
575.88	2521.05
576.08	2488.28
576.27	2637.78
576.47	2494.43
576.66	2623.45
576.86	2719.70
577.05	2584.54
577.25	2557.91
577.44	2742.23
577.64	2375.64
577.83	2598.87
578.02	2480.09
578.22	2668.50
578.41	2736.09
578.61	2498.52
578.80	2310.11
579.00	2494.43
579.19	2490.33
579.39	2584.54
579.58	2551.77
579.77	2441.18
579.97	2613.21
580.16	2629.59
580.36	2658.26
580.55	2609.11
580.75	2605.02
580.94	2562.01
581.13	2701.27
581.33	2678.74
581.52	2519.00
581.72	2711.51
581.91	2635.74
582.11	2447.32
582.30	2572.25
582.49	2572.25
582.69	2668.50
582.88	2625.50
583.08	2523.10
583.27	2650.07
583.47	2488.28
583.66	2461.66
583.85	2406.36
584.05	2588.63
584.24	2572.25
584.44	2572.25
584.63	2674.65
584.82	2695.13
585.02	2686.94
585.21	2654.17
585.41	2621.40
585.60	2621.40
585.79	2742.23
585.99	2736.09
586.18	2586.58
586.37	3276.75
586.57	5177.26
586.76	15068.95
586.96	34543.09
587.15	48327.97
587.34	57271.45
587.54	61828.18
587.73	56159.40
587.93	39523.75
588.12	29937.21
588.31	24467.08
588.51	21268.16
588.70	19295.96
588.89	17442.55
589.09	15114.01
589.28	12869.44
589.47	10368.87
589.67	8009.61
589.86	6113.19
590.06	4579.26
590.25	3878.85
590.44	3340.24
590.64	3053.52
590.83	2899.92
591.02	2748.37
591.22	2539.48
591.41	2580.44
591.60	2539.48
591.80	2758.61
591.99	2365.40
592.18	2486.23
592.38	2619.35
592.57	2469.85
592.76	2541.53
592.96	2555.86
593.15	2471.90
593.34	2572.25
593.54	2512.86
593.73	2529.24
593.92	2605.02
594.12	2645.98
594.31	2596.82
594.50	2621.40
594.70	2633.69
594.89	2883.54
595.08	2396.12
595.28	2576.34
595.47	2848.72
595.66	2570.20
595.86	2373.60
596.05	2432.99
596.24	2465.75
596.43	2764.76
596.63	2598.87
596.82	2529.24
597.01	2559.96
597.21	2818.00
597.40	2621.40
597.59	2490.33
597.79	2502.62
597.98	2570.20
598.17	2416.60
598.36	2568.15
598.56	2592.73
598.75	2453.47
598.94	2531.29
599.14	2469.85
599.33	2475.99
599.52	2650.07
599.71	2535.39
599.91	2519.00
600.10	2596.82
600.29	2553.82
600.48	2570.20
600.68	2578.39
600.87	2465.75
601.06	2426.84
601.26	2549.72
601.45	2514.91
601.64	2478.04
601.83	2734.04
602.03	2445.27
602.22	2324.44
602.41	2637.78
602.60	2736.09
602.80	2523.10
602.99	2557.91
603.18	2428.89
603.37	2580.44
603.57	2498.52
603.76	2475.99
603.95	2570.20
604.14	2416.60
604.34	2340.83
604.53	2441.18
604.72	2449.37
604.91	2631.64
605.10	2555.86
605.30	2383.84
605.49	2813.91
605.68	2533.34
605.87	2496.47
606.07	2379.74
606.26	2486.23
606.45	2594.78
606.64	2580.44
606.84	2457.56
607.03	2586.58
607.22	2703.32
607.41	2486.23
607.60	2498.52
607.80	2633.69
607.99	2502.62
608.18	2445.27
608.37	2533.34
608.56	2447.32
608.76	2617.30
608.95	2697.17
609.14	2504.67
609.33	2777.05
609.52	2727.89
609.72	2584.54
609.91	2623.45
610.10	2543.58
610.29	2719.70
610.48	2592.73
610.68	2502.62
610.87	2531.29
611.06	2596.82
611.25	2428.89
611.44	2643.93
611.63	2406.36
611.83	2670.55
612.02	2371.55
612.21	2557.91
612.40	2299.87
612.59	2414.56
612.79	2359.26
612.98	2473.95
613.17	2684.89
613.36	2504.67
613.55	2631.64
613.74	2541.53
613.93	2555.86
614.13	2766.81
614.32	2768.85
614.51	2658.26
614.70	2525.15
614.89	2478.04
615.08	2580.44
615.28	3035.09
615.47	2432.99
615.66	2572.25
615.85	2490.33
616.04	2609.11
616.23	2504.67
616.42	2494.43
616.62	2506.71
616.81	2570.20
617.00	2537.43
617.19	2539.48
617.38	2469.85
617.57	2576.34
617.76	2605.02
617.95	2695.13
618.15	2521.05
618.34	2717.65
618.53	2426.84
618.72	2699.22
618.91	2629.59
619.10	2551.77
619.29	2543.58
619.48	2449.37
619.68	2365.40
619.87	2506.71
620.06	2359.26
620.25	2551.77
620.44	2471.90
620.63	2463.71
620.82	2576.34
621.01	2506.71
621.20	2473.95
621.39	2529.24
621.59	2551.77
621.78	2473.95
621.97	2447.32
622.16	2566.10
622.35	2486.23
622.54	2641.88
622.73	2611.16
622.92	2324.44
623.11	2615.26
623.30	2473.95
623.49	2588.63
623.68	2394.08
623.88	2652.12
624.07	2488.28
624.26	2441.18
624.45	2527.19
624.64	2482.14
624.83	2490.33
625.02	2387.93
625.21	2484.19
625.40	2602.97
625.59	2637.78
625.78	2506.71
625.97	2596.82
626.16	2674.65
626.35	2705.37
626.54	2496.47
626.74	2684.89
626.93	2629.59
627.12	2469.85
627.31	2641.88
627.50	2547.67
627.69	2627.54
627.88	2410.46
628.07	2416.60
628.26	2351.07
628.45	2332.64
628.64	2377.69
628.83	2469.85
629.02	2260.96
629.21	2576.34
629.40	2539.48
629.59	2435.03
629.78	2408.41
629.97	2455.51
630.16	2541.53
630.35	2428.89
630.54	2447.32
630.73	2473.95
630.92	2482.14
631.11	2428.89
631.30	2502.62
631.49	2611.16
631.68	2527.19
631.87	2461.66
632.06	2293.72
632.25	2809.81
632.44	2545.63
632.63	2510.81
632.82	2523.10
633.01	2512.86
633.20	2613.21
633.39	2478.04
633.58	2349.02
633.77	2590.68
633.96	2629.59
634.15	2611.16
634.34	2594.78
634.53	2588.63
634.72	2422.75
634.91	2275.29
635.10	2527.19
635.29	2539.48
635.48	2553.82
635.67	2340.83
635.86	2326.49
636.05	2691.03
636.24	2455.51
636.43	2469.85
636.62	2498.52
636.81	2172.89
637.00	2523.10
637.19	2445.27
637.38	2445.27
637.57	2512.86
637.76	2514.91
637.95	2650.07
638.14	2564.06
638.33	2609.11
638.52	2514.91
638.71	2455.51
638.89	2394.08
639.08	2863.06
639.27	2742.23
639.46	2787.29
639.65	3190.74
639.84	3157.97
640.03	3350.48
640.22	3149.78
640.41	3153.87
640.60	2775.00
640.79	2777.05
640.98	2678.74
641.17	2731.99
641.36	2766.81
641.55	2711.51
641.74	2385.88
641.92	2389.98
642.11	2441.18
642.30	2473.95
642.49	2408.41
642.68	2453.47
642.87	2519.00
643.06	2539.48
643.25	2408.41
643.44	2340.83
643.63	2502.62
643.82	2576.34
644.00	2308.06
644.19	2441.18
644.38	2328.54
644.57	2576.34
644.76	2480.09
644.95	2428.89
645.14	2514.91
645.33	2553.82
645.52	2490.33
645.71	2306.01
645.89	2375.64
646.08	2445.27
646.27	2465.75
646.46	2721.75
646.65	2371.55
646.84	2486.23
647.03	2293.72
647.22	2568.15
647.40	2523.10
647.59	2453.47
647.78	2344.92
647.97	2387.93
648.16	2357.21
648.35	2666.46
648.54	2586.58
648.73	2492.38
648.91	2600.92
649.10	2514.91
649.29	2406.36
649.48	2445.27
649.67	2572.25
649.86	2467.80
650.05	2457.56
650.23	2731.99
650.42	2666.46
650.61	2758.61
650.80	2658.26
650.99	2797.53
651.18	2719.70
651.36	2676.70
651.55	2478.04
651.74	2545.63
651.93	2473.95
652.12	2508.76
652.31	2461.66
652.49	2539.48
652.68	2494.43
652.87	2731.99
653.06	2490.33
653.25	2691.03
653.44	2523.10
653.62	2729.94
653.81	2424.80
654.00	2504.67
654.19	2568.15
654.38	2828.24
654.56	2512.86
654.75	2392.03
654.94	2598.87
655.13	2490.33
655.32	2490.33
655.51	2512.86
655.69	2447.32
655.88	2555.86
656.07	2357.21
656.26	2471.90
656.45	2449.37
656.63	2498.52
656.82	2435.03
657.01	2617.30
657.20	2406.36
657.38	2682.84
657.57	2359.26
657.76	2289.63
657.95	2539.48
658.14	2430.94
658.32	2496.47
658.51	2349.02
658.70	2580.44
658.89	2494.43
659.08	2467.80
659.26	2615.26
659.45	2408.41
659.64	2590.68
659.83	2441.18
660.01	2787.29
660.20	2514.91
660.39	2719.70
660.58	2273.25
660.76	2584.54
660.95	2320.35
661.14	2480.09
661.33	2332.64
661.51	2441.18
661.70	2359.26
661.89	2598.87
662.08	2508.76
662.26	2314.20
662.45	2392.03
662.64	2703.32
662.83	2523.10
663.01	2351.07
663.20	2439.13
663.39	2621.40
663.58	2449.37
663.76	2400.22
663.95	2521.05
664.14	2396.12
664.32	2392.03
664.51	2402.27
664.70	2279.39
664.89	2523.10
665.07	2334.68
665.26	2549.72
665.45	2414.56
665.64	2629.59
665.82	2428.89
666.01	2537.43
666.20	2369.50
666.38	2635.74
666.57	2674.65
666.76	3968.96
666.95	9793.39
667.13	18022.12
667.32	22791.84
667.51	26531.44
667.69	28261.97
667.88	24903.30
668.07	17702.64
668.25	14505.76
668.44	12146.50
668.63	10428.26
668.81	9166.71
669.00	8054.66
669.19	7151.51
669.38	6272.93
669.56	5248.94
669.75	4415.42
669.94	3854.28
670.12	3215.31
670.31	2856.92
670.50	2750.42
670.68	2564.06
670.87	2621.40
671.06	2469.85
671.24	2543.58
671.43	2736.09
671.62	2670.55
671.80	2439.13
671.99	2496.47
672.18	2422.75
672.36	2625.50
672.55	2562.01
672.74	2531.29
672.92	2400.22
673.11	2531.29
673.29	2428.89
673.48	2486.23
673.67	2471.90
673.85	2590.68
674.04	2402.27
674.23	2568.15
674.41	2797.53
674.60	2346.97
674.79	2334.68
674.97	2396.12
675.16	2619.35
675.34	2592.73
675.53	2357.21
675.72	2559.96
675.90	2727.89
676.09	2420.70
676.28	2467.80
676.46	2336.73
676.65	2594.78
676.83	2371.55
677.02	2543.58
677.21	2406.36
677.39	2473.95
677.58	2406.36
677.77	2375.64
677.95	2336.73
678.14	2482.14
678.32	2435.03
678.51	2404.32
678.70	2711.51
678.88	2418.65
679.07	2494.43
679.25	2555.86
679.44	2451.42
679.63	2336.73
679.81	2471.90
680.00	2592.73
680.18	2559.96
680.37	2666.46
680.55	2508.76
680.74	2375.64
680.93	2277.34
681.11	2504.67
681.30	2459.61
681.48	2527.19
681.67	2396.12
681.85	2449.37
682.04	2383.84
682.23	2613.21
682.41	2545.63
682.60	2412.51
682.78	2482.14
682.97	2273.25
683.15	2387.93
683.34	2459.61
683.53	2684.89
683.71	2381.79
683.90	2629.59
684.08	2680.79
684.27	2482.14
684.45	2506.71
684.64	2582.49
684.82	2430.94
685.01	2594.78
685.19	2398.17
685.38	2625.50
685.57	2494.43
685.75	2396.12
685.94	2457.56
686.12	2346.97
686.31	2463.71
686.49	2643.93
686.68	2222.05
686.86	2527.19
687.05	2469.85
687.23	2662.36
687.42	2373.60
687.60	2367.45
687.79	2676.70
687.97	2705.37
688.16	2471.90
688.34	2572.25
688.53	2269.15
688.71	2533.34
688.90	2609.11
689.08	2519.00
689.27	2273.25
689.45	2568.15
689.64	2566.10
689.82	2562.01
690.01	2562.01
690.19	2529.24
690.38	2422.75
690.56	2605.02
690.75	2359.26
690.93	2430.94
691.12	2379.74
691.30	2418.65
691.49	2449.37
691.67	2375.64
691.86	2731.99
692.04	2420.70
692.23	2480.09
692.41	2473.95
692.60	2822.10
692.78	2629.59
692.97	2553.82
693.15	2645.98
693.34	2705.37
693.52	2611.16
693.71	2414.56
693.89	2441.18
694.08	2349.02
694.26	2516.95
694.44	2545.63
694.63	2541.53
694.81	2404.32
695.00	2363.36
695.18	2686.94
695.37	2758.61
695.55	2527.19
695.74	2449.37
695.92	2394.08
696.10	2682.84
696.29	2338.78
696.47	2369.50
696.66	2320.35
696.84	2392.03
697.03	2484.19
697.21	2682.84
697.40	3686.34
697.58	2598.87
697.76	2488.28
697.95	2346.97
698.13	2422.75
698.32	2467.80
698.50	2473.95
698.68	2547.67
698.87	2543.58
699.05	2643.93
699.24	2482.14
699.42	2383.84
699.61	2490.33
699.79	2498.52
699.97	2441.18
700.16	2306.01
700.34	2306.01
700.53	2551.77
700.71	2613.21
700.89	2551.77
701.08	2469.85
701.26	2473.95
701.45	2973.65
701.63	2459.61
701.81	2422.75
702.00	2432.99
702.18	2473.95
702.37	2525.15
702.55	2768.85
702.73	2752.47
702.92	2557.91
703.10	2828.24
703.28	2756.57
703.47	2537.43
703.65	2719.70
703.84	2621.40
704.02	2531.29
704.20	2717.65
704.39	2416.60
704.57	2426.84
704.75	2627.54
704.94	2570.20
705.12	2553.82
705.30	2953.17
705.49	5644.20
705.67	13168.44
705.86	21268.16
706.04	25060.99
706.22	28386.89
706.41	29023.81
706.59	23381.66
706.77	16963.33
706.96	14358.31
707.14	12500.80
707.32	11059.03
707.51	9715.56
707.69	7651.21
707.87	6262.69
708.06	4929.46
708.24	4118.47
708.42	3381.20
708.61	3258.32
708.79	2607.06
708.97	2570.20
709.16	2619.35
709.34	2570.20
709.52	2473.95
709.71	2506.71
709.89	2596.82
710.07	2416.60
710.26	2334.68
710.44	2416.60
710.62	2650.07
710.80	2367.45
710.99	2529.24
711.17	2623.45
711.35	2420.70
711.54	2441.18
711.72	2580.44
711.90	2519.00
712.09	2543.58
712.27	2443.23
712.45	2588.63
712.63	2439.13
712.82	2539.48
713.00	2441.18
713.18	2588.63
713.37	2535.39
713.55	2570.20
713.73	2514.91
713.91	2572.25
714.10	2398.17
714.28	2469.85
714.46	2496.47
714.65	2590.68
714.83	2557.91
715.01	2480.09
715.19	2504.67
715.38	2342.88
715.56	2576.34
715.74	2437.08
715.92	2478.04
716.11	2596.82
716.29	2279.39
716.47	2484.19
716.65	2410.46
716.84	2392.03
717.02	2637.78
717.20	2244.57
717.38	2490.33
717.57	2521.05
717.75	2537.43
717.93	2432.99
718.11	2527.19
718.30	2293.72
718.48	2449.37
718.66	2660.31
718.84	2553.82
719.03	2414.56
719.21	2312.16
719.39	2711.51
719.57	2582.49
719.75	2521.05
719.94	2385.88
720.12	2437.08
720.30	2566.10
720.48	2568.15
720.67	2418.65
720.85	2346.97
721.03	2435.03
721.21	2416.60
721.39	2539.48
721.58	2621.40
721.76	2428.89
721.94	2516.95
722.12	2490.33
722.30	2654.17
722.49	2414.56
722.67	2482.14
722.85	2527.19
723.03	2332.64
723.21	2383.84
723.40	2494.43
723.58	2523.10
723.76	2607.06
723.94	2621.40
724.12	2537.43
724.30	2740.18
724.49	2719.70
724.67	2408.41
724.85	2586.58
725.03	2379.74
725.21	2654.17
725.40	2670.55
725.58	2373.60
725.76	2641.88
725.94	2523.10
726.12	2346.97
726.30	2471.90
726.49	2445.27
726.67	2465.75
726.85	2609.11
727.03	3016.66
727.21	4327.36
727.39	6004.64
727.57	6930.33
727.76	7552.91
727.94	7778.19
728.12	7028.63
728.30	5742.50
728.48	5085.11
728.66	4552.63
728.84	4186.05
729.03	3571.66
729.21	3297.23
729.39	2920.40
729.57	2703.32
729.75	2588.63
729.93	2600.92
730.11	2428.89
730.30	2484.19
730.48	2480.09
730.66	2592.73
730.84	2543.58
731.02	2555.86
731.20	2430.94
731.38	2420.70
731.56	2301.92
731.74	2400.22
731.93	2533.34
732.11	2441.18
732.29	2375.64
732.47	2584.54
732.65	2512.86
732.83	2641.88
733.01	2500.57
733.19	2449.37
733.37	2496.47
733.56	2584.54
733.74	2371.55
733.92	2699.22
734.10	2430.94
734.28	2527.19
734.46	2281.44
734.64	2484.19
734.82	2400.22
735.00	2441.18
735.18	2336.73
735.36	2437.08
735.54	2437.08
735.73	2453.47
735.91	2506.71
736.09	2615.26
736.27	2486.23
736.45	2523.10
736.63	2281.44
736.81	2424.80
736.99	2594.78
737.17	2578.39
737.35	2392.03
737.53	2514.91
737.71	2443.23
737.89	2619.35
738.07	2373.60
738.25	2383.84
738.43	2342.88
738.61	2359.26
738.80	2342.88
738.98	2441.18
739.16	2398.17
739.34	2369.50
739.52	2605.02
739.70	2467.80
739.88	2568.15
740.06	2555.86
740.24	2246.62
740.42	2682.84
740.60	2291.68
740.78	2408.41
740.96	2248.67
741.14	2416.60
741.32	2506.71
741.50	2328.54
741.68	2676.70
741.86	2664.41
742.04	2361.31
742.22	2324.44
742.40	2416.60
742.58	2564.06
742.76	2357.21
742.94	2574.30
743.12	2326.49
743.30	2482.14
743.48	2596.82
743.66	2443.23
743.84	2488.28
744.02	2461.66
744.20	2473.95
744.38	2318.30
744.56	2328.54
744.74	2719.70
744.92	2514.91
745.10	2656.22
745.28	2514.91
745.46	2666.46
745.64	2514.91
745.82	2473.95
746.00	2461.66
746.18	2537.43
746.36	2342.88
746.54	2494.43
746.72	2424.80
746.90	2330.59
747.08	2600.92
747.26	2371.55
747.44	2516.95
747.62	2576.34
747.80	2484.19
747.98	2519.00
748.15	2457.56
748.33	2678.74
748.51	2488.28
748.69	2562.01
748.87	2357.21
749.05	2404.32
749.23	2394.08
749.41	2453.47
749.59	2412.51
749.77	2607.06
749.95	2469.85
750.13	2463.71
750.31	2541.53
750.49	2422.75
750.67	2582.49
750.85	2572.25
751.03	2531.29
751.20	2693.08
751.38	2453.47
751.56	2359.26
751.74	2506.71
751.92	2439.13
752.10	2435.03
752.28	2611.16
752.46	2389.98
752.64	2547.67
752.82	2445.27
753.00	2598.87
753.18	2416.60
753.35	2471.90
753.53	2424.80
753.71	2383.84
753.89	2588.63
754.07	2570.20
754.25	2576.34
754.43	2461.66
754.61	2398.17
754.79	2543.58
754.97	2406.36
755.14	2611.16
755.32	2367.45
755.50	2473.95
755.68	2478.04
755.86	2406.36
756.04	2336.73
756.22	2263.01
756.40	2504.67
756.57	2643.93
756.75	2392.03
756.93	2621.40
757.11	2613.21
757.29	2316.25
757.47	2344.92
757.65	2332.64
757.82	2281.44
758.00	2355.16
758.18	2394.08
758.36	2353.12
758.54	2613.21
758.72	2332.64
758.90	2639.83
759.07	2514.91
759.25	2365.40
759.43	2555.86
759.61	2256.86
759.79	3553.23
759.97	2564.06
760.15	2523.10
760.32	2473.95
760.50	2516.95
760.68	2613.21
760.86	2295.77
761.04	2586.58
761.22	2562.01
761.39	2478.04
761.57	2473.95
761.75	2473.95
761.93	2545.63
762.11	2508.76
762.28	2465.75
762.46	2346.97
762.64	2633.69
762.82	2383.84
763.00	2406.36
763.18	2658.26
763.35	2361.31
763.53	2512.86
763.71	2416.60
763.89	2449.37
764.07	2490.33
764.24	2531.29
764.42	2596.82
764.60	2406.36
764.78	2535.39
764.96	2609.11
765.13	2545.63
765.31	2408.41
765.49	2551.77
765.67	2396.12
765.84	2451.42
766.02	2430.94
766.20	2277.34
766.38	2574.30
766.56	2519.00
766.73	2566.10
766.91	2465.75
767.09	2457.56
767.27	2508.76
767.44	2355.16
767.62	2572.25
767.80	2478.04
767.98	2449.37
768.15	2465.75
768.33	2600.92
768.51	2559.96
768.69	2510.81
768.87	2535.39
769.04	2488.28
769.22	2813.91
769.40	2572.25
769.58	2637.78
769.75	2473.95
769.93	2605.02
770.11	2494.43
770.28	2430.94
770.46	2629.59
770.64	2486.23
770.82	2396.12
770.99	2346.97
771.17	2516.95
771.35	2398.17
771.53	2453.47
771.70	2418.65
771.88	2502.62
772.06	2506.71
772.23	2322.40
772.41	2441.18
772.59	2457.56
772.77	2314.20
772.94	2455.51
773.12	2494.43
773.30	2357.21
773.47	2486.23
773.65	2365.40
773.83	2641.88
774.01	2471.90
774.18	2295.77
774.36	2496.47
774.54	2342.88
774.71	2428.89
774.89	2371.55
775.07	2351.07
775.24	2402.27
775.42	2414.56
775.60	2660.31
775.78	2265.05
775.95	2351.07
776.13	2299.87
776.31	2283.49
776.48	2502.62
776.66	2596.82
776.84	2418.65
777.01	2441.18
777.19	2322.40
777.37	2449.37
777.54	2578.39
777.72	2748.37
777.90	2545.63
778.07	2363.36
778.25	2840.53
778.43	2576.34
778.60	2432.99
778.78	2559.96
778.96	2631.64
779.13	2301.92
779.31	2600.92
779.49	2461.66
779.66	2625.50
779.84	2465.75
780.01	2457.56
780.19	2349.02
780.37	2641.88
780.54	2535.39
780.72	2320.35
780.90	2461.66
781.07	2387.93
781.25	2461.66
781.43	2602.97
781.60	2428.89
781.78	2555.86
781.95	2430.94
782.13	2375.64
782.31	2473.95
782.48	2283.49
782.66	2375.64
782.83	2654.17
783.01	2537.43
783.19	2586.58
783.36	2494.43
783.54	2400.22
783.72	2521.05
783.89	2457.56
784.07	2551.77
784.24	2510.81
784.42	2605.02
784.60	2465.75
784.77	2490.33
784.95	2271.20
785.12	2332.64
785.30	2469.85
785.47	2422.75
785.65	2400.22
785.83	2439.13
786.00	2430.94
786.18	2498.52
786.35	2303.96
786.53	2324.44
786.71	2602.97
786.88	2533.34
787.06	2502.62
787.23	2467.80
787.41	2369.50
787.58	2490.33
787.76	2318.30
787.94	2506.71
788.11	2478.04
788.29	2365.40
788.46	2355.16
788.64	2299.87
788.81	2428.89
788.99	2408.41
789.16	2326.49
789.34	2439.13
789.52	2445.27
789.69	2392.03
789.87	2232.29
790.04	2447.32
790.22	2521.05
790.39	2719.70
790.57	2248.67
790.74	2351.07
790.92	2559.96
791.09	2314.20
791.27	2416.60
791.44	2480.09
791.62	2473.95
791.79	2541.53
791.97	2533.34
792.15	2830.29
792.32	2486.23
792.50	2580.44
792.67	2674.65
792.85	2627.54
793.02	2519.00
793.20	2478.04
793.37	2369.50
793.55	2463.71
793.72	2226.14
793.90	2504.67
794.07	2344.92
794.25	2314.20
794.42	2455.51
794.60	2394.08
794.77	2514.91
794.95	2506.71
795.12	2564.06
795.30	2457.56
795.47	2289.63
795.65	2723.80
795.82	2527.19
796.00	2389.98
796.17	2400.22
796.34	2396.12
796.52	2553.82
796.69	2510.81
796.87	2555.86
797.04	2543.58
797.22	2605.02
797.39	2457.56
797.57	2580.44
797.74	2486.23
797.92	2441.18
798.09	2519.00
798.27	2629.59
798.44	2373.60
798.62	2332.64
798.79	2504.67
798.96	2494.43
799.14	2463.71
799.31	2777.05
799.49	2482.14
799.66	2387.93
799.84	2488.28
800.01	2293.72
800.19	2387.93
800.36	2291.68
800.53	2445.27
800.71	2521.05
800.88	2662.36
801.06	2346.97
801.23	2351.07
801.41	2445.27
801.58	2441.18
801.75	2392.03
801.93	2498.52
802.10	2570.20
802.28	2443.23
802.45	2447.32
802.63	2539.48
802.80	2635.74
802.97	2451.42
803.15	2394.08
803.32	2424.80
803.50	2359.26
803.67	2297.82
803.84	2260.96
804.02	2389.98
804.19	2420.70
804.37	2265.05
804.54	2342.88
804.71	2361.31
804.89	2465.75
805.06	2383.84
805.24	2326.49
805.41	2385.88
805.58	2447.32
805.76	2748.37
805.93	2549.72
806.10	2678.74
806.28	2527.19
806.45	2521.05
806.63	2428.89
806.80	2549.72
806.97	2482.14
807.15	2535.39
807.32	2422.75
807.49	2408.41
807.67	2338.78
807.84	2547.67
808.01	2283.49
808.19	2670.55
808.36	2785.24
808.54	2428.89
808.71	2375.64
808.88	2519.00
809.06	2555.86
809.23	2682.84
809.40	2447.32
809.58	2494.43
809.75	2500.57
809.92	2306.01
810.10	2699.22
810.27	2490.33
810.44	2480.09
810.62	2584.54
810.79	2473.95
810.96	2385.88
811.14	2418.65
811.31	2598.87
811.48	2535.39
811.66	2463.71
811.83	2584.54
812.00	2543.58
812.18	2512.86
812.35	2703.32
812.52	2355.16
812.69	2457.56
812.87	2404.32
813.04	2357.21
813.21	2488.28
813.39	2338.78
813.56	2400.22
813.73	2617.30
813.91	2334.68
814.08	2478.04
814.25	2437.08
814.42	2297.82
814.60	2473.95
814.77	2496.47
814.94	2461.66
815.12	2453.47
815.29	2645.98
815.46	2437.08
815.63	2529.24
815.81	2506.71
815.98	2400.22
816.15	2445.27
816.33	2416.60
816.50	2424.80
816.67	2523.10
816.84	2453.47
817.02	2322.40
817.19	2451.42
817.36	2420.70
817.53	2498.52
817.71	2367.45
817.88	2480.09
818.05	2516.95
818.22	2447.32
818.40	2635.74
818.57	2412.51
818.74	2543.58
818.91	2445.27
819.09	2564.06
819.26	2492.38
819.43	2469.85
819.60	2385.88
819.78	2447.32
819.95	2516.95
820.12	2318.30
820.29	2629.59
820.47	2701.27
820.64	2412.51
820.81	2301.92
820.98	2355.16
821.15	2338.78
821.33	2519.00
821.50	2349.02
821.67	2482.14
821.84	2351.07
822.02	2551.77
822.19	2631.64
822.36	2422.75
822.53	2459.61
822.70	2283.49
822.88	2322.40
823.05	2609.11
823.22	2492.38
823.39	2539.48
823.56	2459.61
823.74	2719.70
823.91	2365.40
824.08	2379.74
824.25	2320.35
824.42	2674.65
824.60	2328.54
824.77	2424.80
824.94	2416.60
825.11	2566.10
825.28	2285.53
825.45	2422.75
825.63	2473.95
825.80	2332.64
825.97	2523.10
826.14	2414.56
826.31	2318.30
826.48	2486.23
826.66	2269.15
826.83	2416.60
827.00	2490.33
827.17	2365.40
827.34	2385.88
827.51	2396.12
827.69	2416.60
827.86	2332.64
828.03	2408.41
828.20	2469.85
828.37	2404.32
828.54	2514.91
828.71	2344.92
828.89	2539.48
829.06	2508.76
829.23	2639.83
829.40	2357.21
829.57	2363.36
829.74	2570.20
829.91	2355.16
830.09	2330.59
830.26	2523.10
830.43	2629.59
830.60	2482.14
830.77	2555.86
830.94	2592.73
831.11	2605.02
831.28	2471.90
831.46	2605.02
831.63	2373.60
831.80	2580.44
831.97	2338.78
832.14	2441.18
832.31	2498.52
832.48	2521.05
832.65	2535.39
832.82	2502.62
832.99	2484.19
833.17	2375.64
833.34	2662.36
833.51	2496.47
833.68	2265.05
833.85	2582.49
834.02	2346.97
834.19	2338.78
834.36	2351.07
834.53	2467.80
834.70	2535.39
834.87	2488.28
835.04	2375.64
835.22	2408.41
835.39	2457.56
835.56	2344.92
835.73	2387.93
835.90	2592.73
836.07	2473.95
836.24	2504.67
836.41	2310.11
836.58	2326.49
836.75	2564.06
836.92	2424.80
837.09	2285.53
837.26	2541.53
837.43	2519.00
837.60	2375.64
837.77	2387.93
837.94	2594.78
838.12	2523.10
838.29	2346.97
838.46	2306.01
838.63	2369.50
838.80	2631.64
838.97	2449.37
839.14	2322.40
839.31	2451.42
839.48	2582.49
839.65	2334.68
839.82	2498.52
839.99	2525.15
840.16	2410.46
840.33	2326.49
840.50	2473.95
840.67	2430.94
840.84	2195.42
841.01	2346.97
841.18	2338.78
841.35	2398.17
841.52	2506.71
841.69	2635.74
841.86	2408.41
842.03	2383.84
842.20	2607.06
842.37	2371.55
842.54	2389.98
842.71	2432.99
842.88	2314.20
843.05	2432.99
843.22	2342.88
843.39	2600.92
843.56	2383.84
843.73	2445.27
843.90	2385.88
844.07	2402.27
844.24	2527.19
844.41	2463.71
844.58	2449.37
844.75	2506.71
844.92	2480.09
845.09	2326.49
845.26	2371.55
845.43	2482.14
845.60	2473.95
845.77	2510.81
845.94	2410.46
846.10	2508.76
846.27	2271.20
846.44	2334.68
846.61	2299.87
846.78	2437.08
846.95	2625.50
847.12	2359.26
847.29	2412.51
847.46	2404.32
847.63	2543.58
847.80	2414.56
847.97	2353.12
848.14	2756.57
848.31	2473.95
848.48	2277.34
848.65	2435.03
848.82	2369.50
848.98	2832.34
849.15	2490.33
849.32	2535.39
849.49	2555.86
849.66	2502.62
849.83	2426.84
850.00	2271.20
850.17	2592.73
850.34	2414.56
850.51	2285.53
850.68	2365.40
850.85	2779.09
851.01	2568.15
851.18	2355.16
851.35	2338.78
851.52	2514.91
851.69	2652.12
851.86	2254.81
852.03	2328.54
852.20	2553.82
852.37	2400.22
852.53	2295.77
852.70	2412.51
852.87	2519.00
853.04	2570.20
853.21	2392.03
853.38	2473.95
853.55	2568.15
853.72	2592.73
853.89	2334.68
854.05	2353.12
854.22	2490.33
854.39	2396.12
854.56	2424.80
854.73	2512.86
854.90	2392.03
855.07	2451.42
855.23	2353.12
855.40	2332.64
855.57	2398.17
855.74	2232.29
855.91	2562.01
856.08	2238.43
856.25	2324.44
856.41	2428.89
856.58	2428.89
856.75	2414.56
856.92	2346.97
857.09	2621.40
857.26	2297.82
857.42	2367.45
857.59	2508.76
857.76	2424.80
857.93	2424.80
858.10	2447.32
858.27	2326.49
858.43	2516.95
858.60	2277.34
858.77	2260.96
858.94	2451.42
859.11	2656.22
859.27	2443.23
859.44	2408.41
859.61	2740.18
859.78	2531.29
859.95	2271.20
860.12	2367.45
860.28	2727.89
860.45	2721.75
860.62	2447.32
860.79	2420.70
860.95	2408.41
861.12	2330.59
861.29	2398.17
861.46	2297.82
861.63	2437.08
861.79	2441.18
861.96	2250.72
862.13	2353.12
862.30	2648.02
862.47	2359.26
862.63	2291.68
862.80	2445.27
862.97	2572.25
863.14	2494.43
863.30	2473.95
863.47	2289.63
863.64	2613.21
863.81	2502.62
863.97	2316.25
864.14	2410.46
864.31	2422.75
864.48	2486.23
864.65	2361.31
864.81	2465.75
864.98	2576.34
865.15	2562.01
865.32	2533.34
865.48	2521.05
865.65	2662.36
865.82	2416.60
865.98	2432.99
866.15	2500.57
866.32	2449.37
866.49	2467.80
866.65	2539.48
866.82	2334.68
866.99	2432.99
867.16	2381.79
867.32	2326.49
867.49	2303.96
867.66	2529.24
867.83	2387.93
867.99	2275.29
868.16	2375.64
868.33	2326.49
868.49	2494.43
868.66	2326.49
868.83	2473.95
868.99	2494.43
869.16	2519.00
869.33	2473.95
869.50	2449.37
869.66	2445.27
869.83	2549.72
870.00	2340.83
870.16	2432.99
870.33	2494.43
870.50	2588.63
870.66	2424.80
870.83	2486.23
871.00	2500.57
871.17	2527.19
871.33	2418.65
871.50	2326.49
871.67	2422.75
871.83	2326.49
872.00	2605.02
872.17	2402.27
872.33	2727.89
872.50	2645.98
872.67	2404.32
872.83	2400.22
873.00	2488.28
873.17	2482.14
873.33	2508.76
873.50	2486.23
873.67	2299.87
873.83	2301.92
874.00	2371.55
874.16	2519.00
874.33	2455.51
874.50	2318.30
874.66	2381.79
874.83	2383.84
875.00	2613.21
875.16	2600.92
875.33	2586.58
875.50	2228.19
875.66	2396.12
875.83	2451.42
875.99	2359.26
876.16	2367.45
876.33	2432.99
876.49	2432.99
876.66	2379.74
876.83	2387.93
876.99	2316.25
877.16	2428.89
877.32	2344.92
877.49	2355.16
877.66	2564.06
877.82	2721.75
877.99	2451.42
878.15	2541.53
878.32	2512.86
878.49	2580.44
878.65	2277.34
878.82	2607.06
878.98	2406.36
879.15	2629.59
879.32	2473.95
879.48	2500.57
879.65	2490.33
879.81	2461.66
879.98	2349.02
880.15	2375.64
880.31	2594.78
880.48	2369.50
880.64	2455.51
880.81	2453.47
880.97	2734.04
881.14	2590.68
881.31	2338.78
881.47	2541.53
881.64	2381.79
881.80	2215.90
881.97	2547.67
882.13	2475.99
882.30	2316.25
882.47	2412.51
882.63	2301.92
882.80	2293.72
882.96	2367.45
883.13	2641.88
883.29	2359.26
883.46	2402.27
883.62	2797.53
883.79	2496.47
883.95	2547.67
884.12	2457.56
884.29	2523.10
884.45	2428.89
884.62	2422.75
884.78	2285.53
884.95	2691.03
885.11	2400.22
885.28	2375.64
885.44	2465.75
885.61	2570.20
885.77	2596.82
885.94	2414.56
886.10	2451.42
886.27	2492.38
886.43	2684.89
886.60	2555.86
886.76	2400.22
886.93	2346.97
887.09	2502.62
887.26	2297.82
887.42	2400.22
887.59	2627.54
887.75	2781.14
887.92	2588.63
888.08	2484.19
888.25	2727.89
888.41	2545.63
888.58	2447.32
888.74	2310.11
888.91	2420.70
>>>>>End Processed Spectral Data<<<<<
