SpectraSuite Data File
++++++++++++++++++++++++++++++++++++
Date: Sun Apr 03 19:55:52 CEST 2016
User: root
Dark Spectrum Present: No
Reference Spectrum Present: No
Number of Sampled Component Spectra: 1
Spectrometers: USB4C02835
Integration Time (usec): 10000 (USB4C02835)
Spectra Averaged: 1 (USB4C02835)
Boxcar Smoothing: 0 (USB4C02835)
Correct for Electrical Dark: No (USB4C02835)
Strobe/Lamp Enabled: No (USB4C02835)
Correct for Detector Non-linearity: No (USB4C02835)
Correct for Stray Light: No (USB4C02835)
Number of Pixels in Processed Spectrum: 3648
>>>>>Begin Processed Spectral Data<<<<<
177.47	1208.30
177.69	1208.30
177.91	1208.30
178.13	1198.06
178.36	1204.21
178.58	1265.64
178.80	1273.84
179.02	1210.35
179.24	1282.03
179.46	1247.21
179.68	1271.79
179.90	1275.88
180.13	1187.82
180.35	1228.78
180.57	1292.27
180.79	1331.18
181.01	1218.54
181.23	1314.80
181.45	1292.27
181.67	1165.29
181.90	1306.60
182.12	1271.79
182.34	1261.55
182.56	1290.22
182.78	1241.07
183.00	1206.25
183.22	1298.41
183.44	1259.50
183.66	1220.59
183.89	1304.56
184.11	1265.64
184.33	1247.21
184.55	1253.36
184.77	1290.22
184.99	1222.64
185.21	1282.03
185.43	1212.40
185.65	1234.93
185.87	1243.12
186.10	1296.36
186.32	1253.36
186.54	1261.55
186.76	1355.76
186.98	1243.12
187.20	1296.36
187.42	1198.06
187.64	1316.84
187.86	1288.17
188.08	1290.22
188.30	1230.83
188.52	1220.59
188.75	1284.08
188.97	1239.02
189.19	1251.31
189.41	1263.60
189.63	1286.12
189.85	1218.54
190.07	1263.60
190.29	1261.55
190.51	1241.07
190.73	1253.36
190.95	1257.45
191.17	1337.32
191.39	1230.83
191.61	1247.21
191.84	1187.82
192.06	1294.32
192.28	1288.17
192.50	1306.60
192.72	1288.17
192.94	1329.13
193.16	1279.98
193.38	1245.16
193.60	1286.12
193.82	1292.27
194.04	1228.78
194.26	1292.27
194.48	1298.41
194.70	1271.79
194.92	1255.40
195.14	1269.74
195.36	1267.69
195.58	1183.73
195.80	1247.21
196.02	1302.51
196.24	1286.12
196.46	1239.02
196.69	1282.03
196.91	1290.22
197.13	1255.40
197.35	1189.87
197.57	1288.17
197.79	1251.31
198.01	1359.85
198.23	1216.49
198.45	1275.88
198.67	1322.99
198.89	1249.26
199.11	1296.36
199.33	1302.51
199.55	1183.73
199.77	1245.16
199.99	1247.21
200.21	1175.53
200.43	1290.22
200.65	1325.04
200.87	1333.23
201.09	1292.27
201.31	1298.41
201.53	1320.94
201.75	1308.65
201.97	1282.03
202.19	1210.35
202.41	1306.60
202.63	1298.41
202.85	1214.45
203.07	1261.55
203.29	1263.60
203.51	1261.55
203.73	1232.88
203.95	1298.41
204.17	1245.16
204.39	1304.56
204.61	1277.93
204.83	1300.46
205.05	1288.17
205.27	1263.60
205.49	1265.64
205.71	1216.49
205.93	1255.40
206.15	1251.31
206.37	1177.58
206.59	1253.36
206.81	1259.50
207.03	1325.04
207.25	1212.40
207.47	1232.88
207.69	1230.83
207.91	1325.04
208.13	1232.88
208.34	1263.60
208.56	1204.21
208.78	1282.03
209.00	1302.51
209.22	1210.35
209.44	1247.21
209.66	1249.26
209.88	1144.81
210.10	1279.98
210.32	1259.50
210.54	1249.26
210.76	1275.88
210.98	1214.45
211.20	1261.55
211.42	1288.17
211.64	1208.30
211.86	1306.60
212.08	1292.27
212.30	1298.41
212.52	1216.49
212.74	1255.40
212.96	1241.07
213.17	1306.60
213.39	1314.80
213.61	1222.64
213.83	1269.74
214.05	1294.32
214.27	1263.60
214.49	1347.56
214.71	1286.12
214.93	1322.99
215.15	1247.21
215.37	1279.98
215.59	1214.45
215.81	1339.37
216.03	1314.80
216.24	1288.17
216.46	1269.74
216.68	1263.60
216.90	1245.16
217.12	1292.27
217.34	1243.12
217.56	1296.36
217.78	1239.02
218.00	1290.22
218.22	1290.22
218.44	1271.79
218.66	1263.60
218.87	1296.36
219.09	1249.26
219.31	1279.98
219.53	1247.21
219.75	1331.18
219.97	1224.69
220.19	1294.32
220.41	1279.98
220.63	1310.70
220.85	1249.26
221.06	1259.50
221.28	1255.40
221.50	1282.03
221.72	1224.69
221.94	1284.08
222.16	1249.26
222.38	1318.89
222.60	1253.36
222.82	1308.65
223.03	1263.60
223.25	1261.55
223.47	1312.75
223.69	1290.22
223.91	1271.79
224.13	1325.04
224.35	1220.59
224.57	1290.22
224.78	1257.45
225.00	1214.45
225.22	1271.79
225.44	1271.79
225.66	1279.98
225.88	1265.64
226.10	1290.22
226.32	1198.06
226.53	1263.60
226.75	1310.70
226.97	1335.28
227.19	1279.98
227.41	1189.87
227.63	1263.60
227.85	1239.02
228.06	1263.60
228.28	1189.87
228.50	1318.89
228.72	1263.60
228.94	1253.36
229.16	1222.64
229.37	1216.49
229.59	1255.40
229.81	1329.13
230.03	1241.07
230.25	1245.16
230.47	1300.46
230.69	1316.84
230.90	1200.11
231.12	1263.60
231.34	1255.40
231.56	1292.27
231.78	1265.64
232.00	1296.36
232.21	1282.03
232.43	1316.84
232.65	1259.50
232.87	1247.21
233.09	1236.97
233.30	1247.21
233.52	1263.60
233.74	1267.69
233.96	1304.56
234.18	1251.31
234.40	1290.22
234.61	1300.46
234.83	1257.45
235.05	1243.12
235.27	1288.17
235.49	1216.49
235.70	1304.56
235.92	1361.90
236.14	1308.65
236.36	1320.94
236.58	1239.02
236.79	1347.56
237.01	1241.07
237.23	1271.79
237.45	1265.64
237.67	1363.95
237.88	1249.26
238.10	1216.49
238.32	1224.69
238.54	1220.59
238.76	1282.03
238.97	1259.50
239.19	1318.89
239.41	1273.84
239.63	1267.69
239.85	1263.60
240.06	1290.22
240.28	1230.83
240.50	1263.60
240.72	1304.56
240.93	1318.89
241.15	1306.60
241.37	1265.64
241.59	1243.12
241.81	1300.46
242.02	1288.17
242.24	1196.01
242.46	1232.88
242.68	1269.74
242.89	1374.19
243.11	1239.02
243.33	1241.07
243.55	1204.21
243.76	1273.84
243.98	1366.00
244.20	1263.60
244.42	1271.79
244.64	1245.16
244.85	1247.21
245.07	1316.84
245.29	1241.07
245.51	1271.79
245.72	1249.26
245.94	1241.07
246.16	1335.28
246.38	1239.02
246.59	1308.65
246.81	1255.40
247.03	1275.88
247.24	1286.12
247.46	1216.49
247.68	1279.98
247.90	1257.45
248.11	1279.98
248.33	1302.51
248.55	1200.11
248.77	1232.88
248.98	1257.45
249.20	1251.31
249.42	1226.73
249.64	1275.88
249.85	1255.40
250.07	1286.12
250.29	1263.60
250.50	1288.17
250.72	1255.40
250.94	1267.69
251.16	1296.36
251.37	1302.51
251.59	1249.26
251.81	1265.64
252.02	1187.82
252.24	1230.83
252.46	1298.41
252.68	1294.32
252.89	1271.79
253.11	1216.49
253.33	1239.02
253.54	1241.07
253.76	1308.65
253.98	1224.69
254.20	1255.40
254.41	1243.12
254.63	1249.26
254.85	1322.99
255.06	1294.32
255.28	1312.75
255.50	1314.80
255.71	1210.35
255.93	1193.97
256.15	1320.94
256.36	1232.88
256.58	1187.82
256.80	1216.49
257.02	1333.23
257.23	1202.16
257.45	1290.22
257.67	1302.51
257.88	1253.36
258.10	1239.02
258.32	1277.93
258.53	1322.99
258.75	1275.88
258.97	1310.70
259.18	1189.87
259.40	1329.13
259.62	1255.40
259.83	1361.90
260.05	1302.51
260.27	1298.41
260.48	1261.55
260.70	1279.98
260.92	1232.88
261.13	1269.74
261.35	1294.32
261.57	1279.98
261.78	1234.93
262.00	1284.08
262.22	1279.98
262.43	1247.21
262.65	1202.16
262.86	1241.07
263.08	1193.97
263.30	1294.32
263.51	1273.84
263.73	1216.49
263.95	1312.75
264.16	1327.08
264.38	1341.42
264.60	1224.69
264.81	1271.79
265.03	1347.56
265.25	1249.26
265.46	1265.64
265.68	1284.08
265.89	1296.36
266.11	1273.84
266.33	1290.22
266.54	1351.66
266.76	1316.84
266.98	1222.64
267.19	1208.30
267.41	1245.16
267.62	1275.88
267.84	1269.74
268.06	1257.45
268.27	1286.12
268.49	1322.99
268.70	1298.41
268.92	1310.70
269.14	1253.36
269.35	1290.22
269.57	1247.21
269.79	1279.98
270.00	1339.37
270.22	1206.25
270.43	1249.26
270.65	1273.84
270.87	1259.50
271.08	1265.64
271.30	1253.36
271.51	1325.04
271.73	1239.02
271.95	1312.75
272.16	1294.32
272.38	1224.69
272.59	1290.22
272.81	1282.03
273.02	1298.41
273.24	1308.65
273.46	1247.21
273.67	1257.45
273.89	1251.31
274.10	1335.28
274.32	1163.25
274.54	1286.12
274.75	1200.11
274.97	1275.88
275.18	1263.60
275.40	1282.03
275.61	1327.08
275.83	1247.21
276.05	1220.59
276.26	1282.03
276.48	1253.36
276.69	1308.65
276.91	1298.41
277.12	1304.56
277.34	1318.89
277.55	1253.36
277.77	1212.40
277.99	1279.98
278.20	1308.65
278.42	1306.60
278.63	1249.26
278.85	1275.88
279.06	1251.31
279.28	1265.64
279.49	1322.99
279.71	1296.36
279.93	1308.65
280.14	1314.80
280.36	1271.79
280.57	1234.93
280.79	1257.45
281.00	1273.84
281.22	1273.84
281.43	1296.36
281.65	1310.70
281.86	1286.12
282.08	1341.42
282.29	1249.26
282.51	1216.49
282.73	1232.88
282.94	1208.30
283.16	1230.83
283.37	1255.40
283.59	1286.12
283.80	1236.97
284.02	1241.07
284.23	1247.21
284.45	1220.59
284.66	1267.69
284.88	1220.59
285.09	1228.78
285.31	1212.40
285.52	1302.51
285.74	1331.18
285.95	1245.16
286.17	1275.88
286.38	1200.11
286.60	1187.82
286.81	1232.88
287.03	1226.73
287.24	1290.22
287.46	1230.83
287.67	1329.13
287.89	1294.32
288.10	1224.69
288.32	1261.55
288.53	1296.36
288.75	1277.93
288.96	1339.37
289.18	1279.98
289.39	1322.99
289.61	1181.68
289.82	1255.40
290.04	1296.36
290.25	1273.84
290.47	1214.45
290.68	1263.60
290.90	1175.53
291.11	1277.93
291.33	1294.32
291.54	1249.26
291.76	1263.60
291.97	1341.42
292.18	1243.12
292.40	1224.69
292.61	1288.17
292.83	1282.03
293.04	1263.60
293.26	1267.69
293.47	1296.36
293.69	1327.08
293.90	1290.22
294.12	1261.55
294.33	1232.88
294.55	1279.98
294.76	1216.49
294.97	1286.12
295.19	1271.79
295.40	1232.88
295.62	1239.02
295.83	1220.59
296.05	1312.75
296.26	1243.12
296.48	1198.06
296.69	1234.93
296.90	1310.70
297.12	1214.45
297.33	1259.50
297.55	1271.79
297.76	1310.70
297.98	1298.41
298.19	1204.21
298.41	1288.17
298.62	1261.55
298.83	1261.55
299.05	1279.98
299.26	1261.55
299.48	1224.69
299.69	1232.88
299.90	1269.74
300.12	1259.50
300.33	1210.35
300.55	1226.73
300.76	1292.27
300.98	1228.78
301.19	1253.36
301.40	1329.13
301.62	1329.13
301.83	1257.45
302.05	1292.27
302.26	1302.51
302.47	1257.45
302.69	1312.75
302.90	1228.78
303.12	1245.16
303.33	1337.32
303.54	1259.50
303.76	1308.65
303.97	1288.17
304.19	1226.73
304.40	1292.27
304.61	1249.26
304.83	1271.79
305.04	1200.11
305.26	1259.50
305.47	1296.36
305.68	1212.40
305.90	1331.18
306.11	1236.97
306.33	1279.98
306.54	1200.11
306.75	1290.22
306.97	1208.30
307.18	1335.28
307.39	1290.22
307.61	1277.93
307.82	1257.45
308.04	1263.60
308.25	1308.65
308.46	1255.40
308.68	1277.93
308.89	1288.17
309.10	1292.27
309.32	1218.54
309.53	1261.55
309.74	1304.56
309.96	1241.07
310.17	1249.26
310.39	1286.12
310.60	1253.36
310.81	1335.28
311.03	1282.03
311.24	1245.16
311.45	1331.18
311.67	1269.74
311.88	1216.49
312.09	1296.36
312.31	1249.26
312.52	1298.41
312.73	1243.12
312.95	1290.22
313.16	1263.60
313.37	1271.79
313.59	1271.79
313.80	1290.22
314.01	1243.12
314.23	1245.16
314.44	1290.22
314.65	1339.37
314.87	1247.21
315.08	1263.60
315.29	1284.08
315.51	1224.69
315.72	1292.27
315.93	1277.93
316.15	1224.69
316.36	1263.60
316.57	1306.60
316.79	1243.12
317.00	1200.11
317.21	1249.26
317.43	1234.93
317.64	1296.36
317.85	1247.21
318.07	1243.12
318.28	1243.12
318.49	1214.45
318.70	1292.27
318.92	1312.75
319.13	1222.64
319.34	1279.98
319.56	1310.70
319.77	1267.69
319.98	1304.56
320.20	1306.60
320.41	1251.31
320.62	1257.45
320.83	1255.40
321.05	1310.70
321.26	1286.12
321.47	1220.59
321.69	1269.74
321.90	1193.97
322.11	1247.21
322.32	1212.40
322.54	1228.78
322.75	1351.66
322.96	1275.88
323.18	1259.50
323.39	1320.94
323.60	1222.64
323.81	1386.47
324.03	1212.40
324.24	1277.93
324.45	1282.03
324.66	1318.89
324.88	1261.55
325.09	1320.94
325.30	1257.45
325.52	1230.83
325.73	1304.56
325.94	1343.47
326.15	1284.08
326.37	1282.03
326.58	1306.60
326.79	1335.28
327.00	1331.18
327.22	1282.03
327.43	1159.15
327.64	1224.69
327.85	1265.64
328.07	1269.74
328.28	1249.26
328.49	1187.82
328.70	1216.49
328.92	1292.27
329.13	1241.07
329.34	1318.89
329.55	1306.60
329.76	1282.03
329.98	1320.94
330.19	1216.49
330.40	1261.55
330.61	1259.50
330.83	1304.56
331.04	1339.37
331.25	1251.31
331.46	1284.08
331.68	1257.45
331.89	1232.88
332.10	1257.45
332.31	1200.11
332.52	1249.26
332.74	1251.31
332.95	1263.60
333.16	1314.80
333.37	1236.97
333.58	1273.84
333.80	1232.88
334.01	1263.60
334.22	1290.22
334.43	1273.84
334.64	1251.31
334.86	1259.50
335.07	1257.45
335.28	1245.16
335.49	1196.01
335.70	1286.12
335.92	1216.49
336.13	1314.80
336.34	1279.98
336.55	1298.41
336.76	1198.06
336.98	1214.45
337.19	1271.79
337.40	1298.41
337.61	1277.93
337.82	1253.36
338.04	1257.45
338.25	1279.98
338.46	1247.21
338.67	1292.27
338.88	1316.84
339.09	1239.02
339.31	1179.63
339.52	1265.64
339.73	1292.27
339.94	1314.80
340.15	1275.88
340.36	1290.22
340.58	1296.36
340.79	1236.97
341.00	1251.31
341.21	1220.59
341.42	1249.26
341.63	1304.56
341.85	1245.16
342.06	1277.93
342.27	1226.73
342.48	1226.73
342.69	1216.49
342.90	1290.22
343.12	1271.79
343.33	1296.36
343.54	1304.56
343.75	1370.09
343.96	1230.83
344.17	1228.78
344.38	1263.60
344.60	1294.32
344.81	1253.36
345.02	1183.73
345.23	1196.01
345.44	1372.14
345.65	1234.93
345.86	1288.17
346.07	1308.65
346.29	1253.36
346.50	1302.51
346.71	1255.40
346.92	1247.21
347.13	1363.95
347.34	1167.34
347.55	1253.36
347.76	1290.22
347.98	1251.31
348.19	1251.31
348.40	1251.31
348.61	1206.25
348.82	1275.88
349.03	1284.08
349.24	1198.06
349.45	1335.28
349.66	1329.13
349.88	1296.36
350.09	1331.18
350.30	1286.12
350.51	1341.42
350.72	1269.74
350.93	1314.80
351.14	1200.11
351.35	1236.97
351.56	1204.21
351.77	1363.95
351.99	1261.55
352.20	1247.21
352.41	1294.32
352.62	1265.64
352.83	1222.64
353.04	1236.97
353.25	1216.49
353.46	1290.22
353.67	1275.88
353.88	1183.73
354.09	1232.88
354.30	1312.75
354.52	1263.60
354.73	1359.85
354.94	1243.12
355.15	1269.74
355.36	1271.79
355.57	1241.07
355.78	1236.97
355.99	1224.69
356.20	1284.08
356.41	1271.79
356.62	1310.70
356.83	1249.26
357.04	1282.03
357.25	1245.16
357.46	1345.52
357.68	1292.27
357.89	1239.02
358.10	1296.36
358.31	1275.88
358.52	1232.88
358.73	1234.93
358.94	1271.79
359.15	1273.84
359.36	1339.37
359.57	1255.40
359.78	1284.08
359.99	1204.21
360.20	1271.79
360.41	1265.64
360.62	1296.36
360.83	1275.88
361.04	1279.98
361.25	1271.79
361.46	1216.49
361.67	1290.22
361.88	1245.16
362.09	1241.07
362.30	1204.21
362.51	1224.69
362.72	1267.69
362.93	1341.42
363.14	1208.30
363.35	1275.88
363.56	1255.40
363.78	1249.26
363.99	1304.56
364.20	1279.98
364.41	1228.78
364.62	1290.22
364.83	1300.46
365.04	1251.31
365.25	1236.97
365.46	1267.69
365.67	1263.60
365.88	1273.84
366.09	1249.26
366.30	1236.97
366.51	1314.80
366.72	1214.45
366.93	1232.88
367.14	1249.26
367.35	1196.01
367.56	1249.26
367.77	1265.64
367.98	1318.89
368.18	1269.74
368.39	1282.03
368.60	1329.13
368.81	1245.16
369.02	1245.16
369.23	1265.64
369.44	1304.56
369.65	1304.56
369.86	1275.88
370.07	1247.21
370.28	1361.90
370.49	1286.12
370.70	1265.64
370.91	1216.49
371.12	1261.55
371.33	1290.22
371.54	1349.61
371.75	1261.55
371.96	1322.99
372.17	1200.11
372.38	1294.32
372.59	1271.79
372.80	1306.60
373.01	1230.83
373.22	1298.41
373.43	1271.79
373.64	1304.56
373.85	1302.51
374.06	1277.93
374.26	1257.45
374.47	1200.11
374.68	1187.82
374.89	1216.49
375.10	1230.83
375.31	1337.32
375.52	1245.16
375.73	1314.80
375.94	1296.36
376.15	1310.70
376.36	1230.83
376.57	1239.02
376.78	1279.98
376.99	1191.92
377.20	1234.93
377.40	1196.01
377.61	1310.70
377.82	1310.70
378.03	1239.02
378.24	1304.56
378.45	1257.45
378.66	1241.07
378.87	1308.65
379.08	1257.45
379.29	1253.36
379.50	1232.88
379.71	1245.16
379.91	1234.93
380.12	1257.45
380.33	1267.69
380.54	1259.50
380.75	1202.16
380.96	1236.97
381.17	1249.26
381.38	1265.64
381.59	1294.32
381.80	1263.60
382.00	1300.46
382.21	1269.74
382.42	1265.64
382.63	1308.65
382.84	1251.31
383.05	1232.88
383.26	1306.60
383.47	1275.88
383.68	1290.22
383.88	1212.40
384.09	1347.56
384.30	1308.65
384.51	1292.27
384.72	1314.80
384.93	1259.50
385.14	1288.17
385.35	1253.36
385.55	1218.54
385.76	1282.03
385.97	1196.01
386.18	1269.74
386.39	1263.60
386.60	1222.64
386.81	1277.93
387.02	1200.11
387.22	1220.59
387.43	1247.21
387.64	1232.88
387.85	1353.71
388.06	1228.78
388.27	1267.69
388.48	1288.17
388.68	1241.07
388.89	1265.64
389.10	1243.12
389.31	1304.56
389.52	1288.17
389.73	1259.50
389.93	1353.71
390.14	1351.66
390.35	1308.65
390.56	1261.55
390.77	1271.79
390.98	1239.02
391.18	1310.70
391.39	1161.20
391.60	1304.56
391.81	1216.49
392.02	1337.32
392.23	1239.02
392.43	1322.99
392.64	1273.84
392.85	1187.82
393.06	1304.56
393.27	1265.64
393.47	1245.16
393.68	1234.93
393.89	1247.21
394.10	1308.65
394.31	1290.22
394.52	1327.08
394.72	1298.41
394.93	1269.74
395.14	1265.64
395.35	1322.99
395.56	1300.46
395.76	1273.84
395.97	1302.51
396.18	1296.36
396.39	1275.88
396.60	1253.36
396.80	1241.07
397.01	1296.36
397.22	1312.75
397.43	1271.79
397.64	1347.56
397.84	1363.95
398.05	1300.46
398.26	1275.88
398.47	1239.02
398.67	1236.97
398.88	1294.32
399.09	1236.97
399.30	1306.60
399.51	1273.84
399.71	1282.03
399.92	1243.12
400.13	1234.93
400.34	1267.69
400.54	1277.93
400.75	1271.79
400.96	1249.26
401.17	1279.98
401.37	1351.66
401.58	1337.32
401.79	1275.88
402.00	1271.79
402.21	1255.40
402.41	1294.32
402.62	1210.35
402.83	1318.89
403.04	1273.84
403.24	1308.65
403.45	1247.21
403.66	1271.79
403.87	1284.08
404.07	1271.79
404.28	1261.55
404.49	1198.06
404.70	1230.83
404.90	1265.64
405.11	1214.45
405.32	1249.26
405.52	1275.88
405.73	1279.98
405.94	1306.60
406.15	1263.60
406.35	1265.64
406.56	1230.83
406.77	1267.69
406.98	1286.12
407.18	1310.70
407.39	1282.03
407.60	1263.60
407.80	1325.04
408.01	1271.79
408.22	1312.75
408.43	1320.94
408.63	1290.22
408.84	1277.93
409.05	1245.16
409.25	1271.79
409.46	1212.40
409.67	1253.36
409.88	1325.04
410.08	1269.74
410.29	1261.55
410.50	1261.55
410.70	1218.54
410.91	1236.97
411.12	1290.22
411.32	1251.31
411.53	1255.40
411.74	1253.36
411.95	1226.73
412.15	1241.07
412.36	1298.41
412.57	1275.88
412.77	1339.37
412.98	1234.93
413.19	1298.41
413.39	1257.45
413.60	1232.88
413.81	1308.65
414.01	1241.07
414.22	1265.64
414.43	1265.64
414.63	1220.59
414.84	1310.70
415.05	1271.79
415.25	1183.73
415.46	1304.56
415.67	1230.83
415.87	1265.64
416.08	1267.69
416.29	1214.45
416.49	1208.30
416.70	1327.08
416.91	1296.36
417.11	1239.02
417.32	1228.78
417.53	1296.36
417.73	1292.27
417.94	1243.12
418.15	1288.17
418.35	1312.75
418.56	1296.36
418.77	1322.99
418.97	1294.32
419.18	1187.82
419.38	1290.22
419.59	1271.79
419.80	1214.45
420.00	1263.60
420.21	1265.64
420.42	1275.88
420.62	1271.79
420.83	1296.36
421.04	1212.40
421.24	1286.12
421.45	1286.12
421.65	1239.02
421.86	1312.75
422.07	1306.60
422.27	1204.21
422.48	1251.31
422.69	1232.88
422.89	1288.17
423.10	1265.64
423.30	1284.08
423.51	1296.36
423.72	1249.26
423.92	1325.04
424.13	1218.54
424.33	1230.83
424.54	1245.16
424.75	1239.02
424.95	1234.93
425.16	1294.32
425.36	1263.60
425.57	1312.75
425.78	1282.03
425.98	1273.84
426.19	1245.16
426.39	1165.29
426.60	1275.88
426.81	1241.07
427.01	1300.46
427.22	1210.35
427.42	1277.93
427.63	1277.93
427.83	1218.54
428.04	1232.88
428.25	1247.21
428.45	1239.02
428.66	1249.26
428.86	1300.46
429.07	1200.11
429.28	1273.84
429.48	1275.88
429.69	1292.27
429.89	1282.03
430.10	1308.65
430.30	1247.21
430.51	1368.04
430.71	1216.49
430.92	1277.93
431.13	1202.16
431.33	1222.64
431.54	1298.41
431.74	1282.03
431.95	1255.40
432.15	1294.32
432.36	1261.55
432.56	1339.37
432.77	1292.27
432.98	1269.74
433.18	1277.93
433.39	1316.84
433.59	1251.31
433.80	1220.59
434.00	1247.21
434.21	1277.93
434.41	1288.17
434.62	1343.47
434.82	1265.64
435.03	1271.79
435.23	1218.54
435.44	1261.55
435.64	1257.45
435.85	1275.88
436.06	1331.18
436.26	1245.16
436.47	1228.78
436.67	1247.21
436.88	1255.40
437.08	1296.36
437.29	1251.31
437.49	1243.12
437.70	1271.79
437.90	1306.60
438.11	1322.99
438.31	1267.69
438.52	1277.93
438.72	1304.56
438.93	1376.24
439.13	1288.17
439.34	1306.60
439.54	1286.12
439.75	1282.03
439.95	1259.50
440.16	1187.82
440.36	1255.40
440.57	1298.41
440.77	1230.83
440.98	1275.88
441.18	1247.21
441.39	1267.69
441.59	1234.93
441.80	1265.64
442.00	1282.03
442.21	1257.45
442.41	1265.64
442.62	1282.03
442.82	1331.18
443.02	1259.50
443.23	1341.42
443.43	1355.76
443.64	1245.16
443.84	1327.08
444.05	1236.97
444.25	1306.60
444.46	1265.64
444.66	1279.98
444.87	1370.09
445.07	1339.37
445.28	1282.03
445.48	1273.84
445.69	1298.41
445.89	1341.42
446.09	1257.45
446.30	1343.47
446.50	1296.36
446.71	1181.68
446.91	1302.51
447.12	1265.64
447.32	1292.27
447.53	1243.12
447.73	1282.03
447.93	1249.26
448.14	1294.32
448.34	1200.11
448.55	1243.12
448.75	1265.64
448.96	1253.36
449.16	1222.64
449.36	1273.84
449.57	1320.94
449.77	1290.22
449.98	1236.97
450.18	1366.00
450.39	1251.31
450.59	1255.40
450.79	1273.84
451.00	1275.88
451.20	1249.26
451.41	1279.98
451.61	1294.32
451.81	1284.08
452.02	1249.26
452.22	1304.56
452.43	1183.73
452.63	1232.88
452.84	1255.40
453.04	1259.50
453.24	1308.65
453.45	1243.12
453.65	1310.70
453.86	1306.60
454.06	1263.60
454.26	1308.65
454.47	1279.98
454.67	1273.84
454.87	1228.78
455.08	1335.28
455.28	1294.32
455.49	1216.49
455.69	1253.36
455.89	1249.26
456.10	1343.47
456.30	1282.03
456.51	1273.84
456.71	1249.26
456.91	1251.31
457.12	1296.36
457.32	1304.56
457.52	1255.40
457.73	1333.23
457.93	1249.26
458.14	1251.31
458.34	1296.36
458.54	1259.50
458.75	1277.93
458.95	1306.60
459.15	1222.64
459.36	1302.51
459.56	1257.45
459.76	1257.45
459.97	1314.80
460.17	1275.88
460.37	1304.56
460.58	1255.40
460.78	1286.12
460.99	1220.59
461.19	1265.64
461.39	1253.36
461.60	1191.92
461.80	1234.93
462.00	1232.88
462.21	1241.07
462.41	1247.21
462.61	1341.42
462.82	1228.78
463.02	1306.60
463.22	1288.17
463.43	1349.61
463.63	1255.40
463.83	1198.06
464.04	1241.07
464.24	1320.94
464.44	1275.88
464.64	1257.45
464.85	1275.88
465.05	1347.56
465.25	1325.04
465.46	1284.08
465.66	1261.55
465.86	1251.31
466.07	1239.02
466.27	1277.93
466.47	1312.75
466.68	1247.21
466.88	1347.56
467.08	1282.03
467.29	1193.97
467.49	1245.16
467.69	1306.60
467.89	1273.84
468.10	1245.16
468.30	1275.88
468.50	1302.51
468.71	1284.08
468.91	1322.99
469.11	1230.83
469.31	1255.40
469.52	1234.93
469.72	1228.78
469.92	1329.13
470.13	1277.93
470.33	1263.60
470.53	1345.52
470.73	1259.50
470.94	1302.51
471.14	1241.07
471.34	1275.88
471.54	1193.97
471.75	1243.12
471.95	1257.45
472.15	1288.17
472.36	1286.12
472.56	1282.03
472.76	1261.55
472.96	1282.03
473.17	1310.70
473.37	1302.51
473.57	1282.03
473.77	1247.21
473.98	1251.31
474.18	1236.97
474.38	1316.84
474.58	1208.30
474.79	1275.88
474.99	1255.40
475.19	1275.88
475.39	1316.84
475.60	1325.04
475.80	1277.93
476.00	1249.26
476.20	1290.22
476.41	1269.74
476.61	1333.23
476.81	1220.59
477.01	1282.03
477.21	1255.40
477.42	1230.83
477.62	1249.26
477.82	1279.98
478.02	1277.93
478.23	1279.98
478.43	1263.60
478.63	1247.21
478.83	1298.41
479.03	1222.64
479.24	1245.16
479.44	1255.40
479.64	1312.75
479.84	1277.93
480.04	1226.73
480.25	1265.64
480.45	1234.93
480.65	1261.55
480.85	1310.70
481.06	1222.64
481.26	1296.36
481.46	1341.42
481.66	1265.64
481.86	1210.35
482.06	1179.63
482.27	1269.74
482.47	1222.64
482.67	1247.21
482.87	1245.16
483.07	1298.41
483.28	1290.22
483.48	1314.80
483.68	1335.28
483.88	1193.97
484.08	1288.17
484.29	1259.50
484.49	1228.78
484.69	1343.47
484.89	1294.32
485.09	1302.51
485.29	1279.98
485.50	1239.02
485.70	1177.58
485.90	1296.36
486.10	1296.36
486.30	1284.08
486.50	1302.51
486.71	1222.64
486.91	1243.12
487.11	1290.22
487.31	1316.84
487.51	1204.21
487.71	1312.75
487.91	1261.55
488.12	1271.79
488.32	1251.31
488.52	1337.32
488.72	1314.80
488.92	1290.22
489.12	1228.78
489.32	1224.69
489.53	1282.03
489.73	1269.74
489.93	1275.88
490.13	1206.25
490.33	1294.32
490.53	1269.74
490.73	1214.45
490.94	1208.30
491.14	1296.36
491.34	1232.88
491.54	1249.26
491.74	1253.36
491.94	1304.56
492.14	1247.21
492.34	1255.40
492.54	1318.89
492.75	1232.88
492.95	1310.70
493.15	1273.84
493.35	1222.64
493.55	1288.17
493.75	1255.40
493.95	1318.89
494.15	1257.45
494.35	1261.55
494.56	1298.41
494.76	1239.02
494.96	1282.03
495.16	1314.80
495.36	1306.60
495.56	1239.02
495.76	1165.29
495.96	1173.49
496.16	1300.46
496.36	1318.89
496.56	1228.78
496.77	1271.79
496.97	1286.12
497.17	1306.60
497.37	1298.41
497.57	1224.69
497.77	1316.84
497.97	1294.32
498.17	1239.02
498.37	1245.16
498.57	1265.64
498.77	1306.60
498.97	1222.64
499.17	1263.60
499.38	1279.98
499.58	1220.59
499.78	1257.45
499.98	1267.69
500.18	1177.58
500.38	1198.06
500.58	1257.45
500.78	1241.07
500.98	1288.17
501.18	1271.79
501.38	1273.84
501.58	1230.83
501.78	1286.12
501.98	1325.04
502.18	1314.80
502.38	1263.60
502.58	1335.28
502.78	1212.40
502.98	1308.65
503.18	1228.78
503.38	1245.16
503.59	1263.60
503.79	1314.80
503.99	1284.08
504.19	1232.88
504.39	1265.64
504.59	1212.40
504.79	1175.53
504.99	1294.32
505.19	1370.09
505.39	1232.88
505.59	1239.02
505.79	1296.36
505.99	1322.99
506.19	1308.65
506.39	1265.64
506.59	1282.03
506.79	1269.74
506.99	1288.17
507.19	1261.55
507.39	1269.74
507.59	1247.21
507.79	1327.08
507.99	1327.08
508.19	1275.88
508.39	1257.45
508.59	1288.17
508.79	1267.69
508.99	1300.46
509.19	1247.21
509.39	1265.64
509.59	1292.27
509.79	1286.12
509.99	1372.14
510.19	1290.22
510.39	1290.22
510.59	1273.84
510.79	1241.07
510.99	1322.99
511.19	1304.56
511.39	1312.75
511.59	1288.17
511.79	1282.03
511.99	1263.60
512.19	1255.40
512.38	1292.27
512.58	1308.65
512.78	1298.41
512.98	1333.23
513.18	1288.17
513.38	1290.22
513.58	1304.56
513.78	1200.11
513.98	1298.41
514.18	1341.42
514.38	1247.21
514.58	1308.65
514.78	1265.64
514.98	1261.55
515.18	1312.75
515.38	1265.64
515.58	1351.66
515.78	1320.94
515.98	1327.08
516.18	1249.26
516.38	1267.69
516.57	1361.90
516.77	1282.03
516.97	1308.65
517.17	1294.32
517.37	1259.50
517.57	1290.22
517.77	1294.32
517.97	1257.45
518.17	1284.08
518.37	1312.75
518.57	1312.75
518.77	1271.79
518.97	1331.18
519.16	1310.70
519.36	1202.16
519.56	1341.42
519.76	1300.46
519.96	1282.03
520.16	1279.98
520.36	1265.64
520.56	1226.73
520.76	1322.99
520.96	1308.65
521.16	1351.66
521.35	1257.45
521.55	1271.79
521.75	1191.92
521.95	1320.94
522.15	1277.93
522.35	1232.88
522.55	1322.99
522.75	1259.50
522.95	1288.17
523.14	1261.55
523.34	1306.60
523.54	1300.46
523.74	1312.75
523.94	1265.64
524.14	1255.40
524.34	1290.22
524.54	1302.51
524.73	1206.25
524.93	1277.93
525.13	1255.40
525.33	1245.16
525.53	1333.23
525.73	1284.08
525.93	1347.56
526.13	1292.27
526.32	1306.60
526.52	1226.73
526.72	1366.00
526.92	1275.88
527.12	1253.36
527.32	1224.69
527.52	1290.22
527.71	1269.74
527.91	1343.47
528.11	1322.99
528.31	1284.08
528.51	1329.13
528.71	1292.27
528.90	1267.69
529.10	1331.18
529.30	1304.56
529.50	1288.17
529.70	1275.88
529.90	1249.26
530.09	1290.22
530.29	1245.16
530.49	1296.36
530.69	1253.36
530.89	1292.27
531.09	1265.64
531.28	1261.55
531.48	1308.65
531.68	1290.22
531.88	1329.13
532.08	1288.17
532.28	1241.07
532.47	1327.08
532.67	1263.60
532.87	1249.26
533.07	1329.13
533.27	1243.12
533.46	1300.46
533.66	1325.04
533.86	1216.49
534.06	1251.31
534.26	1273.84
534.45	1312.75
534.65	1273.84
534.85	1286.12
535.05	1191.92
535.25	1247.21
535.44	1228.78
535.64	1282.03
535.84	1247.21
536.04	1275.88
536.24	1282.03
536.43	1251.31
536.63	1273.84
536.83	1318.89
537.03	1273.84
537.22	1214.45
537.42	1271.79
537.62	1230.83
537.82	1277.93
538.02	1224.69
538.21	1290.22
538.41	1314.80
538.61	1298.41
538.81	1251.31
539.00	1288.17
539.20	1271.79
539.40	1189.87
539.60	1273.84
539.79	1216.49
539.99	1245.16
540.19	1263.60
540.39	1257.45
540.58	1255.40
540.78	1318.89
540.98	1271.79
541.18	1271.79
541.37	1304.56
541.57	1206.25
541.77	1322.99
541.97	1243.12
542.16	1304.56
542.36	1306.60
542.56	1257.45
542.76	1277.93
542.95	1247.21
543.15	1286.12
543.35	1245.16
543.54	1245.16
543.74	1257.45
543.94	1322.99
544.14	1304.56
544.33	1322.99
544.53	1282.03
544.73	1279.98
544.93	1318.89
545.12	1273.84
545.32	1265.64
545.52	1302.51
545.71	1257.45
545.91	1302.51
546.11	1255.40
546.30	1341.42
546.50	1325.04
546.70	1245.16
546.90	1173.49
547.09	1271.79
547.29	1236.97
547.49	1325.04
547.68	1271.79
547.88	1306.60
548.08	1232.88
548.27	1331.18
548.47	1216.49
548.67	1294.32
548.87	1261.55
549.06	1327.08
549.26	1298.41
549.46	1322.99
549.65	1214.45
549.85	1284.08
550.05	1202.16
550.24	1236.97
550.44	1304.56
550.64	1239.02
550.83	1265.64
551.03	1325.04
551.23	1269.74
551.42	1314.80
551.62	1232.88
551.82	1220.59
552.01	1351.66
552.21	1316.84
552.41	1331.18
552.60	1298.41
552.80	1282.03
553.00	1304.56
553.19	1314.80
553.39	1210.35
553.59	1232.88
553.78	1247.21
553.98	1351.66
554.17	1306.60
554.37	1310.70
554.57	1312.75
554.76	1255.40
554.96	1247.21
555.16	1271.79
555.35	1292.27
555.55	1245.16
555.75	1322.99
555.94	1259.50
556.14	1226.73
556.33	1255.40
556.53	1273.84
556.73	1247.21
556.92	1247.21
557.12	1302.51
557.32	1302.51
557.51	1288.17
557.71	1232.88
557.90	1302.51
558.10	1294.32
558.30	1306.60
558.49	1302.51
558.69	1236.97
558.88	1318.89
559.08	1249.26
559.28	1214.45
559.47	1284.08
559.67	1298.41
559.86	1271.79
560.06	1277.93
560.26	1267.69
560.45	1296.36
560.65	1286.12
560.84	1331.18
561.04	1298.41
561.24	1261.55
561.43	1298.41
561.63	1241.07
561.82	1247.21
562.02	1243.12
562.22	1265.64
562.41	1290.22
562.61	1359.85
562.80	1255.40
563.00	1296.36
563.19	1286.12
563.39	1273.84
563.59	1343.47
563.78	1296.36
563.98	1259.50
564.17	1282.03
564.37	1261.55
564.56	1314.80
564.76	1279.98
564.96	1333.23
565.15	1273.84
565.35	1288.17
565.54	1318.89
565.74	1359.85
565.93	1312.75
566.13	1257.45
566.32	1259.50
566.52	1288.17
566.71	1263.60
566.91	1304.56
567.11	1224.69
567.30	1243.12
567.50	1296.36
567.69	1306.60
567.89	1290.22
568.08	1300.46
568.28	1263.60
568.47	1308.65
568.67	1230.83
568.86	1316.84
569.06	1255.40
569.25	1247.21
569.45	1277.93
569.64	1296.36
569.84	1239.02
570.04	1312.75
570.23	1300.46
570.43	1292.27
570.62	1275.88
570.82	1241.07
571.01	1306.60
571.21	1228.78
571.40	1267.69
571.60	1269.74
571.79	1247.21
571.99	1341.42
572.18	1259.50
572.38	1345.52
572.57	1253.36
572.77	1298.41
572.96	1251.31
573.16	1282.03
573.35	1279.98
573.55	1267.69
573.74	1284.08
573.94	1292.27
574.13	1275.88
574.33	1292.27
574.52	1298.41
574.71	1249.26
574.91	1261.55
575.10	1286.12
575.30	1325.04
575.49	1267.69
575.69	1279.98
575.88	1257.45
576.08	1282.03
576.27	1316.84
576.47	1263.60
576.66	1288.17
576.86	1286.12
577.05	1245.16
577.25	1261.55
577.44	1288.17
577.64	1251.31
577.83	1337.32
578.02	1327.08
578.22	1306.60
578.41	1253.36
578.61	1306.60
578.80	1290.22
579.00	1306.60
579.19	1202.16
579.39	1345.52
579.58	1308.65
579.77	1243.12
579.97	1249.26
580.16	1255.40
580.36	1322.99
580.55	1282.03
580.75	1265.64
580.94	1255.40
581.13	1257.45
581.33	1304.56
581.52	1325.04
581.72	1216.49
581.91	1253.36
582.11	1251.31
582.30	1282.03
582.49	1241.07
582.69	1292.27
582.88	1294.32
583.08	1226.73
583.27	1306.60
583.47	1249.26
583.66	1273.84
583.85	1294.32
584.05	1320.94
584.24	1275.88
584.44	1279.98
584.63	1288.17
584.82	1247.21
585.02	1282.03
585.21	1247.21
585.41	1249.26
585.60	1282.03
585.79	1214.45
585.99	1245.16
586.18	1261.55
586.37	1306.60
586.57	1288.17
586.76	1320.94
586.96	1308.65
587.15	1261.55
587.34	1257.45
587.54	1282.03
587.73	1306.60
587.93	1298.41
588.12	1275.88
588.31	1251.31
588.51	1288.17
588.70	1249.26
588.89	1247.21
589.09	1304.56
589.28	1271.79
589.47	1265.64
589.67	1236.97
589.86	1279.98
590.06	1288.17
590.25	1279.98
590.44	1308.65
590.64	1245.16
590.83	1292.27
591.02	1263.60
591.22	1261.55
591.41	1286.12
591.60	1302.51
591.80	1292.27
591.99	1271.79
592.18	1331.18
592.38	1253.36
592.57	1355.76
592.76	1208.30
592.96	1320.94
593.15	1267.69
593.34	1249.26
593.54	1282.03
593.73	1304.56
593.92	1308.65
594.12	1265.64
594.31	1343.47
594.50	1261.55
594.70	1310.70
594.89	1243.12
595.08	1298.41
595.28	1302.51
595.47	1210.35
595.66	1269.74
595.86	1290.22
596.05	1290.22
596.24	1228.78
596.43	1257.45
596.63	1341.42
596.82	1261.55
597.01	1239.02
597.21	1318.89
597.40	1234.93
597.59	1259.50
597.79	1263.60
597.98	1277.93
598.17	1282.03
598.36	1308.65
598.56	1302.51
598.75	1253.36
598.94	1179.63
599.14	1241.07
599.33	1325.04
599.52	1253.36
599.71	1286.12
599.91	1292.27
600.10	1300.46
600.29	1322.99
600.48	1265.64
600.68	1325.04
600.87	1298.41
601.06	1292.27
601.26	1224.69
601.45	1265.64
601.64	1277.93
601.83	1265.64
602.03	1263.60
602.22	1300.46
602.41	1265.64
602.60	1310.70
602.80	1327.08
602.99	1304.56
603.18	1400.81
603.37	1249.26
603.57	1296.36
603.76	1314.80
603.95	1306.60
604.14	1296.36
604.34	1312.75
604.53	1232.88
604.72	1296.36
604.91	1249.26
605.10	1247.21
605.30	1230.83
605.49	1265.64
605.68	1292.27
605.87	1239.02
606.07	1322.99
606.26	1310.70
606.45	1296.36
606.64	1263.60
606.84	1294.32
607.03	1257.45
607.22	1325.04
607.41	1275.88
607.60	1275.88
607.80	1288.17
607.99	1296.36
608.18	1265.64
608.37	1316.84
608.56	1286.12
608.76	1294.32
608.95	1294.32
609.14	1284.08
609.33	1312.75
609.52	1243.12
609.72	1265.64
609.91	1318.89
610.10	1259.50
610.29	1253.36
610.48	1253.36
610.68	1322.99
610.87	1300.46
611.06	1288.17
611.25	1189.87
611.44	1347.56
611.63	1271.79
611.83	1320.94
612.02	1228.78
612.21	1292.27
612.40	1308.65
612.59	1279.98
612.79	1277.93
612.98	1253.36
613.17	1304.56
613.36	1232.88
613.55	1279.98
613.74	1320.94
613.93	1335.28
614.13	1265.64
614.32	1236.97
614.51	1296.36
614.70	1265.64
614.89	1259.50
615.08	1212.40
615.28	1265.64
615.47	1363.95
615.66	1341.42
615.85	1228.78
616.04	1337.32
616.23	1286.12
616.42	1259.50
616.62	1286.12
616.81	1322.99
617.00	1269.74
617.19	1331.18
617.38	1353.71
617.57	1304.56
617.76	1245.16
617.95	1261.55
618.15	1243.12
618.34	1363.95
618.53	1351.66
618.72	1282.03
618.91	1310.70
619.10	1304.56
619.29	1253.36
619.48	1335.28
619.68	1298.41
619.87	1245.16
620.06	1267.69
620.25	1282.03
620.44	1206.25
620.63	1275.88
620.82	1306.60
621.01	1279.98
621.20	1253.36
621.39	1239.02
621.59	1245.16
621.78	1347.56
621.97	1277.93
622.16	1277.93
622.35	1308.65
622.54	1265.64
622.73	1275.88
622.92	1282.03
623.11	1282.03
623.30	1253.36
623.49	1253.36
623.68	1312.75
623.88	1382.38
624.07	1241.07
624.26	1282.03
624.45	1273.84
624.64	1331.18
624.83	1372.14
625.02	1286.12
625.21	1306.60
625.40	1257.45
625.59	1282.03
625.78	1341.42
625.97	1322.99
626.16	1376.24
626.35	1312.75
626.54	1269.74
626.74	1275.88
626.93	1267.69
627.12	1263.60
627.31	1273.84
627.50	1212.40
627.69	1298.41
627.88	1298.41
628.07	1257.45
628.26	1249.26
628.45	1288.17
628.64	1308.65
628.83	1277.93
629.02	1273.84
629.21	1271.79
629.40	1216.49
629.59	1212.40
629.78	1353.71
629.97	1300.46
630.16	1294.32
630.35	1265.64
630.54	1302.51
630.73	1257.45
630.92	1357.80
631.11	1363.95
631.30	1322.99
631.49	1427.43
631.68	1513.45
631.87	2076.64
632.06	3186.64
632.25	2471.90
632.44	2650.07
632.63	2293.72
632.82	2336.73
633.01	3352.52
633.20	2418.65
633.39	3977.16
633.58	4284.35
633.77	2805.72
633.96	3133.39
634.15	5908.39
634.34	10762.08
634.53	10608.48
634.72	14243.62
634.91	25523.83
635.10	37246.41
635.29	40213.91
635.48	35775.97
635.67	28134.99
635.86	20250.32
636.05	14589.73
636.24	9985.90
636.43	6655.90
636.62	4196.29
636.81	2795.48
637.00	1853.41
637.19	1677.29
637.38	1509.35
637.57	1572.84
637.76	1456.11
637.95	1335.28
638.14	1411.05
638.33	1341.42
638.52	1343.47
638.71	1331.18
638.89	1372.14
639.08	1345.52
639.27	1345.52
639.46	1253.36
639.65	1265.64
639.84	1288.17
640.03	1296.36
640.22	1349.61
640.41	1353.71
640.60	1277.93
640.79	1284.08
640.98	1306.60
641.17	1290.22
641.36	1347.56
641.55	1245.16
641.74	1255.40
641.92	1273.84
642.11	1261.55
642.30	1380.33
642.49	1310.70
642.68	1279.98
642.87	1187.82
643.06	1204.21
643.25	1253.36
643.44	1243.12
643.63	1282.03
643.82	1271.79
644.00	1257.45
644.19	1390.57
644.38	1200.11
644.57	1255.40
644.76	1331.18
644.95	1296.36
645.14	1239.02
645.33	1253.36
645.52	1320.94
645.71	1257.45
645.89	1284.08
646.08	1306.60
646.27	1247.21
646.46	1282.03
646.65	1290.22
646.84	1265.64
647.03	1314.80
647.22	1259.50
647.40	1288.17
647.59	1279.98
647.78	1255.40
647.97	1361.90
648.16	1296.36
648.35	1290.22
648.54	1304.56
648.73	1304.56
648.91	1296.36
649.10	1275.88
649.29	1277.93
649.48	1230.83
649.67	1247.21
649.86	1296.36
650.05	1284.08
650.23	1304.56
650.42	1316.84
650.61	1302.51
650.80	1263.60
650.99	1243.12
651.18	1271.79
651.36	1245.16
651.55	1273.84
651.74	1347.56
651.93	1277.93
652.12	1257.45
652.31	1228.78
652.49	1267.69
652.68	1269.74
652.87	1234.93
653.06	1275.88
653.25	1357.80
653.44	1298.41
653.62	1322.99
653.81	1261.55
654.00	1288.17
654.19	1269.74
654.38	1273.84
654.56	1327.08
654.75	1286.12
654.94	1351.66
655.13	1306.60
655.32	1236.97
655.51	1308.65
655.69	1298.41
655.88	1253.36
656.07	1327.08
656.26	1279.98
656.45	1220.59
656.63	1304.56
656.82	1292.27
657.01	1241.07
657.20	1259.50
657.38	1318.89
657.57	1290.22
657.76	1277.93
657.95	1265.64
658.14	1279.98
658.32	1335.28
658.51	1331.18
658.70	1236.97
658.89	1255.40
659.08	1255.40
659.26	1267.69
659.45	1198.06
659.64	1191.92
659.83	1353.71
660.01	1265.64
660.20	1241.07
660.39	1279.98
660.58	1271.79
660.76	1218.54
660.95	1282.03
661.14	1310.70
661.33	1253.36
661.51	1275.88
661.70	1232.88
661.89	1275.88
662.08	1277.93
662.26	1304.56
662.45	1202.16
662.64	1308.65
662.83	1243.12
663.01	1245.16
663.20	1300.46
663.39	1296.36
663.58	1232.88
663.76	1267.69
663.95	1325.04
664.14	1249.26
664.32	1277.93
664.51	1206.25
664.70	1277.93
664.89	1265.64
665.07	1261.55
665.26	1329.13
665.45	1212.40
665.64	1347.56
665.82	1263.60
666.01	1216.49
666.20	1290.22
666.38	1251.31
666.57	1275.88
666.76	1265.64
666.95	1220.59
667.13	1187.82
667.32	1271.79
667.51	1294.32
667.69	1259.50
667.88	1271.79
668.07	1290.22
668.25	1228.78
668.44	1253.36
668.63	1239.02
668.81	1325.04
669.00	1265.64
669.19	1263.60
669.38	1284.08
669.56	1255.40
669.75	1218.54
669.94	1320.94
670.12	1202.16
670.31	1261.55
670.50	1257.45
670.68	1273.84
670.87	1234.93
671.06	1310.70
671.24	1259.50
671.43	1298.41
671.62	1322.99
671.80	1193.97
671.99	1325.04
672.18	1349.61
672.36	1271.79
672.55	1226.73
672.74	1220.59
672.92	1355.76
673.11	1337.32
673.29	1320.94
673.48	1257.45
673.67	1212.40
673.85	1257.45
674.04	1316.84
674.23	1347.56
674.41	1322.99
674.60	1306.60
674.79	1275.88
674.97	1200.11
675.16	1263.60
675.34	1275.88
675.53	1306.60
675.72	1304.56
675.90	1296.36
676.09	1335.28
676.28	1263.60
676.46	1210.35
676.65	1193.97
676.83	1345.52
677.02	1335.28
677.21	1255.40
677.39	1320.94
677.58	1271.79
677.77	1263.60
677.95	1294.32
678.14	1251.31
678.32	1271.79
678.51	1288.17
678.70	1286.12
678.88	1306.60
679.07	1243.12
679.25	1226.73
679.44	1284.08
679.63	1269.74
679.81	1296.36
680.00	1265.64
680.18	1292.27
680.37	1263.60
680.55	1263.60
680.74	1282.03
680.93	1232.88
681.11	1234.93
681.30	1284.08
681.48	1241.07
681.67	1290.22
681.85	1318.89
682.04	1310.70
682.23	1275.88
682.41	1298.41
682.60	1224.69
682.78	1302.51
682.97	1220.59
683.15	1296.36
683.34	1243.12
683.53	1251.31
683.71	1269.74
683.90	1247.21
684.08	1302.51
684.27	1245.16
684.45	1208.30
684.64	1228.78
684.82	1282.03
685.01	1230.83
685.19	1255.40
685.38	1288.17
685.57	1261.55
685.75	1249.26
685.94	1232.88
686.12	1322.99
686.31	1284.08
686.49	1306.60
686.68	1245.16
686.86	1279.98
687.05	1247.21
687.23	1290.22
687.42	1265.64
687.60	1263.60
687.79	1335.28
687.97	1259.50
688.16	1251.31
688.34	1298.41
688.53	1234.93
688.71	1253.36
688.90	1279.98
689.08	1269.74
689.27	1282.03
689.45	1271.79
689.64	1226.73
689.82	1259.50
690.01	1277.93
690.19	1255.40
690.38	1327.08
690.56	1275.88
690.75	1247.21
690.93	1284.08
691.12	1275.88
691.30	1202.16
691.49	1210.35
691.67	1259.50
691.86	1294.32
692.04	1269.74
692.23	1206.25
692.41	1341.42
692.60	1193.97
692.78	1218.54
692.97	1294.32
693.15	1298.41
693.34	1290.22
693.52	1267.69
693.71	1310.70
693.89	1253.36
694.08	1286.12
694.26	1212.40
694.44	1335.28
694.63	1273.84
694.81	1247.21
695.00	1273.84
695.18	1284.08
695.37	1206.25
695.55	1331.18
695.74	1228.78
695.92	1208.30
696.10	1325.04
696.29	1279.98
696.47	1255.40
696.66	1312.75
696.84	1306.60
697.03	1279.98
697.21	1198.06
697.40	1378.28
697.58	1265.64
697.76	1236.97
697.95	1232.88
698.13	1247.21
698.32	1288.17
698.50	1232.88
698.68	1325.04
698.87	1314.80
699.05	1390.57
699.24	1300.46
699.42	1286.12
699.61	1302.51
699.79	1333.23
699.97	1316.84
700.16	1228.78
700.34	1296.36
700.53	1265.64
700.71	1288.17
700.89	1271.79
701.08	1265.64
701.26	1261.55
701.45	1308.65
701.63	1304.56
701.81	1273.84
702.00	1288.17
702.18	1234.93
702.37	1255.40
702.55	1290.22
702.73	1259.50
702.92	1251.31
703.10	1279.98
703.28	1343.47
703.47	1284.08
703.65	1349.61
703.84	1232.88
704.02	1239.02
704.20	1261.55
704.39	1230.83
704.57	1222.64
704.75	1239.02
704.94	1253.36
705.12	1179.63
705.30	1284.08
705.49	1339.37
705.67	1273.84
705.86	1232.88
706.04	1314.80
706.22	1279.98
706.41	1249.26
706.59	1294.32
706.77	1245.16
706.96	1214.45
707.14	1261.55
707.32	1226.73
707.51	1243.12
707.69	1286.12
707.87	1255.40
708.06	1296.36
708.24	1241.07
708.42	1222.64
708.61	1224.69
708.79	1273.84
708.97	1267.69
709.16	1198.06
709.34	1259.50
709.52	1292.27
709.71	1214.45
709.89	1296.36
710.07	1271.79
710.26	1269.74
710.44	1267.69
710.62	1392.62
710.80	1259.50
710.99	1234.93
711.17	1216.49
711.35	1253.36
711.54	1200.11
711.72	1351.66
711.90	1335.28
712.09	1335.28
712.27	1185.77
712.45	1284.08
712.63	1343.47
712.82	1198.06
713.00	1282.03
713.18	1234.93
713.37	1284.08
713.55	1249.26
713.73	1230.83
713.91	1273.84
714.10	1290.22
714.28	1277.93
714.46	1196.01
714.65	1273.84
714.83	1277.93
715.01	1175.53
715.19	1241.07
715.38	1146.86
715.56	1288.17
715.74	1265.64
715.92	1282.03
716.11	1249.26
716.29	1290.22
716.47	1284.08
716.65	1243.12
716.84	1249.26
717.02	1263.60
717.20	1210.35
717.38	1298.41
717.57	1279.98
717.75	1228.78
717.93	1320.94
718.11	1322.99
718.30	1282.03
718.48	1304.56
718.66	1263.60
718.84	1234.93
719.03	1282.03
719.21	1282.03
719.39	1288.17
719.57	1298.41
719.75	1257.45
719.94	1249.26
720.12	1214.45
720.30	1255.40
720.48	1286.12
720.67	1312.75
720.85	1239.02
721.03	1296.36
721.21	1255.40
721.39	1282.03
721.58	1253.36
721.76	1249.26
721.94	1263.60
722.12	1241.07
722.30	1339.37
722.49	1224.69
722.67	1269.74
722.85	1232.88
723.03	1273.84
723.21	1282.03
723.40	1298.41
723.58	1271.79
723.76	1228.78
723.94	1265.64
724.12	1267.69
724.30	1261.55
724.49	1245.16
724.67	1257.45
724.85	1257.45
725.03	1198.06
725.21	1304.56
725.40	1273.84
725.58	1357.80
725.76	1198.06
725.94	1255.40
726.12	1245.16
726.30	1308.65
726.49	1220.59
726.67	1263.60
726.85	1177.58
727.03	1230.83
727.21	1282.03
727.39	1339.37
727.57	1193.97
727.76	1302.51
727.94	1284.08
728.12	1302.51
728.30	1308.65
728.48	1273.84
728.66	1239.02
728.84	1294.32
729.03	1255.40
729.21	1282.03
729.39	1183.73
729.57	1247.21
729.75	1249.26
729.93	1325.04
730.11	1206.25
730.30	1224.69
730.48	1271.79
730.66	1202.16
730.84	1265.64
731.02	1314.80
731.20	1286.12
731.38	1249.26
731.56	1249.26
731.74	1241.07
731.93	1282.03
732.11	1290.22
732.29	1320.94
732.47	1208.30
732.65	1265.64
732.83	1304.56
733.01	1282.03
733.19	1224.69
733.37	1279.98
733.56	1310.70
733.74	1314.80
733.92	1294.32
734.10	1351.66
734.28	1294.32
734.46	1267.69
734.64	1247.21
734.82	1312.75
735.00	1181.68
735.18	1292.27
735.36	1259.50
735.54	1255.40
735.73	1214.45
735.91	1263.60
736.09	1265.64
736.27	1282.03
736.45	1302.51
736.63	1245.16
736.81	1210.35
736.99	1306.60
737.17	1245.16
737.35	1277.93
737.53	1239.02
737.71	1316.84
737.89	1286.12
738.07	1251.31
738.25	1234.93
738.43	1224.69
738.61	1337.32
738.80	1220.59
738.98	1267.69
739.16	1218.54
739.34	1310.70
739.52	1306.60
739.70	1279.98
739.88	1290.22
740.06	1253.36
740.24	1259.50
740.42	1286.12
740.60	1290.22
740.78	1236.97
740.96	1216.49
741.14	1253.36
741.32	1322.99
741.50	1202.16
741.68	1255.40
741.86	1232.88
742.04	1259.50
742.22	1243.12
742.40	1249.26
742.58	1263.60
742.76	1251.31
742.94	1206.25
743.12	1306.60
743.30	1241.07
743.48	1255.40
743.66	1218.54
743.84	1185.77
744.02	1359.85
744.20	1279.98
744.38	1220.59
744.56	1300.46
744.74	1247.21
744.92	1265.64
745.10	1294.32
745.28	1298.41
745.46	1312.75
745.64	1263.60
745.82	1202.16
746.00	1296.36
746.18	1232.88
746.36	1286.12
746.54	1296.36
746.72	1271.79
746.90	1236.97
747.08	1222.64
747.26	1261.55
747.44	1263.60
747.62	1284.08
747.80	1277.93
747.98	1245.16
748.15	1263.60
748.33	1261.55
748.51	1286.12
748.69	1267.69
748.87	1304.56
749.05	1277.93
749.23	1230.83
749.41	1294.32
749.59	1249.26
749.77	1273.84
749.95	1193.97
750.13	1298.41
750.31	1241.07
750.49	1269.74
750.67	1331.18
750.85	1243.12
751.03	1259.50
751.20	1290.22
751.38	1269.74
751.56	1337.32
751.74	1333.23
751.92	1296.36
752.10	1329.13
752.28	1247.21
752.46	1251.31
752.64	1257.45
752.82	1265.64
753.00	1308.65
753.18	1288.17
753.35	1212.40
753.53	1265.64
753.71	1204.21
753.89	1347.56
754.07	1318.89
754.25	1275.88
754.43	1310.70
754.61	1310.70
754.79	1316.84
754.97	1241.07
755.14	1255.40
755.32	1206.25
755.50	1236.97
755.68	1372.14
755.86	1292.27
756.04	1232.88
756.22	1263.60
756.40	1220.59
756.57	1257.45
756.75	1202.16
756.93	1232.88
757.11	1271.79
757.29	1185.77
757.47	1304.56
757.65	1224.69
757.82	1226.73
758.00	1218.54
758.18	1253.36
758.36	1275.88
758.54	1290.22
758.72	1288.17
758.90	1269.74
759.07	1277.93
759.25	1253.36
759.43	1290.22
759.61	1267.69
759.79	1269.74
759.97	1290.22
760.15	1232.88
760.32	1230.83
760.50	1320.94
760.68	1202.16
760.86	1269.74
761.04	1316.84
761.22	1249.26
761.39	1202.16
761.57	1234.93
761.75	1279.98
761.93	1265.64
762.11	1271.79
762.28	1216.49
762.46	1300.46
762.64	1241.07
762.82	1271.79
763.00	1232.88
763.18	1277.93
763.35	1257.45
763.53	1265.64
763.71	1251.31
763.89	1265.64
764.07	1284.08
764.24	1310.70
764.42	1257.45
764.60	1267.69
764.78	1224.69
764.96	1269.74
765.13	1310.70
765.31	1275.88
765.49	1302.51
765.67	1210.35
765.84	1316.84
766.02	1275.88
766.20	1214.45
766.38	1298.41
766.56	1279.98
766.73	1230.83
766.91	1241.07
767.09	1253.36
767.27	1308.65
767.44	1288.17
767.62	1279.98
767.80	1269.74
767.98	1245.16
768.15	1312.75
768.33	1284.08
768.51	1191.92
768.69	1216.49
768.87	1249.26
769.04	1314.80
769.22	1269.74
769.40	1239.02
769.58	1306.60
769.75	1282.03
769.93	1290.22
770.11	1312.75
770.28	1331.18
770.46	1249.26
770.64	1241.07
770.82	1257.45
770.99	1335.28
771.17	1181.68
771.35	1265.64
771.53	1284.08
771.70	1269.74
771.88	1294.32
772.06	1249.26
772.23	1273.84
772.41	1372.14
772.59	1259.50
772.77	1206.25
772.94	1232.88
773.12	1263.60
773.30	1171.44
773.47	1224.69
773.65	1247.21
773.83	1261.55
774.01	1255.40
774.18	1267.69
774.36	1198.06
774.54	1306.60
774.71	1249.26
774.89	1212.40
775.07	1245.16
775.24	1247.21
775.42	1275.88
775.60	1341.42
775.78	1134.57
775.95	1241.07
776.13	1193.97
776.31	1216.49
776.48	1306.60
776.66	1322.99
776.84	1337.32
777.01	1255.40
777.19	1294.32
777.37	1198.06
777.54	1234.93
777.72	1271.79
777.90	1265.64
778.07	1251.31
778.25	1259.50
778.43	1251.31
778.60	1269.74
778.78	1216.49
778.96	1331.18
779.13	1282.03
779.31	1243.12
779.49	1234.93
779.66	1329.13
779.84	1282.03
780.01	1222.64
780.19	1312.75
780.37	1320.94
780.54	1247.21
780.72	1347.56
780.90	1337.32
781.07	1187.82
781.25	1263.60
781.43	1271.79
781.60	1255.40
781.78	1275.88
781.95	1204.21
782.13	1208.30
782.31	1296.36
782.48	1222.64
782.66	1249.26
782.83	1327.08
783.01	1222.64
783.19	1241.07
783.36	1286.12
783.54	1253.36
783.72	1314.80
783.89	1304.56
784.07	1271.79
784.24	1161.20
784.42	1226.73
784.60	1218.54
784.77	1193.97
784.95	1224.69
785.12	1228.78
785.30	1288.17
785.47	1310.70
785.65	1298.41
785.83	1220.59
786.00	1200.11
786.18	1216.49
786.35	1259.50
786.53	1247.21
786.71	1228.78
786.88	1265.64
787.06	1312.75
787.23	1279.98
787.41	1290.22
787.58	1214.45
787.76	1286.12
787.94	1253.36
788.11	1333.23
788.29	1234.93
788.46	1314.80
788.64	1312.75
788.81	1308.65
788.99	1275.88
789.16	1183.73
789.34	1239.02
789.52	1230.83
789.69	1245.16
789.87	1255.40
790.04	1228.78
790.22	1286.12
790.39	1320.94
790.57	1271.79
790.74	1241.07
790.92	1259.50
791.09	1249.26
791.27	1284.08
791.44	1292.27
791.62	1216.49
791.79	1318.89
791.97	1208.30
792.15	1363.95
792.32	1302.51
792.50	1218.54
792.67	1308.65
792.85	1288.17
793.02	1316.84
793.20	1239.02
793.37	1255.40
793.55	1245.16
793.72	1214.45
793.90	1239.02
794.07	1263.60
794.25	1306.60
794.42	1243.12
794.60	1222.64
794.77	1228.78
794.95	1308.65
795.12	1200.11
795.30	1253.36
795.47	1191.92
795.65	1286.12
795.82	1279.98
796.00	1261.55
796.17	1247.21
796.34	1265.64
796.52	1265.64
796.69	1245.16
796.87	1322.99
797.04	1257.45
797.22	1222.64
797.39	1261.55
797.57	1263.60
797.74	1322.99
797.92	1273.84
798.09	1312.75
798.27	1253.36
798.44	1288.17
798.62	1263.60
798.79	1181.68
798.96	1247.21
799.14	1298.41
799.31	1333.23
799.49	1214.45
799.66	1327.08
799.84	1230.83
800.01	1226.73
800.19	1236.97
800.36	1259.50
800.53	1269.74
800.71	1292.27
800.88	1314.80
801.06	1292.27
801.23	1294.32
801.41	1228.78
801.58	1288.17
801.75	1277.93
801.93	1333.23
802.10	1277.93
802.28	1236.97
802.45	1368.04
802.63	1298.41
802.80	1359.85
802.97	1214.45
803.15	1183.73
803.32	1284.08
803.50	1275.88
803.67	1273.84
803.84	1290.22
804.02	1257.45
804.19	1241.07
804.37	1247.21
804.54	1257.45
804.71	1325.04
804.89	1275.88
805.06	1296.36
805.24	1277.93
805.41	1261.55
805.58	1290.22
805.76	1273.84
805.93	1294.32
806.10	1284.08
806.28	1257.45
806.45	1300.46
806.63	1259.50
806.80	1296.36
806.97	1314.80
807.15	1294.32
807.32	1327.08
807.49	1325.04
807.67	1220.59
807.84	1284.08
808.01	1290.22
808.19	1259.50
808.36	1216.49
808.54	1249.26
808.71	1312.75
808.88	1200.11
809.06	1261.55
809.23	1304.56
809.40	1261.55
809.58	1294.32
809.75	1351.66
809.92	1327.08
810.10	1325.04
810.27	1304.56
810.44	1271.79
810.62	1269.74
810.79	1218.54
810.96	1288.17
811.14	1214.45
811.31	1214.45
811.48	1292.27
811.66	1318.89
811.83	1245.16
812.00	1290.22
812.18	1236.97
812.35	1208.30
812.52	1288.17
812.69	1239.02
812.87	1292.27
813.04	1261.55
813.21	1284.08
813.39	1228.78
813.56	1259.50
813.73	1230.83
813.91	1214.45
814.08	1247.21
814.25	1345.52
814.42	1314.80
814.60	1261.55
814.77	1320.94
814.94	1265.64
815.12	1241.07
815.29	1265.64
815.46	1284.08
815.63	1212.40
815.81	1267.69
815.98	1214.45
816.15	1249.26
816.33	1318.89
816.50	1267.69
816.67	1210.35
816.84	1273.84
817.02	1232.88
817.19	1255.40
817.36	1308.65
817.53	1372.14
817.71	1255.40
817.88	1232.88
818.05	1243.12
818.22	1302.51
818.40	1271.79
818.57	1300.46
818.74	1216.49
818.91	1277.93
819.09	1255.40
819.26	1302.51
819.43	1267.69
819.60	1196.01
819.78	1232.88
819.95	1251.31
820.12	1353.71
820.29	1228.78
820.47	1282.03
820.64	1245.16
820.81	1267.69
820.98	1300.46
821.15	1292.27
821.33	1181.68
821.50	1290.22
821.67	1259.50
821.84	1279.98
822.02	1247.21
822.19	1269.74
822.36	1345.52
822.53	1208.30
822.70	1282.03
822.88	1239.02
823.05	1277.93
823.22	1249.26
823.39	1239.02
823.56	1218.54
823.74	1286.12
823.91	1234.93
824.08	1220.59
824.25	1241.07
824.42	1302.51
824.60	1320.94
824.77	1222.64
824.94	1198.06
825.11	1198.06
825.28	1257.45
825.45	1302.51
825.63	1226.73
825.80	1318.89
825.97	1236.97
826.14	1257.45
826.31	1249.26
826.48	1245.16
826.66	1322.99
826.83	1216.49
827.00	1263.60
827.17	1310.70
827.34	1337.32
827.51	1228.78
827.69	1286.12
827.86	1204.21
828.03	1290.22
828.20	1300.46
828.37	1232.88
828.54	1249.26
828.71	1267.69
828.89	1277.93
829.06	1282.03
829.23	1245.16
829.40	1220.59
829.57	1249.26
829.74	1275.88
829.91	1208.30
830.09	1300.46
830.26	1327.08
830.43	1234.93
830.60	1167.34
830.77	1308.65
830.94	1263.60
831.11	1239.02
831.28	1275.88
831.46	1236.97
831.63	1220.59
831.80	1241.07
831.97	1261.55
832.14	1236.97
832.31	1304.56
832.48	1271.79
832.65	1372.14
832.82	1353.71
832.99	1296.36
833.17	1286.12
833.34	1187.82
833.51	1247.21
833.68	1282.03
833.85	1230.83
834.02	1218.54
834.19	1216.49
834.36	1245.16
834.53	1210.35
834.70	1241.07
834.87	1200.11
835.04	1241.07
835.22	1306.60
835.39	1191.92
835.56	1318.89
835.73	1265.64
835.90	1247.21
836.07	1284.08
836.24	1277.93
836.41	1239.02
836.58	1312.75
836.75	1282.03
836.92	1230.83
837.09	1263.60
837.26	1230.83
837.43	1355.76
837.60	1265.64
837.77	1261.55
837.94	1275.88
838.12	1286.12
838.29	1251.31
838.46	1277.93
838.63	1245.16
838.80	1284.08
838.97	1259.50
839.14	1273.84
839.31	1210.35
839.48	1255.40
839.65	1306.60
839.82	1273.84
839.99	1345.52
840.16	1339.37
840.33	1234.93
840.50	1292.27
840.67	1263.60
840.84	1292.27
841.01	1187.82
841.18	1249.26
841.35	1247.21
841.52	1320.94
841.69	1327.08
841.86	1320.94
842.03	1290.22
842.20	1304.56
842.37	1273.84
842.54	1296.36
842.71	1284.08
842.88	1212.40
843.05	1267.69
843.22	1191.92
843.39	1271.79
843.56	1288.17
843.73	1196.01
843.90	1329.13
844.07	1253.36
844.24	1306.60
844.41	1255.40
844.58	1224.69
844.75	1277.93
844.92	1273.84
845.09	1318.89
845.26	1271.79
845.43	1271.79
845.60	1327.08
845.77	1298.41
845.94	1286.12
846.10	1271.79
846.27	1261.55
846.44	1273.84
846.61	1224.69
846.78	1267.69
846.95	1251.31
847.12	1290.22
847.29	1275.88
847.46	1294.32
847.63	1198.06
847.80	1245.16
847.97	1251.31
848.14	1263.60
848.31	1234.93
848.48	1290.22
848.65	1263.60
848.82	1312.75
848.98	1271.79
849.15	1288.17
849.32	1218.54
849.49	1224.69
849.66	1298.41
849.83	1265.64
850.00	1337.32
850.17	1236.97
850.34	1247.21
850.51	1279.98
850.68	1267.69
850.85	1284.08
851.01	1212.40
851.18	1308.65
851.35	1255.40
851.52	1288.17
851.69	1265.64
851.86	1308.65
852.03	1222.64
852.20	1220.59
852.37	1271.79
852.53	1230.83
852.70	1302.51
852.87	1267.69
853.04	1341.42
853.21	1318.89
853.38	1253.36
853.55	1290.22
853.72	1198.06
853.89	1390.57
854.05	1179.63
854.22	1228.78
854.39	1253.36
854.56	1316.84
854.73	1241.07
854.90	1247.21
855.07	1253.36
855.23	1214.45
855.40	1259.50
855.57	1196.01
855.74	1253.36
855.91	1214.45
856.08	1232.88
856.25	1257.45
856.41	1282.03
856.58	1234.93
856.75	1306.60
856.92	1241.07
857.09	1265.64
857.26	1279.98
857.42	1234.93
857.59	1302.51
857.76	1290.22
857.93	1300.46
858.10	1275.88
858.27	1263.60
858.43	1236.97
858.60	1183.73
858.77	1304.56
858.94	1284.08
859.11	1296.36
859.27	1282.03
859.44	1320.94
859.61	1310.70
859.78	1257.45
859.95	1200.11
860.12	1265.64
860.28	1210.35
860.45	1271.79
860.62	1218.54
860.79	1216.49
860.95	1302.51
861.12	1302.51
861.29	1241.07
861.46	1169.39
861.63	1175.53
861.79	1290.22
861.96	1271.79
862.13	1257.45
862.30	1290.22
862.47	1181.68
862.63	1255.40
862.80	1243.12
862.97	1282.03
863.14	1312.75
863.30	1279.98
863.47	1292.27
863.64	1255.40
863.81	1296.36
863.97	1267.69
864.14	1236.97
864.31	1265.64
864.48	1282.03
864.65	1261.55
864.81	1261.55
864.98	1210.35
865.15	1273.84
865.32	1310.70
865.48	1286.12
865.65	1257.45
865.82	1298.41
865.98	1265.64
866.15	1206.25
866.32	1236.97
866.49	1279.98
866.65	1273.84
866.82	1288.17
866.99	1200.11
867.16	1249.26
867.32	1245.16
867.49	1232.88
867.66	1304.56
867.83	1232.88
867.99	1234.93
868.16	1320.94
868.33	1257.45
868.49	1275.88
868.66	1322.99
868.83	1310.70
868.99	1304.56
869.16	1255.40
869.33	1284.08
869.50	1298.41
869.66	1265.64
869.83	1337.32
870.00	1267.69
870.16	1239.02
870.33	1316.84
870.50	1267.69
870.66	1253.36
870.83	1239.02
871.00	1200.11
871.17	1214.45
871.33	1236.97
871.50	1257.45
871.67	1253.36
871.83	1302.51
872.00	1255.40
872.17	1304.56
872.33	1333.23
872.50	1251.31
872.67	1214.45
872.83	1269.74
873.00	1366.00
873.17	1298.41
873.33	1269.74
873.50	1341.42
873.67	1243.12
873.83	1284.08
874.00	1247.21
874.16	1288.17
874.33	1261.55
874.50	1310.70
874.66	1337.32
874.83	1224.69
875.00	1318.89
875.16	1271.79
875.33	1279.98
875.50	1206.25
875.66	1265.64
875.83	1232.88
875.99	1322.99
876.16	1294.32
876.33	1255.40
876.49	1239.02
876.66	1320.94
876.83	1302.51
876.99	1239.02
877.16	1265.64
877.32	1292.27
877.49	1263.60
877.66	1339.37
877.82	1245.16
877.99	1275.88
878.15	1296.36
878.32	1284.08
878.49	1273.84
878.65	1275.88
878.82	1228.78
878.98	1277.93
879.15	1239.02
879.32	1310.70
879.48	1228.78
879.65	1236.97
879.81	1277.93
879.98	1226.73
880.15	1284.08
880.31	1306.60
880.48	1263.60
880.64	1277.93
880.81	1245.16
880.97	1249.26
881.14	1304.56
881.31	1259.50
881.47	1236.97
881.64	1275.88
881.80	1204.21
881.97	1294.32
882.13	1331.18
882.30	1318.89
882.47	1255.40
882.63	1284.08
882.80	1282.03
882.96	1259.50
883.13	1294.32
883.29	1265.64
883.46	1298.41
883.62	1183.73
883.79	1308.65
883.95	1327.08
884.12	1275.88
884.29	1298.41
884.45	1257.45
884.62	1325.04
884.78	1269.74
884.95	1327.08
885.11	1216.49
885.28	1275.88
885.44	1279.98
885.61	1298.41
885.77	1222.64
885.94	1234.93
886.10	1245.16
886.27	1249.26
886.43	1300.46
886.60	1232.88
886.76	1241.07
886.93	1282.03
887.09	1279.98
887.26	1318.89
887.42	1300.46
887.59	1279.98
887.75	1282.03
887.92	1374.19
888.08	1159.15
888.25	1253.36
888.41	1333.23
888.58	1339.37
888.74	1292.27
888.91	1288.17
>>>>>End Processed Spectral Data<<<<<
