SpectraSuite Data File
++++++++++++++++++++++++++++++++++++
Date: Sun Apr 03 19:55:38 CEST 2016
User: root
Dark Spectrum Present: No
Reference Spectrum Present: No
Number of Sampled Component Spectra: 1
Spectrometers: USB4C02835
Integration Time (usec): 10000 (USB4C02835)
Spectra Averaged: 1 (USB4C02835)
Boxcar Smoothing: 0 (USB4C02835)
Correct for Electrical Dark: No (USB4C02835)
Strobe/Lamp Enabled: No (USB4C02835)
Correct for Detector Non-linearity: No (USB4C02835)
Correct for Stray Light: No (USB4C02835)
Number of Pixels in Processed Spectrum: 3648
>>>>>Begin Processed Spectral Data<<<<<
177.47	1292.27
177.69	1292.27
177.91	1292.27
178.13	1253.36
178.36	1173.49
178.58	1312.75
178.80	1263.60
179.02	1216.49
179.24	1263.60
179.46	1253.36
179.68	1265.64
179.90	1288.17
180.13	1212.40
180.35	1241.07
180.57	1226.73
180.79	1284.08
181.01	1265.64
181.23	1298.41
181.45	1286.12
181.67	1279.98
181.90	1310.70
182.12	1226.73
182.34	1265.64
182.56	1263.60
182.78	1249.26
183.00	1236.97
183.22	1294.32
183.44	1263.60
183.66	1275.88
183.89	1286.12
184.11	1273.84
184.33	1212.40
184.55	1261.55
184.77	1241.07
184.99	1251.31
185.21	1290.22
185.43	1253.36
185.65	1290.22
185.87	1286.12
186.10	1185.77
186.32	1304.56
186.54	1247.21
186.76	1241.07
186.98	1284.08
187.20	1325.04
187.42	1269.74
187.64	1277.93
187.86	1245.16
188.08	1304.56
188.30	1204.21
188.52	1239.02
188.75	1267.69
188.97	1284.08
189.19	1259.50
189.41	1241.07
189.63	1267.69
189.85	1267.69
190.07	1327.08
190.29	1257.45
190.51	1220.59
190.73	1249.26
190.95	1255.40
191.17	1300.46
191.39	1253.36
191.61	1300.46
191.84	1271.79
192.06	1265.64
192.28	1204.21
192.50	1290.22
192.72	1257.45
192.94	1249.26
193.16	1290.22
193.38	1259.50
193.60	1288.17
193.82	1355.76
194.04	1294.32
194.26	1300.46
194.48	1245.16
194.70	1282.03
194.92	1239.02
195.14	1322.99
195.36	1306.60
195.58	1292.27
195.80	1267.69
196.02	1318.89
196.24	1306.60
196.46	1298.41
196.69	1241.07
196.91	1232.88
197.13	1239.02
197.35	1222.64
197.57	1218.54
197.79	1239.02
198.01	1230.83
198.23	1296.36
198.45	1294.32
198.67	1275.88
198.89	1282.03
199.11	1216.49
199.33	1234.93
199.55	1374.19
199.77	1232.88
199.99	1277.93
200.21	1345.52
200.43	1327.08
200.65	1222.64
200.87	1318.89
201.09	1292.27
201.31	1257.45
201.53	1294.32
201.75	1277.93
201.97	1282.03
202.19	1316.84
202.41	1310.70
202.63	1210.35
202.85	1331.18
203.07	1261.55
203.29	1296.36
203.51	1314.80
203.73	1290.22
203.95	1329.13
204.17	1339.37
204.39	1275.88
204.61	1232.88
204.83	1312.75
205.05	1277.93
205.27	1263.60
205.49	1255.40
205.71	1337.32
205.93	1261.55
206.15	1279.98
206.37	1318.89
206.59	1279.98
206.81	1234.93
207.03	1247.21
207.25	1259.50
207.47	1273.84
207.69	1239.02
207.91	1210.35
208.13	1253.36
208.34	1279.98
208.56	1269.74
208.78	1224.69
209.00	1284.08
209.22	1253.36
209.44	1187.82
209.66	1314.80
209.88	1232.88
210.10	1279.98
210.32	1286.12
210.54	1325.04
210.76	1202.16
210.98	1312.75
211.20	1279.98
211.42	1284.08
211.64	1302.51
211.86	1228.78
212.08	1292.27
212.30	1241.07
212.52	1277.93
212.74	1333.23
212.96	1271.79
213.17	1265.64
213.39	1269.74
213.61	1249.26
213.83	1269.74
214.05	1255.40
214.27	1345.52
214.49	1226.73
214.71	1253.36
214.93	1306.60
215.15	1261.55
215.37	1318.89
215.59	1218.54
215.81	1288.17
216.03	1300.46
216.24	1370.09
216.46	1234.93
216.68	1261.55
216.90	1228.78
217.12	1245.16
217.34	1245.16
217.56	1300.46
217.78	1331.18
218.00	1230.83
218.22	1253.36
218.44	1257.45
218.66	1275.88
218.87	1257.45
219.09	1243.12
219.31	1198.06
219.53	1333.23
219.75	1261.55
219.97	1296.36
220.19	1230.83
220.41	1226.73
220.63	1220.59
220.85	1236.97
221.06	1193.97
221.28	1204.21
221.50	1234.93
221.72	1187.82
221.94	1288.17
222.16	1259.50
222.38	1277.93
222.60	1253.36
222.82	1339.37
223.03	1294.32
223.25	1265.64
223.47	1267.69
223.69	1253.36
223.91	1247.21
224.13	1230.83
224.35	1306.60
224.57	1282.03
224.78	1247.21
225.00	1288.17
225.22	1304.56
225.44	1247.21
225.66	1253.36
225.88	1189.87
226.10	1290.22
226.32	1357.80
226.53	1212.40
226.75	1232.88
226.97	1216.49
227.19	1312.75
227.41	1208.30
227.63	1263.60
227.85	1279.98
228.06	1269.74
228.28	1200.11
228.50	1273.84
228.72	1253.36
228.94	1267.69
229.16	1134.57
229.37	1273.84
229.59	1298.41
229.81	1300.46
230.03	1314.80
230.25	1220.59
230.47	1224.69
230.69	1171.44
230.90	1234.93
231.12	1185.77
231.34	1230.83
231.56	1261.55
231.78	1241.07
232.00	1249.26
232.21	1138.67
232.43	1288.17
232.65	1271.79
232.87	1236.97
233.09	1310.70
233.30	1224.69
233.52	1306.60
233.74	1265.64
233.96	1284.08
234.18	1249.26
234.40	1288.17
234.61	1251.31
234.83	1239.02
235.05	1294.32
235.27	1230.83
235.49	1261.55
235.70	1279.98
235.92	1308.65
236.14	1200.11
236.36	1230.83
236.58	1347.56
236.79	1216.49
237.01	1226.73
237.23	1349.61
237.45	1261.55
237.67	1296.36
237.88	1271.79
238.10	1259.50
238.32	1300.46
238.54	1294.32
238.76	1206.25
238.97	1263.60
239.19	1222.64
239.41	1214.45
239.63	1255.40
239.85	1308.65
240.06	1273.84
240.28	1255.40
240.50	1243.12
240.72	1282.03
240.93	1222.64
241.15	1322.99
241.37	1236.97
241.59	1259.50
241.81	1265.64
242.02	1261.55
242.24	1200.11
242.46	1275.88
242.68	1222.64
242.89	1232.88
243.11	1236.97
243.33	1259.50
243.55	1253.36
243.76	1269.74
243.98	1245.16
244.20	1306.60
244.42	1310.70
244.64	1261.55
244.85	1236.97
245.07	1284.08
245.29	1282.03
245.51	1282.03
245.72	1284.08
245.94	1339.37
246.16	1286.12
246.38	1339.37
246.59	1230.83
246.81	1232.88
247.03	1282.03
247.24	1206.25
247.46	1304.56
247.68	1239.02
247.90	1329.13
248.11	1267.69
248.33	1277.93
248.55	1294.32
248.77	1265.64
248.98	1275.88
249.20	1263.60
249.42	1325.04
249.64	1271.79
249.85	1310.70
250.07	1302.51
250.29	1284.08
250.50	1388.52
250.72	1255.40
250.94	1249.26
251.16	1320.94
251.37	1288.17
251.59	1249.26
251.81	1294.32
252.02	1259.50
252.24	1318.89
252.46	1249.26
252.68	1302.51
252.89	1257.45
253.11	1296.36
253.33	1239.02
253.54	1236.97
253.76	1222.64
253.98	1241.07
254.20	1239.02
254.41	1191.92
254.63	1296.36
254.85	1253.36
255.06	1310.70
255.28	1286.12
255.50	1269.74
255.71	1306.60
255.93	1249.26
256.15	1306.60
256.36	1292.27
256.58	1269.74
256.80	1333.23
257.02	1263.60
257.23	1279.98
257.45	1255.40
257.67	1259.50
257.88	1257.45
258.10	1339.37
258.32	1259.50
258.53	1286.12
258.75	1251.31
258.97	1271.79
259.18	1181.68
259.40	1271.79
259.62	1279.98
259.83	1314.80
260.05	1310.70
260.27	1284.08
260.48	1302.51
260.70	1212.40
260.92	1298.41
261.13	1292.27
261.35	1257.45
261.57	1226.73
261.78	1318.89
262.00	1249.26
262.22	1282.03
262.43	1273.84
262.65	1253.36
262.86	1265.64
263.08	1253.36
263.30	1279.98
263.51	1273.84
263.73	1218.54
263.95	1335.28
264.16	1282.03
264.38	1253.36
264.60	1239.02
264.81	1216.49
265.03	1212.40
265.25	1273.84
265.46	1249.26
265.68	1339.37
265.89	1286.12
266.11	1228.78
266.33	1290.22
266.54	1253.36
266.76	1269.74
266.98	1267.69
267.19	1243.12
267.41	1288.17
267.62	1271.79
267.84	1214.45
268.06	1255.40
268.27	1349.61
268.49	1300.46
268.70	1288.17
268.92	1230.83
269.14	1275.88
269.35	1253.36
269.57	1273.84
269.79	1265.64
270.00	1222.64
270.22	1265.64
270.43	1187.82
270.65	1191.92
270.87	1304.56
271.08	1300.46
271.30	1236.97
271.51	1320.94
271.73	1284.08
271.95	1265.64
272.16	1298.41
272.38	1204.21
272.59	1243.12
272.81	1345.52
273.02	1245.16
273.24	1327.08
273.46	1241.07
273.67	1214.45
273.89	1263.60
274.10	1247.21
274.32	1232.88
274.54	1255.40
274.75	1308.65
274.97	1308.65
275.18	1279.98
275.40	1337.32
275.61	1292.27
275.83	1271.79
276.05	1300.46
276.26	1234.93
276.48	1202.16
276.69	1218.54
276.91	1273.84
277.12	1218.54
277.34	1251.31
277.55	1277.93
277.77	1230.83
277.99	1271.79
278.20	1257.45
278.42	1120.24
278.63	1271.79
278.85	1329.13
279.06	1214.45
279.28	1306.60
279.49	1339.37
279.71	1261.55
279.93	1273.84
280.14	1261.55
280.36	1253.36
280.57	1228.78
280.79	1279.98
281.00	1322.99
281.22	1259.50
281.43	1292.27
281.65	1232.88
281.86	1232.88
282.08	1265.64
282.29	1279.98
282.51	1300.46
282.73	1232.88
282.94	1290.22
283.16	1216.49
283.37	1286.12
283.59	1228.78
283.80	1163.25
284.02	1245.16
284.23	1329.13
284.45	1269.74
284.66	1257.45
284.88	1228.78
285.09	1294.32
285.31	1271.79
285.52	1304.56
285.74	1165.29
285.95	1259.50
286.17	1259.50
286.38	1263.60
286.60	1200.11
286.81	1331.18
287.03	1261.55
287.24	1329.13
287.46	1322.99
287.67	1245.16
287.89	1257.45
288.10	1271.79
288.32	1286.12
288.53	1275.88
288.75	1298.41
288.96	1282.03
289.18	1345.52
289.39	1251.31
289.61	1286.12
289.82	1318.89
290.04	1269.74
290.25	1269.74
290.47	1249.26
290.68	1208.30
290.90	1245.16
291.11	1282.03
291.33	1241.07
291.54	1208.30
291.76	1226.73
291.97	1265.64
292.18	1261.55
292.40	1300.46
292.61	1251.31
292.83	1245.16
293.04	1226.73
293.26	1296.36
293.47	1335.28
293.69	1245.16
293.90	1273.84
294.12	1200.11
294.33	1193.97
294.55	1263.60
294.76	1214.45
294.97	1239.02
295.19	1212.40
295.40	1239.02
295.62	1300.46
295.83	1284.08
296.05	1279.98
296.26	1273.84
296.48	1261.55
296.69	1161.20
296.90	1339.37
297.12	1327.08
297.33	1320.94
297.55	1236.97
297.76	1282.03
297.98	1284.08
298.19	1298.41
298.41	1228.78
298.62	1253.36
298.83	1304.56
299.05	1312.75
299.26	1224.69
299.48	1284.08
299.69	1239.02
299.90	1241.07
300.12	1224.69
300.33	1292.27
300.55	1200.11
300.76	1204.21
300.98	1243.12
301.19	1243.12
301.40	1210.35
301.62	1226.73
301.83	1208.30
302.05	1230.83
302.26	1257.45
302.47	1206.25
302.69	1259.50
302.90	1230.83
303.12	1277.93
303.33	1277.93
303.54	1304.56
303.76	1210.35
303.97	1327.08
304.19	1306.60
304.40	1210.35
304.61	1284.08
304.83	1230.83
305.04	1290.22
305.26	1243.12
305.47	1232.88
305.68	1247.21
305.90	1218.54
306.11	1322.99
306.33	1241.07
306.54	1327.08
306.75	1255.40
306.97	1269.74
307.18	1253.36
307.39	1329.13
307.61	1210.35
307.82	1206.25
308.04	1290.22
308.25	1288.17
308.46	1282.03
308.68	1271.79
308.89	1247.21
309.10	1292.27
309.32	1302.51
309.53	1259.50
309.74	1339.37
309.96	1259.50
310.17	1314.80
310.39	1253.36
310.60	1302.51
310.81	1310.70
311.03	1269.74
311.24	1286.12
311.45	1259.50
311.67	1347.56
311.88	1257.45
312.09	1193.97
312.31	1329.13
312.52	1277.93
312.73	1267.69
312.95	1218.54
313.16	1265.64
313.37	1267.69
313.59	1243.12
313.80	1339.37
314.01	1267.69
314.23	1220.59
314.44	1228.78
314.65	1273.84
314.87	1263.60
315.08	1312.75
315.29	1241.07
315.51	1189.87
315.72	1290.22
315.93	1263.60
316.15	1224.69
316.36	1335.28
316.57	1245.16
316.79	1243.12
317.00	1351.66
317.21	1249.26
317.43	1206.25
317.64	1245.16
317.85	1206.25
318.07	1314.80
318.28	1304.56
318.49	1247.21
318.70	1241.07
318.92	1286.12
319.13	1218.54
319.34	1312.75
319.56	1286.12
319.77	1294.32
319.98	1271.79
320.20	1282.03
320.41	1261.55
320.62	1243.12
320.83	1314.80
321.05	1275.88
321.26	1267.69
321.47	1282.03
321.69	1181.68
321.90	1249.26
322.11	1290.22
322.32	1255.40
322.54	1253.36
322.75	1294.32
322.96	1261.55
323.18	1314.80
323.39	1341.42
323.60	1261.55
323.81	1232.88
324.03	1290.22
324.24	1322.99
324.45	1314.80
324.66	1296.36
324.88	1247.21
325.09	1282.03
325.30	1228.78
325.52	1249.26
325.73	1282.03
325.94	1296.36
326.15	1296.36
326.37	1320.94
326.58	1216.49
326.79	1269.74
327.00	1267.69
327.22	1279.98
327.43	1263.60
327.64	1191.92
327.85	1247.21
328.07	1296.36
328.28	1214.45
328.49	1282.03
328.70	1216.49
328.92	1292.27
329.13	1290.22
329.34	1308.65
329.55	1275.88
329.76	1232.88
329.98	1349.61
330.19	1292.27
330.40	1329.13
330.61	1247.21
330.83	1259.50
331.04	1193.97
331.25	1234.93
331.46	1269.74
331.68	1245.16
331.89	1286.12
332.10	1165.29
332.31	1292.27
332.52	1275.88
332.74	1277.93
332.95	1228.78
333.16	1257.45
333.37	1304.56
333.58	1232.88
333.80	1286.12
334.01	1322.99
334.22	1234.93
334.43	1273.84
334.64	1273.84
334.86	1228.78
335.07	1263.60
335.28	1320.94
335.49	1288.17
335.70	1230.83
335.92	1234.93
336.13	1214.45
336.34	1288.17
336.55	1304.56
336.76	1282.03
336.98	1239.02
337.19	1214.45
337.40	1259.50
337.61	1300.46
337.82	1284.08
338.04	1282.03
338.25	1282.03
338.46	1255.40
338.67	1196.01
338.88	1314.80
339.09	1247.21
339.31	1220.59
339.52	1261.55
339.73	1261.55
339.94	1259.50
340.15	1296.36
340.36	1212.40
340.58	1245.16
340.79	1269.74
341.00	1271.79
341.21	1269.74
341.42	1322.99
341.63	1183.73
341.85	1329.13
342.06	1196.01
342.27	1327.08
342.48	1298.41
342.69	1200.11
342.90	1243.12
343.12	1198.06
343.33	1259.50
343.54	1253.36
343.75	1200.11
343.96	1294.32
344.17	1204.21
344.38	1318.89
344.60	1208.30
344.81	1279.98
345.02	1314.80
345.23	1204.21
345.44	1212.40
345.65	1279.98
345.86	1216.49
346.07	1261.55
346.29	1216.49
346.50	1361.90
346.71	1218.54
346.92	1282.03
347.13	1290.22
347.34	1228.78
347.55	1271.79
347.76	1241.07
347.98	1269.74
348.19	1183.73
348.40	1316.84
348.61	1277.93
348.82	1286.12
349.03	1232.88
349.24	1251.31
349.45	1210.35
349.66	1308.65
349.88	1312.75
350.09	1298.41
350.30	1243.12
350.51	1296.36
350.72	1196.01
350.93	1294.32
351.14	1275.88
351.35	1339.37
351.56	1253.36
351.77	1306.60
351.99	1337.32
352.20	1337.32
352.41	1232.88
352.62	1314.80
352.83	1239.02
353.04	1200.11
353.25	1288.17
353.46	1259.50
353.67	1355.76
353.88	1228.78
354.09	1316.84
354.30	1273.84
354.52	1187.82
354.73	1329.13
354.94	1277.93
355.15	1204.21
355.36	1275.88
355.57	1196.01
355.78	1282.03
355.99	1277.93
356.20	1294.32
356.41	1202.16
356.62	1288.17
356.83	1241.07
357.04	1220.59
357.25	1353.71
357.46	1204.21
357.68	1228.78
357.89	1322.99
358.10	1265.64
358.31	1243.12
358.52	1208.30
358.73	1271.79
358.94	1247.21
359.15	1288.17
359.36	1247.21
359.57	1230.83
359.78	1214.45
359.99	1271.79
360.20	1206.25
360.41	1255.40
360.62	1343.47
360.83	1269.74
361.04	1298.41
361.25	1286.12
361.46	1279.98
361.67	1239.02
361.88	1296.36
362.09	1245.16
362.30	1284.08
362.51	1251.31
362.72	1349.61
362.93	1308.65
363.14	1331.18
363.35	1308.65
363.56	1245.16
363.78	1267.69
363.99	1259.50
364.20	1208.30
364.41	1267.69
364.62	1214.45
364.83	1232.88
365.04	1198.06
365.25	1277.93
365.46	1286.12
365.67	1241.07
365.88	1282.03
366.09	1294.32
366.30	1224.69
366.51	1261.55
366.72	1236.97
366.93	1253.36
367.14	1271.79
367.35	1351.66
367.56	1308.65
367.77	1329.13
367.98	1220.59
368.18	1302.51
368.39	1269.74
368.60	1269.74
368.81	1308.65
369.02	1222.64
369.23	1234.93
369.44	1204.21
369.65	1259.50
369.86	1257.45
370.07	1302.51
370.28	1202.16
370.49	1202.16
370.70	1257.45
370.91	1232.88
371.12	1228.78
371.33	1251.31
371.54	1206.25
371.75	1243.12
371.96	1222.64
372.17	1265.64
372.38	1300.46
372.59	1294.32
372.80	1253.36
373.01	1327.08
373.22	1228.78
373.43	1216.49
373.64	1275.88
373.85	1269.74
374.06	1286.12
374.26	1300.46
374.47	1239.02
374.68	1267.69
374.89	1255.40
375.10	1247.21
375.31	1282.03
375.52	1290.22
375.73	1206.25
375.94	1318.89
376.15	1294.32
376.36	1294.32
376.57	1241.07
376.78	1337.32
376.99	1290.22
377.20	1335.28
377.40	1279.98
377.61	1277.93
377.82	1206.25
378.03	1257.45
378.24	1296.36
378.45	1296.36
378.66	1265.64
378.87	1243.12
379.08	1214.45
379.29	1271.79
379.50	1247.21
379.71	1417.19
379.91	1269.74
380.12	1249.26
380.33	1249.26
380.54	1320.94
380.75	1263.60
380.96	1265.64
381.17	1343.47
381.38	1239.02
381.59	1257.45
381.80	1210.35
382.00	1261.55
382.21	1236.97
382.42	1269.74
382.63	1224.69
382.84	1228.78
383.05	1302.51
383.26	1241.07
383.47	1224.69
383.68	1290.22
383.88	1310.70
384.09	1271.79
384.30	1255.40
384.51	1253.36
384.72	1271.79
384.93	1271.79
385.14	1228.78
385.35	1282.03
385.55	1265.64
385.76	1230.83
385.97	1306.60
386.18	1226.73
386.39	1263.60
386.60	1269.74
386.81	1261.55
387.02	1245.16
387.22	1294.32
387.43	1271.79
387.64	1245.16
387.85	1232.88
388.06	1218.54
388.27	1261.55
388.48	1267.69
388.68	1314.80
388.89	1279.98
389.10	1245.16
389.31	1292.27
389.52	1243.12
389.73	1247.21
389.93	1269.74
390.14	1302.51
390.35	1206.25
390.56	1239.02
390.77	1277.93
390.98	1275.88
391.18	1282.03
391.39	1331.18
391.60	1298.41
391.81	1335.28
392.02	1245.16
392.23	1282.03
392.43	1300.46
392.64	1298.41
392.85	1243.12
393.06	1249.26
393.27	1337.32
393.47	1220.59
393.68	1245.16
393.89	1265.64
394.10	1296.36
394.31	1247.21
394.52	1279.98
394.72	1261.55
394.93	1271.79
395.14	1308.65
395.35	1308.65
395.56	1230.83
395.76	1312.75
395.97	1253.36
396.18	1189.87
396.39	1249.26
396.60	1279.98
396.80	1271.79
397.01	1308.65
397.22	1236.97
397.43	1372.14
397.64	1314.80
397.84	1267.69
398.05	1251.31
398.26	1255.40
398.47	1308.65
398.67	1198.06
398.88	1269.74
399.09	1193.97
399.30	1222.64
399.51	1255.40
399.71	1341.42
399.92	1206.25
400.13	1327.08
400.34	1179.63
400.54	1290.22
400.75	1314.80
400.96	1218.54
401.17	1286.12
401.37	1292.27
401.58	1236.97
401.79	1277.93
402.00	1218.54
402.21	1284.08
402.41	1282.03
402.62	1222.64
402.83	1259.50
403.04	1271.79
403.24	1322.99
403.45	1271.79
403.66	1288.17
403.87	1267.69
404.07	1339.37
404.28	1179.63
404.49	1292.27
404.70	1296.36
404.90	1261.55
405.11	1245.16
405.32	1282.03
405.52	1228.78
405.73	1273.84
405.94	1337.32
406.15	1214.45
406.35	1255.40
406.56	1314.80
406.77	1294.32
406.98	1243.12
407.18	1298.41
407.39	1314.80
407.60	1257.45
407.80	1298.41
408.01	1288.17
408.22	1320.94
408.43	1329.13
408.63	1263.60
408.84	1286.12
409.05	1333.23
409.25	1150.96
409.46	1277.93
409.67	1247.21
409.88	1239.02
410.08	1345.52
410.29	1257.45
410.50	1267.69
410.70	1277.93
410.91	1232.88
411.12	1267.69
411.32	1228.78
411.53	1292.27
411.74	1288.17
411.95	1279.98
412.15	1286.12
412.36	1247.21
412.57	1224.69
412.77	1259.50
412.98	1263.60
413.19	1255.40
413.39	1204.21
413.60	1208.30
413.81	1294.32
414.01	1306.60
414.22	1177.58
414.43	1279.98
414.63	1277.93
414.84	1288.17
415.05	1296.36
415.25	1314.80
415.46	1273.84
415.67	1257.45
415.87	1257.45
416.08	1286.12
416.29	1245.16
416.49	1277.93
416.70	1282.03
416.91	1288.17
417.11	1275.88
417.32	1353.71
417.53	1230.83
417.73	1302.51
417.94	1284.08
418.15	1191.92
418.35	1241.07
418.56	1269.74
418.77	1259.50
418.97	1259.50
419.18	1271.79
419.38	1245.16
419.59	1306.60
419.80	1286.12
420.00	1275.88
420.21	1294.32
420.42	1214.45
420.62	1263.60
420.83	1269.74
421.04	1200.11
421.24	1255.40
421.45	1261.55
421.65	1232.88
421.86	1251.31
422.07	1267.69
422.27	1222.64
422.48	1253.36
422.69	1277.93
422.89	1259.50
423.10	1341.42
423.30	1253.36
423.51	1255.40
423.72	1220.59
423.92	1239.02
424.13	1232.88
424.33	1298.41
424.54	1314.80
424.75	1288.17
424.95	1247.21
425.16	1224.69
425.36	1339.37
425.57	1259.50
425.78	1271.79
425.98	1241.07
426.19	1247.21
426.39	1208.30
426.60	1306.60
426.81	1257.45
427.01	1218.54
427.22	1277.93
427.42	1257.45
427.63	1318.89
427.83	1247.21
428.04	1251.31
428.25	1251.31
428.45	1236.97
428.66	1325.04
428.86	1273.84
429.07	1277.93
429.28	1296.36
429.48	1257.45
429.69	1259.50
429.89	1210.35
430.10	1271.79
430.30	1239.02
430.51	1279.98
430.71	1302.51
430.92	1265.64
431.13	1245.16
431.33	1226.73
431.54	1243.12
431.74	1261.55
431.95	1261.55
432.15	1267.69
432.36	1292.27
432.56	1368.04
432.77	1232.88
432.98	1191.92
433.18	1298.41
433.39	1230.83
433.59	1273.84
433.80	1290.22
434.00	1167.34
434.21	1261.55
434.41	1230.83
434.62	1308.65
434.82	1255.40
435.03	1265.64
435.23	1259.50
435.44	1232.88
435.64	1191.92
435.85	1239.02
436.06	1234.93
436.26	1296.36
436.47	1275.88
436.67	1212.40
436.88	1333.23
437.08	1286.12
437.29	1263.60
437.49	1234.93
437.70	1306.60
437.90	1333.23
438.11	1247.21
438.31	1322.99
438.52	1249.26
438.72	1273.84
438.93	1173.49
439.13	1228.78
439.34	1329.13
439.54	1286.12
439.75	1251.31
439.95	1259.50
440.16	1343.47
440.36	1261.55
440.57	1271.79
440.77	1263.60
440.98	1288.17
441.18	1263.60
441.39	1232.88
441.59	1296.36
441.80	1286.12
442.00	1316.84
442.21	1308.65
442.41	1265.64
442.62	1290.22
442.82	1249.26
443.02	1294.32
443.23	1320.94
443.43	1228.78
443.64	1261.55
443.84	1245.16
444.05	1325.04
444.25	1302.51
444.46	1329.13
444.66	1327.08
444.87	1265.64
445.07	1304.56
445.28	1261.55
445.48	1206.25
445.69	1329.13
445.89	1292.27
446.09	1230.83
446.30	1279.98
446.50	1243.12
446.71	1331.18
446.91	1288.17
447.12	1308.65
447.32	1257.45
447.53	1249.26
447.73	1359.85
447.93	1263.60
448.14	1253.36
448.34	1298.41
448.55	1253.36
448.75	1251.31
448.96	1265.64
449.16	1290.22
449.36	1239.02
449.57	1265.64
449.77	1341.42
449.98	1275.88
450.18	1322.99
450.39	1333.23
450.59	1245.16
450.79	1255.40
451.00	1210.35
451.20	1292.27
451.41	1193.97
451.61	1261.55
451.81	1279.98
452.02	1302.51
452.22	1310.70
452.43	1249.26
452.63	1273.84
452.84	1335.28
453.04	1279.98
453.24	1318.89
453.45	1267.69
453.65	1300.46
453.86	1271.79
454.06	1273.84
454.26	1261.55
454.47	1327.08
454.67	1163.25
454.87	1251.31
455.08	1273.84
455.28	1302.51
455.49	1308.65
455.69	1284.08
455.89	1193.97
456.10	1292.27
456.30	1239.02
456.51	1286.12
456.71	1271.79
456.91	1228.78
457.12	1337.32
457.32	1316.84
457.52	1349.61
457.73	1353.71
457.93	1288.17
458.14	1255.40
458.34	1251.31
458.54	1263.60
458.75	1290.22
458.95	1275.88
459.15	1331.18
459.36	1314.80
459.56	1312.75
459.76	1265.64
459.97	1312.75
460.17	1265.64
460.37	1279.98
460.58	1282.03
460.78	1320.94
460.99	1298.41
461.19	1263.60
461.39	1249.26
461.60	1308.65
461.80	1316.84
462.00	1300.46
462.21	1409.00
462.41	1263.60
462.61	1296.36
462.82	1267.69
463.02	1263.60
463.22	1331.18
463.43	1263.60
463.63	1331.18
463.83	1294.32
464.04	1300.46
464.24	1259.50
464.44	1298.41
464.64	1298.41
464.85	1245.16
465.05	1271.79
465.25	1259.50
465.46	1224.69
465.66	1314.80
465.86	1249.26
466.07	1343.47
466.27	1230.83
466.47	1294.32
466.68	1331.18
466.88	1314.80
467.08	1267.69
467.29	1273.84
467.49	1216.49
467.69	1257.45
467.89	1239.02
468.10	1296.36
468.30	1216.49
468.50	1329.13
468.71	1277.93
468.91	1236.97
469.11	1247.21
469.31	1269.74
469.52	1292.27
469.72	1193.97
469.92	1191.92
470.13	1271.79
470.33	1267.69
470.53	1239.02
470.73	1271.79
470.94	1251.31
471.14	1226.73
471.34	1339.37
471.54	1236.97
471.75	1288.17
471.95	1214.45
472.15	1347.56
472.36	1247.21
472.56	1296.36
472.76	1316.84
472.96	1286.12
473.17	1290.22
473.37	1271.79
473.57	1249.26
473.77	1232.88
473.98	1304.56
474.18	1290.22
474.38	1331.18
474.58	1298.41
474.79	1296.36
474.99	1331.18
475.19	1245.16
475.39	1312.75
475.60	1277.93
475.80	1296.36
476.00	1224.69
476.20	1265.64
476.41	1206.25
476.61	1300.46
476.81	1308.65
477.01	1245.16
477.21	1329.13
477.42	1247.21
477.62	1214.45
477.82	1306.60
478.02	1290.22
478.23	1275.88
478.43	1325.04
478.63	1245.16
478.83	1290.22
479.03	1296.36
479.24	1167.34
479.44	1277.93
479.64	1271.79
479.84	1257.45
480.04	1202.16
480.25	1335.28
480.45	1296.36
480.65	1286.12
480.85	1279.98
481.06	1288.17
481.26	1351.66
481.46	1327.08
481.66	1224.69
481.86	1275.88
482.06	1302.51
482.27	1273.84
482.47	1224.69
482.67	1267.69
482.87	1282.03
483.07	1277.93
483.28	1310.70
483.48	1341.42
483.68	1316.84
483.88	1218.54
484.08	1298.41
484.29	1273.84
484.49	1257.45
484.69	1292.27
484.89	1298.41
485.09	1232.88
485.29	1322.99
485.50	1355.76
485.70	1218.54
485.90	1288.17
486.10	1296.36
486.30	1249.26
486.50	1318.89
486.71	1312.75
486.91	1288.17
487.11	1298.41
487.31	1243.12
487.51	1228.78
487.71	1204.21
487.91	1273.84
488.12	1279.98
488.32	1388.52
488.52	1292.27
488.72	1314.80
488.92	1269.74
489.12	1247.21
489.32	1249.26
489.53	1302.51
489.73	1167.34
489.93	1327.08
490.13	1306.60
490.33	1327.08
490.53	1249.26
490.73	1310.70
490.94	1253.36
491.14	1236.97
491.34	1282.03
491.54	1363.95
491.74	1261.55
491.94	1191.92
492.14	1282.03
492.34	1230.83
492.54	1279.98
492.75	1355.76
492.95	1273.84
493.15	1230.83
493.35	1294.32
493.55	1329.13
493.75	1306.60
493.95	1331.18
494.15	1228.78
494.35	1286.12
494.56	1288.17
494.76	1193.97
494.96	1279.98
495.16	1228.78
495.36	1245.16
495.56	1226.73
495.76	1255.40
495.96	1271.79
496.16	1234.93
496.36	1263.60
496.56	1202.16
496.77	1265.64
496.97	1259.50
497.17	1329.13
497.37	1294.32
497.57	1294.32
497.77	1316.84
497.97	1335.28
498.17	1257.45
498.37	1206.25
498.57	1259.50
498.77	1234.93
498.97	1173.49
499.17	1204.21
499.38	1251.31
499.58	1241.07
499.78	1351.66
499.98	1259.50
500.18	1232.88
500.38	1255.40
500.58	1206.25
500.78	1261.55
500.98	1300.46
501.18	1279.98
501.38	1343.47
501.58	1269.74
501.78	1241.07
501.98	1341.42
502.18	1331.18
502.38	1273.84
502.58	1286.12
502.78	1226.73
502.98	1261.55
503.18	1318.89
503.38	1290.22
503.59	1236.97
503.79	1290.22
503.99	1345.52
504.19	1353.71
504.39	1325.04
504.59	1232.88
504.79	1247.21
504.99	1290.22
505.19	1265.64
505.39	1247.21
505.59	1298.41
505.79	1335.28
505.99	1366.00
506.19	1198.06
506.39	1249.26
506.59	1300.46
506.79	1284.08
506.99	1300.46
507.19	1255.40
507.39	1284.08
507.59	1320.94
507.79	1261.55
507.99	1265.64
508.19	1284.08
508.39	1232.88
508.59	1230.83
508.79	1329.13
508.99	1292.27
509.19	1249.26
509.39	1288.17
509.59	1306.60
509.79	1318.89
509.99	1263.60
510.19	1347.56
510.39	1296.36
510.59	1247.21
510.79	1296.36
510.99	1318.89
511.19	1249.26
511.39	1261.55
511.59	1247.21
511.79	1322.99
511.99	1316.84
512.19	1230.83
512.38	1255.40
512.58	1251.31
512.78	1265.64
512.98	1277.93
513.18	1325.04
513.38	1316.84
513.58	1296.36
513.78	1257.45
513.98	1273.84
514.18	1263.60
514.38	1296.36
514.58	1329.13
514.78	1269.74
514.98	1261.55
515.18	1318.89
515.38	1312.75
515.58	1279.98
515.78	1263.60
515.98	1335.28
516.18	1273.84
516.38	1236.97
516.57	1234.93
516.77	1263.60
516.97	1290.22
517.17	1320.94
517.37	1306.60
517.57	1316.84
517.77	1275.88
517.97	1249.26
518.17	1302.51
518.37	1296.36
518.57	1290.22
518.77	1259.50
518.97	1275.88
519.16	1343.47
519.36	1290.22
519.56	1259.50
519.76	1300.46
519.96	1288.17
520.16	1257.45
520.36	1271.79
520.56	1284.08
520.76	1234.93
520.96	1306.60
521.16	1189.87
521.35	1294.32
521.55	1290.22
521.75	1310.70
521.95	1259.50
522.15	1263.60
522.35	1271.79
522.55	1245.16
522.75	1312.75
522.95	1304.56
523.14	1234.93
523.34	1282.03
523.54	1294.32
523.74	1232.88
523.94	1269.74
524.14	1263.60
524.34	1308.65
524.54	1282.03
524.73	1212.40
524.93	1241.07
525.13	1255.40
525.33	1212.40
525.53	1294.32
525.73	1275.88
525.93	1286.12
526.13	1224.69
526.32	1275.88
526.52	1302.51
526.72	1359.85
526.92	1275.88
527.12	1253.36
527.32	1253.36
527.52	1277.93
527.71	1247.21
527.91	1249.26
528.11	1286.12
528.31	1249.26
528.51	1255.40
528.71	1316.84
528.90	1296.36
529.10	1286.12
529.30	1320.94
529.50	1275.88
529.70	1253.36
529.90	1271.79
530.09	1222.64
530.29	1331.18
530.49	1134.57
530.69	1255.40
530.89	1232.88
531.09	1271.79
531.28	1351.66
531.48	1255.40
531.68	1304.56
531.88	1259.50
532.08	1300.46
532.28	1228.78
532.47	1226.73
532.67	1310.70
532.87	1331.18
533.07	1267.69
533.27	1308.65
533.46	1257.45
533.66	1222.64
533.86	1308.65
534.06	1284.08
534.26	1353.71
534.45	1247.21
534.65	1300.46
534.85	1261.55
535.05	1300.46
535.25	1347.56
535.44	1331.18
535.64	1294.32
535.84	1308.65
536.04	1191.92
536.24	1308.65
536.43	1331.18
536.63	1267.69
536.83	1310.70
537.03	1302.51
537.22	1210.35
537.42	1314.80
537.62	1306.60
537.82	1265.64
538.02	1204.21
538.21	1243.12
538.41	1290.22
538.61	1265.64
538.81	1279.98
539.00	1333.23
539.20	1275.88
539.40	1331.18
539.60	1247.21
539.79	1345.52
539.99	1290.22
540.19	1273.84
540.39	1275.88
540.58	1271.79
540.78	1255.40
540.98	1314.80
541.18	1277.93
541.37	1320.94
541.57	1282.03
541.77	1214.45
541.97	1267.69
542.16	1322.99
542.36	1384.43
542.56	1308.65
542.76	1265.64
542.95	1286.12
543.15	1335.28
543.35	1265.64
543.54	1294.32
543.74	1255.40
543.94	1279.98
544.14	1314.80
544.33	1241.07
544.53	1300.46
544.73	1224.69
544.93	1298.41
545.12	1345.52
545.32	1275.88
545.52	1298.41
545.71	1339.37
545.91	1331.18
546.11	1298.41
546.30	1241.07
546.50	1333.23
546.70	1241.07
546.90	1273.84
547.09	1298.41
547.29	1306.60
547.49	1318.89
547.68	1286.12
547.88	1279.98
548.08	1273.84
548.27	1236.97
548.47	1288.17
548.67	1353.71
548.87	1255.40
549.06	1275.88
549.26	1271.79
549.46	1300.46
549.65	1284.08
549.85	1261.55
550.05	1243.12
550.24	1245.16
550.44	1220.59
550.64	1261.55
550.83	1302.51
551.03	1232.88
551.23	1224.69
551.42	1318.89
551.62	1312.75
551.82	1306.60
552.01	1259.50
552.21	1273.84
552.41	1290.22
552.60	1288.17
552.80	1279.98
553.00	1220.59
553.19	1329.13
553.39	1253.36
553.59	1257.45
553.78	1269.74
553.98	1247.21
554.17	1361.90
554.37	1329.13
554.57	1296.36
554.76	1314.80
554.96	1239.02
555.16	1210.35
555.35	1273.84
555.55	1294.32
555.75	1220.59
555.94	1341.42
556.14	1255.40
556.33	1253.36
556.53	1243.12
556.73	1277.93
556.92	1241.07
557.12	1277.93
557.32	1286.12
557.51	1325.04
557.71	1341.42
557.90	1312.75
558.10	1212.40
558.30	1329.13
558.49	1337.32
558.69	1314.80
558.88	1257.45
559.08	1294.32
559.28	1312.75
559.47	1380.33
559.67	1241.07
559.86	1314.80
560.06	1275.88
560.26	1251.31
560.45	1296.36
560.65	1267.69
560.84	1243.12
561.04	1290.22
561.24	1230.83
561.43	1282.03
561.63	1318.89
561.82	1239.02
562.02	1241.07
562.22	1247.21
562.41	1306.60
562.61	1286.12
562.80	1261.55
563.00	1263.60
563.19	1257.45
563.39	1355.76
563.59	1218.54
563.78	1308.65
563.98	1286.12
564.17	1267.69
564.37	1261.55
564.56	1265.64
564.76	1279.98
564.96	1263.60
565.15	1282.03
565.35	1241.07
565.54	1269.74
565.74	1261.55
565.93	1239.02
566.13	1320.94
566.32	1343.47
566.52	1320.94
566.71	1214.45
566.91	1279.98
567.11	1282.03
567.30	1335.28
567.50	1210.35
567.69	1259.50
567.89	1265.64
568.08	1312.75
568.28	1318.89
568.47	1267.69
568.67	1259.50
568.86	1292.27
569.06	1255.40
569.25	1271.79
569.45	1286.12
569.64	1247.21
569.84	1273.84
570.04	1296.36
570.23	1310.70
570.43	1273.84
570.62	1236.97
570.82	1345.52
571.01	1236.97
571.21	1284.08
571.40	1255.40
571.60	1294.32
571.79	1277.93
571.99	1259.50
572.18	1318.89
572.38	1314.80
572.57	1234.93
572.77	1277.93
572.96	1191.92
573.16	1284.08
573.35	1322.99
573.55	1329.13
573.74	1165.29
573.94	1322.99
574.13	1249.26
574.33	1308.65
574.52	1292.27
574.71	1200.11
574.91	1308.65
575.10	1198.06
575.30	1279.98
575.49	1224.69
575.69	1333.23
575.88	1296.36
576.08	1306.60
576.27	1296.36
576.47	1236.97
576.66	1304.56
576.86	1259.50
577.05	1251.31
577.25	1300.46
577.44	1175.53
577.64	1277.93
577.83	1312.75
578.02	1220.59
578.22	1279.98
578.41	1310.70
578.61	1282.03
578.80	1298.41
579.00	1189.87
579.19	1298.41
579.39	1265.64
579.58	1247.21
579.77	1298.41
579.97	1228.78
580.16	1236.97
580.36	1220.59
580.55	1257.45
580.75	1200.11
580.94	1282.03
581.13	1267.69
581.33	1255.40
581.52	1331.18
581.72	1284.08
581.91	1259.50
582.11	1261.55
582.30	1282.03
582.49	1296.36
582.69	1236.97
582.88	1288.17
583.08	1273.84
583.27	1343.47
583.47	1269.74
583.66	1261.55
583.85	1239.02
584.05	1302.51
584.24	1325.04
584.44	1275.88
584.63	1277.93
584.82	1245.16
585.02	1277.93
585.21	1259.50
585.41	1296.36
585.60	1271.79
585.79	1255.40
585.99	1327.08
586.18	1327.08
586.37	1382.38
586.57	1300.46
586.76	1265.64
586.96	1308.65
587.15	1234.93
587.34	1259.50
587.54	1343.47
587.73	1308.65
587.93	1296.36
588.12	1247.21
588.31	1296.36
588.51	1282.03
588.70	1279.98
588.89	1279.98
589.09	1298.41
589.28	1347.56
589.47	1269.74
589.67	1298.41
589.86	1329.13
590.06	1265.64
590.25	1232.88
590.44	1275.88
590.64	1273.84
590.83	1275.88
591.02	1232.88
591.22	1251.31
591.41	1310.70
591.60	1265.64
591.80	1263.60
591.99	1267.69
592.18	1239.02
592.38	1279.98
592.57	1318.89
592.76	1267.69
592.96	1263.60
593.15	1218.54
593.34	1222.64
593.54	1259.50
593.73	1212.40
593.92	1273.84
594.12	1286.12
594.31	1292.27
594.50	1247.21
594.70	1296.36
594.89	1251.31
595.08	1239.02
595.28	1329.13
595.47	1359.85
595.66	1331.18
595.86	1251.31
596.05	1279.98
596.24	1292.27
596.43	1306.60
596.63	1288.17
596.82	1230.83
597.01	1216.49
597.21	1257.45
597.40	1343.47
597.59	1275.88
597.79	1263.60
597.98	1259.50
598.17	1271.79
598.36	1333.23
598.56	1341.42
598.75	1339.37
598.94	1273.84
599.14	1269.74
599.33	1308.65
599.52	1277.93
599.71	1286.12
599.91	1300.46
600.10	1343.47
600.29	1310.70
600.48	1277.93
600.68	1306.60
600.87	1247.21
601.06	1296.36
601.26	1286.12
601.45	1271.79
601.64	1310.70
601.83	1271.79
602.03	1347.56
602.22	1200.11
602.41	1306.60
602.60	1269.74
602.80	1298.41
602.99	1310.70
603.18	1320.94
603.37	1339.37
603.57	1300.46
603.76	1419.24
603.95	1220.59
604.14	1271.79
604.34	1249.26
604.53	1228.78
604.72	1275.88
604.91	1220.59
605.10	1251.31
605.30	1284.08
605.49	1239.02
605.68	1298.41
605.87	1298.41
606.07	1245.16
606.26	1284.08
606.45	1273.84
606.64	1222.64
606.84	1355.76
607.03	1341.42
607.22	1259.50
607.41	1337.32
607.60	1300.46
607.80	1249.26
607.99	1304.56
608.18	1220.59
608.37	1222.64
608.56	1343.47
608.76	1257.45
608.95	1241.07
609.14	1255.40
609.33	1294.32
609.52	1261.55
609.72	1288.17
609.91	1349.61
610.10	1275.88
610.29	1282.03
610.48	1335.28
610.68	1333.23
610.87	1261.55
611.06	1253.36
611.25	1331.18
611.44	1337.32
611.63	1310.70
611.83	1296.36
612.02	1327.08
612.21	1273.84
612.40	1310.70
612.59	1298.41
612.79	1351.66
612.98	1327.08
613.17	1341.42
613.36	1341.42
613.55	1286.12
613.74	1282.03
613.93	1277.93
614.13	1259.50
614.32	1288.17
614.51	1259.50
614.70	1318.89
614.89	1294.32
615.08	1290.22
615.28	1279.98
615.47	1257.45
615.66	1296.36
615.85	1265.64
616.04	1335.28
616.23	1320.94
616.42	1320.94
616.62	1286.12
616.81	1294.32
617.00	1282.03
617.19	1347.56
617.38	1249.26
617.57	1243.12
617.76	1304.56
617.95	1257.45
618.15	1249.26
618.34	1259.50
618.53	1302.51
618.72	1290.22
618.91	1372.14
619.10	1298.41
619.29	1314.80
619.48	1234.93
619.68	1271.79
619.87	1257.45
620.06	1159.15
620.25	1355.76
620.44	1265.64
620.63	1316.84
620.82	1277.93
621.01	1290.22
621.20	1247.21
621.39	1345.52
621.59	1277.93
621.78	1312.75
621.97	1277.93
622.16	1286.12
622.35	1351.66
622.54	1286.12
622.73	1234.93
622.92	1288.17
623.11	1267.69
623.30	1277.93
623.49	1325.04
623.68	1263.60
623.88	1263.60
624.07	1320.94
624.26	1267.69
624.45	1372.14
624.64	1322.99
624.83	1275.88
625.02	1228.78
625.21	1304.56
625.40	1335.28
625.59	1351.66
625.78	1275.88
625.97	1296.36
626.16	1277.93
626.35	1232.88
626.54	1351.66
626.74	1259.50
626.93	1296.36
627.12	1236.97
627.31	1329.13
627.50	1335.28
627.69	1314.80
627.88	1327.08
628.07	1257.45
628.26	1263.60
628.45	1312.75
628.64	1294.32
628.83	1325.04
629.02	1230.83
629.21	1296.36
629.40	1314.80
629.59	1275.88
629.78	1314.80
629.97	1345.52
630.16	1263.60
630.35	1335.28
630.54	1308.65
630.73	1310.70
630.92	1279.98
631.11	1318.89
631.30	1304.56
631.49	1396.71
631.68	1400.81
631.87	1439.72
632.06	1402.86
632.25	1423.34
632.44	1480.68
632.63	1386.47
632.82	1388.52
633.01	1417.19
633.20	1509.35
633.39	1392.62
633.58	1374.19
633.77	1368.04
633.96	1372.14
634.15	1509.35
634.34	1361.90
634.53	1445.87
634.72	1419.24
634.91	1400.81
635.10	1411.05
635.29	1454.06
635.48	1406.95
635.67	1456.11
635.86	1437.67
636.05	1474.54
636.24	1351.66
636.43	1394.67
636.62	1382.38
636.81	1347.56
637.00	1378.28
637.19	1357.80
637.38	1363.95
637.57	1413.10
637.76	1370.09
637.95	1271.79
638.14	1337.32
638.33	1320.94
638.52	1376.24
638.71	1339.37
638.89	1296.36
639.08	1279.98
639.27	1292.27
639.46	1298.41
639.65	1320.94
639.84	1353.71
640.03	1329.13
640.22	1294.32
640.41	1249.26
640.60	1277.93
640.79	1316.84
640.98	1263.60
641.17	1232.88
641.36	1284.08
641.55	1261.55
641.74	1284.08
641.92	1271.79
642.11	1275.88
642.30	1310.70
642.49	1296.36
642.68	1351.66
642.87	1212.40
643.06	1296.36
643.25	1290.22
643.44	1282.03
643.63	1273.84
643.82	1339.37
644.00	1220.59
644.19	1251.31
644.38	1312.75
644.57	1351.66
644.76	1228.78
644.95	1363.95
645.14	1288.17
645.33	1288.17
645.52	1265.64
645.71	1329.13
645.89	1226.73
646.08	1310.70
646.27	1300.46
646.46	1273.84
646.65	1339.37
646.84	1275.88
647.03	1222.64
647.22	1351.66
647.40	1304.56
647.59	1300.46
647.78	1224.69
647.97	1288.17
648.16	1327.08
648.35	1286.12
648.54	1292.27
648.73	1337.32
648.91	1212.40
649.10	1298.41
649.29	1290.22
649.48	1236.97
649.67	1273.84
649.86	1263.60
650.05	1277.93
650.23	1208.30
650.42	1288.17
650.61	1277.93
650.80	1331.18
650.99	1277.93
651.18	1304.56
651.36	1271.79
651.55	1304.56
651.74	1265.64
651.93	1230.83
652.12	1302.51
652.31	1271.79
652.49	1263.60
652.68	1320.94
652.87	1329.13
653.06	1290.22
653.25	1374.19
653.44	1226.73
653.62	1224.69
653.81	1333.23
654.00	1196.01
654.19	1245.16
654.38	1314.80
654.56	1312.75
654.75	1306.60
654.94	1253.36
655.13	1196.01
655.32	1249.26
655.51	1359.85
655.69	1245.16
655.88	1249.26
656.07	1216.49
656.26	1228.78
656.45	1253.36
656.63	1322.99
656.82	1245.16
657.01	1318.89
657.20	1234.93
657.38	1271.79
657.57	1220.59
657.76	1304.56
657.95	1275.88
658.14	1282.03
658.32	1236.97
658.51	1339.37
658.70	1247.21
658.89	1255.40
659.08	1282.03
659.26	1220.59
659.45	1243.12
659.64	1279.98
659.83	1236.97
660.01	1249.26
660.20	1282.03
660.39	1222.64
660.58	1275.88
660.76	1232.88
660.95	1286.12
661.14	1251.31
661.33	1249.26
661.51	1279.98
661.70	1282.03
661.89	1253.36
662.08	1273.84
662.26	1277.93
662.45	1261.55
662.64	1259.50
662.83	1253.36
663.01	1279.98
663.20	1251.31
663.39	1259.50
663.58	1347.56
663.76	1251.31
663.95	1290.22
664.14	1284.08
664.32	1236.97
664.51	1277.93
664.70	1271.79
664.89	1320.94
665.07	1275.88
665.26	1353.71
665.45	1232.88
665.64	1204.21
665.82	1245.16
666.01	1228.78
666.20	1273.84
666.38	1327.08
666.57	1318.89
666.76	1312.75
666.95	1232.88
667.13	1271.79
667.32	1269.74
667.51	1202.16
667.69	1288.17
667.88	1269.74
668.07	1218.54
668.25	1173.49
668.44	1310.70
668.63	1247.21
668.81	1304.56
669.00	1255.40
669.19	1210.35
669.38	1251.31
669.56	1290.22
669.75	1312.75
669.94	1306.60
670.12	1298.41
670.31	1206.25
670.50	1277.93
670.68	1216.49
670.87	1312.75
671.06	1247.21
671.24	1353.71
671.43	1257.45
671.62	1288.17
671.80	1261.55
671.99	1312.75
672.18	1312.75
672.36	1300.46
672.55	1322.99
672.74	1273.84
672.92	1265.64
673.11	1269.74
673.29	1257.45
673.48	1255.40
673.67	1187.82
673.85	1263.60
674.04	1320.94
674.23	1198.06
674.41	1292.27
674.60	1179.63
674.79	1290.22
674.97	1245.16
675.16	1286.12
675.34	1282.03
675.53	1224.69
675.72	1273.84
675.90	1296.36
676.09	1310.70
676.28	1261.55
676.46	1255.40
676.65	1304.56
676.83	1312.75
677.02	1251.31
677.21	1310.70
677.39	1269.74
677.58	1218.54
677.77	1247.21
677.95	1282.03
678.14	1333.23
678.32	1279.98
678.51	1271.79
678.70	1284.08
678.88	1261.55
679.07	1290.22
679.25	1232.88
679.44	1212.40
679.63	1275.88
679.81	1292.27
680.00	1279.98
680.18	1277.93
680.37	1216.49
680.55	1261.55
680.74	1245.16
680.93	1337.32
681.11	1288.17
681.30	1284.08
681.48	1265.64
681.67	1306.60
681.85	1296.36
682.04	1228.78
682.23	1241.07
682.41	1327.08
682.60	1234.93
682.78	1232.88
682.97	1277.93
683.15	1298.41
683.34	1222.64
683.53	1306.60
683.71	1271.79
683.90	1298.41
684.08	1265.64
684.27	1355.76
684.45	1243.12
684.64	1304.56
684.82	1306.60
685.01	1343.47
685.19	1234.93
685.38	1265.64
685.57	1269.74
685.75	1253.36
685.94	1253.36
686.12	1259.50
686.31	1239.02
686.49	1292.27
686.68	1234.93
686.86	1288.17
687.05	1273.84
687.23	1261.55
687.42	1234.93
687.60	1316.84
687.79	1282.03
687.97	1269.74
688.16	1245.16
688.34	1239.02
688.53	1245.16
688.71	1204.21
688.90	1296.36
689.08	1300.46
689.27	1265.64
689.45	1304.56
689.64	1275.88
689.82	1282.03
690.01	1277.93
690.19	1228.78
690.38	1273.84
690.56	1292.27
690.75	1247.21
690.93	1232.88
691.12	1308.65
691.30	1249.26
691.49	1294.32
691.67	1261.55
691.86	1279.98
692.04	1218.54
692.23	1277.93
692.41	1275.88
692.60	1214.45
692.78	1241.07
692.97	1314.80
693.15	1226.73
693.34	1306.60
693.52	1277.93
693.71	1267.69
693.89	1261.55
694.08	1310.70
694.26	1284.08
694.44	1269.74
694.63	1241.07
694.81	1298.41
695.00	1245.16
695.18	1228.78
695.37	1282.03
695.55	1304.56
695.74	1304.56
695.92	1204.21
696.10	1259.50
696.29	1290.22
696.47	1241.07
696.66	1259.50
696.84	1288.17
697.03	1267.69
697.21	1271.79
697.40	1286.12
697.58	1306.60
697.76	1214.45
697.95	1232.88
698.13	1206.25
698.32	1241.07
698.50	1159.15
698.68	1265.64
698.87	1257.45
699.05	1251.31
699.24	1267.69
699.42	1277.93
699.61	1226.73
699.79	1282.03
699.97	1314.80
700.16	1241.07
700.34	1318.89
700.53	1288.17
700.71	1308.65
700.89	1189.87
701.08	1263.60
701.26	1290.22
701.45	1322.99
701.63	1269.74
701.81	1222.64
702.00	1269.74
702.18	1308.65
702.37	1267.69
702.55	1308.65
702.73	1351.66
702.92	1269.74
703.10	1339.37
703.28	1222.64
703.47	1226.73
703.65	1257.45
703.84	1239.02
704.02	1304.56
704.20	1277.93
704.39	1300.46
704.57	1325.04
704.75	1220.59
704.94	1230.83
705.12	1273.84
705.30	1200.11
705.49	1279.98
705.67	1214.45
705.86	1277.93
706.04	1279.98
706.22	1273.84
706.41	1224.69
706.59	1265.64
706.77	1183.73
706.96	1298.41
707.14	1310.70
707.32	1320.94
707.51	1200.11
707.69	1232.88
707.87	1329.13
708.06	1322.99
708.24	1292.27
708.42	1284.08
708.61	1292.27
708.79	1218.54
708.97	1259.50
709.16	1245.16
709.34	1212.40
709.52	1243.12
709.71	1222.64
709.89	1273.84
710.07	1294.32
710.26	1239.02
710.44	1277.93
710.62	1255.40
710.80	1263.60
710.99	1279.98
711.17	1292.27
711.35	1196.01
711.54	1226.73
711.72	1269.74
711.90	1228.78
712.09	1298.41
712.27	1241.07
712.45	1263.60
712.63	1241.07
712.82	1257.45
713.00	1198.06
713.18	1210.35
713.37	1234.93
713.55	1249.26
713.73	1277.93
713.91	1255.40
714.10	1302.51
714.28	1304.56
714.46	1249.26
714.65	1273.84
714.83	1230.83
715.01	1236.97
715.19	1304.56
715.38	1282.03
715.56	1312.75
715.74	1279.98
715.92	1263.60
716.11	1271.79
716.29	1306.60
716.47	1204.21
716.65	1296.36
716.84	1296.36
717.02	1259.50
717.20	1312.75
717.38	1239.02
717.57	1265.64
717.75	1279.98
717.93	1224.69
718.11	1273.84
718.30	1251.31
718.48	1292.27
718.66	1253.36
718.84	1253.36
719.03	1271.79
719.21	1316.84
719.39	1251.31
719.57	1277.93
719.75	1286.12
719.94	1282.03
720.12	1255.40
720.30	1335.28
720.48	1224.69
720.67	1327.08
720.85	1314.80
721.03	1265.64
721.21	1249.26
721.39	1257.45
721.58	1224.69
721.76	1345.52
721.94	1220.59
722.12	1298.41
722.30	1239.02
722.49	1243.12
722.67	1335.28
722.85	1257.45
723.03	1251.31
723.21	1300.46
723.40	1249.26
723.58	1277.93
723.76	1202.16
723.94	1208.30
724.12	1282.03
724.30	1257.45
724.49	1224.69
724.67	1277.93
724.85	1210.35
725.03	1316.84
725.21	1312.75
725.40	1267.69
725.58	1322.99
725.76	1322.99
725.94	1263.60
726.12	1208.30
726.30	1214.45
726.49	1322.99
726.67	1241.07
726.85	1232.88
727.03	1222.64
727.21	1243.12
727.39	1249.26
727.57	1259.50
727.76	1249.26
727.94	1269.74
728.12	1175.53
728.30	1288.17
728.48	1208.30
728.66	1230.83
728.84	1255.40
729.03	1292.27
729.21	1241.07
729.39	1316.84
729.57	1224.69
729.75	1282.03
729.93	1241.07
730.11	1196.01
730.30	1200.11
730.48	1294.32
730.66	1257.45
730.84	1239.02
731.02	1239.02
731.20	1261.55
731.38	1251.31
731.56	1310.70
731.74	1290.22
731.93	1263.60
732.11	1277.93
732.29	1290.22
732.47	1226.73
732.65	1206.25
732.83	1191.92
733.01	1296.36
733.19	1175.53
733.37	1286.12
733.56	1269.74
733.74	1200.11
733.92	1232.88
734.10	1312.75
734.28	1251.31
734.46	1290.22
734.64	1314.80
734.82	1232.88
735.00	1259.50
735.18	1230.83
735.36	1298.41
735.54	1325.04
735.73	1273.84
735.91	1232.88
736.09	1261.55
736.27	1232.88
736.45	1255.40
736.63	1304.56
736.81	1271.79
736.99	1277.93
737.17	1208.30
737.35	1210.35
737.53	1271.79
737.71	1187.82
737.89	1241.07
738.07	1216.49
738.25	1247.21
738.43	1265.64
738.61	1318.89
738.80	1183.73
738.98	1275.88
739.16	1239.02
739.34	1327.08
739.52	1236.97
739.70	1288.17
739.88	1286.12
740.06	1308.65
740.24	1257.45
740.42	1265.64
740.60	1261.55
740.78	1284.08
740.96	1216.49
741.14	1310.70
741.32	1343.47
741.50	1253.36
741.68	1232.88
741.86	1234.93
742.04	1265.64
742.22	1228.78
742.40	1290.22
742.58	1298.41
742.76	1263.60
742.94	1269.74
743.12	1269.74
743.30	1241.07
743.48	1210.35
743.66	1316.84
743.84	1282.03
744.02	1288.17
744.20	1359.85
744.38	1316.84
744.56	1306.60
744.74	1282.03
744.92	1230.83
745.10	1312.75
745.28	1300.46
745.46	1263.60
745.64	1259.50
745.82	1255.40
746.00	1308.65
746.18	1236.97
746.36	1267.69
746.54	1294.32
746.72	1261.55
746.90	1218.54
747.08	1269.74
747.26	1277.93
747.44	1296.36
747.62	1288.17
747.80	1290.22
747.98	1210.35
748.15	1308.65
748.33	1273.84
748.51	1204.21
748.69	1265.64
748.87	1308.65
749.05	1263.60
749.23	1216.49
749.41	1308.65
749.59	1314.80
749.77	1327.08
749.95	1288.17
750.13	1255.40
750.31	1296.36
750.49	1271.79
750.67	1306.60
750.85	1302.51
751.03	1241.07
751.20	1288.17
751.38	1269.74
751.56	1232.88
751.74	1286.12
751.92	1245.16
752.10	1212.40
752.28	1247.21
752.46	1253.36
752.64	1316.84
752.82	1320.94
753.00	1198.06
753.18	1265.64
753.35	1273.84
753.53	1265.64
753.71	1261.55
753.89	1314.80
754.07	1265.64
754.25	1298.41
754.43	1202.16
754.61	1282.03
754.79	1286.12
754.97	1239.02
755.14	1308.65
755.32	1265.64
755.50	1331.18
755.68	1306.60
755.86	1243.12
756.04	1265.64
756.22	1279.98
756.40	1277.93
756.57	1275.88
756.75	1288.17
756.93	1239.02
757.11	1251.31
757.29	1267.69
757.47	1269.74
757.65	1304.56
757.82	1261.55
758.00	1279.98
758.18	1279.98
758.36	1265.64
758.54	1325.04
758.72	1279.98
758.90	1257.45
759.07	1230.83
759.25	1220.59
759.43	1294.32
759.61	1234.93
759.79	1284.08
759.97	1320.94
760.15	1275.88
760.32	1273.84
760.50	1247.21
760.68	1316.84
760.86	1300.46
761.04	1296.36
761.22	1335.28
761.39	1234.93
761.57	1253.36
761.75	1271.79
761.93	1257.45
762.11	1265.64
762.28	1251.31
762.46	1228.78
762.64	1320.94
762.82	1251.31
763.00	1284.08
763.18	1273.84
763.35	1241.07
763.53	1230.83
763.71	1282.03
763.89	1341.42
764.07	1306.60
764.24	1247.21
764.42	1302.51
764.60	1165.29
764.78	1269.74
764.96	1220.59
765.13	1271.79
765.31	1279.98
765.49	1288.17
765.67	1234.93
765.84	1286.12
766.02	1286.12
766.20	1230.83
766.38	1230.83
766.56	1300.46
766.73	1286.12
766.91	1294.32
767.09	1290.22
767.27	1224.69
767.44	1245.16
767.62	1277.93
767.80	1255.40
767.98	1226.73
768.15	1290.22
768.33	1275.88
768.51	1234.93
768.69	1251.31
768.87	1296.36
769.04	1218.54
769.22	1292.27
769.40	1294.32
769.58	1259.50
769.75	1296.36
769.93	1286.12
770.11	1279.98
770.28	1286.12
770.46	1236.97
770.64	1282.03
770.82	1271.79
770.99	1284.08
771.17	1241.07
771.35	1232.88
771.53	1247.21
771.70	1296.36
771.88	1259.50
772.06	1230.83
772.23	1218.54
772.41	1322.99
772.59	1228.78
772.77	1302.51
772.94	1290.22
773.12	1304.56
773.30	1241.07
773.47	1263.60
773.65	1279.98
773.83	1241.07
774.01	1249.26
774.18	1343.47
774.36	1210.35
774.54	1282.03
774.71	1257.45
774.89	1202.16
775.07	1263.60
775.24	1300.46
775.42	1204.21
775.60	1308.65
775.78	1277.93
775.95	1224.69
776.13	1216.49
776.31	1314.80
776.48	1269.74
776.66	1230.83
776.84	1234.93
777.01	1249.26
777.19	1249.26
777.37	1245.16
777.54	1198.06
777.72	1241.07
777.90	1230.83
778.07	1290.22
778.25	1259.50
778.43	1257.45
778.60	1290.22
778.78	1261.55
778.96	1206.25
779.13	1282.03
779.31	1327.08
779.49	1249.26
779.66	1259.50
779.84	1327.08
780.01	1234.93
780.19	1239.02
780.37	1220.59
780.54	1273.84
780.72	1236.97
780.90	1290.22
781.07	1267.69
781.25	1261.55
781.43	1239.02
781.60	1222.64
781.78	1251.31
781.95	1230.83
782.13	1247.21
782.31	1288.17
782.48	1181.68
782.66	1277.93
782.83	1290.22
783.01	1277.93
783.19	1349.61
783.36	1298.41
783.54	1306.60
783.72	1286.12
783.89	1304.56
784.07	1218.54
784.24	1257.45
784.42	1286.12
784.60	1277.93
784.77	1304.56
784.95	1218.54
785.12	1331.18
785.30	1222.64
785.47	1214.45
785.65	1269.74
785.83	1265.64
786.00	1288.17
786.18	1345.52
786.35	1271.79
786.53	1259.50
786.71	1304.56
786.88	1202.16
787.06	1210.35
787.23	1255.40
787.41	1257.45
787.58	1261.55
787.76	1308.65
787.94	1304.56
788.11	1310.70
788.29	1288.17
788.46	1296.36
788.64	1175.53
788.81	1214.45
788.99	1318.89
789.16	1191.92
789.34	1239.02
789.52	1282.03
789.69	1298.41
789.87	1253.36
790.04	1206.25
790.22	1210.35
790.39	1308.65
790.57	1288.17
790.74	1261.55
790.92	1243.12
791.09	1306.60
791.27	1298.41
791.44	1265.64
791.62	1294.32
791.79	1263.60
791.97	1267.69
792.15	1296.36
792.32	1257.45
792.50	1169.39
792.67	1269.74
792.85	1257.45
793.02	1275.88
793.20	1308.65
793.37	1218.54
793.55	1228.78
793.72	1279.98
793.90	1247.21
794.07	1236.97
794.25	1331.18
794.42	1265.64
794.60	1253.36
794.77	1267.69
794.95	1279.98
795.12	1282.03
795.30	1314.80
795.47	1273.84
795.65	1359.85
795.82	1339.37
796.00	1249.26
796.17	1314.80
796.34	1271.79
796.52	1279.98
796.69	1308.65
796.87	1247.21
797.04	1406.95
797.22	1335.28
797.39	1255.40
797.57	1267.69
797.74	1267.69
797.92	1247.21
798.09	1271.79
798.27	1306.60
798.44	1263.60
798.62	1298.41
798.79	1275.88
798.96	1331.18
799.14	1228.78
799.31	1245.16
799.49	1298.41
799.66	1312.75
799.84	1288.17
800.01	1261.55
800.19	1245.16
800.36	1232.88
800.53	1339.37
800.71	1265.64
800.88	1322.99
801.06	1222.64
801.23	1271.79
801.41	1275.88
801.58	1271.79
801.75	1144.81
801.93	1275.88
802.10	1263.60
802.28	1304.56
802.45	1228.78
802.63	1241.07
802.80	1316.84
802.97	1253.36
803.15	1212.40
803.32	1292.27
803.50	1265.64
803.67	1306.60
803.84	1220.59
804.02	1282.03
804.19	1247.21
804.37	1261.55
804.54	1296.36
804.71	1282.03
804.89	1290.22
805.06	1228.78
805.24	1269.74
805.41	1255.40
805.58	1306.60
805.76	1312.75
805.93	1245.16
806.10	1245.16
806.28	1286.12
806.45	1275.88
806.63	1286.12
806.80	1312.75
806.97	1265.64
807.15	1249.26
807.32	1306.60
807.49	1228.78
807.67	1269.74
807.84	1253.36
808.01	1275.88
808.19	1232.88
808.36	1263.60
808.54	1304.56
808.71	1320.94
808.88	1218.54
809.06	1234.93
809.23	1220.59
809.40	1247.21
809.58	1218.54
809.75	1298.41
809.92	1243.12
810.10	1249.26
810.27	1296.36
810.44	1255.40
810.62	1265.64
810.79	1277.93
810.96	1316.84
811.14	1290.22
811.31	1208.30
811.48	1257.45
811.66	1314.80
811.83	1265.64
812.00	1255.40
812.18	1310.70
812.35	1226.73
812.52	1329.13
812.69	1271.79
812.87	1232.88
813.04	1255.40
813.21	1298.41
813.39	1290.22
813.56	1189.87
813.73	1310.70
813.91	1337.32
814.08	1331.18
814.25	1265.64
814.42	1239.02
814.60	1255.40
814.77	1230.83
814.94	1261.55
815.12	1284.08
815.29	1294.32
815.46	1257.45
815.63	1314.80
815.81	1312.75
815.98	1269.74
816.15	1308.65
816.33	1228.78
816.50	1284.08
816.67	1198.06
816.84	1259.50
817.02	1253.36
817.19	1271.79
817.36	1247.21
817.53	1286.12
817.71	1298.41
817.88	1259.50
818.05	1249.26
818.22	1249.26
818.40	1212.40
818.57	1206.25
818.74	1267.69
818.91	1261.55
819.09	1298.41
819.26	1241.07
819.43	1230.83
819.60	1325.04
819.78	1224.69
819.95	1253.36
820.12	1241.07
820.29	1208.30
820.47	1230.83
820.64	1255.40
820.81	1255.40
820.98	1327.08
821.15	1218.54
821.33	1306.60
821.50	1249.26
821.67	1296.36
821.84	1333.23
822.02	1230.83
822.19	1308.65
822.36	1220.59
822.53	1247.21
822.70	1257.45
822.88	1282.03
823.05	1296.36
823.22	1224.69
823.39	1224.69
823.56	1224.69
823.74	1300.46
823.91	1202.16
824.08	1193.97
824.25	1234.93
824.42	1181.68
824.60	1286.12
824.77	1167.34
824.94	1255.40
825.11	1181.68
825.28	1241.07
825.45	1200.11
825.63	1249.26
825.80	1318.89
825.97	1257.45
826.14	1247.21
826.31	1275.88
826.48	1259.50
826.66	1290.22
826.83	1273.84
827.00	1241.07
827.17	1298.41
827.34	1257.45
827.51	1312.75
827.69	1243.12
827.86	1159.15
828.03	1286.12
828.20	1320.94
828.37	1314.80
828.54	1277.93
828.71	1259.50
828.89	1277.93
829.06	1257.45
829.23	1343.47
829.40	1232.88
829.57	1206.25
829.74	1271.79
829.91	1288.17
830.09	1298.41
830.26	1288.17
830.43	1267.69
830.60	1222.64
830.77	1316.84
830.94	1228.78
831.11	1261.55
831.28	1239.02
831.46	1292.27
831.63	1259.50
831.80	1196.01
831.97	1265.64
832.14	1286.12
832.31	1337.32
832.48	1236.97
832.65	1314.80
832.82	1265.64
832.99	1275.88
833.17	1249.26
833.34	1265.64
833.51	1257.45
833.68	1304.56
833.85	1279.98
834.02	1218.54
834.19	1279.98
834.36	1259.50
834.53	1269.74
834.70	1224.69
834.87	1226.73
835.04	1314.80
835.22	1279.98
835.39	1234.93
835.56	1255.40
835.73	1320.94
835.90	1275.88
836.07	1359.85
836.24	1169.39
836.41	1220.59
836.58	1255.40
836.75	1241.07
836.92	1259.50
837.09	1230.83
837.26	1191.92
837.43	1290.22
837.60	1316.84
837.77	1304.56
837.94	1310.70
838.12	1265.64
838.29	1320.94
838.46	1302.51
838.63	1267.69
838.80	1277.93
838.97	1179.63
839.14	1282.03
839.31	1257.45
839.48	1224.69
839.65	1177.58
839.82	1298.41
839.99	1318.89
840.16	1347.56
840.33	1239.02
840.50	1318.89
840.67	1236.97
840.84	1253.36
841.01	1294.32
841.18	1232.88
841.35	1269.74
841.52	1247.21
841.69	1224.69
841.86	1304.56
842.03	1341.42
842.20	1331.18
842.37	1251.31
842.54	1265.64
842.71	1245.16
842.88	1279.98
843.05	1189.87
843.22	1271.79
843.39	1277.93
843.56	1236.97
843.73	1290.22
843.90	1339.37
844.07	1304.56
844.24	1236.97
844.41	1290.22
844.58	1316.84
844.75	1275.88
844.92	1259.50
845.09	1306.60
845.26	1263.60
845.43	1288.17
845.60	1228.78
845.77	1220.59
845.94	1290.22
846.10	1251.31
846.27	1275.88
846.44	1286.12
846.61	1271.79
846.78	1284.08
846.95	1320.94
847.12	1288.17
847.29	1255.40
847.46	1249.26
847.63	1265.64
847.80	1277.93
847.97	1261.55
848.14	1245.16
848.31	1257.45
848.48	1302.51
848.65	1273.84
848.82	1310.70
848.98	1216.49
849.15	1265.64
849.32	1234.93
849.49	1198.06
849.66	1265.64
849.83	1249.26
850.00	1273.84
850.17	1300.46
850.34	1236.97
850.51	1263.60
850.68	1322.99
850.85	1265.64
851.01	1239.02
851.18	1308.65
851.35	1273.84
851.52	1218.54
851.69	1220.59
851.86	1263.60
852.03	1265.64
852.20	1245.16
852.37	1306.60
852.53	1239.02
852.70	1286.12
852.87	1337.32
853.04	1232.88
853.21	1275.88
853.38	1318.89
853.55	1267.69
853.72	1253.36
853.89	1271.79
854.05	1292.27
854.22	1284.08
854.39	1249.26
854.56	1288.17
854.73	1290.22
854.90	1210.35
855.07	1230.83
855.23	1210.35
855.40	1245.16
855.57	1245.16
855.74	1310.70
855.91	1171.44
856.08	1271.79
856.25	1230.83
856.41	1241.07
856.58	1271.79
856.75	1279.98
856.92	1249.26
857.09	1279.98
857.26	1200.11
857.42	1251.31
857.59	1265.64
857.76	1265.64
857.93	1265.64
858.10	1216.49
858.27	1292.27
858.43	1222.64
858.60	1325.04
858.77	1234.93
858.94	1306.60
859.11	1236.97
859.27	1277.93
859.44	1294.32
859.61	1214.45
859.78	1208.30
859.95	1327.08
860.12	1257.45
860.28	1298.41
860.45	1294.32
860.62	1228.78
860.79	1288.17
860.95	1257.45
861.12	1257.45
861.29	1259.50
861.46	1325.04
861.63	1257.45
861.79	1314.80
861.96	1296.36
862.13	1290.22
862.30	1263.60
862.47	1247.21
862.63	1284.08
862.80	1247.21
862.97	1193.97
863.14	1290.22
863.30	1243.12
863.47	1322.99
863.64	1226.73
863.81	1279.98
863.97	1265.64
864.14	1306.60
864.31	1312.75
864.48	1366.00
864.65	1308.65
864.81	1243.12
864.98	1243.12
865.15	1296.36
865.32	1241.07
865.48	1243.12
865.65	1236.97
865.82	1275.88
865.98	1290.22
866.15	1218.54
866.32	1267.69
866.49	1253.36
866.65	1255.40
866.82	1263.60
866.99	1277.93
867.16	1353.71
867.32	1204.21
867.49	1279.98
867.66	1275.88
867.83	1294.32
867.99	1273.84
868.16	1230.83
868.33	1216.49
868.49	1267.69
868.66	1275.88
868.83	1327.08
868.99	1226.73
869.16	1236.97
869.33	1226.73
869.50	1243.12
869.66	1183.73
869.83	1284.08
870.00	1218.54
870.16	1239.02
870.33	1286.12
870.50	1253.36
870.66	1236.97
870.83	1327.08
871.00	1212.40
871.17	1284.08
871.33	1308.65
871.50	1255.40
871.67	1275.88
871.83	1265.64
872.00	1273.84
872.17	1296.36
872.33	1320.94
872.50	1288.17
872.67	1245.16
872.83	1284.08
873.00	1286.12
873.17	1282.03
873.33	1292.27
873.50	1343.47
873.67	1300.46
873.83	1230.83
874.00	1302.51
874.16	1239.02
874.33	1261.55
874.50	1247.21
874.66	1249.26
874.83	1232.88
875.00	1302.51
875.16	1279.98
875.33	1245.16
875.50	1294.32
875.66	1296.36
875.83	1230.83
875.99	1279.98
876.16	1306.60
876.33	1249.26
876.49	1222.64
876.66	1257.45
876.83	1314.80
876.99	1257.45
877.16	1298.41
877.32	1269.74
877.49	1257.45
877.66	1193.97
877.82	1243.12
877.99	1249.26
878.15	1282.03
878.32	1255.40
878.49	1290.22
878.65	1224.69
878.82	1308.65
878.98	1263.60
879.15	1222.64
879.32	1261.55
879.48	1218.54
879.65	1265.64
879.81	1294.32
879.98	1255.40
880.15	1325.04
880.31	1296.36
880.48	1255.40
880.64	1273.84
880.81	1212.40
880.97	1251.31
881.14	1302.51
881.31	1222.64
881.47	1284.08
881.64	1316.84
881.80	1257.45
881.97	1259.50
882.13	1329.13
882.30	1304.56
882.47	1232.88
882.63	1284.08
882.80	1300.46
882.96	1288.17
883.13	1331.18
883.29	1273.84
883.46	1214.45
883.62	1302.51
883.79	1292.27
883.95	1302.51
884.12	1261.55
884.29	1279.98
884.45	1292.27
884.62	1304.56
884.78	1271.79
884.95	1239.02
885.11	1271.79
885.28	1255.40
885.44	1259.50
885.61	1322.99
885.77	1288.17
885.94	1263.60
886.10	1304.56
886.27	1228.78
886.43	1220.59
886.60	1183.73
886.76	1347.56
886.93	1239.02
887.09	1284.08
887.26	1304.56
887.42	1263.60
887.59	1306.60
887.75	1314.80
887.92	1333.23
888.08	1290.22
888.25	1177.58
888.41	1185.77
888.58	1261.55
888.74	1320.94
888.91	1267.69
>>>>>End Processed Spectral Data<<<<<
