SpectraSuite Data File
++++++++++++++++++++++++++++++++++++
Date: Sun Apr 03 19:55:16 CEST 2016
User: root
Dark Spectrum Present: No
Reference Spectrum Present: No
Number of Sampled Component Spectra: 1
Spectrometers: USB4C02835
Integration Time (usec): 10000 (USB4C02835)
Spectra Averaged: 1 (USB4C02835)
Boxcar Smoothing: 0 (USB4C02835)
Correct for Electrical Dark: No (USB4C02835)
Strobe/Lamp Enabled: No (USB4C02835)
Correct for Detector Non-linearity: No (USB4C02835)
Correct for Stray Light: No (USB4C02835)
Number of Pixels in Processed Spectrum: 3648
>>>>>Begin Processed Spectral Data<<<<<
177.47	1208.30
177.69	1208.30
177.91	1208.30
178.13	1267.69
178.36	1312.75
178.58	1249.26
178.80	1327.08
179.02	1300.46
179.24	1191.92
179.46	1142.77
179.68	1228.78
179.90	1226.73
180.13	1310.70
180.35	1288.17
180.57	1234.93
180.79	1206.25
181.01	1351.66
181.23	1261.55
181.45	1292.27
181.67	1277.93
181.90	1267.69
182.12	1241.07
182.34	1232.88
182.56	1310.70
182.78	1282.03
183.00	1218.54
183.22	1277.93
183.44	1310.70
183.66	1296.36
183.89	1290.22
184.11	1286.12
184.33	1218.54
184.55	1322.99
184.77	1335.28
184.99	1214.45
185.21	1292.27
185.43	1273.84
185.65	1290.22
185.87	1290.22
186.10	1265.64
186.32	1259.50
186.54	1255.40
186.76	1267.69
186.98	1226.73
187.20	1218.54
187.42	1282.03
187.64	1228.78
187.86	1267.69
188.08	1335.28
188.30	1331.18
188.52	1325.04
188.75	1284.08
188.97	1288.17
189.19	1284.08
189.41	1318.89
189.63	1181.68
189.85	1271.79
190.07	1288.17
190.29	1212.40
190.51	1224.69
190.73	1255.40
190.95	1222.64
191.17	1292.27
191.39	1292.27
191.61	1269.74
191.84	1257.45
192.06	1355.76
192.28	1296.36
192.50	1232.88
192.72	1271.79
192.94	1255.40
193.16	1284.08
193.38	1271.79
193.60	1243.12
193.82	1234.93
194.04	1247.21
194.26	1247.21
194.48	1243.12
194.70	1327.08
194.92	1282.03
195.14	1296.36
195.36	1249.26
195.58	1263.60
195.80	1202.16
196.02	1302.51
196.24	1263.60
196.46	1302.51
196.69	1257.45
196.91	1224.69
197.13	1284.08
197.35	1230.83
197.57	1368.04
197.79	1275.88
198.01	1269.74
198.23	1359.85
198.45	1290.22
198.67	1165.29
198.89	1255.40
199.11	1310.70
199.33	1288.17
199.55	1228.78
199.77	1302.51
199.99	1308.65
200.21	1257.45
200.43	1241.07
200.65	1228.78
200.87	1255.40
201.09	1218.54
201.31	1230.83
201.53	1267.69
201.75	1267.69
201.97	1259.50
202.19	1286.12
202.41	1316.84
202.63	1282.03
202.85	1312.75
203.07	1279.98
203.29	1288.17
203.51	1230.83
203.73	1208.30
203.95	1331.18
204.17	1230.83
204.39	1284.08
204.61	1314.80
204.83	1206.25
205.05	1257.45
205.27	1355.76
205.49	1265.64
205.71	1257.45
205.93	1236.97
206.15	1226.73
206.37	1327.08
206.59	1290.22
206.81	1300.46
207.03	1269.74
207.25	1177.58
207.47	1236.97
207.69	1273.84
207.91	1273.84
208.13	1265.64
208.34	1271.79
208.56	1243.12
208.78	1208.30
209.00	1239.02
209.22	1243.12
209.44	1275.88
209.66	1296.36
209.88	1275.88
210.10	1265.64
210.32	1255.40
210.54	1214.45
210.76	1261.55
210.98	1243.12
211.20	1310.70
211.42	1335.28
211.64	1275.88
211.86	1288.17
212.08	1279.98
212.30	1306.60
212.52	1290.22
212.74	1239.02
212.96	1249.26
213.17	1245.16
213.39	1214.45
213.61	1296.36
213.83	1243.12
214.05	1284.08
214.27	1193.97
214.49	1318.89
214.71	1290.22
214.93	1230.83
215.15	1273.84
215.37	1265.64
215.59	1308.65
215.81	1282.03
216.03	1222.64
216.24	1300.46
216.46	1331.18
216.68	1316.84
216.90	1300.46
217.12	1294.32
217.34	1288.17
217.56	1218.54
217.78	1318.89
218.00	1282.03
218.22	1245.16
218.44	1251.31
218.66	1261.55
218.87	1284.08
219.09	1243.12
219.31	1277.93
219.53	1320.94
219.75	1294.32
219.97	1312.75
220.19	1279.98
220.41	1335.28
220.63	1300.46
220.85	1282.03
221.06	1263.60
221.28	1290.22
221.50	1222.64
221.72	1230.83
221.94	1212.40
222.16	1263.60
222.38	1341.42
222.60	1298.41
222.82	1251.31
223.03	1339.37
223.25	1232.88
223.47	1302.51
223.69	1298.41
223.91	1241.07
224.13	1241.07
224.35	1282.03
224.57	1279.98
224.78	1222.64
225.00	1290.22
225.22	1259.50
225.44	1206.25
225.66	1279.98
225.88	1232.88
226.10	1261.55
226.32	1214.45
226.53	1210.35
226.75	1273.84
226.97	1275.88
227.19	1245.16
227.41	1333.23
227.63	1253.36
227.85	1253.36
228.06	1327.08
228.28	1290.22
228.50	1298.41
228.72	1263.60
228.94	1251.31
229.16	1236.97
229.37	1345.52
229.59	1249.26
229.81	1306.60
230.03	1275.88
230.25	1298.41
230.47	1296.36
230.69	1333.23
230.90	1355.76
231.12	1275.88
231.34	1224.69
231.56	1191.92
231.78	1206.25
232.00	1286.12
232.21	1275.88
232.43	1304.56
232.65	1234.93
232.87	1316.84
233.09	1230.83
233.30	1337.32
233.52	1286.12
233.74	1294.32
233.96	1279.98
234.18	1243.12
234.40	1271.79
234.61	1320.94
234.83	1245.16
235.05	1218.54
235.27	1284.08
235.49	1284.08
235.70	1239.02
235.92	1320.94
236.14	1243.12
236.36	1249.26
236.58	1294.32
236.79	1320.94
237.01	1196.01
237.23	1282.03
237.45	1267.69
237.67	1282.03
237.88	1304.56
238.10	1294.32
238.32	1230.83
238.54	1277.93
238.76	1310.70
238.97	1198.06
239.19	1228.78
239.41	1255.40
239.63	1187.82
239.85	1249.26
240.06	1275.88
240.28	1204.21
240.50	1236.97
240.72	1265.64
240.93	1308.65
241.15	1314.80
241.37	1294.32
241.59	1279.98
241.81	1296.36
242.02	1290.22
242.24	1300.46
242.46	1300.46
242.68	1241.07
242.89	1265.64
243.11	1251.31
243.33	1282.03
243.55	1302.51
243.76	1271.79
243.98	1218.54
244.20	1286.12
244.42	1245.16
244.64	1269.74
244.85	1255.40
245.07	1230.83
245.29	1286.12
245.51	1273.84
245.72	1294.32
245.94	1269.74
246.16	1198.06
246.38	1245.16
246.59	1275.88
246.81	1316.84
247.03	1236.97
247.24	1304.56
247.46	1216.49
247.68	1314.80
247.90	1255.40
248.11	1259.50
248.33	1320.94
248.55	1282.03
248.77	1288.17
248.98	1271.79
249.20	1290.22
249.42	1247.21
249.64	1355.76
249.85	1204.21
250.07	1187.82
250.29	1249.26
250.50	1318.89
250.72	1271.79
250.94	1355.76
251.16	1296.36
251.37	1341.42
251.59	1331.18
251.81	1271.79
252.02	1329.13
252.24	1230.83
252.46	1247.21
252.68	1230.83
252.89	1290.22
253.11	1214.45
253.33	1296.36
253.54	1288.17
253.76	1249.26
253.98	1267.69
254.20	1347.56
254.41	1304.56
254.63	1271.79
254.85	1232.88
255.06	1306.60
255.28	1273.84
255.50	1261.55
255.71	1269.74
255.93	1288.17
256.15	1298.41
256.36	1200.11
256.58	1251.31
256.80	1247.21
257.02	1294.32
257.23	1216.49
257.45	1247.21
257.67	1361.90
257.88	1236.97
258.10	1292.27
258.32	1249.26
258.53	1306.60
258.75	1302.51
258.97	1263.60
259.18	1361.90
259.40	1331.18
259.62	1253.36
259.83	1218.54
260.05	1265.64
260.27	1275.88
260.48	1257.45
260.70	1230.83
260.92	1206.25
261.13	1243.12
261.35	1310.70
261.57	1261.55
261.78	1282.03
262.00	1271.79
262.22	1265.64
262.43	1294.32
262.65	1312.75
262.86	1343.47
263.08	1224.69
263.30	1255.40
263.51	1255.40
263.73	1271.79
263.95	1271.79
264.16	1277.93
264.38	1269.74
264.60	1214.45
264.81	1208.30
265.03	1224.69
265.25	1214.45
265.46	1273.84
265.68	1343.47
265.89	1247.21
266.11	1294.32
266.33	1216.49
266.54	1325.04
266.76	1228.78
266.98	1275.88
267.19	1267.69
267.41	1316.84
267.62	1206.25
267.84	1239.02
268.06	1245.16
268.27	1312.75
268.49	1218.54
268.70	1257.45
268.92	1257.45
269.14	1302.51
269.35	1212.40
269.57	1277.93
269.79	1273.84
270.00	1286.12
270.22	1263.60
270.43	1318.89
270.65	1269.74
270.87	1236.97
271.08	1214.45
271.30	1239.02
271.51	1339.37
271.73	1220.59
271.95	1257.45
272.16	1261.55
272.38	1267.69
272.59	1196.01
272.81	1271.79
273.02	1290.22
273.24	1298.41
273.46	1279.98
273.67	1259.50
273.89	1271.79
274.10	1198.06
274.32	1210.35
274.54	1368.04
274.75	1298.41
274.97	1298.41
275.18	1271.79
275.40	1288.17
275.61	1271.79
275.83	1226.73
276.05	1171.44
276.26	1298.41
276.48	1230.83
276.69	1261.55
276.91	1234.93
277.12	1247.21
277.34	1245.16
277.55	1232.88
277.77	1216.49
277.99	1267.69
278.20	1253.36
278.42	1279.98
278.63	1255.40
278.85	1333.23
279.06	1263.60
279.28	1255.40
279.49	1290.22
279.71	1146.86
279.93	1236.97
280.14	1263.60
280.36	1200.11
280.57	1304.56
280.79	1290.22
281.00	1239.02
281.22	1275.88
281.43	1286.12
281.65	1298.41
281.86	1304.56
282.08	1224.69
282.29	1353.71
282.51	1302.51
282.73	1337.32
282.94	1294.32
283.16	1359.85
283.37	1232.88
283.59	1279.98
283.80	1267.69
284.02	1282.03
284.23	1277.93
284.45	1212.40
284.66	1243.12
284.88	1273.84
285.09	1298.41
285.31	1255.40
285.52	1345.52
285.74	1255.40
285.95	1325.04
286.17	1284.08
286.38	1304.56
286.60	1179.63
286.81	1286.12
287.03	1239.02
287.24	1232.88
287.46	1269.74
287.67	1308.65
287.89	1310.70
288.10	1310.70
288.32	1259.50
288.53	1224.69
288.75	1298.41
288.96	1286.12
289.18	1196.01
289.39	1290.22
289.61	1304.56
289.82	1339.37
290.04	1288.17
290.25	1279.98
290.47	1288.17
290.68	1322.99
290.90	1271.79
291.11	1249.26
291.33	1224.69
291.54	1271.79
291.76	1290.22
291.97	1347.56
292.18	1314.80
292.40	1302.51
292.61	1259.50
292.83	1312.75
293.04	1265.64
293.26	1277.93
293.47	1187.82
293.69	1257.45
293.90	1200.11
294.12	1296.36
294.33	1234.93
294.55	1257.45
294.76	1302.51
294.97	1318.89
295.19	1265.64
295.40	1234.93
295.62	1288.17
295.83	1277.93
296.05	1249.26
296.26	1206.25
296.48	1236.97
296.69	1263.60
296.90	1292.27
297.12	1185.77
297.33	1302.51
297.55	1239.02
297.76	1294.32
297.98	1322.99
298.19	1214.45
298.41	1257.45
298.62	1236.97
298.83	1239.02
299.05	1271.79
299.26	1218.54
299.48	1198.06
299.69	1275.88
299.90	1249.26
300.12	1269.74
300.33	1222.64
300.55	1239.02
300.76	1261.55
300.98	1214.45
301.19	1335.28
301.40	1279.98
301.62	1208.30
301.83	1265.64
302.05	1269.74
302.26	1331.18
302.47	1261.55
302.69	1359.85
302.90	1234.93
303.12	1300.46
303.33	1214.45
303.54	1228.78
303.76	1296.36
303.97	1279.98
304.19	1306.60
304.40	1298.41
304.61	1314.80
304.83	1345.52
305.04	1257.45
305.26	1359.85
305.47	1294.32
305.68	1253.36
305.90	1290.22
306.11	1294.32
306.33	1183.73
306.54	1355.76
306.75	1279.98
306.97	1228.78
307.18	1222.64
307.39	1257.45
307.61	1302.51
307.82	1243.12
308.04	1331.18
308.25	1310.70
308.46	1249.26
308.68	1294.32
308.89	1261.55
309.10	1193.97
309.32	1243.12
309.53	1134.57
309.74	1298.41
309.96	1298.41
310.17	1286.12
310.39	1290.22
310.60	1269.74
310.81	1294.32
311.03	1279.98
311.24	1228.78
311.45	1216.49
311.67	1314.80
311.88	1370.09
312.09	1247.21
312.31	1247.21
312.52	1306.60
312.73	1210.35
312.95	1243.12
313.16	1249.26
313.37	1322.99
313.59	1320.94
313.80	1294.32
314.01	1282.03
314.23	1296.36
314.44	1251.31
314.65	1261.55
314.87	1189.87
315.08	1214.45
315.29	1214.45
315.51	1239.02
315.72	1312.75
315.93	1259.50
316.15	1271.79
316.36	1331.18
316.57	1277.93
316.79	1214.45
317.00	1345.52
317.21	1228.78
317.43	1241.07
317.64	1253.36
317.85	1290.22
318.07	1234.93
318.28	1279.98
318.49	1232.88
318.70	1255.40
318.92	1247.21
319.13	1216.49
319.34	1214.45
319.56	1296.36
319.77	1279.98
319.98	1279.98
320.20	1269.74
320.41	1294.32
320.62	1214.45
320.83	1267.69
321.05	1228.78
321.26	1191.92
321.47	1222.64
321.69	1247.21
321.90	1286.12
322.11	1331.18
322.32	1314.80
322.54	1345.52
322.75	1247.21
322.96	1271.79
323.18	1259.50
323.39	1200.11
323.60	1222.64
323.81	1304.56
324.03	1277.93
324.24	1263.60
324.45	1333.23
324.66	1277.93
324.88	1286.12
325.09	1282.03
325.30	1239.02
325.52	1282.03
325.73	1282.03
325.94	1312.75
326.15	1161.20
326.37	1282.03
326.58	1208.30
326.79	1206.25
327.00	1239.02
327.22	1318.89
327.43	1183.73
327.64	1239.02
327.85	1191.92
328.07	1282.03
328.28	1284.08
328.49	1269.74
328.70	1269.74
328.92	1222.64
329.13	1163.25
329.34	1279.98
329.55	1249.26
329.76	1228.78
329.98	1224.69
330.19	1269.74
330.40	1255.40
330.61	1296.36
330.83	1277.93
331.04	1279.98
331.25	1327.08
331.46	1277.93
331.68	1245.16
331.89	1245.16
332.10	1241.07
332.31	1181.68
332.52	1282.03
332.74	1275.88
332.95	1277.93
333.16	1275.88
333.37	1220.59
333.58	1193.97
333.80	1249.26
334.01	1263.60
334.22	1284.08
334.43	1288.17
334.64	1286.12
334.86	1282.03
335.07	1292.27
335.28	1247.21
335.49	1245.16
335.70	1275.88
335.92	1228.78
336.13	1241.07
336.34	1302.51
336.55	1263.60
336.76	1253.36
336.98	1318.89
337.19	1269.74
337.40	1277.93
337.61	1296.36
337.82	1249.26
338.04	1290.22
338.25	1275.88
338.46	1253.36
338.67	1185.77
338.88	1230.83
339.09	1353.71
339.31	1230.83
339.52	1304.56
339.73	1249.26
339.94	1263.60
340.15	1310.70
340.36	1292.27
340.58	1284.08
340.79	1208.30
341.00	1202.16
341.21	1234.93
341.42	1306.60
341.63	1327.08
341.85	1302.51
342.06	1288.17
342.27	1239.02
342.48	1279.98
342.69	1245.16
342.90	1212.40
343.12	1279.98
343.33	1271.79
343.54	1257.45
343.75	1302.51
343.96	1312.75
344.17	1230.83
344.38	1241.07
344.60	1277.93
344.81	1304.56
345.02	1261.55
345.23	1212.40
345.44	1325.04
345.65	1265.64
345.86	1243.12
346.07	1282.03
346.29	1290.22
346.50	1255.40
346.71	1255.40
346.92	1333.23
347.13	1282.03
347.34	1245.16
347.55	1392.62
347.76	1259.50
347.98	1294.32
348.19	1292.27
348.40	1284.08
348.61	1224.69
348.82	1314.80
349.03	1310.70
349.24	1224.69
349.45	1335.28
349.66	1216.49
349.88	1224.69
350.09	1279.98
350.30	1359.85
350.51	1271.79
350.72	1282.03
350.93	1269.74
351.14	1292.27
351.35	1329.13
351.56	1292.27
351.77	1320.94
351.99	1249.26
352.20	1230.83
352.41	1208.30
352.62	1269.74
352.83	1286.12
353.04	1245.16
353.25	1304.56
353.46	1241.07
353.67	1312.75
353.88	1269.74
354.09	1290.22
354.30	1234.93
354.52	1275.88
354.73	1222.64
354.94	1327.08
355.15	1265.64
355.36	1294.32
355.57	1234.93
355.78	1366.00
355.99	1249.26
356.20	1226.73
356.41	1249.26
356.62	1269.74
356.83	1290.22
357.04	1251.31
357.25	1306.60
357.46	1286.12
357.68	1286.12
357.89	1245.16
358.10	1300.46
358.31	1271.79
358.52	1302.51
358.73	1236.97
358.94	1288.17
359.15	1318.89
359.36	1212.40
359.57	1232.88
359.78	1296.36
359.99	1292.27
360.20	1245.16
360.41	1208.30
360.62	1171.44
360.83	1322.99
361.04	1296.36
361.25	1294.32
361.46	1267.69
361.67	1267.69
361.88	1331.18
362.09	1359.85
362.30	1312.75
362.51	1267.69
362.72	1267.69
362.93	1263.60
363.14	1265.64
363.35	1261.55
363.56	1239.02
363.78	1271.79
363.99	1312.75
364.20	1275.88
364.41	1359.85
364.62	1210.35
364.83	1271.79
365.04	1269.74
365.25	1222.64
365.46	1267.69
365.67	1271.79
365.88	1314.80
366.09	1265.64
366.30	1302.51
366.51	1345.52
366.72	1183.73
366.93	1198.06
367.14	1298.41
367.35	1271.79
367.56	1228.78
367.77	1251.31
367.98	1183.73
368.18	1292.27
368.39	1335.28
368.60	1310.70
368.81	1294.32
369.02	1277.93
369.23	1224.69
369.44	1290.22
369.65	1220.59
369.86	1259.50
370.07	1212.40
370.28	1263.60
370.49	1284.08
370.70	1292.27
370.91	1312.75
371.12	1247.21
371.33	1220.59
371.54	1308.65
371.75	1257.45
371.96	1214.45
372.17	1263.60
372.38	1273.84
372.59	1277.93
372.80	1331.18
373.01	1222.64
373.22	1265.64
373.43	1384.43
373.64	1269.74
373.85	1251.31
374.06	1255.40
374.26	1191.92
374.47	1329.13
374.68	1263.60
374.89	1265.64
375.10	1263.60
375.31	1341.42
375.52	1245.16
375.73	1275.88
375.94	1239.02
376.15	1357.80
376.36	1333.23
376.57	1314.80
376.78	1245.16
376.99	1302.51
377.20	1275.88
377.40	1218.54
377.61	1196.01
377.82	1273.84
378.03	1267.69
378.24	1265.64
378.45	1228.78
378.66	1345.52
378.87	1239.02
379.08	1247.21
379.29	1310.70
379.50	1261.55
379.71	1228.78
379.91	1331.18
380.12	1279.98
380.33	1273.84
380.54	1208.30
380.75	1288.17
380.96	1294.32
381.17	1308.65
381.38	1292.27
381.59	1259.50
381.80	1247.21
382.00	1232.88
382.21	1273.84
382.42	1241.07
382.63	1245.16
382.84	1269.74
383.05	1349.61
383.26	1286.12
383.47	1251.31
383.68	1230.83
383.88	1236.97
384.09	1230.83
384.30	1267.69
384.51	1265.64
384.72	1286.12
384.93	1286.12
385.14	1245.16
385.35	1279.98
385.55	1230.83
385.76	1241.07
385.97	1206.25
386.18	1226.73
386.39	1241.07
386.60	1308.65
386.81	1247.21
387.02	1288.17
387.22	1245.16
387.43	1230.83
387.64	1210.35
387.85	1302.51
388.06	1196.01
388.27	1208.30
388.48	1277.93
388.68	1218.54
388.89	1284.08
389.10	1277.93
389.31	1318.89
389.52	1259.50
389.73	1243.12
389.93	1241.07
390.14	1294.32
390.35	1353.71
390.56	1335.28
390.77	1239.02
390.98	1226.73
391.18	1304.56
391.39	1310.70
391.60	1302.51
391.81	1265.64
392.02	1273.84
392.23	1349.61
392.43	1265.64
392.64	1232.88
392.85	1279.98
393.06	1273.84
393.27	1265.64
393.47	1282.03
393.68	1337.32
393.89	1187.82
394.10	1251.31
394.31	1241.07
394.52	1300.46
394.72	1275.88
394.93	1341.42
395.14	1312.75
395.35	1261.55
395.56	1329.13
395.76	1257.45
395.97	1320.94
396.18	1296.36
396.39	1329.13
396.60	1271.79
396.80	1265.64
397.01	1279.98
397.22	1220.59
397.43	1290.22
397.64	1265.64
397.84	1325.04
398.05	1189.87
398.26	1304.56
398.47	1282.03
398.67	1265.64
398.88	1259.50
399.09	1236.97
399.30	1318.89
399.51	1298.41
399.71	1372.14
399.92	1325.04
400.13	1249.26
400.34	1228.78
400.54	1241.07
400.75	1193.97
400.96	1318.89
401.17	1263.60
401.37	1277.93
401.58	1284.08
401.79	1265.64
402.00	1279.98
402.21	1257.45
402.41	1247.21
402.62	1325.04
402.83	1214.45
403.04	1271.79
403.24	1275.88
403.45	1263.60
403.66	1282.03
403.87	1243.12
404.07	1257.45
404.28	1243.12
404.49	1298.41
404.70	1265.64
404.90	1230.83
405.11	1259.50
405.32	1220.59
405.52	1261.55
405.73	1271.79
405.94	1239.02
406.15	1222.64
406.35	1277.93
406.56	1290.22
406.77	1259.50
406.98	1279.98
407.18	1255.40
407.39	1296.36
407.60	1255.40
407.80	1200.11
408.01	1310.70
408.22	1341.42
408.43	1312.75
408.63	1271.79
408.84	1245.16
409.05	1322.99
409.25	1224.69
409.46	1279.98
409.67	1259.50
409.88	1267.69
410.08	1210.35
410.29	1292.27
410.50	1255.40
410.70	1273.84
410.91	1306.60
411.12	1220.59
411.32	1236.97
411.53	1312.75
411.74	1279.98
411.95	1271.79
412.15	1198.06
412.36	1308.65
412.57	1320.94
412.77	1290.22
412.98	1230.83
413.19	1220.59
413.39	1292.27
413.60	1286.12
413.81	1282.03
414.01	1296.36
414.22	1212.40
414.43	1335.28
414.63	1263.60
414.84	1298.41
415.05	1310.70
415.25	1296.36
415.46	1294.32
415.67	1288.17
415.87	1236.97
416.08	1304.56
416.29	1245.16
416.49	1294.32
416.70	1261.55
416.91	1302.51
417.11	1234.93
417.32	1271.79
417.53	1277.93
417.73	1304.56
417.94	1300.46
418.15	1243.12
418.35	1322.99
418.56	1257.45
418.77	1200.11
418.97	1232.88
419.18	1322.99
419.38	1255.40
419.59	1275.88
419.80	1253.36
420.00	1224.69
420.21	1243.12
420.42	1273.84
420.62	1302.51
420.83	1279.98
421.04	1368.04
421.24	1226.73
421.45	1228.78
421.65	1208.30
421.86	1378.28
422.07	1390.57
422.27	1265.64
422.48	1290.22
422.69	1271.79
422.89	1257.45
423.10	1220.59
423.30	1239.02
423.51	1343.47
423.72	1228.78
423.92	1255.40
424.13	1196.01
424.33	1263.60
424.54	1253.36
424.75	1304.56
424.95	1228.78
425.16	1310.70
425.36	1208.30
425.57	1282.03
425.78	1271.79
425.98	1318.89
426.19	1277.93
426.39	1286.12
426.60	1271.79
426.81	1241.07
427.01	1286.12
427.22	1232.88
427.42	1284.08
427.63	1253.36
427.83	1335.28
428.04	1304.56
428.25	1253.36
428.45	1282.03
428.66	1273.84
428.86	1288.17
429.07	1376.24
429.28	1300.46
429.48	1286.12
429.69	1245.16
429.89	1257.45
430.10	1275.88
430.30	1308.65
430.51	1318.89
430.71	1279.98
430.92	1249.26
431.13	1234.93
431.33	1294.32
431.54	1286.12
431.74	1306.60
431.95	1300.46
432.15	1257.45
432.36	1245.16
432.56	1253.36
432.77	1218.54
432.98	1275.88
433.18	1224.69
433.39	1267.69
433.59	1275.88
433.80	1286.12
434.00	1314.80
434.21	1306.60
434.41	1206.25
434.62	1294.32
434.82	1196.01
435.03	1275.88
435.23	1251.31
435.44	1247.21
435.64	1341.42
435.85	1269.74
436.06	1271.79
436.26	1265.64
436.47	1288.17
436.67	1214.45
436.88	1175.53
437.08	1312.75
437.29	1247.21
437.49	1286.12
437.70	1310.70
437.90	1310.70
438.11	1312.75
438.31	1265.64
438.52	1222.64
438.72	1320.94
438.93	1236.97
439.13	1220.59
439.34	1273.84
439.54	1282.03
439.75	1282.03
439.95	1325.04
440.16	1277.93
440.36	1241.07
440.57	1220.59
440.77	1286.12
440.98	1247.21
441.18	1298.41
441.39	1245.16
441.59	1316.84
441.80	1239.02
442.00	1277.93
442.21	1228.78
442.41	1179.63
442.62	1245.16
442.82	1273.84
443.02	1279.98
443.23	1255.40
443.43	1245.16
443.64	1329.13
443.84	1273.84
444.05	1269.74
444.25	1224.69
444.46	1216.49
444.66	1165.29
444.87	1345.52
445.07	1279.98
445.28	1314.80
445.48	1263.60
445.69	1257.45
445.89	1249.26
446.09	1253.36
446.30	1337.32
446.50	1200.11
446.71	1271.79
446.91	1302.51
447.12	1253.36
447.32	1300.46
447.53	1302.51
447.73	1239.02
447.93	1273.84
448.14	1292.27
448.34	1249.26
448.55	1263.60
448.75	1224.69
448.96	1292.27
449.16	1284.08
449.36	1265.64
449.57	1236.97
449.77	1267.69
449.98	1327.08
450.18	1312.75
450.39	1232.88
450.59	1224.69
450.79	1306.60
451.00	1222.64
451.20	1279.98
451.41	1314.80
451.61	1277.93
451.81	1308.65
452.02	1349.61
452.22	1263.60
452.43	1261.55
452.63	1292.27
452.84	1269.74
453.04	1347.56
453.24	1294.32
453.45	1241.07
453.65	1175.53
453.86	1290.22
454.06	1288.17
454.26	1265.64
454.47	1368.04
454.67	1286.12
454.87	1224.69
455.08	1232.88
455.28	1284.08
455.49	1279.98
455.69	1302.51
455.89	1320.94
456.10	1296.36
456.30	1271.79
456.51	1306.60
456.71	1224.69
456.91	1265.64
457.12	1306.60
457.32	1236.97
457.52	1273.84
457.73	1322.99
457.93	1298.41
458.14	1306.60
458.34	1255.40
458.54	1271.79
458.75	1210.35
458.95	1327.08
459.15	1226.73
459.36	1218.54
459.56	1259.50
459.76	1294.32
459.97	1290.22
460.17	1279.98
460.37	1312.75
460.58	1265.64
460.78	1290.22
460.99	1251.31
461.19	1277.93
461.39	1259.50
461.60	1277.93
461.80	1275.88
462.00	1363.95
462.21	1288.17
462.41	1286.12
462.61	1269.74
462.82	1286.12
463.02	1257.45
463.22	1376.24
463.43	1331.18
463.63	1226.73
463.83	1294.32
464.04	1353.71
464.24	1298.41
464.44	1282.03
464.64	1284.08
464.85	1249.26
465.05	1300.46
465.25	1298.41
465.46	1253.36
465.66	1306.60
465.86	1306.60
466.07	1284.08
466.27	1236.97
466.47	1298.41
466.68	1230.83
466.88	1308.65
467.08	1284.08
467.29	1327.08
467.49	1292.27
467.69	1259.50
467.89	1243.12
468.10	1267.69
468.30	1322.99
468.50	1322.99
468.71	1298.41
468.91	1279.98
469.11	1312.75
469.31	1251.31
469.52	1257.45
469.72	1292.27
469.92	1243.12
470.13	1284.08
470.33	1310.70
470.53	1304.56
470.73	1257.45
470.94	1269.74
471.14	1345.52
471.34	1257.45
471.54	1265.64
471.75	1267.69
471.95	1236.97
472.15	1290.22
472.36	1261.55
472.56	1234.93
472.76	1331.18
472.96	1312.75
473.17	1302.51
473.37	1306.60
473.57	1204.21
473.77	1269.74
473.98	1243.12
474.18	1302.51
474.38	1257.45
474.58	1226.73
474.79	1241.07
474.99	1245.16
475.19	1294.32
475.39	1335.28
475.60	1282.03
475.80	1224.69
476.00	1216.49
476.20	1224.69
476.41	1284.08
476.61	1263.60
476.81	1202.16
477.01	1277.93
477.21	1253.36
477.42	1269.74
477.62	1292.27
477.82	1279.98
478.02	1255.40
478.23	1288.17
478.43	1310.70
478.63	1290.22
478.83	1245.16
479.03	1333.23
479.24	1222.64
479.44	1279.98
479.64	1310.70
479.84	1224.69
480.04	1226.73
480.25	1269.74
480.45	1263.60
480.65	1253.36
480.85	1279.98
481.06	1290.22
481.26	1253.36
481.46	1210.35
481.66	1255.40
481.86	1232.88
482.06	1273.84
482.27	1267.69
482.47	1241.07
482.67	1212.40
482.87	1218.54
483.07	1282.03
483.28	1257.45
483.48	1275.88
483.68	1241.07
483.88	1198.06
484.08	1261.55
484.29	1241.07
484.49	1273.84
484.69	1277.93
484.89	1247.21
485.09	1298.41
485.29	1212.40
485.50	1243.12
485.70	1241.07
485.90	1275.88
486.10	1382.38
486.30	1259.50
486.50	1290.22
486.71	1288.17
486.91	1259.50
487.11	1232.88
487.31	1302.51
487.51	1306.60
487.71	1298.41
487.91	1255.40
488.12	1292.27
488.32	1265.64
488.52	1294.32
488.72	1288.17
488.92	1296.36
489.12	1290.22
489.32	1284.08
489.53	1298.41
489.73	1222.64
489.93	1277.93
490.13	1257.45
490.33	1193.97
490.53	1300.46
490.73	1271.79
490.94	1226.73
491.14	1269.74
491.34	1337.32
491.54	1239.02
491.74	1288.17
491.94	1322.99
492.14	1304.56
492.34	1273.84
492.54	1230.83
492.75	1269.74
492.95	1302.51
493.15	1312.75
493.35	1245.16
493.55	1253.36
493.75	1310.70
493.95	1331.18
494.15	1347.56
494.35	1259.50
494.56	1265.64
494.76	1257.45
494.96	1277.93
495.16	1216.49
495.36	1249.26
495.56	1282.03
495.76	1325.04
495.96	1310.70
496.16	1279.98
496.36	1296.36
496.56	1300.46
496.77	1306.60
496.97	1239.02
497.17	1239.02
497.37	1320.94
497.57	1259.50
497.77	1296.36
497.97	1181.68
498.17	1275.88
498.37	1320.94
498.57	1318.89
498.77	1245.16
498.97	1314.80
499.17	1253.36
499.38	1279.98
499.58	1273.84
499.78	1259.50
499.98	1247.21
500.18	1331.18
500.38	1269.74
500.58	1273.84
500.78	1265.64
500.98	1269.74
501.18	1267.69
501.38	1286.12
501.58	1239.02
501.78	1292.27
501.98	1271.79
502.18	1304.56
502.38	1206.25
502.58	1310.70
502.78	1306.60
502.98	1277.93
503.18	1300.46
503.38	1234.93
503.59	1308.65
503.79	1220.59
503.99	1273.84
504.19	1224.69
504.39	1255.40
504.59	1318.89
504.79	1265.64
504.99	1269.74
505.19	1325.04
505.39	1286.12
505.59	1259.50
505.79	1329.13
505.99	1304.56
506.19	1230.83
506.39	1267.69
506.59	1292.27
506.79	1222.64
506.99	1329.13
507.19	1232.88
507.39	1251.31
507.59	1298.41
507.79	1239.02
507.99	1265.64
508.19	1243.12
508.39	1275.88
508.59	1232.88
508.79	1251.31
508.99	1304.56
509.19	1271.79
509.39	1239.02
509.59	1265.64
509.79	1198.06
509.99	1253.36
510.19	1304.56
510.39	1273.84
510.59	1204.21
510.79	1236.97
510.99	1261.55
511.19	1279.98
511.39	1228.78
511.59	1247.21
511.79	1273.84
511.99	1236.97
512.19	1236.97
512.38	1269.74
512.58	1265.64
512.78	1318.89
512.98	1243.12
513.18	1296.36
513.38	1255.40
513.58	1306.60
513.78	1224.69
513.98	1249.26
514.18	1269.74
514.38	1269.74
514.58	1249.26
514.78	1245.16
514.98	1253.36
515.18	1216.49
515.38	1277.93
515.58	1296.36
515.78	1290.22
515.98	1257.45
516.18	1253.36
516.38	1290.22
516.57	1347.56
516.77	1298.41
516.97	1294.32
517.17	1257.45
517.37	1183.73
517.57	1267.69
517.77	1263.60
517.97	1314.80
518.17	1312.75
518.37	1257.45
518.57	1173.49
518.77	1279.98
518.97	1300.46
519.16	1251.31
519.36	1302.51
519.56	1249.26
519.76	1273.84
519.96	1306.60
520.16	1251.31
520.36	1261.55
520.56	1263.60
520.76	1241.07
520.96	1241.07
521.16	1318.89
521.35	1320.94
521.55	1282.03
521.75	1251.31
521.95	1292.27
522.15	1320.94
522.35	1241.07
522.55	1232.88
522.75	1273.84
522.95	1279.98
523.14	1310.70
523.34	1277.93
523.54	1310.70
523.74	1267.69
523.94	1296.36
524.14	1329.13
524.34	1251.31
524.54	1282.03
524.73	1288.17
524.93	1279.98
525.13	1294.32
525.33	1302.51
525.53	1286.12
525.73	1335.28
525.93	1286.12
526.13	1300.46
526.32	1279.98
526.52	1298.41
526.72	1302.51
526.92	1271.79
527.12	1294.32
527.32	1318.89
527.52	1224.69
527.71	1253.36
527.91	1218.54
528.11	1263.60
528.31	1312.75
528.51	1343.47
528.71	1271.79
528.90	1312.75
529.10	1226.73
529.30	1314.80
529.50	1273.84
529.70	1286.12
529.90	1331.18
530.09	1337.32
530.29	1249.26
530.49	1318.89
530.69	1304.56
530.89	1189.87
531.09	1296.36
531.28	1230.83
531.48	1288.17
531.68	1265.64
531.88	1310.70
532.08	1366.00
532.28	1298.41
532.47	1253.36
532.67	1359.85
532.87	1322.99
533.07	1333.23
533.27	1265.64
533.46	1249.26
533.66	1251.31
533.86	1327.08
534.06	1296.36
534.26	1284.08
534.45	1261.55
534.65	1232.88
534.85	1288.17
535.05	1361.90
535.25	1284.08
535.44	1310.70
535.64	1286.12
535.84	1267.69
536.04	1277.93
536.24	1304.56
536.43	1259.50
536.63	1294.32
536.83	1380.33
537.03	1372.14
537.22	1296.36
537.42	1318.89
537.62	1282.03
537.82	1302.51
538.02	1286.12
538.21	1302.51
538.41	1290.22
538.61	1322.99
538.81	1239.02
539.00	1343.47
539.20	1202.16
539.40	1288.17
539.60	1308.65
539.79	1251.31
539.99	1282.03
540.19	1286.12
540.39	1335.28
540.58	1286.12
540.78	1267.69
540.98	1292.27
541.18	1277.93
541.37	1220.59
541.57	1366.00
541.77	1269.74
541.97	1275.88
542.16	1339.37
542.36	1322.99
542.56	1306.60
542.76	1316.84
542.95	1253.36
543.15	1347.56
543.35	1253.36
543.54	1212.40
543.74	1294.32
543.94	1255.40
544.14	1318.89
544.33	1302.51
544.53	1232.88
544.73	1243.12
544.93	1396.71
545.12	1275.88
545.32	1318.89
545.52	1288.17
545.71	1224.69
545.91	1269.74
546.11	1234.93
546.30	1230.83
546.50	1243.12
546.70	1308.65
546.90	1314.80
547.09	1298.41
547.29	1339.37
547.49	1249.26
547.68	1306.60
547.88	1257.45
548.08	1296.36
548.27	1275.88
548.47	1251.31
548.67	1318.89
548.87	1259.50
549.06	1253.36
549.26	1298.41
549.46	1214.45
549.65	1271.79
549.85	1265.64
550.05	1302.51
550.24	1294.32
550.44	1337.32
550.64	1308.65
550.83	1243.12
551.03	1314.80
551.23	1257.45
551.42	1271.79
551.62	1294.32
551.82	1300.46
552.01	1169.39
552.21	1361.90
552.41	1206.25
552.60	1288.17
552.80	1306.60
553.00	1337.32
553.19	1279.98
553.39	1277.93
553.59	1296.36
553.78	1314.80
553.98	1298.41
554.17	1265.64
554.37	1234.93
554.57	1294.32
554.76	1331.18
554.96	1251.31
555.16	1306.60
555.35	1292.27
555.55	1316.84
555.75	1310.70
555.94	1265.64
556.14	1296.36
556.33	1286.12
556.53	1347.56
556.73	1241.07
556.92	1261.55
557.12	1296.36
557.32	1273.84
557.51	1302.51
557.71	1286.12
557.90	1247.21
558.10	1267.69
558.30	1314.80
558.49	1220.59
558.69	1234.93
558.88	1261.55
559.08	1243.12
559.28	1286.12
559.47	1279.98
559.67	1286.12
559.86	1296.36
560.06	1226.73
560.26	1259.50
560.45	1298.41
560.65	1355.76
560.84	1284.08
561.04	1314.80
561.24	1294.32
561.43	1306.60
561.63	1263.60
561.82	1271.79
562.02	1284.08
562.22	1243.12
562.41	1216.49
562.61	1247.21
562.80	1284.08
563.00	1279.98
563.19	1314.80
563.39	1277.93
563.59	1335.28
563.78	1310.70
563.98	1279.98
564.17	1353.71
564.37	1320.94
564.56	1257.45
564.76	1253.36
564.96	1322.99
565.15	1273.84
565.35	1247.21
565.54	1261.55
565.74	1320.94
565.93	1255.40
566.13	1308.65
566.32	1306.60
566.52	1306.60
566.71	1269.74
566.91	1279.98
567.11	1366.00
567.30	1249.26
567.50	1279.98
567.69	1257.45
567.89	1277.93
568.08	1241.07
568.28	1273.84
568.47	1347.56
568.67	1271.79
568.86	1322.99
569.06	1263.60
569.25	1232.88
569.45	1271.79
569.64	1308.65
569.84	1261.55
570.04	1288.17
570.23	1304.56
570.43	1226.73
570.62	1288.17
570.82	1333.23
571.01	1282.03
571.21	1325.04
571.40	1316.84
571.60	1308.65
571.79	1191.92
571.99	1294.32
572.18	1263.60
572.38	1196.01
572.57	1320.94
572.77	1347.56
572.96	1320.94
573.16	1247.21
573.35	1306.60
573.55	1322.99
573.74	1310.70
573.94	1210.35
574.13	1257.45
574.33	1253.36
574.52	1335.28
574.71	1241.07
574.91	1300.46
575.10	1230.83
575.30	1247.21
575.49	1275.88
575.69	1331.18
575.88	1294.32
576.08	1314.80
576.27	1306.60
576.47	1282.03
576.66	1327.08
576.86	1232.88
577.05	1241.07
577.25	1198.06
577.44	1277.93
577.64	1241.07
577.83	1249.26
578.02	1312.75
578.22	1310.70
578.41	1253.36
578.61	1212.40
578.80	1218.54
579.00	1298.41
579.19	1292.27
579.39	1257.45
579.58	1290.22
579.77	1320.94
579.97	1243.12
580.16	1275.88
580.36	1267.69
580.55	1325.04
580.75	1265.64
580.94	1241.07
581.13	1304.56
581.33	1255.40
581.52	1288.17
581.72	1247.21
581.91	1351.66
582.11	1296.36
582.30	1187.82
582.49	1245.16
582.69	1241.07
582.88	1241.07
583.08	1290.22
583.27	1265.64
583.47	1314.80
583.66	1288.17
583.85	1296.36
584.05	1363.95
584.24	1212.40
584.44	1312.75
584.63	1267.69
584.82	1220.59
585.02	1335.28
585.21	1312.75
585.41	1273.84
585.60	1255.40
585.79	1318.89
585.99	1263.60
586.18	1327.08
586.37	1347.56
586.57	1300.46
586.76	1282.03
586.96	1296.36
587.15	1265.64
587.34	1312.75
587.54	1368.04
587.73	1290.22
587.93	1312.75
588.12	1273.84
588.31	1310.70
588.51	1327.08
588.70	1325.04
588.89	1288.17
589.09	1263.60
589.28	1290.22
589.47	1322.99
589.67	1241.07
589.86	1302.51
590.06	1206.25
590.25	1232.88
590.44	1320.94
590.64	1300.46
590.83	1298.41
591.02	1312.75
591.22	1306.60
591.41	1263.60
591.60	1226.73
591.80	1296.36
591.99	1318.89
592.18	1236.97
592.38	1302.51
592.57	1292.27
592.76	1228.78
592.96	1220.59
593.15	1290.22
593.34	1331.18
593.54	1327.08
593.73	1257.45
593.92	1257.45
594.12	1294.32
594.31	1290.22
594.50	1282.03
594.70	1359.85
594.89	1271.79
595.08	1243.12
595.28	1261.55
595.47	1251.31
595.66	1296.36
595.86	1288.17
596.05	1335.28
596.24	1247.21
596.43	1306.60
596.63	1306.60
596.82	1302.51
597.01	1312.75
597.21	1267.69
597.40	1271.79
597.59	1282.03
597.79	1253.36
597.98	1183.73
598.17	1243.12
598.36	1290.22
598.56	1259.50
598.75	1298.41
598.94	1290.22
599.14	1236.97
599.33	1327.08
599.52	1255.40
599.71	1290.22
599.91	1273.84
600.10	1298.41
600.29	1306.60
600.48	1279.98
600.68	1300.46
600.87	1267.69
601.06	1335.28
601.26	1290.22
601.45	1249.26
601.64	1269.74
601.83	1275.88
602.03	1273.84
602.22	1296.36
602.41	1271.79
602.60	1279.98
602.80	1247.21
602.99	1347.56
603.18	1236.97
603.37	1251.31
603.57	1269.74
603.76	1218.54
603.95	1318.89
604.14	1271.79
604.34	1310.70
604.53	1341.42
604.72	1247.21
604.91	1257.45
605.10	1320.94
605.30	1339.37
605.49	1224.69
605.68	1318.89
605.87	1325.04
606.07	1265.64
606.26	1333.23
606.45	1316.84
606.64	1275.88
606.84	1261.55
607.03	1284.08
607.22	1314.80
607.41	1279.98
607.60	1296.36
607.80	1263.60
607.99	1370.09
608.18	1265.64
608.37	1304.56
608.56	1298.41
608.76	1314.80
608.95	1269.74
609.14	1388.52
609.33	1284.08
609.52	1296.36
609.72	1277.93
609.91	1333.23
610.10	1290.22
610.29	1212.40
610.48	1269.74
610.68	1298.41
610.87	1171.44
611.06	1355.76
611.25	1345.52
611.44	1222.64
611.63	1353.71
611.83	1255.40
612.02	1318.89
612.21	1312.75
612.40	1277.93
612.59	1259.50
612.79	1245.16
612.98	1290.22
613.17	1255.40
613.36	1284.08
613.55	1177.58
613.74	1279.98
613.93	1257.45
614.13	1271.79
614.32	1290.22
614.51	1292.27
614.70	1239.02
614.89	1279.98
615.08	1351.66
615.28	1325.04
615.47	1265.64
615.66	1310.70
615.85	1327.08
616.04	1322.99
616.23	1255.40
616.42	1236.97
616.62	1226.73
616.81	1253.36
617.00	1245.16
617.19	1306.60
617.38	1232.88
617.57	1288.17
617.76	1259.50
617.95	1277.93
618.15	1327.08
618.34	1271.79
618.53	1277.93
618.72	1296.36
618.91	1267.69
619.10	1271.79
619.29	1243.12
619.48	1390.57
619.68	1298.41
619.87	1279.98
620.06	1236.97
620.25	1304.56
620.44	1220.59
620.63	1288.17
620.82	1245.16
621.01	1279.98
621.20	1310.70
621.39	1335.28
621.59	1277.93
621.78	1251.31
621.97	1335.28
622.16	1351.66
622.35	1232.88
622.54	1294.32
622.73	1284.08
622.92	1234.93
623.11	1325.04
623.30	1271.79
623.49	1228.78
623.68	1296.36
623.88	1333.23
624.07	1310.70
624.26	1327.08
624.45	1249.26
624.64	1251.31
624.83	1314.80
625.02	1257.45
625.21	1314.80
625.40	1275.88
625.59	1302.51
625.78	1275.88
625.97	1347.56
626.16	1361.90
626.35	1302.51
626.54	1253.36
626.74	1314.80
626.93	1292.27
627.12	1345.52
627.31	1273.84
627.50	1322.99
627.69	1353.71
627.88	1320.94
628.07	1253.36
628.26	1286.12
628.45	1310.70
628.64	1312.75
628.83	1273.84
629.02	1257.45
629.21	1284.08
629.40	1372.14
629.59	1316.84
629.78	1302.51
629.97	1245.16
630.16	1302.51
630.35	1253.36
630.54	1292.27
630.73	1325.04
630.92	1345.52
631.11	1337.32
631.30	1327.08
631.49	1224.69
631.68	1320.94
631.87	1347.56
632.06	1433.58
632.25	1396.71
632.44	1460.20
632.63	1462.25
632.82	1423.34
633.01	1411.05
633.20	1417.19
633.39	1540.07
633.58	1400.81
633.77	1402.86
633.96	1558.50
634.15	1472.49
634.34	1767.40
634.53	1949.67
634.72	1722.34
634.91	1511.40
635.10	1544.17
635.29	1804.26
635.48	1994.72
635.67	2047.97
635.86	1902.56
636.05	1814.50
636.24	1617.90
636.43	1562.60
636.62	1503.21
636.81	1366.00
637.00	1458.15
637.19	1378.28
637.38	1380.33
637.57	1361.90
637.76	1284.08
637.95	1357.80
638.14	1282.03
638.33	1312.75
638.52	1261.55
638.71	1257.45
638.89	1265.64
639.08	1277.93
639.27	1275.88
639.46	1267.69
639.65	1269.74
639.84	1269.74
640.03	1234.93
640.22	1259.50
640.41	1275.88
640.60	1275.88
640.79	1302.51
640.98	1216.49
641.17	1239.02
641.36	1257.45
641.55	1247.21
641.74	1296.36
641.92	1349.61
642.11	1247.21
642.30	1236.97
642.49	1294.32
642.68	1320.94
642.87	1310.70
643.06	1279.98
643.25	1259.50
643.44	1232.88
643.63	1253.36
643.82	1265.64
644.00	1263.60
644.19	1236.97
644.38	1341.42
644.57	1269.74
644.76	1234.93
644.95	1279.98
645.14	1275.88
645.33	1269.74
645.52	1302.51
645.71	1277.93
645.89	1269.74
646.08	1284.08
646.27	1302.51
646.46	1286.12
646.65	1214.45
646.84	1339.37
647.03	1224.69
647.22	1306.60
647.40	1308.65
647.59	1337.32
647.78	1206.25
647.97	1265.64
648.16	1261.55
648.35	1284.08
648.54	1282.03
648.73	1306.60
648.91	1302.51
649.10	1296.36
649.29	1343.47
649.48	1329.13
649.67	1216.49
649.86	1302.51
650.05	1290.22
650.23	1304.56
650.42	1273.84
650.61	1312.75
650.80	1269.74
650.99	1255.40
651.18	1288.17
651.36	1259.50
651.55	1312.75
651.74	1312.75
651.93	1290.22
652.12	1312.75
652.31	1261.55
652.49	1259.50
652.68	1228.78
652.87	1353.71
653.06	1273.84
653.25	1265.64
653.44	1290.22
653.62	1349.61
653.81	1257.45
654.00	1325.04
654.19	1255.40
654.38	1355.76
654.56	1312.75
654.75	1284.08
654.94	1273.84
655.13	1253.36
655.32	1273.84
655.51	1329.13
655.69	1249.26
655.88	1294.32
656.07	1193.97
656.26	1300.46
656.45	1239.02
656.63	1304.56
656.82	1286.12
657.01	1230.83
657.20	1273.84
657.38	1279.98
657.57	1257.45
657.76	1320.94
657.95	1355.76
658.14	1322.99
658.32	1282.03
658.51	1236.97
658.70	1355.76
658.89	1345.52
659.08	1290.22
659.26	1224.69
659.45	1263.60
659.64	1298.41
659.83	1298.41
660.01	1374.19
660.20	1296.36
660.39	1232.88
660.58	1279.98
660.76	1251.31
660.95	1302.51
661.14	1230.83
661.33	1265.64
661.51	1220.59
661.70	1310.70
661.89	1226.73
662.08	1312.75
662.26	1271.79
662.45	1239.02
662.64	1318.89
662.83	1261.55
663.01	1308.65
663.20	1308.65
663.39	1296.36
663.58	1241.07
663.76	1261.55
663.95	1353.71
664.14	1249.26
664.32	1275.88
664.51	1273.84
664.70	1312.75
664.89	1306.60
665.07	1318.89
665.26	1218.54
665.45	1286.12
665.64	1279.98
665.82	1263.60
666.01	1275.88
666.20	1318.89
666.38	1271.79
666.57	1196.01
666.76	1296.36
666.95	1230.83
667.13	1232.88
667.32	1236.97
667.51	1279.98
667.69	1314.80
667.88	1308.65
668.07	1290.22
668.25	1302.51
668.44	1249.26
668.63	1380.33
668.81	1165.29
669.00	1261.55
669.19	1279.98
669.38	1306.60
669.56	1275.88
669.75	1277.93
669.94	1228.78
670.12	1232.88
670.31	1214.45
670.50	1204.21
670.68	1304.56
670.87	1253.36
671.06	1216.49
671.24	1329.13
671.43	1224.69
671.62	1212.40
671.80	1318.89
671.99	1296.36
672.18	1271.79
672.36	1236.97
672.55	1277.93
672.74	1257.45
672.92	1257.45
673.11	1269.74
673.29	1329.13
673.48	1259.50
673.67	1265.64
673.85	1275.88
674.04	1261.55
674.23	1337.32
674.41	1339.37
674.60	1228.78
674.79	1220.59
674.97	1304.56
675.16	1269.74
675.34	1241.07
675.53	1265.64
675.72	1308.65
675.90	1290.22
676.09	1208.30
676.28	1275.88
676.46	1282.03
676.65	1265.64
676.83	1298.41
677.02	1275.88
677.21	1230.83
677.39	1265.64
677.58	1265.64
677.77	1245.16
677.95	1322.99
678.14	1284.08
678.32	1269.74
678.51	1253.36
678.70	1259.50
678.88	1228.78
679.07	1279.98
679.25	1161.20
679.44	1294.32
679.63	1220.59
679.81	1261.55
680.00	1271.79
680.18	1267.69
680.37	1230.83
680.55	1247.21
680.74	1253.36
680.93	1245.16
681.11	1284.08
681.30	1300.46
681.48	1267.69
681.67	1228.78
681.85	1230.83
682.04	1230.83
682.23	1224.69
682.41	1335.28
682.60	1241.07
682.78	1255.40
682.97	1290.22
683.15	1279.98
683.34	1353.71
683.53	1275.88
683.71	1234.93
683.90	1275.88
684.08	1263.60
684.27	1275.88
684.45	1214.45
684.64	1249.26
684.82	1322.99
685.01	1282.03
685.19	1257.45
685.38	1288.17
685.57	1304.56
685.75	1222.64
685.94	1257.45
686.12	1193.97
686.31	1271.79
686.49	1316.84
686.68	1255.40
686.86	1261.55
687.05	1275.88
687.23	1265.64
687.42	1251.31
687.60	1288.17
687.79	1230.83
687.97	1267.69
688.16	1269.74
688.34	1232.88
688.53	1234.93
688.71	1320.94
688.90	1232.88
689.08	1247.21
689.27	1200.11
689.45	1261.55
689.64	1282.03
689.82	1249.26
690.01	1288.17
690.19	1249.26
690.38	1304.56
690.56	1292.27
690.75	1282.03
690.93	1239.02
691.12	1232.88
691.30	1318.89
691.49	1245.16
691.67	1314.80
691.86	1308.65
692.04	1271.79
692.23	1230.83
692.41	1259.50
692.60	1286.12
692.78	1271.79
692.97	1298.41
693.15	1298.41
693.34	1261.55
693.52	1263.60
693.71	1296.36
693.89	1298.41
694.08	1253.36
694.26	1351.66
694.44	1286.12
694.63	1310.70
694.81	1198.06
695.00	1251.31
695.18	1220.59
695.37	1318.89
695.55	1284.08
695.74	1339.37
695.92	1243.12
696.10	1282.03
696.29	1243.12
696.47	1302.51
696.66	1265.64
696.84	1290.22
697.03	1216.49
697.21	1288.17
697.40	1304.56
697.58	1329.13
697.76	1357.80
697.95	1366.00
698.13	1279.98
698.32	1267.69
698.50	1298.41
698.68	1239.02
698.87	1226.73
699.05	1279.98
699.24	1226.73
699.42	1294.32
699.61	1327.08
699.79	1290.22
699.97	1224.69
700.16	1267.69
700.34	1298.41
700.53	1200.11
700.71	1255.40
700.89	1271.79
701.08	1263.60
701.26	1282.03
701.45	1302.51
701.63	1206.25
701.81	1216.49
702.00	1269.74
702.18	1265.64
702.37	1275.88
702.55	1220.59
702.73	1279.98
702.92	1308.65
703.10	1251.31
703.28	1282.03
703.47	1247.21
703.65	1294.32
703.84	1273.84
704.02	1167.34
704.20	1308.65
704.39	1232.88
704.57	1259.50
704.75	1236.97
704.94	1290.22
705.12	1269.74
705.30	1310.70
705.49	1220.59
705.67	1224.69
705.86	1363.95
706.04	1263.60
706.22	1288.17
706.41	1304.56
706.59	1271.79
706.77	1267.69
706.96	1273.84
707.14	1226.73
707.32	1181.68
707.51	1224.69
707.69	1234.93
707.87	1191.92
708.06	1226.73
708.24	1269.74
708.42	1284.08
708.61	1257.45
708.79	1329.13
708.97	1302.51
709.16	1271.79
709.34	1245.16
709.52	1269.74
709.71	1296.36
709.89	1292.27
710.07	1265.64
710.26	1181.68
710.44	1261.55
710.62	1259.50
710.80	1331.18
710.99	1232.88
711.17	1234.93
711.35	1284.08
711.54	1245.16
711.72	1363.95
711.90	1232.88
712.09	1296.36
712.27	1273.84
712.45	1308.65
712.63	1347.56
712.82	1282.03
713.00	1196.01
713.18	1249.26
713.37	1216.49
713.55	1312.75
713.73	1282.03
713.91	1208.30
714.10	1232.88
714.28	1298.41
714.46	1292.27
714.65	1255.40
714.83	1306.60
715.01	1286.12
715.19	1347.56
715.38	1228.78
715.56	1239.02
715.74	1279.98
715.92	1269.74
716.11	1208.30
716.29	1314.80
716.47	1208.30
716.65	1296.36
716.84	1265.64
717.02	1339.37
717.20	1243.12
717.38	1353.71
717.57	1230.83
717.75	1245.16
717.93	1198.06
718.11	1265.64
718.30	1224.69
718.48	1304.56
718.66	1325.04
718.84	1253.36
719.03	1275.88
719.21	1282.03
719.39	1277.93
719.57	1296.36
719.75	1216.49
719.94	1290.22
720.12	1322.99
720.30	1282.03
720.48	1394.67
720.67	1245.16
720.85	1279.98
721.03	1200.11
721.21	1282.03
721.39	1265.64
721.58	1239.02
721.76	1265.64
721.94	1302.51
722.12	1249.26
722.30	1222.64
722.49	1333.23
722.67	1284.08
722.85	1150.96
723.03	1292.27
723.21	1300.46
723.40	1288.17
723.58	1298.41
723.76	1214.45
723.94	1298.41
724.12	1292.27
724.30	1279.98
724.49	1232.88
724.67	1257.45
724.85	1216.49
725.03	1251.31
725.21	1232.88
725.40	1218.54
725.58	1206.25
725.76	1265.64
725.94	1253.36
726.12	1271.79
726.30	1259.50
726.49	1245.16
726.67	1304.56
726.85	1353.71
727.03	1216.49
727.21	1277.93
727.39	1376.24
727.57	1222.64
727.76	1279.98
727.94	1298.41
728.12	1267.69
728.30	1214.45
728.48	1208.30
728.66	1202.16
728.84	1247.21
729.03	1249.26
729.21	1239.02
729.39	1318.89
729.57	1265.64
729.75	1335.28
729.93	1282.03
730.11	1306.60
730.30	1298.41
730.48	1232.88
730.66	1282.03
730.84	1345.52
731.02	1286.12
731.20	1288.17
731.38	1232.88
731.56	1232.88
731.74	1290.22
731.93	1314.80
732.11	1236.97
732.29	1306.60
732.47	1232.88
732.65	1236.97
732.83	1251.31
733.01	1251.31
733.19	1304.56
733.37	1288.17
733.56	1277.93
733.74	1247.21
733.92	1247.21
734.10	1271.79
734.28	1316.84
734.46	1243.12
734.64	1329.13
734.82	1251.31
735.00	1288.17
735.18	1302.51
735.36	1333.23
735.54	1294.32
735.73	1298.41
735.91	1239.02
736.09	1296.36
736.27	1273.84
736.45	1296.36
736.63	1263.60
736.81	1302.51
736.99	1243.12
737.17	1228.78
737.35	1288.17
737.53	1279.98
737.71	1277.93
737.89	1210.35
738.07	1304.56
738.25	1286.12
738.43	1300.46
738.61	1339.37
738.80	1302.51
738.98	1234.93
739.16	1284.08
739.34	1204.21
739.52	1269.74
739.70	1282.03
739.88	1247.21
740.06	1282.03
740.24	1300.46
740.42	1218.54
740.60	1251.31
740.78	1300.46
740.96	1259.50
741.14	1245.16
741.32	1294.32
741.50	1329.13
741.68	1316.84
741.86	1267.69
742.04	1175.53
742.22	1187.82
742.40	1249.26
742.58	1241.07
742.76	1247.21
742.94	1325.04
743.12	1288.17
743.30	1261.55
743.48	1241.07
743.66	1284.08
743.84	1282.03
744.02	1257.45
744.20	1263.60
744.38	1255.40
744.56	1261.55
744.74	1345.52
744.92	1296.36
745.10	1322.99
745.28	1251.31
745.46	1247.21
745.64	1263.60
745.82	1271.79
746.00	1189.87
746.18	1288.17
746.36	1304.56
746.54	1261.55
746.72	1288.17
746.90	1216.49
747.08	1277.93
747.26	1249.26
747.44	1241.07
747.62	1245.16
747.80	1232.88
747.98	1273.84
748.15	1282.03
748.33	1318.89
748.51	1263.60
748.69	1243.12
748.87	1187.82
749.05	1282.03
749.23	1357.80
749.41	1318.89
749.59	1275.88
749.77	1263.60
749.95	1275.88
750.13	1290.22
750.31	1226.73
750.49	1259.50
750.67	1255.40
750.85	1243.12
751.03	1208.30
751.20	1224.69
751.38	1236.97
751.56	1255.40
751.74	1294.32
751.92	1306.60
752.10	1333.23
752.28	1279.98
752.46	1243.12
752.64	1275.88
752.82	1310.70
753.00	1247.21
753.18	1294.32
753.35	1220.59
753.53	1261.55
753.71	1271.79
753.89	1320.94
754.07	1259.50
754.25	1249.26
754.43	1265.64
754.61	1200.11
754.79	1302.51
754.97	1232.88
755.14	1322.99
755.32	1335.28
755.50	1245.16
755.68	1298.41
755.86	1200.11
756.04	1306.60
756.22	1245.16
756.40	1296.36
756.57	1241.07
756.75	1277.93
756.93	1298.41
757.11	1245.16
757.29	1253.36
757.47	1286.12
757.65	1331.18
757.82	1304.56
758.00	1253.36
758.18	1232.88
758.36	1267.69
758.54	1257.45
758.72	1189.87
758.90	1243.12
759.07	1263.60
759.25	1300.46
759.43	1198.06
759.61	1218.54
759.79	1310.70
759.97	1259.50
760.15	1198.06
760.32	1302.51
760.50	1304.56
760.68	1263.60
760.86	1275.88
761.04	1273.84
761.22	1310.70
761.39	1284.08
761.57	1325.04
761.75	1245.16
761.93	1216.49
762.11	1279.98
762.28	1282.03
762.46	1357.80
762.64	1220.59
762.82	1265.64
763.00	1333.23
763.18	1216.49
763.35	1302.51
763.53	1241.07
763.71	1222.64
763.89	1224.69
764.07	1271.79
764.24	1329.13
764.42	1312.75
764.60	1208.30
764.78	1286.12
764.96	1253.36
765.13	1241.07
765.31	1218.54
765.49	1310.70
765.67	1282.03
765.84	1224.69
766.02	1288.17
766.20	1243.12
766.38	1304.56
766.56	1249.26
766.73	1228.78
766.91	1296.36
767.09	1214.45
767.27	1216.49
767.44	1312.75
767.62	1212.40
767.80	1220.59
767.98	1249.26
768.15	1277.93
768.33	1271.79
768.51	1263.60
768.69	1232.88
768.87	1239.02
769.04	1284.08
769.22	1327.08
769.40	1247.21
769.58	1247.21
769.75	1339.37
769.93	1212.40
770.11	1312.75
770.28	1290.22
770.46	1267.69
770.64	1257.45
770.82	1236.97
770.99	1306.60
771.17	1232.88
771.35	1322.99
771.53	1198.06
771.70	1265.64
771.88	1294.32
772.06	1271.79
772.23	1286.12
772.41	1302.51
772.59	1265.64
772.77	1279.98
772.94	1218.54
773.12	1210.35
773.30	1257.45
773.47	1263.60
773.65	1300.46
773.83	1261.55
774.01	1267.69
774.18	1255.40
774.36	1282.03
774.54	1304.56
774.71	1191.92
774.89	1234.93
775.07	1304.56
775.24	1247.21
775.42	1273.84
775.60	1273.84
775.78	1171.44
775.95	1249.26
776.13	1247.21
776.31	1267.69
776.48	1243.12
776.66	1251.31
776.84	1249.26
777.01	1214.45
777.19	1185.77
777.37	1257.45
777.54	1193.97
777.72	1320.94
777.90	1269.74
778.07	1204.21
778.25	1232.88
778.43	1288.17
778.60	1208.30
778.78	1277.93
778.96	1265.64
779.13	1329.13
779.31	1228.78
779.49	1273.84
779.66	1259.50
779.84	1304.56
780.01	1230.83
780.19	1279.98
780.37	1259.50
780.54	1347.56
780.72	1232.88
780.90	1253.36
781.07	1306.60
781.25	1288.17
781.43	1288.17
781.60	1296.36
781.78	1253.36
781.95	1296.36
782.13	1222.64
782.31	1239.02
782.48	1196.01
782.66	1312.75
782.83	1257.45
783.01	1271.79
783.19	1359.85
783.36	1249.26
783.54	1232.88
783.72	1290.22
783.89	1331.18
784.07	1290.22
784.24	1290.22
784.42	1241.07
784.60	1288.17
784.77	1308.65
784.95	1329.13
785.12	1290.22
785.30	1234.93
785.47	1249.26
785.65	1310.70
785.83	1304.56
786.00	1163.25
786.18	1269.74
786.35	1226.73
786.53	1226.73
786.71	1282.03
786.88	1257.45
787.06	1267.69
787.23	1265.64
787.41	1234.93
787.58	1271.79
787.76	1277.93
787.94	1306.60
788.11	1273.84
788.29	1275.88
788.46	1282.03
788.64	1335.28
788.81	1259.50
788.99	1302.51
789.16	1189.87
789.34	1251.31
789.52	1206.25
789.69	1322.99
789.87	1329.13
790.04	1296.36
790.22	1234.93
790.39	1234.93
790.57	1282.03
790.74	1267.69
790.92	1241.07
791.09	1261.55
791.27	1257.45
791.44	1345.52
791.62	1220.59
791.79	1226.73
791.97	1255.40
792.15	1339.37
792.32	1222.64
792.50	1314.80
792.67	1200.11
792.85	1337.32
793.02	1286.12
793.20	1255.40
793.37	1247.21
793.55	1249.26
793.72	1183.73
793.90	1306.60
794.07	1234.93
794.25	1241.07
794.42	1263.60
794.60	1300.46
794.77	1306.60
794.95	1296.36
795.12	1318.89
795.30	1226.73
795.47	1251.31
795.65	1232.88
795.82	1320.94
796.00	1208.30
796.17	1163.25
796.34	1286.12
796.52	1257.45
796.69	1249.26
796.87	1183.73
797.04	1251.31
797.22	1265.64
797.39	1224.69
797.57	1253.36
797.74	1263.60
797.92	1241.07
798.09	1216.49
798.27	1298.41
798.44	1294.32
798.62	1239.02
798.79	1269.74
798.96	1290.22
799.14	1275.88
799.31	1279.98
799.49	1198.06
799.66	1292.27
799.84	1275.88
800.01	1208.30
800.19	1267.69
800.36	1214.45
800.53	1300.46
800.71	1259.50
800.88	1239.02
801.06	1318.89
801.23	1331.18
801.41	1312.75
801.58	1282.03
801.75	1300.46
801.93	1279.98
802.10	1275.88
802.28	1304.56
802.45	1243.12
802.63	1320.94
802.80	1267.69
802.97	1236.97
803.15	1263.60
803.32	1294.32
803.50	1253.36
803.67	1282.03
803.84	1224.69
804.02	1271.79
804.19	1200.11
804.37	1206.25
804.54	1269.74
804.71	1255.40
804.89	1300.46
805.06	1316.84
805.24	1316.84
805.41	1306.60
805.58	1263.60
805.76	1271.79
805.93	1286.12
806.10	1300.46
806.28	1277.93
806.45	1284.08
806.63	1212.40
806.80	1310.70
806.97	1282.03
807.15	1288.17
807.32	1230.83
807.49	1251.31
807.67	1245.16
807.84	1224.69
808.01	1294.32
808.19	1298.41
808.36	1245.16
808.54	1249.26
808.71	1271.79
808.88	1267.69
809.06	1314.80
809.23	1224.69
809.40	1284.08
809.58	1226.73
809.75	1298.41
809.92	1218.54
810.10	1263.60
810.27	1294.32
810.44	1292.27
810.62	1263.60
810.79	1322.99
810.96	1271.79
811.14	1253.36
811.31	1261.55
811.48	1232.88
811.66	1241.07
811.83	1298.41
812.00	1312.75
812.18	1249.26
812.35	1288.17
812.52	1279.98
812.69	1198.06
812.87	1302.51
813.04	1243.12
813.21	1241.07
813.39	1314.80
813.56	1376.24
813.73	1257.45
813.91	1310.70
814.08	1347.56
814.25	1279.98
814.42	1241.07
814.60	1206.25
814.77	1296.36
814.94	1290.22
815.12	1208.30
815.29	1286.12
815.46	1226.73
815.63	1228.78
815.81	1253.36
815.98	1230.83
816.15	1349.61
816.33	1255.40
816.50	1304.56
816.67	1253.36
816.84	1302.51
817.02	1269.74
817.19	1259.50
817.36	1249.26
817.53	1282.03
817.71	1241.07
817.88	1185.77
818.05	1265.64
818.22	1255.40
818.40	1277.93
818.57	1243.12
818.74	1263.60
818.91	1296.36
819.09	1230.83
819.26	1218.54
819.43	1228.78
819.60	1247.21
819.78	1271.79
819.95	1302.51
820.12	1224.69
820.29	1230.83
820.47	1241.07
820.64	1277.93
820.81	1279.98
820.98	1239.02
821.15	1263.60
821.33	1232.88
821.50	1222.64
821.67	1259.50
821.84	1214.45
822.02	1347.56
822.19	1222.64
822.36	1271.79
822.53	1298.41
822.70	1286.12
822.88	1294.32
823.05	1222.64
823.22	1216.49
823.39	1273.84
823.56	1314.80
823.74	1277.93
823.91	1269.74
824.08	1263.60
824.25	1267.69
824.42	1306.60
824.60	1296.36
824.77	1314.80
824.94	1277.93
825.11	1290.22
825.28	1263.60
825.45	1220.59
825.63	1236.97
825.80	1273.84
825.97	1271.79
826.14	1224.69
826.31	1214.45
826.48	1275.88
826.66	1267.69
826.83	1269.74
827.00	1267.69
827.17	1363.95
827.34	1345.52
827.51	1339.37
827.69	1189.87
827.86	1271.79
828.03	1263.60
828.20	1230.83
828.37	1265.64
828.54	1259.50
828.71	1286.12
828.89	1239.02
829.06	1257.45
829.23	1304.56
829.40	1310.70
829.57	1282.03
829.74	1202.16
829.91	1257.45
830.09	1257.45
830.26	1202.16
830.43	1298.41
830.60	1263.60
830.77	1304.56
830.94	1224.69
831.11	1372.14
831.28	1304.56
831.46	1363.95
831.63	1243.12
831.80	1239.02
831.97	1322.99
832.14	1236.97
832.31	1220.59
832.48	1316.84
832.65	1243.12
832.82	1304.56
832.99	1226.73
833.17	1304.56
833.34	1312.75
833.51	1294.32
833.68	1271.79
833.85	1236.97
834.02	1216.49
834.19	1296.36
834.36	1239.02
834.53	1273.84
834.70	1312.75
834.87	1267.69
835.04	1286.12
835.22	1302.51
835.39	1245.16
835.56	1310.70
835.73	1288.17
835.90	1216.49
836.07	1277.93
836.24	1255.40
836.41	1265.64
836.58	1257.45
836.75	1308.65
836.92	1314.80
837.09	1318.89
837.26	1261.55
837.43	1333.23
837.60	1187.82
837.77	1214.45
837.94	1251.31
838.12	1294.32
838.29	1341.42
838.46	1247.21
838.63	1318.89
838.80	1241.07
838.97	1292.27
839.14	1241.07
839.31	1257.45
839.48	1263.60
839.65	1253.36
839.82	1327.08
839.99	1288.17
840.16	1218.54
840.33	1294.32
840.50	1224.69
840.67	1327.08
840.84	1239.02
841.01	1198.06
841.18	1171.44
841.35	1269.74
841.52	1290.22
841.69	1236.97
841.86	1263.60
842.03	1259.50
842.20	1306.60
842.37	1261.55
842.54	1222.64
842.71	1277.93
842.88	1282.03
843.05	1259.50
843.22	1222.64
843.39	1239.02
843.56	1318.89
843.73	1318.89
843.90	1273.84
844.07	1261.55
844.24	1269.74
844.41	1265.64
844.58	1322.99
844.75	1218.54
844.92	1290.22
845.09	1286.12
845.26	1296.36
845.43	1271.79
845.60	1277.93
845.77	1224.69
845.94	1263.60
846.10	1359.85
846.27	1337.32
846.44	1273.84
846.61	1320.94
846.78	1236.97
846.95	1239.02
847.12	1198.06
847.29	1255.40
847.46	1230.83
847.63	1290.22
847.80	1247.21
847.97	1273.84
848.14	1343.47
848.31	1257.45
848.48	1183.73
848.65	1271.79
848.82	1228.78
848.98	1265.64
849.15	1261.55
849.32	1288.17
849.49	1261.55
849.66	1312.75
849.83	1243.12
850.00	1218.54
850.17	1288.17
850.34	1282.03
850.51	1277.93
850.68	1208.30
850.85	1208.30
851.01	1232.88
851.18	1255.40
851.35	1261.55
851.52	1247.21
851.69	1275.88
851.86	1191.92
852.03	1212.40
852.20	1206.25
852.37	1239.02
852.53	1263.60
852.70	1290.22
852.87	1263.60
853.04	1275.88
853.21	1320.94
853.38	1355.76
853.55	1245.16
853.72	1298.41
853.89	1236.97
854.05	1259.50
854.22	1337.32
854.39	1306.60
854.56	1279.98
854.73	1343.47
854.90	1263.60
855.07	1284.08
855.23	1374.19
855.40	1212.40
855.57	1216.49
855.74	1292.27
855.91	1165.29
856.08	1206.25
856.25	1343.47
856.41	1253.36
856.58	1185.77
856.75	1263.60
856.92	1286.12
857.09	1294.32
857.26	1359.85
857.42	1261.55
857.59	1249.26
857.76	1234.93
857.93	1224.69
858.10	1259.50
858.27	1236.97
858.43	1265.64
858.60	1269.74
858.77	1308.65
858.94	1333.23
859.11	1273.84
859.27	1263.60
859.44	1279.98
859.61	1261.55
859.78	1236.97
859.95	1243.12
860.12	1298.41
860.28	1325.04
860.45	1249.26
860.62	1245.16
860.79	1236.97
860.95	1265.64
861.12	1282.03
861.29	1269.74
861.46	1282.03
861.63	1306.60
861.79	1257.45
861.96	1263.60
862.13	1265.64
862.30	1288.17
862.47	1325.04
862.63	1261.55
862.80	1261.55
862.97	1273.84
863.14	1241.07
863.30	1286.12
863.47	1267.69
863.64	1284.08
863.81	1361.90
863.97	1218.54
864.14	1210.35
864.31	1282.03
864.48	1363.95
864.65	1183.73
864.81	1296.36
864.98	1230.83
865.15	1314.80
865.32	1249.26
865.48	1308.65
865.65	1267.69
865.82	1294.32
865.98	1286.12
866.15	1239.02
866.32	1214.45
866.49	1273.84
866.65	1310.70
866.82	1245.16
866.99	1277.93
867.16	1288.17
867.32	1269.74
867.49	1277.93
867.66	1191.92
867.83	1253.36
867.99	1236.97
868.16	1247.21
868.33	1318.89
868.49	1279.98
868.66	1253.36
868.83	1308.65
868.99	1325.04
869.16	1232.88
869.33	1224.69
869.50	1181.68
869.66	1265.64
869.83	1261.55
870.00	1251.31
870.16	1314.80
870.33	1298.41
870.50	1310.70
870.66	1173.49
870.83	1236.97
871.00	1269.74
871.17	1296.36
871.33	1259.50
871.50	1234.93
871.67	1292.27
871.83	1193.97
872.00	1253.36
872.17	1277.93
872.33	1245.16
872.50	1294.32
872.67	1269.74
872.83	1318.89
873.00	1253.36
873.17	1279.98
873.33	1245.16
873.50	1249.26
873.67	1320.94
873.83	1329.13
874.00	1230.83
874.16	1253.36
874.33	1243.12
874.50	1228.78
874.66	1249.26
874.83	1322.99
875.00	1286.12
875.16	1234.93
875.33	1257.45
875.50	1236.97
875.66	1241.07
875.83	1261.55
875.99	1265.64
876.16	1302.51
876.33	1296.36
876.49	1314.80
876.66	1253.36
876.83	1294.32
876.99	1318.89
877.16	1275.88
877.32	1286.12
877.49	1241.07
877.66	1224.69
877.82	1292.27
877.99	1271.79
878.15	1224.69
878.32	1261.55
878.49	1214.45
878.65	1286.12
878.82	1191.92
878.98	1234.93
879.15	1243.12
879.32	1292.27
879.48	1284.08
879.65	1284.08
879.81	1259.50
879.98	1302.51
880.15	1269.74
880.31	1306.60
880.48	1286.12
880.64	1220.59
880.81	1259.50
880.97	1286.12
881.14	1279.98
881.31	1302.51
881.47	1261.55
881.64	1282.03
881.80	1249.26
881.97	1249.26
882.13	1273.84
882.30	1320.94
882.47	1314.80
882.63	1218.54
882.80	1308.65
882.96	1290.22
883.13	1325.04
883.29	1255.40
883.46	1300.46
883.62	1308.65
883.79	1220.59
883.95	1245.16
884.12	1284.08
884.29	1343.47
884.45	1220.59
884.62	1351.66
884.78	1234.93
884.95	1269.74
885.11	1273.84
885.28	1322.99
885.44	1282.03
885.61	1359.85
885.77	1320.94
885.94	1298.41
886.10	1222.64
886.27	1306.60
886.43	1263.60
886.60	1273.84
886.76	1226.73
886.93	1288.17
887.09	1279.98
887.26	1312.75
887.42	1263.60
887.59	1302.51
887.75	1247.21
887.92	1243.12
888.08	1298.41
888.25	1224.69
888.41	1249.26
888.58	1230.83
888.74	1202.16
888.91	1259.50
>>>>>End Processed Spectral Data<<<<<
