SpectraSuite Data File
++++++++++++++++++++++++++++++++++++
Date: Thu May 05 16:20:23 CEST 2016
User: root
Dark Spectrum Present: No
Reference Spectrum Present: No
Number of Sampled Component Spectra: 1
Spectrometers: USB4C02835
Integration Time (usec): 100000 (USB4C02835)
Spectra Averaged: 1 (USB4C02835)
Boxcar Smoothing: 0 (USB4C02835)
Correct for Electrical Dark: No (USB4C02835)
Strobe/Lamp Enabled: No (USB4C02835)
Correct for Detector Non-linearity: No (USB4C02835)
Correct for Stray Light: No (USB4C02835)
Number of Pixels in Processed Spectrum: 3648
>>>>>Begin Processed Spectral Data<<<<<
177.47	1996.77
177.69	1996.77
177.91	1996.77
178.13	1947.62
178.36	2043.87
178.58	2523.10
178.80	2678.74
179.02	2512.86
179.24	2514.91
179.46	2475.99
179.68	2551.77
179.90	2684.89
180.13	2719.70
180.35	2383.84
180.57	2516.95
180.79	2834.39
181.01	2664.41
181.23	2600.92
181.45	2637.78
181.67	2815.96
181.90	2865.11
182.12	2521.05
182.34	2408.41
182.56	2793.43
182.78	2772.95
183.00	2414.56
183.22	2531.29
183.44	2469.85
183.66	3188.69
183.89	2619.35
184.11	2457.56
184.33	2766.81
184.55	2881.49
184.77	2568.15
184.99	2506.71
185.21	2684.89
185.43	3010.51
185.65	2463.71
185.87	2469.85
186.10	3092.43
186.32	3022.80
186.54	2562.01
186.76	2607.06
186.98	2879.44
187.20	2680.79
187.42	2576.34
187.64	2506.71
187.86	2738.13
188.08	2957.27
188.30	2480.09
188.52	2510.81
188.75	2865.11
188.97	2914.26
189.19	2519.00
189.41	2529.24
189.63	2744.28
189.85	2693.08
190.07	2379.74
190.29	2328.54
190.51	2725.85
190.73	2547.67
190.95	2705.37
191.17	2514.91
191.39	2461.66
191.61	2666.46
191.84	2519.00
192.06	2625.50
192.28	2428.89
192.50	3237.84
192.72	2510.81
192.94	2582.49
193.16	2879.44
193.38	2731.99
193.60	2482.14
193.82	2584.54
194.04	2840.53
194.26	2748.37
194.48	2539.48
194.70	2484.19
194.92	2686.94
195.14	2805.72
195.36	2555.86
195.58	2570.20
195.80	2682.84
196.02	2615.26
196.24	2478.04
196.46	2584.54
196.69	2586.58
196.91	3041.23
197.13	2488.28
197.35	2475.99
197.57	3004.37
197.79	2799.57
198.01	2566.10
198.23	2498.52
198.45	2824.15
198.67	2578.39
198.89	2330.59
199.11	2607.06
199.33	2621.40
199.55	2435.03
199.77	2428.89
199.99	2615.26
200.21	2631.64
200.43	2824.15
200.65	2435.03
200.87	2346.97
201.09	2731.99
201.31	2648.02
201.53	2547.67
201.75	2609.11
201.97	2736.09
202.19	2645.98
202.41	2535.39
202.63	2662.36
202.85	2883.54
203.07	2727.89
203.29	2566.10
203.51	2463.71
203.73	2617.30
203.95	3063.76
204.17	2502.62
204.39	2639.83
204.61	2766.81
204.83	2729.94
205.05	2707.41
205.27	2592.73
205.49	3096.53
205.71	2635.74
205.93	2406.36
206.15	2465.75
206.37	2766.81
206.59	2686.94
206.81	2430.94
207.03	2422.75
207.25	2582.49
207.47	2785.24
207.69	2527.19
207.91	2695.13
208.13	2990.03
208.34	2572.25
208.56	2459.61
208.78	2539.48
209.00	2652.12
209.22	2725.85
209.44	2547.67
209.66	2547.67
209.88	2783.19
210.10	2707.41
210.32	2529.24
210.54	2617.30
210.76	2674.65
210.98	2822.10
211.20	2439.13
211.42	2594.78
211.64	2856.92
211.86	2777.05
212.08	2580.44
212.30	2486.23
212.52	2678.74
212.74	2772.95
212.96	2562.01
213.17	2611.16
213.39	2897.88
213.61	2883.54
213.83	2455.51
214.05	2467.80
214.27	2908.12
214.49	2547.67
214.71	2449.37
214.93	2584.54
215.15	2738.13
215.37	2854.87
215.59	2342.88
215.81	2621.40
216.03	2899.92
216.24	2668.50
216.46	2582.49
216.68	2537.43
216.90	2777.05
217.12	2885.59
217.34	2512.86
217.56	2588.63
217.78	2942.93
218.00	2799.57
218.22	2543.58
218.44	2584.54
218.66	2797.53
218.87	3004.37
219.09	2541.53
219.31	2566.10
219.53	2760.66
219.75	2633.69
219.97	2598.87
220.19	2504.67
220.41	2662.36
220.63	2987.99
220.85	2584.54
221.06	2545.63
221.28	2899.92
221.50	2813.91
221.72	2547.67
221.94	2473.95
222.16	2731.99
222.38	2797.53
222.60	2465.75
222.82	2510.81
223.03	2807.77
223.25	2541.53
223.47	2490.33
223.69	2703.32
223.91	2861.01
224.13	2791.38
224.35	2416.60
224.57	2695.13
224.78	2820.05
225.00	2600.92
225.22	2598.87
225.44	2461.66
225.66	2836.44
225.88	2641.88
226.10	2576.34
226.32	2566.10
226.53	2885.59
226.75	2680.79
226.97	2598.87
227.19	2539.48
227.41	2514.91
227.63	2658.26
227.85	2422.75
228.06	2553.82
228.28	2770.90
228.50	2936.79
228.72	2426.84
228.94	2480.09
229.16	2461.66
229.37	2533.34
229.59	2375.64
229.81	2736.09
230.03	2686.94
230.25	2533.34
230.47	2416.60
230.69	2521.05
230.90	2789.33
231.12	2576.34
231.34	2619.35
231.56	2705.37
231.78	2592.73
232.00	2768.85
232.21	2533.34
232.43	2541.53
232.65	2371.55
232.87	2799.57
233.09	2494.43
233.30	2506.71
233.52	2891.73
233.74	2652.12
233.96	2514.91
234.18	2580.44
234.40	2723.80
234.61	3022.80
234.83	2420.70
235.05	2471.90
235.27	3094.48
235.49	2904.02
235.70	2465.75
235.92	2566.10
236.14	2762.71
236.36	3067.86
236.58	2445.27
236.79	2523.10
237.01	2775.00
237.23	2727.89
237.45	2676.70
237.67	2549.72
237.88	2813.91
238.10	3035.09
238.32	2482.14
238.54	2428.89
238.76	2723.80
238.97	2584.54
239.19	2445.27
239.41	2635.74
239.63	2824.15
239.85	2635.74
240.06	2555.86
240.28	2420.70
240.50	2922.45
240.72	2691.03
240.93	2498.52
241.15	2611.16
241.37	2650.07
241.59	2803.67
241.81	2547.67
242.02	2555.86
242.24	2695.13
242.46	2840.53
242.68	2379.74
242.89	2512.86
243.11	2908.12
243.33	2674.65
243.55	2529.24
243.76	2602.97
243.98	2656.22
244.20	2748.37
244.42	2564.06
244.64	2539.48
244.85	2576.34
245.07	2584.54
245.29	2566.10
245.51	2498.52
245.72	2805.72
245.94	2863.06
246.16	2564.06
246.38	2527.19
246.59	2676.70
246.81	2625.50
247.03	2402.27
247.24	2410.46
247.46	2609.11
247.68	2756.57
247.90	2455.51
248.11	2494.43
248.33	2854.87
248.55	2670.55
248.77	2570.20
248.98	2666.46
249.20	2951.12
249.42	2820.05
249.64	2598.87
249.85	2469.85
250.07	2707.41
250.29	2838.48
250.50	2564.06
250.72	2437.08
250.94	2766.81
251.16	3059.67
251.37	2529.24
251.59	2621.40
251.81	2818.00
252.02	3020.75
252.24	2478.04
252.46	2619.35
252.68	2641.88
252.89	2682.84
253.11	2430.94
253.33	2637.78
253.54	2947.03
253.76	2625.50
253.98	2441.18
254.20	2478.04
254.41	2588.63
254.63	2592.73
254.85	2404.32
255.06	2615.26
255.28	2777.05
255.50	2617.30
255.71	2494.43
255.93	2414.56
256.15	2592.73
256.36	2746.33
256.58	2398.17
256.80	2484.19
257.02	2678.74
257.23	2605.02
257.45	2484.19
257.67	2600.92
257.88	2566.10
258.10	2871.25
258.32	2494.43
258.53	2564.06
258.75	2961.36
258.97	2639.83
259.18	2490.33
259.40	2539.48
259.62	2981.84
259.83	2951.12
260.05	2594.78
260.27	3209.17
260.48	2787.29
260.70	2525.15
260.92	2484.19
261.13	2490.33
261.35	2744.28
261.57	2791.38
261.78	2379.74
262.00	2480.09
262.22	2865.11
262.43	2566.10
262.65	2516.95
262.86	2473.95
263.08	3137.49
263.30	2721.75
263.51	2375.64
263.73	2465.75
263.95	2854.87
264.16	2602.97
264.38	2383.84
264.60	2545.63
264.81	2709.46
265.03	2822.10
265.25	2736.09
265.46	2435.03
265.68	3049.43
265.89	2867.16
266.11	2340.83
266.33	2484.19
266.54	2912.21
266.76	2826.20
266.98	2652.12
267.19	2686.94
267.41	2789.33
267.62	2695.13
267.84	2285.53
268.06	2613.21
268.27	2748.37
268.49	2912.21
268.70	2596.82
268.92	2543.58
269.14	2584.54
269.35	2555.86
269.57	2553.82
269.79	2566.10
270.00	2578.39
270.22	2979.79
270.43	2437.08
270.65	2359.26
270.87	2719.70
271.08	2807.77
271.30	2598.87
271.51	2502.62
271.73	2701.27
271.95	2867.16
272.16	2445.27
272.38	2615.26
272.59	2621.40
272.81	2813.91
273.02	2463.71
273.24	2553.82
273.46	2979.79
273.67	2469.85
273.89	2424.80
274.10	2475.99
274.32	2824.15
274.54	2654.17
274.75	2568.15
274.97	2586.58
275.18	2889.68
275.40	2815.96
275.61	2586.58
275.83	2633.69
276.05	2594.78
276.26	2656.22
276.48	2525.15
276.69	2615.26
276.91	2629.59
277.12	2924.50
277.34	2752.47
277.55	2678.74
277.77	2803.67
277.99	2670.55
278.20	2557.91
278.42	2498.52
278.63	2564.06
278.85	2541.53
279.06	2482.14
279.28	2648.02
279.49	2918.36
279.71	2863.06
279.93	2676.70
280.14	2635.74
280.36	2553.82
280.57	2820.05
280.79	2613.21
281.00	2527.19
281.22	2600.92
281.43	2899.92
281.65	2420.70
281.86	2439.13
282.08	2793.43
282.29	2971.60
282.51	2492.38
282.73	2416.60
282.94	2531.29
283.16	2766.81
283.37	2707.41
283.59	2611.16
283.80	2734.04
284.02	2637.78
284.23	2666.46
284.45	2639.83
284.66	2660.31
284.88	2588.63
285.09	2586.58
285.31	2775.00
285.52	2779.09
285.74	2512.86
285.95	2705.37
286.17	2672.60
286.38	2846.68
286.60	2643.93
286.81	2668.50
287.03	2531.29
287.24	2678.74
287.46	2711.51
287.67	2695.13
287.89	2856.92
288.10	2799.57
288.32	2713.56
288.53	2731.99
288.75	2754.52
288.96	2873.30
289.18	2695.13
289.39	2564.06
289.61	2715.61
289.82	2998.23
290.04	2973.65
290.25	2461.66
290.47	2670.55
290.68	2703.32
290.90	2826.20
291.11	2385.88
291.33	2715.61
291.54	2559.96
291.76	2650.07
291.97	2623.45
292.18	2756.57
292.40	2662.36
292.61	2686.94
292.83	2910.16
293.04	2654.17
293.26	2713.56
293.47	2752.47
293.69	2527.19
293.90	2590.68
294.12	2951.12
294.33	2674.65
294.55	2607.06
294.76	2793.43
294.97	2967.51
295.19	3035.09
295.40	2566.10
295.62	2752.47
295.83	2877.40
296.05	2557.91
296.26	2781.14
296.48	2519.00
296.69	2682.84
296.90	2652.12
297.12	2750.42
297.33	2658.26
297.55	2729.94
297.76	2818.00
297.98	2635.74
298.19	2697.17
298.41	2727.89
298.62	2576.34
298.83	2727.89
299.05	2602.97
299.26	2582.49
299.48	2605.02
299.69	2750.42
299.90	2576.34
300.12	2588.63
300.33	2760.66
300.55	2617.30
300.76	2627.54
300.98	2605.02
301.19	2861.01
301.40	2564.06
301.62	2555.86
301.83	2717.65
302.05	2824.15
302.26	2674.65
302.47	2701.27
302.69	2596.82
302.90	2766.81
303.12	2435.03
303.33	2729.94
303.54	2961.36
303.76	2734.04
303.97	2586.58
304.19	2756.57
304.40	2619.35
304.61	2793.43
304.83	2828.24
305.04	2754.52
305.26	2781.14
305.47	2697.17
305.68	2580.44
305.90	2457.56
306.11	2826.20
306.33	2729.94
306.54	2568.15
306.75	2574.30
306.97	2500.57
307.18	2492.38
307.39	2633.69
307.61	2631.64
307.82	2707.41
308.04	2807.77
308.25	2531.29
308.46	2744.28
308.68	2734.04
308.89	2734.04
309.10	2766.81
309.32	2668.50
309.53	2729.94
309.74	2797.53
309.96	2602.97
310.17	2766.81
310.39	2658.26
310.60	2791.38
310.81	2676.70
311.03	2512.86
311.24	2869.20
311.45	2723.80
311.67	2830.29
311.88	2686.94
312.09	2627.54
312.31	2545.63
312.52	2568.15
312.73	2656.22
312.95	2537.43
313.16	2574.30
313.37	2740.18
313.59	2789.33
313.80	2830.29
314.01	2977.75
314.23	2584.54
314.44	2539.48
314.65	2519.00
314.87	2625.50
315.08	2598.87
315.29	2578.39
315.51	2605.02
315.72	2500.57
315.93	2711.51
316.15	2693.08
316.36	2641.88
316.57	2748.37
316.79	2670.55
317.00	2488.28
317.21	2785.24
317.43	2629.59
317.64	2594.78
317.85	2568.15
318.07	2537.43
318.28	2709.46
318.49	2684.89
318.70	2879.44
318.92	2830.29
319.13	2729.94
319.34	2852.82
319.56	2641.88
319.77	2766.81
319.98	2842.58
320.20	2645.98
320.41	2734.04
320.62	2830.29
320.83	2596.82
321.05	2783.19
321.26	2674.65
321.47	2781.14
321.69	2867.16
321.90	2506.71
322.11	2607.06
322.32	2801.62
322.54	2957.27
322.75	2617.30
322.96	3256.27
323.18	2512.86
323.39	2482.14
323.60	2531.29
323.81	2721.75
324.03	2637.78
324.24	2703.32
324.45	2682.84
324.66	2570.20
324.88	2928.60
325.09	2932.69
325.30	2600.92
325.52	2555.86
325.73	2762.71
325.94	2545.63
326.15	2463.71
326.37	2498.52
326.58	2785.24
326.79	2934.74
327.00	2527.19
327.22	2580.44
327.43	2629.59
327.64	2658.26
327.85	2723.80
328.07	2674.65
328.28	2975.70
328.49	2607.06
328.70	2555.86
328.92	2660.31
329.13	2701.27
329.34	2775.00
329.55	2801.62
329.76	2707.41
329.98	2617.30
330.19	2930.64
330.40	2666.46
330.61	2670.55
330.83	2932.69
331.04	2578.39
331.25	2703.32
331.46	2637.78
331.68	2535.39
331.89	2820.05
332.10	2658.26
332.31	2519.00
332.52	2768.85
332.74	2916.31
332.95	2482.14
333.16	2559.96
333.37	2846.68
333.58	2705.37
333.80	2627.54
334.01	2426.84
334.22	2662.36
334.43	2641.88
334.64	2633.69
334.86	2478.04
335.07	2695.13
335.28	2899.92
335.49	2488.28
335.70	2719.70
335.92	2920.40
336.13	2955.22
336.34	2699.22
336.55	2697.17
336.76	2789.33
336.98	2432.99
337.19	2613.21
337.40	2721.75
337.61	3096.53
337.82	2830.29
338.04	2645.98
338.25	2437.08
338.46	2731.99
338.67	2686.94
338.88	2496.47
339.09	2482.14
339.31	2645.98
339.52	2568.15
339.73	2576.34
339.94	2600.92
340.15	2826.20
340.36	2744.28
340.58	2637.78
340.79	2574.30
341.00	2740.18
341.21	2576.34
341.42	2803.67
341.63	2619.35
341.85	2920.40
342.06	2693.08
342.27	2547.67
342.48	2686.94
342.69	2553.82
342.90	2809.81
343.12	2820.05
343.33	2559.96
343.54	2912.21
343.75	2924.50
343.96	2652.12
344.17	2492.38
344.38	2633.69
344.60	2598.87
344.81	2502.62
345.02	2592.73
345.23	2854.87
345.44	3076.05
345.65	2674.65
345.86	2611.16
346.07	2772.95
346.29	2672.60
346.50	2754.52
346.71	2654.17
346.92	2877.40
347.13	3016.66
347.34	2652.12
347.55	2588.63
347.76	2768.85
347.98	2453.47
348.19	2598.87
348.40	2758.61
348.61	2633.69
348.82	2883.54
349.03	2699.22
349.24	2527.19
349.45	2996.18
349.66	2408.41
349.88	2531.29
350.09	2553.82
350.30	2965.46
350.51	2942.93
350.72	2674.65
350.93	2652.12
351.14	2645.98
351.35	2764.76
351.56	2703.32
351.77	2588.63
351.99	2795.48
352.20	2901.97
352.41	2715.61
352.62	2383.84
352.83	2731.99
353.04	2721.75
353.25	2580.44
353.46	2662.36
353.67	2858.96
353.88	2500.57
354.09	2553.82
354.30	2686.94
354.52	2789.33
354.73	2752.47
354.94	2574.30
355.15	2660.31
355.36	3018.71
355.57	2641.88
355.78	2576.34
355.99	2582.49
356.20	2656.22
356.41	2928.60
356.62	2682.84
356.83	2703.32
357.04	2942.93
357.25	2453.47
357.46	2621.40
357.68	2457.56
357.89	2516.95
358.10	2713.56
358.31	2596.82
358.52	2611.16
358.73	2478.04
358.94	2588.63
359.15	2629.59
359.36	2627.54
359.57	2791.38
359.78	2731.99
359.99	2688.98
360.20	2465.75
360.41	2686.94
360.62	2727.89
360.83	2684.89
361.04	2578.39
361.25	2770.90
361.46	2990.03
361.67	2701.27
361.88	2643.93
362.09	2834.39
362.30	2695.13
362.51	2590.68
362.72	2635.74
362.93	2811.86
363.14	2787.29
363.35	2684.89
363.56	2480.09
363.78	2842.58
363.99	2861.01
364.20	2617.30
364.41	2584.54
364.62	2981.84
364.83	2846.68
365.04	2551.77
365.25	2648.02
365.46	3139.54
365.67	2570.20
365.88	2711.51
366.09	2578.39
366.30	2707.41
366.51	2713.56
366.72	2519.00
366.93	2570.20
367.14	2684.89
367.35	2930.64
367.56	2570.20
367.77	2781.14
367.98	2748.37
368.18	2764.76
368.39	2662.36
368.60	2535.39
368.81	2904.02
369.02	2809.81
369.23	2656.22
369.44	2422.75
369.65	2701.27
369.86	2760.66
370.07	2766.81
370.28	2523.10
370.49	2801.62
370.70	2840.53
370.91	2525.15
371.12	2496.47
371.33	2867.16
371.54	2697.17
371.75	2777.05
371.96	2361.31
372.17	2695.13
372.38	2688.98
372.59	2678.74
372.80	2551.77
373.01	2660.31
373.22	2752.47
373.43	2613.21
373.64	2441.18
373.85	2895.83
374.06	3000.27
374.26	2793.43
374.47	2695.13
374.68	3012.56
374.89	2717.65
375.10	2623.45
375.31	2742.23
375.52	2748.37
375.73	2711.51
375.94	2508.76
376.15	2772.95
376.36	2580.44
376.57	2660.31
376.78	2662.36
376.99	2633.69
377.20	2840.53
377.40	2695.13
377.61	2807.77
377.82	2512.86
378.03	2963.41
378.24	2756.57
378.45	2783.19
378.66	2615.26
378.87	2400.22
379.08	2521.05
379.29	2600.92
379.50	2719.70
379.71	2721.75
379.91	2838.48
380.12	2641.88
380.33	2727.89
380.54	2709.46
380.75	2693.08
380.96	2615.26
381.17	2713.56
381.38	2695.13
381.59	2682.84
381.80	2654.17
382.00	2770.90
382.21	2742.23
382.42	2877.40
382.63	2850.77
382.84	2715.61
383.05	2793.43
383.26	2938.84
383.47	2627.54
383.68	2654.17
383.88	2799.57
384.09	2693.08
384.30	2867.16
384.51	2719.70
384.72	2711.51
384.93	2527.19
385.14	2662.36
385.35	2746.33
385.55	2519.00
385.76	2877.40
385.97	2582.49
386.18	2398.17
386.39	2590.68
386.60	2613.21
386.81	2578.39
387.02	2445.27
387.22	2488.28
387.43	2832.34
387.64	2684.89
387.85	2785.24
388.06	2879.44
388.27	3968.96
388.48	7417.74
388.68	11052.89
388.89	13516.59
389.10	14485.28
389.31	13713.20
389.52	10852.19
389.73	9566.06
389.93	8595.32
390.14	7909.26
390.35	7194.51
390.56	6447.01
390.77	5312.43
390.98	4061.12
391.18	3493.83
391.39	3198.93
391.60	2754.52
391.81	2844.63
392.02	2576.34
392.23	3190.74
392.43	2838.48
392.64	2789.33
392.85	2674.65
393.06	2940.88
393.27	2740.18
393.47	2588.63
393.68	2740.18
393.89	2725.85
394.10	2856.92
394.31	2654.17
394.52	2539.48
394.72	2609.11
394.93	2965.46
395.14	2531.29
395.35	2705.37
395.56	2625.50
395.76	2623.45
395.97	2686.94
396.18	2807.77
396.39	2734.04
396.60	3291.09
396.80	2916.31
397.01	2785.24
397.22	2809.81
397.43	2856.92
397.64	2578.39
397.84	2762.71
398.05	3137.49
398.26	2721.75
398.47	2772.95
398.67	2891.73
398.88	2701.27
399.09	2865.11
399.30	2543.58
399.51	2727.89
399.71	2602.97
399.92	2762.71
400.13	2670.55
400.34	2637.78
400.54	2740.18
400.75	2904.02
400.96	2617.30
401.17	2928.60
401.37	2852.82
401.58	2770.90
401.79	2637.78
402.00	2775.00
402.21	3215.31
402.41	2906.07
402.62	3024.85
402.83	3002.32
403.04	3143.63
403.24	3393.48
403.45	2691.03
403.66	2944.98
403.87	2936.79
404.07	2961.36
404.28	2861.01
404.49	2881.49
404.70	2746.33
404.90	2818.00
405.11	2654.17
405.32	2754.52
405.52	2707.41
405.73	2613.21
405.94	2568.15
406.15	2719.70
406.35	2848.72
406.56	2818.00
406.77	2705.37
406.98	2727.89
407.18	2564.06
407.39	2944.98
407.60	2666.46
407.80	2727.89
408.01	2584.54
408.22	2783.19
408.43	2562.01
408.63	2779.09
408.84	2752.47
409.05	2875.35
409.25	2519.00
409.46	2551.77
409.67	2688.98
409.88	2570.20
410.08	2654.17
410.29	2592.73
410.50	2762.71
410.70	2756.57
410.91	2562.01
411.12	2672.60
411.32	2731.99
411.53	2562.01
411.74	2758.61
411.95	2631.64
412.15	2668.50
412.36	2850.77
412.57	2740.18
412.77	2809.81
412.98	2736.09
413.19	2635.74
413.39	2707.41
413.60	2643.93
413.81	2889.68
414.01	2650.07
414.22	2652.12
414.43	2779.09
414.63	2727.89
414.84	2822.10
415.05	2662.36
415.25	2473.95
415.46	2848.72
415.67	2613.21
415.87	2637.78
416.08	2609.11
416.29	2691.03
416.49	2895.83
416.70	2586.58
416.91	2619.35
417.11	2742.23
417.32	2850.77
417.53	2688.98
417.73	2676.70
417.94	2699.22
418.15	2772.95
418.35	2674.65
418.56	2607.06
418.77	3106.77
418.97	2756.57
419.18	2691.03
419.38	2381.79
419.59	2688.98
419.80	3004.37
420.00	2619.35
420.21	2611.16
420.42	2932.69
420.62	2822.10
420.83	2596.82
421.04	2658.26
421.24	2750.42
421.45	2854.87
421.65	2678.74
421.86	2574.30
422.07	2863.06
422.27	2834.39
422.48	2572.25
422.69	2512.86
422.89	2691.03
423.10	2695.13
423.30	2619.35
423.51	2715.61
423.72	2848.72
423.92	2791.38
424.13	2496.47
424.33	2715.61
424.54	2838.48
424.75	2699.22
424.95	2885.59
425.16	2674.65
425.36	2736.09
425.57	2916.31
425.78	2729.94
425.98	2754.52
426.19	2660.31
426.39	2545.63
426.60	2648.02
426.81	2762.71
427.01	2729.94
427.22	2506.71
427.42	2496.47
427.63	2523.10
427.83	2885.59
428.04	3012.56
428.25	2731.99
428.45	2711.51
428.66	2904.02
428.86	2721.75
429.07	2660.31
429.28	2639.83
429.48	2645.98
429.69	2598.87
429.89	2670.55
430.10	2539.48
430.30	2873.30
430.51	2947.03
430.71	2523.10
430.92	2695.13
431.13	2652.12
431.33	2785.24
431.54	2674.65
431.74	2879.44
431.95	3053.52
432.15	2613.21
432.36	2672.60
432.56	2699.22
432.77	2998.23
432.98	2953.17
433.18	2736.09
433.39	2596.82
433.59	2727.89
433.80	3006.42
434.00	2826.20
434.21	2623.45
434.41	2656.22
434.62	3014.61
434.82	2629.59
435.03	2529.24
435.23	2736.09
435.44	2490.33
435.64	2654.17
435.85	2727.89
436.06	2824.15
436.26	2932.69
436.47	2650.07
436.67	2566.10
436.88	2691.03
437.08	2871.25
437.29	2811.86
437.49	2750.42
437.70	2873.30
437.90	2707.41
438.11	2863.06
438.31	2674.65
438.52	2965.46
438.72	2883.54
438.93	2967.51
439.13	2662.36
439.34	2842.58
439.54	2717.65
439.75	2779.09
439.95	2719.70
440.16	2539.48
440.36	2807.77
440.57	2695.13
440.77	2633.69
440.98	2711.51
441.18	2752.47
441.39	2574.30
441.59	2543.58
441.80	3053.52
442.00	2691.03
442.21	2781.14
442.41	2473.95
442.62	2881.49
442.82	2551.77
443.02	2590.68
443.23	2699.22
443.43	2697.17
443.64	2850.77
443.84	2586.58
444.05	2736.09
444.25	2803.67
444.46	2688.98
444.66	2643.93
444.87	2899.92
445.07	2490.33
445.28	2662.36
445.48	2777.05
445.69	2713.56
445.89	3125.20
446.09	2680.79
446.30	2885.59
446.50	3084.24
446.71	4648.89
446.91	5541.80
447.12	6565.79
447.32	6840.22
447.53	6571.93
447.73	5529.52
447.93	4734.90
448.14	4497.34
448.34	4401.08
448.55	3868.61
448.75	3737.54
448.96	3581.90
449.16	3456.97
449.36	3299.28
449.57	2785.24
449.77	2785.24
449.98	2684.89
450.18	2797.53
450.39	2707.41
450.59	2770.90
450.79	2768.85
451.00	2580.44
451.20	2768.85
451.41	2650.07
451.61	2760.66
451.81	2731.99
452.02	2555.86
452.22	2580.44
452.43	2674.65
452.63	2539.48
452.84	2660.31
453.04	2555.86
453.24	2889.68
453.45	2643.93
453.65	2625.50
453.86	2822.10
454.06	2826.20
454.26	2770.90
454.47	2600.92
454.67	2867.16
454.87	2789.33
455.08	2641.88
455.28	2805.72
455.49	2742.23
455.69	2574.30
455.89	3080.14
456.10	2818.00
456.30	2695.13
456.51	2764.76
456.71	2846.68
456.91	2775.00
457.12	2623.45
457.32	2752.47
457.52	2568.15
457.73	2752.47
457.93	2815.96
458.14	2623.45
458.34	2482.14
458.54	2645.98
458.75	2635.74
458.95	2838.48
459.15	2736.09
459.36	2637.78
459.56	2648.02
459.76	3008.47
459.97	2746.33
460.17	2666.46
460.37	2648.02
460.58	2703.32
460.78	2861.01
460.99	2650.07
461.19	2670.55
461.39	2592.73
461.60	2672.60
461.80	2725.85
462.00	2496.47
462.21	2746.33
462.41	2637.78
462.61	2441.18
462.82	2445.27
463.02	2775.00
463.22	2686.94
463.43	2736.09
463.63	2656.22
463.83	2985.94
464.04	2783.19
464.24	2652.12
464.44	2602.97
464.64	2764.76
464.85	2766.81
465.05	2717.65
465.25	2715.61
465.46	2611.16
465.66	2791.38
465.86	2680.79
466.07	2670.55
466.27	2686.94
466.47	2570.20
466.68	2441.18
466.88	2832.34
467.08	2840.53
467.29	2807.77
467.49	2766.81
467.69	2752.47
467.89	2867.16
468.10	2727.89
468.30	2697.17
468.50	2762.71
468.71	2920.40
468.91	2512.86
469.11	2875.35
469.31	2719.70
469.52	2564.06
469.72	2987.99
469.92	2856.92
470.13	2662.36
470.33	2750.42
470.53	2758.61
470.73	2926.55
470.94	3303.37
471.14	3325.90
471.34	3772.36
471.54	3573.71
471.75	3360.72
471.95	3117.01
472.15	3119.06
472.36	3104.72
472.56	3063.76
472.76	3051.47
472.96	3055.57
473.17	2908.12
473.37	2818.00
473.57	2670.55
473.77	2754.52
473.98	2623.45
474.18	2539.48
474.38	3203.02
474.58	2621.40
474.79	2631.64
474.99	2684.89
475.19	2944.98
475.39	2488.28
475.60	2768.85
475.80	2654.17
476.00	2707.41
476.20	2672.60
476.41	2688.98
476.61	2756.57
476.81	2938.84
477.01	2699.22
477.21	2828.24
477.42	2832.34
477.62	2564.06
477.82	2936.79
478.02	2680.79
478.23	2678.74
478.43	2592.73
478.63	2658.26
478.83	2725.85
479.03	2701.27
479.24	2891.73
479.44	3069.91
479.64	2605.02
479.84	2492.38
480.04	2615.26
480.25	2914.26
480.45	2596.82
480.65	2670.55
480.85	2998.23
481.06	2746.33
481.26	2717.65
481.46	2803.67
481.66	2914.26
481.86	2637.78
482.06	2772.95
482.27	2695.13
482.47	2703.32
482.67	2748.37
482.87	2670.55
483.07	2736.09
483.28	2645.98
483.48	2656.22
483.68	2672.60
483.88	2465.75
484.08	2404.32
484.29	2668.50
484.49	2643.93
484.69	2453.47
484.89	2891.73
485.09	2854.87
485.29	2758.61
485.50	2723.80
485.70	2662.36
485.90	2901.97
486.10	2719.70
486.30	2719.70
486.50	2883.54
486.71	2813.91
486.91	2717.65
487.11	2844.63
487.31	2545.63
487.51	2838.48
487.71	2670.55
487.91	2605.02
488.12	2562.01
488.32	2439.13
488.52	2596.82
488.72	2459.61
488.92	2797.53
489.12	2832.34
489.32	2775.00
489.53	2688.98
489.73	2551.77
489.93	3008.47
490.13	2605.02
490.33	2510.81
490.53	2750.42
490.73	2924.50
490.94	2531.29
491.14	2760.66
491.34	2879.44
491.54	2961.36
491.74	3526.60
491.94	4065.22
492.14	4431.80
492.34	4595.64
492.54	4097.99
492.75	3631.05
492.95	3696.58
493.15	3456.97
493.35	3295.18
493.55	3170.26
493.75	3153.87
493.95	3252.17
494.15	2811.86
494.35	2770.90
494.56	2801.62
494.76	2650.07
494.96	2795.48
495.16	2658.26
495.36	2736.09
495.56	2729.94
495.76	2695.13
495.96	2600.92
496.16	2553.82
496.36	2961.36
496.56	2631.64
496.77	2731.99
496.97	2744.28
497.17	2932.69
497.37	2439.13
497.57	2731.99
497.77	2842.58
497.97	2592.73
498.17	2742.23
498.37	2600.92
498.57	2811.86
498.77	2660.31
498.97	2725.85
499.17	2998.23
499.38	2668.50
499.58	2807.77
499.78	2803.67
499.98	2801.62
500.18	2676.70
500.38	2623.45
500.58	2846.68
500.78	3151.82
500.98	5281.71
501.18	7233.43
501.38	8753.02
501.58	9621.36
501.78	9418.61
501.98	7763.85
502.18	6530.97
502.38	5580.71
502.58	5398.45
502.78	4814.77
502.98	4585.40
503.18	4435.90
503.38	4134.85
503.59	3581.90
503.79	3547.08
503.99	3209.17
504.19	3190.74
504.39	3110.86
504.59	3198.93
504.79	3133.39
504.99	3178.45
505.19	2998.23
505.39	2914.26
505.59	3061.71
505.79	3008.47
505.99	2760.66
506.19	2721.75
506.39	2840.53
506.59	2662.36
506.79	2713.56
506.99	2772.95
507.19	2637.78
507.39	2725.85
507.59	2553.82
507.79	2529.24
507.99	2609.11
508.19	2680.79
508.39	2668.50
508.59	2691.03
508.79	2799.57
508.99	2949.08
509.19	2619.35
509.39	2805.72
509.59	2557.91
509.79	2641.88
509.99	2799.57
510.19	2811.86
510.39	2707.41
510.59	2740.18
510.79	2637.78
510.99	2521.05
511.19	2656.22
511.39	3047.38
511.59	2832.34
511.79	2889.68
511.99	2658.26
512.19	3043.28
512.38	2740.18
512.58	2619.35
512.78	2627.54
512.98	2918.36
513.18	2979.79
513.38	2502.62
513.58	2674.65
513.78	2750.42
513.98	2709.46
514.18	2643.93
514.38	2686.94
514.58	2760.66
514.78	2705.37
514.98	2598.87
515.18	2662.36
515.38	2547.67
515.58	2957.27
515.78	2631.64
515.98	2680.79
516.18	2727.89
516.38	2701.27
516.57	2629.59
516.77	2600.92
516.97	2824.15
517.17	2658.26
517.37	2461.66
517.57	2781.14
517.77	2760.66
517.97	2617.30
518.17	2670.55
518.37	2553.82
518.57	2598.87
518.77	2713.56
518.97	2717.65
519.16	2729.94
519.36	2801.62
519.56	2615.26
519.76	2570.20
519.96	2752.47
520.16	2940.88
520.36	2559.96
520.56	2762.71
520.76	2602.97
520.96	2686.94
521.16	2854.87
521.35	2818.00
521.55	2856.92
521.75	2742.23
521.95	2713.56
522.15	2621.40
522.35	2459.61
522.55	2635.74
522.75	2803.67
522.95	2539.48
523.14	2516.95
523.34	2785.24
523.54	2676.70
523.74	2725.85
523.94	2731.99
524.14	2510.81
524.34	2725.85
524.54	2801.62
524.73	2668.50
524.93	2877.40
525.13	2736.09
525.33	2594.78
525.53	2889.68
525.73	2858.96
525.93	2736.09
526.13	2656.22
526.32	2533.34
526.52	2809.81
526.72	2885.59
526.92	2707.41
527.12	2678.74
527.32	2635.74
527.52	2762.71
527.71	2736.09
527.91	2674.65
528.11	2631.64
528.31	2746.33
528.51	2584.54
528.71	2801.62
528.90	2803.67
529.10	2910.16
529.30	2744.28
529.50	2363.36
529.70	2797.53
529.90	2709.46
530.09	2609.11
530.29	2519.00
530.49	2555.86
530.69	3162.06
530.89	2629.59
531.09	2744.28
531.28	2637.78
531.48	2908.12
531.68	2629.59
531.88	2680.79
532.08	2803.67
532.28	2709.46
532.47	2744.28
532.67	2738.13
532.87	2838.48
533.07	2584.54
533.27	2762.71
533.46	2736.09
533.66	2791.38
533.86	2768.85
534.06	2699.22
534.26	2740.18
534.45	2697.17
534.65	2842.58
534.85	2596.82
535.05	2648.02
535.25	2856.92
535.44	2508.76
535.64	2727.89
535.84	2639.83
536.04	2652.12
536.24	2701.27
536.43	2564.06
536.63	2658.26
536.83	2725.85
537.03	2688.98
537.22	2473.95
537.42	2449.37
537.62	2742.23
537.82	2623.45
538.02	2785.24
538.21	2750.42
538.41	3157.97
538.61	2803.67
538.81	2668.50
539.00	2731.99
539.20	2469.85
539.40	2670.55
539.60	2711.51
539.79	2846.68
539.99	2709.46
540.19	2668.50
540.39	2680.79
540.58	2672.60
540.78	2914.26
540.98	2723.80
541.18	2715.61
541.37	2797.53
541.57	2752.47
541.77	2744.28
541.97	2568.15
542.16	2562.01
542.36	2658.26
542.56	2682.84
542.76	2865.11
542.95	2701.27
543.15	2801.62
543.35	2809.81
543.54	2551.77
543.74	2578.39
543.94	2899.92
544.14	2660.31
544.33	2750.42
544.53	2629.59
544.73	2641.88
544.93	2719.70
545.12	2600.92
545.32	2725.85
545.52	2660.31
545.71	2613.21
545.91	2590.68
546.11	2535.39
546.30	2566.10
546.50	2736.09
546.70	2791.38
546.90	2703.32
547.09	2453.47
547.29	2680.79
547.49	2797.53
547.68	2670.55
547.88	2705.37
548.08	2926.55
548.27	3045.33
548.47	2588.63
548.67	2629.59
548.87	2818.00
549.06	2637.78
549.26	2547.67
549.46	2822.10
549.65	2584.54
549.85	2791.38
550.05	2676.70
550.24	2537.43
550.44	2783.19
550.64	2686.94
550.83	2641.88
551.03	2965.46
551.23	2850.77
551.42	2721.75
551.62	2658.26
551.82	2736.09
552.01	2668.50
552.21	2801.62
552.41	2645.98
552.60	2973.65
552.80	2742.23
553.00	2576.34
553.19	2717.65
553.39	2979.79
553.59	2516.95
553.78	2785.24
553.98	2613.21
554.17	2598.87
554.37	2727.89
554.57	2723.80
554.76	2553.82
554.96	2668.50
555.16	2766.81
555.35	2725.85
555.55	2748.37
555.75	2805.72
555.94	2889.68
556.14	2488.28
556.33	2676.70
556.53	2764.76
556.73	2703.32
556.92	2711.51
557.12	2748.37
557.32	2996.18
557.51	2949.08
557.71	2701.27
557.90	2811.86
558.10	2926.55
558.30	2684.89
558.49	2605.02
558.69	2578.39
558.88	2758.61
559.08	2775.00
559.28	2652.12
559.47	2662.36
559.67	2809.81
559.86	2998.23
560.06	2660.31
560.26	2715.61
560.45	2789.33
560.65	2654.17
560.84	2826.20
561.04	2648.02
561.24	2781.14
561.43	2631.64
561.63	2832.34
561.82	2711.51
562.02	2775.00
562.22	2590.68
562.41	2611.16
562.61	2627.54
562.80	2645.98
563.00	3043.28
563.19	2701.27
563.39	2770.90
563.59	2811.86
563.78	2584.54
563.98	2439.13
564.17	2709.46
564.37	2473.95
564.56	2703.32
564.76	2553.82
564.96	2734.04
565.15	2719.70
565.35	3104.72
565.54	2580.44
565.74	2711.51
565.93	2682.84
566.13	2754.52
566.32	2822.10
566.52	2740.18
566.71	2772.95
566.91	2811.86
567.11	2748.37
567.30	2623.45
567.50	2826.20
567.69	2742.23
567.89	2650.07
568.08	2551.77
568.28	2693.08
568.47	2592.73
568.67	2686.94
568.86	2559.96
569.06	2832.34
569.25	2621.40
569.45	2519.00
569.64	2648.02
569.84	2676.70
570.04	2781.14
570.23	2584.54
570.43	2617.30
570.62	2781.14
570.82	3010.51
571.01	2559.96
571.21	2648.02
571.40	2629.59
571.60	2881.49
571.79	2629.59
571.99	2645.98
572.18	2662.36
572.38	2781.14
572.57	2641.88
572.77	2746.33
572.96	3065.81
573.16	2766.81
573.35	2658.26
573.55	2893.78
573.74	2893.78
573.94	2711.51
574.13	2613.21
574.33	2734.04
574.52	2815.96
574.71	2707.41
574.91	2668.50
575.10	2611.16
575.30	2621.40
575.49	2527.19
575.69	2553.82
575.88	2670.55
576.08	2670.55
576.27	2887.64
576.47	2670.55
576.66	2924.50
576.86	2959.31
577.05	2756.57
577.25	2750.42
577.44	2924.50
577.64	2668.50
577.83	2850.77
578.02	2627.54
578.22	2877.40
578.41	3014.61
578.61	2715.61
578.80	2510.81
579.00	2703.32
579.19	2703.32
579.39	2815.96
579.58	2727.89
579.77	2686.94
579.97	2957.27
580.16	2938.84
580.36	2783.19
580.55	2742.23
580.75	2889.68
580.94	2803.67
581.13	2850.77
581.33	2916.31
581.52	2682.84
581.72	3024.85
581.91	2799.57
582.11	2641.88
582.30	2871.25
582.49	2768.85
582.69	2944.98
582.88	2742.23
583.08	2840.53
583.27	2889.68
583.47	2785.24
583.66	2607.06
583.85	2629.59
584.05	2686.94
584.24	2846.68
584.44	2750.42
584.63	2932.69
584.82	2953.17
585.02	2916.31
585.21	2693.08
585.41	2908.12
585.60	2840.53
585.79	2990.03
585.99	2953.17
586.18	2799.57
586.37	3571.66
586.57	5371.82
586.76	16228.10
586.96	35499.49
587.15	48766.23
587.34	57345.17
587.54	61559.89
587.73	55037.11
587.93	39099.82
588.12	29830.71
588.31	24172.18
588.51	21085.89
588.70	19517.14
588.89	17325.82
589.09	14708.51
589.28	12568.38
589.47	10024.81
589.67	7618.44
589.86	6123.43
590.06	4620.22
590.25	3952.58
590.44	3440.59
590.64	3100.62
590.83	3010.51
591.02	3059.67
591.22	2693.08
591.41	2779.09
591.60	2764.76
591.80	3100.62
591.99	2533.34
592.18	2656.22
592.38	2932.69
592.57	2656.22
592.76	2768.85
592.96	2602.97
593.15	2676.70
593.34	2906.07
593.54	2654.17
593.73	2758.61
593.92	2824.15
594.12	2840.53
594.31	2711.51
594.50	2844.63
594.70	2834.39
594.89	3192.78
595.08	2551.77
595.28	2801.62
595.47	3213.26
595.66	2858.96
595.86	2490.33
596.05	2572.25
596.24	2680.79
596.43	2969.55
596.63	2858.96
596.82	2779.09
597.01	2818.00
597.21	2973.65
597.40	2656.22
597.59	2670.55
597.79	2848.72
597.98	2875.35
598.17	2731.99
598.36	2738.13
598.56	2854.87
598.75	2721.75
598.94	2756.57
599.14	2695.13
599.33	2676.70
599.52	2895.83
599.71	2672.60
599.91	2719.70
600.10	2713.56
600.29	2768.85
600.48	2801.62
600.68	2793.43
600.87	2775.00
601.06	2668.50
601.26	2658.26
601.45	2750.42
601.64	2664.41
601.83	2916.31
602.03	2701.27
602.22	2541.53
602.41	2973.65
602.60	3114.96
602.80	2779.09
602.99	2789.33
603.18	2643.93
603.37	2738.13
603.57	2680.79
603.76	2717.65
603.95	2863.06
604.14	2639.83
604.34	2629.59
604.53	2639.83
604.72	2830.29
604.91	2861.01
605.10	2682.84
605.30	2480.09
605.49	3037.14
605.68	2797.53
605.87	2734.04
606.07	2582.49
606.26	2729.94
606.45	2705.37
606.64	2670.55
606.84	2602.97
607.03	2734.04
607.22	2875.35
607.41	2709.46
607.60	2639.83
607.80	2918.36
607.99	2686.94
608.18	2760.66
608.37	2748.37
608.56	2678.74
608.76	2848.72
608.95	2846.68
609.14	2678.74
609.33	2906.07
609.52	3010.51
609.72	2734.04
609.91	2836.44
610.10	2768.85
610.29	2887.64
610.48	2830.29
610.68	2754.52
610.87	2682.84
611.06	2834.39
611.25	2686.94
611.44	2826.20
611.63	2715.61
611.83	2922.45
612.02	2584.54
612.21	2740.18
612.40	2488.28
612.59	2641.88
612.79	2613.21
612.98	2725.85
613.17	2961.36
613.36	2740.18
613.55	2750.42
613.74	2670.55
613.93	2768.85
614.13	2846.68
614.32	2869.20
614.51	2684.89
614.70	2750.42
614.89	2678.74
615.08	2746.33
615.28	3155.92
615.47	2625.50
615.66	2871.25
615.85	2674.65
616.04	2760.66
616.23	2785.24
616.42	2725.85
616.62	2613.21
616.81	2680.79
617.00	2748.37
617.19	2748.37
617.38	2594.78
617.57	2721.75
617.76	2826.20
617.95	2834.39
618.15	2766.81
618.34	2934.74
618.53	2564.06
618.72	2844.63
618.91	2820.05
619.10	2791.38
619.29	2672.60
619.48	2793.43
619.68	2580.44
619.87	2523.10
620.06	2553.82
620.25	2783.19
620.44	2697.17
620.63	2611.16
620.82	2734.04
621.01	2748.37
621.20	2707.41
621.39	2641.88
621.59	2717.65
621.78	2674.65
621.97	2668.50
622.16	2781.14
622.35	2801.62
622.54	2904.02
622.73	2785.24
622.92	2447.32
623.11	2869.20
623.30	2666.46
623.49	2826.20
623.68	2498.52
623.88	2940.88
624.07	2715.61
624.26	2623.45
624.45	2662.36
624.64	2758.61
624.83	2779.09
625.02	2701.27
625.21	2572.25
625.40	2695.13
625.59	2922.45
625.78	2697.17
625.97	2770.90
626.16	2961.36
626.35	2846.68
626.54	2695.13
626.74	2805.72
626.93	2723.80
627.12	2693.08
627.31	2777.05
627.50	2760.66
627.69	2871.25
627.88	2494.43
628.07	2676.70
628.26	2523.10
628.45	2658.26
628.64	2584.54
628.83	2672.60
629.02	2482.14
629.21	2813.91
629.40	2750.42
629.59	2543.58
629.78	2607.06
629.97	2781.14
630.16	2781.14
630.35	2652.12
630.54	2650.07
630.73	2615.26
630.92	2701.27
631.11	2516.95
631.30	2711.51
631.49	2781.14
631.68	2723.80
631.87	2727.89
632.06	2547.67
632.25	3008.47
632.44	2713.56
632.63	2684.89
632.82	2602.97
633.01	2596.82
633.20	2707.41
633.39	2590.68
633.58	2619.35
633.77	2746.33
633.96	2779.09
634.15	2834.39
634.34	2752.47
634.53	2809.81
634.72	2660.31
634.91	2543.58
635.10	2672.60
635.29	2867.16
635.48	2711.51
635.67	2578.39
635.86	2488.28
636.05	2895.83
636.24	2744.28
636.43	2678.74
636.62	2627.54
636.81	2441.18
637.00	2738.13
637.19	2727.89
637.38	2666.46
637.57	2621.40
637.76	2729.94
637.95	2824.15
638.14	2654.17
638.33	2725.85
638.52	2731.99
638.71	2641.88
638.89	2559.96
639.08	3225.55
639.27	2861.01
639.46	2777.05
639.65	3166.16
639.84	3157.97
640.03	3280.85
640.22	3084.24
640.41	3100.62
640.60	2881.49
640.79	2953.17
640.98	2725.85
641.17	2869.20
641.36	2840.53
641.55	2916.31
641.74	2598.87
641.92	2551.77
642.11	2627.54
642.30	2711.51
642.49	2586.58
642.68	2674.65
642.87	2811.86
643.06	2777.05
643.25	2590.68
643.44	2613.21
643.63	2699.22
643.82	2787.29
644.00	2553.82
644.19	2625.50
644.38	2562.01
644.57	2781.14
644.76	2715.61
644.95	2697.17
645.14	2695.13
645.33	2660.31
645.52	2727.89
645.71	2525.15
645.89	2525.15
646.08	2766.81
646.27	2631.64
646.46	2899.92
646.65	2547.67
646.84	2670.55
647.03	2611.16
647.22	2717.65
647.40	2766.81
647.59	2637.78
647.78	2465.75
647.97	2643.93
648.16	2641.88
648.35	2967.51
648.54	2885.59
648.73	2580.44
648.91	2818.00
649.10	2789.33
649.29	2721.75
649.48	2652.12
649.67	2760.66
649.86	2785.24
650.05	2740.18
650.23	2920.40
650.42	2703.32
650.61	2904.02
650.80	2875.35
650.99	2947.03
651.18	2955.22
651.36	2899.92
651.55	2568.15
651.74	2779.09
651.93	2688.98
652.12	2656.22
652.31	2725.85
652.49	2664.41
652.68	2688.98
652.87	2918.36
653.06	2721.75
653.25	2975.70
653.44	2703.32
653.62	2918.36
653.81	2559.96
654.00	2590.68
654.19	2883.54
654.38	3028.95
654.56	2760.66
654.75	2643.93
654.94	2895.83
655.13	2701.27
655.32	2654.17
655.51	2678.74
655.69	2592.73
655.88	2813.91
656.07	2562.01
656.26	2668.50
656.45	2658.26
656.63	2791.38
656.82	2639.83
657.01	2854.87
657.20	2629.59
657.38	2889.68
657.57	2555.86
657.76	2510.81
657.95	2865.11
658.14	2629.59
658.32	2641.88
658.51	2586.58
658.70	2693.08
658.89	2734.04
659.08	2738.13
659.26	2861.01
659.45	2621.40
659.64	2760.66
659.83	2602.97
660.01	3069.91
660.20	2777.05
660.39	3041.23
660.58	2424.80
660.76	2721.75
660.95	2523.10
661.14	2742.23
661.33	2512.86
661.51	2662.36
661.70	2676.70
661.89	2803.67
662.08	2703.32
662.26	2516.95
662.45	2545.63
662.64	2998.23
662.83	2727.89
663.01	2480.09
663.20	2645.98
663.39	2887.64
663.58	2660.31
663.76	2648.02
663.95	2867.16
664.14	2654.17
664.32	2625.50
664.51	2502.62
664.70	2496.47
664.89	2824.15
665.07	2596.82
665.26	2826.20
665.45	2525.15
665.64	2789.33
665.82	2643.93
666.01	2645.98
666.20	2553.82
666.38	2887.64
666.57	2809.81
666.76	4356.03
666.95	10116.97
667.13	16985.85
667.32	21028.54
667.51	24075.92
667.69	25323.13
667.88	21706.42
668.07	15415.06
668.25	12980.03
668.44	11161.43
668.63	9498.48
668.81	8560.51
669.00	7253.91
669.19	6692.76
669.38	5785.51
669.56	4997.04
669.75	4222.91
669.94	3823.56
670.12	3194.83
670.31	2942.93
670.50	2949.08
670.68	2901.97
670.87	2729.94
671.06	2621.40
671.24	2719.70
671.43	2969.55
671.62	2715.61
671.80	2709.46
671.99	2775.00
672.18	2785.24
672.36	2869.20
672.55	2744.28
672.74	2662.36
672.92	2641.88
673.11	2785.24
673.29	2437.08
673.48	2754.52
673.67	2721.75
673.85	2897.88
674.04	2586.58
674.23	2715.61
674.41	3041.23
674.60	2547.67
674.79	2506.71
674.97	2615.26
675.16	2793.43
675.34	2838.48
675.53	2607.06
675.72	2715.61
675.90	2955.22
676.09	2688.98
676.28	2637.78
676.46	2543.58
676.65	2752.47
676.83	2590.68
677.02	2602.97
677.21	2719.70
677.39	2715.61
677.58	2580.44
677.77	2615.26
677.95	2676.70
678.14	2654.17
678.32	2682.84
678.51	2605.02
678.70	3012.56
678.88	2680.79
679.07	2701.27
679.25	2635.74
679.44	2662.36
679.63	2496.47
679.81	2795.48
680.00	2719.70
680.18	2711.51
680.37	2998.23
680.55	2645.98
680.74	2506.71
680.93	2455.51
681.11	2758.61
681.30	2693.08
681.48	2711.51
681.67	2707.41
681.85	2701.27
682.04	2596.82
682.23	2777.05
682.41	2709.46
682.60	2666.46
682.78	2686.94
682.97	2607.06
683.15	2670.55
683.34	2772.95
683.53	2906.07
683.71	2543.58
683.90	2811.86
684.08	2936.79
684.27	2666.46
684.45	2717.65
684.64	2797.53
684.82	2746.33
685.01	2826.20
685.19	2654.17
685.38	2865.11
685.57	2682.84
685.75	2602.97
685.94	2584.54
686.12	2617.30
686.31	2678.74
686.49	2906.07
686.68	2502.62
686.86	2709.46
687.05	2686.94
687.23	2959.31
687.42	2605.02
687.60	2486.23
687.79	2803.67
687.97	2979.79
688.16	2793.43
688.34	2777.05
688.53	2529.24
688.71	2813.91
688.90	2940.88
689.08	2721.75
689.27	2498.52
689.45	2854.87
689.64	2727.89
689.82	2752.47
690.01	2813.91
690.19	2789.33
690.38	2648.02
690.56	2762.71
690.75	2613.21
690.93	2711.51
691.12	2633.69
691.30	2629.59
691.49	2688.98
691.67	2717.65
691.86	2971.60
692.04	2656.22
692.23	2682.84
692.41	2707.41
692.60	3022.80
692.78	2908.12
692.97	2676.70
693.15	2752.47
693.34	2934.74
693.52	2764.76
693.71	2623.45
693.89	2635.74
694.08	2424.80
694.26	2729.94
694.44	2836.44
694.63	2875.35
694.81	2555.86
695.00	2613.21
695.18	2834.39
695.37	3178.45
695.55	2602.97
695.74	2711.51
695.92	2557.91
696.10	2881.49
696.29	2471.90
696.47	2615.26
696.66	2521.05
696.84	2557.91
697.03	2672.60
697.21	2928.60
697.40	4134.85
697.58	2807.77
697.76	2529.24
697.95	2627.54
698.13	2658.26
698.32	2623.45
698.50	2717.65
698.68	2770.90
698.87	2828.24
699.05	3002.32
699.24	2703.32
699.42	2508.76
699.61	2766.81
699.79	2695.13
699.97	2684.89
700.16	2574.30
700.34	2527.19
700.53	2711.51
700.71	2889.68
700.89	2783.19
701.08	2621.40
701.26	2717.65
701.45	3112.91
701.63	2516.95
701.81	2535.39
702.00	2699.22
702.18	2725.85
702.37	2566.10
702.55	2965.46
702.73	2883.54
702.92	2703.32
703.10	2998.23
703.28	2971.60
703.47	2590.68
703.65	2834.39
703.84	2740.18
704.02	2672.60
704.20	2920.40
704.39	2578.39
704.57	2580.44
704.75	2822.10
704.94	2768.85
705.12	2721.75
705.30	3018.71
705.49	5672.87
705.67	11867.98
705.86	17954.54
706.04	20610.76
706.22	22789.80
706.41	22570.66
706.59	18028.27
706.77	13373.24
706.96	11544.40
707.14	10465.12
707.32	8929.14
707.51	7991.17
707.69	6447.01
707.87	5195.70
708.06	4370.37
708.24	4005.83
708.42	3452.88
708.61	3428.30
708.79	2744.28
708.97	2828.24
709.16	2856.92
709.34	2770.90
709.52	2660.31
709.71	2611.16
709.89	2818.00
710.07	2586.58
710.26	2506.71
710.44	2629.59
710.62	2734.04
710.80	2746.33
710.99	2701.27
711.17	2836.44
711.35	2686.94
711.54	2584.54
711.72	2848.72
711.90	2672.60
712.09	2801.62
712.27	2629.59
712.45	2760.66
712.63	2584.54
712.82	2725.85
713.00	2697.17
713.18	2801.62
713.37	2770.90
713.55	2842.58
713.73	2789.33
713.91	2799.57
714.10	2557.91
714.28	2701.27
714.46	2818.00
714.65	2711.51
714.83	2678.74
715.01	2777.05
715.19	2815.96
715.38	2637.78
715.56	2676.70
715.74	2523.10
715.92	2607.06
716.11	2842.58
716.29	2408.41
716.47	2668.50
716.65	2715.61
716.84	2521.05
717.02	2738.13
717.20	2516.95
717.38	2676.70
717.57	2713.56
717.75	2670.55
717.93	2686.94
718.11	2852.82
718.30	2568.15
718.48	2701.27
718.66	2865.11
718.84	2883.54
719.03	2580.44
719.21	2574.30
719.39	3045.33
719.57	2848.72
719.75	2740.18
719.94	2551.77
720.12	2740.18
720.30	2772.95
720.48	2752.47
720.67	2662.36
720.85	2568.15
721.03	2625.50
721.21	2527.19
721.39	2760.66
721.58	2736.09
721.76	2717.65
721.94	2674.65
722.12	2795.48
722.30	2985.94
722.49	2736.09
722.67	2656.22
722.85	2660.31
723.03	2527.19
723.21	2658.26
723.40	2717.65
723.58	2756.57
723.76	2838.48
723.94	2951.12
724.12	2746.33
724.30	2813.91
724.49	2963.41
724.67	2701.27
724.85	2828.24
725.03	2590.68
725.21	2795.48
725.40	2967.51
725.58	2602.97
725.76	2895.83
725.94	2803.67
726.12	2582.49
726.30	2652.12
726.49	2611.16
726.67	2709.46
726.85	2811.86
727.03	3145.68
727.21	4149.18
727.39	5216.18
727.57	5734.31
727.76	6004.64
727.94	6299.55
728.12	5535.66
728.30	4603.83
728.48	4261.82
728.66	3999.68
728.84	3690.44
729.03	3430.35
729.21	3168.21
729.39	2951.12
729.57	2768.85
729.75	2719.70
729.93	2709.46
730.11	2656.22
730.30	2699.22
730.48	2691.03
730.66	2844.63
730.84	2744.28
731.02	2711.51
731.20	2617.30
731.38	2654.17
731.56	2500.57
731.74	2553.82
731.93	2742.23
732.11	2584.54
732.29	2623.45
732.47	2799.57
732.65	2758.61
732.83	2846.68
733.01	2818.00
733.19	2570.20
733.37	2785.24
733.56	2748.37
733.74	2564.06
733.92	2975.70
734.10	2658.26
734.28	2721.75
734.46	2457.56
734.64	2760.66
734.82	2658.26
735.00	2609.11
735.18	2664.41
735.36	2713.56
735.54	2734.04
735.73	2697.17
735.91	2727.89
736.09	2924.50
736.27	2635.74
736.45	2727.89
736.63	2441.18
736.81	2748.37
736.99	2918.36
737.17	2895.83
737.35	2605.02
737.53	2793.43
737.71	2676.70
737.89	2768.85
738.07	2568.15
738.25	2637.78
738.43	2490.33
738.61	2645.98
738.80	2529.24
738.98	2639.83
739.16	2641.88
739.34	2613.21
739.52	2920.40
739.70	2686.94
739.88	2752.47
740.06	2758.61
740.24	2424.80
740.42	2848.72
740.60	2463.71
740.78	2580.44
740.96	2414.56
741.14	2662.36
741.32	2695.13
741.50	2465.75
741.68	2889.68
741.86	2936.79
742.04	2506.71
742.22	2621.40
742.40	2637.78
742.58	2797.53
742.76	2596.82
742.94	2908.12
743.12	2471.90
743.30	2725.85
743.48	2744.28
743.66	2627.54
743.84	2686.94
744.02	2684.89
744.20	2676.70
744.38	2537.43
744.56	2564.06
744.74	3059.67
744.92	2756.57
745.10	2826.20
745.28	2777.05
745.46	2918.36
745.64	2709.46
745.82	2797.53
746.00	2568.15
746.18	2785.24
746.36	2619.35
746.54	2682.84
746.72	2748.37
746.90	2570.20
747.08	2863.06
747.26	2709.46
747.44	2852.82
747.62	2854.87
747.80	2713.56
747.98	2781.14
748.15	2545.63
748.33	2965.46
748.51	2648.02
748.69	2705.37
748.87	2596.82
749.05	2682.84
749.23	2682.84
749.41	2695.13
749.59	2637.78
749.77	2867.16
749.95	2631.64
750.13	2625.50
750.31	2691.03
750.49	2754.52
750.67	2830.29
750.85	2834.39
751.03	2629.59
751.20	3030.99
751.38	2643.93
751.56	2682.84
751.74	2613.21
751.92	2707.41
752.10	2555.86
752.28	2801.62
752.46	2584.54
752.64	2705.37
752.82	2707.41
753.00	2731.99
753.18	2592.73
753.35	2650.07
753.53	2744.28
753.71	2650.07
753.89	2668.50
754.07	2684.89
754.25	2883.54
754.43	2715.61
754.61	2504.67
754.79	2828.24
754.97	2693.08
755.14	2752.47
755.32	2441.18
755.50	2734.04
755.68	2701.27
755.86	2555.86
756.04	2662.36
756.22	2344.92
756.40	2799.57
756.57	2926.55
756.75	2533.34
756.93	2813.91
757.11	2899.92
757.29	2553.82
757.47	2576.34
757.65	2586.58
757.82	2375.64
758.00	2531.29
758.18	2639.83
758.36	2660.31
758.54	3004.37
758.72	2506.71
758.90	2805.72
759.07	2807.77
759.25	2613.21
759.43	2660.31
759.61	2519.00
759.79	3942.34
759.97	2861.01
760.15	2641.88
760.32	2633.69
760.50	2768.85
760.68	2920.40
760.86	2459.61
761.04	2850.77
761.22	2850.77
761.39	2768.85
761.57	2795.48
761.75	2625.50
761.93	2764.76
762.11	2746.33
762.28	2731.99
762.46	2621.40
762.64	2838.48
762.82	2535.39
763.00	2596.82
763.18	2799.57
763.35	2527.19
763.53	2799.57
763.71	2654.17
763.89	2686.94
764.07	2691.03
764.24	2768.85
764.42	2746.33
764.60	2674.65
764.78	2756.57
764.96	2754.52
765.13	2766.81
765.31	2607.06
765.49	2815.96
765.67	2572.25
765.84	2625.50
766.02	2551.77
766.20	2494.43
766.38	2826.20
766.56	2645.98
766.73	2764.76
766.91	2744.28
767.09	2727.89
767.27	2709.46
767.44	2582.49
767.62	2799.57
767.80	2738.13
767.98	2553.82
768.15	2627.54
768.33	2811.86
768.51	2879.44
768.69	2779.09
768.87	2752.47
769.04	2840.53
769.22	3110.86
769.40	2844.63
769.58	2822.10
769.75	2758.61
769.93	2891.73
770.11	2654.17
770.28	2590.68
770.46	2826.20
770.64	2727.89
770.82	2723.80
770.99	2623.45
771.17	2787.29
771.35	2592.73
771.53	2668.50
771.70	2580.44
771.88	2815.96
772.06	2674.65
772.23	2695.13
772.41	2791.38
772.59	2619.35
772.77	2527.19
772.94	2588.63
773.12	2664.41
773.30	2639.83
773.47	2705.37
773.65	2676.70
773.83	2875.35
774.01	2693.08
774.18	2492.38
774.36	2678.74
774.54	2529.24
774.71	2754.52
774.89	2510.81
775.07	2473.95
775.24	2633.69
775.42	2693.08
775.60	2875.35
775.78	2547.67
775.95	2564.06
776.13	2445.27
776.31	2500.57
776.48	2777.05
776.66	2793.43
776.84	2633.69
777.01	2607.06
777.19	2574.30
777.37	2545.63
777.54	2848.72
777.72	3004.37
777.90	2742.23
778.07	2582.49
778.25	3164.11
778.43	2815.96
778.60	2490.33
778.78	2705.37
778.96	2873.30
779.13	2551.77
779.31	2791.38
779.49	2697.17
779.66	2801.62
779.84	2588.63
780.01	2637.78
780.19	2572.25
780.37	2973.65
780.54	2768.85
780.72	2535.39
780.90	2695.13
781.07	2768.85
781.25	2635.74
781.43	2797.53
781.60	2621.40
781.78	2824.15
781.95	2731.99
782.13	2598.87
782.31	2621.40
782.48	2424.80
782.66	2766.81
782.83	2897.88
783.01	2721.75
783.19	2949.08
783.36	2670.55
783.54	2564.06
783.72	2693.08
783.89	2645.98
784.07	2662.36
784.24	2746.33
784.42	2822.10
784.60	2746.33
784.77	2678.74
784.95	2406.36
785.12	2590.68
785.30	2846.68
785.47	2664.41
785.65	2521.05
785.83	2598.87
786.00	2658.26
786.18	2723.80
786.35	2559.96
786.53	2535.39
786.71	2873.30
786.88	2719.70
787.06	2760.66
787.23	2662.36
787.41	2559.96
787.58	2740.18
787.76	2547.67
787.94	2658.26
788.11	2781.14
788.29	2531.29
788.46	2586.58
788.64	2523.10
788.81	2637.78
788.99	2549.72
789.16	2605.02
789.34	2742.23
789.52	2619.35
789.69	2668.50
789.87	2504.67
790.04	2652.12
790.22	2734.04
790.39	3010.51
790.57	2568.15
790.74	2586.58
790.92	2797.53
791.09	2457.56
791.27	2691.03
791.44	2703.32
791.62	2664.41
791.79	2793.43
791.97	2697.17
792.15	2969.55
792.32	2766.81
792.50	2832.34
792.67	2897.88
792.85	2914.26
793.02	2760.66
793.20	2652.12
793.37	2469.85
793.55	2625.50
793.72	2504.67
793.90	2832.34
794.07	2572.25
794.25	2584.54
794.42	2656.22
794.60	2729.94
794.77	2697.17
794.95	2713.56
795.12	2772.95
795.30	2686.94
795.47	2441.18
795.65	2990.03
795.82	2811.86
796.00	2613.21
796.17	2678.74
796.34	2598.87
796.52	2715.61
796.69	2846.68
796.87	2719.70
797.04	2721.75
797.22	2881.49
797.39	2842.58
797.57	2744.28
797.74	2693.08
797.92	2709.46
798.09	2613.21
798.27	2875.35
798.44	2602.97
798.62	2654.17
798.79	2760.66
798.96	2781.14
799.14	2555.86
799.31	3080.14
799.49	2664.41
799.66	2598.87
799.84	2688.98
800.01	2600.92
800.19	2766.81
800.36	2478.04
800.53	2598.87
800.71	2815.96
800.88	2926.55
801.06	2555.86
801.23	2605.02
801.41	2697.17
801.58	2654.17
801.75	2545.63
801.93	2631.64
802.10	2906.07
802.28	2662.36
802.45	2586.58
802.63	2705.37
802.80	2916.31
802.97	2684.89
803.15	2652.12
803.32	2648.02
803.50	2600.92
803.67	2580.44
803.84	2613.21
804.02	2652.12
804.19	2617.30
804.37	2389.98
804.54	2564.06
804.71	2592.73
804.89	2680.79
805.06	2611.16
805.24	2551.77
805.41	2441.18
805.58	2572.25
805.76	3092.43
805.93	2641.88
806.10	2832.34
806.28	2787.29
806.45	2734.04
806.63	2727.89
806.80	2705.37
806.97	2785.24
807.15	2717.65
807.32	2775.00
807.49	2598.87
807.67	2490.33
807.84	2760.66
808.01	2471.90
808.19	2881.49
808.36	3102.67
808.54	2674.65
808.71	2568.15
808.88	2641.88
809.06	2815.96
809.23	2965.46
809.40	2639.83
809.58	2705.37
809.75	2668.50
809.92	2504.67
810.10	2897.88
810.27	2686.94
810.44	2680.79
810.62	2791.38
810.79	2674.65
810.96	2605.02
811.14	2639.83
811.31	2824.15
811.48	2715.61
811.66	2648.02
811.83	2955.22
812.00	2793.43
812.18	2797.53
812.35	2965.46
812.52	2641.88
812.69	2691.03
812.87	2555.86
813.04	2615.26
813.21	2752.47
813.39	2643.93
813.56	2568.15
813.73	2795.48
813.91	2510.81
814.08	2678.74
814.25	2691.03
814.42	2441.18
814.60	2695.13
814.77	2754.52
814.94	2609.11
815.12	2686.94
815.29	2985.94
815.46	2625.50
815.63	2691.03
815.81	2658.26
815.98	2635.74
816.15	2619.35
816.33	2678.74
816.50	2578.39
816.67	2738.13
816.84	2682.84
817.02	2514.91
817.19	2674.65
817.36	2756.57
817.53	2775.00
817.71	2566.10
817.88	2742.23
818.05	2770.90
818.22	2695.13
818.40	2891.73
818.57	2557.91
818.74	2756.57
818.91	2682.84
819.09	2801.62
819.26	2772.95
819.43	2584.54
819.60	2684.89
819.78	2731.99
819.95	2770.90
820.12	2572.25
820.29	2920.40
820.47	2766.81
820.64	2564.06
820.81	2484.19
820.98	2586.58
821.15	2615.26
821.33	2772.95
821.50	2506.71
821.67	2818.00
821.84	2537.43
822.02	2676.70
822.19	2881.49
822.36	2572.25
822.53	2574.30
822.70	2504.67
822.88	2609.11
823.05	2949.08
823.22	2736.09
823.39	2641.88
823.56	2682.84
823.74	3059.67
823.91	2547.67
824.08	2508.76
824.25	2600.92
824.42	2969.55
824.60	2480.09
824.77	2746.33
824.94	2705.37
825.11	2758.61
825.28	2553.82
825.45	2713.56
825.63	2760.66
825.80	2693.08
825.97	2654.17
826.14	2639.83
826.31	2541.53
826.48	2777.05
826.66	2609.11
826.83	2613.21
827.00	2621.40
827.17	2617.30
827.34	2668.50
827.51	2531.29
827.69	2693.08
827.86	2463.71
828.03	2652.12
828.20	2668.50
828.37	2641.88
828.54	2762.71
828.71	2527.19
828.89	2818.00
829.06	2654.17
829.23	2916.31
829.40	2596.82
829.57	2625.50
829.74	2797.53
829.91	2668.50
830.09	2586.58
830.26	2738.13
830.43	2994.13
830.60	2758.61
830.77	2688.98
830.94	2789.33
831.11	2820.05
831.28	2609.11
831.46	2760.66
831.63	2670.55
831.80	2867.16
831.97	2605.02
832.14	2570.20
832.31	2775.00
832.48	2727.89
832.65	2867.16
832.82	2615.26
832.99	2717.65
833.17	2623.45
833.34	2879.44
833.51	2645.98
833.68	2332.64
833.85	2858.96
834.02	2592.73
834.19	2582.49
834.36	2580.44
834.53	2727.89
834.70	2904.02
834.87	2756.57
835.04	2500.57
835.22	2668.50
835.39	2668.50
835.56	2551.77
835.73	2635.74
835.90	2861.01
836.07	2557.91
836.24	2719.70
836.41	2512.86
836.58	2619.35
836.75	2832.34
836.92	2602.97
837.09	2537.43
837.26	2766.81
837.43	2725.85
837.60	2574.30
837.77	2547.67
837.94	2822.10
838.12	2947.03
838.29	2525.15
838.46	2545.63
838.63	2531.29
838.80	2844.63
838.97	2498.52
839.14	2512.86
839.31	2686.94
839.48	2899.92
839.65	2559.96
839.82	2656.22
839.99	2738.13
840.16	2684.89
840.33	2553.82
840.50	2594.78
840.67	2566.10
840.84	2412.51
841.01	2598.87
841.18	2555.86
841.35	2715.61
841.52	2801.62
841.69	2838.48
841.86	2564.06
842.03	2752.47
842.20	2850.77
842.37	2531.29
842.54	2555.86
842.71	2760.66
842.88	2478.04
843.05	2506.71
843.22	2545.63
843.39	2766.81
843.56	2621.40
843.73	2580.44
843.90	2572.25
844.07	2738.13
844.24	2781.14
844.41	2564.06
844.58	2592.73
844.75	2713.56
844.92	2777.05
845.09	2652.12
845.26	2492.38
845.43	2809.81
845.60	2723.80
845.77	2691.03
845.94	2701.27
846.10	2846.68
846.27	2459.61
846.44	2486.23
846.61	2457.56
846.78	2801.62
846.95	2809.81
847.12	2496.47
847.29	2594.78
847.46	2557.91
847.63	2856.92
847.80	2498.52
847.97	2592.73
848.14	2965.46
848.31	2619.35
848.48	2441.18
848.65	2594.78
848.82	2627.54
848.98	3080.14
849.15	2645.98
849.32	2629.59
849.49	2908.12
849.66	2742.23
849.83	2551.77
850.00	2488.28
850.17	2775.00
850.34	2707.41
850.51	2510.81
850.68	2574.30
850.85	2996.18
851.01	2752.47
851.18	2611.16
851.35	2576.34
851.52	2736.09
851.69	2897.88
851.86	2482.14
852.03	2471.90
852.20	2758.61
852.37	2672.60
852.53	2445.27
852.70	2531.29
852.87	2723.80
853.04	2858.96
853.21	2502.62
853.38	2785.24
853.55	2926.55
853.72	2887.64
853.89	2514.91
854.05	2568.15
854.22	2686.94
854.39	2762.71
854.56	2527.19
854.73	2787.29
854.90	2562.01
855.07	2701.27
855.23	2475.99
855.40	2508.76
855.57	2703.32
855.74	2381.79
855.91	2758.61
856.08	2459.61
856.25	2531.29
856.41	2627.54
856.58	2619.35
856.75	2537.43
856.92	2564.06
857.09	2785.24
857.26	2406.36
857.42	2656.22
857.59	2820.05
857.76	2703.32
857.93	2512.86
858.10	2621.40
858.27	2547.67
858.43	2785.24
858.60	2484.19
858.77	2422.75
858.94	2578.39
859.11	2854.87
859.27	2594.78
859.44	2508.76
859.61	2996.18
859.78	2813.91
859.95	2596.82
860.12	2527.19
860.28	3026.90
860.45	2992.08
860.62	2527.19
860.79	2602.97
860.95	2641.88
861.12	2596.82
861.29	2469.85
861.46	2570.20
861.63	2758.61
861.79	2758.61
861.96	2453.47
862.13	2521.05
862.30	2914.26
862.47	2592.73
862.63	2459.61
862.80	2652.12
862.97	2834.39
863.14	2652.12
863.30	2611.16
863.47	2553.82
863.64	2897.88
863.81	2711.51
863.97	2506.71
864.14	2584.54
864.31	2633.69
864.48	2762.71
864.65	2611.16
864.81	2674.65
864.98	2772.95
865.15	2815.96
865.32	2682.84
865.48	2652.12
865.65	2969.55
865.82	2664.41
865.98	2678.74
866.15	2641.88
866.32	2721.75
866.49	2611.16
866.65	2695.13
866.82	2494.43
866.99	2693.08
867.16	2609.11
867.32	2588.63
867.49	2506.71
867.66	2693.08
867.83	2631.64
867.99	2482.14
868.16	2545.63
868.33	2508.76
868.49	2709.46
868.66	2533.34
868.83	2613.21
868.99	2719.70
869.16	2746.33
869.33	2697.17
869.50	2621.40
869.66	2719.70
869.83	2717.65
870.00	2469.85
870.16	2625.50
870.33	2736.09
870.50	2840.53
870.66	2588.63
870.83	2594.78
871.00	2758.61
871.17	2758.61
871.33	2660.31
871.50	2613.21
871.67	2768.85
871.83	2537.43
872.00	2682.84
872.17	2549.72
872.33	3012.56
872.50	2832.34
872.67	2555.86
872.83	2570.20
873.00	2727.89
873.17	2750.42
873.33	2584.54
873.50	2648.02
873.67	2555.86
873.83	2652.12
874.00	2584.54
874.16	2719.70
874.33	2676.70
874.50	2512.86
874.66	2535.39
874.83	2590.68
875.00	2906.07
875.16	2770.90
875.33	2682.84
875.50	2416.60
875.66	2664.41
875.83	2748.37
875.99	2559.96
876.16	2611.16
876.33	2582.49
876.49	2691.03
876.66	2602.97
876.83	2607.06
876.99	2475.99
877.16	2705.37
877.32	2564.06
877.49	2568.15
877.66	2791.38
877.82	2963.41
877.99	2635.74
878.15	2686.94
878.32	2686.94
878.49	2699.22
878.65	2588.63
878.82	2736.09
878.98	2641.88
879.15	2828.24
879.32	2695.13
879.48	2701.27
879.65	2736.09
879.81	2723.80
879.98	2600.92
880.15	2586.58
880.31	2799.57
880.48	2707.41
880.64	2729.94
880.81	2682.84
880.97	2883.54
881.14	2848.72
881.31	2519.00
881.47	2721.75
881.64	2662.36
881.80	2498.52
881.97	2654.17
882.13	2586.58
882.30	2557.91
882.47	2562.01
882.63	2514.91
882.80	2529.24
882.96	2619.35
883.13	2914.26
883.29	2551.77
883.46	2523.10
883.62	2985.94
883.79	2711.51
883.95	2789.33
884.12	2494.43
884.29	2865.11
884.45	2691.03
884.62	2602.97
884.78	2496.47
884.95	2918.36
885.11	2596.82
885.28	2643.93
885.44	2605.02
885.61	2820.05
885.77	2914.26
885.94	2602.97
886.10	2643.93
886.27	2709.46
886.43	2955.22
886.60	2772.95
886.76	2580.44
886.93	2545.63
887.09	2775.00
887.26	2428.89
887.42	2609.11
887.59	2818.00
887.75	3041.23
887.92	2772.95
888.08	2666.46
888.25	2949.08
888.41	2793.43
888.58	2641.88
888.74	2459.61
888.91	2633.69
>>>>>End Processed Spectral Data<<<<<
