SpectraSuite Data File
++++++++++++++++++++++++++++++++++++
Date: Thu May 05 16:20:37 CEST 2016
User: root
Dark Spectrum Present: No
Reference Spectrum Present: No
Number of Sampled Component Spectra: 1
Spectrometers: USB4C02835
Integration Time (usec): 100000 (USB4C02835)
Spectra Averaged: 1 (USB4C02835)
Boxcar Smoothing: 0 (USB4C02835)
Correct for Electrical Dark: No (USB4C02835)
Strobe/Lamp Enabled: No (USB4C02835)
Correct for Detector Non-linearity: No (USB4C02835)
Correct for Stray Light: No (USB4C02835)
Number of Pixels in Processed Spectrum: 3648
>>>>>Begin Processed Spectral Data<<<<<
177.47	2033.63
177.69	2033.63
177.91	2033.63
178.13	2017.25
178.36	2084.83
178.58	2553.82
178.80	2738.13
179.02	2482.14
179.24	2615.26
179.46	2508.76
179.68	2426.84
179.90	2627.54
180.13	2795.48
180.35	2373.60
180.57	2506.71
180.79	2818.00
181.01	2777.05
181.23	2521.05
181.45	2688.98
181.67	2744.28
181.90	2777.05
182.12	2598.87
182.34	2301.92
182.56	2674.65
182.78	2787.29
183.00	2467.80
183.22	2611.16
183.44	2523.10
183.66	3084.24
183.89	2619.35
184.11	2574.30
184.33	2889.68
184.55	2889.68
184.77	2478.04
184.99	2523.10
185.21	2711.51
185.43	2990.03
185.65	2504.67
185.87	2478.04
186.10	3051.47
186.32	3080.14
186.54	2527.19
186.76	2641.88
186.98	2904.02
187.20	2670.55
187.42	2504.67
187.64	2525.15
187.86	2779.09
188.08	2891.73
188.30	2432.99
188.52	2631.64
188.75	2881.49
188.97	2895.83
189.19	2473.95
189.41	2432.99
189.63	2842.58
189.85	2645.98
190.07	2428.89
190.29	2396.12
190.51	2676.70
190.73	2484.19
190.95	2568.15
191.17	2562.01
191.39	2619.35
191.61	2648.02
191.84	2537.43
192.06	2572.25
192.28	2506.71
192.50	3182.54
192.72	2674.65
192.94	2613.21
193.16	2879.44
193.38	2738.13
193.60	2471.90
193.82	2619.35
194.04	2895.83
194.26	2873.30
194.48	2502.62
194.70	2490.33
194.92	2652.12
195.14	2805.72
195.36	2553.82
195.58	2551.77
195.80	2697.17
196.02	2549.72
196.24	2529.24
196.46	2578.39
196.69	2654.17
196.91	3123.15
197.13	2588.63
197.35	2539.48
197.57	2918.36
197.79	2811.86
198.01	2553.82
198.23	2568.15
198.45	2807.77
198.67	2521.05
198.89	2334.68
199.11	2623.45
199.33	2578.39
199.55	2363.36
199.77	2480.09
199.99	2617.30
200.21	2609.11
200.43	2750.42
200.65	2406.36
200.87	2351.07
201.09	2650.07
201.31	2684.89
201.53	2566.10
201.75	2576.34
201.97	2715.61
202.19	2662.36
202.41	2543.58
202.63	2672.60
202.85	2805.72
203.07	2752.47
203.29	2574.30
203.51	2377.69
203.73	2553.82
203.95	3055.57
204.17	2588.63
204.39	2637.78
204.61	2607.06
204.83	2641.88
205.05	2637.78
205.27	2609.11
205.49	3006.42
205.71	2721.75
205.93	2506.71
206.15	2412.51
206.37	2680.79
206.59	2693.08
206.81	2351.07
207.03	2445.27
207.25	2635.74
207.47	2922.45
207.69	2549.72
207.91	2725.85
208.13	2906.07
208.34	2629.59
208.56	2410.46
208.78	2547.67
209.00	2672.60
209.22	2621.40
209.44	2531.29
209.66	2486.23
209.88	2686.94
210.10	2598.87
210.32	2490.33
210.54	2611.16
210.76	2742.23
210.98	2822.10
211.20	2410.46
211.42	2586.58
211.64	2926.55
211.86	2799.57
212.08	2557.91
212.30	2535.39
212.52	2686.94
212.74	2836.44
212.96	2584.54
213.17	2592.73
213.39	2793.43
213.61	2936.79
213.83	2557.91
214.05	2435.03
214.27	2893.78
214.49	2584.54
214.71	2496.47
214.93	2602.97
215.15	2785.24
215.37	2818.00
215.59	2414.56
215.81	2549.72
216.03	2940.88
216.24	2709.46
216.46	2531.29
216.68	2600.92
216.90	2852.82
217.12	2893.78
217.34	2428.89
217.56	2635.74
217.78	2969.55
218.00	2834.39
218.22	2666.46
218.44	2621.40
218.66	2744.28
218.87	2951.12
219.09	2512.86
219.31	2519.00
219.53	2736.09
219.75	2691.03
219.97	2521.05
220.19	2514.91
220.41	2672.60
220.63	3028.95
220.85	2523.10
221.06	2594.78
221.28	2883.54
221.50	2813.91
221.72	2506.71
221.94	2488.28
222.16	2715.61
222.38	2836.44
222.60	2506.71
222.82	2519.00
223.03	2865.11
223.25	2592.73
223.47	2478.04
223.69	2662.36
223.91	2826.20
224.13	2752.47
224.35	2461.66
224.57	2775.00
224.78	2883.54
225.00	2637.78
225.22	2555.86
225.44	2430.94
225.66	2775.00
225.88	2664.41
226.10	2598.87
226.32	2551.77
226.53	2928.60
226.75	2727.89
226.97	2531.29
227.19	2566.10
227.41	2643.93
227.63	2658.26
227.85	2379.74
228.06	2539.48
228.28	2818.00
228.50	2852.82
228.72	2416.60
228.94	2469.85
229.16	2441.18
229.37	2549.72
229.59	2455.51
229.81	2748.37
230.03	2684.89
230.25	2500.57
230.47	2402.27
230.69	2383.84
230.90	2883.54
231.12	2656.22
231.34	2611.16
231.56	2574.30
231.78	2527.19
232.00	2828.24
232.21	2637.78
232.43	2473.95
232.65	2455.51
232.87	2815.96
233.09	2424.80
233.30	2457.56
233.52	2834.39
233.74	2709.46
233.96	2506.71
234.18	2658.26
234.40	2758.61
234.61	2996.18
234.83	2398.17
235.05	2480.09
235.27	3117.01
235.49	2918.36
235.70	2441.18
235.92	2602.97
236.14	2744.28
236.36	3112.91
236.58	2365.40
236.79	2584.54
237.01	2785.24
237.23	2768.85
237.45	2699.22
237.67	2551.77
237.88	2801.62
238.10	2965.46
238.32	2404.32
238.54	2465.75
238.76	2633.69
238.97	2566.10
239.19	2408.41
239.41	2566.10
239.63	2938.84
239.85	2658.26
240.06	2424.80
240.28	2510.81
240.50	2828.24
240.72	2709.46
240.93	2422.75
241.15	2662.36
241.37	2723.80
241.59	2951.12
241.81	2543.58
242.02	2629.59
242.24	2731.99
242.46	2797.53
242.68	2435.03
242.89	2449.37
243.11	2820.05
243.33	2719.70
243.55	2562.01
243.76	2564.06
243.98	2600.92
244.20	2729.94
244.42	2457.56
244.64	2580.44
244.85	2596.82
245.07	2623.45
245.29	2502.62
245.51	2605.02
245.72	2754.52
245.94	2901.97
246.16	2514.91
246.38	2625.50
246.59	2648.02
246.81	2658.26
247.03	2494.43
247.24	2451.42
247.46	2662.36
247.68	2715.61
247.90	2490.33
248.11	2426.84
248.33	2881.49
248.55	2775.00
248.77	2572.25
248.98	2590.68
249.20	2920.40
249.42	2736.09
249.64	2541.53
249.85	2504.67
250.07	2703.32
250.29	2858.96
250.50	2564.06
250.72	2471.90
250.94	2809.81
251.16	3041.23
251.37	2564.06
251.59	2576.34
251.81	2824.15
252.02	2969.55
252.24	2426.84
252.46	2680.79
252.68	2629.59
252.89	2613.21
253.11	2392.03
253.33	2670.55
253.54	2944.98
253.76	2547.67
253.98	2473.95
254.20	2494.43
254.41	2572.25
254.63	2731.99
254.85	2392.03
255.06	2529.24
255.28	2848.72
255.50	2731.99
255.71	2422.75
255.93	2383.84
256.15	2656.22
256.36	2809.81
256.58	2373.60
256.80	2494.43
257.02	2666.46
257.23	2682.84
257.45	2617.30
257.67	2639.83
257.88	2678.74
258.10	2826.20
258.32	2486.23
258.53	2607.06
258.75	2912.21
258.97	2586.58
259.18	2463.71
259.40	2480.09
259.62	3024.85
259.83	2899.92
260.05	2555.86
260.27	3168.21
260.48	2846.68
260.70	2600.92
260.92	2430.94
261.13	2521.05
261.35	2654.17
261.57	2756.57
261.78	2473.95
262.00	2392.03
262.22	2766.81
262.43	2656.22
262.65	2498.52
262.86	2516.95
263.08	3055.57
263.30	2760.66
263.51	2312.16
263.73	2484.19
263.95	2867.16
264.16	2662.36
264.38	2432.99
264.60	2533.34
264.81	2652.12
265.03	2838.48
265.25	2793.43
265.46	2486.23
265.68	2938.84
265.89	2768.85
266.11	2408.41
266.33	2598.87
266.54	2885.59
266.76	2803.67
266.98	2650.07
267.19	2715.61
267.41	2867.16
267.62	2678.74
267.84	2351.07
268.06	2500.57
268.27	2793.43
268.49	2854.87
268.70	2629.59
268.92	2529.24
269.14	2555.86
269.35	2531.29
269.57	2635.74
269.79	2551.77
270.00	2670.55
270.22	2942.93
270.43	2359.26
270.65	2369.50
270.87	2740.18
271.08	2965.46
271.30	2502.62
271.51	2512.86
271.73	2820.05
271.95	2926.55
272.16	2533.34
272.38	2633.69
272.59	2719.70
272.81	2805.72
273.02	2465.75
273.24	2566.10
273.46	2883.54
273.67	2562.01
273.89	2400.22
274.10	2539.48
274.32	2879.44
274.54	2705.37
274.75	2643.93
274.97	2564.06
275.18	2840.53
275.40	2799.57
275.61	2531.29
275.83	2686.94
276.05	2580.44
276.26	2701.27
276.48	2643.93
276.69	2553.82
276.91	2654.17
277.12	2840.53
277.34	2625.50
277.55	2719.70
277.77	2750.42
277.99	2686.94
278.20	2547.67
278.42	2475.99
278.63	2592.73
278.85	2625.50
279.06	2523.10
279.28	2766.81
279.49	2863.06
279.71	2912.21
279.93	2600.92
280.14	2635.74
280.36	2574.30
280.57	2969.55
280.79	2648.02
281.00	2527.19
281.22	2680.79
281.43	2940.88
281.65	2435.03
281.86	2514.91
282.08	2725.85
282.29	3045.33
282.51	2414.56
282.73	2523.10
282.94	2543.58
283.16	2889.68
283.37	2766.81
283.59	2633.69
283.80	2742.23
284.02	2684.89
284.23	2631.64
284.45	2594.78
284.66	2621.40
284.88	2650.07
285.09	2607.06
285.31	2641.88
285.52	2805.72
285.74	2529.24
285.95	2748.37
286.17	2650.07
286.38	2897.88
286.60	2559.96
286.81	2557.91
287.03	2529.24
287.24	2803.67
287.46	2797.53
287.67	2674.65
287.89	2832.34
288.10	2648.02
288.32	2709.46
288.53	2760.66
288.75	2613.21
288.96	2830.29
289.18	2615.26
289.39	2658.26
289.61	2627.54
289.82	3008.47
290.04	2951.12
290.25	2592.73
290.47	2662.36
290.68	2738.13
290.90	2883.54
291.11	2383.84
291.33	2746.33
291.54	2580.44
291.76	2633.69
291.97	2666.46
292.18	2715.61
292.40	2650.07
292.61	2719.70
292.83	2824.15
293.04	2564.06
293.26	2746.33
293.47	2715.61
293.69	2494.43
293.90	2521.05
294.12	2914.26
294.33	2734.04
294.55	2695.13
294.76	2703.32
294.97	2848.72
295.19	3065.81
295.40	2617.30
295.62	2701.27
295.83	2897.88
296.05	2564.06
296.26	2842.58
296.48	2607.06
296.69	2697.17
296.90	2684.89
297.12	2723.80
297.33	2789.33
297.55	2840.53
297.76	2731.99
297.98	2693.08
298.19	2684.89
298.41	2699.22
298.62	2629.59
298.83	2811.86
299.05	2586.58
299.26	2652.12
299.48	2600.92
299.69	2691.03
299.90	2641.88
300.12	2594.78
300.33	2738.13
300.55	2600.92
300.76	2650.07
300.98	2613.21
301.19	2826.20
301.40	2533.34
301.62	2514.91
301.83	2809.81
302.05	2758.61
302.26	2543.58
302.47	2662.36
302.69	2506.71
302.90	2717.65
303.12	2346.97
303.33	2721.75
303.54	3033.04
303.76	2682.84
303.97	2580.44
304.19	2779.09
304.40	2623.45
304.61	2797.53
304.83	2834.39
305.04	2719.70
305.26	2799.57
305.47	2705.37
305.68	2600.92
305.90	2480.09
306.11	2834.39
306.33	2705.37
306.54	2447.32
306.75	2576.34
306.97	2490.33
307.18	2516.95
307.39	2613.21
307.61	2697.17
307.82	2664.41
308.04	2858.96
308.25	2551.77
308.46	2656.22
308.68	2760.66
308.89	2703.32
309.10	2709.46
309.32	2682.84
309.53	2783.19
309.74	2740.18
309.96	2559.96
310.17	2748.37
310.39	2613.21
310.60	2740.18
310.81	2596.82
311.03	2566.10
311.24	2795.48
311.45	2738.13
311.67	2869.20
311.88	2682.84
312.09	2635.74
312.31	2686.94
312.52	2506.71
312.73	2586.58
312.95	2631.64
313.16	2643.93
313.37	2760.66
313.59	2711.51
313.80	2779.09
314.01	2977.75
314.23	2605.02
314.44	2584.54
314.65	2580.44
314.87	2576.34
315.08	2572.25
315.29	2668.50
315.51	2584.54
315.72	2551.77
315.93	2793.43
316.15	2738.13
316.36	2627.54
316.57	2652.12
316.79	2654.17
317.00	2533.34
317.21	2762.71
317.43	2527.19
317.64	2676.70
317.85	2555.86
318.07	2643.93
318.28	2734.04
318.49	2738.13
318.70	2824.15
318.92	2795.48
319.13	2797.53
319.34	2822.10
319.56	2719.70
319.77	2777.05
319.98	2865.11
320.20	2781.14
320.41	2772.95
320.62	2783.19
320.83	2523.10
321.05	2764.76
321.26	2717.65
321.47	2670.55
321.69	2932.69
321.90	2516.95
322.11	2527.19
322.32	2777.05
322.54	2867.16
322.75	2572.25
322.96	3184.59
323.18	2590.68
323.39	2441.18
323.60	2504.67
323.81	2701.27
324.03	2588.63
324.24	2764.76
324.45	2777.05
324.66	2531.29
324.88	2904.02
325.09	2965.46
325.30	2596.82
325.52	2594.78
325.73	2801.62
325.94	2596.82
326.15	2435.03
326.37	2545.63
326.58	2754.52
326.79	2957.27
327.00	2496.47
327.22	2615.26
327.43	2686.94
327.64	2523.10
327.85	2631.64
328.07	2578.39
328.28	3022.80
328.49	2635.74
328.70	2625.50
328.92	2602.97
329.13	2713.56
329.34	2762.71
329.55	2801.62
329.76	2799.57
329.98	2715.61
330.19	2920.40
330.40	2654.17
330.61	2748.37
330.83	2830.29
331.04	2609.11
331.25	2633.69
331.46	2623.45
331.68	2545.63
331.89	2826.20
332.10	2662.36
332.31	2496.47
332.52	2680.79
332.74	2904.02
332.95	2484.19
333.16	2607.06
333.37	2775.00
333.58	2641.88
333.80	2652.12
334.01	2451.42
334.22	2756.57
334.43	2621.40
334.64	2547.67
334.86	2523.10
335.07	2498.52
335.28	2967.51
335.49	2572.25
335.70	2648.02
335.92	2893.78
336.13	3041.23
336.34	2719.70
336.55	2621.40
336.76	2738.13
336.98	2504.67
337.19	2629.59
337.40	2752.47
337.61	3098.58
337.82	2643.93
338.04	2746.33
338.25	2521.05
338.46	2717.65
338.67	2654.17
338.88	2459.61
339.09	2529.24
339.31	2662.36
339.52	2588.63
339.73	2535.39
339.94	2586.58
340.15	2752.47
340.36	2605.02
340.58	2645.98
340.79	2510.81
341.00	2703.32
341.21	2564.06
341.42	2775.00
341.63	2596.82
341.85	2879.44
342.06	2734.04
342.27	2543.58
342.48	2731.99
342.69	2478.04
342.90	2809.81
343.12	2838.48
343.33	2480.09
343.54	2820.05
343.75	2973.65
343.96	2678.74
344.17	2516.95
344.38	2752.47
344.60	2580.44
344.81	2547.67
345.02	2611.16
345.23	2793.43
345.44	3106.77
345.65	2697.17
345.86	2641.88
346.07	2781.14
346.29	2623.45
346.50	2705.37
346.71	2736.09
346.92	2899.92
347.13	2959.31
347.34	2648.02
347.55	2496.47
347.76	2809.81
347.98	2537.43
348.19	2572.25
348.40	2762.71
348.61	2658.26
348.82	2934.74
349.03	2695.13
349.24	2519.00
349.45	2969.55
349.66	2396.12
349.88	2641.88
350.09	2467.80
350.30	2971.60
350.51	2858.96
350.72	2676.70
350.93	2658.26
351.14	2650.07
351.35	2869.20
351.56	2664.41
351.77	2580.44
351.99	2834.39
352.20	2971.60
352.41	2721.75
352.62	2469.85
352.83	2805.72
353.04	2744.28
353.25	2590.68
353.46	2752.47
353.67	2801.62
353.88	2430.94
354.09	2600.92
354.30	2650.07
354.52	2875.35
354.73	2711.51
354.94	2658.26
355.15	2652.12
355.36	3022.80
355.57	2693.08
355.78	2586.58
355.99	2609.11
356.20	2709.46
356.41	2901.97
356.62	2756.57
356.83	2598.87
357.04	2899.92
357.25	2492.38
357.46	2600.92
357.68	2480.09
357.89	2637.78
358.10	2719.70
358.31	2559.96
358.52	2682.84
358.73	2521.05
358.94	2576.34
359.15	2625.50
359.36	2691.03
359.57	2729.94
359.78	2701.27
359.99	2744.28
360.20	2496.47
360.41	2701.27
360.62	2854.87
360.83	2645.98
361.04	2633.69
361.25	2758.61
361.46	2928.60
361.67	2668.50
361.88	2615.26
362.09	2891.73
362.30	2740.18
362.51	2545.63
362.72	2719.70
362.93	2842.58
363.14	2785.24
363.35	2578.39
363.56	2574.30
363.78	2772.95
363.99	2865.11
364.20	2576.34
364.41	2701.27
364.62	2920.40
364.83	2818.00
365.04	2596.82
365.25	2615.26
365.46	3061.71
365.67	2592.73
365.88	2697.17
366.09	2586.58
366.30	2656.22
366.51	2713.56
366.72	2535.39
366.93	2490.33
367.14	2772.95
367.35	2908.12
367.56	2590.68
367.77	2752.47
367.98	2660.31
368.18	2781.14
368.39	2695.13
368.60	2516.95
368.81	2924.50
369.02	2736.09
369.23	2611.16
369.44	2504.67
369.65	2650.07
369.86	2777.05
370.07	2725.85
370.28	2553.82
370.49	2781.14
370.70	2701.27
370.91	2516.95
371.12	2410.46
371.33	2922.45
371.54	2654.17
371.75	2750.42
371.96	2420.70
372.17	2797.53
372.38	2719.70
372.59	2666.46
372.80	2570.20
373.01	2717.65
373.22	2727.89
373.43	2674.65
373.64	2457.56
373.85	2897.88
374.06	3037.14
374.26	2740.18
374.47	2805.72
374.68	2883.54
374.89	2734.04
375.10	2605.02
375.31	2779.09
375.52	2756.57
375.73	2768.85
375.94	2500.57
376.15	2768.85
376.36	2666.46
376.57	2568.15
376.78	2664.41
376.99	2660.31
377.20	2953.17
377.40	2627.54
377.61	2906.07
377.82	2545.63
378.03	2922.45
378.24	2758.61
378.45	2664.41
378.66	2652.12
378.87	2500.57
379.08	2559.96
379.29	2637.78
379.50	2752.47
379.71	2682.84
379.91	2844.63
380.12	2596.82
380.33	2633.69
380.54	2668.50
380.75	2770.90
380.96	2629.59
381.17	2697.17
381.38	2684.89
381.59	2629.59
381.80	2652.12
382.00	2795.48
382.21	2731.99
382.42	2975.70
382.63	2944.98
382.84	2678.74
383.05	2826.20
383.26	2944.98
383.47	2684.89
383.68	2666.46
383.88	2801.62
384.09	2736.09
384.30	2824.15
384.51	2707.41
384.72	2658.26
384.93	2568.15
385.14	2670.55
385.35	2707.41
385.55	2488.28
385.76	2936.79
385.97	2594.78
386.18	2539.48
386.39	2566.10
386.60	2641.88
386.81	2596.82
387.02	2537.43
387.22	2621.40
387.43	2858.96
387.64	2711.51
387.85	2867.16
388.06	2717.65
388.27	3938.24
388.48	7456.65
388.68	10981.21
388.89	13545.27
389.10	14401.32
389.31	13817.65
389.52	10944.34
389.73	9277.30
389.93	8572.80
390.14	7683.98
390.35	7208.85
390.56	6301.60
390.77	5271.47
390.98	4177.86
391.18	3456.97
391.39	3198.93
391.60	2807.77
391.81	2805.72
392.02	2621.40
392.23	3100.62
392.43	2734.04
392.64	2826.20
392.85	2711.51
393.06	2918.36
393.27	2695.13
393.47	2553.82
393.68	2668.50
393.89	2639.83
394.10	2973.65
394.31	2494.43
394.52	2588.63
394.72	2643.93
394.93	2899.92
395.14	2588.63
395.35	2701.27
395.56	2643.93
395.76	2754.52
395.97	2662.36
396.18	2856.92
396.39	2775.00
396.60	3231.69
396.80	2861.01
397.01	2836.44
397.22	2846.68
397.43	2983.89
397.64	2576.34
397.84	2744.28
398.05	3033.04
398.26	2795.48
398.47	2711.51
398.67	2809.81
398.88	2750.42
399.09	2854.87
399.30	2635.74
399.51	2736.09
399.71	2607.06
399.92	2699.22
400.13	2697.17
400.34	2623.45
400.54	2688.98
400.75	2947.03
400.96	2684.89
401.17	2850.77
401.37	2785.24
401.58	2697.17
401.79	2609.11
402.00	2738.13
402.21	3141.58
402.41	2940.88
402.62	2930.64
402.83	2981.84
403.04	3059.67
403.24	3301.33
403.45	2746.33
403.66	2879.44
403.87	2951.12
404.07	2963.41
404.28	2863.06
404.49	2869.20
404.70	2826.20
404.90	2875.35
405.11	2654.17
405.32	2734.04
405.52	2623.45
405.73	2656.22
405.94	2613.21
406.15	2625.50
406.35	2760.66
406.56	2846.68
406.77	2633.69
406.98	2662.36
407.18	2641.88
407.39	2928.60
407.60	2600.92
407.80	2746.33
408.01	2666.46
408.22	2791.38
408.43	2545.63
408.63	2691.03
408.84	2897.88
409.05	2834.39
409.25	2549.72
409.46	2562.01
409.67	2666.46
409.88	2652.12
410.08	2688.98
410.29	2648.02
410.50	2815.96
410.70	2723.80
410.91	2607.06
411.12	2695.13
411.32	2772.95
411.53	2465.75
411.74	2654.17
411.95	2684.89
412.15	2740.18
412.36	2897.88
412.57	2768.85
412.77	2858.96
412.98	2682.84
413.19	2629.59
413.39	2662.36
413.60	2693.08
413.81	2910.16
414.01	2555.86
414.22	2654.17
414.43	2693.08
414.63	2668.50
414.84	2850.77
415.05	2727.89
415.25	2488.28
415.46	2797.53
415.67	2617.30
415.87	2701.27
416.08	2627.54
416.29	2719.70
416.49	2834.39
416.70	2586.58
416.91	2539.48
417.11	2731.99
417.32	2840.53
417.53	2707.41
417.73	2648.02
417.94	2699.22
418.15	2719.70
418.35	2772.95
418.56	2641.88
418.77	3088.34
418.97	2750.42
419.18	2615.26
419.38	2353.12
419.59	2738.13
419.80	2928.60
420.00	2654.17
420.21	2656.22
420.42	2918.36
420.62	2734.04
420.83	2613.21
421.04	2699.22
421.24	2832.34
421.45	2830.29
421.65	2740.18
421.86	2652.12
422.07	2850.77
422.27	2789.33
422.48	2596.82
422.69	2484.19
422.89	2709.46
423.10	2676.70
423.30	2498.52
423.51	2664.41
423.72	2801.62
423.92	2836.44
424.13	2586.58
424.33	2594.78
424.54	2875.35
424.75	2752.47
424.95	2858.96
425.16	2738.13
425.36	2693.08
425.57	2932.69
425.78	2709.46
425.98	2770.90
426.19	2678.74
426.39	2576.34
426.60	2668.50
426.81	2770.90
427.01	2725.85
427.22	2578.39
427.42	2490.33
427.63	2635.74
427.83	2949.08
428.04	2944.98
428.25	2707.41
428.45	2715.61
428.66	2867.16
428.86	2752.47
429.07	2543.58
429.28	2672.60
429.48	2770.90
429.69	2672.60
429.89	2643.93
430.10	2539.48
430.30	2772.95
430.51	2797.53
430.71	2596.82
430.92	2648.02
431.13	2701.27
431.33	2875.35
431.54	2734.04
431.74	2791.38
431.95	3135.44
432.15	2572.25
432.36	2633.69
432.56	2688.98
432.77	2983.89
432.98	3006.42
433.18	2676.70
433.39	2512.86
433.59	2695.13
433.80	3026.90
434.00	2822.10
434.21	2641.88
434.41	2645.98
434.62	3090.38
434.82	2631.64
435.03	2580.44
435.23	2766.81
435.44	2498.52
435.64	2631.64
435.85	2709.46
436.06	2871.25
436.26	2932.69
436.47	2666.46
436.67	2611.16
436.88	2676.70
437.08	2846.68
437.29	2797.53
437.49	2705.37
437.70	2906.07
437.90	2764.76
438.11	2940.88
438.31	2766.81
438.52	2961.36
438.72	2846.68
438.93	2938.84
439.13	2680.79
439.34	2840.53
439.54	2652.12
439.75	2766.81
439.95	2709.46
440.16	2609.11
440.36	2775.00
440.57	2666.46
440.77	2562.01
440.98	2693.08
441.18	2701.27
441.39	2566.10
441.59	2578.39
441.80	3063.76
442.00	2719.70
442.21	2772.95
442.41	2478.04
442.62	2873.30
442.82	2656.22
443.02	2652.12
443.23	2652.12
443.43	2723.80
443.64	2899.92
443.84	2564.06
444.05	2697.17
444.25	2777.05
444.46	2650.07
444.66	2627.54
444.87	2891.73
445.07	2523.10
445.28	2715.61
445.48	2828.24
445.69	2777.05
445.89	3092.43
446.09	2668.50
446.30	2994.13
446.50	3074.00
446.71	4607.93
446.91	5722.02
447.12	6381.47
447.32	6852.50
447.53	6518.68
447.73	5586.86
447.93	4829.11
448.14	4505.53
448.34	4511.68
448.55	3837.89
448.75	3915.72
448.96	3590.09
449.16	3446.73
449.36	3180.50
449.57	2861.01
449.77	2731.99
449.98	2717.65
450.18	2768.85
450.39	2686.94
450.59	2775.00
450.79	2731.99
451.00	2654.17
451.20	2826.20
451.41	2598.87
451.61	2836.44
451.81	2746.33
452.02	2666.46
452.22	2639.83
452.43	2621.40
452.63	2693.08
452.84	2699.22
453.04	2592.73
453.24	2717.65
453.45	2645.98
453.65	2674.65
453.86	2740.18
454.06	2807.77
454.26	2736.09
454.47	2549.72
454.67	2840.53
454.87	2797.53
455.08	2738.13
455.28	2779.09
455.49	2762.71
455.69	2654.17
455.89	3061.71
456.10	2801.62
456.30	2609.11
456.51	2842.58
456.71	2758.61
456.91	2768.85
457.12	2645.98
457.32	2791.38
457.52	2506.71
457.73	2719.70
457.93	2811.86
458.14	2576.34
458.34	2400.22
458.54	2717.65
458.75	2645.98
458.95	2922.45
459.15	2791.38
459.36	2731.99
459.56	2738.13
459.76	3071.95
459.97	2764.76
460.17	2711.51
460.37	2752.47
460.58	2668.50
460.78	2932.69
460.99	2652.12
461.19	2658.26
461.39	2639.83
461.60	2818.00
461.80	2750.42
462.00	2572.25
462.21	2695.13
462.41	2660.31
462.61	2543.58
462.82	2435.03
463.02	2750.42
463.22	2715.61
463.43	2717.65
463.63	2670.55
463.83	2889.68
464.04	2760.66
464.24	2609.11
464.44	2510.81
464.64	2766.81
464.85	2764.76
465.05	2641.88
465.25	2617.30
465.46	2637.78
465.66	2813.91
465.86	2768.85
466.07	2672.60
466.27	2635.74
466.47	2519.00
466.68	2541.53
466.88	2799.57
467.08	2795.48
467.29	2901.97
467.49	2656.22
467.69	2723.80
467.89	2772.95
468.10	2656.22
468.30	2711.51
468.50	2813.91
468.71	2854.87
468.91	2570.20
469.11	2777.05
469.31	2674.65
469.52	2596.82
469.72	3035.09
469.92	2930.64
470.13	2582.49
470.33	2891.73
470.53	2783.19
470.73	2987.99
470.94	3307.47
471.14	3399.63
471.34	3864.52
471.54	3669.96
471.75	3231.69
471.95	3135.44
472.15	3039.19
472.36	3186.64
472.56	3043.28
472.76	3203.02
472.96	3028.95
473.17	2889.68
473.37	2801.62
473.57	2707.41
473.77	2846.68
473.98	2756.57
474.18	2549.72
474.38	3207.12
474.58	2693.08
474.79	2594.78
474.99	2793.43
475.19	2832.34
475.39	2613.21
475.60	2742.23
475.80	2633.69
476.00	2777.05
476.20	2734.04
476.41	2676.70
476.61	2777.05
476.81	2934.74
477.01	2611.16
477.21	2824.15
477.42	2719.70
477.62	2615.26
477.82	2871.25
478.02	2598.87
478.23	2705.37
478.43	2664.41
478.63	2691.03
478.83	2731.99
479.03	2664.41
479.24	2942.93
479.44	3030.99
479.64	2578.39
479.84	2465.75
480.04	2701.27
480.25	2838.48
480.45	2555.86
480.65	2621.40
480.85	2963.41
481.06	2682.84
481.26	2701.27
481.46	2709.46
481.66	2791.38
481.86	2600.92
482.06	2789.33
482.27	2656.22
482.47	2684.89
482.67	2783.19
482.87	2621.40
483.07	2740.18
483.28	2678.74
483.48	2568.15
483.68	2701.27
483.88	2508.76
484.08	2443.23
484.29	2576.34
484.49	2672.60
484.69	2510.81
484.89	2983.89
485.09	2858.96
485.29	2731.99
485.50	2731.99
485.70	2703.32
485.90	2922.45
486.10	2744.28
486.30	2701.27
486.50	2781.14
486.71	2772.95
486.91	2777.05
487.11	2731.99
487.31	2566.10
487.51	2721.75
487.71	2480.09
487.91	2641.88
488.12	2510.81
488.32	2381.79
488.52	2643.93
488.72	2389.98
488.92	2705.37
489.12	2912.21
489.32	2811.86
489.53	2680.79
489.73	2471.90
489.93	2985.94
490.13	2619.35
490.33	2547.67
490.53	2754.52
490.73	2875.35
490.94	2461.66
491.14	2799.57
491.34	2834.39
491.54	2858.96
491.74	3536.84
491.94	4122.56
492.14	4345.79
492.34	4526.01
492.54	4173.76
492.75	3504.07
492.95	3588.04
493.15	3350.48
493.35	3383.24
493.55	3203.02
493.75	3129.30
493.95	3174.35
494.15	2883.54
494.35	2760.66
494.56	2764.76
494.76	2662.36
494.96	2779.09
495.16	2668.50
495.36	2721.75
495.56	2764.76
495.76	2699.22
495.96	2654.17
496.16	2633.69
496.36	3030.99
496.56	2654.17
496.77	2719.70
496.97	2820.05
497.17	2922.45
497.37	2553.82
497.57	2635.74
497.77	2723.80
497.97	2629.59
498.17	2635.74
498.37	2611.16
498.57	2828.24
498.77	2719.70
498.97	2785.24
499.17	2944.98
499.38	2744.28
499.58	2809.81
499.78	2727.89
499.98	2781.14
500.18	2783.19
500.38	2623.45
500.58	2840.53
500.78	3219.41
500.98	5373.87
501.18	7323.54
501.38	8732.54
501.58	9598.83
501.78	9332.59
501.98	7790.47
502.18	6453.15
502.38	5695.40
502.58	5316.53
502.78	4710.33
502.98	4589.50
503.18	4542.39
503.38	4134.85
503.59	3565.51
503.79	3487.69
503.99	3231.69
504.19	3182.54
504.39	3119.06
504.59	3100.62
504.79	3069.91
504.99	3178.45
505.19	2971.60
505.39	2801.62
505.59	3002.32
505.79	3057.62
505.99	2906.07
506.19	2621.40
506.39	2924.50
506.59	2660.31
506.79	2654.17
506.99	2807.77
507.19	2666.46
507.39	2842.58
507.59	2500.57
507.79	2625.50
507.99	2514.91
508.19	2611.16
508.39	2617.30
508.59	2699.22
508.79	2707.41
508.99	2955.22
509.19	2682.84
509.39	2678.74
509.59	2592.73
509.79	2566.10
509.99	2684.89
510.19	2813.91
510.39	2738.13
510.59	2818.00
510.79	2648.02
510.99	2541.53
511.19	2637.78
511.39	2987.99
511.59	2871.25
511.79	2815.96
511.99	2648.02
512.19	2910.16
512.38	2813.91
512.58	2582.49
512.78	2570.20
512.98	2895.83
513.18	2938.84
513.38	2547.67
513.58	2686.94
513.78	2684.89
513.98	2736.09
514.18	2605.02
514.38	2639.83
514.58	2731.99
514.78	2605.02
514.98	2594.78
515.18	2578.39
515.38	2607.06
515.58	3000.27
515.78	2613.21
515.98	2613.21
516.18	2863.06
516.38	2639.83
516.57	2582.49
516.77	2559.96
516.97	2777.05
517.17	2629.59
517.37	2432.99
517.57	2775.00
517.77	2758.61
517.97	2590.68
518.17	2717.65
518.37	2574.30
518.57	2654.17
518.77	2752.47
518.97	2688.98
519.16	2719.70
519.36	2895.83
519.56	2648.02
519.76	2621.40
519.96	2650.07
520.16	2981.84
520.36	2658.26
520.56	2760.66
520.76	2568.15
520.96	2693.08
521.16	2899.92
521.35	2840.53
521.55	2811.86
521.75	2691.03
521.95	2654.17
522.15	2594.78
522.35	2441.18
522.55	2654.17
522.75	2803.67
522.95	2559.96
523.14	2473.95
523.34	2865.11
523.54	2576.34
523.74	2762.71
523.94	2772.95
524.14	2539.48
524.34	2691.03
524.54	2801.62
524.73	2645.98
524.93	2809.81
525.13	2756.57
525.33	2535.39
525.53	2891.73
525.73	2877.40
525.93	2711.51
526.13	2586.58
526.32	2633.69
526.52	2897.88
526.72	2867.16
526.92	2582.49
527.12	2588.63
527.32	2498.52
527.52	2807.77
527.71	2717.65
527.91	2678.74
528.11	2633.69
528.31	2715.61
528.51	2512.86
528.71	2715.61
528.90	2807.77
529.10	2910.16
529.30	2750.42
529.50	2424.80
529.70	2834.39
529.90	2688.98
530.09	2721.75
530.29	2537.43
530.49	2605.02
530.69	3106.77
530.89	2691.03
531.09	2662.36
531.28	2611.16
531.48	2914.26
531.68	2602.97
531.88	2750.42
532.08	2766.81
532.28	2703.32
532.47	2748.37
532.67	2772.95
532.87	2824.15
533.07	2652.12
533.27	2682.84
533.46	2723.80
533.66	2785.24
533.86	2674.65
534.06	2697.17
534.26	2738.13
534.45	2752.47
534.65	2932.69
534.85	2744.28
535.05	2617.30
535.25	2781.14
535.44	2443.23
535.64	2650.07
535.84	2635.74
536.04	2678.74
536.24	2709.46
536.43	2572.25
536.63	2717.65
536.83	2719.70
537.03	2693.08
537.22	2463.71
537.42	2539.48
537.62	2719.70
537.82	2598.87
538.02	2815.96
538.21	2754.52
538.41	3149.78
538.61	2828.24
538.81	2672.60
539.00	2803.67
539.20	2535.39
539.40	2625.50
539.60	2648.02
539.79	2830.29
539.99	2600.92
540.19	2600.92
540.39	2713.56
540.58	2721.75
540.78	2914.26
540.98	2803.67
541.18	2746.33
541.37	2801.62
541.57	2766.81
541.77	2791.38
541.97	2562.01
542.16	2478.04
542.36	2566.10
542.56	2639.83
542.76	2938.84
542.95	2703.32
543.15	2807.77
543.35	2856.92
543.54	2521.05
543.74	2592.73
543.94	2947.03
544.14	2592.73
544.33	2746.33
544.53	2738.13
544.73	2643.93
544.93	2619.35
545.12	2629.59
545.32	2680.79
545.52	2633.69
545.71	2594.78
545.91	2527.19
546.11	2596.82
546.30	2596.82
546.50	2723.80
546.70	2783.19
546.90	2738.13
547.09	2449.37
547.29	2752.47
547.49	2752.47
547.68	2645.98
547.88	2686.94
548.08	2822.10
548.27	3074.00
548.47	2559.96
548.67	2619.35
548.87	2834.39
549.06	2668.50
549.26	2654.17
549.46	2775.00
549.65	2668.50
549.85	2643.93
550.05	2715.61
550.24	2568.15
550.44	2727.89
550.64	2731.99
550.83	2602.97
551.03	2922.45
551.23	2844.63
551.42	2729.94
551.62	2641.88
551.82	2709.46
552.01	2670.55
552.21	2832.34
552.41	2711.51
552.60	2881.49
552.80	2672.60
553.00	2645.98
553.19	2639.83
553.39	2932.69
553.59	2531.29
553.78	2717.65
553.98	2611.16
554.17	2578.39
554.37	2754.52
554.57	2705.37
554.76	2473.95
554.96	2654.17
555.16	2818.00
555.35	2682.84
555.55	2789.33
555.75	2783.19
555.94	2893.78
556.14	2426.84
556.33	2633.69
556.53	2613.21
556.73	2736.09
556.92	2756.57
557.12	2736.09
557.32	2981.84
557.51	2981.84
557.71	2652.12
557.90	2836.44
558.10	2871.25
558.30	2701.27
558.49	2654.17
558.69	2684.89
558.88	2785.24
559.08	2738.13
559.28	2639.83
559.47	2699.22
559.67	2795.48
559.86	3084.24
560.06	2656.22
560.26	2578.39
560.45	2768.85
560.65	2752.47
560.84	2873.30
561.04	2578.39
561.24	2787.29
561.43	2553.82
561.63	2867.16
561.82	2779.09
562.02	2844.63
562.22	2582.49
562.41	2615.26
562.61	2635.74
562.80	2572.25
563.00	3008.47
563.19	2727.89
563.39	2688.98
563.59	2777.05
563.78	2598.87
563.98	2373.60
564.17	2576.34
564.37	2502.62
564.56	2752.47
564.76	2531.29
564.96	2850.77
565.15	2809.81
565.35	3112.91
565.54	2582.49
565.74	2719.70
565.93	2854.87
566.13	2760.66
566.32	2719.70
566.52	2738.13
566.71	2795.48
566.91	2932.69
567.11	2740.18
567.30	2592.73
567.50	2746.33
567.69	2789.33
567.89	2662.36
568.08	2574.30
568.28	2725.85
568.47	2578.39
568.67	2684.89
568.86	2662.36
569.06	2873.30
569.25	2682.84
569.45	2572.25
569.64	2660.31
569.84	2645.98
570.04	2654.17
570.23	2553.82
570.43	2691.03
570.62	2719.70
570.82	2924.50
571.01	2523.10
571.21	2564.06
571.40	2557.91
571.60	2809.81
571.79	2785.24
571.99	2725.85
572.18	2633.69
572.38	2777.05
572.57	2627.54
572.77	2680.79
572.96	3030.99
573.16	2695.13
573.35	2588.63
573.55	2783.19
573.74	2791.38
573.94	2678.74
574.13	2682.84
574.33	2854.87
574.52	2908.12
574.71	2752.47
574.91	2719.70
575.10	2588.63
575.30	2629.59
575.49	2592.73
575.69	2568.15
575.88	2703.32
576.08	2688.98
576.27	2787.29
576.47	2629.59
576.66	2854.87
576.86	2908.12
577.05	2760.66
577.25	2748.37
577.44	2818.00
577.64	2719.70
577.83	2844.63
578.02	2686.94
578.22	2815.96
578.41	2908.12
578.61	2643.93
578.80	2480.09
579.00	2703.32
579.19	2748.37
579.39	2834.39
579.58	2785.24
579.77	2695.13
579.97	2998.23
580.16	2940.88
580.36	2850.77
580.55	2785.24
580.75	2811.86
580.94	2719.70
581.13	2848.72
581.33	2889.68
581.52	2711.51
581.72	3010.51
581.91	2723.80
582.11	2664.41
582.30	2848.72
582.49	2748.37
582.69	2914.26
582.88	2723.80
583.08	2818.00
583.27	2867.16
583.47	2736.09
583.66	2658.26
583.85	2672.60
584.05	2684.89
584.24	2797.53
584.44	2750.42
584.63	2908.12
584.82	2854.87
585.02	2791.38
585.21	2787.29
585.41	2818.00
585.60	2785.24
585.79	2944.98
585.99	3055.57
586.18	2846.68
586.37	3446.73
586.57	5488.56
586.76	15896.33
586.96	35313.13
587.15	48563.48
587.34	56337.57
587.54	61037.66
587.73	54619.33
587.93	38522.29
588.12	29257.28
588.31	24057.49
588.51	21264.06
588.70	19519.19
588.89	16934.65
589.09	14468.90
589.28	12529.47
589.47	9791.34
589.67	7686.03
589.86	5904.29
590.06	4550.59
590.25	3897.28
590.44	3481.55
590.64	3074.00
590.83	2934.74
591.02	2977.75
591.22	2760.66
591.41	2783.19
591.60	2807.77
591.80	3184.59
591.99	2559.96
592.18	2711.51
592.38	2897.88
592.57	2641.88
592.76	2654.17
592.96	2707.41
593.15	2719.70
593.34	2852.82
593.54	2676.70
593.73	2701.27
593.92	2811.86
594.12	2875.35
594.31	2752.47
594.50	2889.68
594.70	2891.73
594.89	3153.87
595.08	2562.01
595.28	2826.20
595.47	3235.79
595.66	2848.72
595.86	2574.30
596.05	2564.06
596.24	2738.13
596.43	3094.48
596.63	2826.20
596.82	2750.42
597.01	2746.33
597.21	2992.08
597.40	2643.93
597.59	2742.23
597.79	2662.36
597.98	2830.29
598.17	2795.48
598.36	2678.74
598.56	2889.68
598.75	2615.26
598.94	2731.99
599.14	2711.51
599.33	2615.26
599.52	2807.77
599.71	2668.50
599.91	2764.76
600.10	2799.57
600.29	2717.65
600.48	2709.46
600.68	2785.24
600.87	2863.06
601.06	2584.54
601.26	2713.56
601.45	2750.42
601.64	2727.89
601.83	2959.31
602.03	2600.92
602.22	2564.06
602.41	2940.88
602.60	3084.24
602.80	2727.89
602.99	2813.91
603.18	2645.98
603.37	2713.56
603.57	2682.84
603.76	2707.41
603.95	2979.79
604.14	2660.31
604.34	2605.02
604.53	2654.17
604.72	2838.48
604.91	2879.44
605.10	2717.65
605.30	2555.86
605.49	2998.23
605.68	2772.95
605.87	2758.61
606.07	2686.94
606.26	2734.04
606.45	2750.42
606.64	2709.46
606.84	2584.54
607.03	2723.80
607.22	2918.36
607.41	2723.80
607.60	2658.26
607.80	2998.23
607.99	2703.32
608.18	2648.02
608.37	2703.32
608.56	2547.67
608.76	2885.59
608.95	2916.31
609.14	2682.84
609.33	2906.07
609.52	2910.16
609.72	2795.48
609.91	2711.51
610.10	2797.53
610.29	2891.73
610.48	2775.00
610.68	2695.13
610.87	2725.85
611.06	2861.01
611.25	2648.02
611.44	2764.76
611.63	2699.22
611.83	2887.64
612.02	2523.10
612.21	2828.24
612.40	2484.19
612.59	2615.26
612.79	2584.54
612.98	2715.61
613.17	3041.23
613.36	2686.94
613.55	2787.29
613.74	2588.63
613.93	2797.53
614.13	2820.05
614.32	2904.02
614.51	2799.57
614.70	2713.56
614.89	2697.17
615.08	2760.66
615.28	3092.43
615.47	2559.96
615.66	2750.42
615.85	2717.65
616.04	2758.61
616.23	2752.47
616.42	2670.55
616.62	2684.89
616.81	2731.99
617.00	2719.70
617.19	2856.92
617.38	2625.50
617.57	2623.45
617.76	2838.48
617.95	2920.40
618.15	2695.13
618.34	2865.11
618.53	2623.45
618.72	2916.31
618.91	2793.43
619.10	2754.52
619.29	2738.13
619.48	2684.89
619.68	2541.53
619.87	2588.63
620.06	2562.01
620.25	2869.20
620.44	2615.26
620.63	2617.30
620.82	2766.81
621.01	2787.29
621.20	2744.28
621.39	2711.51
621.59	2746.33
621.78	2674.65
621.97	2729.94
622.16	2746.33
622.35	2766.81
622.54	2799.57
622.73	2791.38
622.92	2510.81
623.11	2854.87
623.30	2709.46
623.49	2740.18
623.68	2596.82
623.88	2940.88
624.07	2721.75
624.26	2623.45
624.45	2693.08
624.64	2686.94
624.83	2787.29
625.02	2664.41
625.21	2738.13
625.40	2736.09
625.59	2930.64
625.78	2686.94
625.97	2820.05
626.16	2914.26
626.35	2832.34
626.54	2713.56
626.74	2955.22
626.93	2666.46
627.12	2717.65
627.31	2736.09
627.50	2748.37
627.69	2828.24
627.88	2580.44
628.07	2562.01
628.26	2531.29
628.45	2701.27
628.64	2598.87
628.83	2598.87
629.02	2629.59
629.21	2815.96
629.40	2709.46
629.59	2617.30
629.78	2580.44
629.97	2717.65
630.16	2684.89
630.35	2729.94
630.54	2783.19
630.73	2582.49
630.92	2707.41
631.11	2545.63
631.30	2670.55
631.49	2928.60
631.68	2668.50
631.87	2609.11
632.06	2551.77
632.25	3088.34
632.44	2703.32
632.63	2666.46
632.82	2629.59
633.01	2633.69
633.20	2740.18
633.39	2637.78
633.58	2512.86
633.77	2721.75
633.96	2822.10
634.15	2756.57
634.34	2711.51
634.53	2781.14
634.72	2695.13
634.91	2494.43
635.10	2695.13
635.29	2797.53
635.48	2785.24
635.67	2586.58
635.86	2527.19
636.05	2885.59
636.24	2731.99
636.43	2641.88
636.62	2734.04
636.81	2342.88
637.00	2721.75
637.19	2658.26
637.38	2713.56
637.57	2623.45
637.76	2731.99
637.95	2908.12
638.14	2688.98
638.33	2828.24
638.52	2805.72
638.71	2510.81
638.89	2535.39
639.08	3145.68
639.27	2850.77
639.46	2842.58
639.65	3100.62
639.84	3147.73
640.03	3426.25
640.22	2985.94
640.41	3049.43
640.60	2895.83
640.79	2990.03
640.98	2807.77
641.17	2824.15
641.36	2918.36
641.55	2899.92
641.74	2525.15
641.92	2535.39
642.11	2605.02
642.30	2793.43
642.49	2574.30
642.68	2592.73
642.87	2789.33
643.06	2766.81
643.25	2535.39
643.44	2582.49
643.63	2717.65
643.82	2807.77
644.00	2535.39
644.19	2680.79
644.38	2627.54
644.57	2727.89
644.76	2731.99
644.95	2605.02
645.14	2783.19
645.33	2656.22
645.52	2711.51
645.71	2482.14
645.89	2568.15
646.08	2701.27
646.27	2670.55
646.46	2912.21
646.65	2576.34
646.84	2781.14
647.03	2600.92
647.22	2858.96
647.40	2785.24
647.59	2645.98
647.78	2441.18
647.97	2607.06
648.16	2621.40
648.35	2883.54
648.54	2826.20
648.73	2621.40
648.91	2815.96
649.10	2721.75
649.29	2611.16
649.48	2568.15
649.67	2791.38
649.86	2797.53
650.05	2641.88
650.23	2838.48
650.42	2719.70
650.61	3065.81
650.80	2799.57
650.99	2891.73
651.18	2883.54
651.36	2918.36
651.55	2600.92
651.74	2822.10
651.93	2731.99
652.12	2662.36
652.31	2721.75
652.49	2656.22
652.68	2670.55
652.87	2973.65
653.06	2703.32
653.25	2895.83
653.44	2723.80
653.62	2992.08
653.81	2678.74
654.00	2678.74
654.19	2881.49
654.38	3125.20
654.56	2701.27
654.75	2641.88
654.94	2813.91
655.13	2734.04
655.32	2674.65
655.51	2705.37
655.69	2572.25
655.88	2818.00
656.07	2625.50
656.26	2682.84
656.45	2547.67
656.63	2691.03
656.82	2686.94
657.01	2850.77
657.20	2674.65
657.38	2928.60
657.57	2674.65
657.76	2510.81
657.95	2820.05
658.14	2693.08
658.32	2695.13
658.51	2549.72
658.70	2688.98
658.89	2701.27
659.08	2623.45
659.26	2805.72
659.45	2572.25
659.64	2775.00
659.83	2625.50
660.01	3026.90
660.20	2621.40
660.39	2922.45
660.58	2357.21
660.76	2791.38
660.95	2463.71
661.14	2729.94
661.33	2539.48
661.51	2553.82
661.70	2607.06
661.89	2758.61
662.08	2629.59
662.26	2490.33
662.45	2613.21
662.64	2992.08
662.83	2727.89
663.01	2512.86
663.20	2686.94
663.39	2973.65
663.58	2641.88
663.76	2592.73
663.95	2828.24
664.14	2547.67
664.32	2652.12
664.51	2494.43
664.70	2543.58
664.89	2738.13
665.07	2553.82
665.26	2842.58
665.45	2541.53
665.64	2729.94
665.82	2650.07
666.01	2811.86
666.20	2586.58
666.38	2871.25
666.57	2963.41
666.76	4224.96
666.95	9987.94
667.13	17032.96
667.32	21063.36
667.51	24069.78
667.69	25095.81
667.88	21651.13
668.07	15249.18
668.25	12822.33
668.44	11011.93
668.63	9535.34
668.81	8441.73
669.00	7317.39
669.19	6674.33
669.38	5793.70
669.56	4853.69
669.75	4231.10
669.94	3719.11
670.12	3221.45
670.31	2967.51
670.50	2826.20
670.68	2869.20
670.87	2813.91
671.06	2678.74
671.24	2772.95
671.43	2932.69
671.62	2729.94
671.80	2650.07
671.99	2781.14
672.18	2811.86
672.36	2858.96
672.55	2799.57
672.74	2666.46
672.92	2731.99
673.11	2789.33
673.29	2564.06
673.48	2775.00
673.67	2750.42
673.85	2877.40
674.04	2553.82
674.23	2762.71
674.41	2914.26
674.60	2635.74
674.79	2527.19
674.97	2510.81
675.16	2766.81
675.34	2787.29
675.53	2602.97
675.72	2723.80
675.90	2953.17
676.09	2652.12
676.28	2680.79
676.46	2527.19
676.65	2858.96
676.83	2547.67
677.02	2715.61
677.21	2684.89
677.39	2781.14
677.58	2594.78
677.77	2607.06
677.95	2562.01
678.14	2699.22
678.32	2633.69
678.51	2621.40
678.70	2949.08
678.88	2703.32
679.07	2736.09
679.25	2691.03
679.44	2750.42
679.63	2533.34
679.81	2738.13
680.00	2789.33
680.18	2744.28
680.37	2924.50
680.55	2760.66
680.74	2502.62
680.93	2492.38
681.11	2744.28
681.30	2650.07
681.48	2805.72
681.67	2715.61
681.85	2727.89
682.04	2588.63
682.23	2768.85
682.41	2793.43
682.60	2693.08
682.78	2727.89
682.97	2545.63
683.15	2664.41
683.34	2731.99
683.53	2947.03
683.71	2506.71
683.90	2822.10
684.08	2963.41
684.27	2750.42
684.45	2725.85
684.64	2822.10
684.82	2660.31
685.01	2775.00
685.19	2609.11
685.38	2910.16
685.57	2650.07
685.75	2643.93
685.94	2643.93
686.12	2504.67
686.31	2703.32
686.49	2914.26
686.68	2523.10
686.86	2645.98
687.05	2723.80
687.23	2899.92
687.42	2574.30
687.60	2504.67
687.79	2912.21
687.97	2932.69
688.16	2852.82
688.34	2834.39
688.53	2508.76
688.71	2846.68
688.90	2867.16
689.08	2674.65
689.27	2482.14
689.45	2836.44
689.64	2713.56
689.82	2723.80
690.01	2818.00
690.19	2768.85
690.38	2740.18
690.56	2818.00
690.75	2580.44
690.93	2627.54
691.12	2553.82
691.30	2691.03
691.49	2680.79
691.67	2707.41
691.86	2889.68
692.04	2629.59
692.23	2623.45
692.41	2711.51
692.60	2965.46
692.78	2799.57
692.97	2731.99
693.15	2848.72
693.34	2875.35
693.52	2803.67
693.71	2643.93
693.89	2664.41
694.08	2480.09
694.26	2715.61
694.44	2842.58
694.63	2842.58
694.81	2641.88
695.00	2631.64
695.18	2912.21
695.37	2979.79
695.55	2781.14
695.74	2627.54
695.92	2611.16
696.10	2916.31
696.29	2449.37
696.47	2590.68
696.66	2543.58
696.84	2605.02
697.03	2666.46
697.21	2875.35
697.40	4126.66
697.58	2883.54
697.76	2594.78
697.95	2594.78
698.13	2596.82
698.32	2662.36
698.50	2654.17
698.68	2727.89
698.87	2832.34
699.05	2947.03
699.24	2676.70
699.42	2590.68
699.61	2840.53
699.79	2666.46
699.97	2611.16
700.16	2545.63
700.34	2600.92
700.53	2742.23
700.71	2901.97
700.89	2785.24
701.08	2711.51
701.26	2725.85
701.45	3170.26
701.63	2562.01
701.81	2674.65
702.00	2576.34
702.18	2738.13
702.37	2562.01
702.55	2916.31
702.73	2834.39
702.92	2605.02
703.10	2961.36
703.28	2906.07
703.47	2652.12
703.65	2936.79
703.84	2815.96
704.02	2709.46
704.20	3053.52
704.39	2541.53
704.57	2648.02
704.75	2869.20
704.94	2828.24
705.12	2707.41
705.30	3117.01
705.49	5834.66
705.67	11632.46
705.86	17831.66
706.04	20508.36
706.22	22775.46
706.41	22562.47
706.59	17669.87
706.77	13250.36
706.96	11677.52
707.14	10256.23
707.32	9027.45
707.51	7942.02
707.69	6508.44
707.87	5306.29
708.06	4552.63
708.24	3817.41
708.42	3299.28
708.61	3395.53
708.79	2713.56
708.97	2742.23
709.16	2789.33
709.34	2754.52
709.52	2637.78
709.71	2645.98
709.89	2885.59
710.07	2584.54
710.26	2527.19
710.44	2629.59
710.62	2838.48
710.80	2668.50
710.99	2848.72
711.17	2697.17
711.35	2631.64
711.54	2609.11
711.72	2873.30
711.90	2770.90
712.09	2758.61
712.27	2650.07
712.45	2742.23
712.63	2682.84
712.82	2768.85
713.00	2703.32
713.18	2783.19
713.37	2797.53
713.55	2801.62
713.73	2789.33
713.91	2746.33
714.10	2666.46
714.28	2744.28
714.46	2791.38
714.65	2727.89
714.83	2736.09
715.01	2609.11
715.19	2723.80
715.38	2592.73
715.56	2797.53
715.74	2676.70
715.92	2557.91
716.11	2867.16
716.29	2467.80
716.47	2652.12
716.65	2668.50
716.84	2469.85
717.02	2783.19
717.20	2496.47
717.38	2656.22
717.57	2748.37
717.75	2686.94
717.93	2629.59
718.11	2809.81
718.30	2553.82
718.48	2719.70
718.66	2924.50
718.84	2854.87
719.03	2660.31
719.21	2537.43
719.39	2910.16
719.57	2848.72
719.75	2768.85
719.94	2586.58
720.12	2643.93
720.30	2713.56
720.48	2752.47
720.67	2596.82
720.85	2621.40
721.03	2607.06
721.21	2629.59
721.39	2795.48
721.58	2777.05
721.76	2744.28
721.94	2734.04
722.12	2736.09
722.30	3006.42
722.49	2674.65
722.67	2699.22
722.85	2709.46
723.03	2494.43
723.21	2648.02
723.40	2770.90
723.58	2789.33
723.76	2824.15
723.94	2924.50
724.12	2686.94
724.30	2865.11
724.49	2861.01
724.67	2680.79
724.85	2799.57
725.03	2424.80
725.21	2801.62
725.40	2875.35
725.58	2598.87
725.76	2885.59
725.94	2764.76
726.12	2598.87
726.30	2605.02
726.49	2648.02
726.67	2621.40
726.85	2822.10
727.03	3123.15
727.21	4057.03
727.39	5177.26
727.57	5650.35
727.76	6021.03
727.94	6154.15
728.12	5593.00
728.30	4550.59
728.48	4231.10
728.66	3964.87
728.84	3813.32
729.03	3370.96
729.21	3186.64
729.39	2947.03
729.57	2815.96
729.75	2832.34
729.93	2787.29
730.11	2633.69
730.30	2680.79
730.48	2695.13
730.66	2805.72
730.84	2795.48
731.02	2768.85
731.20	2592.73
731.38	2693.08
731.56	2500.57
731.74	2572.25
731.93	2729.94
732.11	2684.89
732.29	2578.39
732.47	2777.05
732.65	2830.29
732.83	2832.34
733.01	2707.41
733.19	2693.08
733.37	2756.57
733.56	2809.81
733.74	2592.73
733.92	2961.36
734.10	2594.78
734.28	2783.19
734.46	2510.81
734.64	2709.46
734.82	2645.98
735.00	2588.63
735.18	2670.55
735.36	2713.56
735.54	2727.89
735.73	2619.35
735.91	2688.98
736.09	2928.60
736.27	2670.55
736.45	2699.22
736.63	2475.99
736.81	2721.75
736.99	2914.26
737.17	2932.69
737.35	2674.65
737.53	2797.53
737.71	2674.65
737.89	2824.15
738.07	2570.20
738.25	2664.41
738.43	2584.54
738.61	2645.98
738.80	2576.34
738.98	2547.67
739.16	2676.70
739.34	2648.02
739.52	2928.60
739.70	2656.22
739.88	2830.29
740.06	2822.10
740.24	2424.80
740.42	2865.11
740.60	2490.33
740.78	2596.82
740.96	2471.90
741.14	2678.74
741.32	2760.66
741.50	2523.10
741.68	2912.21
741.86	2834.39
742.04	2545.63
742.22	2562.01
742.40	2701.27
742.58	2844.63
742.76	2641.88
742.94	2801.62
743.12	2508.76
743.30	2760.66
743.48	2764.76
743.66	2586.58
743.84	2666.46
744.02	2770.90
744.20	2666.46
744.38	2559.96
744.56	2619.35
744.74	2947.03
744.92	2842.58
745.10	2942.93
745.28	2762.71
745.46	2969.55
745.64	2668.50
745.82	2799.57
746.00	2619.35
746.18	2811.86
746.36	2521.05
746.54	2664.41
746.72	2650.07
746.90	2576.34
747.08	2861.01
747.26	2664.41
747.44	2807.77
747.62	2846.68
747.80	2777.05
747.98	2727.89
748.15	2678.74
748.33	2998.23
748.51	2719.70
748.69	2775.00
748.87	2574.30
749.05	2637.78
749.23	2674.65
749.41	2709.46
749.59	2531.29
749.77	2869.20
749.95	2707.41
750.13	2668.50
750.31	2756.57
750.49	2629.59
750.67	2791.38
750.85	2760.66
751.03	2625.50
751.20	3028.95
751.38	2801.62
751.56	2674.65
751.74	2736.09
751.92	2719.70
752.10	2514.91
752.28	2740.18
752.46	2656.22
752.64	2717.65
752.82	2772.95
753.00	2777.05
753.18	2666.46
753.35	2670.55
753.53	2707.41
753.71	2566.10
753.89	2699.22
754.07	2693.08
754.25	2856.92
754.43	2686.94
754.61	2629.59
754.79	2752.47
754.97	2729.94
755.14	2807.77
755.32	2439.13
755.50	2725.85
755.68	2770.90
755.86	2502.62
756.04	2607.06
756.22	2398.17
756.40	2863.06
756.57	2906.07
756.75	2664.41
756.93	2916.31
757.11	2838.48
757.29	2527.19
757.47	2514.91
757.65	2494.43
757.82	2373.60
758.00	2514.91
758.18	2621.40
758.36	2537.43
758.54	2920.40
758.72	2480.09
758.90	2799.57
759.07	2826.20
759.25	2615.26
759.43	2744.28
759.61	2453.47
759.79	3899.33
759.97	2760.66
760.15	2576.34
760.32	2648.02
760.50	2777.05
760.68	3022.80
760.86	2514.91
761.04	2850.77
761.22	2834.39
761.39	2635.74
761.57	2809.81
761.75	2652.12
761.93	2867.16
762.11	2777.05
762.28	2660.31
762.46	2521.05
762.64	2854.87
762.82	2488.28
763.00	2586.58
763.18	2856.92
763.35	2535.39
763.53	2838.48
763.71	2688.98
763.89	2600.92
764.07	2734.04
764.24	2705.37
764.42	2734.04
764.60	2615.26
764.78	2777.05
764.96	2781.14
765.13	2768.85
765.31	2697.17
765.49	2762.71
765.67	2566.10
765.84	2588.63
766.02	2602.97
766.20	2498.52
766.38	2756.57
766.56	2678.74
766.73	2729.94
766.91	2686.94
767.09	2688.98
767.27	2744.28
767.44	2568.15
767.62	2772.95
767.80	2822.10
767.98	2643.93
768.15	2664.41
768.33	2873.30
768.51	2852.82
768.69	2719.70
768.87	2676.70
769.04	2715.61
769.22	3080.14
769.40	2858.96
769.58	2858.96
769.75	2727.89
769.93	2887.64
770.11	2652.12
770.28	2504.67
770.46	2785.24
770.64	2740.18
770.82	2672.60
770.99	2609.11
771.17	2848.72
771.35	2666.46
771.53	2633.69
771.70	2633.69
771.88	2680.79
772.06	2695.13
772.23	2566.10
772.41	2719.70
772.59	2664.41
772.77	2625.50
772.94	2637.78
773.12	2750.42
773.30	2695.13
773.47	2764.76
773.65	2543.58
773.83	2883.54
774.01	2691.03
774.18	2465.75
774.36	2688.98
774.54	2512.86
774.71	2766.81
774.89	2529.24
775.07	2547.67
775.24	2572.25
775.42	2643.93
775.60	2957.27
775.78	2611.16
775.95	2500.57
776.13	2494.43
776.31	2457.56
776.48	2721.75
776.66	2811.86
776.84	2658.26
777.01	2559.96
777.19	2551.77
777.37	2521.05
777.54	2801.62
777.72	2996.18
777.90	2734.04
778.07	2570.20
778.25	3178.45
778.43	2809.81
778.60	2564.06
778.78	2785.24
778.96	2895.83
779.13	2510.81
779.31	2736.09
779.49	2668.50
779.66	2621.40
779.84	2645.98
780.01	2590.68
780.19	2564.06
780.37	2963.41
780.54	2838.48
780.72	2564.06
780.90	2609.11
781.07	2660.31
781.25	2613.21
781.43	2815.96
781.60	2613.21
781.78	2904.02
781.95	2731.99
782.13	2609.11
782.31	2619.35
782.48	2428.89
782.66	2711.51
782.83	2899.92
783.01	2691.03
783.19	2795.48
783.36	2633.69
783.54	2555.86
783.72	2791.38
783.89	2695.13
784.07	2754.52
784.24	2703.32
784.42	2805.72
784.60	2670.55
784.77	2781.14
784.95	2471.90
785.12	2650.07
785.30	2783.19
785.47	2572.25
785.65	2600.92
785.83	2658.26
786.00	2676.70
786.18	2705.37
786.35	2578.39
786.53	2492.38
786.71	2887.64
786.88	2746.33
787.06	2705.37
787.23	2654.17
787.41	2535.39
787.58	2701.27
787.76	2611.16
787.94	2668.50
788.11	2785.24
788.29	2557.91
788.46	2598.87
788.64	2519.00
788.81	2562.01
788.99	2645.98
789.16	2564.06
789.34	2676.70
789.52	2668.50
789.69	2676.70
789.87	2430.94
790.04	2682.84
790.22	2629.59
790.39	2992.08
790.57	2648.02
790.74	2516.95
790.92	2861.01
791.09	2420.70
791.27	2703.32
791.44	2738.13
791.62	2660.31
791.79	2811.86
791.97	2693.08
792.15	2994.13
792.32	2861.01
792.50	2791.38
792.67	2832.34
792.85	2893.78
793.02	2809.81
793.20	2721.75
793.37	2586.58
793.55	2627.54
793.72	2514.91
793.90	2858.96
794.07	2559.96
794.25	2592.73
794.42	2756.57
794.60	2703.32
794.77	2668.50
794.95	2717.65
795.12	2793.43
795.30	2680.79
795.47	2430.94
795.65	2949.08
795.82	2838.48
796.00	2596.82
796.17	2654.17
796.34	2592.73
796.52	2695.13
796.69	2838.48
796.87	2727.89
797.04	2811.86
797.22	2865.11
797.39	2852.82
797.57	2836.44
797.74	2734.04
797.92	2699.22
798.09	2600.92
798.27	2899.92
798.44	2578.39
798.62	2592.73
798.79	2785.24
798.96	2705.37
799.14	2625.50
799.31	3174.35
799.49	2652.12
799.66	2613.21
799.84	2682.84
800.01	2594.78
800.19	2648.02
800.36	2504.67
800.53	2654.17
800.71	2725.85
800.88	2955.22
801.06	2596.82
801.23	2633.69
801.41	2701.27
801.58	2666.46
801.75	2545.63
801.93	2637.78
802.10	2867.16
802.28	2557.91
802.45	2605.02
802.63	2758.61
802.80	2914.26
802.97	2668.50
803.15	2754.52
803.32	2682.84
803.50	2654.17
803.67	2588.63
803.84	2594.78
804.02	2688.98
804.19	2625.50
804.37	2430.94
804.54	2568.15
804.71	2549.72
804.89	2688.98
805.06	2576.34
805.24	2496.47
805.41	2504.67
805.58	2607.06
805.76	3037.14
805.93	2674.65
806.10	2840.53
806.28	2791.38
806.45	2744.28
806.63	2760.66
806.80	2693.08
806.97	2693.08
807.15	2746.33
807.32	2760.66
807.49	2701.27
807.67	2527.19
807.84	2766.81
808.01	2525.15
808.19	2811.86
808.36	2942.93
808.54	2641.88
808.71	2523.10
808.88	2668.50
809.06	2799.57
809.23	2965.46
809.40	2609.11
809.58	2691.03
809.75	2645.98
809.92	2529.24
810.10	2944.98
810.27	2717.65
810.44	2797.53
810.62	2779.09
810.79	2666.46
810.96	2625.50
811.14	2691.03
811.31	2760.66
811.48	2731.99
811.66	2652.12
811.83	2893.78
812.00	2762.71
812.18	2654.17
812.35	2904.02
812.52	2635.74
812.69	2654.17
812.87	2539.48
813.04	2543.58
813.21	2670.55
813.39	2764.76
813.56	2543.58
813.73	2826.20
813.91	2529.24
814.08	2779.09
814.25	2660.31
814.42	2492.38
814.60	2645.98
814.77	2723.80
814.94	2568.15
815.12	2711.51
815.29	2916.31
815.46	2680.79
815.63	2658.26
815.81	2617.30
815.98	2670.55
816.15	2775.00
816.33	2635.74
816.50	2629.59
816.67	2709.46
816.84	2713.56
817.02	2469.85
817.19	2643.93
817.36	2783.19
817.53	2834.39
817.71	2439.13
817.88	2686.94
818.05	2744.28
818.22	2613.21
818.40	2840.53
818.57	2598.87
818.74	2779.09
818.91	2619.35
819.09	2736.09
819.26	2777.05
819.43	2590.68
819.60	2652.12
819.78	2717.65
819.95	2789.33
820.12	2562.01
820.29	2924.50
820.47	2852.82
820.64	2627.54
820.81	2555.86
820.98	2545.63
821.15	2686.94
821.33	2754.52
821.50	2537.43
821.67	2740.18
821.84	2607.06
822.02	2678.74
822.19	2844.63
822.36	2668.50
822.53	2543.58
822.70	2559.96
822.88	2666.46
823.05	2949.08
823.22	2654.17
823.39	2693.08
823.56	2717.65
823.74	3016.66
823.91	2529.24
824.08	2535.39
824.25	2549.72
824.42	2965.46
824.60	2588.63
824.77	2750.42
824.94	2664.41
825.11	2777.05
825.28	2580.44
825.45	2686.94
825.63	2750.42
825.80	2521.05
825.97	2738.13
826.14	2631.64
826.31	2412.51
826.48	2820.05
826.66	2635.74
826.83	2672.60
827.00	2629.59
827.17	2547.67
827.34	2633.69
827.51	2617.30
827.69	2695.13
827.86	2473.95
828.03	2617.30
828.20	2654.17
828.37	2598.87
828.54	2838.48
828.71	2559.96
828.89	2734.04
829.06	2750.42
829.23	2944.98
829.40	2602.97
829.57	2543.58
829.74	2811.86
829.91	2566.10
830.09	2555.86
830.26	2703.32
830.43	2930.64
830.60	2643.93
830.77	2758.61
830.94	2785.24
831.11	2873.30
831.28	2711.51
831.46	2699.22
831.63	2615.26
831.80	2844.63
831.97	2633.69
832.14	2695.13
832.31	2686.94
832.48	2748.37
832.65	2850.77
832.82	2680.79
832.99	2680.79
833.17	2488.28
833.34	2963.41
833.51	2709.46
833.68	2410.46
833.85	2899.92
834.02	2498.52
834.19	2576.34
834.36	2582.49
834.53	2725.85
834.70	2930.64
834.87	2719.70
835.04	2525.15
835.22	2568.15
835.39	2676.70
835.56	2457.56
835.73	2586.58
835.90	2889.68
836.07	2586.58
836.24	2736.09
836.41	2529.24
836.58	2639.83
836.75	2854.87
836.92	2580.44
837.09	2500.57
837.26	2809.81
837.43	2867.16
837.60	2621.40
837.77	2541.53
837.94	2764.76
838.12	2836.44
838.29	2549.72
838.46	2510.81
838.63	2539.48
838.80	2969.55
838.97	2594.78
839.14	2420.70
839.31	2744.28
839.48	2754.52
839.65	2459.61
839.82	2721.75
839.99	2693.08
840.16	2793.43
840.33	2516.95
840.50	2639.83
840.67	2547.67
840.84	2379.74
841.01	2562.01
841.18	2529.24
841.35	2572.25
841.52	2879.44
841.69	2818.00
841.86	2633.69
842.03	2789.33
842.20	2916.31
842.37	2519.00
842.54	2605.02
842.71	2772.95
842.88	2473.95
843.05	2531.29
843.22	2516.95
843.39	2801.62
843.56	2586.58
843.73	2555.86
843.90	2584.54
844.07	2887.64
844.24	2758.61
844.41	2648.02
844.58	2602.97
844.75	2760.66
844.92	2711.51
845.09	2537.43
845.26	2564.06
845.43	2842.58
845.60	2682.84
845.77	2553.82
845.94	2648.02
846.10	2838.48
846.27	2484.19
846.44	2478.04
846.61	2453.47
846.78	2797.53
846.95	2885.59
847.12	2504.67
847.29	2529.24
847.46	2670.55
847.63	2748.37
847.80	2469.85
847.97	2496.47
848.14	3047.38
848.31	2641.88
848.48	2482.14
848.65	2557.91
848.82	2674.65
848.98	3125.20
849.15	2664.41
849.32	2645.98
849.49	2799.57
849.66	2680.79
849.83	2551.77
850.00	2502.62
850.17	2775.00
850.34	2705.37
850.51	2488.28
850.68	2592.73
850.85	2996.18
851.01	2766.81
851.18	2572.25
851.35	2623.45
851.52	2842.58
851.69	2920.40
851.86	2502.62
852.03	2523.10
852.20	2818.00
852.37	2637.78
852.53	2406.36
852.70	2512.86
852.87	2725.85
853.04	2727.89
853.21	2519.00
853.38	2670.55
853.55	2930.64
853.72	2934.74
853.89	2498.52
854.05	2514.91
854.22	2650.07
854.39	2662.36
854.56	2559.96
854.73	2662.36
854.90	2617.30
855.07	2707.41
855.23	2447.32
855.40	2572.25
855.57	2633.69
855.74	2412.51
855.91	2711.51
856.08	2570.20
856.25	2488.28
856.41	2723.80
856.58	2623.45
856.75	2516.95
856.92	2488.28
857.09	2754.52
857.26	2451.42
857.42	2559.96
857.59	2791.38
857.76	2637.78
857.93	2619.35
858.10	2648.02
858.27	2523.10
858.43	2740.18
858.60	2570.20
858.77	2471.90
858.94	2605.02
859.11	2830.29
859.27	2596.82
859.44	2457.56
859.61	3078.10
859.78	2777.05
859.95	2539.48
860.12	2455.51
860.28	3102.67
860.45	2985.94
860.62	2482.14
860.79	2566.10
860.95	2695.13
861.12	2631.64
861.29	2533.34
861.46	2519.00
861.63	2705.37
861.79	2766.81
861.96	2437.08
862.13	2492.38
862.30	2865.11
862.47	2688.98
862.63	2488.28
862.80	2584.54
862.97	2883.54
863.14	2764.76
863.30	2594.78
863.47	2475.99
863.64	2942.93
863.81	2719.70
863.97	2478.04
864.14	2564.06
864.31	2729.94
864.48	2766.81
864.65	2465.75
864.81	2686.94
864.98	2760.66
865.15	2908.12
865.32	2678.74
865.48	2623.45
865.65	2979.79
865.82	2637.78
865.98	2633.69
866.15	2588.63
866.32	2754.52
866.49	2697.17
866.65	2695.13
866.82	2570.20
866.99	2736.09
867.16	2635.74
867.32	2557.91
867.49	2527.19
867.66	2695.13
867.83	2551.77
867.99	2467.80
868.16	2594.78
868.33	2564.06
868.49	2670.55
868.66	2568.15
868.83	2627.54
868.99	2658.26
869.16	2731.99
869.33	2674.65
869.50	2627.54
869.66	2750.42
869.83	2658.26
870.00	2461.66
870.16	2727.89
870.33	2686.94
870.50	2830.29
870.66	2537.43
870.83	2674.65
871.00	2691.03
871.17	2813.91
871.33	2625.50
871.50	2562.01
871.67	2662.36
871.83	2473.95
872.00	2672.60
872.17	2605.02
872.33	2971.60
872.50	2832.34
872.67	2617.30
872.83	2525.15
873.00	2818.00
873.17	2629.59
873.33	2633.69
873.50	2633.69
873.67	2668.50
873.83	2566.10
874.00	2529.24
874.16	2697.17
874.33	2666.46
874.50	2527.19
874.66	2480.09
874.83	2711.51
875.00	2895.83
875.16	2846.68
875.33	2613.21
875.50	2400.22
875.66	2684.89
875.83	2775.00
875.99	2664.41
876.16	2570.20
876.33	2537.43
876.49	2652.12
876.66	2648.02
876.83	2588.63
876.99	2543.58
877.16	2676.70
877.32	2500.57
877.49	2576.34
877.66	2783.19
877.82	2944.98
877.99	2590.68
878.15	2707.41
878.32	2654.17
878.49	2699.22
878.65	2580.44
878.82	2820.05
878.98	2619.35
879.15	2861.01
879.32	2697.17
879.48	2742.23
879.65	2664.41
879.81	2582.49
879.98	2629.59
880.15	2602.97
880.31	2799.57
880.48	2623.45
880.64	2676.70
880.81	2719.70
880.97	2947.03
881.14	2791.38
881.31	2519.00
881.47	2744.28
881.64	2762.71
881.80	2416.60
881.97	2736.09
882.13	2545.63
882.30	2629.59
882.47	2627.54
882.63	2533.34
882.80	2471.90
882.96	2750.42
883.13	2826.20
883.29	2555.86
883.46	2502.62
883.62	3028.95
883.79	2705.37
883.95	2672.60
884.12	2586.58
884.29	2861.01
884.45	2641.88
884.62	2621.40
884.78	2506.71
884.95	2897.88
885.11	2553.82
885.28	2668.50
885.44	2609.11
885.61	2803.67
885.77	2844.63
885.94	2637.78
886.10	2594.78
886.27	2701.27
886.43	2883.54
886.60	2758.61
886.76	2592.73
886.93	2588.63
887.09	2762.71
887.26	2422.75
887.42	2637.78
887.59	2856.92
887.75	3041.23
887.92	2768.85
888.08	2688.98
888.25	2918.36
888.41	2879.44
888.58	2605.02
888.74	2504.67
888.91	2615.26
>>>>>End Processed Spectral Data<<<<<
