SpectraSuite Data File
++++++++++++++++++++++++++++++++++++
Date: Thu May 05 16:20:45 CEST 2016
User: root
Dark Spectrum Present: No
Reference Spectrum Present: No
Number of Sampled Component Spectra: 1
Spectrometers: USB4C02835
Integration Time (usec): 100000 (USB4C02835)
Spectra Averaged: 1 (USB4C02835)
Boxcar Smoothing: 0 (USB4C02835)
Correct for Electrical Dark: No (USB4C02835)
Strobe/Lamp Enabled: No (USB4C02835)
Correct for Detector Non-linearity: No (USB4C02835)
Correct for Stray Light: No (USB4C02835)
Number of Pixels in Processed Spectrum: 3648
>>>>>Begin Processed Spectral Data<<<<<
177.47	2064.35
177.69	2064.35
177.91	2064.35
178.13	2068.45
178.36	2031.58
178.58	2592.73
178.80	2744.28
179.02	2498.52
179.24	2607.06
179.46	2451.42
179.68	2449.37
179.90	2719.70
180.13	2799.57
180.35	2367.45
180.57	2441.18
180.79	2824.15
181.01	2648.02
181.23	2523.10
181.45	2609.11
181.67	2883.54
181.90	2920.40
182.12	2498.52
182.34	2381.79
182.56	2826.20
182.78	2740.18
183.00	2435.03
183.22	2461.66
183.44	2502.62
183.66	3164.11
183.89	2619.35
184.11	2519.00
184.33	2815.96
184.55	2961.36
184.77	2539.48
184.99	2457.56
185.21	2664.41
185.43	3117.01
185.65	2519.00
185.87	2496.47
186.10	3014.61
186.32	3135.44
186.54	2590.68
186.76	2582.49
186.98	2858.96
187.20	2668.50
187.42	2465.75
187.64	2502.62
187.86	2854.87
188.08	2957.27
188.30	2439.13
188.52	2488.28
188.75	2916.31
188.97	2877.40
189.19	2437.08
189.41	2478.04
189.63	2813.91
189.85	2705.37
190.07	2449.37
190.29	2408.41
190.51	2676.70
190.73	2478.04
190.95	2693.08
191.17	2531.29
191.39	2422.75
191.61	2713.56
191.84	2439.13
192.06	2615.26
192.28	2490.33
192.50	3170.26
192.72	2631.64
192.94	2539.48
193.16	2926.55
193.38	2738.13
193.60	2443.23
193.82	2580.44
194.04	2897.88
194.26	2742.23
194.48	2478.04
194.70	2545.63
194.92	2650.07
195.14	2809.81
195.36	2459.61
195.58	2607.06
195.80	2686.94
196.02	2680.79
196.24	2480.09
196.46	2535.39
196.69	2605.02
196.91	3117.01
197.13	2473.95
197.35	2523.10
197.57	2918.36
197.79	2873.30
198.01	2498.52
198.23	2533.34
198.45	2705.37
198.67	2598.87
198.89	2404.32
199.11	2590.68
199.33	2633.69
199.55	2465.75
199.77	2480.09
199.99	2721.75
200.21	2660.31
200.43	2682.84
200.65	2328.54
200.87	2381.79
201.09	2725.85
201.31	2713.56
201.53	2521.05
201.75	2584.54
201.97	2793.43
202.19	2670.55
202.41	2588.63
202.63	2729.94
202.85	2756.57
203.07	2750.42
203.29	2576.34
203.51	2424.80
203.73	2602.97
203.95	3100.62
204.17	2467.80
204.39	2621.40
204.61	2725.85
204.83	2527.19
205.05	2588.63
205.27	2519.00
205.49	3039.19
205.71	2762.71
205.93	2426.84
206.15	2408.41
206.37	2795.48
206.59	2701.27
206.81	2410.46
207.03	2420.70
207.25	2578.39
207.47	2754.52
207.69	2521.05
207.91	2731.99
208.13	2922.45
208.34	2609.11
208.56	2471.90
208.78	2480.09
209.00	2707.41
209.22	2678.74
209.44	2498.52
209.66	2486.23
209.88	2693.08
210.10	2613.21
210.32	2492.38
210.54	2600.92
210.76	2670.55
210.98	2891.73
211.20	2365.40
211.42	2662.36
211.64	2936.79
211.86	2850.77
212.08	2541.53
212.30	2555.86
212.52	2645.98
212.74	2807.77
212.96	2555.86
213.17	2543.58
213.39	2811.86
213.61	2953.17
213.83	2523.10
214.05	2422.75
214.27	2906.07
214.49	2617.30
214.71	2457.56
214.93	2619.35
215.15	2703.32
215.37	2879.44
215.59	2449.37
215.81	2600.92
216.03	2904.02
216.24	2686.94
216.46	2539.48
216.68	2617.30
216.90	2895.83
217.12	2901.97
217.34	2525.15
217.56	2594.78
217.78	2998.23
218.00	2787.29
218.22	2557.91
218.44	2635.74
218.66	2750.42
218.87	3037.14
219.09	2529.24
219.31	2549.72
219.53	2709.46
219.75	2678.74
219.97	2514.91
220.19	2557.91
220.41	2639.83
220.63	3000.27
220.85	2488.28
221.06	2449.37
221.28	2947.03
221.50	2838.48
221.72	2557.91
221.94	2392.03
222.16	2742.23
222.38	2834.39
222.60	2469.85
222.82	2543.58
223.03	2920.40
223.25	2627.54
223.47	2559.96
223.69	2631.64
223.91	2797.53
224.13	2748.37
224.35	2465.75
224.57	2664.41
224.78	2863.06
225.00	2484.19
225.22	2586.58
225.44	2467.80
225.66	2867.16
225.88	2643.93
226.10	2650.07
226.32	2553.82
226.53	2971.60
226.75	2701.27
226.97	2545.63
227.19	2566.10
227.41	2645.98
227.63	2684.89
227.85	2324.44
228.06	2594.78
228.28	2789.33
228.50	2906.07
228.72	2402.27
228.94	2543.58
229.16	2508.76
229.37	2531.29
229.59	2459.61
229.81	2770.90
230.03	2703.32
230.25	2555.86
230.47	2402.27
230.69	2469.85
230.90	2883.54
231.12	2713.56
231.34	2555.86
231.56	2658.26
231.78	2564.06
232.00	2707.41
232.21	2551.77
232.43	2588.63
232.65	2400.22
232.87	2731.99
233.09	2447.32
233.30	2449.37
233.52	2801.62
233.74	2664.41
233.96	2492.38
234.18	2641.88
234.40	2711.51
234.61	3067.86
234.83	2420.70
235.05	2463.71
235.27	3082.19
235.49	2879.44
235.70	2414.56
235.92	2555.86
236.14	2768.85
236.36	3051.47
236.58	2414.56
236.79	2621.40
237.01	2738.13
237.23	2727.89
237.45	2705.37
237.67	2488.28
237.88	2781.14
238.10	3051.47
238.32	2471.90
238.54	2473.95
238.76	2676.70
238.97	2645.98
239.19	2430.94
239.41	2566.10
239.63	2875.35
239.85	2641.88
240.06	2586.58
240.28	2527.19
240.50	2928.60
240.72	2709.46
240.93	2420.70
241.15	2637.78
241.37	2648.02
241.59	2920.40
241.81	2502.62
242.02	2559.96
242.24	2762.71
242.46	2834.39
242.68	2404.32
242.89	2451.42
243.11	2914.26
243.33	2662.36
243.55	2519.00
243.76	2580.44
243.98	2562.01
244.20	2738.13
244.42	2467.80
244.64	2527.19
244.85	2564.06
245.07	2605.02
245.29	2453.47
245.51	2541.53
245.72	2748.37
245.94	2887.64
246.16	2498.52
246.38	2588.63
246.59	2660.31
246.81	2613.21
247.03	2461.66
247.24	2381.79
247.46	2607.06
247.68	2693.08
247.90	2455.51
248.11	2559.96
248.33	2846.68
248.55	2721.75
248.77	2576.34
248.98	2662.36
249.20	2996.18
249.42	2674.65
249.64	2539.48
249.85	2582.49
250.07	2684.89
250.29	2867.16
250.50	2570.20
250.72	2457.56
250.94	2717.65
251.16	3084.24
251.37	2557.91
251.59	2594.78
251.81	2779.09
252.02	2936.79
252.24	2543.58
252.46	2621.40
252.68	2639.83
252.89	2645.98
253.11	2371.55
253.33	2688.98
253.54	2928.60
253.76	2482.14
253.98	2541.53
254.20	2478.04
254.41	2514.91
254.63	2699.22
254.85	2351.07
255.06	2680.79
255.28	2660.31
255.50	2635.74
255.71	2512.86
255.93	2447.32
256.15	2738.13
256.36	2858.96
256.58	2498.52
256.80	2490.33
257.02	2820.05
257.23	2736.09
257.45	2570.20
257.67	2578.39
257.88	2598.87
258.10	2727.89
258.32	2471.90
258.53	2602.97
258.75	3006.42
258.97	2619.35
259.18	2500.57
259.40	2473.95
259.62	3012.56
259.83	2867.16
260.05	2512.86
260.27	3203.02
260.48	2922.45
260.70	2564.06
260.92	2453.47
261.13	2547.67
261.35	2736.09
261.57	2758.61
261.78	2447.32
262.00	2480.09
262.22	2799.57
262.43	2555.86
262.65	2572.25
262.86	2498.52
263.08	3168.21
263.30	2742.23
263.51	2408.41
263.73	2490.33
263.95	2944.98
264.16	2441.18
264.38	2455.51
264.60	2443.23
264.81	2777.05
265.03	2912.21
265.25	2793.43
265.46	2449.37
265.68	2967.51
265.89	2832.34
266.11	2420.70
266.33	2486.23
266.54	2891.73
266.76	2955.22
266.98	2588.63
267.19	2662.36
267.41	2834.39
267.62	2693.08
267.84	2340.83
268.06	2650.07
268.27	2807.77
268.49	2828.24
268.70	2568.15
268.92	2541.53
269.14	2600.92
269.35	2490.33
269.57	2568.15
269.79	2611.16
270.00	2701.27
270.22	2910.16
270.43	2355.16
270.65	2361.31
270.87	2818.00
271.08	2844.63
271.30	2613.21
271.51	2504.67
271.73	2842.58
271.95	2912.21
272.16	2488.28
272.38	2619.35
272.59	2582.49
272.81	2752.47
273.02	2506.71
273.24	2617.30
273.46	2807.77
273.67	2465.75
273.89	2344.92
274.10	2498.52
274.32	2910.16
274.54	2742.23
274.75	2510.81
274.97	2525.15
275.18	2809.81
275.40	2832.34
275.61	2564.06
275.83	2602.97
276.05	2570.20
276.26	2766.81
276.48	2605.02
276.69	2611.16
276.91	2654.17
277.12	2891.73
277.34	2672.60
277.55	2723.80
277.77	2783.19
277.99	2695.13
278.20	2588.63
278.42	2543.58
278.63	2627.54
278.85	2529.24
279.06	2519.00
279.28	2648.02
279.49	2940.88
279.71	2848.72
279.93	2697.17
280.14	2701.27
280.36	2549.72
280.57	2867.16
280.79	2662.36
281.00	2533.34
281.22	2627.54
281.43	2885.59
281.65	2396.12
281.86	2545.63
282.08	2777.05
282.29	2963.41
282.51	2506.71
282.73	2498.52
282.94	2564.06
283.16	2840.53
283.37	2756.57
283.59	2572.25
283.80	2840.53
284.02	2691.03
284.23	2650.07
284.45	2584.54
284.66	2609.11
284.88	2660.31
285.09	2607.06
285.31	2607.06
285.52	2746.33
285.74	2541.53
285.95	2746.33
286.17	2693.08
286.38	2848.72
286.60	2672.60
286.81	2559.96
287.03	2523.10
287.24	2703.32
287.46	2766.81
287.67	2594.78
287.89	2764.76
288.10	2697.17
288.32	2682.84
288.53	2797.53
288.75	2729.94
288.96	2762.71
289.18	2613.21
289.39	2564.06
289.61	2711.51
289.82	2985.94
290.04	3067.86
290.25	2521.05
290.47	2627.54
290.68	2680.79
290.90	2949.08
291.11	2392.03
291.33	2699.22
291.54	2529.24
291.76	2670.55
291.97	2627.54
292.18	2672.60
292.40	2668.50
292.61	2686.94
292.83	2832.34
293.04	2621.40
293.26	2777.05
293.47	2654.17
293.69	2541.53
293.90	2551.77
294.12	2842.58
294.33	2664.41
294.55	2693.08
294.76	2793.43
294.97	3008.47
295.19	3088.34
295.40	2574.30
295.62	2643.93
295.83	2854.87
296.05	2598.87
296.26	2717.65
296.48	2529.24
296.69	2621.40
296.90	2674.65
297.12	2744.28
297.33	2693.08
297.55	2785.24
297.76	2746.33
297.98	2701.27
298.19	2572.25
298.41	2719.70
298.62	2566.10
298.83	2818.00
299.05	2668.50
299.26	2594.78
299.48	2619.35
299.69	2693.08
299.90	2613.21
300.12	2559.96
300.33	2775.00
300.55	2629.59
300.76	2686.94
300.98	2514.91
301.19	2785.24
301.40	2621.40
301.62	2594.78
301.83	2781.14
302.05	2729.94
302.26	2596.82
302.47	2588.63
302.69	2516.95
302.90	2703.32
303.12	2373.60
303.33	2707.41
303.54	3000.27
303.76	2684.89
303.97	2582.49
304.19	2768.85
304.40	2555.86
304.61	2766.81
304.83	2797.53
305.04	2666.46
305.26	2793.43
305.47	2699.22
305.68	2635.74
305.90	2471.90
306.11	2877.40
306.33	2703.32
306.54	2539.48
306.75	2576.34
306.97	2535.39
307.18	2568.15
307.39	2594.78
307.61	2750.42
307.82	2623.45
308.04	2858.96
308.25	2539.48
308.46	2682.84
308.68	2645.98
308.89	2721.75
309.10	2650.07
309.32	2664.41
309.53	2721.75
309.74	2736.09
309.96	2535.39
310.17	2756.57
310.39	2656.22
310.60	2863.06
310.81	2629.59
311.03	2545.63
311.24	2828.24
311.45	2705.37
311.67	2832.34
311.88	2725.85
312.09	2727.89
312.31	2613.21
312.52	2584.54
312.73	2537.43
312.95	2527.19
313.16	2600.92
313.37	2760.66
313.59	2717.65
313.80	2785.24
314.01	3018.71
314.23	2613.21
314.44	2545.63
314.65	2555.86
314.87	2625.50
315.08	2600.92
315.29	2592.73
315.51	2553.82
315.72	2463.71
315.93	2727.89
316.15	2658.26
316.36	2654.17
316.57	2688.98
316.79	2607.06
317.00	2568.15
317.21	2746.33
317.43	2631.64
317.64	2625.50
317.85	2637.78
318.07	2627.54
318.28	2648.02
318.49	2742.23
318.70	2836.44
318.92	2803.67
319.13	2791.38
319.34	2828.24
319.56	2666.46
319.77	2871.25
319.98	2803.67
320.20	2768.85
320.41	2746.33
320.62	2799.57
320.83	2609.11
321.05	2863.06
321.26	2725.85
321.47	2727.89
321.69	2901.97
321.90	2498.52
322.11	2629.59
322.32	2793.43
322.54	2932.69
322.75	2596.82
322.96	3121.10
323.18	2506.71
323.39	2502.62
323.60	2498.52
323.81	2658.26
324.03	2633.69
324.24	2734.04
324.45	2738.13
324.66	2582.49
324.88	2863.06
325.09	2908.12
325.30	2611.16
325.52	2594.78
325.73	2752.47
325.94	2531.29
326.15	2500.57
326.37	2496.47
326.58	2838.48
326.79	2875.35
327.00	2598.87
327.22	2625.50
327.43	2641.88
327.64	2643.93
327.85	2652.12
328.07	2631.64
328.28	2914.26
328.49	2641.88
328.70	2695.13
328.92	2607.06
329.13	2619.35
329.34	2750.42
329.55	2777.05
329.76	2738.13
329.98	2719.70
330.19	2942.93
330.40	2611.16
330.61	2645.98
330.83	2818.00
331.04	2566.10
331.25	2576.34
331.46	2572.25
331.68	2588.63
331.89	2840.53
332.10	2627.54
332.31	2516.95
332.52	2580.44
332.74	2852.82
332.95	2441.18
333.16	2580.44
333.37	2830.29
333.58	2617.30
333.80	2580.44
334.01	2443.23
334.22	2670.55
334.43	2621.40
334.64	2537.43
334.86	2555.86
335.07	2541.53
335.28	2920.40
335.49	2488.28
335.70	2693.08
335.92	2940.88
336.13	3071.95
336.34	2686.94
336.55	2688.98
336.76	2785.24
336.98	2416.60
337.19	2600.92
337.40	2736.09
337.61	3104.72
337.82	2643.93
338.04	2703.32
338.25	2533.34
338.46	2678.74
338.67	2668.50
338.88	2498.52
339.09	2535.39
339.31	2650.07
339.52	2502.62
339.73	2570.20
339.94	2598.87
340.15	2930.64
340.36	2625.50
340.58	2703.32
340.79	2631.64
341.00	2854.87
341.21	2525.15
341.42	2785.24
341.63	2600.92
341.85	2793.43
342.06	2705.37
342.27	2547.67
342.48	2742.23
342.69	2621.40
342.90	2801.62
343.12	2875.35
343.33	2502.62
343.54	2801.62
343.75	2897.88
343.96	2602.97
344.17	2545.63
344.38	2789.33
344.60	2652.12
344.81	2574.30
345.02	2584.54
345.23	2897.88
345.44	3022.80
345.65	2701.27
345.86	2588.63
346.07	2795.48
346.29	2625.50
346.50	2738.13
346.71	2713.56
346.92	2942.93
347.13	3063.76
347.34	2703.32
347.55	2535.39
347.76	2701.27
347.98	2551.77
348.19	2658.26
348.40	2729.94
348.61	2686.94
348.82	2924.50
349.03	2693.08
349.24	2416.60
349.45	2987.99
349.66	2447.32
349.88	2635.74
350.09	2496.47
350.30	2934.74
350.51	2826.20
350.72	2688.98
350.93	2588.63
351.14	2664.41
351.35	2791.38
351.56	2602.97
351.77	2590.68
351.99	2760.66
352.20	2879.44
352.41	2721.75
352.62	2471.90
352.83	2760.66
353.04	2756.57
353.25	2588.63
353.46	2639.83
353.67	2858.96
353.88	2455.51
354.09	2617.30
354.30	2652.12
354.52	2875.35
354.73	2707.41
354.94	2578.39
355.15	2539.48
355.36	2914.26
355.57	2674.65
355.78	2588.63
355.99	2508.76
356.20	2686.94
356.41	2848.72
356.62	2625.50
356.83	2660.31
357.04	2908.12
357.25	2508.76
357.46	2629.59
357.68	2527.19
357.89	2602.97
358.10	2686.94
358.31	2615.26
358.52	2639.83
358.73	2590.68
358.94	2617.30
359.15	2547.67
359.36	2656.22
359.57	2699.22
359.78	2699.22
359.99	2746.33
360.20	2490.33
360.41	2723.80
360.62	2789.33
360.83	2674.65
361.04	2664.41
361.25	2858.96
361.46	3000.27
361.67	2695.13
361.88	2633.69
362.09	2818.00
362.30	2746.33
362.51	2600.92
362.72	2652.12
362.93	2803.67
363.14	2775.00
363.35	2748.37
363.56	2633.69
363.78	2861.01
363.99	2832.34
364.20	2551.77
364.41	2699.22
364.62	2998.23
364.83	2756.57
365.04	2639.83
365.25	2637.78
365.46	3022.80
365.67	2633.69
365.88	2746.33
366.09	2551.77
366.30	2699.22
366.51	2729.94
366.72	2496.47
366.93	2686.94
367.14	2772.95
367.35	2987.99
367.56	2594.78
367.77	2809.81
367.98	2682.84
368.18	2852.82
368.39	2682.84
368.60	2482.14
368.81	2682.84
369.02	2838.48
369.23	2697.17
369.44	2451.42
369.65	2695.13
369.86	2697.17
370.07	2760.66
370.28	2564.06
370.49	2797.53
370.70	2848.72
370.91	2490.33
371.12	2496.47
371.33	2906.07
371.54	2564.06
371.75	2789.33
371.96	2449.37
372.17	2738.13
372.38	2748.37
372.59	2645.98
372.80	2533.34
373.01	2602.97
373.22	2766.81
373.43	2645.98
373.64	2428.89
373.85	2858.96
374.06	3026.90
374.26	2754.52
374.47	2660.31
374.68	2983.89
374.89	2703.32
375.10	2605.02
375.31	2715.61
375.52	2721.75
375.73	2777.05
375.94	2527.19
376.15	2797.53
376.36	2584.54
376.57	2564.06
376.78	2643.93
376.99	2643.93
377.20	2863.06
377.40	2705.37
377.61	2809.81
377.82	2541.53
378.03	2969.55
378.24	2775.00
378.45	2680.79
378.66	2662.36
378.87	2420.70
379.08	2557.91
379.29	2523.10
379.50	2731.99
379.71	2703.32
379.91	2883.54
380.12	2680.79
380.33	2668.50
380.54	2723.80
380.75	2766.81
380.96	2553.82
381.17	2713.56
381.38	2734.04
381.59	2764.76
381.80	2602.97
382.00	2772.95
382.21	2734.04
382.42	2863.06
382.63	2961.36
382.84	2641.88
383.05	2936.79
383.26	2875.35
383.47	2686.94
383.68	2637.78
383.88	2811.86
384.09	2678.74
384.30	2873.30
384.51	2727.89
384.72	2711.51
384.93	2566.10
385.14	2656.22
385.35	2748.37
385.55	2600.92
385.76	2854.87
385.97	2668.50
386.18	2492.38
386.39	2566.10
386.60	2633.69
386.81	2631.64
387.02	2598.87
387.22	2553.82
387.43	2766.81
387.64	2678.74
387.85	2824.15
388.06	2783.19
388.27	4028.35
388.48	7481.23
388.68	10788.70
388.89	13424.44
389.10	14628.64
389.31	13788.97
389.52	10952.54
389.73	9322.35
389.93	8568.70
390.14	7864.20
390.35	7153.55
390.56	6401.95
390.77	5267.38
390.98	4003.78
391.18	3405.77
391.39	3172.30
391.60	2717.65
391.81	2807.77
392.02	2594.78
392.23	3080.14
392.43	2785.24
392.64	2858.96
392.85	2623.45
393.06	3026.90
393.27	2678.74
393.47	2686.94
393.68	2633.69
393.89	2705.37
394.10	2830.29
394.31	2611.16
394.52	2555.86
394.72	2719.70
394.93	2961.36
395.14	2506.71
395.35	2799.57
395.56	2627.54
395.76	2703.32
395.97	2717.65
396.18	2713.56
396.39	2848.72
396.60	3209.17
396.80	2895.83
397.01	2811.86
397.22	2844.63
397.43	2879.44
397.64	2607.06
397.84	2748.37
398.05	2955.22
398.26	2746.33
398.47	2727.89
398.67	2836.44
398.88	2699.22
399.09	2789.33
399.30	2562.01
399.51	2736.09
399.71	2611.16
399.92	2713.56
400.13	2697.17
400.34	2621.40
400.54	2746.33
400.75	2975.70
400.96	2654.17
401.17	2987.99
401.37	2766.81
401.58	2674.65
401.79	2701.27
402.00	2709.46
402.21	3102.67
402.41	2854.87
402.62	2940.88
402.83	3020.75
403.04	3112.91
403.24	3358.67
403.45	2779.09
403.66	2938.84
403.87	2889.68
404.07	3051.47
404.28	2861.01
404.49	2924.50
404.70	2799.57
404.90	2813.91
405.11	2803.67
405.32	2748.37
405.52	2611.16
405.73	2699.22
405.94	2596.82
406.15	2705.37
406.35	2871.25
406.56	2858.96
406.77	2684.89
406.98	2721.75
407.18	2574.30
407.39	2924.50
407.60	2658.26
407.80	2748.37
408.01	2627.54
408.22	2754.52
408.43	2539.48
408.63	2664.41
408.84	2891.73
409.05	2846.68
409.25	2594.78
409.46	2588.63
409.67	2623.45
409.88	2648.02
410.08	2670.55
410.29	2590.68
410.50	2818.00
410.70	2826.20
410.91	2508.76
411.12	2615.26
411.32	2699.22
411.53	2555.86
411.74	2695.13
411.95	2729.94
412.15	2740.18
412.36	2791.38
412.57	2760.66
412.77	2852.82
412.98	2678.74
413.19	2650.07
413.39	2707.41
413.60	2678.74
413.81	2949.08
414.01	2570.20
414.22	2699.22
414.43	2783.19
414.63	2666.46
414.84	2844.63
415.05	2637.78
415.25	2578.39
415.46	2858.96
415.67	2621.40
415.87	2705.37
416.08	2629.59
416.29	2713.56
416.49	2818.00
416.70	2588.63
416.91	2574.30
417.11	2666.46
417.32	2938.84
417.53	2719.70
417.73	2654.17
417.94	2693.08
418.15	2719.70
418.35	2682.84
418.56	2731.99
418.77	2949.08
418.97	2760.66
419.18	2678.74
419.38	2422.75
419.59	2643.93
419.80	2965.46
420.00	2555.86
420.21	2562.01
420.42	2971.60
420.62	2731.99
420.83	2596.82
421.04	2654.17
421.24	2656.22
421.45	2908.12
421.65	2682.84
421.86	2662.36
422.07	2932.69
422.27	2832.34
422.48	2588.63
422.69	2551.77
422.89	2746.33
423.10	2637.78
423.30	2564.06
423.51	2617.30
423.72	2791.38
423.92	2838.48
424.13	2457.56
424.33	2695.13
424.54	2885.59
424.75	2789.33
424.95	2875.35
425.16	2701.27
425.36	2727.89
425.57	2967.51
425.78	2768.85
425.98	2811.86
426.19	2830.29
426.39	2617.30
426.60	2633.69
426.81	2799.57
427.01	2813.91
427.22	2660.31
427.42	2398.17
427.63	2547.67
427.83	2842.58
428.04	2942.93
428.25	2815.96
428.45	2684.89
428.66	2832.34
428.86	2701.27
429.07	2682.84
429.28	2688.98
429.48	2693.08
429.69	2586.58
429.89	2676.70
430.10	2539.48
430.30	2793.43
430.51	2854.87
430.71	2539.48
430.92	2682.84
431.13	2688.98
431.33	2908.12
431.54	2672.60
431.74	2869.20
431.95	3090.38
432.15	2547.67
432.36	2686.94
432.56	2674.65
432.77	3084.24
432.98	3051.47
433.18	2805.72
433.39	2615.26
433.59	2676.70
433.80	3041.23
434.00	2809.81
434.21	2650.07
434.41	2656.22
434.62	3084.24
434.82	2535.39
435.03	2553.82
435.23	2793.43
435.44	2467.80
435.64	2639.83
435.85	2678.74
436.06	2815.96
436.26	2889.68
436.47	2682.84
436.67	2564.06
436.88	2621.40
437.08	2904.02
437.29	2840.53
437.49	2729.94
437.70	2891.73
437.90	2801.62
438.11	2910.16
438.31	2641.88
438.52	2938.84
438.72	2856.92
438.93	2938.84
439.13	2631.64
439.34	2834.39
439.54	2719.70
439.75	2750.42
439.95	2770.90
440.16	2611.16
440.36	2772.95
440.57	2686.94
440.77	2643.93
440.98	2756.57
441.18	2809.81
441.39	2562.01
441.59	2602.97
441.80	3006.42
442.00	2711.51
442.21	2758.61
442.41	2582.49
442.62	2971.60
442.82	2621.40
443.02	2686.94
443.23	2746.33
443.43	2721.75
443.64	2918.36
443.84	2523.10
444.05	2779.09
444.25	2662.36
444.46	2752.47
444.66	2648.02
444.87	2883.54
445.07	2564.06
445.28	2668.50
445.48	2777.05
445.69	2750.42
445.89	3125.20
446.09	2691.03
446.30	2930.64
446.50	3157.97
446.71	4552.63
446.91	5613.48
447.12	6471.58
447.32	6778.78
447.53	6576.03
447.73	5345.20
447.93	4782.01
448.14	4595.64
448.34	4497.34
448.55	3796.93
448.75	3891.14
448.96	3622.86
449.16	3407.82
449.36	3293.13
449.57	2889.68
449.77	2711.51
449.98	2686.94
450.18	2865.11
450.39	2666.46
450.59	2840.53
450.79	2764.76
451.00	2668.50
451.20	2830.29
451.41	2586.58
451.61	2779.09
451.81	2740.18
452.02	2650.07
452.22	2662.36
452.43	2744.28
452.63	2637.78
452.84	2766.81
453.04	2609.11
453.24	2682.84
453.45	2551.77
453.65	2643.93
453.86	2701.27
454.06	2791.38
454.26	2752.47
454.47	2602.97
454.67	2807.77
454.87	2840.53
455.08	2709.46
455.28	2858.96
455.49	2734.04
455.69	2609.11
455.89	2983.89
456.10	2795.48
456.30	2650.07
456.51	2875.35
456.71	2725.85
456.91	2719.70
457.12	2672.60
457.32	2785.24
457.52	2592.73
457.73	2834.39
457.93	2801.62
458.14	2668.50
458.34	2506.71
458.54	2609.11
458.75	2682.84
458.95	2889.68
459.15	2758.61
459.36	2637.78
459.56	2664.41
459.76	3067.86
459.97	2641.88
460.17	2635.74
460.37	2775.00
460.58	2744.28
460.78	2840.53
460.99	2643.93
461.19	2596.82
461.39	2637.78
461.60	2756.57
461.80	2680.79
462.00	2537.43
462.21	2707.41
462.41	2670.55
462.61	2537.43
462.82	2426.84
463.02	2846.68
463.22	2754.52
463.43	2801.62
463.63	2682.84
463.83	2809.81
464.04	2818.00
464.24	2684.89
464.44	2543.58
464.64	2801.62
464.85	2924.50
465.05	2760.66
465.25	2605.02
465.46	2631.64
465.66	2836.44
465.86	2729.94
466.07	2672.60
466.27	2783.19
466.47	2484.19
466.68	2504.67
466.88	2828.24
467.08	2793.43
467.29	2895.83
467.49	2764.76
467.69	2672.60
467.89	2850.77
468.10	2711.51
468.30	2775.00
468.50	2867.16
468.71	2920.40
468.91	2564.06
469.11	2793.43
469.31	2686.94
469.52	2512.86
469.72	2906.07
469.92	2844.63
470.13	2635.74
470.33	2748.37
470.53	2813.91
470.73	3061.71
470.94	3286.99
471.14	3293.13
471.34	3827.65
471.54	3682.25
471.75	3315.66
471.95	3125.20
472.15	3129.30
472.36	3076.05
472.56	3030.99
472.76	3182.54
472.96	3063.76
473.17	2971.60
473.37	2809.81
473.57	2719.70
473.77	2770.90
473.98	2666.46
474.18	2555.86
474.38	3102.67
474.58	2668.50
474.79	2600.92
474.99	2691.03
475.19	2867.16
475.39	2559.96
475.60	2664.41
475.80	2686.94
476.00	2736.09
476.20	2660.31
476.41	2725.85
476.61	2678.74
476.81	2940.88
477.01	2613.21
477.21	2865.11
477.42	2744.28
477.62	2584.54
477.82	2772.95
478.02	2594.78
478.23	2621.40
478.43	2578.39
478.63	2586.58
478.83	2641.88
479.03	2721.75
479.24	2957.27
479.44	3045.33
479.64	2592.73
479.84	2467.80
480.04	2570.20
480.25	2818.00
480.45	2629.59
480.65	2680.79
480.85	2930.64
481.06	2676.70
481.26	2789.33
481.46	2695.13
481.66	2850.77
481.86	2670.55
482.06	2838.48
482.27	2666.46
482.47	2688.98
482.67	2762.71
482.87	2635.74
483.07	2725.85
483.28	2707.41
483.48	2609.11
483.68	2621.40
483.88	2543.58
484.08	2459.61
484.29	2494.43
484.49	2637.78
484.69	2514.91
484.89	2959.31
485.09	2912.21
485.29	2654.17
485.50	2822.10
485.70	2641.88
485.90	2897.88
486.10	2766.81
486.30	2693.08
486.50	2904.02
486.71	2811.86
486.91	2797.53
487.11	2785.24
487.31	2541.53
487.51	2775.00
487.71	2555.86
487.91	2568.15
488.12	2635.74
488.32	2387.93
488.52	2525.15
488.72	2445.27
488.92	2742.23
489.12	2856.92
489.32	2754.52
489.53	2645.98
489.73	2498.52
489.93	2969.55
490.13	2541.53
490.33	2486.23
490.53	2731.99
490.73	2865.11
490.94	2541.53
491.14	2678.74
491.34	2803.67
491.54	2969.55
491.74	3448.78
491.94	4108.23
492.14	4394.94
492.34	4474.81
492.54	4009.92
492.75	3483.59
492.95	3522.51
493.15	3454.92
493.35	3332.05
493.55	3196.88
493.75	3100.62
493.95	3248.08
494.15	2916.31
494.35	2760.66
494.56	2797.53
494.76	2658.26
494.96	2717.65
495.16	2611.16
495.36	2770.90
495.56	2758.61
495.76	2627.54
495.96	2637.78
496.16	2654.17
496.36	3041.23
496.56	2607.06
496.77	2762.71
496.97	2797.53
497.17	2940.88
497.37	2553.82
497.57	2758.61
497.77	2725.85
497.97	2611.16
498.17	2705.37
498.37	2662.36
498.57	2801.62
498.77	2629.59
498.97	2852.82
499.17	2949.08
499.38	2717.65
499.58	2815.96
499.78	2736.09
499.98	2891.73
500.18	2670.55
500.38	2555.86
500.58	2781.14
500.78	3155.92
500.98	5316.53
501.18	7298.96
501.38	8750.97
501.58	9525.10
501.78	9457.52
501.98	7591.82
502.18	6510.49
502.38	5605.29
502.58	5345.20
502.78	4755.38
502.98	4722.62
503.18	4378.56
503.38	4081.60
503.59	3577.80
503.79	3499.98
503.99	3274.70
504.19	3229.65
504.39	3160.02
504.59	3149.78
504.79	3102.67
504.99	3182.54
505.19	2973.65
505.39	2861.01
505.59	2977.75
505.79	2965.46
505.99	2901.97
506.19	2668.50
506.39	2912.21
506.59	2736.09
506.79	2676.70
506.99	2834.39
507.19	2729.94
507.39	2856.92
507.59	2549.72
507.79	2529.24
507.99	2605.02
508.19	2674.65
508.39	2713.56
508.59	2629.59
508.79	2809.81
508.99	2959.31
509.19	2570.20
509.39	2682.84
509.59	2588.63
509.79	2609.11
509.99	2731.99
510.19	2811.86
510.39	2766.81
510.59	2791.38
510.79	2584.54
510.99	2535.39
511.19	2602.97
511.39	2955.22
511.59	2822.10
511.79	2850.77
511.99	2725.85
512.19	3088.34
512.38	2707.41
512.58	2699.22
512.78	2553.82
512.98	2922.45
513.18	2998.23
513.38	2473.95
513.58	2719.70
513.78	2703.32
513.98	2666.46
514.18	2662.36
514.38	2650.07
514.58	2791.38
514.78	2676.70
514.98	2570.20
515.18	2645.98
515.38	2586.58
515.58	2979.79
515.78	2594.78
515.98	2715.61
516.18	2899.92
516.38	2746.33
516.57	2635.74
516.77	2559.96
516.97	2840.53
517.17	2619.35
517.37	2367.45
517.57	2697.17
517.77	2664.41
517.97	2658.26
518.17	2775.00
518.37	2568.15
518.57	2684.89
518.77	2654.17
518.97	2693.08
519.16	2609.11
519.36	2863.06
519.56	2756.57
519.76	2574.30
519.96	2678.74
520.16	2963.41
520.36	2523.10
520.56	2813.91
520.76	2521.05
520.96	2691.03
521.16	2871.25
521.35	2770.90
521.55	2826.20
521.75	2766.81
521.95	2686.94
522.15	2545.63
522.35	2514.91
522.55	2625.50
522.75	2830.29
522.95	2584.54
523.14	2525.15
523.34	2832.34
523.54	2740.18
523.74	2699.22
523.94	2719.70
524.14	2564.06
524.34	2729.94
524.54	2850.77
524.73	2617.30
524.93	2920.40
525.13	2727.89
525.33	2545.63
525.53	2875.35
525.73	2861.01
525.93	2789.33
526.13	2559.96
526.32	2635.74
526.52	2897.88
526.72	2772.95
526.92	2654.17
527.12	2543.58
527.32	2600.92
527.52	2764.76
527.71	2635.74
527.91	2609.11
528.11	2660.31
528.31	2705.37
528.51	2535.39
528.71	2703.32
528.90	2791.38
529.10	2918.36
529.30	2797.53
529.50	2465.75
529.70	2793.43
529.90	2707.41
530.09	2611.16
530.29	2453.47
530.49	2551.77
530.69	3104.72
530.89	2707.41
531.09	2693.08
531.28	2715.61
531.48	2871.25
531.68	2680.79
531.88	2658.26
532.08	2854.87
532.28	2652.12
532.47	2750.42
532.67	2789.33
532.87	2818.00
533.07	2605.02
533.27	2758.61
533.46	2758.61
533.66	2850.77
533.86	2686.94
534.06	2633.69
534.26	2643.93
534.45	2697.17
534.65	2858.96
534.85	2715.61
535.05	2613.21
535.25	2783.19
535.44	2523.10
535.64	2754.52
535.84	2633.69
536.04	2656.22
536.24	2629.59
536.43	2609.11
536.63	2658.26
536.83	2734.04
537.03	2658.26
537.22	2547.67
537.42	2398.17
537.62	2721.75
537.82	2652.12
538.02	2766.81
538.21	2752.47
538.41	3227.60
538.61	2793.43
538.81	2756.57
539.00	2815.96
539.20	2553.82
539.40	2637.78
539.60	2736.09
539.79	2797.53
539.99	2772.95
540.19	2582.49
540.39	2629.59
540.58	2707.41
540.78	2832.34
540.98	2742.23
541.18	2850.77
541.37	2760.66
541.57	2725.85
541.77	2764.76
541.97	2598.87
542.16	2510.81
542.36	2703.32
542.56	2645.98
542.76	2875.35
542.95	2826.20
543.15	2889.68
543.35	2750.42
543.54	2637.78
543.74	2621.40
543.94	2926.55
544.14	2715.61
544.33	2809.81
544.53	2662.36
544.73	2650.07
544.93	2695.13
545.12	2650.07
545.32	2682.84
545.52	2686.94
545.71	2553.82
545.91	2621.40
546.11	2652.12
546.30	2531.29
546.50	2668.50
546.70	2736.09
546.90	2629.59
547.09	2535.39
547.29	2756.57
547.49	2744.28
547.68	2580.44
547.88	2662.36
548.08	2883.54
548.27	3153.87
548.47	2529.24
548.67	2754.52
548.87	2760.66
549.06	2605.02
549.26	2688.98
549.46	2764.76
549.65	2639.83
549.85	2662.36
550.05	2744.28
550.24	2541.53
550.44	2772.95
550.64	2736.09
550.83	2664.41
551.03	2875.35
551.23	2877.40
551.42	2809.81
551.62	2711.51
551.82	2631.64
552.01	2629.59
552.21	2967.51
552.41	2678.74
552.60	2881.49
552.80	2711.51
553.00	2547.67
553.19	2621.40
553.39	2955.22
553.59	2539.48
553.78	2772.95
553.98	2668.50
554.17	2502.62
554.37	2705.37
554.57	2738.13
554.76	2490.33
554.96	2598.87
555.16	2777.05
555.35	2760.66
555.55	2815.96
555.75	2775.00
555.94	2873.30
556.14	2377.69
556.33	2686.94
556.53	2711.51
556.73	2678.74
556.92	2684.89
557.12	2748.37
557.32	2996.18
557.51	2957.27
557.71	2658.26
557.90	2779.09
558.10	2957.27
558.30	2650.07
558.49	2736.09
558.69	2727.89
558.88	2805.72
559.08	2748.37
559.28	2596.82
559.47	2633.69
559.67	2809.81
559.86	3057.62
560.06	2684.89
560.26	2619.35
560.45	2811.86
560.65	2697.17
560.84	2918.36
561.04	2516.95
561.24	2877.40
561.43	2574.30
561.63	2848.72
561.82	2734.04
562.02	2873.30
562.22	2562.01
562.41	2607.06
562.61	2676.70
562.80	2619.35
563.00	3090.38
563.19	2660.31
563.39	2740.18
563.59	2848.72
563.78	2523.10
563.98	2453.47
564.17	2592.73
564.37	2510.81
564.56	2770.90
564.76	2502.62
564.96	2865.11
565.15	2797.53
565.35	3057.62
565.54	2611.16
565.74	2789.33
565.93	2797.53
566.13	2731.99
566.32	2775.00
566.52	2762.71
566.71	2709.46
566.91	2854.87
567.11	2723.80
567.30	2656.22
567.50	2748.37
567.69	2791.38
567.89	2701.27
568.08	2543.58
568.28	2693.08
568.47	2547.67
568.67	2686.94
568.86	2635.74
569.06	2826.20
569.25	2633.69
569.45	2543.58
569.64	2615.26
569.84	2596.82
570.04	2777.05
570.23	2633.69
570.43	2744.28
570.62	2688.98
570.82	2985.94
571.01	2521.05
571.21	2578.39
571.40	2594.78
571.60	2842.58
571.79	2727.89
571.99	2648.02
572.18	2645.98
572.38	2801.62
572.57	2652.12
572.77	2662.36
572.96	3080.14
573.16	2734.04
573.35	2717.65
573.55	2787.29
573.74	2750.42
573.94	2744.28
574.13	2662.36
574.33	2764.76
574.52	2865.11
574.71	2777.05
574.91	2695.13
575.10	2549.72
575.30	2652.12
575.49	2586.58
575.69	2531.29
575.88	2740.18
576.08	2697.17
576.27	2891.73
576.47	2701.27
576.66	2850.77
576.86	2949.08
577.05	2791.38
577.25	2709.46
577.44	2840.53
577.64	2691.03
577.83	2836.44
578.02	2641.88
578.22	2877.40
578.41	3035.09
578.61	2703.32
578.80	2519.00
579.00	2668.50
579.19	2736.09
579.39	2799.57
579.58	2729.94
579.77	2695.13
579.97	2987.99
580.16	2947.03
580.36	2889.68
580.55	2766.81
580.75	2791.38
580.94	2795.48
581.13	2858.96
581.33	2904.02
581.52	2781.14
581.72	3057.62
581.91	2858.96
582.11	2662.36
582.30	2858.96
582.49	2842.58
582.69	2936.79
582.88	2664.41
583.08	2746.33
583.27	2967.51
583.47	2764.76
583.66	2627.54
583.85	2541.53
584.05	2785.24
584.24	2828.24
584.44	2713.56
584.63	2856.92
584.82	2871.25
585.02	2887.64
585.21	2793.43
585.41	2848.72
585.60	2721.75
585.79	2981.84
585.99	2906.07
586.18	2875.35
586.37	3631.05
586.57	5439.40
586.76	15814.41
586.96	35202.53
587.15	48362.78
587.34	57371.80
587.54	61367.38
587.73	54953.15
587.93	39183.79
588.12	29685.31
588.31	23924.37
588.51	21106.37
588.70	19394.26
588.89	17121.02
589.09	14755.61
589.28	12588.86
589.47	9799.53
589.67	7489.42
589.86	6061.99
590.06	4495.29
590.25	3868.61
590.44	3493.83
590.64	3080.14
590.83	3022.80
591.02	2889.68
591.22	2744.28
591.41	2852.82
591.60	2760.66
591.80	3096.53
591.99	2549.72
592.18	2678.74
592.38	2834.39
592.57	2754.52
592.76	2680.79
592.96	2852.82
593.15	2740.18
593.34	2863.06
593.54	2635.74
593.73	2813.91
593.92	2744.28
594.12	2830.29
594.31	2748.37
594.50	2873.30
594.70	2824.15
594.89	3114.96
595.08	2566.10
595.28	2787.29
595.47	3170.26
595.66	2897.88
595.86	2537.43
596.05	2611.16
596.24	2744.28
596.43	2973.65
596.63	2744.28
596.82	2801.62
597.01	2818.00
597.21	3014.61
597.40	2674.65
597.59	2682.84
597.79	2697.17
597.98	2832.34
598.17	2713.56
598.36	2719.70
598.56	2871.25
598.75	2668.50
598.94	2705.37
599.14	2701.27
599.33	2635.74
599.52	2873.30
599.71	2709.46
599.91	2756.57
600.10	2820.05
600.29	2746.33
600.48	2809.81
600.68	2766.81
600.87	2754.52
601.06	2648.02
601.26	2746.33
601.45	2764.76
601.64	2752.47
601.83	2924.50
602.03	2498.52
602.22	2631.64
602.41	2836.44
602.60	3143.63
602.80	2754.52
602.99	2797.53
603.18	2705.37
603.37	2736.09
603.57	2629.59
603.76	2752.47
603.95	2953.17
604.14	2609.11
604.34	2652.12
604.53	2592.73
604.72	2779.09
604.91	2836.44
605.10	2705.37
605.30	2519.00
605.49	2981.84
605.68	2834.39
605.87	2731.99
606.07	2598.87
606.26	2783.19
606.45	2795.48
606.64	2756.57
606.84	2650.07
607.03	2711.51
607.22	2836.44
607.41	2744.28
607.60	2684.89
607.80	2858.96
607.99	2752.47
608.18	2752.47
608.37	2645.98
608.56	2639.83
608.76	2807.77
608.95	2785.24
609.14	2643.93
609.33	2967.51
609.52	2912.21
609.72	2809.81
609.91	2791.38
610.10	2906.07
610.29	2904.02
610.48	2809.81
610.68	2779.09
610.87	2717.65
611.06	2883.54
611.25	2621.40
611.44	2764.76
611.63	2701.27
611.83	2863.06
612.02	2643.93
612.21	2797.53
612.40	2451.42
612.59	2598.87
612.79	2584.54
612.98	2691.03
613.17	2979.79
613.36	2744.28
613.55	2772.95
613.74	2719.70
613.93	2758.61
614.13	2856.92
614.32	2875.35
614.51	2756.57
614.70	2734.04
614.89	2721.75
615.08	2783.19
615.28	3143.63
615.47	2586.58
615.66	2777.05
615.85	2705.37
616.04	2826.20
616.23	2703.32
616.42	2729.94
616.62	2731.99
616.81	2756.57
617.00	2746.33
617.19	2783.19
617.38	2582.49
617.57	2764.76
617.76	2852.82
617.95	2899.92
618.15	2809.81
618.34	2826.20
618.53	2529.24
618.72	2885.59
618.91	2801.62
619.10	2801.62
619.29	2815.96
619.48	2658.26
619.68	2592.73
619.87	2543.58
620.06	2519.00
620.25	2785.24
620.44	2598.87
620.63	2572.25
620.82	2830.29
621.01	2768.85
621.20	2625.50
621.39	2688.98
621.59	2824.15
621.78	2777.05
621.97	2660.31
622.16	2785.24
622.35	2787.29
622.54	2805.72
622.73	2777.05
622.92	2521.05
623.11	2899.92
623.30	2660.31
623.49	2746.33
623.68	2602.97
623.88	2889.68
624.07	2678.74
624.26	2615.26
624.45	2725.85
624.64	2639.83
624.83	2764.76
625.02	2621.40
625.21	2600.92
625.40	2744.28
625.59	2885.59
625.78	2619.35
625.97	2721.75
626.16	3045.33
626.35	2850.77
626.54	2715.61
626.74	2899.92
626.93	2695.13
627.12	2729.94
627.31	2742.23
627.50	2736.09
627.69	2901.97
627.88	2484.19
628.07	2648.02
628.26	2478.04
628.45	2658.26
628.64	2562.01
628.83	2693.08
629.02	2516.95
629.21	2930.64
629.40	2811.86
629.59	2578.39
629.78	2588.63
629.97	2760.66
630.16	2822.10
630.35	2600.92
630.54	2721.75
630.73	2648.02
630.92	2801.62
631.11	2600.92
631.30	2723.80
631.49	2873.30
631.68	2682.84
631.87	2723.80
632.06	2514.91
632.25	3104.72
632.44	2709.46
632.63	2693.08
632.82	2625.50
633.01	2670.55
633.20	2779.09
633.39	2643.93
633.58	2527.19
633.77	2738.13
633.96	2844.63
634.15	2723.80
634.34	2758.61
634.53	2805.72
634.72	2688.98
634.91	2432.99
635.10	2738.13
635.29	2838.48
635.48	2797.53
635.67	2586.58
635.86	2570.20
636.05	2916.31
636.24	2697.17
636.43	2629.59
636.62	2670.55
636.81	2445.27
637.00	2772.95
637.19	2693.08
637.38	2705.37
637.57	2625.50
637.76	2791.38
637.95	2785.24
638.14	2697.17
638.33	2777.05
638.52	2770.90
638.71	2594.78
638.89	2535.39
639.08	3205.07
639.27	2910.16
639.46	2781.14
639.65	3125.20
639.84	3229.65
640.03	3211.22
640.22	3114.96
640.41	3131.34
640.60	2949.08
640.79	2918.36
640.98	2777.05
641.17	2807.77
641.36	2856.92
641.55	2912.21
641.74	2572.25
641.92	2551.77
642.11	2674.65
642.30	2652.12
642.49	2545.63
642.68	2643.93
642.87	2791.38
643.06	2809.81
643.25	2531.29
643.44	2539.48
643.63	2688.98
643.82	2795.48
644.00	2457.56
644.19	2699.22
644.38	2570.20
644.57	2815.96
644.76	2654.17
644.95	2682.84
645.14	2818.00
645.33	2678.74
645.52	2619.35
645.71	2533.34
645.89	2543.58
646.08	2643.93
646.27	2656.22
646.46	2858.96
646.65	2521.05
646.84	2715.61
647.03	2547.67
647.22	2766.81
647.40	2832.34
647.59	2691.03
647.78	2447.32
647.97	2582.49
648.16	2568.15
648.35	2998.23
648.54	2818.00
648.73	2701.27
648.91	2775.00
649.10	2752.47
649.29	2545.63
649.48	2600.92
649.67	2809.81
649.86	2770.90
650.05	2701.27
650.23	2863.06
650.42	2662.36
650.61	2942.93
650.80	2818.00
650.99	3024.85
651.18	2838.48
651.36	2885.59
651.55	2625.50
651.74	2775.00
651.93	2660.31
652.12	2701.27
652.31	2695.13
652.49	2727.89
652.68	2799.57
652.87	2891.73
653.06	2740.18
653.25	3002.32
653.44	2664.41
653.62	2971.60
653.81	2615.26
654.00	2723.80
654.19	2865.11
654.38	3082.19
654.56	2791.38
654.75	2615.26
654.94	2842.58
655.13	2725.85
655.32	2572.25
655.51	2742.23
655.69	2629.59
655.88	2818.00
656.07	2488.28
656.26	2691.03
656.45	2574.30
656.63	2688.98
656.82	2750.42
657.01	2938.84
657.20	2590.68
657.38	2908.12
657.57	2598.87
657.76	2523.10
657.95	2879.44
658.14	2666.46
658.32	2731.99
658.51	2543.58
658.70	2725.85
658.89	2770.90
659.08	2762.71
659.26	2912.21
659.45	2693.08
659.64	2826.20
659.83	2559.96
660.01	3047.38
660.20	2779.09
660.39	2951.12
660.58	2508.76
660.76	2754.52
660.95	2506.71
661.14	2719.70
661.33	2512.86
661.51	2623.45
661.70	2668.50
661.89	2877.40
662.08	2682.84
662.26	2527.19
662.45	2506.71
662.64	2926.55
662.83	2740.18
663.01	2529.24
663.20	2652.12
663.39	2906.07
663.58	2654.17
663.76	2686.94
663.95	2801.62
664.14	2539.48
664.32	2693.08
664.51	2523.10
664.70	2527.19
664.89	2762.71
665.07	2539.48
665.26	2813.91
665.45	2623.45
665.64	2815.96
665.82	2617.30
666.01	2715.61
666.20	2570.20
666.38	2789.33
666.57	2926.55
666.76	4444.09
666.95	10026.86
667.13	16985.85
667.32	21038.78
667.51	23985.81
667.69	25280.13
667.88	21638.84
668.07	15482.64
668.25	12982.07
668.44	10999.64
668.63	9580.40
668.81	8558.46
669.00	7294.86
669.19	6598.56
669.38	5629.87
669.56	4904.89
669.75	4294.59
669.94	3805.13
670.12	3264.46
670.31	2987.99
670.50	2883.54
670.68	2891.73
670.87	2797.53
671.06	2658.26
671.24	2709.46
671.43	2924.50
671.62	2750.42
671.80	2609.11
671.99	2736.09
672.18	2766.81
672.36	2822.10
672.55	2693.08
672.74	2654.17
672.92	2682.84
673.11	2775.00
673.29	2605.02
673.48	2772.95
673.67	2574.30
673.85	2840.53
674.04	2660.31
674.23	2645.98
674.41	2904.02
674.60	2570.20
674.79	2482.14
674.97	2588.63
675.16	2863.06
675.34	2826.20
675.53	2600.92
675.72	2731.99
675.90	2973.65
676.09	2723.80
676.28	2729.94
676.46	2531.29
676.65	2842.58
676.83	2627.54
677.02	2633.69
677.21	2664.41
677.39	2701.27
677.58	2639.83
677.77	2580.44
677.95	2594.78
678.14	2709.46
678.32	2613.21
678.51	2672.60
678.70	2953.17
678.88	2596.82
679.07	2734.04
679.25	2645.98
679.44	2619.35
679.63	2539.48
679.81	2719.70
680.00	2842.58
680.18	2719.70
680.37	2936.79
680.55	2818.00
680.74	2519.00
680.93	2465.75
681.11	2762.71
681.30	2684.89
681.48	2760.66
681.67	2654.17
681.85	2709.46
682.04	2602.97
682.23	2758.61
682.41	2721.75
682.60	2691.03
682.78	2654.17
682.97	2574.30
683.15	2662.36
683.34	2758.61
683.53	3051.47
683.71	2547.67
683.90	2725.85
684.08	3037.14
684.27	2719.70
684.45	2633.69
684.64	2858.96
684.82	2711.51
685.01	2764.76
685.19	2648.02
685.38	2832.34
685.57	2758.61
685.75	2572.25
685.94	2586.58
686.12	2576.34
686.31	2686.94
686.49	2904.02
686.68	2482.14
686.86	2691.03
687.05	2643.93
687.23	2889.68
687.42	2527.19
687.60	2533.34
687.79	2850.77
687.97	2965.46
688.16	2822.10
688.34	2785.24
688.53	2512.86
688.71	2797.53
688.90	2865.11
689.08	2691.03
689.27	2453.47
689.45	2807.77
689.64	2752.47
689.82	2709.46
690.01	2752.47
690.19	2746.33
690.38	2619.35
690.56	2877.40
690.75	2596.82
690.93	2564.06
691.12	2613.21
691.30	2705.37
691.49	2621.40
691.67	2701.27
691.86	2996.18
692.04	2658.26
692.23	2705.37
692.41	2797.53
692.60	2922.45
692.78	2822.10
692.97	2791.38
693.15	2844.63
693.34	2801.62
693.52	2805.72
693.71	2660.31
693.89	2645.98
694.08	2484.19
694.26	2791.38
694.44	2803.67
694.63	2717.65
694.81	2596.82
695.00	2695.13
695.18	2934.74
695.37	3041.23
695.55	2686.94
695.74	2658.26
695.92	2693.08
696.10	2934.74
696.29	2500.57
696.47	2641.88
696.66	2568.15
696.84	2568.15
697.03	2641.88
697.21	2961.36
697.40	4091.84
697.58	2891.73
697.76	2656.22
697.95	2609.11
698.13	2576.34
698.32	2582.49
698.50	2648.02
698.68	2648.02
698.87	2736.09
699.05	2873.30
699.24	2664.41
699.42	2529.24
699.61	2727.89
699.79	2781.14
699.97	2727.89
700.16	2514.91
700.34	2535.39
700.53	2768.85
700.71	2854.87
700.89	2736.09
701.08	2621.40
701.26	2742.23
701.45	3162.06
701.63	2590.68
701.81	2709.46
702.00	2658.26
702.18	2658.26
702.37	2662.36
702.55	2969.55
702.73	2777.05
702.92	2664.41
703.10	2965.46
703.28	2899.92
703.47	2666.46
703.65	2824.15
703.84	2760.66
704.02	2656.22
704.20	2963.41
704.39	2570.20
704.57	2609.11
704.75	2904.02
704.94	2813.91
705.12	2766.81
705.30	3088.34
705.49	5803.94
705.67	11890.51
705.86	17522.42
706.04	20377.29
706.22	22970.02
706.41	22593.19
706.59	17786.61
706.77	13258.55
706.96	11427.67
707.14	10260.32
707.32	8822.65
707.51	7886.73
707.69	6506.40
707.87	5388.21
708.06	4523.96
708.24	3841.99
708.42	3381.20
708.61	3497.93
708.79	2699.22
708.97	2793.43
709.16	2813.91
709.34	2836.44
709.52	2619.35
709.71	2738.13
709.89	2734.04
710.07	2621.40
710.26	2617.30
710.44	2625.50
710.62	2887.64
710.80	2799.57
710.99	2740.18
711.17	2795.48
711.35	2674.65
711.54	2645.98
711.72	2924.50
711.90	2668.50
712.09	2772.95
712.27	2684.89
712.45	2752.47
712.63	2598.87
712.82	2754.52
713.00	2701.27
713.18	2760.66
713.37	2879.44
713.55	2918.36
713.73	2736.09
713.91	2727.89
714.10	2680.79
714.28	2703.32
714.46	2709.46
714.65	2756.57
714.83	2656.22
715.01	2713.56
715.19	2729.94
715.38	2549.72
715.56	2744.28
715.74	2629.59
715.92	2588.63
716.11	2879.44
716.29	2412.51
716.47	2680.79
716.65	2592.73
716.84	2539.48
717.02	2772.95
717.20	2480.09
717.38	2641.88
717.57	2785.24
717.75	2697.17
717.93	2586.58
718.11	2852.82
718.30	2498.52
718.48	2662.36
718.66	2844.63
718.84	2861.01
719.03	2641.88
719.21	2523.10
719.39	2985.94
719.57	2727.89
719.75	2777.05
719.94	2596.82
720.12	2621.40
720.30	2807.77
720.48	2777.05
720.67	2654.17
720.85	2637.78
721.03	2699.22
721.21	2637.78
721.39	2766.81
721.58	2846.68
721.76	2656.22
721.94	2756.57
722.12	2754.52
722.30	2977.75
722.49	2641.88
722.67	2752.47
722.85	2785.24
723.03	2555.86
723.21	2607.06
723.40	2707.41
723.58	2783.19
723.76	2893.78
723.94	2875.35
724.12	2801.62
724.30	2865.11
724.49	2916.31
724.67	2555.86
724.85	2813.91
725.03	2531.29
725.21	2805.72
725.40	2858.96
725.58	2668.50
725.76	2807.77
725.94	2785.24
726.12	2607.06
726.30	2723.80
726.49	2701.27
726.67	2570.20
726.85	2688.98
727.03	3125.20
727.21	4136.90
727.39	5142.45
727.57	5629.87
727.76	6012.84
727.94	6125.47
728.12	5490.60
728.30	4642.75
728.48	4272.06
728.66	3999.68
728.84	3745.73
729.03	3317.71
729.21	3239.89
729.39	2967.51
729.57	2856.92
729.75	2793.43
729.93	2869.20
730.11	2666.46
730.30	2666.46
730.48	2635.74
730.66	2785.24
730.84	2793.43
731.02	2668.50
731.20	2670.55
731.38	2746.33
731.56	2506.71
731.74	2516.95
731.93	2682.84
732.11	2674.65
732.29	2656.22
732.47	2764.76
732.65	2744.28
732.83	2818.00
733.01	2719.70
733.19	2572.25
733.37	2813.91
733.56	2645.98
733.74	2553.82
733.92	2871.25
734.10	2637.78
734.28	2764.76
734.46	2463.71
734.64	2674.65
734.82	2592.73
735.00	2660.31
735.18	2596.82
735.36	2746.33
735.54	2645.98
735.73	2695.13
735.91	2772.95
736.09	2985.94
736.27	2721.75
736.45	2738.13
736.63	2383.84
736.81	2629.59
736.99	2840.53
737.17	2807.77
737.35	2547.67
737.53	2711.51
737.71	2645.98
737.89	2877.40
738.07	2549.72
738.25	2629.59
738.43	2478.04
738.61	2580.44
738.80	2535.39
738.98	2625.50
739.16	2639.83
739.34	2615.26
739.52	2906.07
739.70	2717.65
739.88	2731.99
740.06	2818.00
740.24	2439.13
740.42	2899.92
740.60	2506.71
740.78	2600.92
740.96	2424.80
741.14	2680.79
741.32	2731.99
741.50	2449.37
741.68	2916.31
741.86	2885.59
742.04	2547.67
742.22	2559.96
742.40	2713.56
742.58	2863.06
742.76	2621.40
742.94	2779.09
743.12	2500.57
743.30	2826.20
743.48	2678.74
743.66	2570.20
743.84	2652.12
744.02	2734.04
744.20	2645.98
744.38	2506.71
744.56	2521.05
744.74	3010.51
744.92	2807.77
745.10	2842.58
745.28	2772.95
745.46	2965.46
745.64	2664.41
745.82	2777.05
746.00	2643.93
746.18	2758.61
746.36	2672.60
746.54	2682.84
746.72	2654.17
746.90	2580.44
747.08	2906.07
747.26	2594.78
747.44	2762.71
747.62	2748.37
747.80	2820.05
747.98	2721.75
748.15	2590.68
748.33	2924.50
748.51	2754.52
748.69	2674.65
748.87	2539.48
749.05	2707.41
749.23	2674.65
749.41	2693.08
749.59	2607.06
749.77	2863.06
749.95	2672.60
750.13	2611.16
750.31	2791.38
750.49	2674.65
750.67	2891.73
750.85	2809.81
751.03	2607.06
751.20	3020.75
751.38	2744.28
751.56	2703.32
751.74	2674.65
751.92	2674.65
752.10	2504.67
752.28	2801.62
752.46	2574.30
752.64	2688.98
752.82	2707.41
753.00	2772.95
753.18	2607.06
753.35	2633.69
753.53	2670.55
753.71	2516.95
753.89	2713.56
754.07	2719.70
754.25	2879.44
754.43	2725.85
754.61	2570.20
754.79	2770.90
754.97	2734.04
755.14	2832.34
755.32	2555.86
755.50	2641.88
755.68	2750.42
755.86	2543.58
756.04	2639.83
756.22	2486.23
756.40	2947.03
756.57	2899.92
756.75	2533.34
756.93	2889.68
757.11	2875.35
757.29	2654.17
757.47	2508.76
757.65	2592.73
757.82	2422.75
758.00	2668.50
758.18	2578.39
758.36	2627.54
758.54	2961.36
758.72	2504.67
758.90	2867.16
759.07	2822.10
759.25	2602.97
759.43	2736.09
759.61	2506.71
759.79	3876.80
759.97	2883.54
760.15	2656.22
760.32	2625.50
760.50	2705.37
760.68	2897.88
760.86	2502.62
761.04	2863.06
761.22	2797.53
761.39	2666.46
761.57	2777.05
761.75	2645.98
761.93	2791.38
762.11	2680.79
762.28	2734.04
762.46	2660.31
762.64	2858.96
762.82	2514.91
763.00	2703.32
763.18	2842.58
763.35	2588.63
763.53	2873.30
763.71	2645.98
763.89	2615.26
764.07	2750.42
764.24	2699.22
764.42	2820.05
764.60	2656.22
764.78	2807.77
764.96	2844.63
765.13	2783.19
765.31	2633.69
765.49	2887.64
765.67	2627.54
765.84	2596.82
766.02	2516.95
766.20	2590.68
766.38	2715.61
766.56	2719.70
766.73	2703.32
766.91	2668.50
767.09	2762.71
767.27	2699.22
767.44	2519.00
767.62	2752.47
767.80	2731.99
767.98	2584.54
768.15	2686.94
768.33	2803.67
768.51	2895.83
768.69	2801.62
768.87	2674.65
769.04	2668.50
769.22	3022.80
769.40	2703.32
769.58	2963.41
769.75	2805.72
769.93	2928.60
770.11	2678.74
770.28	2590.68
770.46	2932.69
770.64	2637.78
770.82	2615.26
770.99	2596.82
771.17	2818.00
771.35	2625.50
771.53	2645.98
771.70	2641.88
771.88	2797.53
772.06	2777.05
772.23	2580.44
772.41	2715.61
772.59	2686.94
772.77	2684.89
772.94	2623.45
773.12	2688.98
773.30	2631.64
773.47	2783.19
773.65	2637.78
773.83	2918.36
774.01	2654.17
774.18	2467.80
774.36	2668.50
774.54	2535.39
774.71	2805.72
774.89	2564.06
775.07	2473.95
775.24	2568.15
775.42	2645.98
775.60	3030.99
775.78	2611.16
775.95	2484.19
776.13	2502.62
776.31	2461.66
776.48	2811.86
776.66	2791.38
776.84	2639.83
777.01	2502.62
777.19	2598.87
777.37	2568.15
777.54	2723.80
777.72	2949.08
777.90	2709.46
778.07	2596.82
778.25	3188.69
778.43	2844.63
778.60	2654.17
778.78	2729.94
778.96	2938.84
779.13	2533.34
779.31	2752.47
779.49	2652.12
779.66	2727.89
779.84	2693.08
780.01	2613.21
780.19	2508.76
780.37	2893.78
780.54	2818.00
780.72	2613.21
780.90	2643.93
781.07	2719.70
781.25	2641.88
781.43	2809.81
781.60	2619.35
781.78	2873.30
781.95	2828.24
782.13	2600.92
782.31	2723.80
782.48	2508.76
782.66	2695.13
782.83	2922.45
783.01	2793.43
783.19	2865.11
783.36	2645.98
783.54	2578.39
783.72	2770.90
783.89	2666.46
784.07	2719.70
784.24	2785.24
784.42	2824.15
784.60	2740.18
784.77	2695.13
784.95	2441.18
785.12	2492.38
785.30	2815.96
785.47	2623.45
785.65	2535.39
785.83	2654.17
786.00	2744.28
786.18	2707.41
786.35	2568.15
786.53	2572.25
786.71	2822.10
786.88	2760.66
787.06	2738.13
787.23	2615.26
787.41	2514.91
787.58	2736.09
787.76	2510.81
787.94	2658.26
788.11	2719.70
788.29	2523.10
788.46	2553.82
788.64	2519.00
788.81	2725.85
788.99	2605.02
789.16	2498.52
789.34	2678.74
789.52	2658.26
789.69	2682.84
789.87	2389.98
790.04	2576.34
790.22	2691.03
790.39	2942.93
790.57	2580.44
790.74	2531.29
790.92	2904.02
791.09	2549.72
791.27	2596.82
791.44	2785.24
791.62	2658.26
791.79	2848.72
791.97	2652.12
792.15	2996.18
792.32	2875.35
792.50	2775.00
792.67	2848.72
792.85	2867.16
793.02	2772.95
793.20	2584.54
793.37	2516.95
793.55	2602.97
793.72	2617.30
793.90	2822.10
794.07	2605.02
794.25	2557.91
794.42	2799.57
794.60	2715.61
794.77	2711.51
794.95	2721.75
795.12	2858.96
795.30	2592.73
795.47	2469.85
795.65	2963.41
795.82	2619.35
796.00	2555.86
796.17	2654.17
796.34	2580.44
796.52	2725.85
796.69	2793.43
796.87	2752.47
797.04	2779.09
797.22	2830.29
797.39	2740.18
797.57	2727.89
797.74	2617.30
797.92	2719.70
798.09	2564.06
798.27	2756.57
798.44	2510.81
798.62	2584.54
798.79	2711.51
798.96	2795.48
799.14	2666.46
799.31	3164.11
799.49	2637.78
799.66	2619.35
799.84	2658.26
800.01	2596.82
800.19	2777.05
800.36	2502.62
800.53	2639.83
800.71	2828.24
800.88	2908.12
801.06	2611.16
801.23	2584.54
801.41	2719.70
801.58	2621.40
801.75	2609.11
801.93	2684.89
802.10	2836.44
802.28	2656.22
802.45	2588.63
802.63	2691.03
802.80	2961.36
802.97	2723.80
803.15	2656.22
803.32	2664.41
803.50	2506.71
803.67	2672.60
803.84	2527.19
804.02	2658.26
804.19	2629.59
804.37	2408.41
804.54	2570.20
804.71	2549.72
804.89	2717.65
805.06	2590.68
805.24	2600.92
805.41	2535.39
805.58	2645.98
805.76	2998.23
805.93	2674.65
806.10	2707.41
806.28	2807.77
806.45	2795.48
806.63	2750.42
806.80	2717.65
806.97	2826.20
807.15	2711.51
807.32	2729.94
807.49	2668.50
807.67	2570.20
807.84	2695.13
808.01	2482.14
808.19	2889.68
808.36	3053.52
808.54	2699.22
808.71	2564.06
808.88	2697.17
809.06	2861.01
809.23	2904.02
809.40	2613.21
809.58	2717.65
809.75	2803.67
809.92	2576.34
810.10	2848.72
810.27	2564.06
810.44	2725.85
810.62	2899.92
810.79	2793.43
810.96	2639.83
811.14	2621.40
811.31	2793.43
811.48	2744.28
811.66	2611.16
811.83	2908.12
812.00	2783.19
812.18	2766.81
812.35	2926.55
812.52	2680.79
812.69	2566.10
812.87	2611.16
813.04	2555.86
813.21	2664.41
813.39	2674.65
813.56	2500.57
813.73	2768.85
813.91	2602.97
814.08	2686.94
814.25	2678.74
814.42	2510.81
814.60	2635.74
814.77	2664.41
814.94	2668.50
815.12	2674.65
815.29	2920.40
815.46	2621.40
815.63	2676.70
815.81	2615.26
815.98	2629.59
816.15	2727.89
816.33	2633.69
816.50	2678.74
816.67	2807.77
816.84	2697.17
817.02	2584.54
817.19	2627.54
817.36	2719.70
817.53	2775.00
817.71	2576.34
817.88	2777.05
818.05	2693.08
818.22	2656.22
818.40	2840.53
818.57	2629.59
818.74	2805.72
818.91	2721.75
819.09	2750.42
819.26	2748.37
819.43	2600.92
819.60	2617.30
819.78	2744.28
819.95	2799.57
820.12	2596.82
820.29	2957.27
820.47	2775.00
820.64	2635.74
820.81	2498.52
820.98	2621.40
821.15	2666.46
821.33	2715.61
821.50	2555.86
821.67	2775.00
821.84	2621.40
822.02	2678.74
822.19	2858.96
822.36	2648.02
822.53	2611.16
822.70	2527.19
822.88	2654.17
823.05	2875.35
823.22	2725.85
823.39	2695.13
823.56	2674.65
823.74	2916.31
823.91	2494.43
824.08	2623.45
824.25	2562.01
824.42	2936.79
824.60	2478.04
824.77	2715.61
824.94	2648.02
825.11	2777.05
825.28	2463.71
825.45	2734.04
825.63	2715.61
825.80	2617.30
825.97	2752.47
826.14	2623.45
826.31	2559.96
826.48	2754.52
826.66	2586.58
826.83	2570.20
827.00	2617.30
827.17	2521.05
827.34	2691.03
827.51	2576.34
827.69	2658.26
827.86	2525.15
828.03	2678.74
828.20	2664.41
828.37	2633.69
828.54	2787.29
828.71	2553.82
828.89	2779.09
829.06	2705.37
829.23	2889.68
829.40	2678.74
829.57	2609.11
829.74	2826.20
829.91	2592.73
830.09	2543.58
830.26	2725.85
830.43	2949.08
830.60	2742.23
830.77	2731.99
830.94	2801.62
831.11	2807.77
831.28	2676.70
831.46	2758.61
831.63	2654.17
831.80	2867.16
831.97	2619.35
832.14	2605.02
832.31	2641.88
832.48	2752.47
832.65	2830.29
832.82	2717.65
832.99	2736.09
833.17	2572.25
833.34	2918.36
833.51	2734.04
833.68	2422.75
833.85	2830.29
834.02	2609.11
834.19	2623.45
834.36	2611.16
834.53	2717.65
834.70	2781.14
834.87	2682.84
835.04	2543.58
835.22	2633.69
835.39	2691.03
835.56	2482.14
835.73	2629.59
835.90	2834.39
836.07	2611.16
836.24	2725.85
836.41	2461.66
836.58	2621.40
836.75	2869.20
836.92	2564.06
837.09	2482.14
837.26	2861.01
837.43	2709.46
837.60	2627.54
837.77	2576.34
837.94	2861.01
838.12	2924.50
838.29	2525.15
838.46	2439.13
838.63	2523.10
838.80	2875.35
838.97	2668.50
839.14	2611.16
839.31	2688.98
839.48	2854.87
839.65	2586.58
839.82	2594.78
839.99	2699.22
840.16	2764.76
840.33	2592.73
840.50	2580.44
840.67	2625.50
840.84	2340.83
841.01	2559.96
841.18	2455.51
841.35	2691.03
841.52	2820.05
841.69	2764.76
841.86	2568.15
842.03	2731.99
842.20	2848.72
842.37	2502.62
842.54	2559.96
842.71	2703.32
842.88	2523.10
843.05	2549.72
843.22	2543.58
843.39	2775.00
843.56	2695.13
843.73	2576.34
843.90	2633.69
844.07	2709.46
844.24	2795.48
844.41	2662.36
844.58	2592.73
844.75	2619.35
844.92	2707.41
845.09	2594.78
845.26	2529.24
845.43	2805.72
845.60	2613.21
845.77	2731.99
845.94	2596.82
846.10	2785.24
846.27	2543.58
846.44	2441.18
846.61	2426.84
846.78	2744.28
846.95	2930.64
847.12	2535.39
847.29	2660.31
847.46	2557.91
847.63	2844.63
847.80	2529.24
847.97	2574.30
848.14	3016.66
848.31	2639.83
848.48	2365.40
848.65	2641.88
848.82	2627.54
848.98	3137.49
849.15	2668.50
849.32	2727.89
849.49	2777.05
849.66	2699.22
849.83	2523.10
850.00	2465.75
850.17	2822.10
850.34	2625.50
850.51	2492.38
850.68	2543.58
850.85	3006.42
851.01	2772.95
851.18	2523.10
851.35	2543.58
851.52	2738.13
851.69	2893.78
851.86	2539.48
852.03	2609.11
852.20	2764.76
852.37	2721.75
852.53	2441.18
852.70	2488.28
852.87	2707.41
853.04	2787.29
853.21	2557.91
853.38	2705.37
853.55	2848.72
853.72	2881.49
853.89	2379.74
854.05	2510.81
854.22	2654.17
854.39	2762.71
854.56	2600.92
854.73	2744.28
854.90	2637.78
855.07	2635.74
855.23	2500.57
855.40	2506.71
855.57	2713.56
855.74	2426.84
855.91	2709.46
856.08	2467.80
856.25	2506.71
856.41	2564.06
856.58	2555.86
856.75	2549.72
856.92	2672.60
857.09	2863.06
857.26	2412.51
857.42	2625.50
857.59	2838.48
857.76	2633.69
857.93	2564.06
858.10	2635.74
858.27	2545.63
858.43	2709.46
858.60	2549.72
858.77	2465.75
858.94	2543.58
859.11	2807.77
859.27	2562.01
859.44	2502.62
859.61	3008.47
859.78	2838.48
859.95	2562.01
860.12	2510.81
860.28	2983.89
860.45	2996.18
860.62	2562.01
860.79	2641.88
860.95	2629.59
861.12	2535.39
861.29	2435.03
861.46	2488.28
861.63	2693.08
861.79	2729.94
861.96	2473.95
862.13	2539.48
862.30	2922.45
862.47	2592.73
862.63	2519.00
862.80	2721.75
862.97	2838.48
863.14	2789.33
863.30	2592.73
863.47	2465.75
863.64	2944.98
863.81	2795.48
863.97	2461.66
864.14	2684.89
864.31	2654.17
864.48	2779.09
864.65	2566.10
864.81	2629.59
864.98	2830.29
865.15	2854.87
865.32	2666.46
865.48	2613.21
865.65	2953.17
865.82	2590.68
865.98	2578.39
866.15	2707.41
866.32	2719.70
866.49	2600.92
866.65	2731.99
866.82	2537.43
866.99	2693.08
867.16	2586.58
867.32	2605.02
867.49	2519.00
867.66	2674.65
867.83	2602.97
867.99	2494.43
868.16	2516.95
868.33	2594.78
868.49	2701.27
868.66	2580.44
868.83	2650.07
868.99	2674.65
869.16	2727.89
869.33	2703.32
869.50	2613.21
869.66	2711.51
869.83	2670.55
870.00	2408.41
870.16	2688.98
870.33	2660.31
870.50	2828.24
870.66	2682.84
870.83	2613.21
871.00	2688.98
871.17	2727.89
871.33	2650.07
871.50	2459.61
871.67	2670.55
871.83	2660.31
872.00	2574.30
872.17	2545.63
872.33	2912.21
872.50	2836.44
872.67	2656.22
872.83	2539.48
873.00	2740.18
873.17	2711.51
873.33	2660.31
873.50	2627.54
873.67	2551.77
873.83	2562.01
874.00	2641.88
874.16	2654.17
874.33	2752.47
874.50	2551.77
874.66	2586.58
874.83	2602.97
875.00	2904.02
875.16	2883.54
875.33	2652.12
875.50	2322.40
875.66	2662.36
875.83	2619.35
875.99	2680.79
876.16	2635.74
876.33	2621.40
876.49	2701.27
876.66	2637.78
876.83	2637.78
876.99	2539.48
877.16	2648.02
877.32	2521.05
877.49	2588.63
877.66	2764.76
877.82	2863.06
877.99	2682.84
878.15	2766.81
878.32	2719.70
878.49	2752.47
878.65	2564.06
878.82	2809.81
878.98	2643.93
879.15	2867.16
879.32	2686.94
879.48	2727.89
879.65	2621.40
879.81	2625.50
879.98	2504.67
880.15	2650.07
880.31	2858.96
880.48	2611.16
880.64	2641.88
880.81	2645.98
880.97	2920.40
881.14	2895.83
881.31	2461.66
881.47	2742.23
881.64	2586.58
881.80	2521.05
881.97	2670.55
882.13	2654.17
882.30	2605.02
882.47	2650.07
882.63	2465.75
882.80	2541.53
882.96	2705.37
883.13	2936.79
883.29	2564.06
883.46	2525.15
883.62	3014.61
883.79	2750.42
883.95	2709.46
884.12	2576.34
884.29	2904.02
884.45	2652.12
884.62	2568.15
884.78	2572.25
884.95	3008.47
885.11	2547.67
885.28	2641.88
885.44	2541.53
885.61	2809.81
885.77	2869.20
885.94	2678.74
886.10	2611.16
886.27	2693.08
886.43	2916.31
886.60	2783.19
886.76	2586.58
886.93	2553.82
887.09	2682.84
887.26	2516.95
887.42	2574.30
887.59	2906.07
887.75	3014.61
887.92	2727.89
888.08	2752.47
888.25	2992.08
888.41	2797.53
888.58	2619.35
888.74	2443.23
888.91	2578.39
>>>>>End Processed Spectral Data<<<<<
