SpectraSuite Data File
++++++++++++++++++++++++++++++++++++
Date: Thu May 05 16:20:15 CEST 2016
User: root
Dark Spectrum Present: No
Reference Spectrum Present: No
Number of Sampled Component Spectra: 1
Spectrometers: USB4C02835
Integration Time (usec): 100000 (USB4C02835)
Spectra Averaged: 1 (USB4C02835)
Boxcar Smoothing: 0 (USB4C02835)
Correct for Electrical Dark: No (USB4C02835)
Strobe/Lamp Enabled: No (USB4C02835)
Correct for Detector Non-linearity: No (USB4C02835)
Correct for Stray Light: No (USB4C02835)
Number of Pixels in Processed Spectrum: 3648
>>>>>Begin Processed Spectral Data<<<<<
177.47	2013.15
177.69	2013.15
177.91	2013.15
178.13	2074.59
178.36	2041.82
178.58	2605.02
178.80	2772.95
179.02	2523.10
179.24	2553.82
179.46	2426.84
179.68	2553.82
179.90	2695.13
180.13	2731.99
180.35	2408.41
180.57	2441.18
180.79	2775.00
181.01	2688.98
181.23	2504.67
181.45	2600.92
181.67	2844.63
181.90	2772.95
182.12	2549.72
182.34	2398.17
182.56	2891.73
182.78	2781.14
183.00	2457.56
183.22	2463.71
183.44	2514.91
183.66	3082.19
183.89	2635.74
184.11	2529.24
184.33	2766.81
184.55	2858.96
184.77	2553.82
184.99	2471.90
185.21	2658.26
185.43	3076.05
185.65	2506.71
185.87	2467.80
186.10	3006.42
186.32	3012.56
186.54	2596.82
186.76	2596.82
186.98	2873.30
187.20	2721.75
187.42	2557.91
187.64	2529.24
187.86	2854.87
188.08	2858.96
188.30	2420.70
188.52	2531.29
188.75	2901.97
188.97	2932.69
189.19	2519.00
189.41	2494.43
189.63	2832.34
189.85	2600.92
190.07	2443.23
190.29	2377.69
190.51	2719.70
190.73	2488.28
190.95	2650.07
191.17	2482.14
191.39	2506.71
191.61	2725.85
191.84	2553.82
192.06	2574.30
192.28	2521.05
192.50	3172.30
192.72	2684.89
192.94	2508.76
193.16	2854.87
193.38	2811.86
193.60	2566.10
193.82	2596.82
194.04	2963.41
194.26	2852.82
194.48	2445.27
194.70	2426.84
194.92	2645.98
195.14	2805.72
195.36	2461.66
195.58	2613.21
195.80	2645.98
196.02	2639.83
196.24	2523.10
196.46	2602.97
196.69	2617.30
196.91	3096.53
197.13	2480.09
197.35	2496.47
197.57	2912.21
197.79	2756.57
198.01	2521.05
198.23	2566.10
198.45	2768.85
198.67	2541.53
198.89	2426.84
199.11	2508.76
199.33	2635.74
199.55	2445.27
199.77	2469.85
199.99	2643.93
200.21	2680.79
200.43	2815.96
200.65	2424.80
200.87	2365.40
201.09	2717.65
201.31	2605.02
201.53	2541.53
201.75	2590.68
201.97	2762.71
202.19	2752.47
202.41	2557.91
202.63	2719.70
202.85	2791.38
203.07	2697.17
203.29	2494.43
203.51	2486.23
203.73	2607.06
203.95	3008.47
204.17	2506.71
204.39	2680.79
204.61	2746.33
204.83	2688.98
205.05	2615.26
205.27	2557.91
205.49	3080.14
205.71	2682.84
205.93	2482.14
206.15	2398.17
206.37	2637.78
206.59	2711.51
206.81	2400.22
207.03	2400.22
207.25	2572.25
207.47	2824.15
207.69	2529.24
207.91	2746.33
208.13	2949.08
208.34	2611.16
208.56	2496.47
208.78	2496.47
209.00	2658.26
209.22	2615.26
209.44	2576.34
209.66	2435.03
209.88	2772.95
210.10	2695.13
210.32	2576.34
210.54	2623.45
210.76	2740.18
210.98	2877.40
211.20	2357.21
211.42	2672.60
211.64	2848.72
211.86	2801.62
212.08	2633.69
212.30	2547.67
212.52	2658.26
212.74	2779.09
212.96	2506.71
213.17	2562.01
213.39	2793.43
213.61	3006.42
213.83	2613.21
214.05	2387.93
214.27	2863.06
214.49	2543.58
214.71	2486.23
214.93	2643.93
215.15	2703.32
215.37	2826.20
215.59	2326.49
215.81	2572.25
216.03	2949.08
216.24	2729.94
216.46	2541.53
216.68	2539.48
216.90	2805.72
217.12	2879.44
217.34	2463.71
217.56	2674.65
217.78	2901.97
218.00	2818.00
218.22	2602.97
218.44	2594.78
218.66	2750.42
218.87	2979.79
219.09	2553.82
219.31	2564.06
219.53	2711.51
219.75	2600.92
219.97	2613.21
220.19	2484.19
220.41	2711.51
220.63	2938.84
220.85	2605.02
221.06	2523.10
221.28	2830.29
221.50	2820.05
221.72	2562.01
221.94	2443.23
222.16	2721.75
222.38	2867.16
222.60	2582.49
222.82	2492.38
223.03	2809.81
223.25	2602.97
223.47	2557.91
223.69	2701.27
223.91	2793.43
224.13	2727.89
224.35	2432.99
224.57	2629.59
224.78	2856.92
225.00	2576.34
225.22	2559.96
225.44	2535.39
225.66	2787.29
225.88	2707.41
226.10	2588.63
226.32	2549.72
226.53	2930.64
226.75	2643.93
226.97	2596.82
227.19	2525.15
227.41	2691.03
227.63	2619.35
227.85	2416.60
228.06	2510.81
228.28	2760.66
228.50	2805.72
228.72	2293.72
228.94	2492.38
229.16	2482.14
229.37	2551.77
229.59	2441.18
229.81	2676.70
230.03	2652.12
230.25	2588.63
230.47	2392.03
230.69	2383.84
230.90	2858.96
231.12	2572.25
231.34	2494.43
231.56	2629.59
231.78	2627.54
232.00	2736.09
232.21	2529.24
232.43	2523.10
232.65	2459.61
232.87	2768.85
233.09	2469.85
233.30	2441.18
233.52	2850.77
233.74	2676.70
233.96	2496.47
234.18	2656.22
234.40	2711.51
234.61	3053.52
234.83	2449.37
235.05	2453.47
235.27	3006.42
235.49	2883.54
235.70	2482.14
235.92	2627.54
236.14	2787.29
236.36	3164.11
236.58	2371.55
236.79	2551.77
237.01	2736.09
237.23	2783.19
237.45	2803.67
237.67	2568.15
237.88	2791.38
238.10	2987.99
238.32	2455.51
238.54	2494.43
238.76	2713.56
238.97	2650.07
239.19	2383.84
239.41	2519.00
239.63	2875.35
239.85	2635.74
240.06	2531.29
240.28	2439.13
240.50	2809.81
240.72	2793.43
240.93	2514.91
241.15	2576.34
241.37	2676.70
241.59	2981.84
241.81	2414.56
242.02	2486.23
242.24	2703.32
242.46	2838.48
242.68	2412.51
242.89	2457.56
243.11	2830.29
243.33	2744.28
243.55	2523.10
243.76	2596.82
243.98	2615.26
244.20	2705.37
244.42	2553.82
244.64	2496.47
244.85	2486.23
245.07	2605.02
245.29	2535.39
245.51	2519.00
245.72	2779.09
245.94	2840.53
246.16	2533.34
246.38	2525.15
246.59	2670.55
246.81	2605.02
247.03	2428.89
247.24	2396.12
247.46	2615.26
247.68	2670.55
247.90	2455.51
248.11	2527.19
248.33	2889.68
248.55	2691.03
248.77	2529.24
248.98	2574.30
249.20	2955.22
249.42	2731.99
249.64	2490.33
249.85	2494.43
250.07	2607.06
250.29	2799.57
250.50	2545.63
250.72	2496.47
250.94	2797.53
251.16	3100.62
251.37	2492.38
251.59	2547.67
251.81	2766.81
252.02	2936.79
252.24	2478.04
252.46	2596.82
252.68	2658.26
252.89	2629.59
253.11	2295.77
253.33	2631.64
253.54	2947.03
253.76	2545.63
253.98	2449.37
254.20	2572.25
254.41	2562.01
254.63	2658.26
254.85	2324.44
255.06	2557.91
255.28	2715.61
255.50	2695.13
255.71	2516.95
255.93	2355.16
256.15	2670.55
256.36	2818.00
256.58	2381.79
256.80	2541.53
257.02	2678.74
257.23	2633.69
257.45	2488.28
257.67	2643.93
257.88	2537.43
258.10	2809.81
258.32	2396.12
258.53	2623.45
258.75	2975.70
258.97	2629.59
259.18	2506.71
259.40	2523.10
259.62	2947.03
259.83	2947.03
260.05	2504.67
260.27	3172.30
260.48	2889.68
260.70	2582.49
260.92	2506.71
261.13	2521.05
261.35	2752.47
261.57	2723.80
261.78	2396.12
262.00	2537.43
262.22	2830.29
262.43	2498.52
262.65	2521.05
262.86	2514.91
263.08	3147.73
263.30	2717.65
263.51	2365.40
263.73	2416.60
263.95	2930.64
264.16	2512.86
264.38	2408.41
264.60	2447.32
264.81	2666.46
265.03	2805.72
265.25	2836.44
265.46	2473.95
265.68	2949.08
265.89	2742.23
266.11	2449.37
266.33	2531.29
266.54	2875.35
266.76	2799.57
266.98	2586.58
267.19	2678.74
267.41	2858.96
267.62	2723.80
267.84	2336.73
268.06	2705.37
268.27	2666.46
268.49	2967.51
268.70	2566.10
268.92	2568.15
269.14	2627.54
269.35	2562.01
269.57	2580.44
269.79	2572.25
270.00	2598.87
270.22	3041.23
270.43	2455.51
270.65	2371.55
270.87	2811.86
271.08	2801.62
271.30	2668.50
271.51	2574.30
271.73	2783.19
271.95	2893.78
272.16	2494.43
272.38	2594.78
272.59	2635.74
272.81	2822.10
273.02	2478.04
273.24	2488.28
273.46	2895.83
273.67	2594.78
273.89	2494.43
274.10	2508.76
274.32	2842.58
274.54	2736.09
274.75	2643.93
274.97	2654.17
275.18	2883.54
275.40	2850.77
275.61	2523.10
275.83	2623.45
276.05	2627.54
276.26	2684.89
276.48	2629.59
276.69	2629.59
276.91	2678.74
277.12	3018.71
277.34	2758.61
277.55	2738.13
277.77	2738.13
277.99	2637.78
278.20	2547.67
278.42	2523.10
278.63	2652.12
278.85	2590.68
279.06	2535.39
279.28	2631.64
279.49	2840.53
279.71	2801.62
279.93	2707.41
280.14	2631.64
280.36	2691.03
280.57	2811.86
280.79	2719.70
281.00	2449.37
281.22	2623.45
281.43	2891.73
281.65	2400.22
281.86	2496.47
282.08	2813.91
282.29	2983.89
282.51	2502.62
282.73	2516.95
282.94	2512.86
283.16	2834.39
283.37	2744.28
283.59	2643.93
283.80	2758.61
284.02	2703.32
284.23	2674.65
284.45	2576.34
284.66	2615.26
284.88	2652.12
285.09	2629.59
285.31	2643.93
285.52	2797.53
285.74	2527.19
285.95	2717.65
286.17	2627.54
286.38	2781.14
286.60	2717.65
286.81	2596.82
287.03	2514.91
287.24	2670.55
287.46	2731.99
287.67	2643.93
287.89	2901.97
288.10	2731.99
288.32	2754.52
288.53	2807.77
288.75	2674.65
288.96	2805.72
289.18	2697.17
289.39	2617.30
289.61	2639.83
289.82	3047.38
290.04	2932.69
290.25	2465.75
290.47	2658.26
290.68	2617.30
290.90	2940.88
291.11	2455.51
291.33	2809.81
291.54	2545.63
291.76	2639.83
291.97	2650.07
292.18	2641.88
292.40	2742.23
292.61	2650.07
292.83	2809.81
293.04	2744.28
293.26	2678.74
293.47	2731.99
293.69	2572.25
293.90	2494.43
294.12	2922.45
294.33	2672.60
294.55	2637.78
294.76	2809.81
294.97	2916.31
295.19	2983.89
295.40	2551.77
295.62	2699.22
295.83	2897.88
296.05	2684.89
296.26	2848.72
296.48	2609.11
296.69	2731.99
296.90	2818.00
297.12	2709.46
297.33	2734.04
297.55	2736.09
297.76	2834.39
297.98	2719.70
298.19	2703.32
298.41	2676.70
298.62	2539.48
298.83	2818.00
299.05	2717.65
299.26	2645.98
299.48	2613.21
299.69	2666.46
299.90	2590.68
300.12	2596.82
300.33	2873.30
300.55	2629.59
300.76	2625.50
300.98	2572.25
301.19	2815.96
301.40	2562.01
301.62	2592.73
301.83	2729.94
302.05	2684.89
302.26	2590.68
302.47	2572.25
302.69	2588.63
302.90	2750.42
303.12	2394.08
303.33	2695.13
303.54	2901.97
303.76	2633.69
303.97	2555.86
304.19	2801.62
304.40	2596.82
304.61	2797.53
304.83	2744.28
305.04	2682.84
305.26	2760.66
305.47	2699.22
305.68	2613.21
305.90	2537.43
306.11	2826.20
306.33	2656.22
306.54	2445.27
306.75	2568.15
306.97	2492.38
307.18	2576.34
307.39	2629.59
307.61	2664.41
307.82	2725.85
308.04	2756.57
308.25	2514.91
308.46	2813.91
308.68	2719.70
308.89	2723.80
309.10	2764.76
309.32	2676.70
309.53	2660.31
309.74	2824.15
309.96	2580.44
310.17	2664.41
310.39	2617.30
310.60	2842.58
310.81	2650.07
311.03	2482.14
311.24	2713.56
311.45	2699.22
311.67	2781.14
311.88	2662.36
312.09	2627.54
312.31	2609.11
312.52	2521.05
312.73	2539.48
312.95	2506.71
313.16	2523.10
313.37	2725.85
313.59	2793.43
313.80	2824.15
314.01	2973.65
314.23	2568.15
314.44	2605.02
314.65	2617.30
314.87	2596.82
315.08	2590.68
315.29	2557.91
315.51	2553.82
315.72	2451.42
315.93	2738.13
316.15	2654.17
316.36	2627.54
316.57	2772.95
316.79	2617.30
317.00	2594.78
317.21	2840.53
317.43	2672.60
317.64	2617.30
317.85	2459.61
318.07	2596.82
318.28	2592.73
318.49	2686.94
318.70	2818.00
318.92	2850.77
319.13	2758.61
319.34	2787.29
319.56	2662.36
319.77	2899.92
319.98	2842.58
320.20	2791.38
320.41	2701.27
320.62	2754.52
320.83	2559.96
321.05	2854.87
321.26	2699.22
321.47	2717.65
321.69	2936.79
321.90	2543.58
322.11	2547.67
322.32	2731.99
322.54	2932.69
322.75	2623.45
322.96	3137.49
323.18	2443.23
323.39	2510.81
323.60	2588.63
323.81	2693.08
324.03	2576.34
324.24	2752.47
324.45	2654.17
324.66	2549.72
324.88	2832.34
325.09	3016.66
325.30	2621.40
325.52	2590.68
325.73	2768.85
325.94	2602.97
326.15	2521.05
326.37	2549.72
326.58	2924.50
326.79	3039.19
327.00	2541.53
327.22	2541.53
327.43	2652.12
327.64	2578.39
327.85	2670.55
328.07	2609.11
328.28	2987.99
328.49	2756.57
328.70	2631.64
328.92	2672.60
329.13	2686.94
329.34	2848.72
329.55	2750.42
329.76	2662.36
329.98	2709.46
330.19	2973.65
330.40	2664.41
330.61	2729.94
330.83	2783.19
331.04	2635.74
331.25	2711.51
331.46	2594.78
331.68	2510.81
331.89	2863.06
332.10	2641.88
332.31	2494.43
332.52	2775.00
332.74	2901.97
332.95	2463.71
333.16	2527.19
333.37	2834.39
333.58	2736.09
333.80	2596.82
334.01	2371.55
334.22	2688.98
334.43	2695.13
334.64	2543.58
334.86	2572.25
335.07	2605.02
335.28	2932.69
335.49	2469.85
335.70	2770.90
335.92	2885.59
336.13	3055.57
336.34	2658.26
336.55	2613.21
336.76	2719.70
336.98	2371.55
337.19	2684.89
337.40	2734.04
337.61	3102.67
337.82	2719.70
338.04	2721.75
338.25	2482.14
338.46	2656.22
338.67	2705.37
338.88	2488.28
339.09	2535.39
339.31	2641.88
339.52	2498.52
339.73	2541.53
339.94	2668.50
340.15	2889.68
340.36	2664.41
340.58	2643.93
340.79	2539.48
341.00	2858.96
341.21	2463.71
341.42	2811.86
341.63	2559.96
341.85	2828.24
342.06	2715.61
342.27	2523.10
342.48	2797.53
342.69	2437.08
342.90	2746.33
343.12	2871.25
343.33	2605.02
343.54	2865.11
343.75	2928.60
343.96	2598.87
344.17	2547.67
344.38	2742.23
344.60	2576.34
344.81	2529.24
345.02	2635.74
345.23	2834.39
345.44	3078.10
345.65	2744.28
345.86	2609.11
346.07	2777.05
346.29	2703.32
346.50	2701.27
346.71	2744.28
346.92	2899.92
347.13	3016.66
347.34	2697.17
347.55	2441.18
347.76	2783.19
347.98	2529.24
348.19	2682.84
348.40	2731.99
348.61	2729.94
348.82	2914.26
349.03	2613.21
349.24	2574.30
349.45	3022.80
349.66	2445.27
349.88	2580.44
350.09	2461.66
350.30	2873.30
350.51	2971.60
350.72	2676.70
350.93	2617.30
351.14	2670.55
351.35	2760.66
351.56	2627.54
351.77	2699.22
351.99	2744.28
352.20	2883.54
352.41	2742.23
352.62	2381.79
352.83	2715.61
353.04	2744.28
353.25	2531.29
353.46	2613.21
353.67	2906.07
353.88	2480.09
354.09	2588.63
354.30	2627.54
354.52	2854.87
354.73	2641.88
354.94	2578.39
355.15	2623.45
355.36	2918.36
355.57	2691.03
355.78	2635.74
355.99	2555.86
356.20	2703.32
356.41	2891.73
356.62	2693.08
356.83	2629.59
357.04	2881.49
357.25	2471.90
357.46	2570.20
357.68	2492.38
357.89	2625.50
358.10	2715.61
358.31	2643.93
358.52	2582.49
358.73	2555.86
358.94	2578.39
359.15	2605.02
359.36	2668.50
359.57	2652.12
359.78	2744.28
359.99	2744.28
360.20	2500.57
360.41	2721.75
360.62	2820.05
360.83	2652.12
361.04	2578.39
361.25	2826.20
361.46	3057.62
361.67	2797.53
361.88	2627.54
362.09	2863.06
362.30	2811.86
362.51	2482.14
362.72	2680.79
362.93	2824.15
363.14	2766.81
363.35	2676.70
363.56	2490.33
363.78	2873.30
363.99	2858.96
364.20	2607.06
364.41	2682.84
364.62	3022.80
364.83	2768.85
365.04	2580.44
365.25	2635.74
365.46	3008.47
365.67	2613.21
365.88	2629.59
366.09	2594.78
366.30	2662.36
366.51	2842.58
366.72	2535.39
366.93	2643.93
367.14	2785.24
367.35	2930.64
367.56	2598.87
367.77	2781.14
367.98	2668.50
368.18	2826.20
368.39	2766.81
368.60	2570.20
368.81	2887.64
369.02	2781.14
369.23	2580.44
369.44	2473.95
369.65	2666.46
369.86	2865.11
370.07	2709.46
370.28	2488.28
370.49	2725.85
370.70	2768.85
370.91	2449.37
371.12	2465.75
371.33	2797.53
371.54	2652.12
371.75	2760.66
371.96	2447.32
372.17	2736.09
372.38	2715.61
372.59	2602.97
372.80	2652.12
373.01	2744.28
373.22	2807.77
373.43	2641.88
373.64	2490.33
373.85	2846.68
374.06	2981.84
374.26	2756.57
374.47	2682.84
374.68	2861.01
374.89	2791.38
375.10	2566.10
375.31	2756.57
375.52	2686.94
375.73	2760.66
375.94	2527.19
376.15	2752.47
376.36	2615.26
376.57	2639.83
376.78	2586.58
376.99	2744.28
377.20	2934.74
377.40	2684.89
377.61	2928.60
377.82	2631.64
378.03	2820.05
378.24	2856.92
378.45	2686.94
378.66	2715.61
378.87	2519.00
379.08	2574.30
379.29	2598.87
379.50	2711.51
379.71	2709.46
379.91	2820.05
380.12	2592.73
380.33	2707.41
380.54	2731.99
380.75	2703.32
380.96	2619.35
381.17	2709.46
381.38	2772.95
381.59	2682.84
381.80	2607.06
382.00	2863.06
382.21	2709.46
382.42	3022.80
382.63	2951.12
382.84	2793.43
383.05	2826.20
383.26	2924.50
383.47	2695.13
383.68	2580.44
383.88	2820.05
384.09	2777.05
384.30	2775.00
384.51	2645.98
384.72	2637.78
384.93	2586.58
385.14	2699.22
385.35	2854.87
385.55	2537.43
385.76	2836.44
385.97	2627.54
386.18	2586.58
386.39	2629.59
386.60	2658.26
386.81	2617.30
387.02	2514.91
387.22	2574.30
387.43	2840.53
387.64	2721.75
387.85	2899.92
388.06	2848.72
388.27	3979.20
388.48	7559.05
388.68	10995.54
388.89	13381.43
389.10	14688.03
389.31	13907.76
389.52	10911.58
389.73	9254.77
389.93	8634.24
390.14	7784.33
390.35	7028.63
390.56	6291.36
390.77	5308.34
390.98	4122.56
391.18	3508.17
391.39	3200.98
391.60	2854.87
391.81	2875.35
392.02	2613.21
392.23	3063.76
392.43	2686.94
392.64	2756.57
392.85	2656.22
393.06	3024.85
393.27	2668.50
393.47	2572.25
393.68	2715.61
393.89	2674.65
394.10	2830.29
394.31	2592.73
394.52	2598.87
394.72	2586.58
394.93	2906.07
395.14	2576.34
395.35	2789.33
395.56	2652.12
395.76	2695.13
395.97	2508.76
396.18	2705.37
396.39	2826.20
396.60	3243.98
396.80	2965.46
397.01	2858.96
397.22	2916.31
397.43	2879.44
397.64	2547.67
397.84	2693.08
398.05	3080.14
398.26	2713.56
398.47	2801.62
398.67	2799.57
398.88	2699.22
399.09	2809.81
399.30	2654.17
399.51	2772.95
399.71	2619.35
399.92	2742.23
400.13	2676.70
400.34	2648.02
400.54	2635.74
400.75	2947.03
400.96	2760.66
401.17	2885.59
401.37	2813.91
401.58	2674.65
401.79	2658.26
402.00	2670.55
402.21	3112.91
402.41	2912.21
402.62	2912.21
402.83	3039.19
403.04	3096.53
403.24	3375.05
403.45	2678.74
403.66	2863.06
403.87	2910.16
404.07	2918.36
404.28	2867.16
404.49	2904.02
404.70	2818.00
404.90	2807.77
405.11	2693.08
405.32	2729.94
405.52	2637.78
405.73	2643.93
405.94	2549.72
406.15	2627.54
406.35	2822.10
406.56	2785.24
406.77	2652.12
406.98	2691.03
407.18	2615.26
407.39	2942.93
407.60	2611.16
407.80	2684.89
408.01	2703.32
408.22	2781.14
408.43	2625.50
408.63	2799.57
408.84	2850.77
409.05	2842.58
409.25	2631.64
409.46	2600.92
409.67	2609.11
409.88	2621.40
410.08	2742.23
410.29	2609.11
410.50	2772.95
410.70	2779.09
410.91	2492.38
411.12	2668.50
411.32	2705.37
411.53	2576.34
411.74	2721.75
411.95	2719.70
412.15	2701.27
412.36	2897.88
412.57	2740.18
412.77	2793.43
412.98	2654.17
413.19	2666.46
413.39	2688.98
413.60	2621.40
413.81	2932.69
414.01	2582.49
414.22	2682.84
414.43	2713.56
414.63	2686.94
414.84	2834.39
415.05	2650.07
415.25	2512.86
415.46	2768.85
415.67	2619.35
415.87	2672.60
416.08	2617.30
416.29	2691.03
416.49	2701.27
416.70	2580.44
416.91	2615.26
417.11	2703.32
417.32	2858.96
417.53	2760.66
417.73	2715.61
417.94	2725.85
418.15	2766.81
418.35	2695.13
418.56	2682.84
418.77	3129.30
418.97	2678.74
419.18	2615.26
419.38	2340.83
419.59	2670.55
419.80	2899.92
420.00	2615.26
420.21	2582.49
420.42	3006.42
420.62	2750.42
420.83	2582.49
421.04	2619.35
421.24	2650.07
421.45	2838.48
421.65	2693.08
421.86	2619.35
422.07	2840.53
422.27	2867.16
422.48	2641.88
422.69	2539.48
422.89	2731.99
423.10	2650.07
423.30	2551.77
423.51	2697.17
423.72	2805.72
423.92	2758.61
424.13	2473.95
424.33	2652.12
424.54	2863.06
424.75	2791.38
424.95	2869.20
425.16	2578.39
425.36	2639.83
425.57	2834.39
425.78	2727.89
425.98	2736.09
426.19	2754.52
426.39	2656.22
426.60	2701.27
426.81	2807.77
427.01	2801.62
427.22	2629.59
427.42	2455.51
427.63	2568.15
427.83	2922.45
428.04	2955.22
428.25	2738.13
428.45	2820.05
428.66	2813.91
428.86	2592.73
429.07	2656.22
429.28	2633.69
429.48	2701.27
429.69	2572.25
429.89	2760.66
430.10	2516.95
430.30	2863.06
430.51	2942.93
430.71	2574.30
430.92	2645.98
431.13	2656.22
431.33	2813.91
431.54	2715.61
431.74	2830.29
431.95	3076.05
432.15	2613.21
432.36	2637.78
432.56	2715.61
432.77	2987.99
432.98	2992.08
433.18	2668.50
433.39	2574.30
433.59	2703.32
433.80	3108.82
434.00	2863.06
434.21	2578.39
434.41	2621.40
434.62	3014.61
434.82	2519.00
435.03	2533.34
435.23	2809.81
435.44	2504.67
435.64	2609.11
435.85	2648.02
436.06	2807.77
436.26	2873.30
436.47	2652.12
436.67	2602.97
436.88	2744.28
437.08	2826.20
437.29	2791.38
437.49	2760.66
437.70	2949.08
437.90	2662.36
438.11	2838.48
438.31	2703.32
438.52	2918.36
438.72	2928.60
438.93	2918.36
439.13	2711.51
439.34	2869.20
439.54	2756.57
439.75	2801.62
439.95	2756.57
440.16	2660.31
440.36	2744.28
440.57	2619.35
440.77	2658.26
440.98	2707.41
441.18	2807.77
441.39	2527.19
441.59	2514.91
441.80	3063.76
442.00	2666.46
442.21	2879.44
442.41	2480.09
442.62	2901.97
442.82	2680.79
443.02	2607.06
443.23	2662.36
443.43	2697.17
443.64	2830.29
443.84	2586.58
444.05	2746.33
444.25	2809.81
444.46	2684.89
444.66	2619.35
444.87	2893.78
445.07	2490.33
445.28	2715.61
445.48	2820.05
445.69	2680.79
445.89	3037.14
446.09	2664.41
446.30	2949.08
446.50	3092.43
446.71	4693.94
446.91	5586.86
447.12	6512.54
447.32	6895.51
447.53	6635.42
447.73	5468.08
447.93	4816.82
448.14	4585.40
448.34	4597.69
448.55	3917.76
448.75	3895.24
448.96	3641.29
449.16	3426.25
449.36	3350.48
449.57	2912.21
449.77	2738.13
449.98	2760.66
450.18	2815.96
450.39	2668.50
450.59	2832.34
450.79	2793.43
451.00	2654.17
451.20	2762.71
451.41	2693.08
451.61	2846.68
451.81	2631.64
452.02	2547.67
452.22	2609.11
452.43	2572.25
452.63	2652.12
452.84	2736.09
453.04	2615.26
453.24	2723.80
453.45	2568.15
453.65	2723.80
453.86	2682.84
454.06	2793.43
454.26	2756.57
454.47	2652.12
454.67	2772.95
454.87	2754.52
455.08	2709.46
455.28	2867.16
455.49	2715.61
455.69	2693.08
455.89	3086.29
456.10	2799.57
456.30	2709.46
456.51	2826.20
456.71	2777.05
456.91	2711.51
457.12	2627.54
457.32	2768.85
457.52	2639.83
457.73	2850.77
457.93	2797.53
458.14	2660.31
458.34	2551.77
458.54	2691.03
458.75	2582.49
458.95	2822.10
459.15	2752.47
459.36	2752.47
459.56	2725.85
459.76	3131.34
459.97	2703.32
460.17	2717.65
460.37	2736.09
460.58	2656.22
460.78	2867.16
460.99	2586.58
461.19	2682.84
461.39	2658.26
461.60	2664.41
461.80	2744.28
462.00	2553.82
462.21	2731.99
462.41	2592.73
462.61	2519.00
462.82	2441.18
463.02	2895.83
463.22	2678.74
463.43	2809.81
463.63	2623.45
463.83	2928.60
464.04	2830.29
464.24	2693.08
464.44	2582.49
464.64	2779.09
464.85	2838.48
465.05	2688.98
465.25	2613.21
465.46	2611.16
465.66	2854.87
465.86	2777.05
466.07	2713.56
466.27	2625.50
466.47	2555.86
466.68	2541.53
466.88	2865.11
467.08	2785.24
467.29	2865.11
467.49	2682.84
467.69	2695.13
467.89	2887.64
468.10	2736.09
468.30	2715.61
468.50	2783.19
468.71	2881.49
468.91	2572.25
469.11	2846.68
469.31	2686.94
469.52	2684.89
469.72	3014.61
469.92	2985.94
470.13	2678.74
470.33	2752.47
470.53	2793.43
470.73	2975.70
470.94	3276.75
471.14	3397.58
471.34	3770.31
471.54	3725.26
471.75	3332.05
471.95	3108.82
472.15	3157.97
472.36	3088.34
472.56	2957.27
472.76	3164.11
472.96	3024.85
473.17	2844.63
473.37	2797.53
473.57	2703.32
473.77	2840.53
473.98	2729.94
474.18	2539.48
474.38	3241.93
474.58	2719.70
474.79	2596.82
474.99	2762.71
475.19	2861.01
475.39	2637.78
475.60	2695.13
475.80	2645.98
476.00	2750.42
476.20	2654.17
476.41	2697.17
476.61	2680.79
476.81	2910.16
477.01	2660.31
477.21	2889.68
477.42	2791.38
477.62	2623.45
477.82	2850.77
478.02	2660.31
478.23	2785.24
478.43	2588.63
478.63	2731.99
478.83	2695.13
479.03	2678.74
479.24	2897.88
479.44	3053.52
479.64	2584.54
479.84	2459.61
480.04	2572.25
480.25	2777.05
480.45	2578.39
480.65	2611.16
480.85	2971.60
481.06	2740.18
481.26	2645.98
481.46	2695.13
481.66	2793.43
481.86	2648.02
482.06	2736.09
482.27	2629.59
482.47	2643.93
482.67	2736.09
482.87	2572.25
483.07	2703.32
483.28	2619.35
483.48	2525.15
483.68	2670.55
483.88	2500.57
484.08	2508.76
484.29	2605.02
484.49	2670.55
484.69	2482.14
484.89	2926.55
485.09	2906.07
485.29	2678.74
485.50	2695.13
485.70	2688.98
485.90	3057.62
486.10	2795.48
486.30	2674.65
486.50	2904.02
486.71	2787.29
486.91	2715.61
487.11	2760.66
487.31	2584.54
487.51	2820.05
487.71	2619.35
487.91	2609.11
488.12	2570.20
488.32	2432.99
488.52	2578.39
488.72	2336.73
488.92	2779.09
489.12	2967.51
489.32	2789.33
489.53	2717.65
489.73	2465.75
489.93	2971.60
490.13	2594.78
490.33	2475.99
490.53	2801.62
490.73	2797.53
490.94	2576.34
491.14	2754.52
491.34	2895.83
491.54	2842.58
491.74	3579.85
491.94	4034.50
492.14	4437.95
492.34	4456.38
492.54	4128.70
492.75	3577.80
492.95	3620.81
493.15	3438.54
493.35	3405.77
493.55	3248.08
493.75	3211.22
493.95	3153.87
494.15	2924.50
494.35	2688.98
494.56	2832.34
494.76	2670.55
494.96	2775.00
495.16	2623.45
495.36	2697.17
495.56	2750.42
495.76	2613.21
495.96	2625.50
496.16	2600.92
496.36	3059.67
496.56	2695.13
496.77	2670.55
496.97	2711.51
497.17	2887.64
497.37	2512.86
497.57	2750.42
497.77	2711.51
497.97	2637.78
498.17	2670.55
498.37	2660.31
498.57	2848.72
498.77	2770.90
498.97	2754.52
499.17	2887.64
499.38	2684.89
499.58	2822.10
499.78	2768.85
499.98	2758.61
500.18	2662.36
500.38	2639.83
500.58	2887.64
500.78	3209.17
500.98	5492.65
501.18	7217.04
501.38	8738.68
501.58	9645.93
501.78	9543.53
501.98	7612.30
502.18	6477.73
502.38	5717.93
502.58	5519.28
502.78	4796.34
502.98	4618.17
503.18	4517.82
503.38	4186.05
503.59	3573.71
503.79	3440.59
503.99	3262.41
504.19	3153.87
504.39	3157.97
504.59	3123.15
504.79	3162.06
504.99	3241.93
505.19	2883.54
505.39	2832.34
505.59	3041.23
505.79	3090.38
505.99	2965.46
506.19	2654.17
506.39	2867.16
506.59	2623.45
506.79	2688.98
506.99	2828.24
507.19	2641.88
507.39	2734.04
507.59	2508.76
507.79	2578.39
507.99	2559.96
508.19	2725.85
508.39	2682.84
508.59	2736.09
508.79	2785.24
508.99	2998.23
509.19	2590.68
509.39	2699.22
509.59	2588.63
509.79	2605.02
509.99	2756.57
510.19	2746.33
510.39	2707.41
510.59	2729.94
510.79	2648.02
510.99	2551.77
511.19	2639.83
511.39	2955.22
511.59	2867.16
511.79	2758.61
511.99	2639.83
512.19	2944.98
512.38	2797.53
512.58	2576.34
512.78	2590.68
512.98	2832.34
513.18	2914.26
513.38	2553.82
513.58	2727.89
513.78	2697.17
513.98	2670.55
514.18	2621.40
514.38	2607.06
514.58	2768.85
514.78	2631.64
514.98	2598.87
515.18	2615.26
515.38	2570.20
515.58	2979.79
515.78	2731.99
515.98	2611.16
516.18	2787.29
516.38	2631.64
516.57	2596.82
516.77	2633.69
516.97	2856.92
517.17	2641.88
517.37	2340.83
517.57	2744.28
517.77	2637.78
517.97	2555.86
518.17	2711.51
518.37	2547.67
518.57	2643.93
518.77	2586.58
518.97	2705.37
519.16	2762.71
519.36	2875.35
519.56	2627.54
519.76	2555.86
519.96	2668.50
520.16	2908.12
520.36	2549.72
520.56	2807.77
520.76	2588.63
520.96	2566.10
521.16	2822.10
521.35	2703.32
521.55	2797.53
521.75	2656.22
521.95	2613.21
522.15	2639.83
522.35	2516.95
522.55	2557.91
522.75	2789.33
522.95	2615.26
523.14	2527.19
523.34	2809.81
523.54	2570.20
523.74	2715.61
523.94	2752.47
524.14	2508.76
524.34	2852.82
524.54	2826.20
524.73	2584.54
524.93	2791.38
525.13	2772.95
525.33	2564.06
525.53	2904.02
525.73	2834.39
525.93	2717.65
526.13	2631.64
526.32	2611.16
526.52	2809.81
526.72	2834.39
526.92	2736.09
527.12	2613.21
527.32	2529.24
527.52	2723.80
527.71	2631.64
527.91	2674.65
528.11	2701.27
528.31	2684.89
528.51	2592.73
528.71	2777.05
528.90	2844.63
529.10	2961.36
529.30	2701.27
529.50	2406.36
529.70	2764.76
529.90	2658.26
530.09	2666.46
530.29	2412.51
530.49	2621.40
530.69	3182.54
530.89	2699.22
531.09	2736.09
531.28	2648.02
531.48	3008.47
531.68	2660.31
531.88	2752.47
532.08	2785.24
532.28	2621.40
532.47	2744.28
532.67	2783.19
532.87	2783.19
533.07	2525.15
533.27	2725.85
533.46	2762.71
533.66	2719.70
533.86	2684.89
534.06	2725.85
534.26	2592.73
534.45	2654.17
534.65	2861.01
534.85	2691.03
535.05	2541.53
535.25	2904.02
535.44	2535.39
535.64	2744.28
535.84	2619.35
536.04	2619.35
536.24	2695.13
536.43	2613.21
536.63	2711.51
536.83	2711.51
537.03	2666.46
537.22	2445.27
537.42	2473.95
537.62	2775.00
537.82	2629.59
538.02	2846.68
538.21	2744.28
538.41	3198.93
538.61	2801.62
538.81	2654.17
539.00	2832.34
539.20	2465.75
539.40	2641.88
539.60	2590.68
539.79	2799.57
539.99	2713.56
540.19	2650.07
540.39	2596.82
540.58	2766.81
540.78	2863.06
540.98	2650.07
541.18	2734.04
541.37	2752.47
541.57	2766.81
541.77	2740.18
541.97	2629.59
542.16	2432.99
542.36	2695.13
542.56	2631.64
542.76	2832.34
542.95	2727.89
543.15	2791.38
543.35	2836.44
543.54	2586.58
543.74	2631.64
543.94	2963.41
544.14	2703.32
544.33	2715.61
544.53	2566.10
544.73	2699.22
544.93	2617.30
545.12	2609.11
545.32	2660.31
545.52	2670.55
545.71	2566.10
545.91	2615.26
546.11	2576.34
546.30	2453.47
546.50	2637.78
546.70	2676.70
546.90	2695.13
547.09	2467.80
547.29	2760.66
547.49	2871.25
547.68	2703.32
547.88	2580.44
548.08	2848.72
548.27	3022.80
548.47	2619.35
548.67	2637.78
548.87	2756.57
549.06	2684.89
549.26	2557.91
549.46	2877.40
549.65	2668.50
549.85	2623.45
550.05	2668.50
550.24	2516.95
550.44	2719.70
550.64	2676.70
550.83	2705.37
551.03	2930.64
551.23	2912.21
551.42	2701.27
551.62	2682.84
551.82	2768.85
552.01	2717.65
552.21	2826.20
552.41	2650.07
552.60	2951.12
552.80	2770.90
553.00	2641.88
553.19	2623.45
553.39	2852.82
553.59	2576.34
553.78	2717.65
553.98	2695.13
554.17	2543.58
554.37	2760.66
554.57	2713.56
554.76	2441.18
554.96	2643.93
555.16	2688.98
555.35	2770.90
555.55	2723.80
555.75	2699.22
555.94	2791.38
556.14	2498.52
556.33	2764.76
556.53	2709.46
556.73	2719.70
556.92	2731.99
557.12	2678.74
557.32	3012.56
557.51	2908.12
557.71	2709.46
557.90	2895.83
558.10	2881.49
558.30	2656.22
558.49	2662.36
558.69	2674.65
558.88	2848.72
559.08	2779.09
559.28	2699.22
559.47	2672.60
559.67	2815.96
559.86	3030.99
560.06	2652.12
560.26	2629.59
560.45	2877.40
560.65	2652.12
560.84	2850.77
561.04	2488.28
561.24	2793.43
561.43	2525.15
561.63	2883.54
561.82	2744.28
562.02	2846.68
562.22	2609.11
562.41	2512.86
562.61	2656.22
562.80	2582.49
563.00	3061.71
563.19	2723.80
563.39	2734.04
563.59	2873.30
563.78	2525.15
563.98	2482.14
564.17	2611.16
564.37	2471.90
564.56	2715.61
564.76	2531.29
564.96	2807.77
565.15	2803.67
565.35	3092.43
565.54	2676.70
565.74	2705.37
565.93	2793.43
566.13	2736.09
566.32	2721.75
566.52	2691.03
566.71	2764.76
566.91	2906.07
567.11	2783.19
567.30	2551.77
567.50	2785.24
567.69	2813.91
567.89	2594.78
568.08	2529.24
568.28	2791.38
568.47	2564.06
568.67	2760.66
568.86	2596.82
569.06	2828.24
569.25	2652.12
569.45	2512.86
569.64	2602.97
569.84	2676.70
570.04	2840.53
570.23	2670.55
570.43	2645.98
570.62	2766.81
570.82	3024.85
571.01	2523.10
571.21	2584.54
571.40	2588.63
571.60	2877.40
571.79	2719.70
571.99	2680.79
572.18	2596.82
572.38	2744.28
572.57	2672.60
572.77	2678.74
572.96	3119.06
573.16	2772.95
573.35	2631.64
573.55	2826.20
573.74	2799.57
573.94	2621.40
574.13	2662.36
574.33	2781.14
574.52	2934.74
574.71	2678.74
574.91	2734.04
575.10	2514.91
575.30	2684.89
575.49	2535.39
575.69	2572.25
575.88	2645.98
576.08	2791.38
576.27	2842.58
576.47	2643.93
576.66	2820.05
576.86	2904.02
577.05	2777.05
577.25	2770.90
577.44	3006.42
577.64	2641.88
577.83	2877.40
578.02	2570.20
578.22	2848.72
578.41	2981.84
578.61	2717.65
578.80	2555.86
579.00	2596.82
579.19	2695.13
579.39	2781.14
579.58	2781.14
579.77	2562.01
579.97	2916.31
580.16	2844.63
580.36	2838.48
580.55	2752.47
580.75	2760.66
580.94	2729.94
581.13	2871.25
581.33	2955.22
581.52	2738.13
581.72	3069.91
581.91	2832.34
582.11	2680.79
582.30	2865.11
582.49	2752.47
582.69	2897.88
582.88	2768.85
583.08	2742.23
583.27	2871.25
583.47	2717.65
583.66	2625.50
583.85	2613.21
584.05	2717.65
584.24	2818.00
584.44	2834.39
584.63	2906.07
584.82	2932.69
585.02	2852.82
585.21	2869.20
585.41	2887.64
585.60	2805.72
585.79	2940.88
585.99	3051.47
586.18	2852.82
586.37	3524.55
586.57	5504.94
586.76	16117.51
586.96	35200.49
587.15	48579.87
587.34	57300.12
587.54	61529.17
587.73	55037.11
587.93	38794.67
588.12	29728.31
588.31	24051.34
588.51	21096.13
588.70	19713.75
588.89	17321.72
589.09	14765.85
589.28	12623.68
589.47	9924.46
589.67	7595.92
589.86	5945.25
590.06	4585.40
590.25	3936.20
590.44	3366.86
590.64	3088.34
590.83	3006.42
591.02	3026.90
591.22	2723.80
591.41	2725.85
591.60	2832.34
591.80	3160.02
591.99	2559.96
592.18	2570.20
592.38	2813.91
592.57	2662.36
592.76	2713.56
592.96	2775.00
593.15	2723.80
593.34	2916.31
593.54	2633.69
593.73	2762.71
593.92	2838.48
594.12	2854.87
594.31	2766.81
594.50	2951.12
594.70	2775.00
594.89	3250.13
595.08	2537.43
595.28	2777.05
595.47	3211.22
595.66	2893.78
595.86	2504.67
596.05	2584.54
596.24	2711.51
596.43	3080.14
596.63	2867.16
596.82	2703.32
597.01	2772.95
597.21	2998.23
597.40	2686.94
597.59	2697.17
597.79	2719.70
597.98	2764.76
598.17	2775.00
598.36	2670.55
598.56	2897.88
598.75	2709.46
598.94	2695.13
599.14	2691.03
599.33	2674.65
599.52	2838.48
599.71	2742.23
599.91	2682.84
600.10	2805.72
600.29	2729.94
600.48	2777.05
600.68	2815.96
600.87	2783.19
601.06	2641.88
601.26	2742.23
601.45	2756.57
601.64	2693.08
601.83	2904.02
602.03	2568.15
602.22	2621.40
602.41	2924.50
602.60	3078.10
602.80	2813.91
602.99	2770.90
603.18	2705.37
603.37	2736.09
603.57	2629.59
603.76	2762.71
603.95	2840.53
604.14	2707.41
604.34	2535.39
604.53	2637.78
604.72	2750.42
604.91	2840.53
605.10	2678.74
605.30	2496.47
605.49	3102.67
605.68	2863.06
605.87	2715.61
606.07	2578.39
606.26	2744.28
606.45	2764.76
606.64	2738.13
606.84	2555.86
607.03	2830.29
607.22	2883.54
607.41	2715.61
607.60	2637.78
607.80	2934.74
607.99	2723.80
608.18	2760.66
608.37	2758.61
608.56	2713.56
608.76	2961.36
608.95	2832.34
609.14	2779.09
609.33	2916.31
609.52	3030.99
609.72	2740.18
609.91	2807.77
610.10	2748.37
610.29	2867.16
610.48	2758.61
610.68	2781.14
610.87	2717.65
611.06	2818.00
611.25	2660.31
611.44	2832.34
611.63	2643.93
611.83	2899.92
612.02	2637.78
612.21	2826.20
612.40	2445.27
612.59	2607.06
612.79	2594.78
612.98	2762.71
613.17	2973.65
613.36	2772.95
613.55	2850.77
613.74	2742.23
613.93	2736.09
614.13	2832.34
614.32	2875.35
614.51	2815.96
614.70	2777.05
614.89	2701.27
615.08	2760.66
615.28	3033.04
615.47	2537.43
615.66	2754.52
615.85	2682.84
616.04	2770.90
616.23	2793.43
616.42	2750.42
616.62	2691.03
616.81	2791.38
617.00	2746.33
617.19	2861.01
617.38	2691.03
617.57	2695.13
617.76	2719.70
617.95	2838.48
618.15	2717.65
618.34	2920.40
618.53	2482.14
618.72	2906.07
618.91	2742.23
619.10	2756.57
619.29	2727.89
619.48	2656.22
619.68	2578.39
619.87	2662.36
620.06	2512.86
620.25	2775.00
620.44	2656.22
620.63	2617.30
620.82	2715.61
621.01	2834.39
621.20	2680.79
621.39	2670.55
621.59	2813.91
621.78	2693.08
621.97	2639.83
622.16	2838.48
622.35	2768.85
622.54	2811.86
622.73	2766.81
622.92	2510.81
623.11	2899.92
623.30	2666.46
623.49	2789.33
623.68	2508.76
623.88	2951.12
624.07	2672.60
624.26	2609.11
624.45	2666.46
624.64	2697.17
624.83	2797.53
625.02	2654.17
625.21	2664.41
625.40	2711.51
625.59	2908.12
625.78	2701.27
625.97	2799.57
626.16	2932.69
626.35	2912.21
626.54	2664.41
626.74	2879.44
626.93	2723.80
627.12	2713.56
627.31	2727.89
627.50	2721.75
627.69	2875.35
627.88	2562.01
628.07	2619.35
628.26	2471.90
628.45	2643.93
628.64	2568.15
628.83	2582.49
629.02	2496.47
629.21	2834.39
629.40	2707.41
629.59	2586.58
629.78	2648.02
629.97	2727.89
630.16	2680.79
630.35	2668.50
630.54	2695.13
630.73	2605.02
630.92	2775.00
631.11	2572.25
631.30	2777.05
631.49	2904.02
631.68	2684.89
631.87	2725.85
632.06	2482.14
632.25	3028.95
632.44	2734.04
632.63	2777.05
632.82	2697.17
633.01	2658.26
633.20	2772.95
633.39	2609.11
633.58	2557.91
633.77	2719.70
633.96	2834.39
634.15	2789.33
634.34	2723.80
634.53	2824.15
634.72	2648.02
634.91	2559.96
635.10	2748.37
635.29	2881.49
635.48	2731.99
635.67	2572.25
635.86	2533.34
636.05	2904.02
636.24	2658.26
636.43	2639.83
636.62	2721.75
636.81	2338.78
637.00	2693.08
637.19	2697.17
637.38	2711.51
637.57	2703.32
637.76	2676.70
637.95	2791.38
638.14	2641.88
638.33	2789.33
638.52	2734.04
638.71	2471.90
638.89	2584.54
639.08	3137.49
639.27	2981.84
639.46	2852.82
639.65	3135.44
639.84	3250.13
640.03	3282.89
640.22	2979.79
640.41	3088.34
640.60	2908.12
640.79	3024.85
640.98	2779.09
641.17	2760.66
641.36	2897.88
641.55	2818.00
641.74	2586.58
641.92	2588.63
642.11	2541.53
642.30	2701.27
642.49	2592.73
642.68	2631.64
642.87	2822.10
643.06	2801.62
643.25	2592.73
643.44	2527.19
643.63	2717.65
643.82	2869.20
644.00	2602.97
644.19	2695.13
644.38	2545.63
644.57	2789.33
644.76	2619.35
644.95	2633.69
645.14	2686.94
645.33	2727.89
645.52	2656.22
645.71	2504.67
645.89	2504.67
646.08	2713.56
646.27	2572.25
646.46	2836.44
646.65	2486.23
646.84	2676.70
647.03	2578.39
647.22	2777.05
647.40	2768.85
647.59	2652.12
647.78	2559.96
647.97	2590.68
648.16	2582.49
648.35	2922.45
648.54	2803.67
648.73	2602.97
648.91	2858.96
649.10	2754.52
649.29	2525.15
649.48	2549.72
649.67	2848.72
649.86	2793.43
650.05	2711.51
650.23	2811.86
650.42	2641.88
650.61	2959.31
650.80	2727.89
650.99	2959.31
651.18	2901.97
651.36	2832.34
651.55	2598.87
651.74	2803.67
651.93	2688.98
652.12	2650.07
652.31	2742.23
652.49	2701.27
652.68	2707.41
652.87	2904.02
653.06	2697.17
653.25	2940.88
653.44	2781.14
653.62	2920.40
653.81	2676.70
654.00	2652.12
654.19	2805.72
654.38	3053.52
654.56	2727.89
654.75	2566.10
654.94	2871.25
655.13	2734.04
655.32	2637.78
655.51	2777.05
655.69	2699.22
655.88	2801.62
656.07	2512.86
656.26	2744.28
656.45	2590.68
656.63	2715.61
656.82	2711.51
657.01	2871.25
657.20	2635.74
657.38	2947.03
657.57	2660.31
657.76	2467.80
657.95	2766.81
658.14	2627.54
658.32	2766.81
658.51	2584.54
658.70	2887.64
658.89	2811.86
659.08	2750.42
659.26	2901.97
659.45	2598.87
659.64	2772.95
659.83	2637.78
660.01	3028.95
660.20	2760.66
660.39	2928.60
660.58	2365.40
660.76	2783.19
660.95	2547.67
661.14	2740.18
661.33	2471.90
661.51	2588.63
661.70	2656.22
661.89	2764.76
662.08	2656.22
662.26	2572.25
662.45	2588.63
662.64	3047.38
662.83	2740.18
663.01	2533.34
663.20	2645.98
663.39	2930.64
663.58	2578.39
663.76	2652.12
663.95	2799.57
664.14	2494.43
664.32	2664.41
664.51	2484.19
664.70	2529.24
664.89	2736.09
665.07	2545.63
665.26	2715.61
665.45	2512.86
665.64	2836.44
665.82	2596.82
666.01	2748.37
666.20	2562.01
666.38	2869.20
666.57	2830.29
666.76	4249.54
666.95	9922.41
667.13	17247.99
667.32	20924.10
667.51	24080.02
667.69	25001.60
667.88	21616.31
668.07	15400.72
668.25	12998.46
668.44	10995.54
668.63	9650.03
668.81	8628.09
669.00	7323.54
669.19	6625.18
669.38	5758.89
669.56	4937.65
669.75	4265.92
669.94	3766.21
670.12	3155.92
670.31	3020.75
670.50	2918.36
670.68	2963.41
670.87	2844.63
671.06	2742.23
671.24	2760.66
671.43	2879.44
671.62	2731.99
671.80	2613.21
671.99	2707.41
672.18	2721.75
672.36	2822.10
672.55	2701.27
672.74	2633.69
672.92	2656.22
673.11	2770.90
673.29	2580.44
673.48	2787.29
673.67	2684.89
673.85	2856.92
674.04	2559.96
674.23	2613.21
674.41	2953.17
674.60	2590.68
674.79	2535.39
674.97	2555.86
675.16	2813.91
675.34	2795.48
675.53	2666.46
675.72	2775.00
675.90	2969.55
676.09	2703.32
676.28	2615.26
676.46	2492.38
676.65	2811.86
676.83	2512.86
677.02	2635.74
677.21	2734.04
677.39	2799.57
677.58	2629.59
677.77	2615.26
677.95	2541.53
678.14	2643.93
678.32	2721.75
678.51	2686.94
678.70	2895.83
678.88	2699.22
679.07	2695.13
679.25	2693.08
679.44	2678.74
679.63	2494.43
679.81	2725.85
680.00	2906.07
680.18	2756.57
680.37	3002.32
680.55	2703.32
680.74	2457.56
680.93	2447.32
681.11	2703.32
681.30	2686.94
681.48	2736.09
681.67	2674.65
681.85	2715.61
682.04	2615.26
682.23	2734.04
682.41	2766.81
682.60	2762.71
682.78	2713.56
682.97	2594.78
683.15	2576.34
683.34	2678.74
683.53	3014.61
683.71	2523.10
683.90	2748.37
684.08	2961.36
684.27	2719.70
684.45	2658.26
684.64	2797.53
684.82	2623.45
685.01	2826.20
685.19	2744.28
685.38	2838.48
685.57	2701.27
685.75	2576.34
685.94	2602.97
686.12	2498.52
686.31	2693.08
686.49	3000.27
686.68	2441.18
686.86	2766.81
687.05	2709.46
687.23	2996.18
687.42	2635.74
687.60	2467.80
687.79	2897.88
687.97	2877.40
688.16	2758.61
688.34	2803.67
688.53	2533.34
688.71	2787.29
688.90	2926.55
689.08	2611.16
689.27	2551.77
689.45	2783.19
689.64	2703.32
689.82	2713.56
690.01	2762.71
690.19	2809.81
690.38	2637.78
690.56	2807.77
690.75	2559.96
690.93	2633.69
691.12	2625.50
691.30	2705.37
691.49	2684.89
691.67	2627.54
691.86	2891.73
692.04	2582.49
692.23	2664.41
692.41	2709.46
692.60	2994.13
692.78	2777.05
692.97	2699.22
693.15	2736.09
693.34	2871.25
693.52	2795.48
693.71	2658.26
693.89	2580.44
694.08	2512.86
694.26	2727.89
694.44	2850.77
694.63	2840.53
694.81	2584.54
695.00	2650.07
695.18	2807.77
695.37	3028.95
695.55	2701.27
695.74	2682.84
695.92	2635.74
696.10	2934.74
696.29	2461.66
696.47	2564.06
696.66	2572.25
696.84	2512.86
697.03	2658.26
697.21	2904.02
697.40	4085.70
697.58	2885.59
697.76	2699.22
697.95	2588.63
698.13	2594.78
698.32	2529.24
698.50	2660.31
698.68	2678.74
698.87	2785.24
699.05	2916.31
699.24	2727.89
699.42	2508.76
699.61	2738.13
699.79	2680.79
699.97	2725.85
700.16	2592.73
700.34	2537.43
700.53	2719.70
700.71	2940.88
700.89	2856.92
701.08	2654.17
701.26	2742.23
701.45	3121.10
701.63	2527.19
701.81	2639.83
702.00	2570.20
702.18	2742.23
702.37	2621.40
702.55	2916.31
702.73	2861.01
702.92	2656.22
703.10	2934.74
703.28	2938.84
703.47	2596.82
703.65	2830.29
703.84	2850.77
704.02	2682.84
704.20	2949.08
704.39	2596.82
704.57	2656.22
704.75	2930.64
704.94	2789.33
705.12	2736.09
705.30	3119.06
705.49	5910.44
705.67	11884.36
705.86	17802.99
706.04	20602.57
706.22	22974.11
706.41	22838.95
706.59	17796.85
706.77	13483.83
706.96	11562.83
707.14	10141.54
707.32	8978.30
707.51	8030.09
707.69	6512.54
707.87	5283.76
708.06	4464.57
708.24	3796.93
708.42	3434.44
708.61	3368.91
708.79	2777.05
708.97	2787.29
709.16	2764.76
709.34	2764.76
709.52	2695.13
709.71	2705.37
709.89	2811.86
710.07	2641.88
710.26	2570.20
710.44	2729.94
710.62	2881.49
710.80	2697.17
710.99	2779.09
711.17	2805.72
711.35	2645.98
711.54	2625.50
711.72	2791.38
711.90	2756.57
712.09	2742.23
712.27	2594.78
712.45	2725.85
712.63	2617.30
712.82	2742.23
713.00	2783.19
713.18	2818.00
713.37	2756.57
713.55	2875.35
713.73	2758.61
713.91	2697.17
714.10	2658.26
714.28	2664.41
714.46	2809.81
714.65	2719.70
714.83	2705.37
715.01	2785.24
715.19	2750.42
715.38	2607.06
715.56	2785.24
715.74	2617.30
715.92	2605.02
716.11	2852.82
716.29	2484.19
716.47	2701.27
716.65	2731.99
716.84	2504.67
717.02	2828.24
717.20	2512.86
717.38	2615.26
717.57	2731.99
717.75	2691.03
717.93	2631.64
718.11	2836.44
718.30	2566.10
718.48	2707.41
718.66	2846.68
718.84	2889.68
719.03	2686.94
719.21	2512.86
719.39	3000.27
719.57	2822.10
719.75	2766.81
719.94	2594.78
720.12	2648.02
720.30	2738.13
720.48	2799.57
720.67	2625.50
720.85	2523.10
721.03	2715.61
721.21	2523.10
721.39	2801.62
721.58	2805.72
721.76	2723.80
721.94	2676.70
722.12	2770.90
722.30	2971.60
722.49	2832.34
722.67	2727.89
722.85	2723.80
723.03	2496.47
723.21	2574.30
723.40	2691.03
723.58	2842.58
723.76	2775.00
723.94	2893.78
724.12	2686.94
724.30	2942.93
724.49	2920.40
724.67	2527.19
724.85	2820.05
725.03	2527.19
725.21	2844.63
725.40	2875.35
725.58	2643.93
725.76	2879.44
725.94	2752.47
726.12	2486.23
726.30	2721.75
726.49	2635.74
726.67	2703.32
726.85	2844.63
727.03	3084.24
727.21	4114.37
727.39	5070.77
727.57	5621.67
727.76	6057.89
727.94	6168.48
728.12	5484.46
728.30	4648.89
728.48	4292.54
728.66	4005.83
728.84	3807.17
729.03	3303.37
729.21	3133.39
729.39	3002.32
729.57	2799.57
729.75	2838.48
729.93	2727.89
730.11	2562.01
730.30	2684.89
730.48	2697.17
730.66	2865.11
730.84	2772.95
731.02	2731.99
731.20	2627.54
731.38	2740.18
731.56	2478.04
731.74	2506.71
731.93	2736.09
732.11	2719.70
732.29	2621.40
732.47	2799.57
732.65	2703.32
732.83	2840.53
733.01	2742.23
733.19	2588.63
733.37	2711.51
733.56	2666.46
733.74	2602.97
733.92	2891.73
734.10	2711.51
734.28	2768.85
734.46	2471.90
734.64	2731.99
734.82	2701.27
735.00	2549.72
735.18	2656.22
735.36	2725.85
735.54	2756.57
735.73	2652.12
735.91	2805.72
736.09	2904.02
736.27	2727.89
736.45	2650.07
736.63	2537.43
736.81	2645.98
736.99	2979.79
737.17	2861.01
737.35	2633.69
737.53	2762.71
737.71	2699.22
737.89	2828.24
738.07	2596.82
738.25	2691.03
738.43	2502.62
738.61	2635.74
738.80	2557.91
738.98	2523.10
739.16	2670.55
739.34	2584.54
739.52	2875.35
739.70	2729.94
739.88	2799.57
740.06	2752.47
740.24	2478.04
740.42	2848.72
740.60	2506.71
740.78	2549.72
740.96	2543.58
741.14	2650.07
741.32	2699.22
741.50	2539.48
741.68	2854.87
741.86	2949.08
742.04	2547.67
742.22	2582.49
742.40	2695.13
742.58	2742.23
742.76	2553.82
742.94	2881.49
743.12	2422.75
743.30	2709.46
743.48	2785.24
743.66	2547.67
743.84	2643.93
744.02	2688.98
744.20	2688.98
744.38	2510.81
744.56	2529.24
744.74	2942.93
744.92	2877.40
745.10	2871.25
745.28	2766.81
745.46	2881.49
745.64	2701.27
745.82	2789.33
746.00	2676.70
746.18	2785.24
746.36	2613.21
746.54	2707.41
746.72	2717.65
746.90	2637.78
747.08	2969.55
747.26	2572.25
747.44	2768.85
747.62	2746.33
747.80	2736.09
747.98	2674.65
748.15	2639.83
748.33	2971.60
748.51	2754.52
748.69	2740.18
748.87	2588.63
749.05	2682.84
749.23	2676.70
749.41	2652.12
749.59	2602.97
749.77	2920.40
749.95	2645.98
750.13	2613.21
750.31	2693.08
750.49	2654.17
750.67	2799.57
750.85	2822.10
751.03	2639.83
751.20	2983.89
751.38	2648.02
751.56	2570.20
751.74	2666.46
751.92	2650.07
752.10	2576.34
752.28	2889.68
752.46	2590.68
752.64	2670.55
752.82	2711.51
753.00	2781.14
753.18	2609.11
753.35	2641.88
753.53	2717.65
753.71	2578.39
753.89	2725.85
754.07	2750.42
754.25	2850.77
754.43	2705.37
754.61	2586.58
754.79	2818.00
754.97	2781.14
755.14	2818.00
755.32	2537.43
755.50	2701.27
755.68	2791.38
755.86	2564.06
756.04	2643.93
756.22	2482.14
756.40	2785.24
756.57	2873.30
756.75	2627.54
756.93	2834.39
757.11	2922.45
757.29	2570.20
757.47	2605.02
757.65	2496.47
757.82	2414.56
758.00	2570.20
758.18	2633.69
758.36	2570.20
758.54	2969.55
758.72	2516.95
758.90	2842.58
759.07	2854.87
759.25	2602.97
759.43	2742.23
759.61	2426.84
759.79	3899.33
759.97	2879.44
760.15	2717.65
760.32	2645.98
760.50	2775.00
760.68	2957.27
760.86	2480.09
761.04	2852.82
761.22	2801.62
761.39	2697.17
761.57	2746.33
761.75	2705.37
761.93	2758.61
762.11	2680.79
762.28	2748.37
762.46	2498.52
762.64	2832.34
762.82	2564.06
763.00	2602.97
763.18	2836.44
763.35	2488.28
763.53	2744.28
763.71	2686.94
763.89	2652.12
764.07	2721.75
764.24	2736.09
764.42	2785.24
764.60	2619.35
764.78	2750.42
764.96	2818.00
765.13	2719.70
765.31	2600.92
765.49	2850.77
765.67	2684.89
765.84	2521.05
766.02	2521.05
766.20	2490.33
766.38	2727.89
766.56	2727.89
766.73	2744.28
766.91	2721.75
767.09	2736.09
767.27	2785.24
767.44	2580.44
767.62	2877.40
767.80	2764.76
767.98	2588.63
768.15	2670.55
768.33	2881.49
768.51	2858.96
768.69	2701.27
768.87	2715.61
769.04	2652.12
769.22	3145.68
769.40	2752.47
769.58	2844.63
769.75	2711.51
769.93	2930.64
770.11	2645.98
770.28	2578.39
770.46	2752.47
770.64	2748.37
770.82	2678.74
770.99	2598.87
771.17	2789.33
771.35	2633.69
771.53	2596.82
771.70	2605.02
771.88	2760.66
772.06	2711.51
772.23	2615.26
772.41	2695.13
772.59	2633.69
772.77	2578.39
772.94	2602.97
773.12	2723.80
773.30	2621.40
773.47	2738.13
773.65	2629.59
773.83	2834.39
774.01	2676.70
774.18	2488.28
774.36	2637.78
774.54	2547.67
774.71	2756.57
774.89	2508.76
775.07	2574.30
775.24	2566.10
775.42	2668.50
775.60	3016.66
775.78	2529.24
775.95	2557.91
776.13	2426.84
776.31	2437.08
776.48	2756.57
776.66	2736.09
776.84	2674.65
777.01	2562.01
777.19	2576.34
777.37	2574.30
777.54	2844.63
777.72	2967.51
777.90	2779.09
778.07	2578.39
778.25	3164.11
778.43	2863.06
778.60	2537.43
778.78	2783.19
778.96	2895.83
779.13	2572.25
779.31	2742.23
779.49	2668.50
779.66	2717.65
779.84	2674.65
780.01	2654.17
780.19	2580.44
780.37	2873.30
780.54	2787.29
780.72	2537.43
780.90	2670.55
781.07	2695.13
781.25	2596.82
781.43	2828.24
781.60	2580.44
781.78	2934.74
781.95	2734.04
782.13	2615.26
782.31	2670.55
782.48	2508.76
782.66	2680.79
782.83	2914.26
783.01	2752.47
783.19	2834.39
783.36	2656.22
783.54	2514.91
783.72	2760.66
783.89	2596.82
784.07	2678.74
784.24	2734.04
784.42	2844.63
784.60	2633.69
784.77	2766.81
784.95	2465.75
785.12	2611.16
785.30	2674.65
785.47	2594.78
785.65	2531.29
785.83	2600.92
786.00	2641.88
786.18	2752.47
786.35	2588.63
786.53	2572.25
786.71	2865.11
786.88	2846.68
787.06	2707.41
787.23	2664.41
787.41	2498.52
787.58	2643.93
787.76	2551.77
787.94	2652.12
788.11	2746.33
788.29	2519.00
788.46	2613.21
788.64	2471.90
788.81	2709.46
788.99	2533.34
789.16	2539.48
789.34	2619.35
789.52	2684.89
789.69	2637.78
789.87	2420.70
790.04	2582.49
790.22	2770.90
790.39	3061.71
790.57	2641.88
790.74	2498.52
790.92	2871.25
791.09	2549.72
791.27	2766.81
791.44	2764.76
791.62	2703.32
791.79	2824.15
791.97	2758.61
792.15	2904.02
792.32	2891.73
792.50	2791.38
792.67	2801.62
792.85	2848.72
793.02	2787.29
793.20	2736.09
793.37	2535.39
793.55	2617.30
793.72	2570.20
793.90	2854.87
794.07	2578.39
794.25	2570.20
794.42	2787.29
794.60	2637.78
794.77	2723.80
794.95	2754.52
795.12	2850.77
795.30	2723.80
795.47	2475.99
795.65	2930.64
795.82	2744.28
796.00	2588.63
796.17	2756.57
796.34	2566.10
796.52	2772.95
796.69	2865.11
796.87	2768.85
797.04	2699.22
797.22	2901.97
797.39	2813.91
797.57	2793.43
797.74	2695.13
797.92	2734.04
798.09	2691.03
798.27	2846.68
798.44	2637.78
798.62	2541.53
798.79	2799.57
798.96	2742.23
799.14	2562.01
799.31	3092.43
799.49	2693.08
799.66	2648.02
799.84	2676.70
800.01	2504.67
800.19	2736.09
800.36	2516.95
800.53	2660.31
800.71	2754.52
800.88	2850.77
801.06	2600.92
801.23	2559.96
801.41	2660.31
801.58	2670.55
801.75	2514.91
801.93	2695.13
802.10	2789.33
802.28	2662.36
802.45	2686.94
802.63	2715.61
802.80	2938.84
802.97	2566.10
803.15	2662.36
803.32	2609.11
803.50	2631.64
803.67	2643.93
803.84	2562.01
804.02	2660.31
804.19	2684.89
804.37	2367.45
804.54	2525.15
804.71	2602.97
804.89	2705.37
805.06	2615.26
805.24	2598.87
805.41	2510.81
805.58	2512.86
805.76	3098.58
805.93	2697.17
806.10	2858.96
806.28	2752.47
806.45	2750.42
806.63	2703.32
806.80	2643.93
806.97	2777.05
807.15	2695.13
807.32	2717.65
807.49	2568.15
807.67	2555.86
807.84	2734.04
808.01	2449.37
808.19	2867.16
808.36	3014.61
808.54	2697.17
808.71	2564.06
808.88	2631.64
809.06	2865.11
809.23	3006.42
809.40	2574.30
809.58	2699.22
809.75	2756.57
809.92	2582.49
810.10	2944.98
810.27	2639.83
810.44	2811.86
810.62	2766.81
810.79	2736.09
810.96	2641.88
811.14	2650.07
811.31	2772.95
811.48	2805.72
811.66	2740.18
811.83	2813.91
812.00	2805.72
812.18	2703.32
812.35	2901.97
812.52	2670.55
812.69	2627.54
812.87	2691.03
813.04	2527.19
813.21	2744.28
813.39	2578.39
813.56	2547.67
813.73	2783.19
813.91	2572.25
814.08	2717.65
814.25	2719.70
814.42	2455.51
814.60	2695.13
814.77	2727.89
814.94	2717.65
815.12	2705.37
815.29	2938.84
815.46	2684.89
815.63	2680.79
815.81	2643.93
815.98	2613.21
816.15	2652.12
816.33	2666.46
816.50	2668.50
816.67	2723.80
816.84	2707.41
817.02	2535.39
817.19	2650.07
817.36	2811.86
817.53	2783.19
817.71	2602.97
817.88	2709.46
818.05	2693.08
818.22	2670.55
818.40	2822.10
818.57	2602.97
818.74	2783.19
818.91	2688.98
819.09	2775.00
819.26	2783.19
819.43	2629.59
819.60	2572.25
819.78	2777.05
819.95	2660.31
820.12	2613.21
820.29	2922.45
820.47	2850.77
820.64	2584.54
820.81	2531.29
820.98	2684.89
821.15	2674.65
821.33	2785.24
821.50	2555.86
821.67	2838.48
821.84	2572.25
822.02	2711.51
822.19	2789.33
822.36	2637.78
822.53	2611.16
822.70	2510.81
822.88	2643.93
823.05	2934.74
823.22	2691.03
823.39	2752.47
823.56	2750.42
823.74	2979.79
823.91	2547.67
824.08	2555.86
824.25	2572.25
824.42	3012.56
824.60	2549.72
824.77	2701.27
824.94	2670.55
825.11	2789.33
825.28	2519.00
825.45	2695.13
825.63	2760.66
825.80	2629.59
825.97	2729.94
826.14	2660.31
826.31	2473.95
826.48	2777.05
826.66	2605.02
826.83	2660.31
827.00	2713.56
827.17	2512.86
827.34	2662.36
827.51	2602.97
827.69	2703.32
827.86	2443.23
828.03	2686.94
828.20	2664.41
828.37	2605.02
828.54	2801.62
828.71	2475.99
828.89	2785.24
829.06	2658.26
829.23	2869.20
829.40	2643.93
829.57	2648.02
829.74	2842.58
829.91	2598.87
830.09	2566.10
830.26	2818.00
830.43	2957.27
830.60	2658.26
830.77	2760.66
830.94	2777.05
831.11	2834.39
831.28	2645.98
831.46	2834.39
831.63	2643.93
831.80	2826.20
831.97	2660.31
832.14	2629.59
832.31	2641.88
832.48	2852.82
832.65	2916.31
832.82	2654.17
832.99	2717.65
833.17	2619.35
833.34	2969.55
833.51	2680.79
833.68	2484.19
833.85	2865.11
834.02	2570.20
834.19	2539.48
834.36	2568.15
834.53	2731.99
834.70	2797.53
834.87	2641.88
835.04	2570.20
835.22	2572.25
835.39	2678.74
835.56	2523.10
835.73	2637.78
835.90	2877.40
836.07	2555.86
836.24	2695.13
836.41	2510.81
836.58	2605.02
836.75	2820.05
836.92	2600.92
837.09	2475.99
837.26	2785.24
837.43	2811.86
837.60	2660.31
837.77	2586.58
837.94	2873.30
838.12	2826.20
838.29	2463.71
838.46	2365.40
838.63	2615.26
838.80	2987.99
838.97	2641.88
839.14	2508.76
839.31	2731.99
839.48	2875.35
839.65	2674.65
839.82	2559.96
839.99	2801.62
840.16	2686.94
840.33	2486.23
840.50	2633.69
840.67	2611.16
840.84	2387.93
841.01	2531.29
841.18	2537.43
841.35	2693.08
841.52	2789.33
841.69	2865.11
841.86	2529.24
842.03	2691.03
842.20	2809.81
842.37	2557.91
842.54	2572.25
842.71	2717.65
842.88	2449.37
843.05	2559.96
843.22	2467.80
843.39	2781.14
843.56	2635.74
843.73	2584.54
843.90	2660.31
844.07	2693.08
844.24	2793.43
844.41	2621.40
844.58	2629.59
844.75	2627.54
844.92	2801.62
845.09	2643.93
845.26	2629.59
845.43	2820.05
845.60	2621.40
845.77	2754.52
845.94	2596.82
846.10	2758.61
846.27	2473.95
846.44	2457.56
846.61	2457.56
846.78	2731.99
846.95	2947.03
847.12	2523.10
847.29	2617.30
847.46	2545.63
847.63	2822.10
847.80	2469.85
847.97	2617.30
848.14	3041.23
848.31	2660.31
848.48	2443.23
848.65	2668.50
848.82	2631.64
848.98	3145.68
849.15	2637.78
849.32	2717.65
849.49	2893.78
849.66	2725.85
849.83	2574.30
850.00	2500.57
850.17	2760.66
850.34	2709.46
850.51	2498.52
850.68	2451.42
850.85	3074.00
851.01	2824.15
851.18	2625.50
851.35	2568.15
851.52	2721.75
851.69	2957.27
851.86	2418.65
852.03	2514.91
852.20	2826.20
852.37	2701.27
852.53	2439.13
852.70	2543.58
852.87	2738.13
853.04	2801.62
853.21	2555.86
853.38	2727.89
853.55	2879.44
853.72	2889.68
853.89	2498.52
854.05	2541.53
854.22	2695.13
854.39	2764.76
854.56	2613.21
854.73	2727.89
854.90	2629.59
855.07	2688.98
855.23	2496.47
855.40	2484.19
855.57	2623.45
855.74	2394.08
855.91	2664.41
856.08	2555.86
856.25	2494.43
856.41	2615.26
856.58	2598.87
856.75	2494.43
856.92	2529.24
857.09	2854.87
857.26	2295.77
857.42	2580.44
857.59	2789.33
857.76	2668.50
857.93	2582.49
858.10	2637.78
858.27	2467.80
858.43	2580.44
858.60	2523.10
858.77	2469.85
858.94	2582.49
859.11	2873.30
859.27	2572.25
859.44	2519.00
859.61	2904.02
859.78	2766.81
859.95	2590.68
860.12	2418.65
860.28	3035.09
860.45	2920.40
860.62	2586.58
860.79	2613.21
860.95	2617.30
861.12	2629.59
861.29	2484.19
861.46	2533.34
861.63	2713.56
861.79	2719.70
861.96	2508.76
862.13	2596.82
862.30	2920.40
862.47	2625.50
862.63	2377.69
862.80	2619.35
862.97	2846.68
863.14	2727.89
863.30	2598.87
863.47	2473.95
863.64	2877.40
863.81	2713.56
863.97	2475.99
864.14	2621.40
864.31	2709.46
864.48	2768.85
864.65	2570.20
864.81	2633.69
864.98	2787.29
865.15	2840.53
865.32	2580.44
865.48	2629.59
865.65	2961.36
865.82	2666.46
865.98	2648.02
866.15	2654.17
866.32	2617.30
866.49	2625.50
866.65	2674.65
866.82	2473.95
866.99	2658.26
867.16	2574.30
867.32	2535.39
867.49	2482.14
867.66	2660.31
867.83	2664.41
867.99	2465.75
868.16	2566.10
868.33	2508.76
868.49	2676.70
868.66	2596.82
868.83	2641.88
868.99	2678.74
869.16	2686.94
869.33	2684.89
869.50	2670.55
869.66	2645.98
869.83	2721.75
870.00	2562.01
870.16	2648.02
870.33	2643.93
870.50	2723.80
870.66	2609.11
870.83	2631.64
871.00	2707.41
871.17	2797.53
871.33	2590.68
871.50	2527.19
871.67	2719.70
871.83	2467.80
872.00	2631.64
872.17	2578.39
872.33	2985.94
872.50	2918.36
872.67	2541.53
872.83	2637.78
873.00	2791.38
873.17	2707.41
873.33	2629.59
873.50	2605.02
873.67	2605.02
873.83	2553.82
874.00	2527.19
874.16	2666.46
874.33	2746.33
874.50	2559.96
874.66	2486.23
874.83	2672.60
875.00	2850.77
875.16	2887.64
875.33	2641.88
875.50	2410.46
875.66	2678.74
875.83	2699.22
875.99	2639.83
876.16	2578.39
876.33	2590.68
876.49	2648.02
876.66	2662.36
876.83	2625.50
876.99	2490.33
877.16	2668.50
877.32	2492.38
877.49	2568.15
877.66	2807.77
877.82	2926.55
877.99	2660.31
878.15	2785.24
878.32	2721.75
878.49	2725.85
878.65	2525.15
878.82	2779.09
878.98	2637.78
879.15	2781.14
879.32	2676.70
879.48	2705.37
879.65	2633.69
879.81	2635.74
879.98	2559.96
880.15	2549.72
880.31	2832.34
880.48	2551.77
880.64	2605.02
880.81	2623.45
880.97	2951.12
881.14	2877.40
881.31	2531.29
881.47	2754.52
881.64	2682.84
881.80	2514.91
881.97	2705.37
882.13	2564.06
882.30	2531.29
882.47	2633.69
882.63	2559.96
882.80	2564.06
882.96	2492.38
883.13	2856.92
883.29	2549.72
883.46	2564.06
883.62	2977.75
883.79	2744.28
883.95	2717.65
884.12	2543.58
884.29	2801.62
884.45	2695.13
884.62	2576.34
884.78	2498.52
884.95	2877.40
885.11	2605.02
885.28	2682.84
885.44	2615.26
885.61	2760.66
885.77	2887.64
885.94	2621.40
886.10	2625.50
886.27	2799.57
886.43	2940.88
886.60	2748.37
886.76	2494.43
886.93	2576.34
887.09	2672.60
887.26	2418.65
887.42	2660.31
887.59	2861.01
887.75	3051.47
887.92	2787.29
888.08	2676.70
888.25	2971.60
888.41	2901.97
888.58	2666.46
888.74	2471.90
888.91	2572.25
>>>>>End Processed Spectral Data<<<<<
