SpectraSuite Data File
++++++++++++++++++++++++++++++++++++
Date: Thu May 05 16:21:07 CEST 2016
User: root
Dark Spectrum Present: No
Reference Spectrum Present: No
Number of Sampled Component Spectra: 1
Spectrometers: USB4C02835
Integration Time (usec): 100000 (USB4C02835)
Spectra Averaged: 1 (USB4C02835)
Boxcar Smoothing: 0 (USB4C02835)
Correct for Electrical Dark: No (USB4C02835)
Strobe/Lamp Enabled: No (USB4C02835)
Correct for Detector Non-linearity: No (USB4C02835)
Correct for Stray Light: No (USB4C02835)
Number of Pixels in Processed Spectrum: 3648
>>>>>Begin Processed Spectral Data<<<<<
177.47	1959.91
177.69	1959.91
177.91	1959.91
178.13	2068.45
178.36	1964.00
178.58	2621.40
178.80	2672.60
179.02	2482.14
179.24	2562.01
179.46	2543.58
179.68	2576.34
179.90	2699.22
180.13	2643.93
180.35	2447.32
180.57	2406.36
180.79	2852.82
181.01	2758.61
181.23	2486.23
181.45	2691.03
181.67	2811.86
181.90	2828.24
182.12	2492.38
182.34	2359.26
182.56	2809.81
182.78	2686.94
183.00	2418.65
183.22	2543.58
183.44	2412.51
183.66	3174.35
183.89	2652.12
184.11	2555.86
184.33	2762.71
184.55	2867.16
184.77	2467.80
184.99	2543.58
185.21	2578.39
185.43	3100.62
185.65	2523.10
185.87	2482.14
186.10	3076.05
186.32	3018.71
186.54	2582.49
186.76	2559.96
186.98	2897.88
187.20	2699.22
187.42	2521.05
187.64	2568.15
187.86	2744.28
188.08	2842.58
188.30	2420.70
188.52	2529.24
188.75	2914.26
188.97	2901.97
189.19	2512.86
189.41	2516.95
189.63	2754.52
189.85	2736.09
190.07	2418.65
190.29	2383.84
190.51	2744.28
190.73	2543.58
190.95	2627.54
191.17	2588.63
191.39	2512.86
191.61	2686.94
191.84	2572.25
192.06	2607.06
192.28	2469.85
192.50	3188.69
192.72	2594.78
192.94	2504.67
193.16	2914.26
193.38	2729.94
193.60	2428.89
193.82	2598.87
194.04	2836.44
194.26	2731.99
194.48	2496.47
194.70	2506.71
194.92	2666.46
195.14	2777.05
195.36	2422.75
195.58	2570.20
195.80	2703.32
196.02	2627.54
196.24	2455.51
196.46	2572.25
196.69	2643.93
196.91	3094.48
197.13	2531.29
197.35	2572.25
197.57	2967.51
197.79	2856.92
198.01	2586.58
198.23	2588.63
198.45	2766.81
198.67	2590.68
198.89	2418.65
199.11	2553.82
199.33	2600.92
199.55	2418.65
199.77	2490.33
199.99	2701.27
200.21	2668.50
200.43	2684.89
200.65	2457.56
200.87	2392.03
201.09	2738.13
201.31	2731.99
201.53	2562.01
201.75	2547.67
201.97	2764.76
202.19	2744.28
202.41	2639.83
202.63	2658.26
202.85	2813.91
203.07	2754.52
203.29	2568.15
203.51	2439.13
203.73	2615.26
203.95	3176.40
204.17	2527.19
204.39	2654.17
204.61	2670.55
204.83	2645.98
205.05	2654.17
205.27	2521.05
205.49	3063.76
205.71	2693.08
205.93	2447.32
206.15	2469.85
206.37	2758.61
206.59	2617.30
206.81	2447.32
207.03	2475.99
207.25	2576.34
207.47	2844.63
207.69	2559.96
207.91	2674.65
208.13	2953.17
208.34	2633.69
208.56	2437.08
208.78	2539.48
209.00	2568.15
209.22	2676.70
209.44	2559.96
209.66	2529.24
209.88	2680.79
210.10	2635.74
210.32	2441.18
210.54	2617.30
210.76	2734.04
210.98	2770.90
211.20	2338.78
211.42	2521.05
211.64	2908.12
211.86	2791.38
212.08	2523.10
212.30	2418.65
212.52	2656.22
212.74	2744.28
212.96	2586.58
213.17	2514.91
213.39	2881.49
213.61	2990.03
213.83	2535.39
214.05	2406.36
214.27	2877.40
214.49	2523.10
214.71	2435.03
214.93	2627.54
215.15	2713.56
215.37	2893.78
215.59	2449.37
215.81	2592.73
216.03	2906.07
216.24	2621.40
216.46	2494.43
216.68	2545.63
216.90	2848.72
217.12	2856.92
217.34	2482.14
217.56	2648.02
217.78	3002.32
218.00	2928.60
218.22	2539.48
218.44	2633.69
218.66	2834.39
218.87	2973.65
219.09	2519.00
219.31	2490.33
219.53	2801.62
219.75	2643.93
219.97	2516.95
220.19	2576.34
220.41	2654.17
220.63	3010.51
220.85	2488.28
221.06	2613.21
221.28	2944.98
221.50	2813.91
221.72	2459.61
221.94	2367.45
222.16	2695.13
222.38	2781.14
222.60	2570.20
222.82	2551.77
223.03	2809.81
223.25	2645.98
223.47	2451.42
223.69	2695.13
223.91	2904.02
224.13	2811.86
224.35	2439.13
224.57	2797.53
224.78	2869.20
225.00	2572.25
225.22	2572.25
225.44	2482.14
225.66	2801.62
225.88	2645.98
226.10	2611.16
226.32	2502.62
226.53	2924.50
226.75	2697.17
226.97	2523.10
227.19	2496.47
227.41	2643.93
227.63	2656.22
227.85	2328.54
228.06	2521.05
228.28	2637.78
228.50	2875.35
228.72	2404.32
228.94	2533.34
229.16	2484.19
229.37	2555.86
229.59	2381.79
229.81	2709.46
230.03	2719.70
230.25	2502.62
230.47	2361.31
230.69	2412.51
230.90	2842.58
231.12	2590.68
231.34	2557.91
231.56	2590.68
231.78	2605.02
232.00	2729.94
232.21	2594.78
232.43	2523.10
232.65	2432.99
232.87	2711.51
233.09	2349.02
233.30	2535.39
233.52	2914.26
233.74	2742.23
233.96	2441.18
234.18	2600.92
234.40	2760.66
234.61	2994.13
234.83	2478.04
235.05	2406.36
235.27	3160.02
235.49	2875.35
235.70	2406.36
235.92	2611.16
236.14	2824.15
236.36	3117.01
236.58	2383.84
236.79	2613.21
237.01	2695.13
237.23	2660.31
237.45	2736.09
237.67	2523.10
237.88	2674.65
238.10	3055.57
238.32	2387.93
238.54	2451.42
238.76	2736.09
238.97	2607.06
239.19	2453.47
239.41	2592.73
239.63	2899.92
239.85	2652.12
240.06	2535.39
240.28	2539.48
240.50	2822.10
240.72	2764.76
240.93	2484.19
241.15	2537.43
241.37	2699.22
241.59	2879.44
241.81	2482.14
242.02	2525.15
242.24	2686.94
242.46	2842.58
242.68	2375.64
242.89	2525.15
243.11	2830.29
243.33	2727.89
243.55	2521.05
243.76	2559.96
243.98	2664.41
244.20	2736.09
244.42	2484.19
244.64	2557.91
244.85	2439.13
245.07	2580.44
245.29	2449.37
245.51	2562.01
245.72	2783.19
245.94	2852.82
246.16	2537.43
246.38	2549.72
246.59	2707.41
246.81	2650.07
247.03	2475.99
247.24	2314.20
247.46	2701.27
247.68	2738.13
247.90	2455.51
248.11	2570.20
248.33	2764.76
248.55	2711.51
248.77	2602.97
248.98	2631.64
249.20	2891.73
249.42	2856.92
249.64	2432.99
249.85	2523.10
250.07	2617.30
250.29	2744.28
250.50	2539.48
250.72	2404.32
250.94	2719.70
251.16	2918.36
251.37	2486.23
251.59	2566.10
251.81	2803.67
252.02	2832.34
252.24	2432.99
252.46	2535.39
252.68	2617.30
252.89	2627.54
253.11	2385.88
253.33	2711.51
253.54	2961.36
253.76	2586.58
253.98	2523.10
254.20	2523.10
254.41	2596.82
254.63	2797.53
254.85	2439.13
255.06	2590.68
255.28	2662.36
255.50	2684.89
255.71	2498.52
255.93	2410.46
256.15	2693.08
256.36	2762.71
256.58	2408.41
256.80	2457.56
257.02	2672.60
257.23	2686.94
257.45	2596.82
257.67	2598.87
257.88	2666.46
258.10	2717.65
258.32	2469.85
258.53	2502.62
258.75	2924.50
258.97	2633.69
259.18	2473.95
259.40	2494.43
259.62	2949.08
259.83	2899.92
260.05	2543.58
260.27	3131.34
260.48	2887.64
260.70	2541.53
260.92	2406.36
261.13	2537.43
261.35	2842.58
261.57	2781.14
261.78	2414.56
262.00	2492.38
262.22	2803.67
262.43	2557.91
262.65	2516.95
262.86	2580.44
263.08	3102.67
263.30	2656.22
263.51	2371.55
263.73	2445.27
263.95	2940.88
264.16	2580.44
264.38	2428.89
264.60	2410.46
264.81	2711.51
265.03	2822.10
265.25	2842.58
265.46	2512.86
265.68	2861.01
265.89	2813.91
266.11	2527.19
266.33	2498.52
266.54	2887.64
266.76	2820.05
266.98	2602.97
267.19	2605.02
267.41	2910.16
267.62	2645.98
267.84	2379.74
268.06	2576.34
268.27	2731.99
268.49	2848.72
268.70	2555.86
268.92	2543.58
269.14	2588.63
269.35	2564.06
269.57	2588.63
269.79	2629.59
270.00	2588.63
270.22	2904.02
270.43	2379.74
270.65	2381.79
270.87	2711.51
271.08	2844.63
271.30	2629.59
271.51	2535.39
271.73	2811.86
271.95	2932.69
272.16	2555.86
272.38	2666.46
272.59	2592.73
272.81	2809.81
273.02	2490.33
273.24	2619.35
273.46	2848.72
273.67	2535.39
273.89	2396.12
274.10	2490.33
274.32	2887.64
274.54	2699.22
274.75	2619.35
274.97	2547.67
275.18	2809.81
275.40	2764.76
275.61	2535.39
275.83	2684.89
276.05	2467.80
276.26	2699.22
276.48	2611.16
276.69	2598.87
276.91	2674.65
277.12	2990.03
277.34	2598.87
277.55	2719.70
277.77	2709.46
277.99	2752.47
278.20	2598.87
278.42	2519.00
278.63	2615.26
278.85	2553.82
279.06	2531.29
279.28	2666.46
279.49	2865.11
279.71	2973.65
279.93	2738.13
280.14	2699.22
280.36	2559.96
280.57	2809.81
280.79	2645.98
281.00	2545.63
281.22	2711.51
281.43	2869.20
281.65	2336.73
281.86	2510.81
282.08	2736.09
282.29	3076.05
282.51	2504.67
282.73	2547.67
282.94	2482.14
283.16	2875.35
283.37	2701.27
283.59	2621.40
283.80	2736.09
284.02	2707.41
284.23	2715.61
284.45	2639.83
284.66	2611.16
284.88	2672.60
285.09	2555.86
285.31	2711.51
285.52	2815.96
285.74	2545.63
285.95	2867.16
286.17	2691.03
286.38	2842.58
286.60	2760.66
286.81	2617.30
287.03	2523.10
287.24	2707.41
287.46	2865.11
287.67	2703.32
287.89	2822.10
288.10	2705.37
288.32	2721.75
288.53	2801.62
288.75	2639.83
288.96	2932.69
289.18	2588.63
289.39	2523.10
289.61	2648.02
289.82	3086.29
290.04	3018.71
290.25	2457.56
290.47	2658.26
290.68	2725.85
290.90	2809.81
291.11	2414.56
291.33	2717.65
291.54	2557.91
291.76	2566.10
291.97	2750.42
292.18	2711.51
292.40	2680.79
292.61	2596.82
292.83	2897.88
293.04	2713.56
293.26	2740.18
293.47	2670.55
293.69	2539.48
293.90	2484.19
294.12	2897.88
294.33	2709.46
294.55	2633.69
294.76	2781.14
294.97	2908.12
295.19	3014.61
295.40	2541.53
295.62	2680.79
295.83	2879.44
296.05	2625.50
296.26	2711.51
296.48	2547.67
296.69	2727.89
296.90	2668.50
297.12	2660.31
297.33	2744.28
297.55	2711.51
297.76	2777.05
297.98	2695.13
298.19	2705.37
298.41	2656.22
298.62	2564.06
298.83	2768.85
299.05	2688.98
299.26	2600.92
299.48	2619.35
299.69	2703.32
299.90	2611.16
300.12	2572.25
300.33	2803.67
300.55	2578.39
300.76	2627.54
300.98	2510.81
301.19	2842.58
301.40	2645.98
301.62	2600.92
301.83	2729.94
302.05	2668.50
302.26	2682.84
302.47	2697.17
302.69	2539.48
302.90	2797.53
303.12	2480.09
303.33	2738.13
303.54	2942.93
303.76	2662.36
303.97	2643.93
304.19	2797.53
304.40	2609.11
304.61	2824.15
304.83	2770.90
305.04	2791.38
305.26	2719.70
305.47	2707.41
305.68	2586.58
305.90	2467.80
306.11	2863.06
306.33	2691.03
306.54	2482.14
306.75	2463.71
306.97	2523.10
307.18	2574.30
307.39	2570.20
307.61	2678.74
307.82	2691.03
308.04	2727.89
308.25	2482.14
308.46	2746.33
308.68	2703.32
308.89	2789.33
309.10	2770.90
309.32	2693.08
309.53	2766.81
309.74	2832.34
309.96	2559.96
310.17	2803.67
310.39	2635.74
310.60	2818.00
310.81	2586.58
311.03	2590.68
311.24	2840.53
311.45	2725.85
311.67	2867.16
311.88	2664.41
312.09	2637.78
312.31	2703.32
312.52	2623.45
312.73	2533.34
312.95	2510.81
313.16	2625.50
313.37	2846.68
313.59	2815.96
313.80	2850.77
314.01	2924.50
314.23	2551.77
314.44	2459.61
314.65	2613.21
314.87	2619.35
315.08	2572.25
315.29	2605.02
315.51	2580.44
315.72	2510.81
315.93	2754.52
316.15	2652.12
316.36	2643.93
316.57	2736.09
316.79	2652.12
317.00	2617.30
317.21	2772.95
317.43	2619.35
317.64	2660.31
317.85	2551.77
318.07	2568.15
318.28	2691.03
318.49	2764.76
318.70	2842.58
318.92	2772.95
319.13	2865.11
319.34	2777.05
319.56	2662.36
319.77	2809.81
319.98	2854.87
320.20	2758.61
320.41	2731.99
320.62	2785.24
320.83	2637.78
321.05	2770.90
321.26	2686.94
321.47	2719.70
321.69	2901.97
321.90	2498.52
322.11	2596.82
322.32	2633.69
322.54	2938.84
322.75	2551.77
322.96	3168.21
323.18	2508.76
323.39	2539.48
323.60	2484.19
323.81	2752.47
324.03	2613.21
324.24	2701.27
324.45	2705.37
324.66	2672.60
324.88	2875.35
325.09	2891.73
325.30	2654.17
325.52	2594.78
325.73	2729.94
325.94	2531.29
326.15	2459.61
326.37	2541.53
326.58	2850.77
326.79	3028.95
327.00	2562.01
327.22	2594.78
327.43	2684.89
327.64	2625.50
327.85	2688.98
328.07	2607.06
328.28	2981.84
328.49	2611.16
328.70	2643.93
328.92	2494.43
329.13	2734.04
329.34	2846.68
329.55	2858.96
329.76	2746.33
329.98	2779.09
330.19	2957.27
330.40	2742.23
330.61	2652.12
330.83	2918.36
331.04	2625.50
331.25	2586.58
331.46	2586.58
331.68	2592.73
331.89	2899.92
332.10	2654.17
332.31	2455.51
332.52	2699.22
332.74	2883.54
332.95	2387.93
333.16	2572.25
333.37	2955.22
333.58	2559.96
333.80	2619.35
334.01	2357.21
334.22	2662.36
334.43	2654.17
334.64	2551.77
334.86	2564.06
335.07	2588.63
335.28	2961.36
335.49	2455.51
335.70	2670.55
335.92	2912.21
336.13	3030.99
336.34	2701.27
336.55	2643.93
336.76	2799.57
336.98	2475.99
337.19	2641.88
337.40	2805.72
337.61	3141.58
337.82	2590.68
338.04	2680.79
338.25	2490.33
338.46	2736.09
338.67	2637.78
338.88	2523.10
339.09	2461.66
339.31	2645.98
339.52	2555.86
339.73	2521.05
339.94	2619.35
340.15	2807.77
340.36	2596.82
340.58	2600.92
340.79	2467.80
341.00	2820.05
341.21	2619.35
341.42	2777.05
341.63	2564.06
341.85	2824.15
342.06	2779.09
342.27	2539.48
342.48	2822.10
342.69	2557.91
342.90	2754.52
343.12	2811.86
343.33	2557.91
343.54	2875.35
343.75	2965.46
343.96	2719.70
344.17	2557.91
344.38	2695.13
344.60	2562.01
344.81	2480.09
345.02	2650.07
345.23	2934.74
345.44	3071.95
345.65	2680.79
345.86	2668.50
346.07	2750.42
346.29	2631.64
346.50	2736.09
346.71	2695.13
346.92	2914.26
347.13	3102.67
347.34	2686.94
347.55	2543.58
347.76	2793.43
347.98	2500.57
348.19	2613.21
348.40	2756.57
348.61	2674.65
348.82	2936.79
349.03	2701.27
349.24	2494.43
349.45	2990.03
349.66	2422.75
349.88	2527.19
350.09	2529.24
350.30	2971.60
350.51	2996.18
350.72	2775.00
350.93	2529.24
351.14	2590.68
351.35	2762.71
351.56	2643.93
351.77	2625.50
351.99	2815.96
352.20	2920.40
352.41	2777.05
352.62	2471.90
352.83	2719.70
353.04	2709.46
353.25	2545.63
353.46	2588.63
353.67	2822.10
353.88	2482.14
354.09	2547.67
354.30	2607.06
354.52	2818.00
354.73	2688.98
354.94	2564.06
355.15	2662.36
355.36	3004.37
355.57	2645.98
355.78	2609.11
355.99	2586.58
356.20	2666.46
356.41	2895.83
356.62	2691.03
356.83	2621.40
357.04	2893.78
357.25	2455.51
357.46	2596.82
357.68	2496.47
357.89	2594.78
358.10	2719.70
358.31	2625.50
358.52	2574.30
358.73	2619.35
358.94	2545.63
359.15	2596.82
359.36	2670.55
359.57	2736.09
359.78	2715.61
359.99	2793.43
360.20	2516.95
360.41	2701.27
360.62	2756.57
360.83	2705.37
361.04	2643.93
361.25	2777.05
361.46	2973.65
361.67	2738.13
361.88	2609.11
362.09	2818.00
362.30	2807.77
362.51	2521.05
362.72	2662.36
362.93	2838.48
363.14	2887.64
363.35	2666.46
363.56	2504.67
363.78	2916.31
363.99	2779.09
364.20	2502.62
364.41	2703.32
364.62	3008.47
364.83	2725.85
365.04	2572.25
365.25	2637.78
365.46	3004.37
365.67	2566.10
365.88	2758.61
366.09	2510.81
366.30	2617.30
366.51	2672.60
366.72	2582.49
366.93	2572.25
367.14	2750.42
367.35	2949.08
367.56	2611.16
367.77	2781.14
367.98	2660.31
368.18	2717.65
368.39	2619.35
368.60	2455.51
368.81	2777.05
369.02	2652.12
369.23	2590.68
369.44	2537.43
369.65	2641.88
369.86	2820.05
370.07	2781.14
370.28	2584.54
370.49	2834.39
370.70	2848.72
370.91	2449.37
371.12	2482.14
371.33	2826.20
371.54	2605.02
371.75	2715.61
371.96	2387.93
372.17	2756.57
372.38	2625.50
372.59	2648.02
372.80	2637.78
373.01	2721.75
373.22	2734.04
373.43	2590.68
373.64	2566.10
373.85	2979.79
374.06	2932.69
374.26	2775.00
374.47	2725.85
374.68	2932.69
374.89	2734.04
375.10	2596.82
375.31	2766.81
375.52	2711.51
375.73	2734.04
375.94	2475.99
376.15	2799.57
376.36	2660.31
376.57	2658.26
376.78	2596.82
376.99	2580.44
377.20	2916.31
377.40	2764.76
377.61	2875.35
377.82	2553.82
378.03	2920.40
378.24	2836.44
378.45	2691.03
378.66	2576.34
378.87	2504.67
379.08	2539.48
379.29	2562.01
379.50	2854.87
379.71	2658.26
379.91	2822.10
380.12	2666.46
380.33	2760.66
380.54	2695.13
380.75	2664.41
380.96	2617.30
381.17	2668.50
381.38	2703.32
381.59	2592.73
381.80	2584.54
382.00	2850.77
382.21	2809.81
382.42	2910.16
382.63	2885.59
382.84	2674.65
383.05	2873.30
383.26	2908.12
383.47	2701.27
383.68	2615.26
383.88	2805.72
384.09	2711.51
384.30	2852.82
384.51	2717.65
384.72	2695.13
384.93	2605.02
385.14	2680.79
385.35	2867.16
385.55	2539.48
385.76	2953.17
385.97	2637.78
386.18	2469.85
386.39	2676.70
386.60	2672.60
386.81	2574.30
387.02	2525.15
387.22	2486.23
387.43	2830.29
387.64	2789.33
387.85	2818.00
388.06	2828.24
388.27	4110.27
388.48	7481.23
388.68	10866.52
388.89	13418.29
389.10	14370.60
389.31	13565.74
389.52	10833.75
389.73	9359.22
389.93	8494.97
390.14	7776.14
390.35	7024.53
390.56	6303.65
390.77	5173.17
390.98	4079.55
391.18	3454.92
391.39	3147.73
391.60	2752.47
391.81	2904.02
392.02	2674.65
392.23	3121.10
392.43	2723.80
392.64	2789.33
392.85	2701.27
393.06	2914.26
393.27	2674.65
393.47	2578.39
393.68	2664.41
393.89	2598.87
394.10	2881.49
394.31	2574.30
394.52	2553.82
394.72	2600.92
394.93	2897.88
395.14	2523.10
395.35	2725.85
395.56	2617.30
395.76	2734.04
395.97	2588.63
396.18	2750.42
396.39	2764.76
396.60	3153.87
396.80	2920.40
397.01	2826.20
397.22	2842.58
397.43	2959.31
397.64	2570.20
397.84	2662.36
398.05	2973.65
398.26	2650.07
398.47	2746.33
398.67	2822.10
398.88	2809.81
399.09	2731.99
399.30	2623.45
399.51	2635.74
399.71	2648.02
399.92	2621.40
400.13	2684.89
400.34	2580.44
400.54	2695.13
400.75	3071.95
400.96	2639.83
401.17	2891.73
401.37	2760.66
401.58	2678.74
401.79	2611.16
402.00	2766.81
402.21	3194.83
402.41	2971.60
402.62	2867.16
402.83	3110.86
403.04	3135.44
403.24	3387.34
403.45	2740.18
403.66	2961.36
403.87	2832.34
404.07	3004.37
404.28	2938.84
404.49	2992.08
404.70	2820.05
404.90	2818.00
405.11	2621.40
405.32	2772.95
405.52	2643.93
405.73	2652.12
405.94	2576.34
406.15	2709.46
406.35	2861.01
406.56	2871.25
406.77	2691.03
406.98	2727.89
407.18	2613.21
407.39	2897.88
407.60	2691.03
407.80	2764.76
408.01	2686.94
408.22	2838.48
408.43	2586.58
408.63	2752.47
408.84	2891.73
409.05	2807.77
409.25	2607.06
409.46	2545.63
409.67	2600.92
409.88	2598.87
410.08	2678.74
410.29	2576.34
410.50	2846.68
410.70	2760.66
410.91	2506.71
411.12	2703.32
411.32	2758.61
411.53	2578.39
411.74	2701.27
411.95	2742.23
412.15	2758.61
412.36	2760.66
412.57	2678.74
412.77	2852.82
412.98	2637.78
413.19	2762.71
413.39	2742.23
413.60	2684.89
413.81	2926.55
414.01	2594.78
414.22	2643.93
414.43	2820.05
414.63	2719.70
414.84	2891.73
415.05	2664.41
415.25	2502.62
415.46	2752.47
415.67	2551.77
415.87	2705.37
416.08	2668.50
416.29	2654.17
416.49	2781.14
416.70	2645.98
416.91	2631.64
417.11	2736.09
417.32	2861.01
417.53	2717.65
417.73	2725.85
417.94	2627.54
418.15	2772.95
418.35	2678.74
418.56	2701.27
418.77	3071.95
418.97	2760.66
419.18	2691.03
419.38	2338.78
419.59	2695.13
419.80	2926.55
420.00	2574.30
420.21	2676.70
420.42	2867.16
420.62	2695.13
420.83	2572.25
421.04	2580.44
421.24	2719.70
421.45	2916.31
421.65	2656.22
421.86	2635.74
422.07	2820.05
422.27	2834.39
422.48	2590.68
422.69	2559.96
422.89	2752.47
423.10	2627.54
423.30	2590.68
423.51	2699.22
423.72	2789.33
423.92	2783.19
424.13	2480.09
424.33	2627.54
424.54	2951.12
424.75	2686.94
424.95	2830.29
425.16	2662.36
425.36	2719.70
425.57	2893.78
425.78	2719.70
425.98	2709.46
426.19	2664.41
426.39	2586.58
426.60	2783.19
426.81	2787.29
427.01	2777.05
427.22	2686.94
427.42	2469.85
427.63	2525.15
427.83	2826.20
428.04	3022.80
428.25	2799.57
428.45	2746.33
428.66	2834.39
428.86	2674.65
429.07	2627.54
429.28	2660.31
429.48	2715.61
429.69	2670.55
429.89	2701.27
430.10	2582.49
430.30	2863.06
430.51	2889.68
430.71	2600.92
430.92	2645.98
431.13	2680.79
431.33	2820.05
431.54	2738.13
431.74	2877.40
431.95	3047.38
432.15	2570.20
432.36	2629.59
432.56	2719.70
432.77	2940.88
432.98	2932.69
433.18	2752.47
433.39	2650.07
433.59	2693.08
433.80	3084.24
434.00	2914.26
434.21	2629.59
434.41	2623.45
434.62	3059.67
434.82	2547.67
435.03	2541.53
435.23	2766.81
435.44	2512.86
435.64	2662.36
435.85	2676.70
436.06	2856.92
436.26	2809.81
436.47	2586.58
436.67	2559.96
436.88	2666.46
437.08	2803.67
437.29	2750.42
437.49	2813.91
437.70	2861.01
437.90	2705.37
438.11	2795.48
438.31	2754.52
438.52	2932.69
438.72	2908.12
438.93	3018.71
439.13	2744.28
439.34	2932.69
439.54	2693.08
439.75	2721.75
439.95	2738.13
440.16	2652.12
440.36	2777.05
440.57	2639.83
440.77	2707.41
440.98	2695.13
441.18	2746.33
441.39	2555.86
441.59	2482.14
441.80	3020.75
442.00	2731.99
442.21	2746.33
442.41	2482.14
442.62	2916.31
442.82	2676.70
443.02	2605.02
443.23	2654.17
443.43	2602.97
443.64	2867.16
443.84	2543.58
444.05	2789.33
444.25	2666.46
444.46	2678.74
444.66	2631.64
444.87	2854.87
445.07	2586.58
445.28	2758.61
445.48	2850.77
445.69	2684.89
445.89	3129.30
446.09	2713.56
446.30	2936.79
446.50	3094.48
446.71	4677.56
446.91	5595.05
447.12	6526.88
447.32	6750.10
447.53	6520.73
447.73	5410.73
447.93	4771.77
448.14	4476.86
448.34	4454.33
448.55	3882.95
448.75	3768.26
448.96	3684.30
449.16	3432.40
449.36	3301.33
449.57	2873.30
449.77	2789.33
449.98	2678.74
450.18	2783.19
450.39	2672.60
450.59	2844.63
450.79	2746.33
451.00	2605.02
451.20	2797.53
451.41	2643.93
451.61	2793.43
451.81	2756.57
452.02	2611.16
452.22	2697.17
452.43	2670.55
452.63	2615.26
452.84	2652.12
453.04	2592.73
453.24	2742.23
453.45	2662.36
453.65	2760.66
453.86	2725.85
454.06	2779.09
454.26	2768.85
454.47	2535.39
454.67	2820.05
454.87	2803.67
455.08	2635.74
455.28	2799.57
455.49	2785.24
455.69	2592.73
455.89	3039.19
456.10	2797.53
456.30	2543.58
456.51	2807.77
456.71	2734.04
456.91	2770.90
457.12	2727.89
457.32	2799.57
457.52	2596.82
457.73	2725.85
457.93	2826.20
458.14	2693.08
458.34	2480.09
458.54	2744.28
458.75	2584.54
458.95	2906.07
459.15	2760.66
459.36	2709.46
459.56	2652.12
459.76	3080.14
459.97	2768.85
460.17	2703.32
460.37	2789.33
460.58	2746.33
460.78	2699.22
460.99	2697.17
461.19	2713.56
461.39	2631.64
461.60	2676.70
461.80	2662.36
462.00	2547.67
462.21	2750.42
462.41	2619.35
462.61	2539.48
462.82	2504.67
463.02	2789.33
463.22	2705.37
463.43	2711.51
463.63	2588.63
463.83	2930.64
464.04	2836.44
464.24	2553.82
464.44	2553.82
464.64	2779.09
464.85	2662.36
465.05	2705.37
465.25	2639.83
465.46	2619.35
465.66	2875.35
465.86	2766.81
466.07	2580.44
466.27	2645.98
466.47	2514.91
466.68	2420.70
466.88	2852.82
467.08	2787.29
467.29	2885.59
467.49	2736.09
467.69	2723.80
467.89	2818.00
468.10	2654.17
468.30	2707.41
468.50	2744.28
468.71	2838.48
468.91	2588.63
469.11	2842.58
469.31	2699.22
469.52	2564.06
469.72	2930.64
469.92	2897.88
470.13	2756.57
470.33	2775.00
470.53	2865.11
470.73	3026.90
470.94	3338.19
471.14	3422.16
471.34	3741.64
471.54	3588.04
471.75	3315.66
471.95	3166.16
472.15	3098.58
472.36	3135.44
472.56	3020.75
472.76	3213.26
472.96	3039.19
473.17	2965.46
473.37	2824.15
473.57	2678.74
473.77	2801.62
473.98	2711.51
474.18	2514.91
474.38	3102.67
474.58	2607.06
474.79	2570.20
474.99	2777.05
475.19	2916.31
475.39	2615.26
475.60	2772.95
475.80	2645.98
476.00	2746.33
476.20	2654.17
476.41	2701.27
476.61	2768.85
476.81	2932.69
477.01	2607.06
477.21	2865.11
477.42	2752.47
477.62	2600.92
477.82	2844.63
478.02	2648.02
478.23	2707.41
478.43	2643.93
478.63	2684.89
478.83	2566.10
479.03	2699.22
479.24	2840.53
479.44	3057.62
479.64	2611.16
479.84	2428.89
480.04	2617.30
480.25	2811.86
480.45	2629.59
480.65	2572.25
480.85	2944.98
481.06	2621.40
481.26	2695.13
481.46	2764.76
481.66	2856.92
481.86	2586.58
482.06	2863.06
482.27	2674.65
482.47	2670.55
482.67	2777.05
482.87	2621.40
483.07	2729.94
483.28	2645.98
483.48	2553.82
483.68	2627.54
483.88	2533.34
484.08	2490.33
484.29	2592.73
484.49	2684.89
484.69	2469.85
484.89	2883.54
485.09	2942.93
485.29	2688.98
485.50	2822.10
485.70	2664.41
485.90	2920.40
486.10	2691.03
486.30	2744.28
486.50	2897.88
486.71	2760.66
486.91	2799.57
487.11	2746.33
487.31	2525.15
487.51	2795.48
487.71	2639.83
487.91	2529.24
488.12	2611.16
488.32	2412.51
488.52	2629.59
488.72	2394.08
488.92	2783.19
489.12	2871.25
489.32	2791.38
489.53	2727.89
489.73	2527.19
489.93	3039.19
490.13	2629.59
490.33	2465.75
490.53	2731.99
490.73	2881.49
490.94	2525.15
491.14	2797.53
491.34	2787.29
491.54	2953.17
491.74	3532.75
491.94	4028.35
492.14	4415.42
492.34	4509.63
492.54	4100.03
492.75	3534.79
492.95	3659.72
493.15	3497.93
493.35	3264.46
493.55	3188.69
493.75	3112.91
493.95	3196.88
494.15	2920.40
494.35	2734.04
494.56	2758.61
494.76	2721.75
494.96	2713.56
495.16	2684.89
495.36	2736.09
495.56	2693.08
495.76	2662.36
495.96	2641.88
496.16	2633.69
496.36	3033.04
496.56	2559.96
496.77	2731.99
496.97	2723.80
497.17	2877.40
497.37	2496.47
497.57	2758.61
497.77	2764.76
497.97	2600.92
498.17	2731.99
498.37	2619.35
498.57	2828.24
498.77	2723.80
498.97	2742.23
499.17	2992.08
499.38	2736.09
499.58	2893.78
499.78	2779.09
499.98	2805.72
500.18	2731.99
500.38	2621.40
500.58	2840.53
500.78	3217.36
500.98	5334.96
501.18	7182.23
501.38	8693.63
501.58	9336.69
501.78	9398.13
501.98	7657.36
502.18	6528.92
502.38	5676.97
502.58	5298.10
502.78	4853.69
502.98	4624.31
503.18	4499.39
503.38	4071.36
503.59	3473.36
503.79	3442.64
503.99	3252.17
504.19	3268.56
504.39	3096.53
504.59	3090.38
504.79	3086.29
504.99	3237.84
505.19	2983.89
505.39	2775.00
505.59	2969.55
505.79	2998.23
505.99	2865.11
506.19	2748.37
506.39	2916.31
506.59	2725.85
506.79	2674.65
506.99	2861.01
507.19	2553.82
507.39	2787.29
507.59	2541.53
507.79	2617.30
507.99	2629.59
508.19	2676.70
508.39	2738.13
508.59	2695.13
508.79	2861.01
508.99	2934.74
509.19	2678.74
509.39	2758.61
509.59	2523.10
509.79	2555.86
509.99	2801.62
510.19	2844.63
510.39	2727.89
510.59	2801.62
510.79	2590.68
510.99	2605.02
511.19	2658.26
511.39	2963.41
511.59	2916.31
511.79	2811.86
511.99	2691.03
512.19	2971.60
512.38	2744.28
512.58	2600.92
512.78	2629.59
512.98	2863.06
513.18	2994.13
513.38	2500.57
513.58	2758.61
513.78	2621.40
513.98	2727.89
514.18	2664.41
514.38	2578.39
514.58	2809.81
514.78	2551.77
514.98	2541.53
515.18	2598.87
515.38	2582.49
515.58	2957.27
515.78	2621.40
515.98	2654.17
516.18	2791.38
516.38	2725.85
516.57	2594.78
516.77	2621.40
516.97	2756.57
517.17	2678.74
517.37	2408.41
517.57	2668.50
517.77	2781.14
517.97	2645.98
518.17	2756.57
518.37	2539.48
518.57	2586.58
518.77	2736.09
518.97	2709.46
519.16	2623.45
519.36	2867.16
519.56	2605.02
519.76	2611.16
519.96	2760.66
520.16	2918.36
520.36	2572.25
520.56	2764.76
520.76	2592.73
520.96	2719.70
521.16	2850.77
521.35	2867.16
521.55	2777.05
521.75	2731.99
521.95	2701.27
522.15	2631.64
522.35	2480.09
522.55	2611.16
522.75	2883.54
522.95	2639.83
523.14	2508.76
523.34	2783.19
523.54	2662.36
523.74	2772.95
523.94	2715.61
524.14	2553.82
524.34	2707.41
524.54	2832.34
524.73	2629.59
524.93	2779.09
525.13	2791.38
525.33	2609.11
525.53	2906.07
525.73	2768.85
525.93	2760.66
526.13	2529.24
526.32	2572.25
526.52	2895.83
526.72	2883.54
526.92	2691.03
527.12	2625.50
527.32	2584.54
527.52	2715.61
527.71	2705.37
527.91	2592.73
528.11	2654.17
528.31	2725.85
528.51	2525.15
528.71	2717.65
528.90	2836.44
529.10	2820.05
529.30	2764.76
529.50	2418.65
529.70	2826.20
529.90	2715.61
530.09	2668.50
530.29	2598.87
530.49	2600.92
530.69	3174.35
530.89	2693.08
531.09	2838.48
531.28	2709.46
531.48	3006.42
531.68	2723.80
531.88	2650.07
532.08	2793.43
532.28	2709.46
532.47	2717.65
532.67	2828.24
532.87	2818.00
533.07	2588.63
533.27	2795.48
533.46	2772.95
533.66	2756.57
533.86	2693.08
534.06	2623.45
534.26	2713.56
534.45	2674.65
534.65	2916.31
534.85	2723.80
535.05	2600.92
535.25	2848.72
535.44	2512.86
535.64	2676.70
535.84	2619.35
536.04	2697.17
536.24	2674.65
536.43	2533.34
536.63	2648.02
536.83	2785.24
537.03	2654.17
537.22	2439.13
537.42	2514.91
537.62	2772.95
537.82	2615.26
538.02	2932.69
538.21	2744.28
538.41	3209.17
538.61	2746.33
538.81	2699.22
539.00	2793.43
539.20	2527.19
539.40	2549.72
539.60	2723.80
539.79	2918.36
539.99	2684.89
540.19	2602.97
540.39	2670.55
540.58	2680.79
540.78	2924.50
540.98	2746.33
541.18	2740.18
541.37	2719.70
541.57	2744.28
541.77	2889.68
541.97	2564.06
542.16	2519.00
542.36	2637.78
542.56	2779.09
542.76	2836.44
542.95	2666.46
543.15	2760.66
543.35	2861.01
543.54	2580.44
543.74	2588.63
543.94	2897.88
544.14	2629.59
544.33	2678.74
544.53	2660.31
544.73	2576.34
544.93	2629.59
545.12	2707.41
545.32	2637.78
545.52	2686.94
545.71	2566.10
545.91	2607.06
546.11	2596.82
546.30	2617.30
546.50	2727.89
546.70	2723.80
546.90	2721.75
547.09	2475.99
547.29	2772.95
547.49	2775.00
547.68	2641.88
547.88	2562.01
548.08	2830.29
548.27	3063.76
548.47	2602.97
548.67	2668.50
548.87	2889.68
549.06	2588.63
549.26	2643.93
549.46	2805.72
549.65	2666.46
549.85	2705.37
550.05	2676.70
550.24	2557.91
550.44	2658.26
550.64	2711.51
550.83	2713.56
551.03	2947.03
551.23	2885.59
551.42	2746.33
551.62	2654.17
551.82	2752.47
552.01	2682.84
552.21	2858.96
552.41	2723.80
552.60	2897.88
552.80	2725.85
553.00	2551.77
553.19	2717.65
553.39	2983.89
553.59	2635.74
553.78	2693.08
553.98	2682.84
554.17	2576.34
554.37	2727.89
554.57	2822.10
554.76	2529.24
554.96	2627.54
555.16	2908.12
555.35	2762.71
555.55	2711.51
555.75	2818.00
555.94	2840.53
556.14	2482.14
556.33	2715.61
556.53	2697.17
556.73	2643.93
556.92	2676.70
557.12	2695.13
557.32	2951.12
557.51	2990.03
557.71	2672.60
557.90	2805.72
558.10	2957.27
558.30	2623.45
558.49	2625.50
558.69	2623.45
558.88	2783.19
559.08	2715.61
559.28	2639.83
559.47	2705.37
559.67	2832.34
559.86	2965.46
560.06	2674.65
560.26	2662.36
560.45	2783.19
560.65	2656.22
560.84	2883.54
561.04	2553.82
561.24	2748.37
561.43	2553.82
561.63	2826.20
561.82	2742.23
562.02	2858.96
562.22	2576.34
562.41	2602.97
562.61	2584.54
562.80	2621.40
563.00	3127.25
563.19	2695.13
563.39	2727.89
563.59	2883.54
563.78	2557.91
563.98	2484.19
564.17	2613.21
564.37	2471.90
564.56	2742.23
564.76	2514.91
564.96	2848.72
565.15	2756.57
565.35	3067.86
565.54	2617.30
565.74	2734.04
565.93	2824.15
566.13	2713.56
566.32	2746.33
566.52	2697.17
566.71	2777.05
566.91	2850.77
567.11	2723.80
567.30	2531.29
567.50	2836.44
567.69	2820.05
567.89	2662.36
568.08	2615.26
568.28	2695.13
568.47	2562.01
568.67	2693.08
568.86	2652.12
569.06	2793.43
569.25	2633.69
569.45	2543.58
569.64	2609.11
569.84	2645.98
570.04	2779.09
570.23	2578.39
570.43	2645.98
570.62	2738.13
570.82	2932.69
571.01	2494.43
571.21	2572.25
571.40	2670.55
571.60	2877.40
571.79	2746.33
571.99	2703.32
572.18	2588.63
572.38	2795.48
572.57	2607.06
572.77	2691.03
572.96	3006.42
573.16	2725.85
573.35	2705.37
573.55	2744.28
573.74	2801.62
573.94	2676.70
574.13	2613.21
574.33	2789.33
574.52	2938.84
574.71	2711.51
574.91	2752.47
575.10	2523.10
575.30	2613.21
575.49	2625.50
575.69	2594.78
575.88	2770.90
576.08	2682.84
576.27	2871.25
576.47	2607.06
576.66	2787.29
576.86	2916.31
577.05	2799.57
577.25	2750.42
577.44	2899.92
577.64	2654.17
577.83	2838.48
578.02	2656.22
578.22	2754.52
578.41	2990.03
578.61	2725.85
578.80	2551.77
579.00	2703.32
579.19	2693.08
579.39	2742.23
579.58	2711.51
579.77	2703.32
579.97	2924.50
580.16	2949.08
580.36	2852.82
580.55	2809.81
580.75	2824.15
580.94	2807.77
581.13	2813.91
581.33	2899.92
581.52	2752.47
581.72	2947.03
581.91	2830.29
582.11	2600.92
582.30	2815.96
582.49	2779.09
582.69	2895.83
582.88	2723.80
583.08	2873.30
583.27	2901.97
583.47	2768.85
583.66	2639.83
583.85	2553.82
584.05	2727.89
584.24	2736.09
584.44	2691.03
584.63	2899.92
584.82	2891.73
585.02	2895.83
585.21	2779.09
585.41	2863.06
585.60	2826.20
585.79	2930.64
585.99	2924.50
586.18	2811.86
586.37	3506.12
586.57	5457.84
586.76	15904.53
586.96	35024.36
587.15	48078.11
587.34	56239.27
587.54	60843.10
587.73	54228.16
587.93	38413.75
588.12	29263.43
588.31	23617.18
588.51	20704.96
588.70	19291.87
588.89	17049.34
589.09	14376.74
589.28	12504.90
589.47	9725.80
589.67	7542.67
589.86	5918.63
590.06	4564.92
590.25	3866.56
590.44	3330.00
590.64	2998.23
590.83	3119.06
591.02	2846.68
591.22	2703.32
591.41	2848.72
591.60	2695.13
591.80	3090.38
591.99	2562.01
592.18	2637.78
592.38	2871.25
592.57	2557.91
592.76	2719.70
592.96	2693.08
593.15	2766.81
593.34	2936.79
593.54	2668.50
593.73	2760.66
593.92	2887.64
594.12	2789.33
594.31	2703.32
594.50	2920.40
594.70	2844.63
594.89	3110.86
595.08	2555.86
595.28	2822.10
595.47	3213.26
595.66	2885.59
595.86	2545.63
596.05	2592.73
596.24	2641.88
596.43	3037.14
596.63	2826.20
596.82	2865.11
597.01	2809.81
597.21	3022.80
597.40	2701.27
597.59	2736.09
597.79	2729.94
597.98	2834.39
598.17	2693.08
598.36	2746.33
598.56	2895.83
598.75	2650.07
598.94	2662.36
599.14	2740.18
599.33	2678.74
599.52	2822.10
599.71	2727.89
599.91	2717.65
600.10	2789.33
600.29	2777.05
600.48	2768.85
600.68	2826.20
600.87	2770.90
601.06	2734.04
601.26	2662.36
601.45	2719.70
601.64	2709.46
601.83	3108.82
602.03	2652.12
602.22	2559.96
602.41	2881.49
602.60	3069.91
602.80	2754.52
602.99	2803.67
603.18	2654.17
603.37	2772.95
603.57	2693.08
603.76	2707.41
603.95	2955.22
604.14	2652.12
604.34	2594.78
604.53	2623.45
604.72	2846.68
604.91	2809.81
605.10	2826.20
605.30	2525.15
605.49	3014.61
605.68	2828.24
605.87	2664.41
606.07	2596.82
606.26	2684.89
606.45	2758.61
606.64	2684.89
606.84	2635.74
607.03	2764.76
607.22	2867.16
607.41	2686.94
607.60	2707.41
607.80	2824.15
607.99	2668.50
608.18	2711.51
608.37	2668.50
608.56	2615.26
608.76	2844.63
608.95	2775.00
609.14	2699.22
609.33	2893.78
609.52	2975.70
609.72	2701.27
609.91	2820.05
610.10	2818.00
610.29	2959.31
610.48	2801.62
610.68	2768.85
610.87	2641.88
611.06	2838.48
611.25	2699.22
611.44	2770.90
611.63	2674.65
611.83	2904.02
612.02	2555.86
612.21	2801.62
612.40	2469.85
612.59	2629.59
612.79	2568.15
612.98	2750.42
613.17	2947.03
613.36	2717.65
613.55	2777.05
613.74	2678.74
613.93	2752.47
614.13	2879.44
614.32	2871.25
614.51	2752.47
614.70	2781.14
614.89	2648.02
615.08	2744.28
615.28	3059.67
615.47	2611.16
615.66	2828.24
615.85	2627.54
616.04	2795.48
616.23	2752.47
616.42	2758.61
616.62	2709.46
616.81	2684.89
617.00	2734.04
617.19	2785.24
617.38	2631.64
617.57	2721.75
617.76	2865.11
617.95	2834.39
618.15	2684.89
618.34	2865.11
618.53	2533.34
618.72	2897.88
618.91	2842.58
619.10	2785.24
619.29	2772.95
619.48	2779.09
619.68	2594.78
619.87	2627.54
620.06	2529.24
620.25	2707.41
620.44	2645.98
620.63	2584.54
620.82	2781.14
621.01	2785.24
621.20	2656.22
621.39	2766.81
621.59	2818.00
621.78	2699.22
621.97	2703.32
622.16	2758.61
622.35	2799.57
622.54	2869.20
622.73	2748.37
622.92	2498.52
623.11	2783.19
623.30	2668.50
623.49	2686.94
623.68	2551.77
623.88	2877.40
624.07	2693.08
624.26	2639.83
624.45	2713.56
624.64	2721.75
624.83	2834.39
625.02	2639.83
625.21	2652.12
625.40	2803.67
625.59	2961.36
625.78	2783.19
625.97	2801.62
626.16	2908.12
626.35	2811.86
626.54	2699.22
626.74	2918.36
626.93	2740.18
627.12	2777.05
627.31	2777.05
627.50	2662.36
627.69	2844.63
627.88	2629.59
628.07	2578.39
628.26	2490.33
628.45	2619.35
628.64	2514.91
628.83	2672.60
629.02	2605.02
629.21	2834.39
629.40	2762.71
629.59	2611.16
629.78	2600.92
629.97	2744.28
630.16	2768.85
630.35	2711.51
630.54	2643.93
630.73	2672.60
630.92	2762.71
631.11	2621.40
631.30	2717.65
631.49	2904.02
631.68	2744.28
631.87	2736.09
632.06	2596.82
632.25	3049.43
632.44	2738.13
632.63	2740.18
632.82	2686.94
633.01	2623.45
633.20	2861.01
633.39	2705.37
633.58	2547.67
633.77	2779.09
633.96	2858.96
634.15	2725.85
634.34	2738.13
634.53	2754.52
634.72	2711.51
634.91	2600.92
635.10	2707.41
635.29	2809.81
635.48	2772.95
635.67	2535.39
635.86	2512.86
636.05	2914.26
636.24	2658.26
636.43	2723.80
636.62	2758.61
636.81	2424.80
637.00	2727.89
637.19	2680.79
637.38	2680.79
637.57	2617.30
637.76	2701.27
637.95	2775.00
638.14	2701.27
638.33	2713.56
638.52	2736.09
638.71	2535.39
638.89	2598.87
639.08	3145.68
639.27	2873.30
639.46	2783.19
639.65	3133.39
639.84	3182.54
640.03	3325.90
640.22	3137.49
640.41	3170.26
640.60	2809.81
640.79	2906.07
640.98	2777.05
641.17	2815.96
641.36	2916.31
641.55	2994.13
641.74	2678.74
641.92	2557.91
642.11	2670.55
642.30	2623.45
642.49	2590.68
642.68	2586.58
642.87	2779.09
643.06	2818.00
643.25	2584.54
643.44	2471.90
643.63	2682.84
643.82	2830.29
644.00	2582.49
644.19	2643.93
644.38	2609.11
644.57	2824.15
644.76	2760.66
644.95	2693.08
645.14	2775.00
645.33	2666.46
645.52	2676.70
645.71	2475.99
645.89	2570.20
646.08	2682.84
646.27	2701.27
646.46	2883.54
646.65	2525.15
646.84	2752.47
647.03	2533.34
647.22	2750.42
647.40	2719.70
647.59	2725.85
647.78	2500.57
647.97	2621.40
648.16	2543.58
648.35	2858.96
648.54	2842.58
648.73	2715.61
648.91	2856.92
649.10	2731.99
649.29	2596.82
649.48	2664.41
649.67	2783.19
649.86	2779.09
650.05	2707.41
650.23	2932.69
650.42	2707.41
650.61	3020.75
650.80	2922.45
650.99	3033.04
651.18	2895.83
651.36	2838.48
651.55	2672.60
651.74	2736.09
651.93	2691.03
652.12	2670.55
652.31	2709.46
652.49	2709.46
652.68	2711.51
652.87	2979.79
653.06	2695.13
653.25	2895.83
653.44	2678.74
653.62	2906.07
653.81	2697.17
654.00	2680.79
654.19	2955.22
654.38	3170.26
654.56	2760.66
654.75	2633.69
654.94	2805.72
655.13	2750.42
655.32	2623.45
655.51	2678.74
655.69	2695.13
655.88	2686.94
656.07	2449.37
656.26	2719.70
656.45	2543.58
656.63	2725.85
656.82	2703.32
657.01	2899.92
657.20	2664.41
657.38	2891.73
657.57	2664.41
657.76	2422.75
657.95	2924.50
658.14	2586.58
658.32	2707.41
658.51	2580.44
658.70	2711.51
658.89	2787.29
659.08	2641.88
659.26	2893.78
659.45	2619.35
659.64	2738.13
659.83	2570.20
660.01	3063.76
660.20	2703.32
660.39	2963.41
660.58	2480.09
660.76	2758.61
660.95	2543.58
661.14	2760.66
661.33	2539.48
661.51	2680.79
661.70	2641.88
661.89	2740.18
662.08	2578.39
662.26	2408.41
662.45	2527.19
662.64	3020.75
662.83	2742.23
663.01	2559.96
663.20	2654.17
663.39	2963.41
663.58	2609.11
663.76	2650.07
663.95	2789.33
664.14	2574.30
664.32	2598.87
664.51	2539.48
664.70	2465.75
664.89	2791.38
665.07	2494.43
665.26	2777.05
665.45	2502.62
665.64	2842.58
665.82	2699.22
666.01	2738.13
666.20	2525.15
666.38	2987.99
666.57	2824.15
666.76	4288.45
666.95	9967.46
667.13	16908.03
667.32	20704.96
667.51	23811.73
667.69	24809.09
667.88	21456.57
668.07	15423.25
668.25	12750.65
668.44	11050.84
668.63	9432.94
668.81	8433.54
669.00	7387.02
669.19	6457.25
669.38	5697.45
669.56	4851.64
669.75	4356.03
669.94	3768.26
670.12	3239.89
670.31	2990.03
670.50	2953.17
670.68	2897.88
670.87	2785.24
671.06	2701.27
671.24	2809.81
671.43	3053.52
671.62	2748.37
671.80	2641.88
671.99	2742.23
672.18	2740.18
672.36	2803.67
672.55	2711.51
672.74	2668.50
672.92	2697.17
673.11	2752.47
673.29	2543.58
673.48	2775.00
673.67	2725.85
673.85	2789.33
674.04	2615.26
674.23	2731.99
674.41	2971.60
674.60	2547.67
674.79	2570.20
674.97	2572.25
675.16	2856.92
675.34	2848.72
675.53	2656.22
675.72	2826.20
675.90	3041.23
676.09	2660.31
676.28	2645.98
676.46	2480.09
676.65	2815.96
676.83	2639.83
677.02	2707.41
677.21	2701.27
677.39	2752.47
677.58	2574.30
677.77	2686.94
677.95	2549.72
678.14	2686.94
678.32	2611.16
678.51	2551.77
678.70	2901.97
678.88	2658.26
679.07	2756.57
679.25	2674.65
679.44	2717.65
679.63	2467.80
679.81	2725.85
680.00	2895.83
680.18	2719.70
680.37	2977.75
680.55	2772.95
680.74	2508.76
680.93	2494.43
681.11	2748.37
681.30	2652.12
681.48	2654.17
681.67	2637.78
681.85	2791.38
682.04	2523.10
682.23	2867.16
682.41	2648.02
682.60	2615.26
682.78	2758.61
682.97	2527.19
683.15	2678.74
683.34	2752.47
683.53	2944.98
683.71	2523.10
683.90	2760.66
684.08	3053.52
684.27	2656.22
684.45	2744.28
684.64	2793.43
684.82	2754.52
685.01	2799.57
685.19	2725.85
685.38	2840.53
685.57	2686.94
685.75	2650.07
685.94	2619.35
686.12	2629.59
686.31	2766.81
686.49	2940.88
686.68	2557.91
686.86	2725.85
687.05	2691.03
687.23	3012.56
687.42	2625.50
687.60	2437.08
687.79	2889.68
687.97	2904.02
688.16	2666.46
688.34	2832.34
688.53	2500.57
688.71	2775.00
688.90	2834.39
689.08	2691.03
689.27	2508.76
689.45	2813.91
689.64	2779.09
689.82	2695.13
690.01	2789.33
690.19	2797.53
690.38	2645.98
690.56	2850.77
690.75	2592.73
690.93	2637.78
691.12	2582.49
691.30	2619.35
691.49	2652.12
691.67	2744.28
691.86	2912.21
692.04	2617.30
692.23	2709.46
692.41	2713.56
692.60	2959.31
692.78	2836.44
692.97	2736.09
693.15	2838.48
693.34	2856.92
693.52	2752.47
693.71	2719.70
693.89	2682.84
694.08	2498.52
694.26	2791.38
694.44	2883.54
694.63	2848.72
694.81	2547.67
695.00	2551.77
695.18	2887.64
695.37	3071.95
695.55	2717.65
695.74	2672.60
695.92	2586.58
696.10	2899.92
696.29	2543.58
696.47	2674.65
696.66	2471.90
696.84	2531.29
697.03	2711.51
697.21	2910.16
697.40	4118.47
697.58	2969.55
697.76	2605.02
697.95	2586.58
698.13	2441.18
698.32	2672.60
698.50	2727.89
698.68	2654.17
698.87	2766.81
699.05	2936.79
699.24	2660.31
699.42	2512.86
699.61	2752.47
699.79	2758.61
699.97	2580.44
700.16	2529.24
700.34	2547.67
700.53	2787.29
700.71	2820.05
700.89	2699.22
701.08	2684.89
701.26	2777.05
701.45	3112.91
701.63	2625.50
701.81	2652.12
702.00	2576.34
702.18	2715.61
702.37	2631.64
702.55	2985.94
702.73	2846.68
702.92	2707.41
703.10	2928.60
703.28	2842.58
703.47	2635.74
703.65	2846.68
703.84	2779.09
704.02	2723.80
704.20	2951.12
704.39	2553.82
704.57	2633.69
704.75	2863.06
704.94	2818.00
705.12	2731.99
705.30	3125.20
705.49	5898.15
705.67	11947.85
705.86	17712.88
706.04	20055.76
706.22	22603.43
706.41	22242.99
706.59	17344.25
706.77	13221.69
706.96	11540.30
707.14	10424.16
707.32	8849.27
707.51	7819.14
707.69	6447.01
707.87	5283.76
708.06	4476.86
708.24	3844.04
708.42	3452.88
708.61	3373.00
708.79	2736.09
708.97	2684.89
709.16	2791.38
709.34	2764.76
709.52	2598.87
709.71	2648.02
709.89	2813.91
710.07	2615.26
710.26	2572.25
710.44	2682.84
710.62	2842.58
710.80	2703.32
710.99	2811.86
711.17	2791.38
711.35	2701.27
711.54	2715.61
711.72	2801.62
711.90	2715.61
712.09	2777.05
712.27	2633.69
712.45	2662.36
712.63	2613.21
712.82	2717.65
713.00	2674.65
713.18	2729.94
713.37	2752.47
713.55	2895.83
713.73	2787.29
713.91	2781.14
714.10	2564.06
714.28	2707.41
714.46	2719.70
714.65	2785.24
714.83	2725.85
715.01	2731.99
715.19	2717.65
715.38	2576.34
715.56	2736.09
715.74	2545.63
715.92	2598.87
716.11	2856.92
716.29	2471.90
716.47	2760.66
716.65	2738.13
716.84	2568.15
717.02	2723.80
717.20	2551.77
717.38	2623.45
717.57	2691.03
717.75	2715.61
717.93	2693.08
718.11	2779.09
718.30	2582.49
718.48	2697.17
718.66	2850.77
718.84	2815.96
719.03	2678.74
719.21	2496.47
719.39	3014.61
719.57	2826.20
719.75	2787.29
719.94	2611.16
720.12	2670.55
720.30	2770.90
720.48	2785.24
720.67	2543.58
720.85	2611.16
721.03	2588.63
721.21	2539.48
721.39	2811.86
721.58	2850.77
721.76	2746.33
721.94	2748.37
722.12	2711.51
722.30	2914.26
722.49	2564.06
722.67	2703.32
722.85	2662.36
723.03	2527.19
723.21	2572.25
723.40	2693.08
723.58	2820.05
723.76	2826.20
723.94	2965.46
724.12	2729.94
724.30	2863.06
724.49	2877.40
724.67	2691.03
724.85	2787.29
725.03	2545.63
725.21	2781.14
725.40	2834.39
725.58	2613.21
725.76	2818.00
725.94	2797.53
726.12	2574.30
726.30	2697.17
726.49	2666.46
726.67	2623.45
726.85	2793.43
727.03	3151.82
727.21	4046.79
727.39	5126.07
727.57	5496.75
727.76	6150.05
727.94	6100.90
728.12	5439.40
728.30	4591.55
728.48	4329.41
728.66	3911.62
728.84	3762.12
729.03	3334.09
729.21	3137.49
729.39	3024.85
729.57	2799.57
729.75	2846.68
729.93	2721.75
730.11	2652.12
730.30	2695.13
730.48	2686.94
730.66	2760.66
730.84	2791.38
731.02	2648.02
731.20	2584.54
731.38	2709.46
731.56	2525.15
731.74	2586.58
731.93	2807.77
732.11	2705.37
732.29	2643.93
732.47	2744.28
732.65	2736.09
732.83	2731.99
733.01	2777.05
733.19	2652.12
733.37	2766.81
733.56	2738.13
733.74	2562.01
733.92	2916.31
734.10	2607.06
734.28	2752.47
734.46	2482.14
734.64	2686.94
734.82	2740.18
735.00	2578.39
735.18	2676.70
735.36	2701.27
735.54	2693.08
735.73	2691.03
735.91	2697.17
736.09	2983.89
736.27	2760.66
736.45	2703.32
736.63	2455.51
736.81	2654.17
736.99	2901.97
737.17	2783.19
737.35	2643.93
737.53	2838.48
737.71	2664.41
737.89	2828.24
738.07	2543.58
738.25	2633.69
738.43	2488.28
738.61	2594.78
738.80	2480.09
738.98	2600.92
739.16	2621.40
739.34	2615.26
739.52	2842.58
739.70	2686.94
739.88	2789.33
740.06	2832.34
740.24	2449.37
740.42	2863.06
740.60	2443.23
740.78	2633.69
740.96	2490.33
741.14	2660.31
741.32	2734.04
741.50	2488.28
741.68	2906.07
741.86	2908.12
742.04	2537.43
742.22	2521.05
742.40	2619.35
742.58	2881.49
742.76	2508.76
742.94	2777.05
743.12	2383.84
743.30	2723.80
743.48	2811.86
743.66	2494.43
743.84	2719.70
744.02	2695.13
744.20	2764.76
744.38	2576.34
744.56	2535.39
744.74	2973.65
744.92	2793.43
745.10	2969.55
745.28	2740.18
745.46	2990.03
745.64	2643.93
745.82	2785.24
746.00	2670.55
746.18	2744.28
746.36	2549.72
746.54	2658.26
746.72	2715.61
746.90	2738.13
747.08	2820.05
747.26	2678.74
747.44	2764.76
747.62	2813.91
747.80	2813.91
747.98	2834.39
748.15	2666.46
748.33	3026.90
748.51	2725.85
748.69	2711.51
748.87	2576.34
749.05	2674.65
749.23	2701.27
749.41	2662.36
749.59	2623.45
749.77	2795.48
749.95	2688.98
750.13	2621.40
750.31	2840.53
750.49	2697.17
750.67	2795.48
750.85	2834.39
751.03	2713.56
751.20	3016.66
751.38	2684.89
751.56	2664.41
751.74	2691.03
751.92	2740.18
752.10	2582.49
752.28	2838.48
752.46	2656.22
752.64	2725.85
752.82	2664.41
753.00	2752.47
753.18	2627.54
753.35	2580.44
753.53	2699.22
753.71	2676.70
753.89	2779.09
754.07	2674.65
754.25	2793.43
754.43	2658.26
754.61	2555.86
754.79	2807.77
754.97	2670.55
755.14	2856.92
755.32	2619.35
755.50	2731.99
755.68	2740.18
755.86	2519.00
756.04	2555.86
756.22	2435.03
756.40	2836.44
756.57	2863.06
756.75	2641.88
756.93	2887.64
757.11	2930.64
757.29	2496.47
757.47	2539.48
757.65	2578.39
757.82	2383.84
758.00	2596.82
758.18	2627.54
758.36	2557.91
758.54	2914.26
758.72	2465.75
758.90	2785.24
759.07	2658.26
759.25	2637.78
759.43	2695.13
759.61	2553.82
759.79	3872.71
759.97	2949.08
760.15	2570.20
760.32	2605.02
760.50	2725.85
760.68	2975.70
760.86	2574.30
761.04	2881.49
761.22	2750.42
761.39	2838.48
761.57	2764.76
761.75	2613.21
761.93	2803.67
762.11	2654.17
762.28	2703.32
762.46	2562.01
762.64	2867.16
762.82	2547.67
763.00	2623.45
763.18	2830.29
763.35	2535.39
763.53	2785.24
763.71	2686.94
763.89	2615.26
764.07	2715.61
764.24	2738.13
764.42	2729.94
764.60	2621.40
764.78	2764.76
764.96	2844.63
765.13	2764.76
765.31	2637.78
765.49	2918.36
765.67	2490.33
765.84	2602.97
766.02	2562.01
766.20	2525.15
766.38	2787.29
766.56	2715.61
766.73	2719.70
766.91	2633.69
767.09	2695.13
767.27	2695.13
767.44	2605.02
767.62	2772.95
767.80	2637.78
767.98	2625.50
768.15	2678.74
768.33	2830.29
768.51	2871.25
768.69	2805.72
768.87	2660.31
769.04	2648.02
769.22	3092.43
769.40	2838.48
769.58	2789.33
769.75	2756.57
769.93	2987.99
770.11	2691.03
770.28	2660.31
770.46	2856.92
770.64	2744.28
770.82	2670.55
770.99	2611.16
771.17	2791.38
771.35	2613.21
771.53	2691.03
771.70	2557.91
771.88	2772.95
772.06	2715.61
772.23	2627.54
772.41	2815.96
772.59	2719.70
772.77	2629.59
772.94	2662.36
773.12	2676.70
773.30	2688.98
773.47	2725.85
773.65	2572.25
773.83	2840.53
774.01	2760.66
774.18	2523.10
774.36	2693.08
774.54	2519.00
774.71	2793.43
774.89	2441.18
775.07	2600.92
775.24	2619.35
775.42	2623.45
775.60	3008.47
775.78	2600.92
775.95	2525.15
776.13	2447.32
776.31	2502.62
776.48	2688.98
776.66	2803.67
776.84	2676.70
777.01	2602.97
777.19	2488.28
777.37	2543.58
777.54	2854.87
777.72	3026.90
777.90	2736.09
778.07	2535.39
778.25	3139.54
778.43	2863.06
778.60	2666.46
778.78	2744.28
778.96	2912.21
779.13	2578.39
779.31	2717.65
779.49	2652.12
779.66	2705.37
779.84	2635.74
780.01	2607.06
780.19	2500.57
780.37	2891.73
780.54	2820.05
780.72	2594.78
780.90	2631.64
781.07	2686.94
781.25	2602.97
781.43	2826.20
781.60	2572.25
781.78	2838.48
781.95	2705.37
782.13	2621.40
782.31	2637.78
782.48	2494.43
782.66	2750.42
782.83	2873.30
783.01	2707.41
783.19	2858.96
783.36	2699.22
783.54	2510.81
783.72	2701.27
783.89	2686.94
784.07	2643.93
784.24	2785.24
784.42	2854.87
784.60	2785.24
784.77	2660.31
784.95	2424.80
785.12	2564.06
785.30	2703.32
785.47	2648.02
785.65	2600.92
785.83	2711.51
786.00	2660.31
786.18	2664.41
786.35	2531.29
786.53	2572.25
786.71	2867.16
786.88	2772.95
787.06	2678.74
787.23	2594.78
787.41	2551.77
787.58	2742.23
787.76	2562.01
787.94	2797.53
788.11	2789.33
788.29	2613.21
788.46	2621.40
788.64	2484.19
788.81	2717.65
788.99	2570.20
789.16	2541.53
789.34	2693.08
789.52	2693.08
789.69	2674.65
789.87	2398.17
790.04	2602.97
790.22	2678.74
790.39	2981.84
790.57	2553.82
790.74	2490.33
790.92	2877.40
791.09	2510.81
791.27	2684.89
791.44	2723.80
791.62	2680.79
791.79	2854.87
791.97	2688.98
792.15	3123.15
792.32	2830.29
792.50	2719.70
792.67	2910.16
792.85	2850.77
793.02	2707.41
793.20	2643.93
793.37	2543.58
793.55	2543.58
793.72	2475.99
793.90	2832.34
794.07	2611.16
794.25	2578.39
794.42	2725.85
794.60	2645.98
794.77	2680.79
794.95	2863.06
795.12	2854.87
795.30	2717.65
795.47	2469.85
795.65	3071.95
795.82	2846.68
796.00	2570.20
796.17	2660.31
796.34	2574.30
796.52	2785.24
796.69	2875.35
796.87	2748.37
797.04	2744.28
797.22	2815.96
797.39	2772.95
797.57	2795.48
797.74	2725.85
797.92	2736.09
798.09	2613.21
798.27	2846.68
798.44	2613.21
798.62	2598.87
798.79	2764.76
798.96	2705.37
799.14	2652.12
799.31	3121.10
799.49	2590.68
799.66	2629.59
799.84	2680.79
800.01	2555.86
800.19	2740.18
800.36	2463.71
800.53	2707.41
800.71	2785.24
800.88	2918.36
801.06	2564.06
801.23	2582.49
801.41	2650.07
801.58	2643.93
801.75	2605.02
801.93	2666.46
802.10	2887.64
802.28	2697.17
802.45	2643.93
802.63	2668.50
802.80	2916.31
802.97	2609.11
803.15	2631.64
803.32	2680.79
803.50	2580.44
803.67	2572.25
803.84	2592.73
804.02	2703.32
804.19	2645.98
804.37	2404.32
804.54	2512.86
804.71	2521.05
804.89	2748.37
805.06	2590.68
805.24	2588.63
805.41	2439.13
805.58	2555.86
805.76	2996.18
805.93	2629.59
806.10	2805.72
806.28	2789.33
806.45	2725.85
806.63	2713.56
806.80	2688.98
806.97	2777.05
807.15	2762.71
807.32	2715.61
807.49	2668.50
807.67	2596.82
807.84	2813.91
808.01	2441.18
808.19	2899.92
808.36	3035.09
808.54	2621.40
808.71	2572.25
808.88	2645.98
809.06	2936.79
809.23	2906.07
809.40	2580.44
809.58	2701.27
809.75	2701.27
809.92	2488.28
810.10	2887.64
810.27	2629.59
810.44	2736.09
810.62	2772.95
810.79	2650.07
810.96	2621.40
811.14	2635.74
811.31	2756.57
811.48	2805.72
811.66	2619.35
811.83	2795.48
812.00	2787.29
812.18	2723.80
812.35	3041.23
812.52	2672.60
812.69	2609.11
812.87	2578.39
813.04	2555.86
813.21	2645.98
813.39	2547.67
813.56	2480.09
813.73	2842.58
813.91	2547.67
814.08	2721.75
814.25	2666.46
814.42	2492.38
814.60	2658.26
814.77	2629.59
814.94	2643.93
815.12	2641.88
815.29	2899.92
815.46	2617.30
815.63	2676.70
815.81	2621.40
815.98	2607.06
816.15	2748.37
816.33	2588.63
816.50	2635.74
816.67	2697.17
816.84	2656.22
817.02	2580.44
817.19	2629.59
817.36	2809.81
817.53	2791.38
817.71	2600.92
817.88	2748.37
818.05	2729.94
818.22	2578.39
818.40	2820.05
818.57	2670.55
818.74	2731.99
818.91	2736.09
819.09	2736.09
819.26	2770.90
819.43	2605.02
819.60	2598.87
819.78	2701.27
819.95	2795.48
820.12	2527.19
820.29	2869.20
820.47	2826.20
820.64	2586.58
820.81	2529.24
820.98	2592.73
821.15	2619.35
821.33	2775.00
821.50	2387.93
821.67	2775.00
821.84	2629.59
822.02	2719.70
822.19	2783.19
822.36	2631.64
822.53	2695.13
822.70	2473.95
822.88	2631.64
823.05	2916.31
823.22	2742.23
823.39	2703.32
823.56	2744.28
823.74	2981.84
823.91	2551.77
824.08	2576.34
824.25	2576.34
824.42	2981.84
824.60	2488.28
824.77	2686.94
824.94	2713.56
825.11	2799.57
825.28	2568.15
825.45	2678.74
825.63	2762.71
825.80	2590.68
825.97	2727.89
826.14	2652.12
826.31	2500.57
826.48	2775.00
826.66	2557.91
826.83	2490.33
827.00	2670.55
827.17	2625.50
827.34	2693.08
827.51	2600.92
827.69	2711.51
827.86	2541.53
828.03	2645.98
828.20	2645.98
828.37	2619.35
828.54	2797.53
828.71	2619.35
828.89	2820.05
829.06	2721.75
829.23	3028.95
829.40	2562.01
829.57	2633.69
829.74	2777.05
829.91	2666.46
830.09	2654.17
830.26	2668.50
830.43	2928.60
830.60	2717.65
830.77	2785.24
830.94	2758.61
831.11	2707.41
831.28	2654.17
831.46	2770.90
831.63	2635.74
831.80	2811.86
831.97	2582.49
832.14	2582.49
832.31	2746.33
832.48	2731.99
832.65	2916.31
832.82	2787.29
832.99	2717.65
833.17	2574.30
833.34	2920.40
833.51	2695.13
833.68	2447.32
833.85	2799.57
834.02	2564.06
834.19	2580.44
834.36	2592.73
834.53	2838.48
834.70	2826.20
834.87	2693.08
835.04	2553.82
835.22	2600.92
835.39	2705.37
835.56	2557.91
835.73	2574.30
835.90	2895.83
836.07	2598.87
836.24	2676.70
836.41	2473.95
836.58	2660.31
836.75	2783.19
836.92	2576.34
837.09	2506.71
837.26	2877.40
837.43	2750.42
837.60	2627.54
837.77	2523.10
837.94	2789.33
838.12	2861.01
838.29	2475.99
838.46	2461.66
838.63	2553.82
838.80	2953.17
838.97	2564.06
839.14	2521.05
839.31	2650.07
839.48	2861.01
839.65	2562.01
839.82	2609.11
839.99	2793.43
840.16	2680.79
840.33	2432.99
840.50	2584.54
840.67	2594.78
840.84	2430.94
841.01	2662.36
841.18	2525.15
841.35	2736.09
841.52	2809.81
841.69	2867.16
841.86	2625.50
842.03	2639.83
842.20	2801.62
842.37	2586.58
842.54	2658.26
842.71	2756.57
842.88	2551.77
843.05	2574.30
843.22	2527.19
843.39	2908.12
843.56	2672.60
843.73	2594.78
843.90	2590.68
844.07	2680.79
844.24	2850.77
844.41	2666.46
844.58	2613.21
844.75	2678.74
844.92	2789.33
845.09	2615.26
845.26	2578.39
845.43	2768.85
845.60	2598.87
845.77	2688.98
845.94	2611.16
846.10	2799.57
846.27	2453.47
846.44	2453.47
846.61	2422.75
846.78	2770.90
846.95	2858.96
847.12	2553.82
847.29	2588.63
847.46	2564.06
847.63	2803.67
847.80	2490.33
847.97	2553.82
848.14	3057.62
848.31	2617.30
848.48	2488.28
848.65	2635.74
848.82	2662.36
848.98	3006.42
849.15	2674.65
849.32	2736.09
849.49	2910.16
849.66	2711.51
849.83	2441.18
850.00	2469.85
850.17	2856.92
850.34	2684.89
850.51	2494.43
850.68	2568.15
850.85	2973.65
851.01	2734.04
851.18	2641.88
851.35	2559.96
851.52	2746.33
851.69	2973.65
851.86	2455.51
852.03	2465.75
852.20	2783.19
852.37	2727.89
852.53	2488.28
852.70	2486.23
852.87	2703.32
853.04	2772.95
853.21	2551.77
853.38	2758.61
853.55	2932.69
853.72	2924.50
853.89	2424.80
854.05	2459.61
854.22	2678.74
854.39	2693.08
854.56	2611.16
854.73	2750.42
854.90	2594.78
855.07	2629.59
855.23	2549.72
855.40	2549.72
855.57	2641.88
855.74	2471.90
855.91	2705.37
856.08	2482.14
856.25	2531.29
856.41	2605.02
856.58	2545.63
856.75	2562.01
856.92	2588.63
857.09	2858.96
857.26	2416.60
857.42	2668.50
857.59	2760.66
857.76	2695.13
857.93	2602.97
858.10	2693.08
858.27	2525.15
858.43	2686.94
858.60	2584.54
858.77	2416.60
858.94	2584.54
859.11	2803.67
859.27	2535.39
859.44	2555.86
859.61	2981.84
859.78	2779.09
859.95	2568.15
860.12	2445.27
860.28	3012.56
860.45	2971.60
860.62	2502.62
860.79	2635.74
860.95	2598.87
861.12	2580.44
861.29	2418.65
861.46	2465.75
861.63	2652.12
861.79	2711.51
861.96	2465.75
862.13	2580.44
862.30	2912.21
862.47	2650.07
862.63	2406.36
862.80	2549.72
862.97	2830.29
863.14	2768.85
863.30	2611.16
863.47	2510.81
863.64	2951.12
863.81	2744.28
863.97	2445.27
864.14	2643.93
864.31	2680.79
864.48	2811.86
864.65	2504.67
864.81	2746.33
864.98	2840.53
865.15	2852.82
865.32	2613.21
865.48	2684.89
865.65	3000.27
865.82	2637.78
865.98	2645.98
866.15	2662.36
866.32	2783.19
866.49	2711.51
866.65	2695.13
866.82	2592.73
866.99	2744.28
867.16	2635.74
867.32	2588.63
867.49	2435.03
867.66	2656.22
867.83	2639.83
867.99	2441.18
868.16	2641.88
868.33	2605.02
868.49	2811.86
868.66	2531.29
868.83	2617.30
868.99	2707.41
869.16	2656.22
869.33	2764.76
869.50	2645.98
869.66	2723.80
869.83	2668.50
870.00	2488.28
870.16	2664.41
870.33	2662.36
870.50	2838.48
870.66	2617.30
870.83	2596.82
871.00	2744.28
871.17	2748.37
871.33	2611.16
871.50	2500.57
871.67	2688.98
871.83	2615.26
872.00	2617.30
872.17	2508.76
872.33	3047.38
872.50	2920.40
872.67	2600.92
872.83	2531.29
873.00	2711.51
873.17	2691.03
873.33	2625.50
873.50	2629.59
873.67	2625.50
873.83	2629.59
874.00	2592.73
874.16	2613.21
874.33	2777.05
874.50	2559.96
874.66	2510.81
874.83	2580.44
875.00	2912.21
875.16	2840.53
875.33	2652.12
875.50	2369.50
875.66	2588.63
875.83	2725.85
875.99	2660.31
876.16	2619.35
876.33	2566.10
876.49	2664.41
876.66	2602.97
876.83	2627.54
876.99	2502.62
877.16	2695.13
877.32	2586.58
877.49	2543.58
877.66	2783.19
877.82	2949.08
877.99	2572.25
878.15	2777.05
878.32	2822.10
878.49	2729.94
878.65	2582.49
878.82	2781.14
878.98	2648.02
879.15	2797.53
879.32	2686.94
879.48	2721.75
879.65	2688.98
879.81	2645.98
879.98	2553.82
880.15	2617.30
880.31	2891.73
880.48	2592.73
880.64	2637.78
880.81	2721.75
880.97	2944.98
881.14	2901.97
881.31	2441.18
881.47	2752.47
881.64	2623.45
881.80	2412.51
881.97	2664.41
882.13	2623.45
882.30	2670.55
882.47	2592.73
882.63	2541.53
882.80	2580.44
882.96	2641.88
883.13	2914.26
883.29	2545.63
883.46	2519.00
883.62	3078.10
883.79	2617.30
883.95	2686.94
884.12	2535.39
884.29	2955.22
884.45	2779.09
884.62	2629.59
884.78	2463.71
884.95	2944.98
885.11	2678.74
885.28	2682.84
885.44	2582.49
885.61	2813.91
885.77	2887.64
885.94	2672.60
886.10	2605.02
886.27	2688.98
886.43	2957.27
886.60	2779.09
886.76	2549.72
886.93	2576.34
887.09	2729.94
887.26	2443.23
887.42	2654.17
887.59	2871.25
887.75	2963.41
887.92	2764.76
888.08	2719.70
888.25	2975.70
888.41	2793.43
888.58	2645.98
888.74	2562.01
888.91	2639.83
>>>>>End Processed Spectral Data<<<<<
