SpectraSuite Data File
++++++++++++++++++++++++++++++++++++
Date: Thu May 05 16:20:28 CEST 2016
User: root
Dark Spectrum Present: No
Reference Spectrum Present: No
Number of Sampled Component Spectra: 1
Spectrometers: USB4C02835
Integration Time (usec): 100000 (USB4C02835)
Spectra Averaged: 1 (USB4C02835)
Boxcar Smoothing: 0 (USB4C02835)
Correct for Electrical Dark: No (USB4C02835)
Strobe/Lamp Enabled: No (USB4C02835)
Correct for Detector Non-linearity: No (USB4C02835)
Correct for Stray Light: No (USB4C02835)
Number of Pixels in Processed Spectrum: 3648
>>>>>Begin Processed Spectral Data<<<<<
177.47	2035.68
177.69	2035.68
177.91	2035.68
178.13	2031.58
178.36	1994.72
178.58	2564.06
178.80	2703.32
179.02	2439.13
179.24	2529.24
179.46	2488.28
179.68	2510.81
179.90	2695.13
180.13	2709.46
180.35	2422.75
180.57	2459.61
180.79	2768.85
181.01	2750.42
181.23	2549.72
181.45	2572.25
181.67	2865.11
181.90	2826.20
182.12	2576.34
182.34	2385.88
182.56	2775.00
182.78	2766.81
183.00	2531.29
183.22	2551.77
183.44	2551.77
183.66	3051.47
183.89	2680.79
184.11	2506.71
184.33	2836.44
184.55	2856.92
184.77	2496.47
184.99	2559.96
185.21	2676.70
185.43	3063.76
185.65	2482.14
185.87	2484.19
186.10	3168.21
186.32	3137.49
186.54	2576.34
186.76	2576.34
186.98	2840.53
187.20	2688.98
187.42	2494.43
187.64	2480.09
187.86	2760.66
188.08	2873.30
188.30	2420.70
188.52	2529.24
188.75	2867.16
188.97	2858.96
189.19	2529.24
189.41	2457.56
189.63	2777.05
189.85	2619.35
190.07	2361.31
190.29	2404.32
190.51	2766.81
190.73	2475.99
190.95	2666.46
191.17	2506.71
191.39	2519.00
191.61	2713.56
191.84	2549.72
192.06	2541.53
192.28	2455.51
192.50	3227.60
192.72	2582.49
192.94	2598.87
193.16	2861.01
193.38	2727.89
193.60	2439.13
193.82	2564.06
194.04	2949.08
194.26	2770.90
194.48	2519.00
194.70	2469.85
194.92	2643.93
195.14	2731.99
195.36	2461.66
195.58	2541.53
195.80	2590.68
196.02	2639.83
196.24	2449.37
196.46	2551.77
196.69	2617.30
196.91	3117.01
197.13	2469.85
197.35	2519.00
197.57	2983.89
197.79	2850.77
198.01	2553.82
198.23	2478.04
198.45	2748.37
198.67	2650.07
198.89	2459.61
199.11	2639.83
199.33	2648.02
199.55	2414.56
199.77	2453.47
199.99	2576.34
200.21	2633.69
200.43	2787.29
200.65	2338.78
200.87	2375.64
201.09	2723.80
201.31	2623.45
201.53	2549.72
201.75	2559.96
201.97	2766.81
202.19	2658.26
202.41	2525.15
202.63	2688.98
202.85	2725.85
203.07	2848.72
203.29	2547.67
203.51	2439.13
203.73	2543.58
203.95	3157.97
204.17	2488.28
204.39	2625.50
204.61	2684.89
204.83	2715.61
205.05	2695.13
205.27	2496.47
205.49	3102.67
205.71	2764.76
205.93	2439.13
206.15	2453.47
206.37	2791.38
206.59	2691.03
206.81	2349.02
207.03	2443.23
207.25	2584.54
207.47	2842.58
207.69	2566.10
207.91	2682.84
208.13	2930.64
208.34	2684.89
208.56	2488.28
208.78	2506.71
209.00	2582.49
209.22	2609.11
209.44	2478.04
209.66	2488.28
209.88	2731.99
210.10	2645.98
210.32	2473.95
210.54	2613.21
210.76	2699.22
210.98	2846.68
211.20	2420.70
211.42	2619.35
211.64	2883.54
211.86	2793.43
212.08	2578.39
212.30	2498.52
212.52	2656.22
212.74	2770.90
212.96	2578.39
213.17	2629.59
213.39	2805.72
213.61	3000.27
213.83	2533.34
214.05	2320.35
214.27	2856.92
214.49	2572.25
214.71	2473.95
214.93	2643.93
215.15	2736.09
215.37	2791.38
215.59	2492.38
215.81	2512.86
216.03	2932.69
216.24	2746.33
216.46	2500.57
216.68	2568.15
216.90	2867.16
217.12	2883.54
217.34	2463.71
217.56	2600.92
217.78	2953.17
218.00	2793.43
218.22	2535.39
218.44	2555.86
218.66	2775.00
218.87	2932.69
219.09	2516.95
219.31	2475.99
219.53	2799.57
219.75	2600.92
219.97	2549.72
220.19	2478.04
220.41	2678.74
220.63	3018.71
220.85	2490.33
221.06	2545.63
221.28	2918.36
221.50	2807.77
221.72	2420.70
221.94	2398.17
222.16	2717.65
222.38	2920.40
222.60	2475.99
222.82	2574.30
223.03	2861.01
223.25	2596.82
223.47	2555.86
223.69	2791.38
223.91	2844.63
224.13	2752.47
224.35	2441.18
224.57	2731.99
224.78	2729.94
225.00	2566.10
225.22	2582.49
225.44	2461.66
225.66	2818.00
225.88	2623.45
226.10	2527.19
226.32	2543.58
226.53	2938.84
226.75	2641.88
226.97	2559.96
227.19	2580.44
227.41	2658.26
227.63	2582.49
227.85	2381.79
228.06	2527.19
228.28	2662.36
228.50	2875.35
228.72	2457.56
228.94	2539.48
229.16	2465.75
229.37	2574.30
229.59	2416.60
229.81	2801.62
230.03	2633.69
230.25	2541.53
230.47	2396.12
230.69	2502.62
230.90	2789.33
231.12	2697.17
231.34	2559.96
231.56	2549.72
231.78	2463.71
232.00	2809.81
232.21	2533.34
232.43	2486.23
232.65	2381.79
232.87	2785.24
233.09	2387.93
233.30	2533.34
233.52	2858.96
233.74	2740.18
233.96	2500.57
234.18	2611.16
234.40	2715.61
234.61	3131.34
234.83	2392.03
235.05	2445.27
235.27	3088.34
235.49	2867.16
235.70	2445.27
235.92	2666.46
236.14	2832.34
236.36	3108.82
236.58	2334.68
236.79	2594.78
237.01	2684.89
237.23	2600.92
237.45	2709.46
237.67	2541.53
237.88	2709.46
238.10	3061.71
238.32	2455.51
238.54	2510.81
238.76	2654.17
238.97	2605.02
239.19	2506.71
239.41	2504.67
239.63	2881.49
239.85	2777.05
240.06	2463.71
240.28	2551.77
240.50	2867.16
240.72	2729.94
240.93	2457.56
241.15	2615.26
241.37	2731.99
241.59	2916.31
241.81	2478.04
242.02	2600.92
242.24	2772.95
242.46	2867.16
242.68	2402.27
242.89	2551.77
243.11	2863.06
243.33	2725.85
243.55	2551.77
243.76	2557.91
243.98	2572.25
244.20	2635.74
244.42	2553.82
244.64	2580.44
244.85	2504.67
245.07	2711.51
245.29	2621.40
245.51	2527.19
245.72	2807.77
245.94	2867.16
246.16	2424.80
246.38	2580.44
246.59	2678.74
246.81	2645.98
247.03	2437.08
247.24	2379.74
247.46	2707.41
247.68	2713.56
247.90	2381.79
248.11	2484.19
248.33	2891.73
248.55	2744.28
248.77	2590.68
248.98	2641.88
249.20	2949.08
249.42	2668.50
249.64	2506.71
249.85	2535.39
250.07	2660.31
250.29	2789.33
250.50	2555.86
250.72	2439.13
250.94	2746.33
251.16	3125.20
251.37	2512.86
251.59	2582.49
251.81	2910.16
252.02	2904.02
252.24	2402.27
252.46	2623.45
252.68	2594.78
252.89	2654.17
253.11	2414.56
253.33	2660.31
253.54	2942.93
253.76	2514.91
253.98	2494.43
254.20	2519.00
254.41	2531.29
254.63	2652.12
254.85	2426.84
255.06	2578.39
255.28	2785.24
255.50	2705.37
255.71	2439.13
255.93	2432.99
256.15	2635.74
256.36	2746.33
256.58	2355.16
256.80	2504.67
257.02	2678.74
257.23	2654.17
257.45	2547.67
257.67	2629.59
257.88	2641.88
258.10	2793.43
258.32	2551.77
258.53	2635.74
258.75	2996.18
258.97	2611.16
259.18	2508.76
259.40	2496.47
259.62	2930.64
259.83	2938.84
260.05	2488.28
260.27	3182.54
260.48	2842.58
260.70	2484.19
260.92	2402.27
261.13	2523.10
261.35	2838.48
261.57	2842.58
261.78	2432.99
262.00	2453.47
262.22	2750.42
262.43	2633.69
262.65	2621.40
262.86	2564.06
263.08	3080.14
263.30	2680.79
263.51	2318.30
263.73	2473.95
263.95	2944.98
264.16	2598.87
264.38	2461.66
264.60	2492.38
264.81	2723.80
265.03	2787.29
265.25	2783.19
265.46	2389.98
265.68	2947.03
265.89	2865.11
266.11	2414.56
266.33	2578.39
266.54	2893.78
266.76	2791.38
266.98	2592.73
267.19	2721.75
267.41	2899.92
267.62	2668.50
267.84	2369.50
268.06	2549.72
268.27	2731.99
268.49	2856.92
268.70	2594.78
268.92	2564.06
269.14	2605.02
269.35	2441.18
269.57	2539.48
269.79	2564.06
270.00	2621.40
270.22	2938.84
270.43	2482.14
270.65	2422.75
270.87	2750.42
271.08	2742.23
271.30	2611.16
271.51	2566.10
271.73	2809.81
271.95	2987.99
272.16	2490.33
272.38	2629.59
272.59	2680.79
272.81	2785.24
273.02	2478.04
273.24	2570.20
273.46	2818.00
273.67	2490.33
273.89	2355.16
274.10	2508.76
274.32	2879.44
274.54	2754.52
274.75	2523.10
274.97	2570.20
275.18	2809.81
275.40	2764.76
275.61	2555.86
275.83	2666.46
276.05	2486.23
276.26	2742.23
276.48	2602.97
276.69	2531.29
276.91	2584.54
277.12	2973.65
277.34	2609.11
277.55	2772.95
277.77	2750.42
277.99	2557.91
278.20	2514.91
278.42	2514.91
278.63	2605.02
278.85	2555.86
279.06	2455.51
279.28	2674.65
279.49	2897.88
279.71	2822.10
279.93	2691.03
280.14	2686.94
280.36	2535.39
280.57	2865.11
280.79	2652.12
281.00	2586.58
281.22	2623.45
281.43	2885.59
281.65	2371.55
281.86	2527.19
282.08	2684.89
282.29	3045.33
282.51	2432.99
282.73	2545.63
282.94	2484.19
283.16	2848.72
283.37	2754.52
283.59	2605.02
283.80	2881.49
284.02	2686.94
284.23	2664.41
284.45	2619.35
284.66	2564.06
284.88	2621.40
285.09	2602.97
285.31	2635.74
285.52	2746.33
285.74	2500.57
285.95	2807.77
286.17	2623.45
286.38	2920.40
286.60	2588.63
286.81	2600.92
287.03	2570.20
287.24	2682.84
287.46	2779.09
287.67	2654.17
287.89	2828.24
288.10	2580.44
288.32	2715.61
288.53	2789.33
288.75	2621.40
288.96	2826.20
289.18	2682.84
289.39	2566.10
289.61	2693.08
289.82	3026.90
290.04	2996.18
290.25	2498.52
290.47	2668.50
290.68	2633.69
290.90	2797.53
291.11	2389.98
291.33	2756.57
291.54	2656.22
291.76	2627.54
291.97	2588.63
292.18	2625.50
292.40	2639.83
292.61	2635.74
292.83	2920.40
293.04	2707.41
293.26	2783.19
293.47	2699.22
293.69	2523.10
293.90	2465.75
294.12	2930.64
294.33	2660.31
294.55	2578.39
294.76	2740.18
294.97	2987.99
295.19	2985.94
295.40	2582.49
295.62	2719.70
295.83	2842.58
296.05	2648.02
296.26	2760.66
296.48	2549.72
296.69	2746.33
296.90	2711.51
297.12	2725.85
297.33	2801.62
297.55	2715.61
297.76	2815.96
297.98	2684.89
298.19	2768.85
298.41	2787.29
298.62	2668.50
298.83	2777.05
299.05	2717.65
299.26	2717.65
299.48	2559.96
299.69	2670.55
299.90	2627.54
300.12	2674.65
300.33	2811.86
300.55	2582.49
300.76	2643.93
300.98	2559.96
301.19	2867.16
301.40	2580.44
301.62	2574.30
301.83	2713.56
302.05	2693.08
302.26	2609.11
302.47	2764.76
302.69	2584.54
302.90	2803.67
303.12	2379.74
303.33	2682.84
303.54	3045.33
303.76	2631.64
303.97	2639.83
304.19	2875.35
304.40	2670.55
304.61	2748.37
304.83	2740.18
305.04	2723.80
305.26	2731.99
305.47	2676.70
305.68	2598.87
305.90	2519.00
306.11	2856.92
306.33	2674.65
306.54	2469.85
306.75	2588.63
306.97	2500.57
307.18	2625.50
307.39	2572.25
307.61	2770.90
307.82	2707.41
308.04	2805.72
308.25	2521.05
308.46	2709.46
308.68	2707.41
308.89	2668.50
309.10	2738.13
309.32	2682.84
309.53	2777.05
309.74	2842.58
309.96	2502.62
310.17	2633.69
310.39	2723.80
310.60	2871.25
310.81	2619.35
311.03	2580.44
311.24	2770.90
311.45	2748.37
311.67	2842.58
311.88	2662.36
312.09	2627.54
312.31	2695.13
312.52	2535.39
312.73	2625.50
312.95	2521.05
313.16	2637.78
313.37	2766.81
313.59	2723.80
313.80	2834.39
314.01	2983.89
314.23	2564.06
314.44	2559.96
314.65	2529.24
314.87	2639.83
315.08	2582.49
315.29	2600.92
315.51	2547.67
315.72	2529.24
315.93	2748.37
316.15	2697.17
316.36	2594.78
316.57	2719.70
316.79	2631.64
317.00	2592.73
317.21	2777.05
317.43	2559.96
317.64	2721.75
317.85	2576.34
318.07	2564.06
318.28	2713.56
318.49	2748.37
318.70	2875.35
318.92	2863.06
319.13	2865.11
319.34	2809.81
319.56	2658.26
319.77	2818.00
319.98	2883.54
320.20	2783.19
320.41	2715.61
320.62	2791.38
320.83	2596.82
321.05	2850.77
321.26	2670.55
321.47	2764.76
321.69	2869.20
321.90	2478.04
322.11	2582.49
322.32	2783.19
322.54	2910.16
322.75	2660.31
322.96	3231.69
323.18	2512.86
323.39	2406.36
323.60	2582.49
323.81	2688.98
324.03	2609.11
324.24	2723.80
324.45	2748.37
324.66	2650.07
324.88	2807.77
325.09	2998.23
325.30	2619.35
325.52	2566.10
325.73	2811.86
325.94	2473.95
326.15	2459.61
326.37	2459.61
326.58	2826.20
326.79	2973.65
327.00	2514.91
327.22	2607.06
327.43	2635.74
327.64	2637.78
327.85	2707.41
328.07	2707.41
328.28	2990.03
328.49	2615.26
328.70	2621.40
328.92	2576.34
329.13	2760.66
329.34	2791.38
329.55	2775.00
329.76	2736.09
329.98	2717.65
330.19	2951.12
330.40	2668.50
330.61	2654.17
330.83	2863.06
331.04	2519.00
331.25	2609.11
331.46	2602.97
331.68	2586.58
331.89	2883.54
332.10	2621.40
332.31	2482.14
332.52	2758.61
332.74	2875.35
332.95	2529.24
333.16	2641.88
333.37	2822.10
333.58	2631.64
333.80	2637.78
334.01	2426.84
334.22	2658.26
334.43	2664.41
334.64	2559.96
334.86	2615.26
335.07	2580.44
335.28	2949.08
335.49	2529.24
335.70	2719.70
335.92	2871.25
336.13	3041.23
336.34	2691.03
336.55	2658.26
336.76	2822.10
336.98	2463.71
337.19	2598.87
337.40	2729.94
337.61	2994.13
337.82	2662.36
338.04	2668.50
338.25	2441.18
338.46	2582.49
338.67	2666.46
338.88	2539.48
339.09	2449.37
339.31	2676.70
339.52	2553.82
339.73	2602.97
339.94	2682.84
340.15	2797.53
340.36	2686.94
340.58	2727.89
340.79	2545.63
341.00	2783.19
341.21	2566.10
341.42	2809.81
341.63	2639.83
341.85	2887.64
342.06	2746.33
342.27	2551.77
342.48	2787.29
342.69	2428.89
342.90	2748.37
343.12	2826.20
343.33	2465.75
343.54	2883.54
343.75	2924.50
343.96	2658.26
344.17	2598.87
344.38	2760.66
344.60	2621.40
344.81	2519.00
345.02	2609.11
345.23	2891.73
345.44	2998.23
345.65	2682.84
345.86	2693.08
346.07	2772.95
346.29	2617.30
346.50	2734.04
346.71	2656.22
346.92	2906.07
347.13	3059.67
347.34	2664.41
347.55	2506.71
347.76	2840.53
347.98	2441.18
348.19	2633.69
348.40	2822.10
348.61	2643.93
348.82	2914.26
349.03	2699.22
349.24	2557.91
349.45	3088.34
349.66	2461.66
349.88	2602.97
350.09	2512.86
350.30	2996.18
350.51	2897.88
350.72	2750.42
350.93	2596.82
351.14	2627.54
351.35	2756.57
351.56	2584.54
351.77	2643.93
351.99	2738.13
352.20	2922.45
352.41	2709.46
352.62	2457.56
352.83	2664.41
353.04	2707.41
353.25	2607.06
353.46	2719.70
353.67	2904.02
353.88	2455.51
354.09	2586.58
354.30	2695.13
354.52	2783.19
354.73	2744.28
354.94	2553.82
355.15	2602.97
355.36	2940.88
355.57	2607.06
355.78	2576.34
355.99	2504.67
356.20	2713.56
356.41	2914.26
356.62	2582.49
356.83	2650.07
357.04	2934.74
357.25	2484.19
357.46	2541.53
357.68	2471.90
357.89	2568.15
358.10	2742.23
358.31	2605.02
358.52	2617.30
358.73	2555.86
358.94	2602.97
359.15	2596.82
359.36	2629.59
359.57	2711.51
359.78	2678.74
359.99	2709.46
360.20	2562.01
360.41	2674.65
360.62	2820.05
360.83	2576.34
361.04	2672.60
361.25	2777.05
361.46	2963.41
361.67	2805.72
361.88	2637.78
362.09	2901.97
362.30	2785.24
362.51	2521.05
362.72	2691.03
362.93	2797.53
363.14	2779.09
363.35	2678.74
363.56	2617.30
363.78	2856.92
363.99	2842.58
364.20	2621.40
364.41	2676.70
364.62	2924.50
364.83	2693.08
365.04	2617.30
365.25	2713.56
365.46	2949.08
365.67	2600.92
365.88	2719.70
366.09	2633.69
366.30	2674.65
366.51	2701.27
366.72	2535.39
366.93	2512.86
367.14	2785.24
367.35	2932.69
367.56	2580.44
367.77	2791.38
367.98	2785.24
368.18	2822.10
368.39	2703.32
368.60	2588.63
368.81	2820.05
369.02	2818.00
369.23	2643.93
369.44	2492.38
369.65	2639.83
369.86	2742.23
370.07	2688.98
370.28	2521.05
370.49	2818.00
370.70	2742.23
370.91	2545.63
371.12	2461.66
371.33	2863.06
371.54	2613.21
371.75	2731.99
371.96	2385.88
372.17	2734.04
372.38	2729.94
372.59	2652.12
372.80	2562.01
373.01	2688.98
373.22	2693.08
373.43	2627.54
373.64	2455.51
373.85	2899.92
374.06	2922.45
374.26	2678.74
374.47	2740.18
374.68	2926.55
374.89	2772.95
375.10	2551.77
375.31	2715.61
375.52	2707.41
375.73	2721.75
375.94	2500.57
376.15	2758.61
376.36	2609.11
376.57	2600.92
376.78	2592.73
376.99	2744.28
377.20	2889.68
377.40	2676.70
377.61	2895.83
377.82	2566.10
378.03	2897.88
378.24	2752.47
378.45	2678.74
378.66	2639.83
378.87	2547.67
379.08	2553.82
379.29	2555.86
379.50	2703.32
379.71	2764.76
379.91	2871.25
380.12	2619.35
380.33	2645.98
380.54	2713.56
380.75	2686.94
380.96	2590.68
381.17	2727.89
381.38	2703.32
381.59	2797.53
381.80	2691.03
382.00	2881.49
382.21	2725.85
382.42	2912.21
382.63	2875.35
382.84	2650.07
383.05	2867.16
383.26	2994.13
383.47	2711.51
383.68	2572.25
383.88	2805.72
384.09	2744.28
384.30	2873.30
384.51	2621.40
384.72	2654.17
384.93	2549.72
385.14	2660.31
385.35	2820.05
385.55	2527.19
385.76	2959.31
385.97	2668.50
386.18	2547.67
386.39	2615.26
386.60	2695.13
386.81	2605.02
387.02	2570.20
387.22	2494.43
387.43	2822.10
387.64	2734.04
387.85	2813.91
388.06	2818.00
388.27	3925.96
388.48	7614.35
388.68	10823.51
388.89	13481.78
389.10	14505.76
389.31	13893.42
389.52	10778.46
389.73	9383.79
389.93	8619.90
390.14	7905.16
390.35	7085.97
390.56	6360.99
390.77	5263.28
390.98	4046.79
391.18	3399.63
391.39	3198.93
391.60	2858.96
391.81	2840.53
392.02	2596.82
392.23	3055.57
392.43	2752.47
392.64	2775.00
392.85	2635.74
393.06	2904.02
393.27	2705.37
393.47	2600.92
393.68	2676.70
393.89	2707.41
394.10	2856.92
394.31	2609.11
394.52	2666.46
394.72	2648.02
394.93	2963.41
395.14	2539.48
395.35	2691.03
395.56	2641.88
395.76	2648.02
395.97	2686.94
396.18	2695.13
396.39	2766.81
396.60	3239.89
396.80	2938.84
397.01	2768.85
397.22	2871.25
397.43	2871.25
397.64	2592.73
397.84	2713.56
398.05	3018.71
398.26	2676.70
398.47	2768.85
398.67	2842.58
398.88	2764.76
399.09	2822.10
399.30	2574.30
399.51	2697.17
399.71	2555.86
399.92	2791.38
400.13	2658.26
400.34	2623.45
400.54	2734.04
400.75	2932.69
400.96	2731.99
401.17	2848.72
401.37	2863.06
401.58	2678.74
401.79	2611.16
402.00	2803.67
402.21	3082.19
402.41	2920.40
402.62	2873.30
402.83	3084.24
403.04	3078.10
403.24	3377.10
403.45	2719.70
403.66	2844.63
403.87	2936.79
404.07	3049.43
404.28	2869.20
404.49	2938.84
404.70	2807.77
404.90	2867.16
405.11	2654.17
405.32	2695.13
405.52	2652.12
405.73	2639.83
405.94	2527.19
406.15	2670.55
406.35	2818.00
406.56	2838.48
406.77	2662.36
406.98	2678.74
407.18	2588.63
407.39	2985.94
407.60	2686.94
407.80	2701.27
408.01	2744.28
408.22	2715.61
408.43	2600.92
408.63	2660.31
408.84	2856.92
409.05	2858.96
409.25	2570.20
409.46	2514.91
409.67	2615.26
409.88	2617.30
410.08	2633.69
410.29	2607.06
410.50	2809.81
410.70	2781.14
410.91	2551.77
411.12	2707.41
411.32	2758.61
411.53	2619.35
411.74	2672.60
411.95	2742.23
412.15	2740.18
412.36	2801.62
412.57	2691.03
412.77	2791.38
412.98	2674.65
413.19	2643.93
413.39	2691.03
413.60	2641.88
413.81	2852.82
414.01	2559.96
414.22	2746.33
414.43	2797.53
414.63	2701.27
414.84	2893.78
415.05	2650.07
415.25	2443.23
415.46	2746.33
415.67	2754.52
415.87	2662.36
416.08	2650.07
416.29	2697.17
416.49	2811.86
416.70	2621.40
416.91	2662.36
417.11	2762.71
417.32	2863.06
417.53	2826.20
417.73	2641.88
417.94	2697.17
418.15	2760.66
418.35	2783.19
418.56	2594.78
418.77	3108.82
418.97	2815.96
419.18	2791.38
419.38	2406.36
419.59	2717.65
419.80	2916.31
420.00	2508.76
420.21	2676.70
420.42	2897.88
420.62	2686.94
420.83	2623.45
421.04	2576.34
421.24	2709.46
421.45	2904.02
421.65	2729.94
421.86	2648.02
422.07	2856.92
422.27	2785.24
422.48	2635.74
422.69	2463.71
422.89	2748.37
423.10	2748.37
423.30	2557.91
423.51	2699.22
423.72	2775.00
423.92	2760.66
424.13	2514.91
424.33	2674.65
424.54	2752.47
424.75	2719.70
424.95	2899.92
425.16	2615.26
425.36	2707.41
425.57	2887.64
425.78	2811.86
425.98	2731.99
426.19	2678.74
426.39	2541.53
426.60	2725.85
426.81	2836.44
427.01	2777.05
427.22	2678.74
427.42	2461.66
427.63	2564.06
427.83	2822.10
428.04	2998.23
428.25	2756.57
428.45	2789.33
428.66	2938.84
428.86	2723.80
429.07	2668.50
429.28	2645.98
429.48	2613.21
429.69	2568.15
429.89	2775.00
430.10	2482.14
430.30	2916.31
430.51	2889.68
430.71	2502.62
430.92	2650.07
431.13	2613.21
431.33	2789.33
431.54	2670.55
431.74	2822.10
431.95	2998.23
432.15	2576.34
432.36	2695.13
432.56	2695.13
432.77	3051.47
432.98	3010.51
433.18	2731.99
433.39	2531.29
433.59	2670.55
433.80	2990.03
434.00	2865.11
434.21	2686.94
434.41	2650.07
434.62	3002.32
434.82	2564.06
435.03	2619.35
435.23	2789.33
435.44	2478.04
435.64	2602.97
435.85	2662.36
436.06	2803.67
436.26	2965.46
436.47	2660.31
436.67	2545.63
436.88	2613.21
437.08	2932.69
437.29	2854.87
437.49	2641.88
437.70	2920.40
437.90	2709.46
438.11	2967.51
438.31	2789.33
438.52	2990.03
438.72	2918.36
438.93	3006.42
439.13	2652.12
439.34	2906.07
439.54	2666.46
439.75	2695.13
439.95	2801.62
440.16	2686.94
440.36	2715.61
440.57	2619.35
440.77	2686.94
440.98	2826.20
441.18	2861.01
441.39	2635.74
441.59	2527.19
441.80	3080.14
442.00	2711.51
442.21	2709.46
442.41	2490.33
442.62	2893.78
442.82	2623.45
443.02	2607.06
443.23	2695.13
443.43	2643.93
443.64	2963.41
443.84	2578.39
444.05	2744.28
444.25	2666.46
444.46	2756.57
444.66	2617.30
444.87	2820.05
445.07	2537.43
445.28	2682.84
445.48	2834.39
445.69	2721.75
445.89	3049.43
446.09	2668.50
446.30	2914.26
446.50	3125.20
446.71	4538.30
446.91	5494.70
447.12	6545.31
447.32	6803.35
447.53	6608.80
447.73	5375.92
447.93	4724.66
448.14	4521.92
448.34	4650.94
448.55	3895.24
448.75	3841.99
448.96	3620.81
449.16	3391.44
449.36	3309.52
449.57	2842.58
449.77	2766.81
449.98	2645.98
450.18	2811.86
450.39	2676.70
450.59	2879.44
450.79	2713.56
451.00	2682.84
451.20	2820.05
451.41	2643.93
451.61	2805.72
451.81	2715.61
452.02	2586.58
452.22	2662.36
452.43	2578.39
452.63	2613.21
452.84	2635.74
453.04	2621.40
453.24	2736.09
453.45	2584.54
453.65	2625.50
453.86	2658.26
454.06	2777.05
454.26	2707.41
454.47	2537.43
454.67	2834.39
454.87	2793.43
455.08	2654.17
455.28	2828.24
455.49	2719.70
455.69	2629.59
455.89	3030.99
456.10	2752.47
456.30	2693.08
456.51	2809.81
456.71	2764.76
456.91	2768.85
457.12	2629.59
457.32	2848.72
457.52	2570.20
457.73	2738.13
457.93	2752.47
458.14	2662.36
458.34	2521.05
458.54	2617.30
458.75	2600.92
458.95	2865.11
459.15	2740.18
459.36	2772.95
459.56	2723.80
459.76	3129.30
459.97	2758.61
460.17	2656.22
460.37	2818.00
460.58	2705.37
460.78	2840.53
460.99	2600.92
461.19	2621.40
461.39	2619.35
461.60	2719.70
461.80	2668.50
462.00	2594.78
462.21	2744.28
462.41	2559.96
462.61	2480.09
462.82	2514.91
463.02	2770.90
463.22	2709.46
463.43	2731.99
463.63	2602.97
463.83	2947.03
464.04	2736.09
464.24	2617.30
464.44	2486.23
464.64	2768.85
464.85	2858.96
465.05	2729.94
465.25	2605.02
465.46	2582.49
465.66	2873.30
465.86	2695.13
466.07	2625.50
466.27	2719.70
466.47	2574.30
466.68	2500.57
466.88	2906.07
467.08	2844.63
467.29	2918.36
467.49	2660.31
467.69	2660.31
467.89	2822.10
468.10	2666.46
468.30	2676.70
468.50	2836.44
468.71	2881.49
468.91	2586.58
469.11	2744.28
469.31	2811.86
469.52	2602.97
469.72	2969.55
469.92	2834.39
470.13	2639.83
470.33	2701.27
470.53	2807.77
470.73	3018.71
470.94	3305.42
471.14	3473.36
471.34	3876.80
471.54	3588.04
471.75	3358.67
471.95	3172.30
472.15	3114.96
472.36	3137.49
472.56	3149.78
472.76	3123.15
472.96	3137.49
473.17	2879.44
473.37	2809.81
473.57	2707.41
473.77	2760.66
473.98	2727.89
474.18	2582.49
474.38	3141.58
474.58	2598.87
474.79	2494.43
474.99	2660.31
475.19	2899.92
475.39	2568.15
475.60	2648.02
475.80	2664.41
476.00	2809.81
476.20	2707.41
476.41	2740.18
476.61	2725.85
476.81	2910.16
477.01	2672.60
477.21	2809.81
477.42	2805.72
477.62	2615.26
477.82	2893.78
478.02	2537.43
478.23	2734.04
478.43	2693.08
478.63	2664.41
478.83	2627.54
479.03	2717.65
479.24	2953.17
479.44	3078.10
479.64	2537.43
479.84	2529.24
480.04	2645.98
480.25	2869.20
480.45	2609.11
480.65	2600.92
480.85	2916.31
481.06	2740.18
481.26	2725.85
481.46	2672.60
481.66	2787.29
481.86	2631.64
482.06	2766.81
482.27	2688.98
482.47	2629.59
482.67	2783.19
482.87	2635.74
483.07	2754.52
483.28	2605.02
483.48	2611.16
483.68	2672.60
483.88	2602.97
484.08	2459.61
484.29	2539.48
484.49	2660.31
484.69	2498.52
484.89	2961.36
485.09	2893.78
485.29	2670.55
485.50	2736.09
485.70	2617.30
485.90	2928.60
486.10	2711.51
486.30	2615.26
486.50	3020.75
486.71	2727.89
486.91	2797.53
487.11	2709.46
487.31	2564.06
487.51	2834.39
487.71	2611.16
487.91	2516.95
488.12	2623.45
488.32	2379.74
488.52	2592.73
488.72	2389.98
488.92	2670.55
489.12	2856.92
489.32	2793.43
489.53	2725.85
489.73	2525.15
489.93	2947.03
490.13	2576.34
490.33	2494.43
490.53	2783.19
490.73	2879.44
490.94	2506.71
491.14	2707.41
491.34	2873.30
491.54	2904.02
491.74	3418.06
491.94	4014.02
492.14	4360.13
492.34	4415.42
492.54	4204.48
492.75	3545.03
492.95	3665.86
493.15	3508.17
493.35	3268.56
493.55	3241.93
493.75	3114.96
493.95	3270.61
494.15	2893.78
494.35	2793.43
494.56	2742.23
494.76	2654.17
494.96	2873.30
495.16	2580.44
495.36	2688.98
495.56	2731.99
495.76	2674.65
495.96	2715.61
496.16	2572.25
496.36	3053.52
496.56	2621.40
496.77	2697.17
496.97	2729.94
497.17	2987.99
497.37	2551.77
497.57	2695.13
497.77	2727.89
497.97	2582.49
498.17	2656.22
498.37	2627.54
498.57	2838.48
498.77	2678.74
498.97	2648.02
499.17	2924.50
499.38	2709.46
499.58	2772.95
499.78	2826.20
499.98	2858.96
500.18	2693.08
500.38	2631.64
500.58	2959.31
500.78	3164.11
500.98	5373.87
501.18	7251.86
501.38	8599.42
501.58	9494.38
501.78	9377.65
501.98	7616.40
502.18	6524.83
502.38	5660.59
502.58	5439.40
502.78	4868.02
502.98	4599.74
503.18	4456.38
503.38	4059.07
503.59	3487.69
503.79	3456.97
503.99	3190.74
504.19	3143.63
504.39	3291.09
504.59	3131.34
504.79	3137.49
504.99	3188.69
505.19	2994.13
505.39	2781.14
505.59	2990.03
505.79	3016.66
505.99	2873.30
506.19	2629.59
506.39	2908.12
506.59	2637.78
506.79	2629.59
506.99	2846.68
507.19	2668.50
507.39	2807.77
507.59	2549.72
507.79	2637.78
507.99	2615.26
508.19	2721.75
508.39	2662.36
508.59	2670.55
508.79	2766.81
508.99	2985.94
509.19	2686.94
509.39	2736.09
509.59	2609.11
509.79	2617.30
509.99	2746.33
510.19	2754.52
510.39	2742.23
510.59	2791.38
510.79	2697.17
510.99	2531.29
511.19	2623.45
511.39	3108.82
511.59	2846.68
511.79	2762.71
511.99	2750.42
512.19	2973.65
512.38	2742.23
512.58	2631.64
512.78	2611.16
512.98	2920.40
513.18	2965.46
513.38	2541.53
513.58	2709.46
513.78	2766.81
513.98	2658.26
514.18	2588.63
514.38	2562.01
514.58	2789.33
514.78	2629.59
514.98	2547.67
515.18	2645.98
515.38	2535.39
515.58	2936.79
515.78	2662.36
515.98	2629.59
516.18	2877.40
516.38	2680.79
516.57	2533.34
516.77	2607.06
516.97	2779.09
517.17	2635.74
517.37	2463.71
517.57	2746.33
517.77	2654.17
517.97	2703.32
518.17	2799.57
518.37	2588.63
518.57	2555.86
518.77	2713.56
518.97	2637.78
519.16	2731.99
519.36	2920.40
519.56	2607.06
519.76	2586.58
519.96	2635.74
520.16	2910.16
520.36	2555.86
520.56	2803.67
520.76	2648.02
520.96	2643.93
521.16	2879.44
521.35	2856.92
521.55	2840.53
521.75	2703.32
521.95	2592.73
522.15	2564.06
522.35	2426.84
522.55	2643.93
522.75	2789.33
522.95	2584.54
523.14	2504.67
523.34	2828.24
523.54	2699.22
523.74	2699.22
523.94	2566.10
524.14	2529.24
524.34	2766.81
524.54	2795.48
524.73	2641.88
524.93	2875.35
525.13	2688.98
525.33	2465.75
525.53	2914.26
525.73	2850.77
525.93	2701.27
526.13	2605.02
526.32	2535.39
526.52	2852.82
526.72	2891.73
526.92	2600.92
527.12	2559.96
527.32	2559.96
527.52	2789.33
527.71	2697.17
527.91	2654.17
528.11	2643.93
528.31	2719.70
528.51	2594.78
528.71	2787.29
528.90	2901.97
529.10	2879.44
529.30	2740.18
529.50	2392.03
529.70	2795.48
529.90	2760.66
530.09	2701.27
530.29	2527.19
530.49	2693.08
530.69	3094.48
530.89	2678.74
531.09	2768.85
531.28	2631.64
531.48	2875.35
531.68	2678.74
531.88	2723.80
532.08	2858.96
532.28	2643.93
532.47	2797.53
532.67	2799.57
532.87	2760.66
533.07	2645.98
533.27	2686.94
533.46	2686.94
533.66	2721.75
533.86	2738.13
534.06	2686.94
534.26	2719.70
534.45	2695.13
534.65	2897.88
534.85	2713.56
535.05	2594.78
535.25	2883.54
535.44	2486.23
535.64	2777.05
535.84	2643.93
536.04	2613.21
536.24	2648.02
536.43	2697.17
536.63	2627.54
536.83	2672.60
537.03	2701.27
537.22	2533.34
537.42	2486.23
537.62	2688.98
537.82	2543.58
538.02	2850.77
538.21	2801.62
538.41	3174.35
538.61	2803.67
538.81	2719.70
539.00	2742.23
539.20	2602.97
539.40	2641.88
539.60	2691.03
539.79	2762.71
539.99	2822.10
540.19	2650.07
540.39	2666.46
540.58	2727.89
540.78	2805.72
540.98	2760.66
541.18	2807.77
541.37	2731.99
541.57	2717.65
541.77	2824.15
541.97	2592.73
542.16	2512.86
542.36	2670.55
542.56	2623.45
542.76	2891.73
542.95	2795.48
543.15	2768.85
543.35	2879.44
543.54	2592.73
543.74	2664.41
543.94	2916.31
544.14	2650.07
544.33	2754.52
544.53	2592.73
544.73	2729.94
544.93	2750.42
545.12	2668.50
545.32	2674.65
545.52	2701.27
545.71	2584.54
545.91	2615.26
546.11	2582.49
546.30	2631.64
546.50	2740.18
546.70	2664.41
546.90	2682.84
547.09	2506.71
547.29	2727.89
547.49	2787.29
547.68	2662.36
547.88	2656.22
548.08	2803.67
548.27	3051.47
548.47	2578.39
548.67	2654.17
548.87	2752.47
549.06	2668.50
549.26	2609.11
549.46	2813.91
549.65	2717.65
549.85	2637.78
550.05	2789.33
550.24	2494.43
550.44	2725.85
550.64	2648.02
550.83	2697.17
551.03	2910.16
551.23	2828.24
551.42	2775.00
551.62	2762.71
551.82	2721.75
552.01	2713.56
552.21	2830.29
552.41	2678.74
552.60	2949.08
552.80	2791.38
553.00	2596.82
553.19	2691.03
553.39	2942.93
553.59	2529.24
553.78	2811.86
553.98	2715.61
554.17	2584.54
554.37	2846.68
554.57	2758.61
554.76	2461.66
554.96	2682.84
555.16	2830.29
555.35	2654.17
555.55	2777.05
555.75	2799.57
555.94	2805.72
556.14	2455.51
556.33	2672.60
556.53	2738.13
556.73	2756.57
556.92	2738.13
557.12	2715.61
557.32	2981.84
557.51	2883.54
557.71	2717.65
557.90	2871.25
558.10	2934.74
558.30	2664.41
558.49	2678.74
558.69	2631.64
558.88	2838.48
559.08	2801.62
559.28	2699.22
559.47	2705.37
559.67	2809.81
559.86	3098.58
560.06	2717.65
560.26	2623.45
560.45	2832.34
560.65	2629.59
560.84	2871.25
561.04	2564.06
561.24	2809.81
561.43	2533.34
561.63	2828.24
561.82	2777.05
562.02	2797.53
562.22	2594.78
562.41	2588.63
562.61	2650.07
562.80	2598.87
563.00	3080.14
563.19	2746.33
563.39	2652.12
563.59	2846.68
563.78	2553.82
563.98	2387.93
564.17	2543.58
564.37	2389.98
564.56	2699.22
564.76	2551.77
564.96	2809.81
565.15	2727.89
565.35	3061.71
565.54	2766.81
565.74	2772.95
565.93	2818.00
566.13	2701.27
566.32	2731.99
566.52	2752.47
566.71	2768.85
566.91	2793.43
567.11	2789.33
567.30	2652.12
567.50	2758.61
567.69	2789.33
567.89	2605.02
568.08	2598.87
568.28	2793.43
568.47	2531.29
568.67	2695.13
568.86	2678.74
569.06	2908.12
569.25	2674.65
569.45	2539.48
569.64	2645.98
569.84	2697.17
570.04	2742.23
570.23	2623.45
570.43	2705.37
570.62	2760.66
570.82	2881.49
571.01	2523.10
571.21	2588.63
571.40	2543.58
571.60	2772.95
571.79	2723.80
571.99	2709.46
572.18	2543.58
572.38	2762.71
572.57	2691.03
572.77	2674.65
572.96	3110.86
573.16	2764.76
573.35	2617.30
573.55	2809.81
573.74	2887.64
573.94	2656.22
574.13	2643.93
574.33	2758.61
574.52	2961.36
574.71	2760.66
574.91	2756.57
575.10	2535.39
575.30	2678.74
575.49	2562.01
575.69	2566.10
575.88	2678.74
576.08	2762.71
576.27	2893.78
576.47	2633.69
576.66	2799.57
576.86	2967.51
577.05	2719.70
577.25	2723.80
577.44	2920.40
577.64	2701.27
577.83	2848.72
578.02	2660.31
578.22	2822.10
578.41	2977.75
578.61	2709.46
578.80	2441.18
579.00	2705.37
579.19	2797.53
579.39	2781.14
579.58	2754.52
579.77	2602.97
579.97	2979.79
580.16	2883.54
580.36	2768.85
580.55	2781.14
580.75	2709.46
580.94	2742.23
581.13	2889.68
581.33	2895.83
581.52	2684.89
581.72	3053.52
581.91	2828.24
582.11	2650.07
582.30	2877.40
582.49	2805.72
582.69	2854.87
582.88	2680.79
583.08	2789.33
583.27	2895.83
583.47	2707.41
583.66	2613.21
583.85	2645.98
584.05	2682.84
584.24	2738.13
584.44	2674.65
584.63	2924.50
584.82	2965.46
585.02	2895.83
585.21	2719.70
585.41	2861.01
585.60	2830.29
585.79	2967.51
585.99	2934.74
586.18	2750.42
586.37	3536.84
586.57	5468.08
586.76	15994.64
586.96	35294.69
587.15	47936.80
587.34	56525.99
587.54	61469.78
587.73	54822.08
587.93	38706.61
588.12	29388.35
588.31	24090.26
588.51	20926.14
588.70	19334.87
588.89	17280.76
589.09	14706.46
589.28	12515.14
589.47	9969.51
589.67	7597.96
589.86	5996.45
590.06	4577.21
590.25	3940.29
590.44	3420.11
590.64	3086.29
590.83	3000.27
591.02	2979.79
591.22	2699.22
591.41	2707.41
591.60	2693.08
591.80	3119.06
591.99	2594.78
592.18	2635.74
592.38	2916.31
592.57	2734.04
592.76	2711.51
592.96	2721.75
593.15	2731.99
593.34	2883.54
593.54	2670.55
593.73	2813.91
593.92	2789.33
594.12	2826.20
594.31	2695.13
594.50	2836.44
594.70	2729.94
594.89	3061.71
595.08	2553.82
595.28	2842.58
595.47	3258.32
595.66	2889.68
595.86	2611.16
596.05	2539.48
596.24	2625.50
596.43	2998.23
596.63	2820.05
596.82	2791.38
597.01	2818.00
597.21	3039.19
597.40	2693.08
597.59	2643.93
597.79	2775.00
597.98	2838.48
598.17	2715.61
598.36	2672.60
598.56	2854.87
598.75	2703.32
598.94	2768.85
599.14	2678.74
599.33	2707.41
599.52	2957.27
599.71	2731.99
599.91	2715.61
600.10	2873.30
600.29	2820.05
600.48	2766.81
600.68	2791.38
600.87	2756.57
601.06	2629.59
601.26	2672.60
601.45	2680.79
601.64	2697.17
601.83	2947.03
602.03	2607.06
602.22	2473.95
602.41	2856.92
602.60	3088.34
602.80	2719.70
602.99	2779.09
603.18	2666.46
603.37	2731.99
603.57	2660.31
603.76	2764.76
603.95	2912.21
604.14	2619.35
604.34	2559.96
604.53	2625.50
604.72	2758.61
604.91	2832.34
605.10	2740.18
605.30	2488.28
605.49	2936.79
605.68	2758.61
605.87	2662.36
606.07	2588.63
606.26	2715.61
606.45	2775.00
606.64	2717.65
606.84	2600.92
607.03	2740.18
607.22	2861.01
607.41	2650.07
607.60	2611.16
607.80	2912.21
607.99	2723.80
608.18	2729.94
608.37	2633.69
608.56	2580.44
608.76	2926.55
608.95	2883.54
609.14	2723.80
609.33	2932.69
609.52	3016.66
609.72	2703.32
609.91	2752.47
610.10	2805.72
610.29	2967.51
610.48	2807.77
610.68	2781.14
610.87	2772.95
611.06	2760.66
611.25	2635.74
611.44	2791.38
611.63	2664.41
611.83	2957.27
612.02	2555.86
612.21	2818.00
612.40	2502.62
612.59	2461.66
612.79	2564.06
612.98	2750.42
613.17	2947.03
613.36	2852.82
613.55	2789.33
613.74	2676.70
613.93	2805.72
614.13	2809.81
614.32	2783.19
614.51	2750.42
614.70	2701.27
614.89	2754.52
615.08	2770.90
615.28	3092.43
615.47	2645.98
615.66	2797.53
615.85	2709.46
616.04	2838.48
616.23	2748.37
616.42	2658.26
616.62	2711.51
616.81	2672.60
617.00	2729.94
617.19	2781.14
617.38	2670.55
617.57	2688.98
617.76	2791.38
617.95	2938.84
618.15	2809.81
618.34	2877.40
618.53	2578.39
618.72	2803.67
618.91	2824.15
619.10	2758.61
619.29	2758.61
619.48	2748.37
619.68	2625.50
619.87	2645.98
620.06	2545.63
620.25	2869.20
620.44	2635.74
620.63	2619.35
620.82	2758.61
621.01	2703.32
621.20	2695.13
621.39	2707.41
621.59	2813.91
621.78	2738.13
621.97	2725.85
622.16	2809.81
622.35	2848.72
622.54	2850.77
622.73	2717.65
622.92	2486.23
623.11	2893.78
623.30	2658.26
623.49	2750.42
623.68	2525.15
623.88	2934.74
624.07	2662.36
624.26	2594.78
624.45	2627.54
624.64	2693.08
624.83	2764.76
625.02	2629.59
625.21	2641.88
625.40	2662.36
625.59	2938.84
625.78	2637.78
625.97	2789.33
626.16	2932.69
626.35	2877.40
626.54	2731.99
626.74	2852.82
626.93	2727.89
627.12	2772.95
627.31	2805.72
627.50	2725.85
627.69	2875.35
627.88	2637.78
628.07	2588.63
628.26	2406.36
628.45	2553.82
628.64	2576.34
628.83	2738.13
629.02	2535.39
629.21	2715.61
629.40	2803.67
629.59	2594.78
629.78	2639.83
629.97	2746.33
630.16	2695.13
630.35	2613.21
630.54	2625.50
630.73	2648.02
630.92	2783.19
631.11	2617.30
631.30	2705.37
631.49	2856.92
631.68	2746.33
631.87	2750.42
632.06	2578.39
632.25	3053.52
632.44	2793.43
632.63	2650.07
632.82	2701.27
633.01	2723.80
633.20	2764.76
633.39	2613.21
633.58	2506.71
633.77	2789.33
633.96	2805.72
634.15	2799.57
634.34	2688.98
634.53	2717.65
634.72	2691.03
634.91	2488.28
635.10	2750.42
635.29	2895.83
635.48	2670.55
635.67	2607.06
635.86	2510.81
636.05	2910.16
636.24	2736.09
636.43	2756.57
636.62	2813.91
636.81	2383.84
637.00	2693.08
637.19	2758.61
637.38	2609.11
637.57	2688.98
637.76	2758.61
637.95	2764.76
638.14	2658.26
638.33	2723.80
638.52	2754.52
638.71	2547.67
638.89	2562.01
639.08	3125.20
639.27	2959.31
639.46	2787.29
639.65	3151.82
639.84	3096.53
640.03	3348.43
640.22	3037.14
640.41	3102.67
640.60	2828.24
640.79	2850.77
640.98	2844.63
641.17	2842.58
641.36	2928.60
641.55	2865.11
641.74	2512.86
641.92	2617.30
642.11	2605.02
642.30	2645.98
642.49	2619.35
642.68	2545.63
642.87	2828.24
643.06	2818.00
643.25	2580.44
643.44	2521.05
643.63	2662.36
643.82	2891.73
644.00	2519.00
644.19	2637.78
644.38	2566.10
644.57	2824.15
644.76	2674.65
644.95	2684.89
645.14	2766.81
645.33	2707.41
645.52	2705.37
645.71	2461.66
645.89	2615.26
646.08	2691.03
646.27	2699.22
646.46	2873.30
646.65	2564.06
646.84	2758.61
647.03	2523.10
647.22	2785.24
647.40	2754.52
647.59	2703.32
647.78	2500.57
647.97	2607.06
648.16	2586.58
648.35	2838.48
648.54	2809.81
648.73	2613.21
648.91	2838.48
649.10	2756.57
649.29	2613.21
649.48	2617.30
649.67	2783.19
649.86	2729.94
650.05	2660.31
650.23	2789.33
650.42	2703.32
650.61	2877.40
650.80	2858.96
650.99	2965.46
651.18	2883.54
651.36	2875.35
651.55	2584.54
651.74	2744.28
651.93	2719.70
652.12	2648.02
652.31	2662.36
652.49	2670.55
652.68	2645.98
652.87	2916.31
653.06	2697.17
653.25	2826.20
653.44	2674.65
653.62	2912.21
653.81	2645.98
654.00	2678.74
654.19	2754.52
654.38	3125.20
654.56	2635.74
654.75	2605.02
654.94	2762.71
655.13	2676.70
655.32	2629.59
655.51	2678.74
655.69	2658.26
655.88	2840.53
656.07	2562.01
656.26	2721.75
656.45	2568.15
656.63	2670.55
656.82	2738.13
657.01	2805.72
657.20	2637.78
657.38	2955.22
657.57	2666.46
657.76	2521.05
657.95	2861.01
658.14	2633.69
658.32	2693.08
658.51	2619.35
658.70	2752.47
658.89	2652.12
659.08	2707.41
659.26	2875.35
659.45	2557.91
659.64	2881.49
659.83	2555.86
660.01	3037.14
660.20	2727.89
660.39	2965.46
660.58	2523.10
660.76	2760.66
660.95	2566.10
661.14	2744.28
661.33	2572.25
661.51	2658.26
661.70	2721.75
661.89	2772.95
662.08	2635.74
662.26	2428.89
662.45	2645.98
662.64	3047.38
662.83	2723.80
663.01	2496.47
663.20	2623.45
663.39	2953.17
663.58	2592.73
663.76	2570.20
663.95	2760.66
664.14	2566.10
664.32	2605.02
664.51	2502.62
664.70	2467.80
664.89	2775.00
665.07	2588.63
665.26	2791.38
665.45	2578.39
665.64	2736.09
665.82	2584.54
666.01	2713.56
666.20	2553.82
666.38	2785.24
666.57	2869.20
666.76	4296.64
666.95	9975.66
667.13	17061.63
667.32	21083.84
667.51	23950.99
667.69	25196.16
667.88	21431.99
668.07	15427.35
668.25	12916.54
668.44	11011.93
668.63	9617.26
668.81	8335.23
669.00	7190.42
669.19	6694.81
669.38	5808.04
669.56	4947.89
669.75	4261.82
669.94	3723.21
670.12	3311.57
670.31	3006.42
670.50	2971.60
670.68	2932.69
670.87	2824.15
671.06	2631.64
671.24	2805.72
671.43	2932.69
671.62	2744.28
671.80	2613.21
671.99	2719.70
672.18	2752.47
672.36	2795.48
672.55	2697.17
672.74	2707.41
672.92	2670.55
673.11	2863.06
673.29	2598.87
673.48	2807.77
673.67	2678.74
673.85	2869.20
674.04	2625.50
674.23	2680.79
674.41	2979.79
674.60	2650.07
674.79	2461.66
674.97	2519.00
675.16	2830.29
675.34	2836.44
675.53	2602.97
675.72	2648.02
675.90	3014.61
676.09	2678.74
676.28	2738.13
676.46	2547.67
676.65	2830.29
676.83	2607.06
677.02	2678.74
677.21	2707.41
677.39	2686.94
677.58	2625.50
677.77	2635.74
677.95	2562.01
678.14	2725.85
678.32	2607.06
678.51	2627.54
678.70	2971.60
678.88	2652.12
679.07	2703.32
679.25	2686.94
679.44	2717.65
679.63	2478.04
679.81	2762.71
680.00	2822.10
680.18	2674.65
680.37	2949.08
680.55	2707.41
680.74	2508.76
680.93	2396.12
681.11	2762.71
681.30	2813.91
681.48	2684.89
681.67	2695.13
681.85	2811.86
682.04	2674.65
682.23	2811.86
682.41	2789.33
682.60	2668.50
682.78	2654.17
682.97	2514.91
683.15	2650.07
683.34	2758.61
683.53	2967.51
683.71	2572.25
683.90	2795.48
684.08	2914.26
684.27	2693.08
684.45	2717.65
684.64	2789.33
684.82	2693.08
685.01	2744.28
685.19	2703.32
685.38	2818.00
685.57	2754.52
685.75	2660.31
685.94	2643.93
686.12	2494.43
686.31	2641.88
686.49	2944.98
686.68	2469.85
686.86	2666.46
687.05	2695.13
687.23	2883.54
687.42	2650.07
687.60	2398.17
687.79	2848.72
687.97	2949.08
688.16	2809.81
688.34	2783.19
688.53	2523.10
688.71	2805.72
688.90	2871.25
689.08	2678.74
689.27	2447.32
689.45	2904.02
689.64	2834.39
689.82	2650.07
690.01	2783.19
690.19	2754.52
690.38	2752.47
690.56	2746.33
690.75	2549.72
690.93	2611.16
691.12	2598.87
691.30	2662.36
691.49	2635.74
691.67	2605.02
691.86	2996.18
692.04	2637.78
692.23	2586.58
692.41	2725.85
692.60	3022.80
692.78	2865.11
692.97	2779.09
693.15	2840.53
693.34	2932.69
693.52	2807.77
693.71	2711.51
693.89	2660.31
694.08	2480.09
694.26	2756.57
694.44	2873.30
694.63	2842.58
694.81	2535.39
695.00	2592.73
695.18	2852.82
695.37	3035.09
695.55	2682.84
695.74	2678.74
695.92	2623.45
696.10	2908.12
696.29	2553.82
696.47	2627.54
696.66	2562.01
696.84	2605.02
697.03	2731.99
697.21	2949.08
697.40	4190.14
697.58	2949.08
697.76	2619.35
697.95	2617.30
698.13	2549.72
698.32	2748.37
698.50	2680.79
698.68	2746.33
698.87	2703.32
699.05	2938.84
699.24	2738.13
699.42	2570.20
699.61	2809.81
699.79	2688.98
699.97	2631.64
700.16	2529.24
700.34	2525.15
700.53	2672.60
700.71	2920.40
700.89	2744.28
701.08	2629.59
701.26	2680.79
701.45	3129.30
701.63	2602.97
701.81	2623.45
702.00	2600.92
702.18	2717.65
702.37	2600.92
702.55	2885.59
702.73	2856.92
702.92	2783.19
703.10	2893.78
703.28	2852.82
703.47	2695.13
703.65	2891.73
703.84	2777.05
704.02	2699.22
704.20	2942.93
704.39	2543.58
704.57	2615.26
704.75	2901.97
704.94	2787.29
705.12	2707.41
705.30	3102.67
705.49	5812.14
705.67	11943.75
705.86	17680.11
706.04	20340.43
706.22	22687.40
706.41	22402.73
706.59	17833.71
706.77	13397.81
706.96	11466.58
707.14	10477.41
707.32	9097.08
707.51	7954.31
707.69	6385.57
707.87	5375.92
708.06	4417.47
708.24	3827.65
708.42	3411.92
708.61	3426.25
708.79	2711.51
708.97	2691.03
709.16	2838.48
709.34	2719.70
709.52	2680.79
709.71	2633.69
709.89	2787.29
710.07	2572.25
710.26	2527.19
710.44	2641.88
710.62	2875.35
710.80	2654.17
710.99	2770.90
711.17	2719.70
711.35	2641.88
711.54	2633.69
711.72	2813.91
711.90	2703.32
712.09	2760.66
712.27	2613.21
712.45	2770.90
712.63	2676.70
712.82	2783.19
713.00	2674.65
713.18	2785.24
713.37	2797.53
713.55	2834.39
713.73	2752.47
713.91	2754.52
714.10	2619.35
714.28	2705.37
714.46	2801.62
714.65	2697.17
714.83	2697.17
715.01	2703.32
715.19	2699.22
715.38	2588.63
715.56	2691.03
715.74	2609.11
715.92	2547.67
716.11	2850.77
716.29	2392.03
716.47	2670.55
716.65	2746.33
716.84	2508.76
717.02	2760.66
717.20	2469.85
717.38	2594.78
717.57	2746.33
717.75	2672.60
717.93	2623.45
718.11	2746.33
718.30	2506.71
718.48	2666.46
718.66	2924.50
718.84	2873.30
719.03	2686.94
719.21	2592.73
719.39	2936.79
719.57	2789.33
719.75	2854.87
719.94	2557.91
720.12	2688.98
720.30	2693.08
720.48	2758.61
720.67	2559.96
720.85	2627.54
721.03	2701.27
721.21	2637.78
721.39	2822.10
721.58	2709.46
721.76	2656.22
721.94	2645.98
722.12	2691.03
722.30	2959.31
722.49	2602.97
722.67	2607.06
722.85	2688.98
723.03	2555.86
723.21	2641.88
723.40	2699.22
723.58	2815.96
723.76	2846.68
723.94	2867.16
724.12	2715.61
724.30	2766.81
724.49	2981.84
724.67	2559.96
724.85	2815.96
725.03	2539.48
725.21	2807.77
725.40	2832.34
725.58	2607.06
725.76	2904.02
725.94	2699.22
726.12	2529.24
726.30	2658.26
726.49	2658.26
726.67	2656.22
726.85	2762.71
727.03	3051.47
727.21	3981.25
727.39	5212.08
727.57	5652.39
727.76	5978.02
727.94	6211.49
728.12	5588.91
728.30	4626.36
728.48	4378.56
728.66	3885.00
728.84	3717.06
729.03	3305.42
729.21	3168.21
729.39	3020.75
729.57	2801.62
729.75	2820.05
729.93	2791.38
730.11	2576.34
730.30	2578.39
730.48	2699.22
730.66	2832.34
730.84	2754.52
731.02	2736.09
731.20	2621.40
731.38	2627.54
731.56	2645.98
731.74	2551.77
731.93	2803.67
732.11	2615.26
732.29	2693.08
732.47	2754.52
732.65	2787.29
732.83	2881.49
733.01	2746.33
733.19	2588.63
733.37	2777.05
733.56	2664.41
733.74	2611.16
733.92	2889.68
734.10	2619.35
734.28	2797.53
734.46	2533.34
734.64	2740.18
734.82	2674.65
735.00	2594.78
735.18	2641.88
735.36	2719.70
735.54	2707.41
735.73	2693.08
735.91	2799.57
736.09	2953.17
736.27	2777.05
736.45	2643.93
736.63	2412.51
736.81	2707.41
736.99	2858.96
737.17	2895.83
737.35	2666.46
737.53	2752.47
737.71	2715.61
737.89	2836.44
738.07	2590.68
738.25	2652.12
738.43	2584.54
738.61	2580.44
738.80	2463.71
738.98	2629.59
739.16	2602.97
739.34	2564.06
739.52	2842.58
739.70	2676.70
739.88	2775.00
740.06	2791.38
740.24	2394.08
740.42	2891.73
740.60	2457.56
740.78	2635.74
740.96	2412.51
741.14	2654.17
741.32	2760.66
741.50	2461.66
741.68	2955.22
741.86	2887.64
742.04	2572.25
742.22	2482.14
742.40	2695.13
742.58	2760.66
742.76	2615.26
742.94	2846.68
743.12	2473.95
743.30	2760.66
743.48	2848.72
743.66	2578.39
743.84	2672.60
744.02	2670.55
744.20	2639.83
744.38	2582.49
744.56	2529.24
744.74	2930.64
744.92	2813.91
745.10	2897.88
745.28	2668.50
745.46	2963.41
745.64	2578.39
745.82	2752.47
746.00	2635.74
746.18	2824.15
746.36	2621.40
746.54	2664.41
746.72	2613.21
746.90	2584.54
747.08	2850.77
747.26	2609.11
747.44	2684.89
747.62	2818.00
747.80	2750.42
747.98	2787.29
748.15	2625.50
748.33	2920.40
748.51	2645.98
748.69	2684.89
748.87	2529.24
749.05	2629.59
749.23	2666.46
749.41	2721.75
749.59	2602.97
749.77	2887.64
749.95	2627.54
750.13	2602.97
750.31	2731.99
750.49	2697.17
750.67	2779.09
750.85	2807.77
751.03	2672.60
751.20	3016.66
751.38	2678.74
751.56	2674.65
751.74	2621.40
751.92	2666.46
752.10	2600.92
752.28	2822.10
752.46	2566.10
752.64	2674.65
752.82	2652.12
753.00	2785.24
753.18	2555.86
753.35	2643.93
753.53	2680.79
753.71	2609.11
753.89	2725.85
754.07	2799.57
754.25	2867.16
754.43	2740.18
754.61	2521.05
754.79	2781.14
754.97	2629.59
755.14	2865.11
755.32	2568.15
755.50	2691.03
755.68	2775.00
755.86	2547.67
756.04	2617.30
756.22	2469.85
756.40	2861.01
756.57	2875.35
756.75	2607.06
756.93	2887.64
757.11	2820.05
757.29	2496.47
757.47	2559.96
757.65	2541.53
757.82	2301.92
758.00	2498.52
758.18	2598.87
758.36	2605.02
758.54	2912.21
758.72	2473.95
758.90	2736.09
759.07	2703.32
759.25	2566.10
759.43	2734.04
759.61	2496.47
759.79	3930.05
759.97	2832.34
760.15	2574.30
760.32	2670.55
760.50	2772.95
760.68	2942.93
760.86	2467.80
761.04	2852.82
761.22	2869.20
761.39	2781.14
761.57	2684.89
761.75	2605.02
761.93	2760.66
762.11	2656.22
762.28	2645.98
762.46	2527.19
762.64	2818.00
762.82	2465.75
763.00	2549.72
763.18	2848.72
763.35	2500.57
763.53	2826.20
763.71	2670.55
763.89	2678.74
764.07	2725.85
764.24	2643.93
764.42	2863.06
764.60	2635.74
764.78	2805.72
764.96	2797.53
765.13	2766.81
765.31	2621.40
765.49	2844.63
765.67	2562.01
765.84	2594.78
766.02	2521.05
766.20	2457.56
766.38	2703.32
766.56	2736.09
766.73	2746.33
766.91	2623.45
767.09	2723.80
767.27	2738.13
767.44	2564.06
767.62	2826.20
767.80	2705.37
767.98	2549.72
768.15	2580.44
768.33	2760.66
768.51	2807.77
768.69	2758.61
768.87	2756.57
769.04	2678.74
769.22	3192.78
769.40	2871.25
769.58	2791.38
769.75	2775.00
769.93	2824.15
770.11	2650.07
770.28	2523.10
770.46	2889.68
770.64	2736.09
770.82	2635.74
770.99	2605.02
771.17	2836.44
771.35	2697.17
771.53	2605.02
771.70	2635.74
771.88	2844.63
772.06	2711.51
772.23	2580.44
772.41	2686.94
772.59	2680.79
772.77	2478.04
772.94	2662.36
773.12	2670.55
773.30	2637.78
773.47	2707.41
773.65	2564.06
773.83	2818.00
774.01	2721.75
774.18	2430.94
774.36	2639.83
774.54	2559.96
774.71	2842.58
774.89	2473.95
775.07	2602.97
775.24	2584.54
775.42	2568.15
775.60	3014.61
775.78	2586.58
775.95	2537.43
776.13	2498.52
776.31	2486.23
776.48	2781.14
776.66	2783.19
776.84	2635.74
777.01	2596.82
777.19	2627.54
777.37	2506.71
777.54	2805.72
777.72	2967.51
777.90	2668.50
778.07	2514.91
778.25	3217.36
778.43	2865.11
778.60	2594.78
778.78	2719.70
778.96	2906.07
779.13	2516.95
779.31	2695.13
779.49	2707.41
779.66	2818.00
779.84	2686.94
780.01	2719.70
780.19	2598.87
780.37	2758.61
780.54	2781.14
780.72	2535.39
780.90	2574.30
781.07	2705.37
781.25	2615.26
781.43	2697.17
781.60	2666.46
781.78	2883.54
781.95	2719.70
782.13	2549.72
782.31	2719.70
782.48	2508.76
782.66	2748.37
782.83	2830.29
783.01	2695.13
783.19	2852.82
783.36	2770.90
783.54	2492.38
783.72	2736.09
783.89	2619.35
784.07	2785.24
784.24	2783.19
784.42	2818.00
784.60	2760.66
784.77	2723.80
784.95	2457.56
785.12	2641.88
785.30	2717.65
785.47	2629.59
785.65	2535.39
785.83	2660.31
786.00	2676.70
786.18	2658.26
786.35	2578.39
786.53	2578.39
786.71	2820.05
786.88	2850.77
787.06	2754.52
787.23	2719.70
787.41	2562.01
787.58	2695.13
787.76	2596.82
787.94	2715.61
788.11	2807.77
788.29	2529.24
788.46	2602.97
788.64	2510.81
788.81	2617.30
788.99	2576.34
789.16	2566.10
789.34	2748.37
789.52	2617.30
789.69	2670.55
789.87	2428.89
790.04	2631.64
790.22	2738.13
790.39	2959.31
790.57	2605.02
790.74	2551.77
790.92	2916.31
791.09	2498.52
791.27	2697.17
791.44	2766.81
791.62	2688.98
791.79	2822.10
791.97	2731.99
792.15	3037.14
792.32	2873.30
792.50	2777.05
792.67	2887.64
792.85	2820.05
793.02	2723.80
793.20	2568.15
793.37	2562.01
793.55	2566.10
793.72	2490.33
793.90	2871.25
794.07	2557.91
794.25	2570.20
794.42	2766.81
794.60	2678.74
794.77	2758.61
794.95	2731.99
795.12	2881.49
795.30	2699.22
795.47	2422.75
795.65	3041.23
795.82	2731.99
796.00	2668.50
796.17	2588.63
796.34	2615.26
796.52	2746.33
796.69	2834.39
796.87	2691.03
797.04	2727.89
797.22	2940.88
797.39	2629.59
797.57	2840.53
797.74	2717.65
797.92	2670.55
798.09	2631.64
798.27	2815.96
798.44	2645.98
798.62	2590.68
798.79	2654.17
798.96	2766.81
799.14	2721.75
799.31	3053.52
799.49	2619.35
799.66	2592.73
799.84	2652.12
800.01	2539.48
800.19	2795.48
800.36	2443.23
800.53	2691.03
800.71	2807.77
800.88	2928.60
801.06	2584.54
801.23	2584.54
801.41	2691.03
801.58	2731.99
801.75	2625.50
801.93	2674.65
802.10	2807.77
802.28	2701.27
802.45	2621.40
802.63	2760.66
802.80	2904.02
802.97	2623.45
803.15	2693.08
803.32	2678.74
803.50	2578.39
803.67	2637.78
803.84	2586.58
804.02	2666.46
804.19	2664.41
804.37	2412.51
804.54	2490.33
804.71	2635.74
804.89	2709.46
805.06	2582.49
805.24	2580.44
805.41	2539.48
805.58	2602.97
805.76	3096.53
805.93	2621.40
806.10	2801.62
806.28	2815.96
806.45	2793.43
806.63	2760.66
806.80	2709.46
806.97	2723.80
807.15	2748.37
807.32	2674.65
807.49	2674.65
807.67	2596.82
807.84	2750.42
808.01	2459.61
808.19	2863.06
808.36	3076.05
808.54	2703.32
808.71	2619.35
808.88	2736.09
809.06	2818.00
809.23	2961.36
809.40	2596.82
809.58	2658.26
809.75	2793.43
809.92	2559.96
810.10	2906.07
810.27	2668.50
810.44	2727.89
810.62	2838.48
810.79	2738.13
810.96	2666.46
811.14	2621.40
811.31	2711.51
811.48	2787.29
811.66	2729.94
811.83	2770.90
812.00	2756.57
812.18	2750.42
812.35	2867.16
812.52	2598.87
812.69	2695.13
812.87	2566.10
813.04	2586.58
813.21	2643.93
813.39	2588.63
813.56	2523.10
813.73	2752.47
813.91	2539.48
814.08	2662.36
814.25	2639.83
814.42	2504.67
814.60	2717.65
814.77	2727.89
814.94	2643.93
815.12	2711.51
815.29	2922.45
815.46	2684.89
815.63	2701.27
815.81	2650.07
815.98	2615.26
816.15	2715.61
816.33	2672.60
816.50	2609.11
816.67	2725.85
816.84	2674.65
817.02	2584.54
817.19	2629.59
817.36	2678.74
817.53	2758.61
817.71	2486.23
817.88	2717.65
818.05	2662.36
818.22	2656.22
818.40	2779.09
818.57	2658.26
818.74	2781.14
818.91	2787.29
819.09	2793.43
819.26	2756.57
819.43	2549.72
819.60	2633.69
819.78	2742.23
819.95	2754.52
820.12	2545.63
820.29	2848.72
820.47	2842.58
820.64	2516.95
820.81	2590.68
820.98	2566.10
821.15	2621.40
821.33	2744.28
821.50	2566.10
821.67	2801.62
821.84	2547.67
822.02	2645.98
822.19	2891.73
822.36	2625.50
822.53	2574.30
822.70	2635.74
822.88	2682.84
823.05	2869.20
823.22	2691.03
823.39	2674.65
823.56	2674.65
823.74	3061.71
823.91	2543.58
824.08	2531.29
824.25	2531.29
824.42	2932.69
824.60	2494.43
824.77	2678.74
824.94	2662.36
825.11	2729.94
825.28	2457.56
825.45	2734.04
825.63	2693.08
825.80	2580.44
825.97	2691.03
826.14	2650.07
826.31	2467.80
826.48	2840.53
826.66	2559.96
826.83	2629.59
827.00	2670.55
827.17	2615.26
827.34	2633.69
827.51	2498.52
827.69	2699.22
827.86	2529.24
828.03	2666.46
828.20	2725.85
828.37	2652.12
828.54	2791.38
828.71	2553.82
828.89	2752.47
829.06	2793.43
829.23	2865.11
829.40	2580.44
829.57	2617.30
829.74	2797.53
829.91	2650.07
830.09	2555.86
830.26	2676.70
830.43	3000.27
830.60	2684.89
830.77	2731.99
830.94	2799.57
831.11	2844.63
831.28	2670.55
831.46	2822.10
831.63	2590.68
831.80	2867.16
831.97	2547.67
832.14	2596.82
832.31	2719.70
832.48	2711.51
832.65	2906.07
832.82	2758.61
832.99	2650.07
833.17	2514.91
833.34	2875.35
833.51	2744.28
833.68	2480.09
833.85	2848.72
834.02	2559.96
834.19	2496.47
834.36	2631.64
834.53	2766.81
834.70	2807.77
834.87	2682.84
835.04	2500.57
835.22	2662.36
835.39	2656.22
835.56	2490.33
835.73	2576.34
835.90	2818.00
836.07	2586.58
836.24	2660.31
836.41	2539.48
836.58	2482.14
836.75	2891.73
836.92	2564.06
837.09	2555.86
837.26	2834.39
837.43	2713.56
837.60	2633.69
837.77	2564.06
837.94	2869.20
838.12	2871.25
838.29	2512.86
838.46	2484.19
838.63	2545.63
838.80	2912.21
838.97	2590.68
839.14	2555.86
839.31	2744.28
839.48	2854.87
839.65	2656.22
839.82	2697.17
839.99	2668.50
840.16	2772.95
840.33	2475.99
840.50	2576.34
840.67	2631.64
840.84	2389.98
841.01	2559.96
841.18	2562.01
841.35	2637.78
841.52	2766.81
841.69	2811.86
841.86	2664.41
842.03	2701.27
842.20	2832.34
842.37	2652.12
842.54	2582.49
842.71	2682.84
842.88	2523.10
843.05	2527.19
843.22	2549.72
843.39	2785.24
843.56	2660.31
843.73	2549.72
843.90	2605.02
844.07	2768.85
844.24	2832.34
844.41	2654.17
844.58	2682.84
844.75	2596.82
844.92	2762.71
845.09	2586.58
845.26	2506.71
845.43	2731.99
845.60	2658.26
845.77	2645.98
845.94	2623.45
846.10	2973.65
846.27	2535.39
846.44	2551.77
846.61	2457.56
846.78	2770.90
846.95	2846.68
847.12	2521.05
847.29	2545.63
847.46	2625.50
847.63	2871.25
847.80	2498.52
847.97	2596.82
848.14	3076.05
848.31	2736.09
848.48	2459.61
848.65	2654.17
848.82	2549.72
848.98	2992.08
849.15	2713.56
849.32	2672.60
849.49	2912.21
849.66	2650.07
849.83	2533.34
850.00	2465.75
850.17	2887.64
850.34	2666.46
850.51	2490.33
850.68	2529.24
850.85	3010.51
851.01	2795.48
851.18	2562.01
851.35	2611.16
851.52	2777.05
851.69	2914.26
851.86	2443.23
852.03	2523.10
852.20	2791.38
852.37	2789.33
852.53	2381.79
852.70	2566.10
852.87	2715.61
853.04	2805.72
853.21	2533.34
853.38	2691.03
853.55	2936.79
853.72	2877.40
853.89	2521.05
854.05	2510.81
854.22	2693.08
854.39	2770.90
854.56	2570.20
854.73	2680.79
854.90	2619.35
855.07	2744.28
855.23	2498.52
855.40	2545.63
855.57	2668.50
855.74	2426.84
855.91	2727.89
856.08	2469.85
856.25	2508.76
856.41	2670.55
856.58	2590.68
856.75	2547.67
856.92	2596.82
857.09	2781.14
857.26	2320.35
857.42	2605.02
857.59	2760.66
857.76	2650.07
857.93	2564.06
858.10	2627.54
858.27	2613.21
858.43	2688.98
858.60	2521.05
858.77	2426.84
858.94	2607.06
859.11	2854.87
859.27	2582.49
859.44	2602.97
859.61	2963.41
859.78	2797.53
859.95	2572.25
860.12	2529.24
860.28	3037.14
860.45	2969.55
860.62	2475.99
860.79	2641.88
860.95	2744.28
861.12	2617.30
861.29	2586.58
861.46	2555.86
861.63	2660.31
861.79	2809.81
861.96	2422.75
862.13	2598.87
862.30	2871.25
862.47	2643.93
862.63	2435.03
862.80	2588.63
862.97	2789.33
863.14	2762.71
863.30	2615.26
863.47	2537.43
863.64	2875.35
863.81	2754.52
863.97	2512.86
864.14	2609.11
864.31	2678.74
864.48	2750.42
864.65	2527.19
864.81	2635.74
864.98	2818.00
865.15	2852.82
865.32	2703.32
865.48	2615.26
865.65	2938.84
865.82	2643.93
865.98	2615.26
866.15	2588.63
866.32	2633.69
866.49	2545.63
866.65	2682.84
866.82	2543.58
866.99	2678.74
867.16	2686.94
867.32	2639.83
867.49	2533.34
867.66	2650.07
867.83	2654.17
867.99	2555.86
868.16	2502.62
868.33	2541.53
868.49	2709.46
868.66	2664.41
868.83	2662.36
868.99	2711.51
869.16	2674.65
869.33	2695.13
869.50	2678.74
869.66	2760.66
869.83	2633.69
870.00	2457.56
870.16	2680.79
870.33	2709.46
870.50	2760.66
870.66	2615.26
870.83	2607.06
871.00	2709.46
871.17	2766.81
871.33	2529.24
871.50	2637.78
871.67	2695.13
871.83	2519.00
872.00	2719.70
872.17	2584.54
872.33	3057.62
872.50	2799.57
872.67	2537.43
872.83	2607.06
873.00	2686.94
873.17	2768.85
873.33	2615.26
873.50	2516.95
873.67	2568.15
873.83	2643.93
874.00	2549.72
874.16	2650.07
874.33	2752.47
874.50	2535.39
874.66	2580.44
874.83	2617.30
875.00	2901.97
875.16	2875.35
875.33	2654.17
875.50	2359.26
875.66	2707.41
875.83	2750.42
875.99	2643.93
876.16	2654.17
876.33	2547.67
876.49	2678.74
876.66	2568.15
876.83	2570.20
876.99	2488.28
877.16	2727.89
877.32	2547.67
877.49	2598.87
877.66	2725.85
877.82	2891.73
877.99	2609.11
878.15	2824.15
878.32	2768.85
878.49	2711.51
878.65	2662.36
878.82	2748.37
878.98	2600.92
879.15	2772.95
879.32	2676.70
879.48	2660.31
879.65	2639.83
879.81	2748.37
879.98	2584.54
880.15	2674.65
880.31	2762.71
880.48	2602.97
880.64	2664.41
880.81	2650.07
880.97	2949.08
881.14	2887.64
881.31	2570.20
881.47	2752.47
881.64	2688.98
881.80	2398.17
881.97	2654.17
882.13	2555.86
882.30	2541.53
882.47	2535.39
882.63	2529.24
882.80	2545.63
882.96	2699.22
883.13	2881.49
883.29	2557.91
883.46	2635.74
883.62	2969.55
883.79	2756.57
883.95	2805.72
884.12	2539.48
884.29	2881.49
884.45	2750.42
884.62	2580.44
884.78	2545.63
884.95	3030.99
885.11	2570.20
885.28	2633.69
885.44	2480.09
885.61	2895.83
885.77	3004.37
885.94	2686.94
886.10	2605.02
886.27	2748.37
886.43	2897.88
886.60	2766.81
886.76	2580.44
886.93	2652.12
887.09	2738.13
887.26	2449.37
887.42	2537.43
887.59	2793.43
887.75	3018.71
887.92	2742.23
888.08	2609.11
888.25	2930.64
888.41	2807.77
888.58	2580.44
888.74	2508.76
888.91	2643.93
>>>>>End Processed Spectral Data<<<<<
