SpectraSuite Data File
++++++++++++++++++++++++++++++++++++
Date: Thu May 05 16:20:55 CEST 2016
User: root
Dark Spectrum Present: No
Reference Spectrum Present: No
Number of Sampled Component Spectra: 1
Spectrometers: USB4C02835
Integration Time (usec): 100000 (USB4C02835)
Spectra Averaged: 1 (USB4C02835)
Boxcar Smoothing: 0 (USB4C02835)
Correct for Electrical Dark: No (USB4C02835)
Strobe/Lamp Enabled: No (USB4C02835)
Correct for Detector Non-linearity: No (USB4C02835)
Correct for Stray Light: No (USB4C02835)
Number of Pixels in Processed Spectrum: 3648
>>>>>Begin Processed Spectral Data<<<<<
177.47	2039.78
177.69	2039.78
177.91	2039.78
178.13	2072.54
178.36	1949.67
178.58	2551.77
178.80	2719.70
179.02	2521.05
179.24	2623.45
179.46	2357.21
179.68	2506.71
179.90	2719.70
180.13	2738.13
180.35	2389.98
180.57	2480.09
180.79	2777.05
181.01	2738.13
181.23	2572.25
181.45	2648.02
181.67	2881.49
181.90	2922.45
182.12	2572.25
182.34	2396.12
182.56	2854.87
182.78	2820.05
183.00	2496.47
183.22	2551.77
183.44	2408.41
183.66	3076.05
183.89	2686.94
184.11	2494.43
184.33	2811.86
184.55	2906.07
184.77	2420.70
184.99	2525.15
185.21	2639.83
185.43	3063.76
185.65	2572.25
185.87	2430.94
186.10	2994.13
186.32	3039.19
186.54	2654.17
186.76	2621.40
186.98	2803.67
187.20	2727.89
187.42	2545.63
187.64	2535.39
187.86	2783.19
188.08	2854.87
188.30	2469.85
188.52	2641.88
188.75	2992.08
188.97	2861.01
189.19	2389.98
189.41	2435.03
189.63	2832.34
189.85	2676.70
190.07	2406.36
190.29	2369.50
190.51	2834.39
190.73	2541.53
190.95	2639.83
191.17	2555.86
191.39	2510.81
191.61	2660.31
191.84	2525.15
192.06	2645.98
192.28	2551.77
192.50	3137.49
192.72	2572.25
192.94	2596.82
193.16	2863.06
193.38	2775.00
193.60	2408.41
193.82	2617.30
194.04	2914.26
194.26	2850.77
194.48	2461.66
194.70	2541.53
194.92	2580.44
195.14	2744.28
195.36	2525.15
195.58	2547.67
195.80	2701.27
196.02	2559.96
196.24	2502.62
196.46	2574.30
196.69	2566.10
196.91	3108.82
197.13	2559.96
197.35	2512.86
197.57	2977.75
197.79	2783.19
198.01	2551.77
198.23	2535.39
198.45	2818.00
198.67	2525.15
198.89	2396.12
199.11	2619.35
199.33	2555.86
199.55	2416.60
199.77	2478.04
199.99	2672.60
200.21	2711.51
200.43	2815.96
200.65	2469.85
200.87	2428.89
201.09	2670.55
201.31	2734.04
201.53	2559.96
201.75	2625.50
201.97	2858.96
202.19	2705.37
202.41	2588.63
202.63	2731.99
202.85	2803.67
203.07	2734.04
203.29	2527.19
203.51	2394.08
203.73	2623.45
203.95	3112.91
204.17	2557.91
204.39	2637.78
204.61	2703.32
204.83	2623.45
205.05	2660.31
205.27	2676.70
205.49	3063.76
205.71	2783.19
205.93	2410.46
206.15	2502.62
206.37	2764.76
206.59	2750.42
206.81	2441.18
207.03	2430.94
207.25	2629.59
207.47	2785.24
207.69	2553.82
207.91	2783.19
208.13	2969.55
208.34	2555.86
208.56	2432.99
208.78	2465.75
209.00	2645.98
209.22	2662.36
209.44	2488.28
209.66	2527.19
209.88	2693.08
210.10	2660.31
210.32	2502.62
210.54	2576.34
210.76	2684.89
210.98	2852.82
211.20	2365.40
211.42	2621.40
211.64	2822.10
211.86	2826.20
212.08	2504.67
212.30	2516.95
212.52	2664.41
212.74	2746.33
212.96	2617.30
213.17	2559.96
213.39	2856.92
213.61	2865.11
213.83	2473.95
214.05	2377.69
214.27	2895.83
214.49	2576.34
214.71	2473.95
214.93	2643.93
215.15	2760.66
215.37	2772.95
215.59	2389.98
215.81	2607.06
216.03	2959.31
216.24	2783.19
216.46	2432.99
216.68	2535.39
216.90	2863.06
217.12	2842.58
217.34	2543.58
217.56	2686.94
217.78	2940.88
218.00	2723.80
218.22	2568.15
218.44	2598.87
218.66	2734.04
218.87	3028.95
219.09	2492.38
219.31	2527.19
219.53	2766.81
219.75	2662.36
219.97	2512.86
220.19	2531.29
220.41	2660.31
220.63	2940.88
220.85	2543.58
221.06	2514.91
221.28	2895.83
221.50	2822.10
221.72	2539.48
221.94	2496.47
222.16	2721.75
222.38	2848.72
222.60	2586.58
222.82	2553.82
223.03	2887.64
223.25	2463.71
223.47	2447.32
223.69	2734.04
223.91	2871.25
224.13	2699.22
224.35	2455.51
224.57	2686.94
224.78	2797.53
225.00	2602.97
225.22	2508.76
225.44	2428.89
225.66	2775.00
225.88	2701.27
226.10	2682.84
226.32	2496.47
226.53	2863.06
226.75	2672.60
226.97	2580.44
227.19	2537.43
227.41	2629.59
227.63	2633.69
227.85	2400.22
228.06	2607.06
228.28	2682.84
228.50	2834.39
228.72	2396.12
228.94	2506.71
229.16	2490.33
229.37	2633.69
229.59	2385.88
229.81	2680.79
230.03	2645.98
230.25	2555.86
230.47	2355.16
230.69	2498.52
230.90	2881.49
231.12	2566.10
231.34	2580.44
231.56	2611.16
231.78	2537.43
232.00	2801.62
232.21	2582.49
232.43	2529.24
232.65	2400.22
232.87	2750.42
233.09	2322.40
233.30	2435.03
233.52	2883.54
233.74	2744.28
233.96	2475.99
234.18	2639.83
234.40	2637.78
234.61	3114.96
234.83	2437.08
235.05	2389.98
235.27	3143.63
235.49	2897.88
235.70	2389.98
235.92	2613.21
236.14	2842.58
236.36	3069.91
236.58	2414.56
236.79	2605.02
237.01	2756.57
237.23	2691.03
237.45	2645.98
237.67	2519.00
237.88	2766.81
238.10	3057.62
238.32	2471.90
238.54	2502.62
238.76	2693.08
238.97	2605.02
239.19	2365.40
239.41	2641.88
239.63	2908.12
239.85	2695.13
240.06	2578.39
240.28	2516.95
240.50	2867.16
240.72	2705.37
240.93	2430.94
241.15	2570.20
241.37	2719.70
241.59	2918.36
241.81	2621.40
242.02	2521.05
242.24	2777.05
242.46	2836.44
242.68	2326.49
242.89	2473.95
243.11	2916.31
243.33	2709.46
243.55	2553.82
243.76	2498.52
243.98	2678.74
244.20	2709.46
244.42	2555.86
244.64	2592.73
244.85	2586.58
245.07	2590.68
245.29	2457.56
245.51	2580.44
245.72	2752.47
245.94	2828.24
246.16	2514.91
246.38	2613.21
246.59	2693.08
246.81	2594.78
247.03	2459.61
247.24	2432.99
247.46	2668.50
247.68	2793.43
247.90	2498.52
248.11	2557.91
248.33	2834.39
248.55	2701.27
248.77	2473.95
248.98	2639.83
249.20	3022.80
249.42	2785.24
249.64	2576.34
249.85	2490.33
250.07	2654.17
250.29	2801.62
250.50	2586.58
250.72	2447.32
250.94	2826.20
251.16	3065.81
251.37	2547.67
251.59	2582.49
251.81	2809.81
252.02	2990.03
252.24	2523.10
252.46	2645.98
252.68	2574.30
252.89	2615.26
253.11	2365.40
253.33	2641.88
253.54	2955.22
253.76	2545.63
253.98	2553.82
254.20	2508.76
254.41	2480.09
254.63	2686.94
254.85	2387.93
255.06	2605.02
255.28	2695.13
255.50	2705.37
255.71	2572.25
255.93	2351.07
256.15	2801.62
256.36	2754.52
256.58	2392.03
256.80	2529.24
257.02	2703.32
257.23	2731.99
257.45	2504.67
257.67	2660.31
257.88	2684.89
258.10	2748.37
258.32	2555.86
258.53	2568.15
258.75	2906.07
258.97	2553.82
259.18	2459.61
259.40	2516.95
259.62	2998.23
259.83	2957.27
260.05	2572.25
260.27	3194.83
260.48	2867.16
260.70	2580.44
260.92	2430.94
261.13	2516.95
261.35	2731.99
261.57	2865.11
261.78	2451.42
262.00	2512.86
262.22	2793.43
262.43	2580.44
262.65	2547.67
262.86	2559.96
263.08	3055.57
263.30	2775.00
263.51	2346.97
263.73	2387.93
263.95	2893.78
264.16	2574.30
264.38	2473.95
264.60	2547.67
264.81	2715.61
265.03	2871.25
265.25	2867.16
265.46	2543.58
265.68	2875.35
265.89	2830.29
266.11	2394.08
266.33	2551.77
266.54	2906.07
266.76	2805.72
266.98	2551.77
267.19	2643.93
267.41	2965.46
267.62	2699.22
267.84	2357.21
268.06	2557.91
268.27	2695.13
268.49	2805.72
268.70	2555.86
268.92	2559.96
269.14	2656.22
269.35	2633.69
269.57	2582.49
269.79	2570.20
270.00	2590.68
270.22	2908.12
270.43	2400.22
270.65	2367.45
270.87	2832.34
271.08	2852.82
271.30	2578.39
271.51	2523.10
271.73	2813.91
271.95	3030.99
272.16	2486.23
272.38	2605.02
272.59	2678.74
272.81	2811.86
273.02	2539.48
273.24	2580.44
273.46	2869.20
273.67	2506.71
273.89	2453.47
274.10	2527.19
274.32	2838.48
274.54	2723.80
274.75	2545.63
274.97	2600.92
275.18	2770.90
275.40	2918.36
275.61	2551.77
275.83	2682.84
276.05	2543.58
276.26	2691.03
276.48	2637.78
276.69	2590.68
276.91	2682.84
277.12	2850.77
277.34	2723.80
277.55	2682.84
277.77	2777.05
277.99	2686.94
278.20	2584.54
278.42	2555.86
278.63	2605.02
278.85	2705.37
279.06	2486.23
279.28	2596.82
279.49	2906.07
279.71	2713.56
279.93	2576.34
280.14	2611.16
280.36	2619.35
280.57	2791.38
280.79	2648.02
281.00	2494.43
281.22	2691.03
281.43	2818.00
281.65	2394.08
281.86	2605.02
282.08	2795.48
282.29	2951.12
282.51	2486.23
282.73	2500.57
282.94	2437.08
283.16	2834.39
283.37	2809.81
283.59	2615.26
283.80	2727.89
284.02	2711.51
284.23	2705.37
284.45	2650.07
284.66	2539.48
284.88	2621.40
285.09	2535.39
285.31	2668.50
285.52	2742.23
285.74	2557.91
285.95	2752.47
286.17	2631.64
286.38	2891.73
286.60	2596.82
286.81	2541.53
287.03	2625.50
287.24	2658.26
287.46	2783.19
287.67	2707.41
287.89	2783.19
288.10	2740.18
288.32	2748.37
288.53	2693.08
288.75	2656.22
288.96	2793.43
289.18	2584.54
289.39	2527.19
289.61	2686.94
289.82	3117.01
290.04	2936.79
290.25	2519.00
290.47	2650.07
290.68	2652.12
290.90	2822.10
291.11	2445.27
291.33	2736.09
291.54	2545.63
291.76	2588.63
291.97	2613.21
292.18	2748.37
292.40	2674.65
292.61	2699.22
292.83	2785.24
293.04	2607.06
293.26	2758.61
293.47	2697.17
293.69	2537.43
293.90	2572.25
294.12	2846.68
294.33	2660.31
294.55	2588.63
294.76	2725.85
294.97	2904.02
295.19	3004.37
295.40	2629.59
295.62	2635.74
295.83	2801.62
296.05	2588.63
296.26	2715.61
296.48	2582.49
296.69	2738.13
296.90	2793.43
297.12	2750.42
297.33	2742.23
297.55	2840.53
297.76	2842.58
297.98	2674.65
298.19	2662.36
298.41	2748.37
298.62	2539.48
298.83	2783.19
299.05	2656.22
299.26	2600.92
299.48	2600.92
299.69	2699.22
299.90	2643.93
300.12	2512.86
300.33	2846.68
300.55	2662.36
300.76	2627.54
300.98	2562.01
301.19	2797.53
301.40	2625.50
301.62	2553.82
301.83	2787.29
302.05	2740.18
302.26	2629.59
302.47	2676.70
302.69	2553.82
302.90	2703.32
303.12	2322.40
303.33	2787.29
303.54	2994.13
303.76	2600.92
303.97	2629.59
304.19	2805.72
304.40	2559.96
304.61	2846.68
304.83	2723.80
305.04	2719.70
305.26	2785.24
305.47	2684.89
305.68	2650.07
305.90	2482.14
306.11	2879.44
306.33	2625.50
306.54	2533.34
306.75	2539.48
306.97	2496.47
307.18	2594.78
307.39	2555.86
307.61	2654.17
307.82	2691.03
308.04	2801.62
308.25	2547.67
308.46	2697.17
308.68	2760.66
308.89	2711.51
309.10	2660.31
309.32	2652.12
309.53	2639.83
309.74	2795.48
309.96	2547.67
310.17	2707.41
310.39	2654.17
310.60	2840.53
310.81	2684.89
311.03	2506.71
311.24	2813.91
311.45	2637.78
311.67	2908.12
311.88	2734.04
312.09	2684.89
312.31	2682.84
312.52	2547.67
312.73	2527.19
312.95	2455.51
313.16	2543.58
313.37	2734.04
313.59	2701.27
313.80	2842.58
314.01	3045.33
314.23	2650.07
314.44	2588.63
314.65	2504.67
314.87	2531.29
315.08	2605.02
315.29	2625.50
315.51	2596.82
315.72	2504.67
315.93	2678.74
316.15	2691.03
316.36	2693.08
316.57	2742.23
316.79	2686.94
317.00	2619.35
317.21	2801.62
317.43	2559.96
317.64	2600.92
317.85	2523.10
318.07	2637.78
318.28	2586.58
318.49	2785.24
318.70	2822.10
318.92	2781.14
319.13	2781.14
319.34	2740.18
319.56	2658.26
319.77	2830.29
319.98	2883.54
320.20	2789.33
320.41	2695.13
320.62	2840.53
320.83	2582.49
321.05	2858.96
321.26	2676.70
321.47	2746.33
321.69	2930.64
321.90	2480.09
322.11	2537.43
322.32	2641.88
322.54	2940.88
322.75	2613.21
322.96	3209.17
323.18	2549.72
323.39	2496.47
323.60	2523.10
323.81	2693.08
324.03	2645.98
324.24	2682.84
324.45	2691.03
324.66	2600.92
324.88	2840.53
325.09	2887.64
325.30	2629.59
325.52	2615.26
325.73	2787.29
325.94	2584.54
326.15	2414.56
326.37	2566.10
326.58	2807.77
326.79	2996.18
327.00	2498.52
327.22	2650.07
327.43	2652.12
327.64	2572.25
327.85	2697.17
328.07	2658.26
328.28	2996.18
328.49	2635.74
328.70	2572.25
328.92	2672.60
329.13	2789.33
329.34	2832.34
329.55	2836.44
329.76	2793.43
329.98	2705.37
330.19	2899.92
330.40	2633.69
330.61	2688.98
330.83	2805.72
331.04	2564.06
331.25	2654.17
331.46	2607.06
331.68	2588.63
331.89	2850.77
332.10	2662.36
332.31	2484.19
332.52	2686.94
332.74	2973.65
332.95	2484.19
333.16	2650.07
333.37	2826.20
333.58	2656.22
333.80	2619.35
334.01	2488.28
334.22	2668.50
334.43	2617.30
334.64	2478.04
334.86	2467.80
335.07	2607.06
335.28	2908.12
335.49	2498.52
335.70	2676.70
335.92	2906.07
336.13	3106.77
336.34	2664.41
336.55	2637.78
336.76	2844.63
336.98	2342.88
337.19	2668.50
337.40	2729.94
337.61	3061.71
337.82	2559.96
338.04	2682.84
338.25	2389.98
338.46	2666.46
338.67	2686.94
338.88	2545.63
339.09	2547.67
339.31	2713.56
339.52	2594.78
339.73	2570.20
339.94	2635.74
340.15	2838.48
340.36	2676.70
340.58	2637.78
340.79	2525.15
341.00	2826.20
341.21	2494.43
341.42	2793.43
341.63	2613.21
341.85	2826.20
342.06	2793.43
342.27	2533.34
342.48	2711.51
342.69	2551.77
342.90	2807.77
343.12	2873.30
343.33	2539.48
343.54	2906.07
343.75	2863.06
343.96	2566.10
344.17	2543.58
344.38	2793.43
344.60	2596.82
344.81	2539.48
345.02	2609.11
345.23	2887.64
345.44	3000.27
345.65	2621.40
345.86	2629.59
346.07	2793.43
346.29	2590.68
346.50	2775.00
346.71	2691.03
346.92	2899.92
347.13	2996.18
347.34	2592.73
347.55	2557.91
347.76	2799.57
347.98	2504.67
348.19	2619.35
348.40	2826.20
348.61	2600.92
348.82	2949.08
349.03	2637.78
349.24	2492.38
349.45	3024.85
349.66	2445.27
349.88	2594.78
350.09	2523.10
350.30	2951.12
350.51	2852.82
350.72	2656.22
350.93	2629.59
351.14	2701.27
351.35	2760.66
351.56	2674.65
351.77	2635.74
351.99	2738.13
352.20	3000.27
352.41	2707.41
352.62	2506.71
352.83	2590.68
353.04	2701.27
353.25	2564.06
353.46	2619.35
353.67	2818.00
353.88	2443.23
354.09	2627.54
354.30	2645.98
354.52	2772.95
354.73	2648.02
354.94	2484.19
355.15	2590.68
355.36	2983.89
355.57	2629.59
355.78	2621.40
355.99	2549.72
356.20	2660.31
356.41	2955.22
356.62	2742.23
356.83	2613.21
357.04	2854.87
357.25	2506.71
357.46	2600.92
357.68	2467.80
357.89	2627.54
358.10	2701.27
358.31	2564.06
358.52	2617.30
358.73	2607.06
358.94	2582.49
359.15	2564.06
359.36	2662.36
359.57	2652.12
359.78	2678.74
359.99	2738.13
360.20	2498.52
360.41	2703.32
360.62	2834.39
360.83	2602.97
361.04	2602.97
361.25	2797.53
361.46	2936.79
361.67	2742.23
361.88	2676.70
362.09	2848.72
362.30	2793.43
362.51	2549.72
362.72	2648.02
362.93	2787.29
363.14	2744.28
363.35	2621.40
363.56	2506.71
363.78	2762.71
363.99	2858.96
364.20	2572.25
364.41	2719.70
364.62	2889.68
364.83	2676.70
365.04	2609.11
365.25	2584.54
365.46	3030.99
365.67	2592.73
365.88	2717.65
366.09	2584.54
366.30	2658.26
366.51	2715.61
366.72	2512.86
366.93	2578.39
367.14	2652.12
367.35	2906.07
367.56	2602.97
367.77	2775.00
367.98	2654.17
368.18	2760.66
368.39	2695.13
368.60	2549.72
368.81	2832.34
369.02	2695.13
369.23	2617.30
369.44	2451.42
369.65	2566.10
369.86	2805.72
370.07	2777.05
370.28	2605.02
370.49	2785.24
370.70	2795.48
370.91	2539.48
371.12	2467.80
371.33	2875.35
371.54	2662.36
371.75	2725.85
371.96	2375.64
372.17	2791.38
372.38	2758.61
372.59	2641.88
372.80	2613.21
373.01	2678.74
373.22	2717.65
373.43	2576.34
373.64	2467.80
373.85	2842.58
374.06	3039.19
374.26	2795.48
374.47	2723.80
374.68	2850.77
374.89	2734.04
375.10	2529.24
375.31	2635.74
375.52	2795.48
375.73	2711.51
375.94	2539.48
376.15	2787.29
376.36	2619.35
376.57	2621.40
376.78	2613.21
376.99	2666.46
377.20	2899.92
377.40	2623.45
377.61	2906.07
377.82	2498.52
378.03	2969.55
378.24	2842.58
378.45	2725.85
378.66	2682.84
378.87	2484.19
379.08	2547.67
379.29	2549.72
379.50	2750.42
379.71	2715.61
379.91	2799.57
380.12	2549.72
380.33	2607.06
380.54	2711.51
380.75	2707.41
380.96	2635.74
381.17	2662.36
381.38	2695.13
381.59	2750.42
381.80	2574.30
382.00	2793.43
382.21	2746.33
382.42	3043.28
382.63	2938.84
382.84	2719.70
383.05	2822.10
383.26	2996.18
383.47	2637.78
383.68	2592.73
383.88	2928.60
384.09	2719.70
384.30	2873.30
384.51	2746.33
384.72	2625.50
384.93	2539.48
385.14	2721.75
385.35	2693.08
385.55	2619.35
385.76	2863.06
385.97	2555.86
386.18	2496.47
386.39	2674.65
386.60	2721.75
386.81	2564.06
387.02	2486.23
387.22	2545.63
387.43	2787.29
387.64	2719.70
387.85	2799.57
388.06	2775.00
388.27	4050.88
388.48	7421.84
388.68	11077.46
388.89	13557.55
389.10	14556.96
389.31	13840.17
389.52	11190.10
389.73	9525.10
389.93	8638.33
390.14	7956.36
390.35	7167.89
390.56	6492.06
390.77	5267.38
390.98	4102.08
391.18	3393.48
391.39	3174.35
391.60	2811.86
391.81	2840.53
392.02	2650.07
392.23	3057.62
392.43	2697.17
392.64	2809.81
392.85	2691.03
393.06	2891.73
393.27	2695.13
393.47	2506.71
393.68	2674.65
393.89	2662.36
394.10	2961.36
394.31	2576.34
394.52	2570.20
394.72	2631.64
394.93	2959.31
395.14	2535.39
395.35	2742.23
395.56	2625.50
395.76	2691.03
395.97	2688.98
396.18	2725.85
396.39	2744.28
396.60	3243.98
396.80	2936.79
397.01	2842.58
397.22	2858.96
397.43	2996.18
397.64	2609.11
397.84	2715.61
398.05	3063.76
398.26	2660.31
398.47	2740.18
398.67	2783.19
398.88	2713.56
399.09	2793.43
399.30	2562.01
399.51	2645.98
399.71	2600.92
399.92	2738.13
400.13	2693.08
400.34	2695.13
400.54	2754.52
400.75	2863.06
400.96	2625.50
401.17	2899.92
401.37	2799.57
401.58	2684.89
401.79	2572.25
402.00	2760.66
402.21	3164.11
402.41	2920.40
402.62	2926.55
402.83	2967.51
403.04	3082.19
403.24	3274.70
403.45	2791.38
403.66	2895.83
403.87	2918.36
404.07	2994.13
404.28	2918.36
404.49	2891.73
404.70	2803.67
404.90	2893.78
405.11	2629.59
405.32	2781.14
405.52	2578.39
405.73	2623.45
405.94	2572.25
406.15	2643.93
406.35	2850.77
406.56	2848.72
406.77	2682.84
406.98	2645.98
407.18	2629.59
407.39	2854.87
407.60	2695.13
407.80	2723.80
408.01	2623.45
408.22	2807.77
408.43	2539.48
408.63	2721.75
408.84	2959.31
409.05	2889.68
409.25	2514.91
409.46	2600.92
409.67	2668.50
409.88	2607.06
410.08	2701.27
410.29	2613.21
410.50	2873.30
410.70	2869.20
410.91	2527.19
411.12	2740.18
411.32	2717.65
411.53	2615.26
411.74	2660.31
411.95	2789.33
412.15	2752.47
412.36	2852.82
412.57	2738.13
412.77	2803.67
412.98	2703.32
413.19	2582.49
413.39	2695.13
413.60	2662.36
413.81	2916.31
414.01	2621.40
414.22	2748.37
414.43	2727.89
414.63	2613.21
414.84	2912.21
415.05	2617.30
415.25	2498.52
415.46	2824.15
415.67	2660.31
415.87	2641.88
416.08	2584.54
416.29	2625.50
416.49	2775.00
416.70	2600.92
416.91	2596.82
417.11	2662.36
417.32	2895.83
417.53	2848.72
417.73	2801.62
417.94	2719.70
418.15	2725.85
418.35	2613.21
418.56	2693.08
418.77	3020.75
418.97	2768.85
419.18	2693.08
419.38	2385.88
419.59	2768.85
419.80	2996.18
420.00	2627.54
420.21	2684.89
420.42	2940.88
420.62	2807.77
420.83	2574.30
421.04	2666.46
421.24	2674.65
421.45	2854.87
421.65	2648.02
421.86	2650.07
422.07	2838.48
422.27	2738.13
422.48	2643.93
422.69	2531.29
422.89	2635.74
423.10	2707.41
423.30	2500.57
423.51	2697.17
423.72	2760.66
423.92	2811.86
424.13	2502.62
424.33	2621.40
424.54	2783.19
424.75	2734.04
424.95	2762.71
425.16	2645.98
425.36	2785.24
425.57	2811.86
425.78	2815.96
425.98	2781.14
426.19	2609.11
426.39	2607.06
426.60	2740.18
426.81	2762.71
427.01	2801.62
427.22	2617.30
427.42	2494.43
427.63	2609.11
427.83	2877.40
428.04	2899.92
428.25	2742.23
428.45	2672.60
428.66	2793.43
428.86	2715.61
429.07	2652.12
429.28	2609.11
429.48	2752.47
429.69	2621.40
429.89	2756.57
430.10	2559.96
430.30	2848.72
430.51	2824.15
430.71	2586.58
430.92	2648.02
431.13	2643.93
431.33	2795.48
431.54	2723.80
431.74	2910.16
431.95	2979.79
432.15	2576.34
432.36	2668.50
432.56	2729.94
432.77	3039.19
432.98	2922.45
433.18	2813.91
433.39	2562.01
433.59	2717.65
433.80	2998.23
434.00	2881.49
434.21	2723.80
434.41	2543.58
434.62	3033.04
434.82	2435.03
435.03	2559.96
435.23	2781.14
435.44	2465.75
435.64	2629.59
435.85	2697.17
436.06	2785.24
436.26	2961.36
436.47	2656.22
436.67	2598.87
436.88	2670.55
437.08	2834.39
437.29	2879.44
437.49	2801.62
437.70	2846.68
437.90	2797.53
438.11	2910.16
438.31	2740.18
438.52	2990.03
438.72	2906.07
438.93	2908.12
439.13	2703.32
439.34	2901.97
439.54	2691.03
439.75	2770.90
439.95	2713.56
440.16	2639.83
440.36	2752.47
440.57	2656.22
440.77	2693.08
440.98	2686.94
441.18	2793.43
441.39	2547.67
441.59	2539.48
441.80	3043.28
442.00	2711.51
442.21	2734.04
442.41	2578.39
442.62	2920.40
442.82	2619.35
443.02	2662.36
443.23	2707.41
443.43	2658.26
443.64	2924.50
443.84	2545.63
444.05	2707.41
444.25	2785.24
444.46	2750.42
444.66	2592.73
444.87	2848.72
445.07	2480.09
445.28	2676.70
445.48	2791.38
445.69	2736.09
445.89	3157.97
446.09	2693.08
446.30	2951.12
446.50	3051.47
446.71	4544.44
446.91	5754.79
447.12	6444.96
447.32	6879.13
447.53	6596.51
447.73	5463.98
447.93	4747.19
448.14	4513.72
448.34	4407.23
448.55	3936.20
448.75	3805.13
448.96	3565.51
449.16	3364.81
449.36	3248.08
449.57	2963.41
449.77	2748.37
449.98	2643.93
450.18	2854.87
450.39	2678.74
450.59	2736.09
450.79	2703.32
451.00	2658.26
451.20	2785.24
451.41	2621.40
451.61	2785.24
451.81	2744.28
452.02	2645.98
452.22	2656.22
452.43	2670.55
452.63	2605.02
452.84	2736.09
453.04	2594.78
453.24	2836.44
453.45	2662.36
453.65	2662.36
453.86	2678.74
454.06	2820.05
454.26	2703.32
454.47	2521.05
454.67	2844.63
454.87	2809.81
455.08	2680.79
455.28	2791.38
455.49	2766.81
455.69	2615.26
455.89	3012.56
456.10	2729.94
456.30	2623.45
456.51	2844.63
456.71	2678.74
456.91	2699.22
457.12	2676.70
457.32	2838.48
457.52	2584.54
457.73	2777.05
457.93	2764.76
458.14	2635.74
458.34	2424.80
458.54	2625.50
458.75	2658.26
458.95	2791.38
459.15	2789.33
459.36	2598.87
459.56	2713.56
459.76	3074.00
459.97	2781.14
460.17	2635.74
460.37	2758.61
460.58	2676.70
460.78	2799.57
460.99	2639.83
461.19	2623.45
461.39	2590.68
461.60	2740.18
461.80	2684.89
462.00	2500.57
462.21	2805.72
462.41	2594.78
462.61	2539.48
462.82	2373.60
463.02	2832.34
463.22	2756.57
463.43	2719.70
463.63	2578.39
463.83	2871.25
464.04	2807.77
464.24	2639.83
464.44	2586.58
464.64	2709.46
464.85	2801.62
465.05	2682.84
465.25	2605.02
465.46	2676.70
465.66	2861.01
465.86	2754.52
466.07	2619.35
466.27	2713.56
466.47	2553.82
466.68	2484.19
466.88	2889.68
467.08	2815.96
467.29	2834.39
467.49	2656.22
467.69	2676.70
467.89	2777.05
468.10	2699.22
468.30	2627.54
468.50	2789.33
468.71	2832.34
468.91	2525.15
469.11	2807.77
469.31	2701.27
469.52	2592.73
469.72	2969.55
469.92	2969.55
470.13	2731.99
470.33	2699.22
470.53	2807.77
470.73	2979.79
470.94	3276.75
471.14	3340.24
471.34	3760.07
471.54	3629.00
471.75	3307.47
471.95	3139.54
472.15	3098.58
472.36	3117.01
472.56	2996.18
472.76	3186.64
472.96	2979.79
473.17	2944.98
473.37	2885.59
473.57	2697.17
473.77	2813.91
473.98	2672.60
474.18	2572.25
474.38	3157.97
474.58	2648.02
474.79	2588.63
474.99	2750.42
475.19	2842.58
475.39	2576.34
475.60	2750.42
475.80	2707.41
476.00	2760.66
476.20	2666.46
476.41	2670.55
476.61	2793.43
476.81	2897.88
477.01	2625.50
477.21	2879.44
477.42	2750.42
477.62	2594.78
477.82	2877.40
478.02	2572.25
478.23	2709.46
478.43	2633.69
478.63	2650.07
478.83	2703.32
479.03	2609.11
479.24	2807.77
479.44	3071.95
479.64	2594.78
479.84	2475.99
480.04	2645.98
480.25	2807.77
480.45	2607.06
480.65	2740.18
480.85	2940.88
481.06	2621.40
481.26	2721.75
481.46	2711.51
481.66	2783.19
481.86	2576.34
482.06	2897.88
482.27	2703.32
482.47	2695.13
482.67	2838.48
482.87	2586.58
483.07	2711.51
483.28	2580.44
483.48	2580.44
483.68	2672.60
483.88	2516.95
484.08	2459.61
484.29	2543.58
484.49	2744.28
484.69	2492.38
484.89	3022.80
485.09	2809.81
485.29	2680.79
485.50	2736.09
485.70	2629.59
485.90	2936.79
486.10	2731.99
486.30	2658.26
486.50	2895.83
486.71	2643.93
486.91	2775.00
487.11	2842.58
487.31	2502.62
487.51	2807.77
487.71	2619.35
487.91	2539.48
488.12	2602.97
488.32	2400.22
488.52	2545.63
488.72	2365.40
488.92	2768.85
489.12	2875.35
489.32	2764.76
489.53	2723.80
489.73	2482.14
489.93	2979.79
490.13	2598.87
490.33	2500.57
490.53	2731.99
490.73	2897.88
490.94	2502.62
491.14	2785.24
491.34	2887.64
491.54	2963.41
491.74	3512.27
491.94	4093.89
492.14	4454.33
492.34	4530.11
492.54	4163.52
492.75	3530.70
492.95	3719.11
493.15	3389.39
493.35	3313.61
493.55	3182.54
493.75	3129.30
493.95	3233.74
494.15	2947.03
494.35	2709.46
494.56	2736.09
494.76	2668.50
494.96	2799.57
495.16	2664.41
495.36	2719.70
495.56	2719.70
495.76	2719.70
495.96	2596.82
496.16	2592.73
496.36	3059.67
496.56	2619.35
496.77	2678.74
496.97	2682.84
497.17	2873.30
497.37	2541.53
497.57	2719.70
497.77	2748.37
497.97	2625.50
498.17	2699.22
498.37	2635.74
498.57	2828.24
498.77	2666.46
498.97	2715.61
499.17	2924.50
499.38	2650.07
499.58	2811.86
499.78	2709.46
499.98	2772.95
500.18	2660.31
500.38	2660.31
500.58	2858.96
500.78	3235.79
500.98	5396.40
501.18	7249.81
501.38	8683.39
501.58	9619.31
501.78	9432.94
501.98	7786.38
502.18	6703.00
502.38	5593.00
502.58	5363.63
502.78	4868.02
502.98	4675.51
503.18	4358.08
503.38	4095.94
503.59	3618.76
503.79	3416.01
503.99	3213.26
504.19	3129.30
504.39	3227.60
504.59	3147.73
504.79	3030.99
504.99	3166.16
505.19	2887.64
505.39	2867.16
505.59	2969.55
505.79	3051.47
505.99	2901.97
506.19	2729.94
506.39	2865.11
506.59	2703.32
506.79	2686.94
506.99	2826.20
507.19	2650.07
507.39	2760.66
507.59	2551.77
507.79	2584.54
507.99	2557.91
508.19	2711.51
508.39	2592.73
508.59	2717.65
508.79	2725.85
508.99	3061.71
509.19	2686.94
509.39	2785.24
509.59	2580.44
509.79	2537.43
509.99	2748.37
510.19	2768.85
510.39	2797.53
510.59	2680.79
510.79	2697.17
510.99	2539.48
511.19	2633.69
511.39	2906.07
511.59	2944.98
511.79	2705.37
511.99	2582.49
512.19	2983.89
512.38	2766.81
512.58	2584.54
512.78	2602.97
512.98	2912.21
513.18	3016.66
513.38	2475.99
513.58	2721.75
513.78	2629.59
513.98	2658.26
514.18	2602.97
514.38	2645.98
514.58	2701.27
514.78	2592.73
514.98	2539.48
515.18	2643.93
515.38	2547.67
515.58	2889.68
515.78	2662.36
515.98	2664.41
516.18	2775.00
516.38	2701.27
516.57	2605.02
516.77	2654.17
516.97	2820.05
517.17	2639.83
517.37	2531.29
517.57	2637.78
517.77	2680.79
517.97	2609.11
518.17	2744.28
518.37	2480.09
518.57	2637.78
518.77	2641.88
518.97	2602.97
519.16	2668.50
519.36	2871.25
519.56	2711.51
519.76	2635.74
519.96	2570.20
520.16	2889.68
520.36	2584.54
520.56	2818.00
520.76	2557.91
520.96	2736.09
521.16	2883.54
521.35	2838.48
521.55	2850.77
521.75	2670.55
521.95	2666.46
522.15	2576.34
522.35	2516.95
522.55	2559.96
522.75	2772.95
522.95	2537.43
523.14	2564.06
523.34	2820.05
523.54	2629.59
523.74	2803.67
523.94	2688.98
524.14	2512.86
524.34	2754.52
524.54	2871.25
524.73	2586.58
524.93	2797.53
525.13	2734.04
525.33	2471.90
525.53	2871.25
525.73	2830.29
525.93	2729.94
526.13	2635.74
526.32	2596.82
526.52	2906.07
526.72	2871.25
526.92	2576.34
527.12	2562.01
527.32	2512.86
527.52	2783.19
527.71	2721.75
527.91	2635.74
528.11	2555.86
528.31	2602.97
528.51	2547.67
528.71	2869.20
528.90	2744.28
529.10	2918.36
529.30	2748.37
529.50	2469.85
529.70	2789.33
529.90	2727.89
530.09	2631.64
530.29	2535.39
530.49	2564.06
530.69	3186.64
530.89	2711.51
531.09	2760.66
531.28	2637.78
531.48	2891.73
531.68	2707.41
531.88	2697.17
532.08	2858.96
532.28	2695.13
532.47	2768.85
532.67	2785.24
532.87	2856.92
533.07	2557.91
533.27	2752.47
533.46	2641.88
533.66	2824.15
533.86	2717.65
534.06	2629.59
534.26	2684.89
534.45	2768.85
534.65	2881.49
534.85	2731.99
535.05	2555.86
535.25	2867.16
535.44	2475.99
535.64	2799.57
535.84	2652.12
536.04	2623.45
536.24	2713.56
536.43	2605.02
536.63	2643.93
536.83	2750.42
537.03	2715.61
537.22	2432.99
537.42	2449.37
537.62	2697.17
537.82	2588.63
538.02	2856.92
538.21	2721.75
538.41	3084.24
538.61	2873.30
538.81	2639.83
539.00	2729.94
539.20	2506.71
539.40	2639.83
539.60	2652.12
539.79	2881.49
539.99	2680.79
540.19	2602.97
540.39	2623.45
540.58	2670.55
540.78	2842.58
540.98	2770.90
541.18	2785.24
541.37	2750.42
541.57	2664.41
541.77	2830.29
541.97	2594.78
542.16	2465.75
542.36	2688.98
542.56	2719.70
542.76	2904.02
542.95	2752.47
543.15	2832.34
543.35	2830.29
543.54	2572.25
543.74	2576.34
543.94	2912.21
544.14	2676.70
544.33	2789.33
544.53	2707.41
544.73	2695.13
544.93	2594.78
545.12	2668.50
545.32	2635.74
545.52	2643.93
545.71	2605.02
545.91	2662.36
546.11	2586.58
546.30	2643.93
546.50	2654.17
546.70	2715.61
546.90	2578.39
547.09	2465.75
547.29	2715.61
547.49	2719.70
547.68	2637.78
547.88	2666.46
548.08	2824.15
548.27	3129.30
548.47	2613.21
548.67	2580.44
548.87	2854.87
549.06	2654.17
549.26	2688.98
549.46	2807.77
549.65	2650.07
549.85	2791.38
550.05	2670.55
550.24	2531.29
550.44	2717.65
550.64	2707.41
550.83	2656.22
551.03	2961.36
551.23	2826.20
551.42	2686.94
551.62	2639.83
551.82	2760.66
552.01	2674.65
552.21	2867.16
552.41	2703.32
552.60	2863.06
552.80	2768.85
553.00	2613.21
553.19	2631.64
553.39	3026.90
553.59	2496.47
553.78	2719.70
553.98	2613.21
554.17	2566.10
554.37	2705.37
554.57	2723.80
554.76	2568.15
554.96	2605.02
555.16	2758.61
555.35	2727.89
555.55	2715.61
555.75	2715.61
555.94	2928.60
556.14	2494.43
556.33	2750.42
556.53	2701.27
556.73	2693.08
556.92	2742.23
557.12	2772.95
557.32	2971.60
557.51	2936.79
557.71	2660.31
557.90	2777.05
558.10	2910.16
558.30	2664.41
558.49	2637.78
558.69	2635.74
558.88	2818.00
559.08	2760.66
559.28	2736.09
559.47	2701.27
559.67	2818.00
559.86	2963.41
560.06	2666.46
560.26	2611.16
560.45	2830.29
560.65	2772.95
560.84	2865.11
561.04	2650.07
561.24	2838.48
561.43	2547.67
561.63	2873.30
561.82	2725.85
562.02	2764.76
562.22	2594.78
562.41	2535.39
562.61	2543.58
562.80	2574.30
563.00	2938.84
563.19	2742.23
563.39	2707.41
563.59	2818.00
563.78	2617.30
563.98	2441.18
564.17	2572.25
564.37	2490.33
564.56	2688.98
564.76	2531.29
564.96	2729.94
565.15	2713.56
565.35	3155.92
565.54	2725.85
565.74	2629.59
565.93	2799.57
566.13	2781.14
566.32	2779.09
566.52	2830.29
566.71	2725.85
566.91	2842.58
567.11	2785.24
567.30	2531.29
567.50	2809.81
567.69	2748.37
567.89	2627.54
568.08	2461.66
568.28	2801.62
568.47	2598.87
568.67	2598.87
568.86	2648.02
569.06	2787.29
569.25	2674.65
569.45	2535.39
569.64	2598.87
569.84	2627.54
570.04	2801.62
570.23	2572.25
570.43	2545.63
570.62	2734.04
570.82	2965.46
571.01	2527.19
571.21	2576.34
571.40	2670.55
571.60	2824.15
571.79	2713.56
571.99	2629.59
572.18	2553.82
572.38	2787.29
572.57	2613.21
572.77	2697.17
572.96	3123.15
573.16	2793.43
573.35	2656.22
573.55	2772.95
573.74	2879.44
573.94	2648.02
574.13	2703.32
574.33	2781.14
574.52	2891.73
574.71	2742.23
574.91	2721.75
575.10	2527.19
575.30	2658.26
575.49	2592.73
575.69	2607.06
575.88	2668.50
576.08	2676.70
576.27	2904.02
576.47	2627.54
576.66	2844.63
576.86	2990.03
577.05	2768.85
577.25	2750.42
577.44	2895.83
577.64	2715.61
577.83	2881.49
578.02	2633.69
578.22	2883.54
578.41	2920.40
578.61	2666.46
578.80	2600.92
579.00	2697.17
579.19	2799.57
579.39	2805.72
579.58	2822.10
579.77	2615.26
579.97	2940.88
580.16	2916.31
580.36	2744.28
580.55	2789.33
580.75	2717.65
580.94	2781.14
581.13	2838.48
581.33	2840.53
581.52	2717.65
581.72	3102.67
581.91	2813.91
582.11	2709.46
582.30	2932.69
582.49	2783.19
582.69	2893.78
582.88	2682.84
583.08	2777.05
583.27	2842.58
583.47	2795.48
583.66	2605.02
583.85	2666.46
584.05	2721.75
584.24	2826.20
584.44	2678.74
584.63	2899.92
584.82	2965.46
585.02	2873.30
585.21	2801.62
585.41	2906.07
585.60	2854.87
585.79	3039.19
585.99	2924.50
586.18	2756.57
586.37	3600.33
586.57	5599.15
586.76	16002.83
586.96	35505.63
587.15	48758.04
587.34	57552.02
587.54	61449.30
587.73	54983.86
587.93	39073.20
588.12	29525.57
588.31	23942.80
588.51	21229.24
588.70	19582.68
588.89	17350.39
589.09	14589.73
589.28	12740.41
589.47	9838.44
589.67	7540.62
589.86	6018.98
590.06	4540.35
590.25	3864.52
590.44	3444.68
590.64	2979.79
590.83	3000.27
591.02	2963.41
591.22	2740.18
591.41	2797.53
591.60	2723.80
591.80	3174.35
591.99	2557.91
592.18	2629.59
592.38	2916.31
592.57	2648.02
592.76	2725.85
592.96	2775.00
593.15	2731.99
593.34	2830.29
593.54	2613.21
593.73	2910.16
593.92	2897.88
594.12	2840.53
594.31	2824.15
594.50	2805.72
594.70	2904.02
594.89	3198.93
595.08	2519.00
595.28	2768.85
595.47	3211.22
595.66	2901.97
595.86	2617.30
596.05	2619.35
596.24	2684.89
596.43	3061.71
596.63	2826.20
596.82	2834.39
597.01	2772.95
597.21	3037.14
597.40	2686.94
597.59	2703.32
597.79	2719.70
597.98	2867.16
598.17	2699.22
598.36	2736.09
598.56	2883.54
598.75	2678.74
598.94	2715.61
599.14	2721.75
599.33	2721.75
599.52	2820.05
599.71	2768.85
599.91	2785.24
600.10	2799.57
600.29	2787.29
600.48	2699.22
600.68	2809.81
600.87	2815.96
601.06	2674.65
601.26	2688.98
601.45	2785.24
601.64	2650.07
601.83	2994.13
602.03	2633.69
602.22	2539.48
602.41	2922.45
602.60	3174.35
602.80	2709.46
602.99	2793.43
603.18	2588.63
603.37	2756.57
603.57	2656.22
603.76	2664.41
603.95	2957.27
604.14	2596.82
604.34	2504.67
604.53	2652.12
604.72	2781.14
604.91	2844.63
605.10	2717.65
605.30	2531.29
605.49	3110.86
605.68	2805.72
605.87	2705.37
606.07	2570.20
606.26	2686.94
606.45	2824.15
606.64	2777.05
606.84	2643.93
607.03	2727.89
607.22	2901.97
607.41	2549.72
607.60	2725.85
607.80	2877.40
607.99	2654.17
608.18	2725.85
608.37	2699.22
608.56	2711.51
608.76	2879.44
608.95	2795.48
609.14	2662.36
609.33	2881.49
609.52	2928.60
609.72	2754.52
609.91	2813.91
610.10	2768.85
610.29	2938.84
610.48	2824.15
610.68	2760.66
610.87	2756.57
611.06	2865.11
611.25	2605.02
611.44	2863.06
611.63	2588.63
611.83	2811.86
612.02	2588.63
612.21	2707.41
612.40	2457.56
612.59	2541.53
612.79	2502.62
612.98	2713.56
613.17	2926.55
613.36	2781.14
613.55	2795.48
613.74	2717.65
613.93	2754.52
614.13	2842.58
614.32	2883.54
614.51	2803.67
614.70	2783.19
614.89	2705.37
615.08	2805.72
615.28	3086.29
615.47	2615.26
615.66	2775.00
615.85	2662.36
616.04	2813.91
616.23	2793.43
616.42	2772.95
616.62	2715.61
616.81	2725.85
617.00	2750.42
617.19	2897.88
617.38	2641.88
617.57	2707.41
617.76	2822.10
617.95	2813.91
618.15	2779.09
618.34	2871.25
618.53	2576.34
618.72	2867.16
618.91	2826.20
619.10	2748.37
619.29	2731.99
619.48	2785.24
619.68	2547.67
619.87	2701.27
620.06	2559.96
620.25	2844.63
620.44	2514.91
620.63	2607.06
620.82	2703.32
621.01	2795.48
621.20	2658.26
621.39	2768.85
621.59	2772.95
621.78	2721.75
621.97	2693.08
622.16	2756.57
622.35	2713.56
622.54	2889.68
622.73	2736.09
622.92	2547.67
623.11	2854.87
623.30	2713.56
623.49	2748.37
623.68	2639.83
623.88	2887.64
624.07	2637.78
624.26	2549.72
624.45	2717.65
624.64	2703.32
624.83	2742.23
625.02	2621.40
625.21	2691.03
625.40	2803.67
625.59	2910.16
625.78	2676.70
625.97	2791.38
626.16	2934.74
626.35	2838.48
626.54	2641.88
626.74	2856.92
626.93	2678.74
627.12	2682.84
627.31	2789.33
627.50	2705.37
627.69	2918.36
627.88	2652.12
628.07	2645.98
628.26	2418.65
628.45	2623.45
628.64	2621.40
628.83	2682.84
629.02	2535.39
629.21	2740.18
629.40	2703.32
629.59	2654.17
629.78	2596.82
629.97	2719.70
630.16	2793.43
630.35	2635.74
630.54	2621.40
630.73	2609.11
630.92	2676.70
631.11	2537.43
631.30	2686.94
631.49	2805.72
631.68	2652.12
631.87	2686.94
632.06	2508.76
632.25	3026.90
632.44	2750.42
632.63	2686.94
632.82	2686.94
633.01	2674.65
633.20	2793.43
633.39	2639.83
633.58	2510.81
633.77	2744.28
633.96	2801.62
634.15	2813.91
634.34	2754.52
634.53	2785.24
634.72	2695.13
634.91	2465.75
635.10	2811.86
635.29	2787.29
635.48	2742.23
635.67	2627.54
635.86	2439.13
636.05	2985.94
636.24	2670.55
636.43	2574.30
636.62	2721.75
636.81	2410.46
637.00	2711.51
637.19	2678.74
637.38	2619.35
637.57	2740.18
637.76	2785.24
637.95	2906.07
638.14	2668.50
638.33	2783.19
638.52	2695.13
638.71	2527.19
638.89	2519.00
639.08	3096.53
639.27	2871.25
639.46	2844.63
639.65	3235.79
639.84	3172.30
640.03	3203.02
640.22	3157.97
640.41	3092.43
640.60	2856.92
640.79	2928.60
640.98	2766.81
641.17	2858.96
641.36	2957.27
641.55	2930.64
641.74	2549.72
641.92	2572.25
642.11	2668.50
642.30	2703.32
642.49	2580.44
642.68	2625.50
642.87	2738.13
643.06	2822.10
643.25	2523.10
643.44	2633.69
643.63	2639.83
643.82	2813.91
644.00	2568.15
644.19	2697.17
644.38	2627.54
644.57	2822.10
644.76	2666.46
644.95	2719.70
645.14	2793.43
645.33	2715.61
645.52	2758.61
645.71	2566.10
645.89	2572.25
646.08	2693.08
646.27	2703.32
646.46	2826.20
646.65	2547.67
646.84	2691.03
647.03	2580.44
647.22	2840.53
647.40	2742.23
647.59	2707.41
647.78	2465.75
647.97	2629.59
648.16	2621.40
648.35	2887.64
648.54	2879.44
648.73	2578.39
648.91	2813.91
649.10	2822.10
649.29	2562.01
649.48	2631.64
649.67	2811.86
649.86	2713.56
650.05	2619.35
650.23	2918.36
650.42	2648.02
650.61	2973.65
650.80	2820.05
650.99	3010.51
651.18	2891.73
651.36	2904.02
651.55	2656.22
651.74	2770.90
651.93	2666.46
652.12	2721.75
652.31	2764.76
652.49	2652.12
652.68	2613.21
652.87	2871.25
653.06	2758.61
653.25	2891.73
653.44	2721.75
653.62	2930.64
653.81	2729.94
654.00	2623.45
654.19	2756.57
654.38	3135.44
654.56	2756.57
654.75	2545.63
654.94	2830.29
655.13	2715.61
655.32	2701.27
655.51	2697.17
655.69	2674.65
655.88	2799.57
656.07	2531.29
656.26	2707.41
656.45	2574.30
656.63	2693.08
656.82	2723.80
657.01	2838.48
657.20	2627.54
657.38	2973.65
657.57	2666.46
657.76	2457.56
657.95	2777.05
658.14	2680.79
658.32	2662.36
658.51	2588.63
658.70	2809.81
658.89	2742.23
659.08	2684.89
659.26	2861.01
659.45	2654.17
659.64	2826.20
659.83	2676.70
660.01	3067.86
660.20	2719.70
660.39	2987.99
660.58	2379.74
660.76	2758.61
660.95	2602.97
661.14	2707.41
661.33	2473.95
661.51	2686.94
661.70	2738.13
661.89	2779.09
662.08	2654.17
662.26	2392.03
662.45	2629.59
662.64	3010.51
662.83	2799.57
663.01	2453.47
663.20	2617.30
663.39	2971.60
663.58	2611.16
663.76	2598.87
663.95	2793.43
664.14	2650.07
664.32	2580.44
664.51	2484.19
664.70	2516.95
664.89	2793.43
665.07	2475.99
665.26	2863.06
665.45	2547.67
665.64	2818.00
665.82	2684.89
666.01	2719.70
666.20	2496.47
666.38	2846.68
666.57	2809.81
666.76	4415.42
666.95	10010.47
667.13	17200.89
667.32	21233.34
667.51	24039.06
667.69	25355.90
667.88	21939.89
668.07	15564.56
668.25	12846.91
668.44	10966.87
668.63	9592.69
668.81	8544.13
669.00	7245.71
669.19	6541.21
669.38	5646.25
669.56	4988.85
669.75	4296.64
669.94	3798.98
670.12	3286.99
670.31	3035.09
670.50	2924.50
670.68	2861.01
670.87	2881.49
671.06	2645.98
671.24	2813.91
671.43	2983.89
671.62	2805.72
671.80	2609.11
671.99	2772.95
672.18	2791.38
672.36	2879.44
672.55	2734.04
672.74	2656.22
672.92	2670.55
673.11	2789.33
673.29	2605.02
673.48	2883.54
673.67	2652.12
673.85	2815.96
674.04	2572.25
674.23	2699.22
674.41	3045.33
674.60	2586.58
674.79	2484.19
674.97	2510.81
675.16	2813.91
675.34	2873.30
675.53	2609.11
675.72	2711.51
675.90	2998.23
676.09	2699.22
676.28	2641.88
676.46	2469.85
676.65	2801.62
676.83	2557.91
677.02	2654.17
677.21	2750.42
677.39	2807.77
677.58	2611.16
677.77	2600.92
677.95	2605.02
678.14	2688.98
678.32	2682.84
678.51	2654.17
678.70	2916.31
678.88	2682.84
679.07	2686.94
679.25	2627.54
679.44	2660.31
679.63	2588.63
679.81	2809.81
680.00	2883.54
680.18	2777.05
680.37	2947.03
680.55	2721.75
680.74	2506.71
680.93	2467.80
681.11	2809.81
681.30	2691.03
681.48	2711.51
681.67	2574.30
681.85	2719.70
682.04	2521.05
682.23	2760.66
682.41	2672.60
682.60	2752.47
682.78	2736.09
682.97	2539.48
683.15	2676.70
683.34	2791.38
683.53	2924.50
683.71	2545.63
683.90	2775.00
684.08	2973.65
684.27	2711.51
684.45	2727.89
684.64	2809.81
684.82	2775.00
685.01	2836.44
685.19	2662.36
685.38	2949.08
685.57	2791.38
685.75	2611.16
685.94	2551.77
686.12	2514.91
686.31	2596.82
686.49	2981.84
686.68	2389.98
686.86	2693.08
687.05	2682.84
687.23	2928.60
687.42	2590.68
687.60	2498.52
687.79	2891.73
687.97	2889.68
688.16	2871.25
688.34	2777.05
688.53	2457.56
688.71	2820.05
688.90	2883.54
689.08	2639.83
689.27	2492.38
689.45	2824.15
689.64	2781.14
689.82	2711.51
690.01	2811.86
690.19	2801.62
690.38	2752.47
690.56	2783.19
690.75	2588.63
690.93	2613.21
691.12	2588.63
691.30	2605.02
691.49	2643.93
691.67	2697.17
691.86	2967.51
692.04	2617.30
692.23	2686.94
692.41	2648.02
692.60	2953.17
692.78	2854.87
692.97	2670.55
693.15	2842.58
693.34	2856.92
693.52	2832.34
693.71	2619.35
693.89	2678.74
694.08	2516.95
694.26	2709.46
694.44	2875.35
694.63	2779.09
694.81	2559.96
695.00	2623.45
695.18	2858.96
695.37	3088.34
695.55	2752.47
695.74	2709.46
695.92	2584.54
696.10	2973.65
696.29	2564.06
696.47	2613.21
696.66	2533.34
696.84	2635.74
697.03	2713.56
697.21	2947.03
697.40	4073.41
697.58	2805.72
697.76	2605.02
697.95	2602.97
698.13	2562.01
698.32	2740.18
698.50	2650.07
698.68	2658.26
698.87	2742.23
699.05	2965.46
699.24	2703.32
699.42	2502.62
699.61	2772.95
699.79	2736.09
699.97	2650.07
700.16	2564.06
700.34	2525.15
700.53	2668.50
700.71	2881.49
700.89	2779.09
701.08	2695.13
701.26	2699.22
701.45	3178.45
701.63	2631.64
701.81	2600.92
702.00	2602.97
702.18	2619.35
702.37	2527.19
702.55	2912.21
702.73	2865.11
702.92	2672.60
703.10	2922.45
703.28	2926.55
703.47	2648.02
703.65	2795.48
703.84	2822.10
704.02	2629.59
704.20	2930.64
704.39	2627.54
704.57	2652.12
704.75	2934.74
704.94	2842.58
705.12	2738.13
705.30	3100.62
705.49	5726.12
705.67	12013.38
705.86	17960.69
706.04	20735.68
706.22	22933.15
706.41	22830.76
706.59	17956.59
706.77	13608.75
706.96	11550.54
707.14	10344.29
707.32	8976.25
707.51	7927.69
707.69	6475.68
707.87	5283.76
708.06	4429.76
708.24	3928.00
708.42	3303.37
708.61	3442.64
708.79	2709.46
708.97	2760.66
709.16	2867.16
709.34	2783.19
709.52	2629.59
709.71	2719.70
709.89	2838.48
710.07	2629.59
710.26	2619.35
710.44	2605.02
710.62	2875.35
710.80	2742.23
710.99	2772.95
711.17	2744.28
711.35	2619.35
711.54	2512.86
711.72	2797.53
711.90	2703.32
712.09	2758.61
712.27	2609.11
712.45	2645.98
712.63	2602.97
712.82	2742.23
713.00	2705.37
713.18	2801.62
713.37	2736.09
713.55	2830.29
713.73	2762.71
713.91	2709.46
714.10	2617.30
714.28	2725.85
714.46	2768.85
714.65	2772.95
714.83	2695.13
715.01	2715.61
715.19	2705.37
715.38	2596.82
715.56	2707.41
715.74	2719.70
715.92	2660.31
716.11	2891.73
716.29	2394.08
716.47	2731.99
716.65	2731.99
716.84	2484.19
717.02	2740.18
717.20	2562.01
717.38	2645.98
717.57	2758.61
717.75	2670.55
717.93	2588.63
718.11	2801.62
718.30	2531.29
718.48	2764.76
718.66	2854.87
718.84	2889.68
719.03	2656.22
719.21	2514.91
719.39	2940.88
719.57	2793.43
719.75	2842.58
719.94	2592.73
720.12	2613.21
720.30	2740.18
720.48	2785.24
720.67	2660.31
720.85	2621.40
721.03	2629.59
721.21	2633.69
721.39	2826.20
721.58	2856.92
721.76	2754.52
721.94	2652.12
722.12	2719.70
722.30	2965.46
722.49	2635.74
722.67	2746.33
722.85	2713.56
723.03	2502.62
723.21	2684.89
723.40	2752.47
723.58	2754.52
723.76	2785.24
723.94	2822.10
724.12	2756.57
724.30	2871.25
724.49	2916.31
724.67	2648.02
724.85	2779.09
725.03	2506.71
725.21	2826.20
725.40	2957.27
725.58	2662.36
725.76	2832.34
725.94	2785.24
726.12	2527.19
726.30	2686.94
726.49	2617.30
726.67	2635.74
726.85	2793.43
727.03	3127.25
727.21	4030.40
727.39	5013.43
727.57	5593.00
727.76	6086.56
727.94	6291.36
728.12	5468.08
728.30	4558.78
728.48	4313.02
728.66	4077.51
728.84	3727.30
729.03	3375.05
729.21	3200.98
729.39	3002.32
729.57	2734.04
729.75	2815.96
729.93	2748.37
730.11	2662.36
730.30	2613.21
730.48	2731.99
730.66	2818.00
730.84	2779.09
731.02	2740.18
731.20	2686.94
731.38	2686.94
731.56	2568.15
731.74	2486.23
731.93	2760.66
732.11	2693.08
732.29	2637.78
732.47	2818.00
732.65	2795.48
732.83	2838.48
733.01	2731.99
733.19	2584.54
733.37	2832.34
733.56	2676.70
733.74	2611.16
733.92	2932.69
734.10	2752.47
734.28	2731.99
734.46	2519.00
734.64	2674.65
734.82	2752.47
735.00	2568.15
735.18	2584.54
735.36	2678.74
735.54	2717.65
735.73	2711.51
735.91	2717.65
736.09	2998.23
736.27	2693.08
736.45	2701.27
736.63	2486.23
736.81	2742.23
736.99	2883.54
737.17	2938.84
737.35	2613.21
737.53	2738.13
737.71	2637.78
737.89	2908.12
738.07	2592.73
738.25	2686.94
738.43	2527.19
738.61	2645.98
738.80	2504.67
738.98	2514.91
739.16	2619.35
739.34	2564.06
739.52	2824.15
739.70	2676.70
739.88	2756.57
740.06	2791.38
740.24	2400.22
740.42	2858.96
740.60	2508.76
740.78	2629.59
740.96	2512.86
741.14	2674.65
741.32	2670.55
741.50	2486.23
741.68	2904.02
741.86	2938.84
742.04	2523.10
742.22	2486.23
742.40	2662.36
742.58	2738.13
742.76	2652.12
742.94	2838.48
743.12	2498.52
743.30	2781.14
743.48	2793.43
743.66	2621.40
743.84	2746.33
744.02	2652.12
744.20	2648.02
744.38	2480.09
744.56	2559.96
744.74	2977.75
744.92	2858.96
745.10	2838.48
745.28	2734.04
745.46	2932.69
745.64	2641.88
745.82	2693.08
746.00	2627.54
746.18	2793.43
746.36	2553.82
746.54	2791.38
746.72	2631.64
746.90	2570.20
747.08	2801.62
747.26	2660.31
747.44	2793.43
747.62	2793.43
747.80	2740.18
747.98	2801.62
748.15	2668.50
748.33	2990.03
748.51	2719.70
748.69	2764.76
748.87	2600.92
749.05	2664.41
749.23	2715.61
749.41	2586.58
749.59	2645.98
749.77	2760.66
749.95	2607.06
750.13	2578.39
750.31	2758.61
750.49	2693.08
750.67	2783.19
750.85	2793.43
751.03	2688.98
751.20	2979.79
751.38	2686.94
751.56	2621.40
751.74	2645.98
751.92	2746.33
752.10	2598.87
752.28	2842.58
752.46	2623.45
752.64	2678.74
752.82	2682.84
753.00	2748.37
753.18	2559.96
753.35	2662.36
753.53	2697.17
753.71	2629.59
753.89	2734.04
754.07	2736.09
754.25	2861.01
754.43	2682.84
754.61	2576.34
754.79	2775.00
754.97	2717.65
755.14	2883.54
755.32	2547.67
755.50	2766.81
755.68	2721.75
755.86	2582.49
756.04	2559.96
756.22	2392.03
756.40	2842.58
756.57	2904.02
756.75	2600.92
756.93	2924.50
757.11	2861.01
757.29	2494.43
757.47	2547.67
757.65	2482.14
757.82	2408.41
758.00	2598.87
758.18	2504.67
758.36	2576.34
758.54	2873.30
758.72	2471.90
758.90	2828.24
759.07	2727.89
759.25	2568.15
759.43	2641.88
759.61	2447.32
759.79	3940.29
759.97	2842.58
760.15	2670.55
760.32	2598.87
760.50	2750.42
760.68	2983.89
760.86	2521.05
761.04	2826.20
761.22	2742.23
761.39	2738.13
761.57	2783.19
761.75	2658.26
761.93	2834.39
762.11	2738.13
762.28	2734.04
762.46	2555.86
762.64	2881.49
762.82	2531.29
763.00	2660.31
763.18	2861.01
763.35	2562.01
763.53	2813.91
763.71	2674.65
763.89	2621.40
764.07	2697.17
764.24	2824.15
764.42	2807.77
764.60	2680.79
764.78	2777.05
764.96	2795.48
765.13	2787.29
765.31	2598.87
765.49	2822.10
765.67	2553.82
765.84	2621.40
766.02	2574.30
766.20	2469.85
766.38	2723.80
766.56	2789.33
766.73	2752.47
766.91	2666.46
767.09	2772.95
767.27	2688.98
767.44	2473.95
767.62	2834.39
767.80	2750.42
767.98	2578.39
768.15	2666.46
768.33	2899.92
768.51	2791.38
768.69	2748.37
768.87	2711.51
769.04	2797.53
769.22	3102.67
769.40	2815.96
769.58	2918.36
769.75	2738.13
769.93	2899.92
770.11	2605.02
770.28	2559.96
770.46	2826.20
770.64	2734.04
770.82	2635.74
770.99	2615.26
771.17	2840.53
771.35	2627.54
771.53	2662.36
771.70	2598.87
771.88	2852.82
772.06	2725.85
772.23	2627.54
772.41	2752.47
772.59	2709.46
772.77	2596.82
772.94	2684.89
773.12	2781.14
773.30	2736.09
773.47	2768.85
773.65	2580.44
773.83	2781.14
774.01	2736.09
774.18	2523.10
774.36	2641.88
774.54	2498.52
774.71	2777.05
774.89	2551.77
775.07	2541.53
775.24	2637.78
775.42	2645.98
775.60	2994.13
775.78	2535.39
775.95	2531.29
776.13	2486.23
776.31	2471.90
776.48	2805.72
776.66	2768.85
776.84	2678.74
777.01	2625.50
777.19	2658.26
777.37	2568.15
777.54	2746.33
777.72	3063.76
777.90	2691.03
778.07	2496.47
778.25	3174.35
778.43	2871.25
778.60	2519.00
778.78	2787.29
778.96	2920.40
779.13	2562.01
779.31	2727.89
779.49	2731.99
779.66	2686.94
779.84	2623.45
780.01	2658.26
780.19	2586.58
780.37	2832.34
780.54	2887.64
780.72	2531.29
780.90	2643.93
781.07	2686.94
781.25	2656.22
781.43	2830.29
781.60	2621.40
781.78	2928.60
781.95	2731.99
782.13	2586.58
782.31	2621.40
782.48	2484.19
782.66	2783.19
782.83	2828.24
783.01	2758.61
783.19	2824.15
783.36	2662.36
783.54	2478.04
783.72	2813.91
783.89	2617.30
784.07	2691.03
784.24	2723.80
784.42	2797.53
784.60	2777.05
784.77	2779.09
784.95	2480.09
785.12	2588.63
785.30	2764.76
785.47	2572.25
785.65	2527.19
785.83	2666.46
786.00	2600.92
786.18	2738.13
786.35	2480.09
786.53	2547.67
786.71	2830.29
786.88	2775.00
787.06	2697.17
787.23	2678.74
787.41	2568.15
787.58	2701.27
787.76	2562.01
787.94	2695.13
788.11	2734.04
788.29	2525.15
788.46	2607.06
788.64	2562.01
788.81	2629.59
788.99	2623.45
789.16	2564.06
789.34	2725.85
789.52	2666.46
789.69	2576.34
789.87	2375.64
790.04	2664.41
790.22	2670.55
790.39	2985.94
790.57	2519.00
790.74	2580.44
790.92	2834.39
791.09	2555.86
791.27	2607.06
791.44	2738.13
791.62	2672.60
791.79	2826.20
791.97	2711.51
792.15	2955.22
792.32	2777.05
792.50	2803.67
792.67	2828.24
792.85	2830.29
793.02	2721.75
793.20	2658.26
793.37	2535.39
793.55	2572.25
793.72	2498.52
793.90	2807.77
794.07	2615.26
794.25	2570.20
794.42	2721.75
794.60	2658.26
794.77	2717.65
794.95	2777.05
795.12	2838.48
795.30	2611.16
795.47	2486.23
795.65	3051.47
795.82	2766.81
796.00	2611.16
796.17	2672.60
796.34	2654.17
796.52	2754.52
796.69	2848.72
796.87	2672.60
797.04	2772.95
797.22	2795.48
797.39	2772.95
797.57	2832.34
797.74	2686.94
797.92	2734.04
798.09	2605.02
798.27	2826.20
798.44	2650.07
798.62	2613.21
798.79	2828.24
798.96	2684.89
799.14	2686.94
799.31	3039.19
799.49	2643.93
799.66	2592.73
799.84	2768.85
800.01	2596.82
800.19	2775.00
800.36	2416.60
800.53	2637.78
800.71	2758.61
800.88	2916.31
801.06	2596.82
801.23	2566.10
801.41	2588.63
801.58	2650.07
801.75	2541.53
801.93	2686.94
802.10	2899.92
802.28	2660.31
802.45	2572.25
802.63	2748.37
802.80	2926.55
802.97	2662.36
803.15	2719.70
803.32	2617.30
803.50	2547.67
803.67	2607.06
803.84	2496.47
804.02	2678.74
804.19	2602.97
804.37	2463.71
804.54	2562.01
804.71	2611.16
804.89	2742.23
805.06	2588.63
805.24	2531.29
805.41	2539.48
805.58	2674.65
805.76	3061.71
805.93	2643.93
806.10	2805.72
806.28	2748.37
806.45	2670.55
806.63	2721.75
806.80	2740.18
806.97	2754.52
807.15	2688.98
807.32	2699.22
807.49	2666.46
807.67	2596.82
807.84	2803.67
808.01	2467.80
808.19	2848.72
808.36	3035.09
808.54	2617.30
808.71	2568.15
808.88	2744.28
809.06	2926.55
809.23	3028.95
809.40	2564.06
809.58	2725.85
809.75	2711.51
809.92	2539.48
810.10	2850.77
810.27	2639.83
810.44	2758.61
810.62	2834.39
810.79	2711.51
810.96	2637.78
811.14	2713.56
811.31	2826.20
811.48	2766.81
811.66	2652.12
811.83	2893.78
812.00	2846.68
812.18	2748.37
812.35	2975.70
812.52	2695.13
812.69	2602.97
812.87	2592.73
813.04	2516.95
813.21	2707.41
813.39	2611.16
813.56	2480.09
813.73	2934.74
813.91	2455.51
814.08	2731.99
814.25	2654.17
814.42	2473.95
814.60	2703.32
814.77	2750.42
814.94	2643.93
815.12	2594.78
815.29	2901.97
815.46	2662.36
815.63	2674.65
815.81	2721.75
815.98	2688.98
816.15	2615.26
816.33	2711.51
816.50	2609.11
816.67	2695.13
816.84	2756.57
817.02	2504.67
817.19	2580.44
817.36	2705.37
817.53	2828.24
817.71	2588.63
817.88	2705.37
818.05	2664.41
818.22	2664.41
818.40	2779.09
818.57	2625.50
818.74	2748.37
818.91	2713.56
819.09	2744.28
819.26	2768.85
819.43	2596.82
819.60	2633.69
819.78	2799.57
819.95	2725.85
820.12	2633.69
820.29	2815.96
820.47	2834.39
820.64	2539.48
820.81	2480.09
820.98	2627.54
821.15	2684.89
821.33	2709.46
821.50	2463.71
821.67	2797.53
821.84	2602.97
822.02	2688.98
822.19	2895.83
822.36	2656.22
822.53	2588.63
822.70	2500.57
822.88	2670.55
823.05	2852.82
823.22	2678.74
823.39	2707.41
823.56	2725.85
823.74	2994.13
823.91	2594.78
824.08	2557.91
824.25	2564.06
824.42	2963.41
824.60	2473.95
824.77	2680.79
824.94	2678.74
825.11	2775.00
825.28	2498.52
825.45	2709.46
825.63	2775.00
825.80	2551.77
825.97	2789.33
826.14	2705.37
826.31	2484.19
826.48	2791.38
826.66	2605.02
826.83	2602.97
827.00	2684.89
827.17	2555.86
827.34	2660.31
827.51	2596.82
827.69	2633.69
827.86	2545.63
828.03	2645.98
828.20	2635.74
828.37	2619.35
828.54	2772.95
828.71	2541.53
828.89	2871.25
829.06	2713.56
829.23	2893.78
829.40	2627.54
829.57	2617.30
829.74	2711.51
829.91	2633.69
830.09	2594.78
830.26	2727.89
830.43	2887.64
830.60	2734.04
830.77	2740.18
830.94	2826.20
831.11	2785.24
831.28	2703.32
831.46	2734.04
831.63	2617.30
831.80	2815.96
831.97	2586.58
832.14	2662.36
832.31	2719.70
832.48	2791.38
832.65	2818.00
832.82	2772.95
832.99	2678.74
833.17	2564.06
833.34	2901.97
833.51	2693.08
833.68	2432.99
833.85	2834.39
834.02	2508.76
834.19	2574.30
834.36	2551.77
834.53	2807.77
834.70	2756.57
834.87	2686.94
835.04	2557.91
835.22	2639.83
835.39	2674.65
835.56	2531.29
835.73	2551.77
835.90	2922.45
836.07	2680.79
836.24	2664.41
836.41	2596.82
836.58	2613.21
836.75	2932.69
836.92	2602.97
837.09	2435.03
837.26	2785.24
837.43	2731.99
837.60	2576.34
837.77	2564.06
837.94	2813.91
838.12	2736.09
838.29	2508.76
838.46	2469.85
838.63	2588.63
838.80	2938.84
838.97	2674.65
839.14	2523.10
839.31	2707.41
839.48	2918.36
839.65	2564.06
839.82	2648.02
839.99	2789.33
840.16	2736.09
840.33	2490.33
840.50	2570.20
840.67	2586.58
840.84	2342.88
841.01	2504.67
841.18	2502.62
841.35	2629.59
841.52	2797.53
841.69	2818.00
841.86	2592.73
842.03	2682.84
842.20	2805.72
842.37	2564.06
842.54	2637.78
842.71	2721.75
842.88	2574.30
843.05	2566.10
843.22	2508.76
843.39	2731.99
843.56	2684.89
843.73	2592.73
843.90	2559.96
844.07	2721.75
844.24	2799.57
844.41	2674.65
844.58	2613.21
844.75	2660.31
844.92	2783.19
845.09	2539.48
845.26	2590.68
845.43	2830.29
845.60	2602.97
845.77	2678.74
845.94	2629.59
846.10	2834.39
846.27	2475.99
846.44	2457.56
846.61	2471.90
846.78	2783.19
846.95	2811.86
847.12	2506.71
847.29	2588.63
847.46	2602.97
847.63	2871.25
847.80	2422.75
847.97	2539.48
848.14	3012.56
848.31	2596.82
848.48	2402.27
848.65	2613.21
848.82	2678.74
848.98	3084.24
849.15	2588.63
849.32	2736.09
849.49	2842.58
849.66	2703.32
849.83	2529.24
850.00	2396.12
850.17	2875.35
850.34	2645.98
850.51	2547.67
850.68	2584.54
850.85	2963.41
851.01	2752.47
851.18	2611.16
851.35	2584.54
851.52	2818.00
851.69	2932.69
851.86	2441.18
852.03	2539.48
852.20	2830.29
852.37	2736.09
852.53	2424.80
852.70	2525.15
852.87	2729.94
853.04	2830.29
853.21	2506.71
853.38	2779.09
853.55	2867.16
853.72	2815.96
853.89	2447.32
854.05	2449.37
854.22	2666.46
854.39	2639.83
854.56	2555.86
854.73	2758.61
854.90	2555.86
855.07	2770.90
855.23	2551.77
855.40	2463.71
855.57	2650.07
855.74	2410.46
855.91	2795.48
856.08	2445.27
856.25	2551.77
856.41	2629.59
856.58	2523.10
856.75	2572.25
856.92	2494.43
857.09	2897.88
857.26	2412.51
857.42	2496.47
857.59	2799.57
857.76	2660.31
857.93	2600.92
858.10	2584.54
858.27	2639.83
858.43	2756.57
858.60	2578.39
858.77	2496.47
858.94	2590.68
859.11	2822.10
859.27	2639.83
859.44	2529.24
859.61	2985.94
859.78	2793.43
859.95	2465.75
860.12	2512.86
860.28	3020.75
860.45	2998.23
860.62	2574.30
860.79	2676.70
860.95	2660.31
861.12	2568.15
861.29	2504.67
861.46	2588.63
861.63	2686.94
861.79	2721.75
861.96	2441.18
862.13	2543.58
862.30	2936.79
862.47	2670.55
862.63	2461.66
862.80	2645.98
862.97	2850.77
863.14	2772.95
863.30	2629.59
863.47	2519.00
863.64	2979.79
863.81	2764.76
863.97	2453.47
864.14	2652.12
864.31	2707.41
864.48	2746.33
864.65	2463.71
864.81	2674.65
864.98	2795.48
865.15	2899.92
865.32	2609.11
865.48	2645.98
865.65	2949.08
865.82	2629.59
865.98	2668.50
866.15	2627.54
866.32	2746.33
866.49	2588.63
866.65	2674.65
866.82	2592.73
866.99	2656.22
867.16	2621.40
867.32	2545.63
867.49	2500.57
867.66	2731.99
867.83	2654.17
867.99	2447.32
868.16	2553.82
868.33	2461.66
868.49	2746.33
868.66	2521.05
868.83	2654.17
868.99	2633.69
869.16	2639.83
869.33	2748.37
869.50	2611.16
869.66	2633.69
869.83	2699.22
870.00	2506.71
870.16	2660.31
870.33	2648.02
870.50	2850.77
870.66	2619.35
870.83	2592.73
871.00	2645.98
871.17	2795.48
871.33	2619.35
871.50	2547.67
871.67	2736.09
871.83	2596.82
872.00	2713.56
872.17	2500.57
872.33	3035.09
872.50	2875.35
872.67	2627.54
872.83	2551.77
873.00	2731.99
873.17	2736.09
873.33	2654.17
873.50	2592.73
873.67	2611.16
873.83	2557.91
874.00	2609.11
874.16	2654.17
874.33	2752.47
874.50	2572.25
874.66	2621.40
874.83	2650.07
875.00	2914.26
875.16	2883.54
875.33	2758.61
875.50	2330.59
875.66	2668.50
875.83	2670.55
875.99	2672.60
876.16	2713.56
876.33	2572.25
876.49	2652.12
876.66	2572.25
876.83	2572.25
876.99	2543.58
877.16	2709.46
877.32	2502.62
877.49	2607.06
877.66	2744.28
877.82	2985.94
877.99	2617.30
878.15	2740.18
878.32	2682.84
878.49	2693.08
878.65	2609.11
878.82	2697.17
878.98	2652.12
879.15	2858.96
879.32	2652.12
879.48	2623.45
879.65	2713.56
879.81	2613.21
879.98	2621.40
880.15	2547.67
880.31	2830.29
880.48	2617.30
880.64	2686.94
880.81	2648.02
880.97	2891.73
881.14	2875.35
881.31	2512.86
881.47	2688.98
881.64	2594.78
881.80	2527.19
881.97	2668.50
882.13	2621.40
882.30	2570.20
882.47	2555.86
882.63	2555.86
882.80	2451.42
882.96	2596.82
883.13	2865.11
883.29	2478.04
883.46	2514.91
883.62	2951.12
883.79	2699.22
883.95	2731.99
884.12	2547.67
884.29	2881.49
884.45	2699.22
884.62	2635.74
884.78	2586.58
884.95	2990.03
885.11	2596.82
885.28	2621.40
885.44	2623.45
885.61	2852.82
885.77	2828.24
885.94	2637.78
886.10	2613.21
886.27	2723.80
886.43	2955.22
886.60	2736.09
886.76	2545.63
886.93	2654.17
887.09	2783.19
887.26	2461.66
887.42	2688.98
887.59	2994.13
887.75	3028.95
887.92	2693.08
888.08	2744.28
888.25	3000.27
888.41	2836.44
888.58	2559.96
888.74	2500.57
888.91	2711.51
>>>>>End Processed Spectral Data<<<<<
