SpectraSuite Data File
++++++++++++++++++++++++++++++++++++
Date: Thu May 05 16:20:24 CEST 2016
User: root
Dark Spectrum Present: No
Reference Spectrum Present: No
Number of Sampled Component Spectra: 1
Spectrometers: USB4C02835
Integration Time (usec): 100000 (USB4C02835)
Spectra Averaged: 1 (USB4C02835)
Boxcar Smoothing: 0 (USB4C02835)
Correct for Electrical Dark: No (USB4C02835)
Strobe/Lamp Enabled: No (USB4C02835)
Correct for Detector Non-linearity: No (USB4C02835)
Correct for Stray Light: No (USB4C02835)
Number of Pixels in Processed Spectrum: 3648
>>>>>Begin Processed Spectral Data<<<<<
177.47	2000.87
177.69	2000.87
177.91	2000.87
178.13	2099.17
178.36	2058.21
178.58	2576.34
178.80	2744.28
179.02	2494.43
179.24	2627.54
179.46	2496.47
179.68	2543.58
179.90	2717.65
180.13	2762.71
180.35	2385.88
180.57	2488.28
180.79	2871.25
181.01	2693.08
181.23	2578.39
181.45	2709.46
181.67	2789.33
181.90	2824.15
182.12	2547.67
182.34	2381.79
182.56	2750.42
182.78	2818.00
183.00	2527.19
183.22	2506.71
183.44	2519.00
183.66	3200.98
183.89	2719.70
184.11	2428.89
184.33	2848.72
184.55	2916.31
184.77	2496.47
184.99	2564.06
185.21	2686.94
185.43	3026.90
185.65	2545.63
185.87	2502.62
186.10	3047.38
186.32	3043.28
186.54	2635.74
186.76	2672.60
186.98	2865.11
187.20	2756.57
187.42	2543.58
187.64	2516.95
187.86	2799.57
188.08	2897.88
188.30	2447.32
188.52	2570.20
188.75	2906.07
188.97	2824.15
189.19	2455.51
189.41	2445.27
189.63	2834.39
189.85	2725.85
190.07	2408.41
190.29	2369.50
190.51	2756.57
190.73	2506.71
190.95	2654.17
191.17	2537.43
191.39	2512.86
191.61	2697.17
191.84	2498.52
192.06	2531.29
192.28	2510.81
192.50	3217.36
192.72	2539.48
192.94	2523.10
193.16	2854.87
193.38	2809.81
193.60	2453.47
193.82	2584.54
194.04	2824.15
194.26	2760.66
194.48	2539.48
194.70	2533.34
194.92	2709.46
195.14	2787.29
195.36	2492.38
195.58	2523.10
195.80	2643.93
196.02	2668.50
196.24	2402.27
196.46	2521.05
196.69	2678.74
196.91	3045.33
197.13	2545.63
197.35	2482.14
197.57	2906.07
197.79	2772.95
198.01	2566.10
198.23	2545.63
198.45	2738.13
198.67	2535.39
198.89	2404.32
199.11	2566.10
199.33	2611.16
199.55	2392.03
199.77	2484.19
199.99	2731.99
200.21	2650.07
200.43	2801.62
200.65	2402.27
200.87	2449.37
201.09	2721.75
201.31	2674.65
201.53	2600.92
201.75	2621.40
201.97	2752.47
202.19	2693.08
202.41	2617.30
202.63	2699.22
202.85	2770.90
203.07	2742.23
203.29	2531.29
203.51	2359.26
203.73	2645.98
203.95	3071.95
204.17	2490.33
204.39	2602.97
204.61	2719.70
204.83	2645.98
205.05	2652.12
205.27	2543.58
205.49	3067.86
205.71	2666.46
205.93	2432.99
206.15	2428.89
206.37	2578.39
206.59	2664.41
206.81	2408.41
207.03	2377.69
207.25	2602.97
207.47	2820.05
207.69	2471.90
207.91	2721.75
208.13	2944.98
208.34	2621.40
208.56	2514.91
208.78	2598.87
209.00	2744.28
209.22	2746.33
209.44	2512.86
209.66	2502.62
209.88	2703.32
210.10	2658.26
210.32	2467.80
210.54	2617.30
210.76	2707.41
210.98	2918.36
211.20	2385.88
211.42	2545.63
211.64	2867.16
211.86	2842.58
212.08	2545.63
212.30	2578.39
212.52	2676.70
212.74	2736.09
212.96	2562.01
213.17	2613.21
213.39	2734.04
213.61	2981.84
213.83	2535.39
214.05	2422.75
214.27	2865.11
214.49	2594.78
214.71	2512.86
214.93	2619.35
215.15	2652.12
215.37	2932.69
215.59	2389.98
215.81	2570.20
216.03	2969.55
216.24	2686.94
216.46	2539.48
216.68	2613.21
216.90	2840.53
217.12	2863.06
217.34	2369.50
217.56	2619.35
217.78	2877.40
218.00	2787.29
218.22	2586.58
218.44	2654.17
218.66	2785.24
218.87	3012.56
219.09	2498.52
219.31	2576.34
219.53	2752.47
219.75	2643.93
219.97	2537.43
220.19	2504.67
220.41	2736.09
220.63	3119.06
220.85	2494.43
221.06	2465.75
221.28	2928.60
221.50	2754.52
221.72	2605.02
221.94	2480.09
222.16	2715.61
222.38	2910.16
222.60	2527.19
222.82	2588.63
223.03	2883.54
223.25	2555.86
223.47	2539.48
223.69	2715.61
223.91	2854.87
224.13	2752.47
224.35	2422.75
224.57	2693.08
224.78	2809.81
225.00	2662.36
225.22	2549.72
225.44	2480.09
225.66	2834.39
225.88	2656.22
226.10	2570.20
226.32	2521.05
226.53	2924.50
226.75	2650.07
226.97	2510.81
227.19	2512.86
227.41	2600.92
227.63	2670.55
227.85	2351.07
228.06	2449.37
228.28	2791.38
228.50	2846.68
228.72	2381.79
228.94	2480.09
229.16	2504.67
229.37	2576.34
229.59	2447.32
229.81	2731.99
230.03	2613.21
230.25	2527.19
230.47	2400.22
230.69	2519.00
230.90	2854.87
231.12	2631.64
231.34	2615.26
231.56	2592.73
231.78	2605.02
232.00	2650.07
232.21	2631.64
232.43	2482.14
232.65	2445.27
232.87	2793.43
233.09	2437.08
233.30	2447.32
233.52	2863.06
233.74	2693.08
233.96	2375.64
234.18	2676.70
234.40	2688.98
234.61	2936.79
234.83	2398.17
235.05	2453.47
235.27	3151.82
235.49	2834.39
235.70	2496.47
235.92	2578.39
236.14	2805.72
236.36	3174.35
236.58	2478.04
236.79	2584.54
237.01	2717.65
237.23	2746.33
237.45	2654.17
237.67	2551.77
237.88	2797.53
238.10	2977.75
238.32	2432.99
238.54	2494.43
238.76	2686.94
238.97	2586.58
239.19	2510.81
239.41	2557.91
239.63	2897.88
239.85	2615.26
240.06	2521.05
240.28	2521.05
240.50	2842.58
240.72	2709.46
240.93	2459.61
241.15	2619.35
241.37	2770.90
241.59	3049.43
241.81	2498.52
242.02	2564.06
242.24	2779.09
242.46	2848.72
242.68	2441.18
242.89	2486.23
243.11	2828.24
243.33	2670.55
243.55	2457.56
243.76	2553.82
243.98	2648.02
244.20	2746.33
244.42	2564.06
244.64	2494.43
244.85	2535.39
245.07	2566.10
245.29	2545.63
245.51	2529.24
245.72	2777.05
245.94	2891.73
246.16	2502.62
246.38	2596.82
246.59	2559.96
246.81	2598.87
247.03	2441.18
247.24	2408.41
247.46	2650.07
247.68	2684.89
247.90	2465.75
248.11	2578.39
248.33	2883.54
248.55	2631.64
248.77	2504.67
248.98	2582.49
249.20	2875.35
249.42	2703.32
249.64	2535.39
249.85	2445.27
250.07	2705.37
250.29	2818.00
250.50	2600.92
250.72	2473.95
250.94	2799.57
251.16	2981.84
251.37	2578.39
251.59	2582.49
251.81	2789.33
252.02	2908.12
252.24	2471.90
252.46	2609.11
252.68	2555.86
252.89	2666.46
253.11	2289.63
253.33	2656.22
253.54	2891.73
253.76	2535.39
253.98	2482.14
254.20	2564.06
254.41	2545.63
254.63	2666.46
254.85	2398.17
255.06	2609.11
255.28	2791.38
255.50	2711.51
255.71	2531.29
255.93	2426.84
256.15	2631.64
256.36	2756.57
256.58	2367.45
256.80	2551.77
257.02	2738.13
257.23	2656.22
257.45	2555.86
257.67	2602.97
257.88	2629.59
258.10	2729.94
258.32	2525.15
258.53	2590.68
258.75	2930.64
258.97	2629.59
259.18	2506.71
259.40	2541.53
259.62	2992.08
259.83	2949.08
260.05	2564.06
260.27	3055.57
260.48	2897.88
260.70	2570.20
260.92	2486.23
261.13	2555.86
261.35	2731.99
261.57	2795.48
261.78	2496.47
262.00	2488.28
262.22	2854.87
262.43	2600.92
262.65	2473.95
262.86	2582.49
263.08	3047.38
263.30	2676.70
263.51	2377.69
263.73	2502.62
263.95	2858.96
264.16	2596.82
264.38	2441.18
264.60	2482.14
264.81	2717.65
265.03	2885.59
265.25	2760.66
265.46	2482.14
265.68	2918.36
265.89	2785.24
266.11	2430.94
266.33	2523.10
266.54	2863.06
266.76	2793.43
266.98	2652.12
267.19	2654.17
267.41	2897.88
267.62	2754.52
267.84	2392.03
268.06	2629.59
268.27	2787.29
268.49	2889.68
268.70	2596.82
268.92	2519.00
269.14	2490.33
269.35	2490.33
269.57	2590.68
269.79	2553.82
270.00	2713.56
270.22	2998.23
270.43	2406.36
270.65	2336.73
270.87	2795.48
271.08	2883.54
271.30	2531.29
271.51	2619.35
271.73	2863.06
271.95	2897.88
272.16	2510.81
272.38	2605.02
272.59	2611.16
272.81	2740.18
273.02	2506.71
273.24	2578.39
273.46	2887.64
273.67	2635.74
273.89	2379.74
274.10	2555.86
274.32	2994.13
274.54	2729.94
274.75	2578.39
274.97	2576.34
275.18	2785.24
275.40	2828.24
275.61	2535.39
275.83	2707.41
276.05	2582.49
276.26	2670.55
276.48	2627.54
276.69	2555.86
276.91	2711.51
277.12	2959.31
277.34	2668.50
277.55	2729.94
277.77	2721.75
277.99	2570.20
278.20	2594.78
278.42	2478.04
278.63	2598.87
278.85	2691.03
279.06	2590.68
279.28	2695.13
279.49	2928.60
279.71	2738.13
279.93	2674.65
280.14	2568.15
280.36	2592.73
280.57	2904.02
280.79	2633.69
281.00	2562.01
281.22	2602.97
281.43	2854.87
281.65	2342.88
281.86	2449.37
282.08	2783.19
282.29	3028.95
282.51	2508.76
282.73	2500.57
282.94	2514.91
283.16	2824.15
283.37	2695.13
283.59	2666.46
283.80	2797.53
284.02	2725.85
284.23	2707.41
284.45	2594.78
284.66	2613.21
284.88	2615.26
285.09	2678.74
285.31	2707.41
285.52	2758.61
285.74	2539.48
285.95	2719.70
286.17	2664.41
286.38	2932.69
286.60	2596.82
286.81	2637.78
287.03	2662.36
287.24	2711.51
287.46	2740.18
287.67	2641.88
287.89	2901.97
288.10	2607.06
288.32	2752.47
288.53	2742.23
288.75	2684.89
288.96	2858.96
289.18	2586.58
289.39	2557.91
289.61	2660.31
289.82	3143.63
290.04	2975.70
290.25	2617.30
290.47	2668.50
290.68	2592.73
290.90	2863.06
291.11	2437.08
291.33	2711.51
291.54	2580.44
291.76	2682.84
291.97	2645.98
292.18	2666.46
292.40	2688.98
292.61	2623.45
292.83	2822.10
293.04	2623.45
293.26	2738.13
293.47	2637.78
293.69	2535.39
293.90	2592.73
294.12	2830.29
294.33	2631.64
294.55	2555.86
294.76	2729.94
294.97	2955.22
295.19	3014.61
295.40	2645.98
295.62	2615.26
295.83	2795.48
296.05	2658.26
296.26	2799.57
296.48	2576.34
296.69	2652.12
296.90	2703.32
297.12	2760.66
297.33	2777.05
297.55	2680.79
297.76	2852.82
297.98	2715.61
298.19	2736.09
298.41	2731.99
298.62	2625.50
298.83	2861.01
299.05	2680.79
299.26	2662.36
299.48	2625.50
299.69	2658.26
299.90	2650.07
300.12	2645.98
300.33	2863.06
300.55	2660.31
300.76	2645.98
300.98	2650.07
301.19	2785.24
301.40	2656.22
301.62	2555.86
301.83	2842.58
302.05	2762.71
302.26	2602.97
302.47	2715.61
302.69	2654.17
302.90	2711.51
303.12	2408.41
303.33	2754.52
303.54	3004.37
303.76	2678.74
303.97	2568.15
304.19	2744.28
304.40	2594.78
304.61	2719.70
304.83	2785.24
305.04	2637.78
305.26	2834.39
305.47	2648.02
305.68	2627.54
305.90	2555.86
306.11	2940.88
306.33	2697.17
306.54	2562.01
306.75	2531.29
306.97	2535.39
307.18	2529.24
307.39	2600.92
307.61	2727.89
307.82	2758.61
308.04	2795.48
308.25	2543.58
308.46	2740.18
308.68	2721.75
308.89	2660.31
309.10	2719.70
309.32	2678.74
309.53	2697.17
309.74	2760.66
309.96	2566.10
310.17	2729.94
310.39	2574.30
310.60	2852.82
310.81	2668.50
311.03	2473.95
311.24	2789.33
311.45	2695.13
311.67	2805.72
311.88	2701.27
312.09	2660.31
312.31	2598.87
312.52	2590.68
312.73	2578.39
312.95	2482.14
313.16	2674.65
313.37	2764.76
313.59	2705.37
313.80	2883.54
314.01	3028.95
314.23	2592.73
314.44	2461.66
314.65	2586.58
314.87	2660.31
315.08	2684.89
315.29	2609.11
315.51	2605.02
315.72	2510.81
315.93	2758.61
316.15	2633.69
316.36	2611.16
316.57	2742.23
316.79	2619.35
317.00	2523.10
317.21	2699.22
317.43	2607.06
317.64	2609.11
317.85	2478.04
318.07	2637.78
318.28	2637.78
318.49	2744.28
318.70	2801.62
318.92	2740.18
319.13	2840.53
319.34	2815.96
319.56	2662.36
319.77	2842.58
319.98	2844.63
320.20	2736.09
320.41	2701.27
320.62	2807.77
320.83	2584.54
321.05	2826.20
321.26	2660.31
321.47	2633.69
321.69	2850.77
321.90	2482.14
322.11	2566.10
322.32	2723.80
322.54	2926.55
322.75	2660.31
322.96	3260.37
323.18	2461.66
323.39	2461.66
323.60	2441.18
323.81	2703.32
324.03	2623.45
324.24	2656.22
324.45	2652.12
324.66	2596.82
324.88	2895.83
325.09	2971.60
325.30	2619.35
325.52	2600.92
325.73	2811.86
325.94	2631.64
326.15	2437.08
326.37	2535.39
326.58	2858.96
326.79	2901.97
327.00	2486.23
327.22	2631.64
327.43	2613.21
327.64	2602.97
327.85	2705.37
328.07	2586.58
328.28	2990.03
328.49	2672.60
328.70	2613.21
328.92	2619.35
329.13	2662.36
329.34	2758.61
329.55	2824.15
329.76	2709.46
329.98	2762.71
330.19	2944.98
330.40	2658.26
330.61	2637.78
330.83	2809.81
331.04	2594.78
331.25	2678.74
331.46	2666.46
331.68	2629.59
331.89	2840.53
332.10	2592.73
332.31	2551.77
332.52	2770.90
332.74	2959.31
332.95	2453.47
333.16	2625.50
333.37	2879.44
333.58	2639.83
333.80	2648.02
334.01	2396.12
334.22	2662.36
334.43	2654.17
334.64	2643.93
334.86	2498.52
335.07	2596.82
335.28	2944.98
335.49	2441.18
335.70	2660.31
335.92	2930.64
336.13	3041.23
336.34	2652.12
336.55	2633.69
336.76	2768.85
336.98	2447.32
337.19	2566.10
337.40	2656.22
337.61	3010.51
337.82	2598.87
338.04	2775.00
338.25	2496.47
338.46	2711.51
338.67	2734.04
338.88	2564.06
339.09	2469.85
339.31	2650.07
339.52	2514.91
339.73	2504.67
339.94	2568.15
340.15	2834.39
340.36	2680.79
340.58	2621.40
340.79	2519.00
341.00	2793.43
341.21	2514.91
341.42	2836.44
341.63	2607.06
341.85	2916.31
342.06	2711.51
342.27	2578.39
342.48	2777.05
342.69	2553.82
342.90	2815.96
343.12	2871.25
343.33	2482.14
343.54	2867.16
343.75	2973.65
343.96	2625.50
344.17	2533.34
344.38	2715.61
344.60	2643.93
344.81	2478.04
345.02	2619.35
345.23	2955.22
345.44	2996.18
345.65	2744.28
345.86	2629.59
346.07	2834.39
346.29	2676.70
346.50	2627.54
346.71	2729.94
346.92	2973.65
347.13	3033.04
347.34	2678.74
347.55	2568.15
347.76	2756.57
347.98	2555.86
348.19	2674.65
348.40	2779.09
348.61	2658.26
348.82	2920.40
349.03	2701.27
349.24	2492.38
349.45	3006.42
349.66	2578.39
349.88	2666.46
350.09	2521.05
350.30	2895.83
350.51	2799.57
350.72	2693.08
350.93	2637.78
351.14	2633.69
351.35	2818.00
351.56	2629.59
351.77	2645.98
351.99	2791.38
352.20	2912.21
352.41	2775.00
352.62	2461.66
352.83	2648.02
353.04	2660.31
353.25	2572.25
353.46	2719.70
353.67	2875.35
353.88	2514.91
354.09	2572.25
354.30	2607.06
354.52	2850.77
354.73	2736.09
354.94	2600.92
355.15	2652.12
355.36	3119.06
355.57	2678.74
355.78	2586.58
355.99	2627.54
356.20	2734.04
356.41	2977.75
356.62	2592.73
356.83	2625.50
357.04	2981.84
357.25	2504.67
357.46	2529.24
357.68	2486.23
357.89	2609.11
358.10	2701.27
358.31	2637.78
358.52	2650.07
358.73	2584.54
358.94	2547.67
359.15	2559.96
359.36	2725.85
359.57	2723.80
359.78	2750.42
359.99	2676.70
360.20	2500.57
360.41	2629.59
360.62	2736.09
360.83	2666.46
361.04	2645.98
361.25	2777.05
361.46	3000.27
361.67	2639.83
361.88	2625.50
362.09	2834.39
362.30	2846.68
362.51	2529.24
362.72	2643.93
362.93	2906.07
363.14	2854.87
363.35	2648.02
363.56	2598.87
363.78	2961.36
363.99	2840.53
364.20	2566.10
364.41	2715.61
364.62	2971.60
364.83	2813.91
365.04	2615.26
365.25	2582.49
365.46	2985.94
365.67	2631.64
365.88	2678.74
366.09	2572.25
366.30	2578.39
366.51	2785.24
366.72	2570.20
366.93	2562.01
367.14	2740.18
367.35	2834.39
367.56	2637.78
367.77	2738.13
367.98	2707.41
368.18	2777.05
368.39	2799.57
368.60	2557.91
368.81	2838.48
369.02	2742.23
369.23	2656.22
369.44	2494.43
369.65	2621.40
369.86	2746.33
370.07	2775.00
370.28	2541.53
370.49	2777.05
370.70	2854.87
370.91	2486.23
371.12	2527.19
371.33	2932.69
371.54	2742.23
371.75	2719.70
371.96	2373.60
372.17	2795.48
372.38	2750.42
372.59	2682.84
372.80	2627.54
373.01	2637.78
373.22	2715.61
373.43	2566.10
373.64	2494.43
373.85	2983.89
374.06	2912.21
374.26	2789.33
374.47	2727.89
374.68	2951.12
374.89	2727.89
375.10	2600.92
375.31	2723.80
375.52	2756.57
375.73	2766.81
375.94	2543.58
376.15	2852.82
376.36	2633.69
376.57	2637.78
376.78	2547.67
376.99	2705.37
377.20	2949.08
377.40	2731.99
377.61	2826.20
377.82	2559.96
378.03	2949.08
378.24	2815.96
378.45	2635.74
378.66	2643.93
378.87	2498.52
379.08	2531.29
379.29	2600.92
379.50	2801.62
379.71	2748.37
379.91	2783.19
380.12	2621.40
380.33	2713.56
380.54	2789.33
380.75	2701.27
380.96	2600.92
381.17	2650.07
381.38	2709.46
381.59	2750.42
381.80	2727.89
382.00	2760.66
382.21	2748.37
382.42	2906.07
382.63	2934.74
382.84	2731.99
383.05	2838.48
383.26	2957.27
383.47	2711.51
383.68	2639.83
383.88	2840.53
384.09	2701.27
384.30	2914.26
384.51	2656.22
384.72	2637.78
384.93	2580.44
385.14	2731.99
385.35	2727.89
385.55	2471.90
385.76	2877.40
385.97	2662.36
386.18	2475.99
386.39	2549.72
386.60	2662.36
386.81	2670.55
387.02	2512.86
387.22	2578.39
387.43	2818.00
387.64	2748.37
387.85	2852.82
388.06	2801.62
388.27	4001.73
388.48	7579.53
388.68	11069.27
388.89	13684.53
389.10	14612.26
389.31	13946.67
389.52	11093.85
389.73	9430.90
389.93	8609.66
390.14	7880.58
390.35	7178.13
390.56	6377.37
390.77	5357.49
390.98	4102.08
391.18	3442.64
391.39	3141.58
391.60	2772.95
391.81	2787.29
392.02	2670.55
392.23	3078.10
392.43	2750.42
392.64	2834.39
392.85	2662.36
393.06	2897.88
393.27	2719.70
393.47	2629.59
393.68	2650.07
393.89	2666.46
394.10	2920.40
394.31	2547.67
394.52	2527.19
394.72	2656.22
394.93	2908.12
395.14	2580.44
395.35	2791.38
395.56	2598.87
395.76	2715.61
395.97	2594.78
396.18	2715.61
396.39	2809.81
396.60	3250.13
396.80	2865.11
397.01	2801.62
397.22	2824.15
397.43	2932.69
397.64	2592.73
397.84	2682.84
398.05	3006.42
398.26	2752.47
398.47	2793.43
398.67	2803.67
398.88	2742.23
399.09	2764.76
399.30	2674.65
399.51	2695.13
399.71	2592.73
399.92	2664.41
400.13	2740.18
400.34	2590.68
400.54	2695.13
400.75	2854.87
400.96	2680.79
401.17	2869.20
401.37	2842.58
401.58	2736.09
401.79	2609.11
402.00	2777.05
402.21	3149.78
402.41	2924.50
402.62	2875.35
402.83	3057.62
403.04	3088.34
403.24	3332.05
403.45	2762.71
403.66	2879.44
403.87	2951.12
404.07	2906.07
404.28	2906.07
404.49	2901.97
404.70	2775.00
404.90	2820.05
405.11	2670.55
405.32	2789.33
405.52	2600.92
405.73	2691.03
405.94	2543.58
406.15	2670.55
406.35	2801.62
406.56	2834.39
406.77	2623.45
406.98	2662.36
407.18	2629.59
407.39	2887.64
407.60	2617.30
407.80	2734.04
408.01	2619.35
408.22	2820.05
408.43	2576.34
408.63	2744.28
408.84	2824.15
409.05	2799.57
409.25	2580.44
409.46	2600.92
409.67	2701.27
409.88	2592.73
410.08	2664.41
410.29	2613.21
410.50	2838.48
410.70	2758.61
410.91	2627.54
411.12	2662.36
411.32	2748.37
411.53	2586.58
411.74	2670.55
411.95	2740.18
412.15	2648.02
412.36	2879.44
412.57	2719.70
412.77	2805.72
412.98	2674.65
413.19	2621.40
413.39	2709.46
413.60	2629.59
413.81	2932.69
414.01	2549.72
414.22	2693.08
414.43	2699.22
414.63	2670.55
414.84	2908.12
415.05	2615.26
415.25	2428.89
415.46	2846.68
415.67	2592.73
415.87	2643.93
416.08	2568.15
416.29	2637.78
416.49	2809.81
416.70	2650.07
416.91	2609.11
417.11	2746.33
417.32	2912.21
417.53	2719.70
417.73	2775.00
417.94	2787.29
418.15	2805.72
418.35	2703.32
418.56	2639.83
418.77	3020.75
418.97	2725.85
419.18	2703.32
419.38	2439.13
419.59	2711.51
419.80	2959.31
420.00	2641.88
420.21	2660.31
420.42	2912.21
420.62	2691.03
420.83	2570.20
421.04	2648.02
421.24	2727.89
421.45	2756.57
421.65	2744.28
421.86	2623.45
422.07	2815.96
422.27	2793.43
422.48	2641.88
422.69	2617.30
422.89	2658.26
423.10	2680.79
423.30	2588.63
423.51	2695.13
423.72	2781.14
423.92	2826.20
424.13	2545.63
424.33	2701.27
424.54	2897.88
424.75	2721.75
424.95	2926.55
425.16	2631.64
425.36	2602.97
425.57	2856.92
425.78	2717.65
425.98	2775.00
426.19	2654.17
426.39	2621.40
426.60	2680.79
426.81	2768.85
427.01	2772.95
427.22	2617.30
427.42	2412.51
427.63	2523.10
427.83	2889.68
428.04	3030.99
428.25	2678.74
428.45	2826.20
428.66	2807.77
428.86	2684.89
429.07	2662.36
429.28	2695.13
429.48	2734.04
429.69	2631.64
429.89	2750.42
430.10	2602.97
430.30	2906.07
430.51	2871.25
430.71	2539.48
430.92	2666.46
431.13	2609.11
431.33	2834.39
431.54	2678.74
431.74	2916.31
431.95	3051.47
432.15	2607.06
432.36	2652.12
432.56	2738.13
432.77	2977.75
432.98	3039.19
433.18	2754.52
433.39	2576.34
433.59	2703.32
433.80	3022.80
434.00	2852.82
434.21	2670.55
434.41	2619.35
434.62	3028.95
434.82	2605.02
435.03	2580.44
435.23	2736.09
435.44	2510.81
435.64	2656.22
435.85	2652.12
436.06	2889.68
436.26	2785.24
436.47	2699.22
436.67	2543.58
436.88	2678.74
437.08	2875.35
437.29	2818.00
437.49	2754.52
437.70	2904.02
437.90	2715.61
438.11	2871.25
438.31	2717.65
438.52	2881.49
438.72	2920.40
438.93	2951.12
439.13	2693.08
439.34	2861.01
439.54	2660.31
439.75	2723.80
439.95	2736.09
440.16	2627.54
440.36	2684.89
440.57	2736.09
440.77	2617.30
440.98	2752.47
441.18	2813.91
441.39	2617.30
441.59	2586.58
441.80	2969.55
442.00	2758.61
442.21	2695.13
442.41	2559.96
442.62	2889.68
442.82	2635.74
443.02	2666.46
443.23	2672.60
443.43	2709.46
443.64	2906.07
443.84	2555.86
444.05	2768.85
444.25	2760.66
444.46	2697.17
444.66	2637.78
444.87	2838.48
445.07	2514.91
445.28	2770.90
445.48	2768.85
445.69	2703.32
445.89	3071.95
446.09	2709.46
446.30	3006.42
446.50	3141.58
446.71	4517.82
446.91	5724.07
447.12	6502.30
447.32	6793.11
447.53	6453.15
447.73	5380.01
447.93	4837.30
448.14	4585.40
448.34	4548.54
448.55	3887.04
448.75	3809.22
448.96	3672.01
449.16	3370.96
449.36	3330.00
449.57	2854.87
449.77	2750.42
449.98	2699.22
450.18	2754.52
450.39	2742.23
450.59	2750.42
450.79	2781.14
451.00	2670.55
451.20	2836.44
451.41	2641.88
451.61	2742.23
451.81	2707.41
452.02	2547.67
452.22	2664.41
452.43	2600.92
452.63	2643.93
452.84	2760.66
453.04	2621.40
453.24	2715.61
453.45	2623.45
453.65	2672.60
453.86	2625.50
454.06	2815.96
454.26	2738.13
454.47	2617.30
454.67	2760.66
454.87	2871.25
455.08	2639.83
455.28	2838.48
455.49	2731.99
455.69	2699.22
455.89	3035.09
456.10	2785.24
456.30	2656.22
456.51	2828.24
456.71	2803.67
456.91	2744.28
457.12	2621.40
457.32	2799.57
457.52	2547.67
457.73	2734.04
457.93	2707.41
458.14	2731.99
458.34	2465.75
458.54	2682.84
458.75	2617.30
458.95	2858.96
459.15	2805.72
459.36	2662.36
459.56	2635.74
459.76	3067.86
459.97	2727.89
460.17	2707.41
460.37	2717.65
460.58	2731.99
460.78	2803.67
460.99	2660.31
461.19	2545.63
461.39	2717.65
461.60	2723.80
461.80	2760.66
462.00	2578.39
462.21	2791.38
462.41	2545.63
462.61	2506.71
462.82	2447.32
463.02	2762.71
463.22	2717.65
463.43	2785.24
463.63	2623.45
463.83	2887.64
464.04	2770.90
464.24	2654.17
464.44	2557.91
464.64	2795.48
464.85	2873.30
465.05	2713.56
465.25	2711.51
465.46	2631.64
465.66	2799.57
465.86	2717.65
466.07	2600.92
466.27	2707.41
466.47	2514.91
466.68	2478.04
466.88	2772.95
467.08	2842.58
467.29	2803.67
467.49	2666.46
467.69	2734.04
467.89	2772.95
468.10	2678.74
468.30	2691.03
468.50	2760.66
468.71	2904.02
468.91	2519.00
469.11	2832.34
469.31	2699.22
469.52	2594.78
469.72	2936.79
469.92	2805.72
470.13	2688.98
470.33	2766.81
470.53	2731.99
470.73	2981.84
470.94	3332.05
471.14	3317.71
471.34	3889.09
471.54	3669.96
471.75	3323.85
471.95	3180.50
472.15	3137.49
472.36	3160.02
472.56	3063.76
472.76	3100.62
472.96	3063.76
473.17	2928.60
473.37	2875.35
473.57	2701.27
473.77	2752.47
473.98	2648.02
474.18	2605.02
474.38	3203.02
474.58	2680.79
474.79	2611.16
474.99	2799.57
475.19	2877.40
475.39	2570.20
475.60	2717.65
475.80	2625.50
476.00	2793.43
476.20	2656.22
476.41	2684.89
476.61	2748.37
476.81	2924.50
477.01	2645.98
477.21	2955.22
477.42	2801.62
477.62	2605.02
477.82	2867.16
478.02	2660.31
478.23	2719.70
478.43	2572.25
478.63	2656.22
478.83	2617.30
479.03	2570.20
479.24	2867.16
479.44	2891.73
479.64	2535.39
479.84	2432.99
480.04	2658.26
480.25	2877.40
480.45	2566.10
480.65	2605.02
480.85	2940.88
481.06	2643.93
481.26	2715.61
481.46	2686.94
481.66	2861.01
481.86	2678.74
482.06	2815.96
482.27	2658.26
482.47	2674.65
482.67	2805.72
482.87	2598.87
483.07	2750.42
483.28	2719.70
483.48	2562.01
483.68	2656.22
483.88	2547.67
484.08	2506.71
484.29	2621.40
484.49	2750.42
484.69	2549.72
484.89	2983.89
485.09	2848.72
485.29	2701.27
485.50	2721.75
485.70	2693.08
485.90	2865.11
486.10	2715.61
486.30	2623.45
486.50	2963.41
486.71	2777.05
486.91	2736.09
487.11	2764.76
487.31	2529.24
487.51	2777.05
487.71	2623.45
487.91	2494.43
488.12	2598.87
488.32	2404.32
488.52	2613.21
488.72	2414.56
488.92	2768.85
489.12	2885.59
489.32	2731.99
489.53	2686.94
489.73	2482.14
489.93	2910.16
490.13	2541.53
490.33	2512.86
490.53	2729.94
490.73	2809.81
490.94	2553.82
491.14	2756.57
491.34	2885.59
491.54	2873.30
491.74	3575.75
491.94	4001.73
492.14	4339.65
492.34	4431.80
492.54	4118.47
492.75	3506.12
492.95	3669.96
493.15	3350.48
493.35	3284.94
493.55	3219.41
493.75	3106.77
493.95	3332.05
494.15	2897.88
494.35	2770.90
494.56	2742.23
494.76	2727.89
494.96	2844.63
495.16	2701.27
495.36	2746.33
495.56	2770.90
495.76	2731.99
495.96	2586.58
496.16	2662.36
496.36	2987.99
496.56	2607.06
496.77	2703.32
496.97	2754.52
497.17	2910.16
497.37	2535.39
497.57	2682.84
497.77	2779.09
497.97	2543.58
498.17	2686.94
498.37	2654.17
498.57	2820.05
498.77	2738.13
498.97	2785.24
499.17	2887.64
499.38	2750.42
499.58	2781.14
499.78	2852.82
499.98	2797.53
500.18	2682.84
500.38	2631.64
500.58	2818.00
500.78	3229.65
500.98	5343.15
501.18	7331.73
501.38	8732.54
501.58	9815.91
501.78	9406.32
501.98	7765.90
502.18	6453.15
502.38	5689.26
502.58	5457.84
502.78	4849.59
502.98	4603.83
503.18	4423.61
503.38	4063.17
503.59	3610.57
503.79	3448.78
503.99	3207.12
504.19	3094.48
504.39	3121.10
504.59	3131.34
504.79	3033.04
504.99	3291.09
505.19	2942.93
505.39	2916.31
505.59	2990.03
505.79	3024.85
505.99	2928.60
506.19	2729.94
506.39	2887.64
506.59	2615.26
506.79	2701.27
506.99	2766.81
507.19	2678.74
507.39	2799.57
507.59	2570.20
507.79	2637.78
507.99	2607.06
508.19	2678.74
508.39	2717.65
508.59	2676.70
508.79	2840.53
508.99	2965.46
509.19	2639.83
509.39	2801.62
509.59	2607.06
509.79	2590.68
509.99	2818.00
510.19	2785.24
510.39	2775.00
510.59	2705.37
510.79	2654.17
510.99	2482.14
511.19	2650.07
511.39	2924.50
511.59	2861.01
511.79	2758.61
511.99	2658.26
512.19	2926.55
512.38	2697.17
512.58	2633.69
512.78	2543.58
512.98	2938.84
513.18	2885.59
513.38	2535.39
513.58	2758.61
513.78	2818.00
513.98	2801.62
514.18	2559.96
514.38	2586.58
514.58	2766.81
514.78	2625.50
514.98	2564.06
515.18	2625.50
515.38	2490.33
515.58	2912.21
515.78	2605.02
515.98	2631.64
516.18	2756.57
516.38	2715.61
516.57	2678.74
516.77	2664.41
516.97	2752.47
517.17	2703.32
517.37	2385.88
517.57	2754.52
517.77	2670.55
517.97	2633.69
518.17	2740.18
518.37	2592.73
518.57	2602.97
518.77	2680.79
518.97	2686.94
519.16	2693.08
519.36	2940.88
519.56	2619.35
519.76	2654.17
519.96	2615.26
520.16	2951.12
520.36	2656.22
520.56	2832.34
520.76	2559.96
520.96	2654.17
521.16	2879.44
521.35	2871.25
521.55	2805.72
521.75	2748.37
521.95	2617.30
522.15	2623.45
522.35	2551.77
522.55	2629.59
522.75	2893.78
522.95	2539.48
523.14	2500.57
523.34	2818.00
523.54	2680.79
523.74	2736.09
523.94	2613.21
524.14	2480.09
524.34	2731.99
524.54	2871.25
524.73	2674.65
524.93	2801.62
525.13	2787.29
525.33	2451.42
525.53	2942.93
525.73	2805.72
525.93	2756.57
526.13	2602.97
526.32	2650.07
526.52	2914.26
526.72	2867.16
526.92	2600.92
527.12	2531.29
527.32	2539.48
527.52	2863.06
527.71	2643.93
527.91	2658.26
528.11	2664.41
528.31	2787.29
528.51	2639.83
528.71	2797.53
528.90	2758.61
529.10	2869.20
529.30	2793.43
529.50	2371.55
529.70	2742.23
529.90	2664.41
530.09	2652.12
530.29	2516.95
530.49	2572.25
530.69	3114.96
530.89	2719.70
531.09	2729.94
531.28	2678.74
531.48	2895.83
531.68	2641.88
531.88	2727.89
532.08	2779.09
532.28	2686.94
532.47	2834.39
532.67	2707.41
532.87	2822.10
533.07	2598.87
533.27	2750.42
533.46	2785.24
533.66	2736.09
533.86	2731.99
534.06	2643.93
534.26	2607.06
534.45	2652.12
534.65	2912.21
534.85	2729.94
535.05	2574.30
535.25	2811.86
535.44	2547.67
535.64	2770.90
535.84	2766.81
536.04	2660.31
536.24	2635.74
536.43	2637.78
536.63	2764.76
536.83	2740.18
537.03	2742.23
537.22	2471.90
537.42	2478.04
537.62	2740.18
537.82	2621.40
538.02	2813.91
538.21	2744.28
538.41	3174.35
538.61	2828.24
538.81	2600.92
539.00	2840.53
539.20	2592.73
539.40	2723.80
539.60	2650.07
539.79	2899.92
539.99	2652.12
540.19	2592.73
540.39	2660.31
540.58	2645.98
540.78	2922.45
540.98	2709.46
541.18	2738.13
541.37	2727.89
541.57	2727.89
541.77	2754.52
541.97	2514.91
542.16	2494.43
542.36	2711.51
542.56	2678.74
542.76	2893.78
542.95	2703.32
543.15	2803.67
543.35	2764.76
543.54	2607.06
543.74	2629.59
543.94	2967.51
544.14	2662.36
544.33	2799.57
544.53	2645.98
544.73	2746.33
544.93	2594.78
545.12	2592.73
545.32	2705.37
545.52	2693.08
545.71	2549.72
545.91	2588.63
546.11	2596.82
546.30	2514.91
546.50	2705.37
546.70	2793.43
546.90	2615.26
547.09	2459.61
547.29	2768.85
547.49	2781.14
547.68	2635.74
547.88	2662.36
548.08	2785.24
548.27	3063.76
548.47	2594.78
548.67	2680.79
548.87	2772.95
549.06	2643.93
549.26	2643.93
549.46	2793.43
549.65	2621.40
549.85	2701.27
550.05	2727.89
550.24	2666.46
550.44	2754.52
550.64	2740.18
550.83	2707.41
551.03	3010.51
551.23	2891.73
551.42	2746.33
551.62	2680.79
551.82	2695.13
552.01	2676.70
552.21	2863.06
552.41	2666.46
552.60	2987.99
552.80	2621.40
553.00	2607.06
553.19	2639.83
553.39	2893.78
553.59	2572.25
553.78	2818.00
553.98	2656.22
554.17	2594.78
554.37	2752.47
554.57	2752.47
554.76	2519.00
554.96	2596.82
555.16	2754.52
555.35	2752.47
555.55	2811.86
555.75	2820.05
555.94	2850.77
556.14	2430.94
556.33	2699.22
556.53	2723.80
556.73	2719.70
556.92	2711.51
557.12	2711.51
557.32	2979.79
557.51	2961.36
557.71	2678.74
557.90	2863.06
558.10	2940.88
558.30	2635.74
558.49	2656.22
558.69	2586.58
558.88	2795.48
559.08	2742.23
559.28	2652.12
559.47	2631.64
559.67	2777.05
559.86	2959.31
560.06	2662.36
560.26	2602.97
560.45	2766.81
560.65	2785.24
560.84	2820.05
561.04	2570.20
561.24	2820.05
561.43	2504.67
561.63	2994.13
561.82	2760.66
562.02	2809.81
562.22	2596.82
562.41	2562.01
562.61	2670.55
562.80	2543.58
563.00	3145.68
563.19	2654.17
563.39	2721.75
563.59	2828.24
563.78	2586.58
563.98	2416.60
564.17	2553.82
564.37	2473.95
564.56	2729.94
564.76	2506.71
564.96	2768.85
565.15	2815.96
565.35	3104.72
565.54	2660.31
565.74	2725.85
565.93	2801.62
566.13	2772.95
566.32	2799.57
566.52	2758.61
566.71	2752.47
566.91	2842.58
567.11	2768.85
567.30	2615.26
567.50	2775.00
567.69	2760.66
567.89	2668.50
568.08	2572.25
568.28	2746.33
568.47	2467.80
568.67	2648.02
568.86	2645.98
569.06	2844.63
569.25	2682.84
569.45	2566.10
569.64	2674.65
569.84	2703.32
570.04	2752.47
570.23	2607.06
570.43	2670.55
570.62	2885.59
570.82	3051.47
571.01	2551.77
571.21	2555.86
571.40	2621.40
571.60	2762.71
571.79	2662.36
571.99	2750.42
572.18	2580.44
572.38	2809.81
572.57	2682.84
572.77	2719.70
572.96	3153.87
573.16	2703.32
573.35	2717.65
573.55	2752.47
573.74	2797.53
573.94	2648.02
574.13	2703.32
574.33	2854.87
574.52	2928.60
574.71	2766.81
574.91	2703.32
575.10	2572.25
575.30	2658.26
575.49	2678.74
575.69	2658.26
575.88	2703.32
576.08	2768.85
576.27	2883.54
576.47	2672.60
576.66	2842.58
576.86	2914.26
577.05	2754.52
577.25	2738.13
577.44	2908.12
577.64	2703.32
577.83	2887.64
578.02	2643.93
578.22	2881.49
578.41	2998.23
578.61	2717.65
578.80	2496.47
579.00	2650.07
579.19	2742.23
579.39	2787.29
579.58	2768.85
579.77	2686.94
579.97	3018.71
580.16	2965.46
580.36	2883.54
580.55	2752.47
580.75	2785.24
580.94	2838.48
581.13	2805.72
581.33	2957.27
581.52	2674.65
581.72	3069.91
581.91	2760.66
582.11	2594.78
582.30	2875.35
582.49	2752.47
582.69	2994.13
582.88	2760.66
583.08	2766.81
583.27	2879.44
583.47	2756.57
583.66	2656.22
583.85	2645.98
584.05	2734.04
584.24	2775.00
584.44	2707.41
584.63	2885.59
584.82	2914.26
585.02	2834.39
585.21	2811.86
585.41	2856.92
585.60	2850.77
585.79	2940.88
585.99	2957.27
586.18	2815.96
586.37	3559.37
586.57	5488.56
586.76	15968.01
586.96	35149.29
587.15	49009.94
587.34	57449.62
587.54	61750.35
587.73	55168.18
587.93	39167.40
588.12	29967.93
588.31	24090.26
588.51	21268.16
588.70	19599.06
588.89	17325.82
589.09	14657.31
589.28	12844.86
589.47	9983.85
589.67	7477.13
589.86	6084.52
590.06	4540.35
590.25	3870.66
590.44	3438.54
590.64	3026.90
590.83	3018.71
591.02	2906.07
591.22	2752.47
591.41	2789.33
591.60	2807.77
591.80	3127.25
591.99	2519.00
592.18	2621.40
592.38	2875.35
592.57	2680.79
592.76	2711.51
592.96	2781.14
593.15	2768.85
593.34	2887.64
593.54	2660.31
593.73	2734.04
593.92	2842.58
594.12	2779.09
594.31	2676.70
594.50	2830.29
594.70	2887.64
594.89	3104.72
595.08	2525.15
595.28	2740.18
595.47	3225.55
595.66	2908.12
595.86	2586.58
596.05	2629.59
596.24	2643.93
596.43	3049.43
596.63	2824.15
596.82	2813.91
597.01	2832.34
597.21	3000.27
597.40	2695.13
597.59	2699.22
597.79	2719.70
597.98	2904.02
598.17	2668.50
598.36	2725.85
598.56	2893.78
598.75	2645.98
598.94	2631.64
599.14	2682.84
599.33	2672.60
599.52	2863.06
599.71	2715.61
599.91	2734.04
600.10	2799.57
600.29	2709.46
600.48	2793.43
600.68	2779.09
600.87	2736.09
601.06	2648.02
601.26	2621.40
601.45	2752.47
601.64	2736.09
601.83	2883.54
602.03	2586.58
602.22	2557.91
602.41	2951.12
602.60	3086.29
602.80	2777.05
602.99	2803.67
603.18	2629.59
603.37	2801.62
603.57	2605.02
603.76	2748.37
603.95	2942.93
604.14	2701.27
604.34	2650.07
604.53	2650.07
604.72	2770.90
604.91	2861.01
605.10	2709.46
605.30	2486.23
605.49	3071.95
605.68	2775.00
605.87	2809.81
606.07	2574.30
606.26	2744.28
606.45	2834.39
606.64	2760.66
606.84	2633.69
607.03	2815.96
607.22	2924.50
607.41	2691.03
607.60	2654.17
607.80	2887.64
607.99	2760.66
608.18	2615.26
608.37	2609.11
608.56	2645.98
608.76	2889.68
608.95	2805.72
609.14	2680.79
609.33	2869.20
609.52	2955.22
609.72	2762.71
609.91	2813.91
610.10	2824.15
610.29	3014.61
610.48	2777.05
610.68	2777.05
610.87	2729.94
611.06	2867.16
611.25	2633.69
611.44	2797.53
611.63	2709.46
611.83	2887.64
612.02	2496.47
612.21	2781.14
612.40	2488.28
612.59	2519.00
612.79	2568.15
612.98	2625.50
613.17	2967.51
613.36	2701.27
613.55	2832.34
613.74	2676.70
613.93	2789.33
614.13	2850.77
614.32	2834.39
614.51	2777.05
614.70	2736.09
614.89	2709.46
615.08	2772.95
615.28	3121.10
615.47	2621.40
615.66	2746.33
615.85	2666.46
616.04	2858.96
616.23	2731.99
616.42	2662.36
616.62	2731.99
616.81	2705.37
617.00	2736.09
617.19	2764.76
617.38	2639.83
617.57	2645.98
617.76	2799.57
617.95	2736.09
618.15	2727.89
618.34	2865.11
618.53	2607.06
618.72	2901.97
618.91	2799.57
619.10	2723.80
619.29	2709.46
619.48	2725.85
619.68	2553.82
619.87	2637.78
620.06	2514.91
620.25	2879.44
620.44	2625.50
620.63	2643.93
620.82	2762.71
621.01	2752.47
621.20	2736.09
621.39	2703.32
621.59	2777.05
621.78	2693.08
621.97	2596.82
622.16	2731.99
622.35	2783.19
622.54	2891.73
622.73	2818.00
622.92	2484.19
623.11	2856.92
623.30	2695.13
623.49	2727.89
623.68	2570.20
623.88	2861.01
624.07	2723.80
624.26	2674.65
624.45	2674.65
624.64	2684.89
624.83	2721.75
625.02	2572.25
625.21	2686.94
625.40	2748.37
625.59	2875.35
625.78	2658.26
625.97	2791.38
626.16	2930.64
626.35	2867.16
626.54	2695.13
626.74	2928.60
626.93	2645.98
627.12	2662.36
627.31	2752.47
627.50	2670.55
627.69	2813.91
627.88	2635.74
628.07	2654.17
628.26	2488.28
628.45	2576.34
628.64	2637.78
628.83	2559.96
629.02	2566.10
629.21	2930.64
629.40	2756.57
629.59	2639.83
629.78	2645.98
629.97	2789.33
630.16	2725.85
630.35	2600.92
630.54	2750.42
630.73	2629.59
630.92	2723.80
631.11	2568.15
631.30	2701.27
631.49	2844.63
631.68	2740.18
631.87	2746.33
632.06	2580.44
632.25	3086.29
632.44	2713.56
632.63	2639.83
632.82	2619.35
633.01	2711.51
633.20	2822.10
633.39	2664.41
633.58	2523.10
633.77	2779.09
633.96	2848.72
634.15	2770.90
634.34	2770.90
634.53	2738.13
634.72	2625.50
634.91	2512.86
635.10	2598.87
635.29	2846.68
635.48	2793.43
635.67	2523.10
635.86	2545.63
636.05	2953.17
636.24	2719.70
636.43	2648.02
636.62	2754.52
636.81	2443.23
637.00	2744.28
637.19	2666.46
637.38	2715.61
637.57	2707.41
637.76	2742.23
637.95	2815.96
638.14	2734.04
638.33	2801.62
638.52	2734.04
638.71	2672.60
638.89	2584.54
639.08	3004.37
639.27	2959.31
639.46	2858.96
639.65	3160.02
639.84	3145.68
640.03	3301.33
640.22	3078.10
640.41	3164.11
640.60	2813.91
640.79	2918.36
640.98	2789.33
641.17	2830.29
641.36	2949.08
641.55	2908.12
641.74	2580.44
641.92	2574.30
642.11	2701.27
642.30	2654.17
642.49	2617.30
642.68	2775.00
642.87	2725.85
643.06	2793.43
643.25	2568.15
643.44	2574.30
643.63	2717.65
643.82	2811.86
644.00	2672.60
644.19	2701.27
644.38	2629.59
644.57	2861.01
644.76	2664.41
644.95	2627.54
645.14	2791.38
645.33	2707.41
645.52	2676.70
645.71	2521.05
645.89	2605.02
646.08	2629.59
646.27	2754.52
646.46	2965.46
646.65	2506.71
646.84	2809.81
647.03	2531.29
647.22	2764.76
647.40	2822.10
647.59	2699.22
647.78	2461.66
647.97	2600.92
648.16	2564.06
648.35	2891.73
648.54	2875.35
648.73	2619.35
648.91	2797.53
649.10	2709.46
649.29	2648.02
649.48	2596.82
649.67	2852.82
649.86	2695.13
650.05	2635.74
650.23	2904.02
650.42	2686.94
650.61	2981.84
650.80	2805.72
650.99	2799.57
651.18	2861.01
651.36	2863.06
651.55	2600.92
651.74	2723.80
651.93	2807.77
652.12	2652.12
652.31	2658.26
652.49	2682.84
652.68	2695.13
652.87	2906.07
653.06	2762.71
653.25	2875.35
653.44	2697.17
653.62	2908.12
653.81	2703.32
654.00	2645.98
654.19	2922.45
654.38	3166.16
654.56	2629.59
654.75	2682.84
654.94	2811.86
655.13	2813.91
655.32	2609.11
655.51	2729.94
655.69	2609.11
655.88	2803.67
656.07	2523.10
656.26	2775.00
656.45	2666.46
656.63	2684.89
656.82	2668.50
657.01	2789.33
657.20	2658.26
657.38	2877.40
657.57	2625.50
657.76	2439.13
657.95	2830.29
658.14	2658.26
658.32	2707.41
658.51	2525.15
658.70	2787.29
658.89	2756.57
659.08	2707.41
659.26	2803.67
659.45	2652.12
659.64	2838.48
659.83	2627.54
660.01	3004.37
660.20	2742.23
660.39	2985.94
660.58	2402.27
660.76	2754.52
660.95	2486.23
661.14	2678.74
661.33	2543.58
661.51	2633.69
661.70	2625.50
661.89	2846.68
662.08	2707.41
662.26	2504.67
662.45	2648.02
662.64	2994.13
662.83	2764.76
663.01	2471.90
663.20	2662.36
663.39	2977.75
663.58	2580.44
663.76	2662.36
663.95	2815.96
664.14	2588.63
664.32	2652.12
664.51	2545.63
664.70	2482.14
664.89	2779.09
665.07	2494.43
665.26	2791.38
665.45	2545.63
665.64	2813.91
665.82	2615.26
666.01	2697.17
666.20	2609.11
666.38	2889.68
666.57	2928.60
666.76	4280.25
666.95	10219.36
667.13	17415.93
667.32	21087.93
667.51	24481.42
667.69	25280.13
667.88	21788.34
668.07	15496.98
668.25	13127.48
668.44	11030.36
668.63	9568.11
668.81	8560.51
669.00	7374.74
669.19	6698.91
669.38	5728.17
669.56	4992.95
669.75	4214.72
669.94	3760.07
670.12	3252.17
670.31	2985.94
670.50	3067.86
670.68	2940.88
670.87	2781.14
671.06	2686.94
671.24	2764.76
671.43	2926.55
671.62	2760.66
671.80	2643.93
671.99	2801.62
672.18	2727.89
672.36	2850.77
672.55	2744.28
672.74	2635.74
672.92	2744.28
673.11	2813.91
673.29	2635.74
673.48	2760.66
673.67	2621.40
673.85	2867.16
674.04	2539.48
674.23	2682.84
674.41	3028.95
674.60	2627.54
674.79	2496.47
674.97	2576.34
675.16	2766.81
675.34	2834.39
675.53	2633.69
675.72	2777.05
675.90	2926.55
676.09	2686.94
676.28	2725.85
676.46	2521.05
676.65	2775.00
676.83	2578.39
677.02	2594.78
677.21	2693.08
677.39	2791.38
677.58	2658.26
677.77	2545.63
677.95	2633.69
678.14	2680.79
678.32	2678.74
678.51	2617.30
678.70	2916.31
678.88	2643.93
679.07	2861.01
679.25	2637.78
679.44	2684.89
679.63	2596.82
679.81	2758.61
680.00	2895.83
680.18	2693.08
680.37	2990.03
680.55	2734.04
680.74	2488.28
680.93	2385.88
681.11	2701.27
681.30	2691.03
681.48	2672.60
681.67	2676.70
681.85	2807.77
682.04	2600.92
682.23	2750.42
682.41	2711.51
682.60	2691.03
682.78	2736.09
682.97	2523.10
683.15	2674.65
683.34	2750.42
683.53	2947.03
683.71	2521.05
683.90	2811.86
684.08	2951.12
684.27	2711.51
684.45	2744.28
684.64	2752.47
684.82	2697.17
685.01	2775.00
685.19	2678.74
685.38	2957.27
685.57	2752.47
685.75	2654.17
685.94	2525.15
686.12	2594.78
686.31	2645.98
686.49	2979.79
686.68	2471.90
686.86	2758.61
687.05	2725.85
687.23	2967.51
687.42	2639.83
687.60	2459.61
687.79	2815.96
687.97	2885.59
688.16	2803.67
688.34	2891.73
688.53	2490.33
688.71	2830.29
688.90	2924.50
689.08	2727.89
689.27	2443.23
689.45	2852.82
689.64	2850.77
689.82	2678.74
690.01	2824.15
690.19	2754.52
690.38	2660.31
690.56	2770.90
690.75	2562.01
690.93	2633.69
691.12	2621.40
691.30	2662.36
691.49	2684.89
691.67	2701.27
691.86	2938.84
692.04	2627.54
692.23	2637.78
692.41	2725.85
692.60	2961.36
692.78	2836.44
692.97	2781.14
693.15	2844.63
693.34	2908.12
693.52	2906.07
693.71	2627.54
693.89	2645.98
694.08	2461.66
694.26	2834.39
694.44	2848.72
694.63	2762.71
694.81	2572.25
695.00	2611.16
695.18	2772.95
695.37	3002.32
695.55	2744.28
695.74	2662.36
695.92	2654.17
696.10	2922.45
696.29	2473.95
696.47	2621.40
696.66	2537.43
696.84	2555.86
697.03	2639.83
697.21	2918.36
697.40	4110.27
697.58	2832.34
697.76	2625.50
697.95	2584.54
698.13	2652.12
698.32	2617.30
698.50	2680.79
698.68	2699.22
698.87	2772.95
699.05	3010.51
699.24	2662.36
699.42	2541.53
699.61	2744.28
699.79	2725.85
699.97	2607.06
700.16	2527.19
700.34	2514.91
700.53	2701.27
700.71	2881.49
700.89	2813.91
701.08	2668.50
701.26	2734.04
701.45	3196.88
701.63	2551.77
701.81	2731.99
702.00	2553.82
702.18	2625.50
702.37	2586.58
702.55	2914.26
702.73	2850.77
702.92	2750.42
703.10	2926.55
703.28	2910.16
703.47	2555.86
703.65	2746.33
703.84	2805.72
704.02	2703.32
704.20	2879.44
704.39	2631.64
704.57	2592.73
704.75	2869.20
704.94	2879.44
705.12	2697.17
705.30	3078.10
705.49	5805.99
705.67	12042.06
705.86	17796.85
706.04	20485.83
706.22	22785.70
706.41	22785.70
706.59	17895.15
706.77	13524.79
706.96	11468.62
707.14	10211.17
707.32	9086.84
707.51	8167.30
707.69	6434.72
707.87	5449.64
708.06	4558.78
708.24	3835.85
708.42	3383.24
708.61	3436.49
708.79	2758.61
708.97	2873.30
709.16	2828.24
709.34	2758.61
709.52	2625.50
709.71	2625.50
709.89	2930.64
710.07	2615.26
710.26	2523.10
710.44	2660.31
710.62	2789.33
710.80	2695.13
710.99	2748.37
711.17	2795.48
711.35	2596.82
711.54	2650.07
711.72	2818.00
711.90	2725.85
712.09	2770.90
712.27	2627.54
712.45	2770.90
712.63	2592.73
712.82	2691.03
713.00	2691.03
713.18	2783.19
713.37	2858.96
713.55	2877.40
713.73	2781.14
713.91	2736.09
714.10	2627.54
714.28	2666.46
714.46	2793.43
714.65	2744.28
714.83	2666.46
715.01	2836.44
715.19	2633.69
715.38	2578.39
715.56	2703.32
715.74	2531.29
715.92	2588.63
716.11	2928.60
716.29	2447.32
716.47	2742.23
716.65	2619.35
716.84	2486.23
717.02	2777.05
717.20	2514.91
717.38	2594.78
717.57	2742.23
717.75	2641.88
717.93	2654.17
718.11	2865.11
718.30	2533.34
718.48	2701.27
718.66	2867.16
718.84	2908.12
719.03	2686.94
719.21	2498.52
719.39	3030.99
719.57	2883.54
719.75	2803.67
719.94	2635.74
720.12	2594.78
720.30	2645.98
720.48	2760.66
720.67	2617.30
720.85	2519.00
721.03	2654.17
721.21	2662.36
721.39	2772.95
721.58	2781.14
721.76	2709.46
721.94	2721.75
722.12	2715.61
722.30	2922.45
722.49	2619.35
722.67	2645.98
722.85	2686.94
723.03	2506.71
723.21	2674.65
723.40	2629.59
723.58	2701.27
723.76	2805.72
723.94	2906.07
724.12	2768.85
724.30	2822.10
724.49	2813.91
724.67	2572.25
724.85	2758.61
725.03	2602.97
725.21	2856.92
725.40	2777.05
725.58	2650.07
725.76	2830.29
725.94	2777.05
726.12	2559.96
726.30	2662.36
726.49	2648.02
726.67	2652.12
726.85	2746.33
727.03	3006.42
727.21	3995.59
727.39	5134.26
727.57	5709.74
727.76	6031.27
727.94	6268.83
728.12	5593.00
728.30	4587.45
728.48	4300.73
728.66	4016.07
728.84	3653.58
729.03	3338.19
729.21	3180.50
729.39	3018.71
729.57	2785.24
729.75	2805.72
729.93	2801.62
730.11	2668.50
730.30	2662.36
730.48	2736.09
730.66	2805.72
730.84	2758.61
731.02	2779.09
731.20	2699.22
731.38	2695.13
731.56	2566.10
731.74	2557.91
731.93	2779.09
732.11	2703.32
732.29	2645.98
732.47	2889.68
732.65	2830.29
732.83	2861.01
733.01	2731.99
733.19	2639.83
733.37	2777.05
733.56	2723.80
733.74	2627.54
733.92	2869.20
734.10	2617.30
734.28	2760.66
734.46	2521.05
734.64	2783.19
734.82	2617.30
735.00	2641.88
735.18	2711.51
735.36	2766.81
735.54	2648.02
735.73	2652.12
735.91	2695.13
736.09	2938.84
736.27	2750.42
736.45	2781.14
736.63	2420.70
736.81	2719.70
736.99	2930.64
737.17	2840.53
737.35	2578.39
737.53	2727.89
737.71	2529.24
737.89	2854.87
738.07	2617.30
738.25	2541.53
738.43	2531.29
738.61	2645.98
738.80	2449.37
738.98	2613.21
739.16	2707.41
739.34	2586.58
739.52	2869.20
739.70	2654.17
739.88	2879.44
740.06	2760.66
740.24	2351.07
740.42	2918.36
740.60	2496.47
740.78	2666.46
740.96	2441.18
741.14	2600.92
741.32	2766.81
741.50	2473.95
741.68	2959.31
741.86	2924.50
742.04	2547.67
742.22	2523.10
742.40	2643.93
742.58	2750.42
742.76	2586.58
742.94	2727.89
743.12	2463.71
743.30	2729.94
743.48	2772.95
743.66	2562.01
743.84	2678.74
744.02	2686.94
744.20	2703.32
744.38	2521.05
744.56	2617.30
744.74	2973.65
744.92	2793.43
745.10	2830.29
745.28	2768.85
745.46	2985.94
745.64	2672.60
745.82	2766.81
746.00	2670.55
746.18	2795.48
746.36	2531.29
746.54	2789.33
746.72	2676.70
746.90	2596.82
747.08	2840.53
747.26	2551.77
747.44	2752.47
747.62	2850.77
747.80	2801.62
747.98	2693.08
748.15	2693.08
748.33	2990.03
748.51	2662.36
748.69	2754.52
748.87	2588.63
749.05	2707.41
749.23	2666.46
749.41	2641.88
749.59	2641.88
749.77	2842.58
749.95	2672.60
750.13	2703.32
750.31	2807.77
750.49	2693.08
750.67	2809.81
750.85	2840.53
751.03	2654.17
751.20	2944.98
751.38	2744.28
751.56	2598.87
751.74	2609.11
751.92	2637.78
752.10	2549.72
752.28	2832.34
752.46	2629.59
752.64	2668.50
752.82	2768.85
753.00	2781.14
753.18	2641.88
753.35	2705.37
753.53	2713.56
753.71	2637.78
753.89	2713.56
754.07	2789.33
754.25	2840.53
754.43	2717.65
754.61	2564.06
754.79	2750.42
754.97	2695.13
755.14	2826.20
755.32	2516.95
755.50	2711.51
755.68	2777.05
755.86	2488.28
756.04	2594.78
756.22	2488.28
756.40	2863.06
756.57	2969.55
756.75	2555.86
756.93	2822.10
757.11	2809.81
757.29	2572.25
757.47	2549.72
757.65	2500.57
757.82	2445.27
758.00	2510.81
758.18	2670.55
758.36	2635.74
758.54	2959.31
758.72	2482.14
758.90	2768.85
759.07	2871.25
759.25	2557.91
759.43	2658.26
759.61	2545.63
759.79	3903.43
759.97	2824.15
760.15	2596.82
760.32	2568.15
760.50	2861.01
760.68	2883.54
760.86	2465.75
761.04	2861.01
761.22	2879.44
761.39	2750.42
761.57	2777.05
761.75	2648.02
761.93	2783.19
762.11	2711.51
762.28	2723.80
762.46	2521.05
762.64	2777.05
762.82	2459.61
763.00	2643.93
763.18	2846.68
763.35	2564.06
763.53	2807.77
763.71	2633.69
763.89	2695.13
764.07	2746.33
764.24	2707.41
764.42	2775.00
764.60	2629.59
764.78	2809.81
764.96	2781.14
765.13	2818.00
765.31	2570.20
765.49	2854.87
765.67	2539.48
765.84	2586.58
766.02	2543.58
766.20	2568.15
766.38	2691.03
766.56	2742.23
766.73	2756.57
766.91	2697.17
767.09	2752.47
767.27	2684.89
767.44	2539.48
767.62	2770.90
767.80	2734.04
767.98	2615.26
768.15	2643.93
768.33	2867.16
768.51	2842.58
768.69	2678.74
768.87	2693.08
769.04	2742.23
769.22	3133.39
769.40	2828.24
769.58	2832.34
769.75	2809.81
769.93	2897.88
770.11	2705.37
770.28	2576.34
770.46	2871.25
770.64	2668.50
770.82	2660.31
770.99	2619.35
771.17	2760.66
771.35	2676.70
771.53	2633.69
771.70	2619.35
771.88	2752.47
772.06	2613.21
772.23	2533.34
772.41	2625.50
772.59	2684.89
772.77	2576.34
772.94	2645.98
773.12	2686.94
773.30	2635.74
773.47	2705.37
773.65	2580.44
773.83	2824.15
774.01	2719.70
774.18	2424.80
774.36	2715.61
774.54	2492.38
774.71	2760.66
774.89	2539.48
775.07	2592.73
775.24	2590.68
775.42	2633.69
775.60	2928.60
775.78	2531.29
775.95	2521.05
776.13	2498.52
776.31	2449.37
776.48	2715.61
776.66	2764.76
776.84	2674.65
777.01	2586.58
777.19	2502.62
777.37	2613.21
777.54	2783.19
777.72	2987.99
777.90	2652.12
778.07	2525.15
778.25	3219.41
778.43	2795.48
778.60	2523.10
778.78	2705.37
778.96	2861.01
779.13	2504.67
779.31	2758.61
779.49	2631.64
779.66	2750.42
779.84	2621.40
780.01	2568.15
780.19	2539.48
780.37	2916.31
780.54	2824.15
780.72	2615.26
780.90	2650.07
781.07	2629.59
781.25	2672.60
781.43	2740.18
781.60	2564.06
781.78	2920.40
781.95	2723.80
782.13	2660.31
782.31	2639.83
782.48	2504.67
782.66	2858.96
782.83	2818.00
783.01	2772.95
783.19	2852.82
783.36	2701.27
783.54	2521.05
783.72	2760.66
783.89	2662.36
784.07	2772.95
784.24	2781.14
784.42	2789.33
784.60	2752.47
784.77	2820.05
784.95	2443.23
785.12	2605.02
785.30	2701.27
785.47	2609.11
785.65	2635.74
785.83	2650.07
786.00	2605.02
786.18	2746.33
786.35	2469.85
786.53	2543.58
786.71	2809.81
786.88	2756.57
787.06	2775.00
787.23	2619.35
787.41	2639.83
787.58	2699.22
787.76	2621.40
787.94	2617.30
788.11	2705.37
788.29	2543.58
788.46	2516.95
788.64	2447.32
788.81	2596.82
788.99	2568.15
789.16	2545.63
789.34	2627.54
789.52	2662.36
789.69	2643.93
789.87	2502.62
790.04	2605.02
790.22	2756.57
790.39	3006.42
790.57	2539.48
790.74	2523.10
790.92	2815.96
791.09	2564.06
791.27	2709.46
791.44	2758.61
791.62	2740.18
791.79	2836.44
791.97	2736.09
792.15	2975.70
792.32	2818.00
792.50	2764.76
792.67	2836.44
792.85	2891.73
793.02	2715.61
793.20	2707.41
793.37	2547.67
793.55	2547.67
793.72	2668.50
793.90	2818.00
794.07	2551.77
794.25	2607.06
794.42	2699.22
794.60	2711.51
794.77	2674.65
794.95	2783.19
795.12	2785.24
795.30	2678.74
795.47	2404.32
795.65	2947.03
795.82	2684.89
796.00	2656.22
796.17	2580.44
796.34	2613.21
796.52	2695.13
796.69	2826.20
796.87	2713.56
797.04	2758.61
797.22	2811.86
797.39	2711.51
797.57	2809.81
797.74	2811.86
797.92	2779.09
798.09	2648.02
798.27	2793.43
798.44	2572.25
798.62	2631.64
798.79	2734.04
798.96	2713.56
799.14	2662.36
799.31	3086.29
799.49	2562.01
799.66	2615.26
799.84	2713.56
800.01	2502.62
800.19	2731.99
800.36	2527.19
800.53	2705.37
800.71	2803.67
800.88	2936.79
801.06	2613.21
801.23	2613.21
801.41	2596.82
801.58	2631.64
801.75	2652.12
801.93	2754.52
802.10	2807.77
802.28	2635.74
802.45	2680.79
802.63	2727.89
802.80	2881.49
802.97	2699.22
803.15	2637.78
803.32	2596.82
803.50	2590.68
803.67	2609.11
803.84	2547.67
804.02	2695.13
804.19	2662.36
804.37	2394.08
804.54	2572.25
804.71	2519.00
804.89	2719.70
805.06	2596.82
805.24	2607.06
805.41	2543.58
805.58	2611.16
805.76	3028.95
805.93	2699.22
806.10	2865.11
806.28	2826.20
806.45	2748.37
806.63	2727.89
806.80	2711.51
806.97	2738.13
807.15	2775.00
807.32	2688.98
807.49	2699.22
807.67	2592.73
807.84	2752.47
808.01	2527.19
808.19	2875.35
808.36	3026.90
808.54	2734.04
808.71	2590.68
808.88	2756.57
809.06	2871.25
809.23	2938.84
809.40	2586.58
809.58	2715.61
809.75	2674.65
809.92	2568.15
810.10	2871.25
810.27	2613.21
810.44	2666.46
810.62	2834.39
810.79	2713.56
810.96	2637.78
811.14	2676.70
811.31	2779.09
811.48	2826.20
811.66	2645.98
811.83	2893.78
812.00	2824.15
812.18	2676.70
812.35	2971.60
812.52	2602.97
812.69	2686.94
812.87	2693.08
813.04	2621.40
813.21	2713.56
813.39	2605.02
813.56	2504.67
813.73	2820.05
813.91	2531.29
814.08	2756.57
814.25	2668.50
814.42	2430.94
814.60	2766.81
814.77	2680.79
814.94	2664.41
815.12	2760.66
815.29	2965.46
815.46	2631.64
815.63	2711.51
815.81	2621.40
815.98	2666.46
816.15	2695.13
816.33	2748.37
816.50	2645.98
816.67	2557.91
816.84	2656.22
817.02	2551.77
817.19	2588.63
817.36	2717.65
817.53	2830.29
817.71	2592.73
817.88	2781.14
818.05	2695.13
818.22	2666.46
818.40	2818.00
818.57	2619.35
818.74	2832.34
818.91	2666.46
819.09	2826.20
819.26	2727.89
819.43	2625.50
819.60	2580.44
819.78	2674.65
819.95	2662.36
820.12	2508.76
820.29	2987.99
820.47	2772.95
820.64	2584.54
820.81	2570.20
820.98	2641.88
821.15	2703.32
821.33	2781.14
821.50	2482.14
821.67	2777.05
821.84	2609.11
822.02	2682.84
822.19	2881.49
822.36	2629.59
822.53	2539.48
822.70	2508.76
822.88	2613.21
823.05	2944.98
823.22	2635.74
823.39	2660.31
823.56	2656.22
823.74	3004.37
823.91	2539.48
824.08	2537.43
824.25	2617.30
824.42	2975.70
824.60	2555.86
824.77	2740.18
824.94	2678.74
825.11	2738.13
825.28	2473.95
825.45	2725.85
825.63	2734.04
825.80	2576.34
825.97	2740.18
826.14	2678.74
826.31	2469.85
826.48	2772.95
826.66	2578.39
826.83	2623.45
827.00	2670.55
827.17	2617.30
827.34	2584.54
827.51	2621.40
827.69	2672.60
827.86	2537.43
828.03	2605.02
828.20	2670.55
828.37	2617.30
828.54	2752.47
828.71	2572.25
828.89	2818.00
829.06	2643.93
829.23	2953.17
829.40	2549.72
829.57	2516.95
829.74	2770.90
829.91	2621.40
830.09	2527.19
830.26	2725.85
830.43	2942.93
830.60	2662.36
830.77	2709.46
830.94	2824.15
831.11	2725.85
831.28	2703.32
831.46	2754.52
831.63	2629.59
831.80	2871.25
831.97	2551.77
832.14	2613.21
832.31	2686.94
832.48	2760.66
832.65	2922.45
832.82	2691.03
832.99	2686.94
833.17	2580.44
833.34	2938.84
833.51	2699.22
833.68	2469.85
833.85	2934.74
834.02	2555.86
834.19	2521.05
834.36	2527.19
834.53	2768.85
834.70	2818.00
834.87	2641.88
835.04	2453.47
835.22	2596.82
835.39	2684.89
835.56	2498.52
835.73	2609.11
835.90	2846.68
836.07	2645.98
836.24	2656.22
836.41	2582.49
836.58	2582.49
836.75	2871.25
836.92	2578.39
837.09	2559.96
837.26	2775.00
837.43	2688.98
837.60	2625.50
837.77	2547.67
837.94	2842.58
838.12	2901.97
838.29	2572.25
838.46	2473.95
838.63	2473.95
838.80	2879.44
838.97	2664.41
839.14	2539.48
839.31	2729.94
839.48	2822.10
839.65	2492.38
839.82	2654.17
839.99	2889.68
840.16	2729.94
840.33	2500.57
840.50	2586.58
840.67	2521.05
840.84	2514.91
841.01	2578.39
841.18	2498.52
841.35	2656.22
841.52	2824.15
841.69	2783.19
841.86	2582.49
842.03	2693.08
842.20	2805.72
842.37	2641.88
842.54	2637.78
842.71	2643.93
842.88	2432.99
843.05	2557.91
843.22	2584.54
843.39	2924.50
843.56	2637.78
843.73	2574.30
843.90	2670.55
844.07	2684.89
844.24	2846.68
844.41	2643.93
844.58	2627.54
844.75	2768.85
844.92	2781.14
845.09	2590.68
845.26	2521.05
845.43	2797.53
845.60	2678.74
845.77	2729.94
845.94	2594.78
846.10	2871.25
846.27	2512.86
846.44	2453.47
846.61	2416.60
846.78	2742.23
846.95	2875.35
847.12	2504.67
847.29	2650.07
847.46	2586.58
847.63	2795.48
847.80	2527.19
847.97	2559.96
848.14	3014.61
848.31	2686.94
848.48	2373.60
848.65	2654.17
848.82	2605.02
848.98	3104.72
849.15	2674.65
849.32	2678.74
849.49	2799.57
849.66	2709.46
849.83	2525.15
850.00	2473.95
850.17	2709.46
850.34	2701.27
850.51	2508.76
850.68	2494.43
850.85	3037.14
851.01	2715.61
851.18	2572.25
851.35	2590.68
851.52	2781.14
851.69	2899.92
851.86	2549.72
852.03	2492.38
852.20	2783.19
852.37	2660.31
852.53	2447.32
852.70	2469.85
852.87	2746.33
853.04	2818.00
853.21	2549.72
853.38	2824.15
853.55	2873.30
853.72	2842.58
853.89	2490.33
854.05	2504.67
854.22	2691.03
854.39	2731.99
854.56	2529.24
854.73	2744.28
854.90	2547.67
855.07	2713.56
855.23	2480.09
855.40	2506.71
855.57	2711.51
855.74	2435.03
855.91	2674.65
856.08	2422.75
856.25	2486.23
856.41	2701.27
856.58	2658.26
856.75	2607.06
856.92	2529.24
857.09	2744.28
857.26	2414.56
857.42	2568.15
857.59	2783.19
857.76	2617.30
857.93	2578.39
858.10	2631.64
858.27	2576.34
858.43	2815.96
858.60	2580.44
858.77	2412.51
858.94	2645.98
859.11	2756.57
859.27	2547.67
859.44	2502.62
859.61	2994.13
859.78	2779.09
859.95	2506.71
860.12	2574.30
860.28	3067.86
860.45	2985.94
860.62	2441.18
860.79	2682.84
860.95	2619.35
861.12	2617.30
861.29	2502.62
861.46	2484.19
861.63	2707.41
861.79	2738.13
861.96	2523.10
862.13	2539.48
862.30	2920.40
862.47	2607.06
862.63	2496.47
862.80	2645.98
862.97	2867.16
863.14	2787.29
863.30	2568.15
863.47	2471.90
863.64	2985.94
863.81	2627.54
863.97	2457.56
864.14	2615.26
864.31	2668.50
864.48	2625.50
864.65	2480.09
864.81	2697.17
864.98	2775.00
865.15	2842.58
865.32	2713.56
865.48	2656.22
865.65	2922.45
865.82	2639.83
865.98	2621.40
866.15	2588.63
866.32	2721.75
866.49	2639.83
866.65	2703.32
866.82	2600.92
866.99	2713.56
867.16	2605.02
867.32	2592.73
867.49	2500.57
867.66	2672.60
867.83	2623.45
867.99	2447.32
868.16	2639.83
868.33	2568.15
868.49	2658.26
868.66	2551.77
868.83	2635.74
868.99	2740.18
869.16	2686.94
869.33	2713.56
869.50	2615.26
869.66	2709.46
869.83	2731.99
870.00	2482.14
870.16	2740.18
870.33	2584.54
870.50	2803.67
870.66	2619.35
870.83	2615.26
871.00	2697.17
871.17	2842.58
871.33	2578.39
871.50	2508.76
871.67	2709.46
871.83	2498.52
872.00	2703.32
872.17	2535.39
872.33	2938.84
872.50	2885.59
872.67	2559.96
872.83	2539.48
873.00	2705.37
873.17	2660.31
873.33	2635.74
873.50	2645.98
873.67	2611.16
873.83	2611.16
874.00	2572.25
874.16	2672.60
874.33	2664.41
874.50	2543.58
874.66	2506.71
874.83	2584.54
875.00	2826.20
875.16	2850.77
875.33	2637.78
875.50	2359.26
875.66	2629.59
875.83	2727.89
875.99	2596.82
876.16	2559.96
876.33	2545.63
876.49	2631.64
876.66	2605.02
876.83	2529.24
876.99	2529.24
877.16	2672.60
877.32	2512.86
877.49	2592.73
877.66	2727.89
877.82	2889.68
877.99	2572.25
878.15	2723.80
878.32	2703.32
878.49	2813.91
878.65	2586.58
878.82	2701.27
878.98	2680.79
879.15	2850.77
879.32	2668.50
879.48	2639.83
879.65	2674.65
879.81	2643.93
879.98	2539.48
880.15	2615.26
880.31	2793.43
880.48	2535.39
880.64	2607.06
880.81	2697.17
880.97	2928.60
881.14	2873.30
881.31	2576.34
881.47	2783.19
881.64	2648.02
881.80	2465.75
881.97	2666.46
882.13	2662.36
882.30	2572.25
882.47	2623.45
882.63	2559.96
882.80	2523.10
882.96	2654.17
883.13	2854.87
883.29	2568.15
883.46	2547.67
883.62	2990.03
883.79	2772.95
883.95	2715.61
884.12	2531.29
884.29	2881.49
884.45	2701.27
884.62	2586.58
884.78	2519.00
884.95	2873.30
885.11	2555.86
885.28	2660.31
885.44	2605.02
885.61	2746.33
885.77	2887.64
885.94	2711.51
886.10	2625.50
886.27	2721.75
886.43	3010.51
886.60	2699.22
886.76	2555.86
886.93	2625.50
887.09	2752.47
887.26	2463.71
887.42	2629.59
887.59	2881.49
887.75	2938.84
887.92	2709.46
888.08	2691.03
888.25	2998.23
888.41	2813.91
888.58	2645.98
888.74	2504.67
888.91	2611.16
>>>>>End Processed Spectral Data<<<<<
