SpectraSuite Data File
++++++++++++++++++++++++++++++++++++
Date: Thu May 05 16:20:31 CEST 2016
User: root
Dark Spectrum Present: No
Reference Spectrum Present: No
Number of Sampled Component Spectra: 1
Spectrometers: USB4C02835
Integration Time (usec): 100000 (USB4C02835)
Spectra Averaged: 1 (USB4C02835)
Boxcar Smoothing: 0 (USB4C02835)
Correct for Electrical Dark: No (USB4C02835)
Strobe/Lamp Enabled: No (USB4C02835)
Correct for Detector Non-linearity: No (USB4C02835)
Correct for Stray Light: No (USB4C02835)
Number of Pixels in Processed Spectrum: 3648
>>>>>Begin Processed Spectral Data<<<<<
177.47	2119.65
177.69	2119.65
177.91	2119.65
178.13	2037.73
178.36	2031.58
178.58	2529.24
178.80	2748.37
179.02	2471.90
179.24	2516.95
179.46	2447.32
179.68	2545.63
179.90	2664.41
180.13	2842.58
180.35	2484.19
180.57	2519.00
180.79	2772.95
181.01	2729.94
181.23	2541.53
181.45	2631.64
181.67	2731.99
181.90	2752.47
182.12	2527.19
182.34	2379.74
182.56	2822.10
182.78	2711.51
183.00	2488.28
183.22	2527.19
183.44	2428.89
183.66	3055.57
183.89	2676.70
184.11	2547.67
184.33	2881.49
184.55	2987.99
184.77	2510.81
184.99	2568.15
185.21	2693.08
185.43	3067.86
185.65	2490.33
185.87	2439.13
186.10	3069.91
186.32	3090.38
186.54	2621.40
186.76	2639.83
186.98	2871.25
187.20	2738.13
187.42	2459.61
187.64	2482.14
187.86	2779.09
188.08	2906.07
188.30	2430.94
188.52	2504.67
188.75	2955.22
188.97	2901.97
189.19	2527.19
189.41	2498.52
189.63	2764.76
189.85	2660.31
190.07	2383.84
190.29	2443.23
190.51	2799.57
190.73	2588.63
190.95	2693.08
191.17	2553.82
191.39	2562.01
191.61	2688.98
191.84	2580.44
192.06	2555.86
192.28	2539.48
192.50	3176.40
192.72	2686.94
192.94	2605.02
193.16	2881.49
193.38	2809.81
193.60	2506.71
193.82	2631.64
194.04	2834.39
194.26	2742.23
194.48	2543.58
194.70	2482.14
194.92	2707.41
195.14	2858.96
195.36	2539.48
195.58	2478.04
195.80	2723.80
196.02	2531.29
196.24	2498.52
196.46	2562.01
196.69	2627.54
196.91	3114.96
197.13	2467.80
197.35	2459.61
197.57	2947.03
197.79	2791.38
198.01	2586.58
198.23	2490.33
198.45	2785.24
198.67	2570.20
198.89	2330.59
199.11	2602.97
199.33	2605.02
199.55	2389.98
199.77	2402.27
199.99	2693.08
200.21	2668.50
200.43	2740.18
200.65	2443.23
200.87	2310.11
201.09	2740.18
201.31	2711.51
201.53	2559.96
201.75	2576.34
201.97	2764.76
202.19	2697.17
202.41	2590.68
202.63	2686.94
202.85	2820.05
203.07	2781.14
203.29	2574.30
203.51	2461.66
203.73	2678.74
203.95	3092.43
204.17	2535.39
204.39	2564.06
204.61	2641.88
204.83	2643.93
205.05	2559.96
205.27	2572.25
205.49	3063.76
205.71	2719.70
205.93	2346.97
206.15	2441.18
206.37	2662.36
206.59	2695.13
206.81	2346.97
207.03	2473.95
207.25	2547.67
207.47	2854.87
207.69	2496.47
207.91	2723.80
208.13	2897.88
208.34	2664.41
208.56	2338.78
208.78	2516.95
209.00	2676.70
209.22	2596.82
209.44	2586.58
209.66	2398.17
209.88	2723.80
210.10	2699.22
210.32	2545.63
210.54	2617.30
210.76	2670.55
210.98	2768.85
211.20	2340.83
211.42	2588.63
211.64	2889.68
211.86	2865.11
212.08	2535.39
212.30	2512.86
212.52	2717.65
212.74	2867.16
212.96	2549.72
213.17	2596.82
213.39	2844.63
213.61	2932.69
213.83	2545.63
214.05	2398.17
214.27	2795.48
214.49	2555.86
214.71	2418.65
214.93	2639.83
215.15	2734.04
215.37	2885.59
215.59	2394.08
215.81	2580.44
216.03	2869.20
216.24	2742.23
216.46	2512.86
216.68	2512.86
216.90	2863.06
217.12	2877.40
217.34	2457.56
217.56	2613.21
217.78	2858.96
218.00	2760.66
218.22	2695.13
218.44	2527.19
218.66	2785.24
218.87	2916.31
219.09	2490.33
219.31	2533.34
219.53	2775.00
219.75	2670.55
219.97	2611.16
220.19	2543.58
220.41	2664.41
220.63	3006.42
220.85	2469.85
221.06	2531.29
221.28	2895.83
221.50	2793.43
221.72	2512.86
221.94	2586.58
222.16	2723.80
222.38	2940.88
222.60	2521.05
222.82	2490.33
223.03	2863.06
223.25	2547.67
223.47	2559.96
223.69	2635.74
223.91	2787.29
224.13	2772.95
224.35	2439.13
224.57	2645.98
224.78	2797.53
225.00	2494.43
225.22	2580.44
225.44	2504.67
225.66	2799.57
225.88	2633.69
226.10	2678.74
226.32	2432.99
226.53	2873.30
226.75	2727.89
226.97	2553.82
227.19	2510.81
227.41	2686.94
227.63	2645.98
227.85	2334.68
228.06	2531.29
228.28	2740.18
228.50	2768.85
228.72	2349.02
228.94	2469.85
229.16	2443.23
229.37	2613.21
229.59	2457.56
229.81	2725.85
230.03	2600.92
230.25	2531.29
230.47	2326.49
230.69	2486.23
230.90	2801.62
231.12	2633.69
231.34	2523.10
231.56	2559.96
231.78	2621.40
232.00	2715.61
232.21	2523.10
232.43	2482.14
232.65	2402.27
232.87	2772.95
233.09	2363.36
233.30	2516.95
233.52	2848.72
233.74	2711.51
233.96	2463.71
234.18	2600.92
234.40	2666.46
234.61	3069.91
234.83	2422.75
235.05	2506.71
235.27	3139.54
235.49	2883.54
235.70	2465.75
235.92	2570.20
236.14	2695.13
236.36	3096.53
236.58	2490.33
236.79	2615.26
237.01	2746.33
237.23	2670.55
237.45	2772.95
237.67	2488.28
237.88	2744.28
238.10	2985.94
238.32	2482.14
238.54	2539.48
238.76	2750.42
238.97	2668.50
239.19	2451.42
239.41	2598.87
239.63	2871.25
239.85	2596.82
240.06	2578.39
240.28	2486.23
240.50	2807.77
240.72	2723.80
240.93	2465.75
241.15	2670.55
241.37	2725.85
241.59	2840.53
241.81	2531.29
242.02	2531.29
242.24	2811.86
242.46	2803.67
242.68	2432.99
242.89	2435.03
243.11	2852.82
243.33	2645.98
243.55	2512.86
243.76	2519.00
243.98	2588.63
244.20	2723.80
244.42	2502.62
244.64	2562.01
244.85	2537.43
245.07	2572.25
245.29	2531.29
245.51	2527.19
245.72	2748.37
245.94	2883.54
246.16	2512.86
246.38	2494.43
246.59	2678.74
246.81	2648.02
247.03	2430.94
247.24	2363.36
247.46	2566.10
247.68	2664.41
247.90	2531.29
248.11	2545.63
248.33	2809.81
248.55	2695.13
248.77	2510.81
248.98	2629.59
249.20	2996.18
249.42	2721.75
249.64	2543.58
249.85	2396.12
250.07	2709.46
250.29	2842.58
250.50	2574.30
250.72	2412.51
250.94	2766.81
251.16	3004.37
251.37	2498.52
251.59	2574.30
251.81	2887.64
252.02	2996.18
252.24	2486.23
252.46	2695.13
252.68	2654.17
252.89	2584.54
253.11	2398.17
253.33	2691.03
253.54	2836.44
253.76	2578.39
253.98	2480.09
254.20	2451.42
254.41	2449.37
254.63	2586.58
254.85	2482.14
255.06	2582.49
255.28	2813.91
255.50	2760.66
255.71	2463.71
255.93	2353.12
256.15	2713.56
256.36	2809.81
256.58	2422.75
256.80	2439.13
257.02	2729.94
257.23	2709.46
257.45	2598.87
257.67	2611.16
257.88	2660.31
258.10	2906.07
258.32	2461.66
258.53	2533.34
258.75	2914.26
258.97	2596.82
259.18	2432.99
259.40	2494.43
259.62	2928.60
259.83	2863.06
260.05	2537.43
260.27	3162.06
260.48	2781.14
260.70	2553.82
260.92	2424.80
261.13	2523.10
261.35	2711.51
261.57	2795.48
261.78	2418.65
262.00	2490.33
262.22	2854.87
262.43	2643.93
262.65	2445.27
262.86	2535.39
263.08	3074.00
263.30	2768.85
263.51	2392.03
263.73	2451.42
263.95	2940.88
264.16	2588.63
264.38	2389.98
264.60	2506.71
264.81	2713.56
265.03	2836.44
265.25	2793.43
265.46	2500.57
265.68	2858.96
265.89	2809.81
266.11	2359.26
266.33	2537.43
266.54	2879.44
266.76	2910.16
266.98	2588.63
267.19	2654.17
267.41	2893.78
267.62	2705.37
267.84	2426.84
268.06	2578.39
268.27	2729.94
268.49	2838.48
268.70	2555.86
268.92	2514.91
269.14	2588.63
269.35	2490.33
269.57	2645.98
269.79	2617.30
270.00	2600.92
270.22	3071.95
270.43	2412.51
270.65	2410.46
270.87	2748.37
271.08	2811.86
271.30	2598.87
271.51	2504.67
271.73	2799.57
271.95	2914.26
272.16	2484.19
272.38	2584.54
272.59	2621.40
272.81	2836.44
273.02	2488.28
273.24	2631.64
273.46	2881.49
273.67	2490.33
273.89	2406.36
274.10	2484.19
274.32	2887.64
274.54	2627.54
274.75	2631.64
274.97	2631.64
275.18	2838.48
275.40	2846.68
275.61	2578.39
275.83	2615.26
276.05	2547.67
276.26	2734.04
276.48	2709.46
276.69	2602.97
276.91	2576.34
277.12	2830.29
277.34	2633.69
277.55	2725.85
277.77	2748.37
277.99	2676.70
278.20	2623.45
278.42	2535.39
278.63	2662.36
278.85	2531.29
279.06	2559.96
279.28	2762.71
279.49	2775.00
279.71	2764.76
279.93	2629.59
280.14	2664.41
280.36	2549.72
280.57	2965.46
280.79	2670.55
281.00	2496.47
281.22	2654.17
281.43	2805.72
281.65	2404.32
281.86	2512.86
282.08	2742.23
282.29	3051.47
282.51	2502.62
282.73	2475.99
282.94	2506.71
283.16	2772.95
283.37	2699.22
283.59	2645.98
283.80	2807.77
284.02	2746.33
284.23	2703.32
284.45	2660.31
284.66	2551.77
284.88	2605.02
285.09	2623.45
285.31	2701.27
285.52	2727.89
285.74	2529.24
285.95	2762.71
286.17	2650.07
286.38	2834.39
286.60	2650.07
286.81	2559.96
287.03	2652.12
287.24	2772.95
287.46	2770.90
287.67	2676.70
287.89	2820.05
288.10	2711.51
288.32	2791.38
288.53	2766.81
288.75	2621.40
288.96	2811.86
289.18	2662.36
289.39	2551.77
289.61	2607.06
289.82	2930.64
290.04	2996.18
290.25	2559.96
290.47	2637.78
290.68	2670.55
290.90	2852.82
291.11	2451.42
291.33	2711.51
291.54	2596.82
291.76	2584.54
291.97	2715.61
292.18	2645.98
292.40	2594.78
292.61	2670.55
292.83	2809.81
293.04	2744.28
293.26	2691.03
293.47	2650.07
293.69	2506.71
293.90	2613.21
294.12	2822.10
294.33	2668.50
294.55	2701.27
294.76	2721.75
294.97	3006.42
295.19	3024.85
295.40	2594.78
295.62	2701.27
295.83	2893.78
296.05	2602.97
296.26	2766.81
296.48	2566.10
296.69	2672.60
296.90	2738.13
297.12	2699.22
297.33	2742.23
297.55	2758.61
297.76	2785.24
297.98	2717.65
298.19	2703.32
298.41	2695.13
298.62	2627.54
298.83	2799.57
299.05	2668.50
299.26	2635.74
299.48	2580.44
299.69	2760.66
299.90	2609.11
300.12	2645.98
300.33	2770.90
300.55	2619.35
300.76	2650.07
300.98	2562.01
301.19	2818.00
301.40	2676.70
301.62	2621.40
301.83	2736.09
302.05	2635.74
302.26	2576.34
302.47	2637.78
302.69	2594.78
302.90	2705.37
303.12	2469.85
303.33	2662.36
303.54	2977.75
303.76	2648.02
303.97	2641.88
304.19	2756.57
304.40	2574.30
304.61	2869.20
304.83	2768.85
305.04	2707.41
305.26	2744.28
305.47	2623.45
305.68	2662.36
305.90	2551.77
306.11	2924.50
306.33	2729.94
306.54	2562.01
306.75	2486.23
306.97	2496.47
307.18	2576.34
307.39	2576.34
307.61	2727.89
307.82	2648.02
308.04	2801.62
308.25	2519.00
308.46	2605.02
308.68	2701.27
308.89	2742.23
309.10	2717.65
309.32	2637.78
309.53	2656.22
309.74	2801.62
309.96	2607.06
310.17	2760.66
310.39	2672.60
310.60	2822.10
310.81	2629.59
311.03	2547.67
311.24	2867.16
311.45	2709.46
311.67	2834.39
311.88	2703.32
312.09	2602.97
312.31	2670.55
312.52	2568.15
312.73	2482.14
312.95	2531.29
313.16	2635.74
313.37	2799.57
313.59	2731.99
313.80	2793.43
314.01	2924.50
314.23	2580.44
314.44	2469.85
314.65	2492.38
314.87	2654.17
315.08	2590.68
315.29	2594.78
315.51	2658.26
315.72	2557.91
315.93	2719.70
316.15	2643.93
316.36	2662.36
316.57	2602.97
316.79	2613.21
317.00	2523.10
317.21	2768.85
317.43	2633.69
317.64	2678.74
317.85	2594.78
318.07	2637.78
318.28	2715.61
318.49	2736.09
318.70	2840.53
318.92	2803.67
319.13	2799.57
319.34	2766.81
319.56	2578.39
319.77	2895.83
319.98	2828.24
320.20	2875.35
320.41	2756.57
320.62	2793.43
320.83	2588.63
321.05	2744.28
321.26	2621.40
321.47	2637.78
321.69	2881.49
321.90	2510.81
322.11	2574.30
322.32	2793.43
322.54	2904.02
322.75	2586.58
322.96	3196.88
323.18	2512.86
323.39	2502.62
323.60	2555.86
323.81	2734.04
324.03	2676.70
324.24	2674.65
324.45	2725.85
324.66	2564.06
324.88	2797.53
325.09	3022.80
325.30	2578.39
325.52	2570.20
325.73	2719.70
325.94	2555.86
326.15	2439.13
326.37	2545.63
326.58	2910.16
326.79	2938.84
327.00	2555.86
327.22	2553.82
327.43	2703.32
327.64	2553.82
327.85	2727.89
328.07	2607.06
328.28	3078.10
328.49	2705.37
328.70	2559.96
328.92	2588.63
329.13	2650.07
329.34	2762.71
329.55	2830.29
329.76	2674.65
329.98	2713.56
330.19	2928.60
330.40	2645.98
330.61	2691.03
330.83	2791.38
331.04	2572.25
331.25	2670.55
331.46	2623.45
331.68	2441.18
331.89	2830.29
332.10	2660.31
332.31	2453.47
332.52	2797.53
332.74	2809.81
332.95	2480.09
333.16	2652.12
333.37	2877.40
333.58	2678.74
333.80	2559.96
334.01	2432.99
334.22	2684.89
334.43	2639.83
334.64	2613.21
334.86	2496.47
335.07	2502.62
335.28	2871.25
335.49	2447.32
335.70	2672.60
335.92	2883.54
336.13	3024.85
336.34	2625.50
336.55	2641.88
336.76	2723.80
336.98	2490.33
337.19	2586.58
337.40	2754.52
337.61	3114.96
337.82	2686.94
338.04	2648.02
338.25	2486.23
338.46	2738.13
338.67	2738.13
338.88	2455.51
339.09	2506.71
339.31	2666.46
339.52	2539.48
339.73	2539.48
339.94	2674.65
340.15	2809.81
340.36	2674.65
340.58	2641.88
340.79	2471.90
341.00	2856.92
341.21	2596.82
341.42	2844.63
341.63	2678.74
341.85	2875.35
342.06	2754.52
342.27	2482.14
342.48	2699.22
342.69	2535.39
342.90	2770.90
343.12	2785.24
343.33	2605.02
343.54	2873.30
343.75	2916.31
343.96	2633.69
344.17	2527.19
344.38	2695.13
344.60	2633.69
344.81	2539.48
345.02	2584.54
345.23	2908.12
345.44	3082.19
345.65	2668.50
345.86	2631.64
346.07	2731.99
346.29	2545.63
346.50	2731.99
346.71	2705.37
346.92	2908.12
347.13	2963.41
347.34	2629.59
347.55	2582.49
347.76	2766.81
347.98	2559.96
348.19	2662.36
348.40	2777.05
348.61	2717.65
348.82	2938.84
349.03	2660.31
349.24	2473.95
349.45	2961.36
349.66	2422.75
349.88	2670.55
350.09	2547.67
350.30	2942.93
350.51	2895.83
350.72	2748.37
350.93	2654.17
351.14	2643.93
351.35	2785.24
351.56	2611.16
351.77	2602.97
351.99	2752.47
352.20	3026.90
352.41	2725.85
352.62	2400.22
352.83	2729.94
353.04	2731.99
353.25	2555.86
353.46	2596.82
353.67	2850.77
353.88	2453.47
354.09	2623.45
354.30	2650.07
354.52	2897.88
354.73	2660.31
354.94	2629.59
355.15	2641.88
355.36	3121.10
355.57	2674.65
355.78	2602.97
355.99	2537.43
356.20	2613.21
356.41	2904.02
356.62	2768.85
356.83	2652.12
357.04	2938.84
357.25	2453.47
357.46	2600.92
357.68	2473.95
357.89	2602.97
358.10	2641.88
358.31	2652.12
358.52	2623.45
358.73	2521.05
358.94	2629.59
359.15	2600.92
359.36	2686.94
359.57	2750.42
359.78	2668.50
359.99	2777.05
360.20	2488.28
360.41	2713.56
360.62	2830.29
360.83	2641.88
361.04	2682.84
361.25	2809.81
361.46	3020.75
361.67	2740.18
361.88	2752.47
362.09	2818.00
362.30	2793.43
362.51	2582.49
362.72	2662.36
362.93	2785.24
363.14	2760.66
363.35	2666.46
363.56	2508.76
363.78	2904.02
363.99	2881.49
364.20	2637.78
364.41	2709.46
364.62	3069.91
364.83	2695.13
365.04	2592.73
365.25	2637.78
365.46	3063.76
365.67	2568.15
365.88	2664.41
366.09	2652.12
366.30	2629.59
366.51	2752.47
366.72	2547.67
366.93	2621.40
367.14	2717.65
367.35	2922.45
367.56	2586.58
367.77	2715.61
367.98	2717.65
368.18	2910.16
368.39	2762.71
368.60	2539.48
368.81	2899.92
369.02	2686.94
369.23	2672.60
369.44	2435.03
369.65	2682.84
369.86	2746.33
370.07	2764.76
370.28	2537.43
370.49	2748.37
370.70	2836.44
370.91	2519.00
371.12	2527.19
371.33	2840.53
371.54	2605.02
371.75	2705.37
371.96	2410.46
372.17	2668.50
372.38	2742.23
372.59	2674.65
372.80	2660.31
373.01	2686.94
373.22	2736.09
373.43	2600.92
373.64	2613.21
373.85	2901.97
374.06	2887.64
374.26	2748.37
374.47	2672.60
374.68	2928.60
374.89	2785.24
375.10	2643.93
375.31	2787.29
375.52	2756.57
375.73	2777.05
375.94	2523.10
376.15	2770.90
376.36	2688.98
376.57	2631.64
376.78	2588.63
376.99	2731.99
377.20	2899.92
377.40	2711.51
377.61	2815.96
377.82	2580.44
378.03	2899.92
378.24	2797.53
378.45	2678.74
378.66	2572.25
378.87	2519.00
379.08	2490.33
379.29	2580.44
379.50	2770.90
379.71	2637.78
379.91	2783.19
380.12	2557.91
380.33	2641.88
380.54	2635.74
380.75	2729.94
380.96	2609.11
381.17	2623.45
381.38	2695.13
381.59	2676.70
381.80	2658.26
382.00	2752.47
382.21	2777.05
382.42	2895.83
382.63	2961.36
382.84	2623.45
383.05	2858.96
383.26	2957.27
383.47	2705.37
383.68	2629.59
383.88	2772.95
384.09	2697.17
384.30	2848.72
384.51	2678.74
384.72	2709.46
384.93	2555.86
385.14	2652.12
385.35	2807.77
385.55	2535.39
385.76	2809.81
385.97	2635.74
386.18	2498.52
386.39	2504.67
386.60	2670.55
386.81	2605.02
387.02	2488.28
387.22	2572.25
387.43	2777.05
387.64	2707.41
387.85	2861.01
388.06	2871.25
388.27	3940.29
388.48	7577.48
388.68	10995.54
388.89	13504.31
389.10	14438.18
389.31	13913.90
389.52	10919.77
389.73	9396.08
389.93	8646.52
390.14	7909.26
390.35	7026.58
390.56	6436.77
390.77	5150.64
390.98	4057.03
391.18	3499.98
391.39	3260.37
391.60	2760.66
391.81	2912.21
392.02	2652.12
392.23	3112.91
392.43	2719.70
392.64	2820.05
392.85	2688.98
393.06	2947.03
393.27	2748.37
393.47	2566.10
393.68	2658.26
393.89	2633.69
394.10	2883.54
394.31	2652.12
394.52	2590.68
394.72	2727.89
394.93	3002.32
395.14	2508.76
395.35	2727.89
395.56	2584.54
395.76	2740.18
395.97	2660.31
396.18	2723.80
396.39	2797.53
396.60	3231.69
396.80	2877.40
397.01	2830.29
397.22	2852.82
397.43	2875.35
397.64	2568.15
397.84	2777.05
398.05	3055.57
398.26	2666.46
398.47	2768.85
398.67	2746.33
398.88	2828.24
399.09	2852.82
399.30	2545.63
399.51	2713.56
399.71	2686.94
399.92	2740.18
400.13	2639.83
400.34	2623.45
400.54	2668.50
400.75	2879.44
400.96	2705.37
401.17	2852.82
401.37	2793.43
401.58	2660.31
401.79	2598.87
402.00	2783.19
402.21	3137.49
402.41	2938.84
402.62	2879.44
402.83	3035.09
403.04	3053.52
403.24	3278.80
403.45	2709.46
403.66	2971.60
403.87	2887.64
404.07	2961.36
404.28	2863.06
404.49	2815.96
404.70	2832.34
404.90	2914.26
405.11	2709.46
405.32	2785.24
405.52	2611.16
405.73	2662.36
405.94	2576.34
406.15	2592.73
406.35	2844.63
406.56	2805.72
406.77	2662.36
406.98	2658.26
407.18	2611.16
407.39	2848.72
407.60	2639.83
407.80	2691.03
408.01	2596.82
408.22	2768.85
408.43	2533.34
408.63	2746.33
408.84	2793.43
409.05	2809.81
409.25	2541.53
409.46	2537.43
409.67	2594.78
409.88	2635.74
410.08	2672.60
410.29	2537.43
410.50	2883.54
410.70	2748.37
410.91	2527.19
411.12	2623.45
411.32	2746.33
411.53	2521.05
411.74	2662.36
411.95	2678.74
412.15	2680.79
412.36	2832.34
412.57	2834.39
412.77	2770.90
412.98	2676.70
413.19	2613.21
413.39	2670.55
413.60	2639.83
413.81	2889.68
414.01	2547.67
414.22	2719.70
414.43	2764.76
414.63	2605.02
414.84	2842.58
415.05	2588.63
415.25	2428.89
415.46	2766.81
415.67	2691.03
415.87	2752.47
416.08	2592.73
416.29	2648.02
416.49	2777.05
416.70	2590.68
416.91	2662.36
417.11	2731.99
417.32	2940.88
417.53	2682.84
417.73	2701.27
417.94	2750.42
418.15	2691.03
418.35	2617.30
418.56	2670.55
418.77	3045.33
418.97	2785.24
419.18	2609.11
419.38	2365.40
419.59	2738.13
419.80	2967.51
420.00	2588.63
420.21	2639.83
420.42	2918.36
420.62	2764.76
420.83	2564.06
421.04	2562.01
421.24	2695.13
421.45	2875.35
421.65	2711.51
421.86	2598.87
422.07	2856.92
422.27	2785.24
422.48	2621.40
422.69	2519.00
422.89	2748.37
423.10	2703.32
423.30	2545.63
423.51	2641.88
423.72	2795.48
423.92	2787.29
424.13	2590.68
424.33	2676.70
424.54	2766.81
424.75	2725.85
424.95	2865.11
425.16	2654.17
425.36	2676.70
425.57	2854.87
425.78	2828.24
425.98	2715.61
426.19	2680.79
426.39	2578.39
426.60	2715.61
426.81	2797.53
427.01	2822.10
427.22	2576.34
427.42	2535.39
427.63	2562.01
427.83	2832.34
428.04	2992.08
428.25	2674.65
428.45	2734.04
428.66	2838.48
428.86	2674.65
429.07	2680.79
429.28	2678.74
429.48	2707.41
429.69	2629.59
429.89	2711.51
430.10	2594.78
430.30	2779.09
430.51	2920.40
430.71	2596.82
430.92	2670.55
431.13	2736.09
431.33	2787.29
431.54	2688.98
431.74	2873.30
431.95	2957.27
432.15	2580.44
432.36	2676.70
432.56	2707.41
432.77	3039.19
432.98	2957.27
433.18	2674.65
433.39	2555.86
433.59	2605.02
433.80	2992.08
434.00	2832.34
434.21	2709.46
434.41	2559.96
434.62	3020.75
434.82	2514.91
435.03	2545.63
435.23	2727.89
435.44	2455.51
435.64	2629.59
435.85	2637.78
436.06	2836.44
436.26	2891.73
436.47	2633.69
436.67	2586.58
436.88	2670.55
437.08	2944.98
437.29	2742.23
437.49	2760.66
437.70	2897.88
437.90	2682.84
438.11	2789.33
438.31	2709.46
438.52	2936.79
438.72	2910.16
438.93	3069.91
439.13	2729.94
439.34	2756.57
439.54	2715.61
439.75	2746.33
439.95	2711.51
440.16	2654.17
440.36	2703.32
440.57	2691.03
440.77	2697.17
440.98	2723.80
441.18	2867.16
441.39	2600.92
441.59	2504.67
441.80	2994.13
442.00	2725.85
442.21	2758.61
442.41	2480.09
442.62	2901.97
442.82	2691.03
443.02	2660.31
443.23	2707.41
443.43	2676.70
443.64	2936.79
443.84	2502.62
444.05	2791.38
444.25	2848.72
444.46	2598.87
444.66	2629.59
444.87	2897.88
445.07	2564.06
445.28	2721.75
445.48	2777.05
445.69	2719.70
445.89	3080.14
446.09	2723.80
446.30	2963.41
446.50	3131.34
446.71	4552.63
446.91	5603.24
447.12	6506.40
447.32	6813.59
447.53	6520.73
447.73	5547.95
447.93	4753.34
448.14	4458.43
448.34	4530.11
448.55	3762.12
448.75	3784.65
448.96	3643.34
449.16	3416.01
449.36	3164.11
449.57	2947.03
449.77	2791.38
449.98	2711.51
450.18	2879.44
450.39	2666.46
450.59	2791.38
450.79	2758.61
451.00	2633.69
451.20	2734.04
451.41	2731.99
451.61	2811.86
451.81	2736.09
452.02	2629.59
452.22	2705.37
452.43	2668.50
452.63	2607.06
452.84	2656.22
453.04	2580.44
453.24	2768.85
453.45	2529.24
453.65	2682.84
453.86	2693.08
454.06	2787.29
454.26	2752.47
454.47	2592.73
454.67	2809.81
454.87	2838.48
455.08	2688.98
455.28	2873.30
455.49	2727.89
455.69	2549.72
455.89	3045.33
456.10	2723.80
456.30	2617.30
456.51	2809.81
456.71	2703.32
456.91	2805.72
457.12	2711.51
457.32	2758.61
457.52	2574.30
457.73	2785.24
457.93	2822.10
458.14	2605.02
458.34	2422.75
458.54	2670.55
458.75	2600.92
458.95	2854.87
459.15	2678.74
459.36	2680.79
459.56	2641.88
459.76	3135.44
459.97	2707.41
460.17	2631.64
460.37	2772.95
460.58	2748.37
460.78	2799.57
460.99	2609.11
461.19	2623.45
461.39	2613.21
461.60	2721.75
461.80	2768.85
462.00	2494.43
462.21	2695.13
462.41	2609.11
462.61	2490.33
462.82	2508.76
463.02	2772.95
463.22	2721.75
463.43	2828.24
463.63	2658.26
463.83	3014.61
464.04	2746.33
464.24	2654.17
464.44	2572.25
464.64	2777.05
464.85	2799.57
465.05	2725.85
465.25	2588.63
465.46	2545.63
465.66	2854.87
465.86	2717.65
466.07	2713.56
466.27	2641.88
466.47	2541.53
466.68	2504.67
466.88	2772.95
467.08	2834.39
467.29	2897.88
467.49	2719.70
467.69	2633.69
467.89	2729.94
468.10	2723.80
468.30	2731.99
468.50	2734.04
468.71	2906.07
468.91	2555.86
469.11	2873.30
469.31	2641.88
469.52	2605.02
469.72	3010.51
469.92	2904.02
470.13	2736.09
470.33	2738.13
470.53	2748.37
470.73	3045.33
470.94	3213.26
471.14	3481.55
471.34	3876.80
471.54	3686.34
471.75	3403.72
471.95	3153.87
472.15	3098.58
472.36	3076.05
472.56	3016.66
472.76	3198.93
472.96	2985.94
473.17	2846.68
473.37	2877.40
473.57	2707.41
473.77	2811.86
473.98	2750.42
474.18	2467.80
474.38	3192.78
474.58	2662.36
474.79	2529.24
474.99	2750.42
475.19	2858.96
475.39	2596.82
475.60	2785.24
475.80	2744.28
476.00	2731.99
476.20	2775.00
476.41	2760.66
476.61	2760.66
476.81	2928.60
477.01	2570.20
477.21	2844.63
477.42	2746.33
477.62	2633.69
477.82	2863.06
478.02	2623.45
478.23	2729.94
478.43	2654.17
478.63	2682.84
478.83	2660.31
479.03	2684.89
479.24	2906.07
479.44	3051.47
479.64	2592.73
479.84	2445.27
480.04	2709.46
480.25	2850.77
480.45	2656.22
480.65	2596.82
480.85	2965.46
481.06	2727.89
481.26	2703.32
481.46	2668.50
481.66	2891.73
481.86	2605.02
482.06	2809.81
482.27	2693.08
482.47	2670.55
482.67	2746.33
482.87	2596.82
483.07	2711.51
483.28	2721.75
483.48	2617.30
483.68	2682.84
483.88	2559.96
484.08	2396.12
484.29	2508.76
484.49	2756.57
484.69	2457.56
484.89	2932.69
485.09	2922.45
485.29	2721.75
485.50	2762.71
485.70	2725.85
485.90	2973.65
486.10	2744.28
486.30	2652.12
486.50	2938.84
486.71	2717.65
486.91	2766.81
487.11	2725.85
487.31	2594.78
487.51	2785.24
487.71	2514.91
487.91	2562.01
488.12	2551.77
488.32	2381.79
488.52	2693.08
488.72	2453.47
488.92	2734.04
489.12	2934.74
489.32	2764.76
489.53	2654.17
489.73	2545.63
489.93	2969.55
490.13	2674.65
490.33	2504.67
490.53	2709.46
490.73	2928.60
490.94	2478.04
491.14	2752.47
491.34	2811.86
491.54	2928.60
491.74	3493.83
491.94	4044.74
492.14	4298.69
492.34	4464.57
492.54	4276.16
492.75	3522.51
492.95	3596.23
493.15	3323.85
493.35	3438.54
493.55	3186.64
493.75	3133.39
493.95	3211.22
494.15	2871.25
494.35	2736.09
494.56	2873.30
494.76	2527.19
494.96	2793.43
495.16	2629.59
495.36	2674.65
495.56	2711.51
495.76	2621.40
495.96	2688.98
496.16	2615.26
496.36	3059.67
496.56	2557.91
496.77	2768.85
496.97	2822.10
497.17	2944.98
497.37	2494.43
497.57	2693.08
497.77	2758.61
497.97	2613.21
498.17	2746.33
498.37	2736.09
498.57	2777.05
498.77	2627.54
498.97	2731.99
499.17	2930.64
499.38	2592.73
499.58	2818.00
499.78	2805.72
499.98	2731.99
500.18	2693.08
500.38	2656.22
500.58	2873.30
500.78	3211.22
500.98	5349.29
501.18	7258.00
501.38	8814.46
501.58	9770.86
501.78	9408.37
501.98	7774.09
502.18	6434.72
502.38	5590.95
502.58	5408.69
502.78	4646.84
502.98	4652.98
503.18	4374.46
503.38	4132.80
503.59	3626.95
503.79	3426.25
503.99	3196.88
504.19	3307.47
504.39	3049.43
504.59	3119.06
504.79	3076.05
504.99	3227.60
505.19	2981.84
505.39	2916.31
505.59	3061.71
505.79	2963.41
505.99	2944.98
506.19	2617.30
506.39	2871.25
506.59	2668.50
506.79	2707.41
506.99	2832.34
507.19	2723.80
507.39	2725.85
507.59	2531.29
507.79	2621.40
507.99	2586.58
508.19	2740.18
508.39	2703.32
508.59	2627.54
508.79	2807.77
508.99	2977.75
509.19	2613.21
509.39	2717.65
509.59	2480.09
509.79	2586.58
509.99	2764.76
510.19	2785.24
510.39	2785.24
510.59	2717.65
510.79	2625.50
510.99	2574.30
511.19	2688.98
511.39	2873.30
511.59	2920.40
511.79	2746.33
511.99	2629.59
512.19	3047.38
512.38	2682.84
512.58	2570.20
512.78	2596.82
512.98	2873.30
513.18	2897.88
513.38	2541.53
513.58	2658.26
513.78	2666.46
513.98	2799.57
514.18	2781.14
514.38	2627.54
514.58	2813.91
514.78	2629.59
514.98	2539.48
515.18	2578.39
515.38	2590.68
515.58	3002.32
515.78	2570.20
515.98	2725.85
516.18	2807.77
516.38	2686.94
516.57	2576.34
516.77	2596.82
516.97	2826.20
517.17	2668.50
517.37	2475.99
517.57	2764.76
517.77	2727.89
517.97	2580.44
518.17	2801.62
518.37	2588.63
518.57	2600.92
518.77	2617.30
518.97	2717.65
519.16	2643.93
519.36	2777.05
519.56	2643.93
519.76	2629.59
519.96	2742.23
520.16	2912.21
520.36	2582.49
520.56	2795.48
520.76	2621.40
520.96	2627.54
521.16	2797.53
521.35	2822.10
521.55	2930.64
521.75	2777.05
521.95	2611.16
522.15	2559.96
522.35	2484.19
522.55	2615.26
522.75	2875.35
522.95	2633.69
523.14	2609.11
523.34	2801.62
523.54	2711.51
523.74	2734.04
523.94	2674.65
524.14	2510.81
524.34	2781.14
524.54	2850.77
524.73	2654.17
524.93	2734.04
525.13	2695.13
525.33	2537.43
525.53	2940.88
525.73	2844.63
525.93	2727.89
526.13	2686.94
526.32	2588.63
526.52	2887.64
526.72	2809.81
526.92	2627.54
527.12	2627.54
527.32	2486.23
527.52	2793.43
527.71	2672.60
527.91	2580.44
528.11	2695.13
528.31	2723.80
528.51	2504.67
528.71	2777.05
528.90	2750.42
529.10	2908.12
529.30	2684.89
529.50	2355.16
529.70	2809.81
529.90	2721.75
530.09	2637.78
530.29	2607.06
530.49	2623.45
530.69	3084.24
530.89	2684.89
531.09	2731.99
531.28	2668.50
531.48	2975.70
531.68	2723.80
531.88	2674.65
532.08	2863.06
532.28	2686.94
532.47	2781.14
532.67	2801.62
532.87	2840.53
533.07	2586.58
533.27	2748.37
533.46	2695.13
533.66	2834.39
533.86	2637.78
534.06	2590.68
534.26	2715.61
534.45	2662.36
534.65	2930.64
534.85	2768.85
535.05	2625.50
535.25	2826.20
535.44	2478.04
535.64	2805.72
535.84	2555.86
536.04	2660.31
536.24	2699.22
536.43	2674.65
536.63	2686.94
536.83	2719.70
537.03	2721.75
537.22	2506.71
537.42	2445.27
537.62	2736.09
537.82	2576.34
538.02	2871.25
538.21	2781.14
538.41	3114.96
538.61	2768.85
538.81	2750.42
539.00	2781.14
539.20	2512.86
539.40	2592.73
539.60	2672.60
539.79	2744.28
539.99	2686.94
540.19	2582.49
540.39	2678.74
540.58	2676.70
540.78	2838.48
540.98	2719.70
541.18	2752.47
541.37	2707.41
541.57	2740.18
541.77	2781.14
541.97	2576.34
542.16	2490.33
542.36	2664.41
542.56	2648.02
542.76	2781.14
542.95	2674.65
543.15	2842.58
543.35	2799.57
543.54	2621.40
543.74	2533.34
543.94	2947.03
544.14	2592.73
544.33	2777.05
544.53	2695.13
544.73	2631.64
544.93	2680.79
545.12	2570.20
545.32	2631.64
545.52	2643.93
545.71	2502.62
545.91	2654.17
546.11	2666.46
546.30	2537.43
546.50	2686.94
546.70	2693.08
546.90	2668.50
547.09	2422.75
547.29	2740.18
547.49	2762.71
547.68	2656.22
547.88	2629.59
548.08	2822.10
548.27	3039.19
548.47	2619.35
548.67	2619.35
548.87	2754.52
549.06	2734.04
549.26	2666.46
549.46	2719.70
549.65	2682.84
549.85	2629.59
550.05	2688.98
550.24	2519.00
550.44	2752.47
550.64	2660.31
550.83	2656.22
551.03	3014.61
551.23	2944.98
551.42	2752.47
551.62	2744.28
551.82	2686.94
552.01	2756.57
552.21	2832.34
552.41	2682.84
552.60	2985.94
552.80	2752.47
553.00	2619.35
553.19	2711.51
553.39	3016.66
553.59	2611.16
553.78	2803.67
553.98	2623.45
554.17	2568.15
554.37	2838.48
554.57	2723.80
554.76	2539.48
554.96	2639.83
555.16	2711.51
555.35	2789.33
555.55	2756.57
555.75	2834.39
555.94	2834.39
556.14	2404.32
556.33	2602.97
556.53	2703.32
556.73	2699.22
556.92	2762.71
557.12	2709.46
557.32	3063.76
557.51	2963.41
557.71	2668.50
557.90	2781.14
558.10	2936.79
558.30	2645.98
558.49	2613.21
558.69	2668.50
558.88	2789.33
559.08	2775.00
559.28	2635.74
559.47	2686.94
559.67	2883.54
559.86	2975.70
560.06	2594.78
560.26	2662.36
560.45	2818.00
560.65	2680.79
560.84	2844.63
561.04	2539.48
561.24	2834.39
561.43	2631.64
561.63	2850.77
561.82	2772.95
562.02	2793.43
562.22	2596.82
562.41	2643.93
562.61	2566.10
562.80	2635.74
563.00	3067.86
563.19	2770.90
563.39	2731.99
563.59	2863.06
563.78	2607.06
563.98	2402.27
564.17	2631.64
564.37	2449.37
564.56	2736.09
564.76	2543.58
564.96	2799.57
565.15	2770.90
565.35	3088.34
565.54	2656.22
565.74	2715.61
565.93	2785.24
566.13	2750.42
566.32	2731.99
566.52	2697.17
566.71	2695.13
566.91	2906.07
567.11	2699.22
567.30	2547.67
567.50	2826.20
567.69	2838.48
567.89	2654.17
568.08	2568.15
568.28	2684.89
568.47	2547.67
568.67	2719.70
568.86	2631.64
569.06	2932.69
569.25	2711.51
569.45	2533.34
569.64	2539.48
569.84	2643.93
570.04	2748.37
570.23	2613.21
570.43	2637.78
570.62	2668.50
570.82	2973.65
571.01	2578.39
571.21	2590.68
571.40	2553.82
571.60	2834.39
571.79	2678.74
571.99	2748.37
572.18	2684.89
572.38	2711.51
572.57	2674.65
572.77	2680.79
572.96	3153.87
573.16	2756.57
573.35	2660.31
573.55	2871.25
573.74	2787.29
573.94	2738.13
574.13	2627.54
574.33	2748.37
574.52	2947.03
574.71	2725.85
574.91	2703.32
575.10	2588.63
575.30	2711.51
575.49	2613.21
575.69	2543.58
575.88	2682.84
576.08	2703.32
576.27	2930.64
576.47	2678.74
576.66	2803.67
576.86	2897.88
577.05	2783.19
577.25	2686.94
577.44	2910.16
577.64	2629.59
577.83	2836.44
578.02	2623.45
578.22	2809.81
578.41	2955.22
578.61	2772.95
578.80	2502.62
579.00	2703.32
579.19	2721.75
579.39	2799.57
579.58	2750.42
579.77	2645.98
579.97	3002.32
580.16	2891.73
580.36	2838.48
580.55	2809.81
580.75	2830.29
580.94	2787.29
581.13	2875.35
581.33	2908.12
581.52	2756.57
581.72	3024.85
581.91	2873.30
582.11	2555.86
582.30	2916.31
582.49	2795.48
582.69	2928.60
582.88	2662.36
583.08	2760.66
583.27	2965.46
583.47	2691.03
583.66	2660.31
583.85	2514.91
584.05	2752.47
584.24	2824.15
584.44	2815.96
584.63	2881.49
584.82	2901.97
585.02	2881.49
585.21	2803.67
585.41	2846.68
585.60	2826.20
585.79	2904.02
585.99	2994.13
586.18	2803.67
586.37	3551.18
586.57	5414.83
586.76	15939.34
586.96	35122.66
587.15	48461.08
587.34	56636.58
587.54	61121.63
587.73	55006.39
587.93	38731.18
588.12	29294.14
588.31	23799.44
588.51	21024.45
588.70	19556.05
588.89	17346.30
589.09	14657.31
589.28	12431.17
589.47	10022.76
589.67	7667.60
589.86	6031.27
590.06	4595.64
590.25	3981.25
590.44	3389.39
590.64	3110.86
590.83	3022.80
591.02	3065.81
591.22	2695.13
591.41	2768.85
591.60	2697.17
591.80	3063.76
591.99	2543.58
592.18	2605.02
592.38	2850.77
592.57	2654.17
592.76	2684.89
592.96	2711.51
593.15	2785.24
593.34	2869.20
593.54	2695.13
593.73	2844.63
593.92	2809.81
594.12	2801.62
594.31	2701.27
594.50	2908.12
594.70	2768.85
594.89	3123.15
595.08	2574.30
595.28	2815.96
595.47	3143.63
595.66	2916.31
595.86	2594.78
596.05	2590.68
596.24	2691.03
596.43	2975.70
596.63	2799.57
596.82	2797.53
597.01	2818.00
597.21	3026.90
597.40	2756.57
597.59	2797.53
597.79	2731.99
597.98	2813.91
598.17	2705.37
598.36	2637.78
598.56	2801.62
598.75	2648.02
598.94	2723.80
599.14	2670.55
599.33	2703.32
599.52	2856.92
599.71	2752.47
599.91	2727.89
600.10	2871.25
600.29	2672.60
600.48	2744.28
600.68	2779.09
600.87	2740.18
601.06	2609.11
601.26	2717.65
601.45	2697.17
601.64	2779.09
601.83	3008.47
602.03	2584.54
602.22	2602.97
602.41	2922.45
602.60	3131.34
602.80	2711.51
602.99	2770.90
603.18	2637.78
603.37	2766.81
603.57	2654.17
603.76	2734.04
603.95	2885.59
604.14	2709.46
604.34	2605.02
604.53	2596.82
604.72	2863.06
604.91	2805.72
605.10	2701.27
605.30	2519.00
605.49	2961.36
605.68	2875.35
605.87	2717.65
606.07	2580.44
606.26	2707.41
606.45	2826.20
606.64	2645.98
606.84	2643.93
607.03	2750.42
607.22	2854.87
607.41	2717.65
607.60	2621.40
607.80	2883.54
607.99	2695.13
608.18	2584.54
608.37	2650.07
608.56	2580.44
608.76	2850.77
608.95	2867.16
609.14	2666.46
609.33	2947.03
609.52	2961.36
609.72	2721.75
609.91	2836.44
610.10	2809.81
610.29	2940.88
610.48	2789.33
610.68	2848.72
610.87	2668.50
611.06	2940.88
611.25	2611.16
611.44	2752.47
611.63	2717.65
611.83	2881.49
612.02	2529.24
612.21	2744.28
612.40	2455.51
612.59	2584.54
612.79	2555.86
612.98	2670.55
613.17	2977.75
613.36	2781.14
613.55	2801.62
613.74	2746.33
613.93	2721.75
614.13	2813.91
614.32	2916.31
614.51	2770.90
614.70	2688.98
614.89	2731.99
615.08	2723.80
615.28	3196.88
615.47	2594.78
615.66	2768.85
615.85	2750.42
616.04	2768.85
616.23	2750.42
616.42	2779.09
616.62	2772.95
616.81	2664.41
617.00	2793.43
617.19	2867.16
617.38	2686.94
617.57	2783.19
617.76	2858.96
617.95	2850.77
618.15	2815.96
618.34	2910.16
618.53	2480.09
618.72	2875.35
618.91	2885.59
619.10	2813.91
619.29	2725.85
619.48	2748.37
619.68	2535.39
619.87	2613.21
620.06	2607.06
620.25	2834.39
620.44	2697.17
620.63	2678.74
620.82	2770.90
621.01	2752.47
621.20	2654.17
621.39	2703.32
621.59	2744.28
621.78	2797.53
621.97	2695.13
622.16	2828.24
622.35	2725.85
622.54	2815.96
622.73	2815.96
622.92	2430.94
623.11	2842.58
623.30	2652.12
623.49	2787.29
623.68	2596.82
623.88	2897.88
624.07	2658.26
624.26	2584.54
624.45	2641.88
624.64	2627.54
624.83	2815.96
625.02	2695.13
625.21	2703.32
625.40	2797.53
625.59	2899.92
625.78	2637.78
625.97	2775.00
626.16	2924.50
626.35	2942.93
626.54	2754.52
626.74	2858.96
626.93	2631.64
627.12	2729.94
627.31	2731.99
627.50	2723.80
627.69	2930.64
627.88	2609.11
628.07	2709.46
628.26	2480.09
628.45	2598.87
628.64	2572.25
628.83	2734.04
629.02	2475.99
629.21	2752.47
629.40	2768.85
629.59	2598.87
629.78	2613.21
629.97	2727.89
630.16	2742.23
630.35	2633.69
630.54	2629.59
630.73	2674.65
630.92	2684.89
631.11	2568.15
631.30	2648.02
631.49	2895.83
631.68	2738.13
631.87	2752.47
632.06	2555.86
632.25	3104.72
632.44	2715.61
632.63	2744.28
632.82	2729.94
633.01	2684.89
633.20	2791.38
633.39	2639.83
633.58	2465.75
633.77	2736.09
633.96	2838.48
634.15	2676.70
634.34	2676.70
634.53	2815.96
634.72	2691.03
634.91	2488.28
635.10	2691.03
635.29	2873.30
635.48	2734.04
635.67	2557.91
635.86	2533.34
636.05	2899.92
636.24	2686.94
636.43	2660.31
636.62	2729.94
636.81	2406.36
637.00	2662.36
637.19	2695.13
637.38	2719.70
637.57	2635.74
637.76	2750.42
637.95	2861.01
638.14	2650.07
638.33	2740.18
638.52	2738.13
638.71	2547.67
638.89	2562.01
639.08	3145.68
639.27	2854.87
639.46	2904.02
639.65	3252.17
639.84	3213.26
640.03	3358.67
640.22	3184.59
640.41	3119.06
640.60	2801.62
640.79	2899.92
640.98	2748.37
641.17	2785.24
641.36	2846.68
641.55	2883.54
641.74	2531.29
641.92	2557.91
642.11	2662.36
642.30	2680.79
642.49	2564.06
642.68	2590.68
642.87	2828.24
643.06	2805.72
643.25	2588.63
643.44	2504.67
643.63	2684.89
643.82	2813.91
644.00	2523.10
644.19	2602.97
644.38	2607.06
644.57	2781.14
644.76	2693.08
644.95	2709.46
645.14	2705.37
645.33	2596.82
645.52	2731.99
645.71	2545.63
645.89	2619.35
646.08	2723.80
646.27	2650.07
646.46	2807.77
646.65	2549.72
646.84	2684.89
647.03	2547.67
647.22	2727.89
647.40	2719.70
647.59	2811.86
647.78	2459.61
647.97	2568.15
648.16	2557.91
648.35	2887.64
648.54	2811.86
648.73	2629.59
648.91	2836.44
649.10	2695.13
649.29	2580.44
649.48	2629.59
649.67	2719.70
649.86	2793.43
650.05	2691.03
650.23	2856.92
650.42	2660.31
650.61	2975.70
650.80	2873.30
650.99	2985.94
651.18	2844.63
651.36	2834.39
651.55	2574.30
651.74	2818.00
651.93	2744.28
652.12	2746.33
652.31	2731.99
652.49	2609.11
652.68	2709.46
652.87	2967.51
653.06	2605.02
653.25	2930.64
653.44	2705.37
653.62	2947.03
653.81	2691.03
654.00	2586.58
654.19	2901.97
654.38	3155.92
654.56	2783.19
654.75	2615.26
654.94	2805.72
655.13	2723.80
655.32	2666.46
655.51	2723.80
655.69	2623.45
655.88	2801.62
656.07	2578.39
656.26	2740.18
656.45	2611.16
656.63	2742.23
656.82	2662.36
657.01	2891.73
657.20	2686.94
657.38	2891.73
657.57	2695.13
657.76	2449.37
657.95	2809.81
658.14	2600.92
658.32	2725.85
658.51	2529.24
658.70	2752.47
658.89	2703.32
659.08	2627.54
659.26	2854.87
659.45	2629.59
659.64	2838.48
659.83	2570.20
660.01	2981.84
660.20	2754.52
660.39	2944.98
660.58	2389.98
660.76	2748.37
660.95	2596.82
661.14	2815.96
661.33	2545.63
661.51	2637.78
661.70	2693.08
661.89	2770.90
662.08	2631.64
662.26	2506.71
662.45	2596.82
662.64	3008.47
662.83	2760.66
663.01	2480.09
663.20	2600.92
663.39	2926.55
663.58	2691.03
663.76	2609.11
663.95	2791.38
664.14	2582.49
664.32	2629.59
664.51	2494.43
664.70	2475.99
664.89	2775.00
665.07	2566.10
665.26	2791.38
665.45	2559.96
665.64	2791.38
665.82	2607.06
666.01	2801.62
666.20	2541.53
666.38	2895.83
666.57	2891.73
666.76	4270.01
666.95	10012.52
667.13	16916.22
667.32	21235.39
667.51	23891.60
667.69	25147.01
667.88	21563.06
668.07	15327.00
668.25	12775.23
668.44	11018.07
668.63	9564.01
668.81	8359.81
669.00	7387.02
669.19	6670.23
669.38	5828.52
669.56	4935.60
669.75	4190.14
669.94	3755.97
670.12	3239.89
670.31	3030.99
670.50	2908.12
670.68	2924.50
670.87	2871.25
671.06	2615.26
671.24	2693.08
671.43	2998.23
671.62	2822.10
671.80	2619.35
671.99	2781.14
672.18	2723.80
672.36	2818.00
672.55	2748.37
672.74	2678.74
672.92	2693.08
673.11	2842.58
673.29	2488.28
673.48	2887.64
673.67	2635.74
673.85	2883.54
674.04	2531.29
674.23	2777.05
674.41	2992.08
674.60	2543.58
674.79	2455.51
674.97	2502.62
675.16	2938.84
675.34	2932.69
675.53	2617.30
675.72	2705.37
675.90	2977.75
676.09	2648.02
676.28	2740.18
676.46	2492.38
676.65	2766.81
676.83	2629.59
677.02	2715.61
677.21	2764.76
677.39	2783.19
677.58	2629.59
677.77	2578.39
677.95	2578.39
678.14	2672.60
678.32	2668.50
678.51	2596.82
678.70	3008.47
678.88	2658.26
679.07	2746.33
679.25	2750.42
679.44	2666.46
679.63	2557.91
679.81	2723.80
680.00	2844.63
680.18	2807.77
680.37	2949.08
680.55	2717.65
680.74	2510.81
680.93	2500.57
681.11	2744.28
681.30	2701.27
681.48	2600.92
681.67	2637.78
681.85	2707.41
682.04	2562.01
682.23	2697.17
682.41	2725.85
682.60	2709.46
682.78	2670.55
682.97	2492.38
683.15	2777.05
683.34	2766.81
683.53	2899.92
683.71	2494.43
683.90	2748.37
684.08	2951.12
684.27	2695.13
684.45	2781.14
684.64	2807.77
684.82	2799.57
685.01	2836.44
685.19	2637.78
685.38	2963.41
685.57	2740.18
685.75	2621.40
685.94	2566.10
686.12	2553.82
686.31	2607.06
686.49	3000.27
686.68	2471.90
686.86	2703.32
687.05	2672.60
687.23	2887.64
687.42	2576.34
687.60	2473.95
687.79	2871.25
687.97	2971.60
688.16	2811.86
688.34	2858.96
688.53	2492.38
688.71	2807.77
688.90	2901.97
689.08	2611.16
689.27	2523.10
689.45	2871.25
689.64	2797.53
689.82	2660.31
690.01	2838.48
690.19	2822.10
690.38	2674.65
690.56	2777.05
690.75	2674.65
690.93	2711.51
691.12	2592.73
691.30	2723.80
691.49	2672.60
691.67	2695.13
691.86	2981.84
692.04	2674.65
692.23	2697.17
692.41	2760.66
692.60	2942.93
692.78	2852.82
692.97	2670.55
693.15	2744.28
693.34	2899.92
693.52	2875.35
693.71	2594.78
693.89	2668.50
694.08	2502.62
694.26	2736.09
694.44	2838.48
694.63	2789.33
694.81	2555.86
695.00	2629.59
695.18	2891.73
695.37	3106.77
695.55	2723.80
695.74	2629.59
695.92	2617.30
696.10	2920.40
696.29	2607.06
696.47	2664.41
696.66	2559.96
696.84	2537.43
697.03	2645.98
697.21	2969.55
697.40	4057.03
697.58	2899.92
697.76	2650.07
697.95	2580.44
698.13	2635.74
698.32	2572.25
698.50	2596.82
698.68	2680.79
698.87	2729.94
699.05	2979.79
699.24	2674.65
699.42	2551.77
699.61	2742.23
699.79	2713.56
699.97	2650.07
700.16	2537.43
700.34	2592.73
700.53	2684.89
700.71	2850.77
700.89	2772.95
701.08	2600.92
701.26	2725.85
701.45	3063.76
701.63	2666.46
701.81	2645.98
702.00	2586.58
702.18	2713.56
702.37	2621.40
702.55	2983.89
702.73	2844.63
702.92	2705.37
703.10	2949.08
703.28	2777.05
703.47	2562.01
703.65	2838.48
703.84	2731.99
704.02	2668.50
704.20	2965.46
704.39	2523.10
704.57	2609.11
704.75	2830.29
704.94	2869.20
705.12	2693.08
705.30	3108.82
705.49	5828.52
705.67	12009.29
705.86	17929.97
706.04	20408.01
706.22	22666.92
706.41	22759.08
706.59	17788.66
706.77	13487.92
706.96	11378.51
707.14	10432.35
707.32	8998.77
707.51	7976.84
707.69	6492.06
707.87	5351.34
708.06	4433.85
708.24	3844.04
708.42	3416.01
708.61	3420.11
708.79	2736.09
708.97	2861.01
709.16	2807.77
709.34	2748.37
709.52	2652.12
709.71	2664.41
709.89	2863.06
710.07	2678.74
710.26	2482.14
710.44	2682.84
710.62	2840.53
710.80	2760.66
710.99	2799.57
711.17	2826.20
711.35	2609.11
711.54	2678.74
711.72	2766.81
711.90	2719.70
712.09	2760.66
712.27	2658.26
712.45	2731.99
712.63	2654.17
712.82	2746.33
713.00	2703.32
713.18	2850.77
713.37	2760.66
713.55	2799.57
713.73	2854.87
713.91	2779.09
714.10	2699.22
714.28	2678.74
714.46	2750.42
714.65	2744.28
714.83	2650.07
715.01	2711.51
715.19	2744.28
715.38	2557.91
715.56	2684.89
715.74	2562.01
715.92	2580.44
716.11	2791.38
716.29	2455.51
716.47	2684.89
716.65	2592.73
716.84	2480.09
717.02	2772.95
717.20	2525.15
717.38	2572.25
717.57	2764.76
717.75	2719.70
717.93	2619.35
718.11	2818.00
718.30	2619.35
718.48	2645.98
718.66	2877.40
718.84	2877.40
719.03	2629.59
719.21	2516.95
719.39	2981.84
719.57	2754.52
719.75	2777.05
719.94	2549.72
720.12	2672.60
720.30	2658.26
720.48	2775.00
720.67	2592.73
720.85	2582.49
721.03	2645.98
721.21	2578.39
721.39	2768.85
721.58	2809.81
721.76	2701.27
721.94	2746.33
722.12	2791.38
722.30	2951.12
722.49	2701.27
722.67	2699.22
722.85	2678.74
723.03	2516.95
723.21	2633.69
723.40	2662.36
723.58	2781.14
723.76	2842.58
723.94	2947.03
724.12	2705.37
724.30	2885.59
724.49	2858.96
724.67	2559.96
724.85	2764.76
725.03	2547.67
725.21	2820.05
725.40	2809.81
725.58	2562.01
725.76	2838.48
725.94	2777.05
726.12	2611.16
726.30	2658.26
726.49	2621.40
726.67	2596.82
726.85	2742.23
727.03	3135.44
727.21	4192.19
727.39	5158.83
727.57	5676.97
727.76	6197.15
727.94	6225.82
728.12	5642.15
728.30	4622.27
728.48	4157.38
728.66	4024.26
728.84	3698.63
729.03	3241.93
729.21	3256.27
729.39	3020.75
729.57	2850.77
729.75	2897.88
729.93	2764.76
730.11	2662.36
730.30	2633.69
730.48	2652.12
730.66	2826.20
730.84	2738.13
731.02	2697.17
731.20	2621.40
731.38	2635.74
731.56	2519.00
731.74	2600.92
731.93	2699.22
732.11	2662.36
732.29	2617.30
732.47	2760.66
732.65	2875.35
732.83	2867.16
733.01	2691.03
733.19	2621.40
733.37	2789.33
733.56	2695.13
733.74	2537.43
733.92	2881.49
734.10	2674.65
734.28	2807.77
734.46	2539.48
734.64	2723.80
734.82	2637.78
735.00	2562.01
735.18	2504.67
735.36	2709.46
735.54	2719.70
735.73	2660.31
735.91	2766.81
736.09	2904.02
736.27	2711.51
736.45	2783.19
736.63	2410.46
736.81	2707.41
736.99	2867.16
737.17	2805.72
737.35	2615.26
737.53	2746.33
737.71	2660.31
737.89	2772.95
738.07	2652.12
738.25	2578.39
738.43	2455.51
738.61	2619.35
738.80	2557.91
738.98	2568.15
739.16	2676.70
739.34	2533.34
739.52	2901.97
739.70	2637.78
739.88	2826.20
740.06	2779.09
740.24	2506.71
740.42	2889.68
740.60	2500.57
740.78	2621.40
740.96	2463.71
741.14	2742.23
741.32	2709.46
741.50	2568.15
741.68	2914.26
741.86	2940.88
742.04	2641.88
742.22	2566.10
742.40	2652.12
742.58	2768.85
742.76	2623.45
742.94	2760.66
743.12	2525.15
743.30	2766.81
743.48	2752.47
743.66	2684.89
743.84	2717.65
744.02	2740.18
744.20	2791.38
744.38	2596.82
744.56	2650.07
744.74	3014.61
744.92	2764.76
745.10	2873.30
745.28	2758.61
745.46	2973.65
745.64	2611.16
745.82	2678.74
746.00	2643.93
746.18	2848.72
746.36	2619.35
746.54	2740.18
746.72	2648.02
746.90	2605.02
747.08	2973.65
747.26	2572.25
747.44	2787.29
747.62	2828.24
747.80	2791.38
747.98	2777.05
748.15	2709.46
748.33	2981.84
748.51	2719.70
748.69	2731.99
748.87	2566.10
749.05	2648.02
749.23	2686.94
749.41	2736.09
749.59	2658.26
749.77	2815.96
749.95	2658.26
750.13	2605.02
750.31	2758.61
750.49	2731.99
750.67	2887.64
750.85	2793.43
751.03	2650.07
751.20	2924.50
751.38	2779.09
751.56	2629.59
751.74	2674.65
751.92	2703.32
752.10	2607.06
752.28	2826.20
752.46	2578.39
752.64	2709.46
752.82	2727.89
753.00	2762.71
753.18	2596.82
753.35	2666.46
753.53	2709.46
753.71	2621.40
753.89	2779.09
754.07	2697.17
754.25	2770.90
754.43	2656.22
754.61	2506.71
754.79	2795.48
754.97	2717.65
755.14	2785.24
755.32	2496.47
755.50	2682.84
755.68	2686.94
755.86	2549.72
756.04	2605.02
756.22	2459.61
756.40	2842.58
756.57	2899.92
756.75	2615.26
756.93	2887.64
757.11	2836.44
757.29	2570.20
757.47	2559.96
757.65	2504.67
757.82	2461.66
758.00	2600.92
758.18	2568.15
758.36	2678.74
758.54	2942.93
758.72	2447.32
758.90	2809.81
759.07	2721.75
759.25	2588.63
759.43	2695.13
759.61	2508.76
759.79	3923.91
759.97	2883.54
760.15	2641.88
760.32	2668.50
760.50	2686.94
760.68	3008.47
760.86	2586.58
761.04	2748.37
761.22	2805.72
761.39	2715.61
761.57	2688.98
761.75	2596.82
761.93	2811.86
762.11	2662.36
762.28	2682.84
762.46	2545.63
762.64	2799.57
762.82	2525.15
763.00	2539.48
763.18	2826.20
763.35	2619.35
763.53	2760.66
763.71	2723.80
763.89	2639.83
764.07	2764.76
764.24	2715.61
764.42	2746.33
764.60	2609.11
764.78	2719.70
764.96	2764.76
765.13	2822.10
765.31	2553.82
765.49	2840.53
765.67	2598.87
765.84	2580.44
766.02	2562.01
766.20	2523.10
766.38	2680.79
766.56	2697.17
766.73	2707.41
766.91	2705.37
767.09	2744.28
767.27	2705.37
767.44	2574.30
767.62	2877.40
767.80	2811.86
767.98	2682.84
768.15	2625.50
768.33	2766.81
768.51	2832.34
768.69	2820.05
768.87	2734.04
769.04	2760.66
769.22	3043.28
769.40	2871.25
769.58	2848.72
769.75	2768.85
769.93	2869.20
770.11	2684.89
770.28	2564.06
770.46	2795.48
770.64	2688.98
770.82	2686.94
770.99	2566.10
771.17	2801.62
771.35	2613.21
771.53	2660.31
771.70	2596.82
771.88	2768.85
772.06	2658.26
772.23	2648.02
772.41	2699.22
772.59	2697.17
772.77	2537.43
772.94	2641.88
773.12	2725.85
773.30	2678.74
773.47	2777.05
773.65	2555.86
773.83	2820.05
774.01	2703.32
774.18	2482.14
774.36	2697.17
774.54	2566.10
774.71	2678.74
774.89	2418.65
775.07	2510.81
775.24	2609.11
775.42	2645.98
775.60	2973.65
775.78	2631.64
775.95	2588.63
776.13	2465.75
776.31	2463.71
776.48	2697.17
776.66	2916.31
776.84	2666.46
777.01	2564.06
777.19	2545.63
777.37	2572.25
777.54	2811.86
777.72	3067.86
777.90	2793.43
778.07	2584.54
778.25	3176.40
778.43	2858.96
778.60	2621.40
778.78	2723.80
778.96	2891.73
779.13	2504.67
779.31	2731.99
779.49	2684.89
779.66	2703.32
779.84	2727.89
780.01	2654.17
780.19	2537.43
780.37	2877.40
780.54	2764.76
780.72	2613.21
780.90	2627.54
781.07	2650.07
781.25	2592.73
781.43	2867.16
781.60	2574.30
781.78	2901.97
781.95	2764.76
782.13	2576.34
782.31	2641.88
782.48	2539.48
782.66	2639.83
782.83	2832.34
783.01	2742.23
783.19	2791.38
783.36	2684.89
783.54	2553.82
783.72	2768.85
783.89	2600.92
784.07	2766.81
784.24	2731.99
784.42	2807.77
784.60	2678.74
784.77	2867.16
784.95	2412.51
785.12	2607.06
785.30	2719.70
785.47	2553.82
785.65	2566.10
785.83	2717.65
786.00	2625.50
786.18	2699.22
786.35	2519.00
786.53	2478.04
786.71	2863.06
786.88	2818.00
787.06	2727.89
787.23	2740.18
787.41	2592.73
787.58	2650.07
787.76	2594.78
787.94	2748.37
788.11	2842.58
788.29	2531.29
788.46	2619.35
788.64	2523.10
788.81	2709.46
788.99	2619.35
789.16	2539.48
789.34	2645.98
789.52	2641.88
789.69	2664.41
789.87	2422.75
790.04	2611.16
790.22	2783.19
790.39	3000.27
790.57	2602.97
790.74	2523.10
790.92	2889.68
791.09	2543.58
791.27	2666.46
791.44	2740.18
791.62	2605.02
791.79	2875.35
791.97	2699.22
792.15	2992.08
792.32	2852.82
792.50	2840.53
792.67	2781.14
792.85	2803.67
793.02	2760.66
793.20	2682.84
793.37	2545.63
793.55	2652.12
793.72	2510.81
793.90	2752.47
794.07	2594.78
794.25	2602.97
794.42	2703.32
794.60	2555.86
794.77	2703.32
794.95	2703.32
795.12	2815.96
795.30	2664.41
795.47	2443.23
795.65	2983.89
795.82	2715.61
796.00	2568.15
796.17	2580.44
796.34	2627.54
796.52	2805.72
796.69	2844.63
796.87	2752.47
797.04	2693.08
797.22	2822.10
797.39	2717.65
797.57	2695.13
797.74	2785.24
797.92	2727.89
798.09	2701.27
798.27	2809.81
798.44	2680.79
798.62	2625.50
798.79	2783.19
798.96	2678.74
799.14	2598.87
799.31	3143.63
799.49	2670.55
799.66	2627.54
799.84	2668.50
800.01	2441.18
800.19	2734.04
800.36	2496.47
800.53	2719.70
800.71	2811.86
800.88	2963.41
801.06	2611.16
801.23	2521.05
801.41	2609.11
801.58	2629.59
801.75	2547.67
801.93	2711.51
802.10	2791.38
802.28	2652.12
802.45	2613.21
802.63	2709.46
802.80	2944.98
802.97	2699.22
803.15	2645.98
803.32	2682.84
803.50	2564.06
803.67	2662.36
803.84	2455.51
804.02	2682.84
804.19	2650.07
804.37	2357.21
804.54	2519.00
804.71	2584.54
804.89	2795.48
805.06	2574.30
805.24	2553.82
805.41	2498.52
805.58	2592.73
805.76	3037.14
805.93	2478.04
806.10	2895.83
806.28	2858.96
806.45	2830.29
806.63	2744.28
806.80	2760.66
806.97	2709.46
807.15	2768.85
807.32	2748.37
807.49	2629.59
807.67	2590.68
807.84	2772.95
808.01	2564.06
808.19	2856.92
808.36	2969.55
808.54	2605.02
808.71	2592.73
808.88	2688.98
809.06	2844.63
809.23	3008.47
809.40	2637.78
809.58	2768.85
809.75	2781.14
809.92	2555.86
810.10	2875.35
810.27	2639.83
810.44	2809.81
810.62	2789.33
810.79	2734.04
810.96	2695.13
811.14	2637.78
811.31	2854.87
811.48	2731.99
811.66	2609.11
811.83	2899.92
812.00	2760.66
812.18	2750.42
812.35	2910.16
812.52	2557.91
812.69	2621.40
812.87	2566.10
813.04	2611.16
813.21	2678.74
813.39	2539.48
813.56	2465.75
813.73	2834.39
813.91	2512.86
814.08	2717.65
814.25	2627.54
814.42	2445.27
814.60	2652.12
814.77	2682.84
814.94	2611.16
815.12	2752.47
815.29	2883.54
815.46	2664.41
815.63	2691.03
815.81	2648.02
815.98	2643.93
816.15	2707.41
816.33	2711.51
816.50	2674.65
816.67	2744.28
816.84	2645.98
817.02	2463.71
817.19	2641.88
817.36	2742.23
817.53	2803.67
817.71	2566.10
817.88	2662.36
818.05	2684.89
818.22	2631.64
818.40	2846.68
818.57	2609.11
818.74	2770.90
818.91	2715.61
819.09	2760.66
819.26	2803.67
819.43	2605.02
819.60	2629.59
819.78	2748.37
819.95	2785.24
820.12	2611.16
820.29	2846.68
820.47	2748.37
820.64	2623.45
820.81	2500.57
820.98	2557.91
821.15	2627.54
821.33	2832.34
821.50	2500.57
821.67	2850.77
821.84	2551.77
822.02	2693.08
822.19	2883.54
822.36	2744.28
822.53	2543.58
822.70	2566.10
822.88	2650.07
823.05	2914.26
823.22	2756.57
823.39	2664.41
823.56	2621.40
823.74	3006.42
823.91	2578.39
824.08	2539.48
824.25	2570.20
824.42	2947.03
824.60	2465.75
824.77	2654.17
824.94	2752.47
825.11	2797.53
825.28	2439.13
825.45	2711.51
825.63	2758.61
825.80	2576.34
825.97	2740.18
826.14	2711.51
826.31	2494.43
826.48	2842.58
826.66	2617.30
826.83	2506.71
827.00	2680.79
827.17	2555.86
827.34	2660.31
827.51	2568.15
827.69	2654.17
827.86	2551.77
828.03	2711.51
828.20	2656.22
828.37	2645.98
828.54	2828.24
828.71	2588.63
828.89	2775.00
829.06	2750.42
829.23	2959.31
829.40	2547.67
829.57	2572.25
829.74	2850.77
829.91	2652.12
830.09	2465.75
830.26	2725.85
830.43	2918.36
830.60	2609.11
830.77	2766.81
830.94	2820.05
831.11	2797.53
831.28	2639.83
831.46	2742.23
831.63	2566.10
831.80	2938.84
831.97	2656.22
832.14	2586.58
832.31	2744.28
832.48	2738.13
832.65	2865.11
832.82	2731.99
832.99	2725.85
833.17	2557.91
833.34	2906.07
833.51	2713.56
833.68	2502.62
833.85	2850.77
834.02	2510.81
834.19	2551.77
834.36	2529.24
834.53	2754.52
834.70	2865.11
834.87	2727.89
835.04	2498.52
835.22	2570.20
835.39	2688.98
835.56	2490.33
835.73	2592.73
835.90	2973.65
836.07	2551.77
836.24	2783.19
836.41	2508.76
836.58	2637.78
836.75	2838.48
836.92	2600.92
837.09	2500.57
837.26	2858.96
837.43	2740.18
837.60	2600.92
837.77	2564.06
837.94	2787.29
838.12	2899.92
838.29	2568.15
838.46	2473.95
838.63	2521.05
838.80	2879.44
838.97	2650.07
839.14	2523.10
839.31	2699.22
839.48	2756.57
839.65	2551.77
839.82	2598.87
839.99	2705.37
840.16	2656.22
840.33	2490.33
840.50	2625.50
840.67	2576.34
840.84	2389.98
841.01	2510.81
841.18	2512.86
841.35	2682.84
841.52	2807.77
841.69	2750.42
841.86	2553.82
842.03	2648.02
842.20	2899.92
842.37	2564.06
842.54	2559.96
842.71	2678.74
842.88	2498.52
843.05	2637.78
843.22	2572.25
843.39	2889.68
843.56	2664.41
843.73	2553.82
843.90	2607.06
844.07	2727.89
844.24	2838.48
844.41	2564.06
844.58	2553.82
844.75	2772.95
844.92	2723.80
845.09	2609.11
845.26	2461.66
845.43	2854.87
845.60	2609.11
845.77	2656.22
845.94	2637.78
846.10	2850.77
846.27	2576.34
846.44	2465.75
846.61	2451.42
846.78	2789.33
846.95	2901.97
847.12	2523.10
847.29	2594.78
847.46	2641.88
847.63	2779.09
847.80	2502.62
847.97	2568.15
848.14	3039.19
848.31	2684.89
848.48	2508.76
848.65	2568.15
848.82	2631.64
848.98	3076.05
849.15	2701.27
849.32	2688.98
849.49	2889.68
849.66	2723.80
849.83	2547.67
850.00	2435.03
850.17	2805.72
850.34	2654.17
850.51	2498.52
850.68	2531.29
850.85	3065.81
851.01	2801.62
851.18	2506.71
851.35	2654.17
851.52	2791.38
851.69	2881.49
851.86	2457.56
852.03	2504.67
852.20	2881.49
852.37	2781.14
852.53	2482.14
852.70	2502.62
852.87	2736.09
853.04	2867.16
853.21	2508.76
853.38	2703.32
853.55	2932.69
853.72	2926.55
853.89	2500.57
854.05	2564.06
854.22	2662.36
854.39	2744.28
854.56	2570.20
854.73	2768.85
854.90	2588.63
855.07	2674.65
855.23	2420.70
855.40	2572.25
855.57	2705.37
855.74	2459.61
855.91	2746.33
856.08	2385.88
856.25	2502.62
856.41	2568.15
856.58	2562.01
856.75	2549.72
856.92	2484.19
857.09	2850.77
857.26	2392.03
857.42	2635.74
857.59	2801.62
857.76	2600.92
857.93	2568.15
858.10	2609.11
858.27	2506.71
858.43	2723.80
858.60	2596.82
858.77	2375.64
858.94	2576.34
859.11	2904.02
859.27	2562.01
859.44	2529.24
859.61	3000.27
859.78	2783.19
859.95	2547.67
860.12	2492.38
860.28	2973.65
860.45	2981.84
860.62	2475.99
860.79	2668.50
860.95	2613.21
861.12	2605.02
861.29	2504.67
861.46	2545.63
861.63	2588.63
861.79	2740.18
861.96	2404.32
862.13	2539.48
862.30	2883.54
862.47	2576.34
862.63	2375.64
862.80	2627.54
862.97	2947.03
863.14	2705.37
863.30	2635.74
863.47	2519.00
863.64	2940.88
863.81	2699.22
863.97	2506.71
864.14	2541.53
864.31	2715.61
864.48	2725.85
864.65	2545.63
864.81	2629.59
864.98	2856.92
865.15	2842.58
865.32	2584.54
865.48	2760.66
865.65	2914.26
865.82	2566.10
865.98	2621.40
866.15	2631.64
866.32	2617.30
866.49	2623.45
866.65	2742.23
866.82	2506.71
866.99	2686.94
867.16	2590.68
867.32	2496.47
867.49	2482.14
867.66	2705.37
867.83	2621.40
867.99	2543.58
868.16	2588.63
868.33	2562.01
868.49	2680.79
868.66	2580.44
868.83	2680.79
868.99	2791.38
869.16	2797.53
869.33	2691.03
869.50	2535.39
869.66	2758.61
869.83	2717.65
870.00	2480.09
870.16	2686.94
870.33	2568.15
870.50	2820.05
870.66	2666.46
870.83	2662.36
871.00	2699.22
871.17	2858.96
871.33	2635.74
871.50	2551.77
871.67	2703.32
871.83	2533.34
872.00	2686.94
872.17	2531.29
872.33	2971.60
872.50	2803.67
872.67	2580.44
872.83	2512.86
873.00	2766.81
873.17	2674.65
873.33	2637.78
873.50	2672.60
873.67	2617.30
873.83	2574.30
874.00	2578.39
874.16	2711.51
874.33	2670.55
874.50	2611.16
874.66	2564.06
874.83	2570.20
875.00	2893.78
875.16	2856.92
875.33	2664.41
875.50	2312.16
875.66	2631.64
875.83	2707.41
875.99	2648.02
876.16	2613.21
876.33	2635.74
876.49	2652.12
876.66	2578.39
876.83	2525.15
876.99	2494.43
877.16	2688.98
877.32	2529.24
877.49	2605.02
877.66	2768.85
877.82	2916.31
877.99	2555.86
878.15	2801.62
878.32	2822.10
878.49	2766.81
878.65	2523.10
878.82	2754.52
878.98	2572.25
879.15	2854.87
879.32	2695.13
879.48	2684.89
879.65	2666.46
879.81	2637.78
879.98	2543.58
880.15	2641.88
880.31	2725.85
880.48	2619.35
880.64	2674.65
880.81	2627.54
880.97	2924.50
881.14	2908.12
881.31	2502.62
881.47	2752.47
881.64	2637.78
881.80	2383.84
881.97	2619.35
882.13	2605.02
882.30	2572.25
882.47	2654.17
882.63	2498.52
882.80	2562.01
882.96	2633.69
883.13	2879.44
883.29	2537.43
883.46	2582.49
883.62	3053.52
883.79	2654.17
883.95	2729.94
884.12	2512.86
884.29	2912.21
884.45	2570.20
884.62	2590.68
884.78	2523.10
884.95	2918.36
885.11	2609.11
885.28	2662.36
885.44	2562.01
885.61	2858.96
885.77	2824.15
885.94	2746.33
886.10	2596.82
886.27	2723.80
886.43	2985.94
886.60	2752.47
886.76	2605.02
886.93	2605.02
887.09	2705.37
887.26	2451.42
887.42	2631.64
887.59	2883.54
887.75	3030.99
887.92	2740.18
888.08	2688.98
888.25	3010.51
888.41	2881.49
888.58	2562.01
888.74	2543.58
888.91	2592.73
>>>>>End Processed Spectral Data<<<<<
