SpectraSuite Data File
++++++++++++++++++++++++++++++++++++
Date: Thu May 05 16:20:19 CEST 2016
User: root
Dark Spectrum Present: No
Reference Spectrum Present: No
Number of Sampled Component Spectra: 1
Spectrometers: USB4C02835
Integration Time (usec): 100000 (USB4C02835)
Spectra Averaged: 1 (USB4C02835)
Boxcar Smoothing: 0 (USB4C02835)
Correct for Electrical Dark: No (USB4C02835)
Strobe/Lamp Enabled: No (USB4C02835)
Correct for Detector Non-linearity: No (USB4C02835)
Correct for Stray Light: No (USB4C02835)
Number of Pixels in Processed Spectrum: 3648
>>>>>Begin Processed Spectral Data<<<<<
177.47	2013.15
177.69	2013.15
177.91	2013.15
178.13	2062.30
178.36	2011.11
178.58	2596.82
178.80	2705.37
179.02	2543.58
179.24	2574.30
179.46	2482.14
179.68	2557.91
179.90	2660.31
180.13	2770.90
180.35	2461.66
180.57	2457.56
180.79	2901.97
181.01	2734.04
181.23	2521.05
181.45	2668.50
181.67	2764.76
181.90	2844.63
182.12	2519.00
182.34	2406.36
182.56	2801.62
182.78	2770.90
183.00	2459.61
183.22	2539.48
183.44	2396.12
183.66	3188.69
183.89	2705.37
184.11	2504.67
184.33	2832.34
184.55	2887.64
184.77	2512.86
184.99	2514.91
185.21	2654.17
185.43	3080.14
185.65	2459.61
185.87	2467.80
186.10	2975.70
186.32	3014.61
186.54	2574.30
186.76	2635.74
186.98	2891.73
187.20	2783.19
187.42	2609.11
187.64	2465.75
187.86	2752.47
188.08	2932.69
188.30	2420.70
188.52	2523.10
188.75	2863.06
188.97	2953.17
189.19	2539.48
189.41	2516.95
189.63	2856.92
189.85	2701.27
190.07	2340.83
190.29	2359.26
190.51	2740.18
190.73	2506.71
190.95	2719.70
191.17	2559.96
191.39	2473.95
191.61	2666.46
191.84	2463.71
192.06	2605.02
192.28	2533.34
192.50	3121.10
192.72	2582.49
192.94	2521.05
193.16	2899.92
193.38	2723.80
193.60	2506.71
193.82	2609.11
194.04	2887.64
194.26	2772.95
194.48	2564.06
194.70	2502.62
194.92	2582.49
195.14	2856.92
195.36	2488.28
195.58	2480.09
195.80	2693.08
196.02	2562.01
196.24	2447.32
196.46	2527.19
196.69	2684.89
196.91	3037.14
197.13	2600.92
197.35	2580.44
197.57	2957.27
197.79	2799.57
198.01	2568.15
198.23	2521.05
198.45	2795.48
198.67	2592.73
198.89	2410.46
199.11	2666.46
199.33	2641.88
199.55	2422.75
199.77	2482.14
199.99	2619.35
200.21	2652.12
200.43	2746.33
200.65	2400.22
200.87	2342.88
201.09	2670.55
201.31	2668.50
201.53	2580.44
201.75	2584.54
201.97	2826.20
202.19	2672.60
202.41	2537.43
202.63	2666.46
202.85	2762.71
203.07	2768.85
203.29	2564.06
203.51	2424.80
203.73	2607.06
203.95	3139.54
204.17	2502.62
204.39	2602.97
204.61	2725.85
204.83	2674.65
205.05	2652.12
205.27	2576.34
205.49	2981.84
205.71	2758.61
205.93	2447.32
206.15	2392.03
206.37	2758.61
206.59	2627.54
206.81	2445.27
207.03	2414.56
207.25	2541.53
207.47	2848.72
207.69	2572.25
207.91	2801.62
208.13	3000.27
208.34	2570.20
208.56	2512.86
208.78	2584.54
209.00	2674.65
209.22	2559.96
209.44	2553.82
209.66	2488.28
209.88	2799.57
210.10	2670.55
210.32	2447.32
210.54	2633.69
210.76	2670.55
210.98	2908.12
211.20	2295.77
211.42	2648.02
211.64	2981.84
211.86	2707.41
212.08	2615.26
212.30	2580.44
212.52	2648.02
212.74	2764.76
212.96	2594.78
213.17	2562.01
213.39	2854.87
213.61	3008.47
213.83	2527.19
214.05	2373.60
214.27	2867.16
214.49	2559.96
214.71	2480.09
214.93	2580.44
215.15	2750.42
215.37	2779.09
215.59	2418.65
215.81	2615.26
216.03	2883.54
216.24	2781.14
216.46	2539.48
216.68	2592.73
216.90	2746.33
217.12	2883.54
217.34	2467.80
217.56	2641.88
217.78	2920.40
218.00	2840.53
218.22	2607.06
218.44	2588.63
218.66	2707.41
218.87	3033.04
219.09	2582.49
219.31	2510.81
219.53	2768.85
219.75	2619.35
219.97	2539.48
220.19	2488.28
220.41	2670.55
220.63	2934.74
220.85	2519.00
221.06	2576.34
221.28	2818.00
221.50	2846.68
221.72	2502.62
221.94	2424.80
222.16	2691.03
222.38	2779.09
222.60	2455.51
222.82	2559.96
223.03	2820.05
223.25	2525.15
223.47	2525.15
223.69	2623.45
223.91	2875.35
224.13	2758.61
224.35	2408.41
224.57	2731.99
224.78	2801.62
225.00	2635.74
225.22	2564.06
225.44	2463.71
225.66	2850.77
225.88	2631.64
226.10	2559.96
226.32	2547.67
226.53	2926.55
226.75	2635.74
226.97	2557.91
227.19	2545.63
227.41	2633.69
227.63	2605.02
227.85	2394.08
228.06	2471.90
228.28	2779.09
228.50	2830.29
228.72	2367.45
228.94	2424.80
229.16	2545.63
229.37	2580.44
229.59	2416.60
229.81	2701.27
230.03	2668.50
230.25	2551.77
230.47	2392.03
230.69	2418.65
230.90	2836.44
231.12	2633.69
231.34	2568.15
231.56	2594.78
231.78	2545.63
232.00	2705.37
232.21	2523.10
232.43	2533.34
232.65	2422.75
232.87	2762.71
233.09	2422.75
233.30	2459.61
233.52	2883.54
233.74	2648.02
233.96	2541.53
234.18	2617.30
234.40	2715.61
234.61	3053.52
234.83	2400.22
235.05	2490.33
235.27	3104.72
235.49	2920.40
235.70	2428.89
235.92	2588.63
236.14	2805.72
236.36	3037.14
236.58	2412.51
236.79	2574.30
237.01	2750.42
237.23	2678.74
237.45	2660.31
237.67	2488.28
237.88	2770.90
238.10	3086.29
238.32	2498.52
238.54	2461.66
238.76	2772.95
238.97	2564.06
239.19	2461.66
239.41	2574.30
239.63	2805.72
239.85	2627.54
240.06	2535.39
240.28	2490.33
240.50	2891.73
240.72	2699.22
240.93	2404.32
241.15	2562.01
241.37	2641.88
241.59	2889.68
241.81	2424.80
242.02	2539.48
242.24	2740.18
242.46	2815.96
242.68	2435.03
242.89	2478.04
243.11	2914.26
243.33	2682.84
243.55	2551.77
243.76	2541.53
243.98	2637.78
244.20	2652.12
244.42	2521.05
244.64	2510.81
244.85	2527.19
245.07	2555.86
245.29	2615.26
245.51	2572.25
245.72	2746.33
245.94	2754.52
246.16	2449.37
246.38	2588.63
246.59	2643.93
246.81	2531.29
247.03	2500.57
247.24	2334.68
247.46	2666.46
247.68	2764.76
247.90	2496.47
248.11	2564.06
248.33	2791.38
248.55	2682.84
248.77	2629.59
248.98	2664.41
249.20	2881.49
249.42	2791.38
249.64	2459.61
249.85	2463.71
250.07	2568.15
250.29	2797.53
250.50	2578.39
250.72	2422.75
250.94	2758.61
251.16	3006.42
251.37	2441.18
251.59	2545.63
251.81	2750.42
252.02	2942.93
252.24	2439.13
252.46	2590.68
252.68	2555.86
252.89	2641.88
253.11	2398.17
253.33	2752.47
253.54	2895.83
253.76	2625.50
253.98	2478.04
254.20	2490.33
254.41	2627.54
254.63	2699.22
254.85	2359.26
255.06	2617.30
255.28	2746.33
255.50	2676.70
255.71	2463.71
255.93	2406.36
256.15	2768.85
256.36	2781.14
256.58	2398.17
256.80	2506.71
257.02	2723.80
257.23	2693.08
257.45	2510.81
257.67	2582.49
257.88	2572.25
258.10	2781.14
258.32	2471.90
258.53	2629.59
258.75	2938.84
258.97	2572.25
259.18	2465.75
259.40	2494.43
259.62	2938.84
259.83	2949.08
260.05	2533.34
260.27	3170.26
260.48	2928.60
260.70	2510.81
260.92	2404.32
261.13	2564.06
261.35	2701.27
261.57	2807.77
261.78	2285.53
262.00	2447.32
262.22	2799.57
262.43	2582.49
262.65	2531.29
262.86	2510.81
263.08	3094.48
263.30	2680.79
263.51	2322.40
263.73	2498.52
263.95	2914.26
264.16	2596.82
264.38	2478.04
264.60	2475.99
264.81	2768.85
265.03	2848.72
265.25	2807.77
265.46	2498.52
265.68	2957.27
265.89	2850.77
266.11	2398.17
266.33	2523.10
266.54	2936.79
266.76	2734.04
266.98	2594.78
267.19	2711.51
267.41	2836.44
267.62	2801.62
267.84	2355.16
268.06	2637.78
268.27	2787.29
268.49	2936.79
268.70	2551.77
268.92	2543.58
269.14	2605.02
269.35	2570.20
269.57	2588.63
269.79	2656.22
270.00	2643.93
270.22	2985.94
270.43	2432.99
270.65	2346.97
270.87	2770.90
271.08	2920.40
271.30	2613.21
271.51	2512.86
271.73	2787.29
271.95	2908.12
272.16	2480.09
272.38	2617.30
272.59	2674.65
272.81	2830.29
273.02	2508.76
273.24	2514.91
273.46	2887.64
273.67	2590.68
273.89	2432.99
274.10	2475.99
274.32	2856.92
274.54	2789.33
274.75	2602.97
274.97	2615.26
275.18	2815.96
275.40	2721.75
275.61	2578.39
275.83	2670.55
276.05	2568.15
276.26	2709.46
276.48	2562.01
276.69	2629.59
276.91	2580.44
277.12	2920.40
277.34	2672.60
277.55	2768.85
277.77	2658.26
277.99	2709.46
278.20	2521.05
278.42	2432.99
278.63	2541.53
278.85	2562.01
279.06	2463.71
279.28	2740.18
279.49	2830.29
279.71	2736.09
279.93	2652.12
280.14	2635.74
280.36	2695.13
280.57	2904.02
280.79	2744.28
281.00	2490.33
281.22	2609.11
281.43	2854.87
281.65	2473.95
281.86	2527.19
282.08	2852.82
282.29	3035.09
282.51	2471.90
282.73	2516.95
282.94	2512.86
283.16	2838.48
283.37	2691.03
283.59	2660.31
283.80	2746.33
284.02	2656.22
284.23	2602.97
284.45	2564.06
284.66	2643.93
284.88	2613.21
285.09	2537.43
285.31	2693.08
285.52	2820.05
285.74	2473.95
285.95	2701.27
286.17	2623.45
286.38	2828.24
286.60	2611.16
286.81	2590.68
287.03	2590.68
287.24	2666.46
287.46	2807.77
287.67	2699.22
287.89	2760.66
288.10	2654.17
288.32	2734.04
288.53	2789.33
288.75	2717.65
288.96	2838.48
289.18	2641.88
289.39	2535.39
289.61	2666.46
289.82	3045.33
290.04	2998.23
290.25	2541.53
290.47	2697.17
290.68	2643.93
290.90	2858.96
291.11	2449.37
291.33	2801.62
291.54	2607.06
291.76	2676.70
291.97	2658.26
292.18	2643.93
292.40	2645.98
292.61	2568.15
292.83	2834.39
293.04	2637.78
293.26	2709.46
293.47	2754.52
293.69	2508.76
293.90	2592.73
294.12	2873.30
294.33	2711.51
294.55	2658.26
294.76	2703.32
294.97	2912.21
295.19	3065.81
295.40	2551.77
295.62	2654.17
295.83	2865.11
296.05	2613.21
296.26	2670.55
296.48	2596.82
296.69	2654.17
296.90	2750.42
297.12	2746.33
297.33	2775.00
297.55	2721.75
297.76	2815.96
297.98	2699.22
298.19	2744.28
298.41	2623.45
298.62	2637.78
298.83	2736.09
299.05	2707.41
299.26	2627.54
299.48	2629.59
299.69	2691.03
299.90	2633.69
300.12	2559.96
300.33	2766.81
300.55	2615.26
300.76	2686.94
300.98	2596.82
301.19	2815.96
301.40	2596.82
301.62	2627.54
301.83	2731.99
302.05	2758.61
302.26	2605.02
302.47	2668.50
302.69	2519.00
302.90	2734.04
303.12	2412.51
303.33	2627.54
303.54	3018.71
303.76	2543.58
303.97	2633.69
304.19	2869.20
304.40	2564.06
304.61	2811.86
304.83	2742.23
305.04	2729.94
305.26	2809.81
305.47	2627.54
305.68	2559.96
305.90	2449.37
306.11	2858.96
306.33	2701.27
306.54	2545.63
306.75	2539.48
306.97	2521.05
307.18	2652.12
307.39	2648.02
307.61	2658.26
307.82	2760.66
308.04	2822.10
308.25	2537.43
308.46	2758.61
308.68	2775.00
308.89	2674.65
309.10	2789.33
309.32	2674.65
309.53	2684.89
309.74	2668.50
309.96	2531.29
310.17	2695.13
310.39	2676.70
310.60	2889.68
310.81	2656.22
311.03	2559.96
311.24	2807.77
311.45	2660.31
311.67	2838.48
311.88	2670.55
312.09	2662.36
312.31	2678.74
312.52	2547.67
312.73	2582.49
312.95	2514.91
313.16	2549.72
313.37	2752.47
313.59	2684.89
313.80	2760.66
314.01	2918.36
314.23	2576.34
314.44	2451.42
314.65	2555.86
314.87	2568.15
315.08	2500.57
315.29	2613.21
315.51	2514.91
315.72	2521.05
315.93	2772.95
316.15	2623.45
316.36	2721.75
316.57	2699.22
316.79	2625.50
317.00	2629.59
317.21	2813.91
317.43	2617.30
317.64	2717.65
317.85	2535.39
318.07	2619.35
318.28	2717.65
318.49	2736.09
318.70	2836.44
318.92	2801.62
319.13	2699.22
319.34	2768.85
319.56	2641.88
319.77	2924.50
319.98	2762.71
320.20	2672.60
320.41	2703.32
320.62	2770.90
320.83	2600.92
321.05	2873.30
321.26	2619.35
321.47	2662.36
321.69	2869.20
321.90	2435.03
322.11	2623.45
322.32	2736.09
322.54	2928.60
322.75	2572.25
322.96	3196.88
323.18	2543.58
323.39	2422.75
323.60	2551.77
323.81	2758.61
324.03	2654.17
324.24	2693.08
324.45	2674.65
324.66	2576.34
324.88	2820.05
325.09	2934.74
325.30	2578.39
325.52	2543.58
325.73	2707.41
325.94	2584.54
326.15	2416.60
326.37	2488.28
326.58	2877.40
326.79	2895.83
327.00	2527.19
327.22	2650.07
327.43	2623.45
327.64	2496.47
327.85	2600.92
328.07	2650.07
328.28	2934.74
328.49	2678.74
328.70	2611.16
328.92	2631.64
329.13	2777.05
329.34	2811.86
329.55	2895.83
329.76	2746.33
329.98	2758.61
330.19	2947.03
330.40	2684.89
330.61	2705.37
330.83	2869.20
331.04	2588.63
331.25	2744.28
331.46	2578.39
331.68	2539.48
331.89	2926.55
332.10	2645.98
332.31	2490.33
332.52	2719.70
332.74	2895.83
332.95	2478.04
333.16	2619.35
333.37	2932.69
333.58	2592.73
333.80	2707.41
334.01	2443.23
334.22	2709.46
334.43	2594.78
334.64	2559.96
334.86	2541.53
335.07	2562.01
335.28	2963.41
335.49	2449.37
335.70	2682.84
335.92	2850.77
336.13	2994.13
336.34	2648.02
336.55	2639.83
336.76	2789.33
336.98	2432.99
337.19	2609.11
337.40	2686.94
337.61	3088.34
337.82	2729.94
338.04	2752.47
338.25	2414.56
338.46	2760.66
338.67	2740.18
338.88	2553.82
339.09	2545.63
339.31	2701.27
339.52	2562.01
339.73	2566.10
339.94	2570.20
340.15	2848.72
340.36	2623.45
340.58	2666.46
340.79	2566.10
341.00	2762.71
341.21	2645.98
341.42	2828.24
341.63	2578.39
341.85	2881.49
342.06	2705.37
342.27	2559.96
342.48	2768.85
342.69	2519.00
342.90	2824.15
343.12	2797.53
343.33	2559.96
343.54	2904.02
343.75	2799.57
343.96	2670.55
344.17	2533.34
344.38	2713.56
344.60	2637.78
344.81	2537.43
345.02	2656.22
345.23	2889.68
345.44	3024.85
345.65	2766.81
345.86	2695.13
346.07	2783.19
346.29	2559.96
346.50	2783.19
346.71	2695.13
346.92	2873.30
347.13	3024.85
347.34	2623.45
347.55	2549.72
347.76	2713.56
347.98	2449.37
348.19	2588.63
348.40	2768.85
348.61	2654.17
348.82	3010.51
349.03	2650.07
349.24	2588.63
349.45	2981.84
349.66	2486.23
349.88	2637.78
350.09	2539.48
350.30	2883.54
350.51	2879.44
350.72	2688.98
350.93	2691.03
351.14	2676.70
351.35	2830.29
351.56	2633.69
351.77	2645.98
351.99	2781.14
352.20	2981.84
352.41	2809.81
352.62	2478.04
352.83	2740.18
353.04	2650.07
353.25	2594.78
353.46	2666.46
353.67	2842.58
353.88	2439.13
354.09	2533.34
354.30	2627.54
354.52	2799.57
354.73	2674.65
354.94	2543.58
355.15	2635.74
355.36	3026.90
355.57	2621.40
355.78	2504.67
355.99	2545.63
356.20	2613.21
356.41	3020.75
356.62	2688.98
356.83	2605.02
357.04	2951.12
357.25	2418.65
357.46	2535.39
357.68	2480.09
357.89	2586.58
358.10	2674.65
358.31	2564.06
358.52	2572.25
358.73	2568.15
358.94	2609.11
359.15	2645.98
359.36	2676.70
359.57	2701.27
359.78	2654.17
359.99	2779.09
360.20	2547.67
360.41	2740.18
360.62	2740.18
360.83	2691.03
361.04	2688.98
361.25	2777.05
361.46	2934.74
361.67	2699.22
361.88	2656.22
362.09	2863.06
362.30	2791.38
362.51	2498.52
362.72	2639.83
362.93	2777.05
363.14	2822.10
363.35	2645.98
363.56	2549.72
363.78	2856.92
363.99	2885.59
364.20	2580.44
364.41	2621.40
364.62	3061.71
364.83	2715.61
365.04	2652.12
365.25	2570.20
365.46	2930.64
365.67	2605.02
365.88	2654.17
366.09	2637.78
366.30	2621.40
366.51	2727.89
366.72	2557.91
366.93	2613.21
367.14	2766.81
367.35	2867.16
367.56	2533.34
367.77	2707.41
367.98	2643.93
368.18	2746.33
368.39	2768.85
368.60	2496.47
368.81	2824.15
369.02	2815.96
369.23	2607.06
369.44	2504.67
369.65	2691.03
369.86	2783.19
370.07	2670.55
370.28	2502.62
370.49	2775.00
370.70	2809.81
370.91	2531.29
371.12	2465.75
371.33	2834.39
371.54	2656.22
371.75	2731.99
371.96	2426.84
372.17	2686.94
372.38	2668.50
372.59	2633.69
372.80	2576.34
373.01	2680.79
373.22	2762.71
373.43	2621.40
373.64	2514.91
373.85	2871.25
374.06	2990.03
374.26	2803.67
374.47	2719.70
374.68	2879.44
374.89	2789.33
375.10	2547.67
375.31	2664.41
375.52	2703.32
375.73	2736.09
375.94	2504.67
376.15	2842.58
376.36	2631.64
376.57	2529.24
376.78	2695.13
376.99	2645.98
377.20	2889.68
377.40	2709.46
377.61	2863.06
377.82	2473.95
378.03	2873.30
378.24	2793.43
378.45	2666.46
378.66	2678.74
378.87	2465.75
379.08	2500.57
379.29	2590.68
379.50	2709.46
379.71	2762.71
379.91	2809.81
380.12	2590.68
380.33	2580.44
380.54	2697.17
380.75	2721.75
380.96	2662.36
381.17	2564.06
381.38	2705.37
381.59	2678.74
381.80	2627.54
382.00	2807.77
382.21	2701.27
382.42	2971.60
382.63	2881.49
382.84	2699.22
383.05	2871.25
383.26	2944.98
383.47	2695.13
383.68	2703.32
383.88	2731.99
384.09	2715.61
384.30	2908.12
384.51	2813.91
384.72	2693.08
384.93	2617.30
385.14	2664.41
385.35	2820.05
385.55	2535.39
385.76	2934.74
385.97	2625.50
386.18	2480.09
386.39	2590.68
386.60	2668.50
386.81	2605.02
387.02	2525.15
387.22	2435.03
387.43	2813.91
387.64	2648.02
387.85	2883.54
388.06	2883.54
388.27	3921.86
388.48	7614.35
388.68	11116.37
388.89	13442.87
389.10	14636.83
389.31	13909.80
389.52	10919.77
389.73	9416.56
389.93	8511.36
390.14	7839.62
390.35	7114.64
390.56	6504.35
390.77	5275.57
390.98	4042.69
391.18	3420.11
391.39	3135.44
391.60	2891.73
391.81	2887.64
392.02	2582.49
392.23	3088.34
392.43	2777.05
392.64	2863.06
392.85	2744.28
393.06	2871.25
393.27	2670.55
393.47	2555.86
393.68	2693.08
393.89	2760.66
394.10	2891.73
394.31	2586.58
394.52	2621.40
394.72	2623.45
394.93	2938.84
395.14	2492.38
395.35	2697.17
395.56	2607.06
395.76	2688.98
395.97	2705.37
396.18	2799.57
396.39	2756.57
396.60	3207.12
396.80	2893.78
397.01	2721.75
397.22	2850.77
397.43	2940.88
397.64	2621.40
397.84	2762.71
398.05	3088.34
398.26	2691.03
398.47	2734.04
398.67	2809.81
398.88	2709.46
399.09	2840.53
399.30	2588.63
399.51	2674.65
399.71	2506.71
399.92	2744.28
400.13	2791.38
400.34	2580.44
400.54	2736.09
400.75	2918.36
400.96	2709.46
401.17	2901.97
401.37	2908.12
401.58	2676.70
401.79	2662.36
402.00	2760.66
402.21	3194.83
402.41	2881.49
402.62	2926.55
402.83	3053.52
403.04	3094.48
403.24	3274.70
403.45	2668.50
403.66	2938.84
403.87	2844.63
404.07	3057.62
404.28	2932.69
404.49	2893.78
404.70	2811.86
404.90	2838.48
405.11	2586.58
405.32	2721.75
405.52	2652.12
405.73	2619.35
405.94	2551.77
406.15	2629.59
406.35	2856.92
406.56	2871.25
406.77	2699.22
406.98	2678.74
407.18	2684.89
407.39	2985.94
407.60	2658.26
407.80	2662.36
408.01	2670.55
408.22	2742.23
408.43	2602.97
408.63	2686.94
408.84	2916.31
409.05	2775.00
409.25	2592.73
409.46	2529.24
409.67	2627.54
409.88	2670.55
410.08	2678.74
410.29	2551.77
410.50	2826.20
410.70	2779.09
410.91	2562.01
411.12	2713.56
411.32	2744.28
411.53	2547.67
411.74	2682.84
411.95	2678.74
412.15	2766.81
412.36	2920.40
412.57	2725.85
412.77	2766.81
412.98	2727.89
413.19	2670.55
413.39	2621.40
413.60	2719.70
413.81	2850.77
414.01	2666.46
414.22	2744.28
414.43	2846.68
414.63	2736.09
414.84	2820.05
415.05	2611.16
415.25	2482.14
415.46	2752.47
415.67	2619.35
415.87	2693.08
416.08	2652.12
416.29	2723.80
416.49	2889.68
416.70	2676.70
416.91	2674.65
417.11	2664.41
417.32	2783.19
417.53	2760.66
417.73	2707.41
417.94	2713.56
418.15	2744.28
418.35	2691.03
418.56	2701.27
418.77	3090.38
418.97	2791.38
419.18	2711.51
419.38	2344.92
419.59	2764.76
419.80	2895.83
420.00	2605.02
420.21	2734.04
420.42	2854.87
420.62	2813.91
420.83	2607.06
421.04	2594.78
421.24	2686.94
421.45	2797.53
421.65	2648.02
421.86	2615.26
422.07	2785.24
422.27	2717.65
422.48	2631.64
422.69	2508.76
422.89	2678.74
423.10	2680.79
423.30	2582.49
423.51	2631.64
423.72	2760.66
423.92	2869.20
424.13	2533.34
424.33	2734.04
424.54	2818.00
424.75	2781.14
424.95	2885.59
425.16	2629.59
425.36	2676.70
425.57	2826.20
425.78	2666.46
425.98	2746.33
426.19	2748.37
426.39	2547.67
426.60	2627.54
426.81	2803.67
427.01	2750.42
427.22	2623.45
427.42	2514.91
427.63	2506.71
427.83	2785.24
428.04	2977.75
428.25	2762.71
428.45	2787.29
428.66	2951.12
428.86	2582.49
429.07	2633.69
429.28	2770.90
429.48	2731.99
429.69	2645.98
429.89	2760.66
430.10	2633.69
430.30	2887.64
430.51	2875.35
430.71	2662.36
430.92	2637.78
431.13	2633.69
431.33	2867.16
431.54	2766.81
431.74	2801.62
431.95	3055.57
432.15	2629.59
432.36	2680.79
432.56	2684.89
432.77	3016.66
432.98	3012.56
433.18	2748.37
433.39	2570.20
433.59	2754.52
433.80	3071.95
434.00	2895.83
434.21	2645.98
434.41	2605.02
434.62	3076.05
434.82	2553.82
435.03	2600.92
435.23	2787.29
435.44	2480.09
435.64	2535.39
435.85	2740.18
436.06	2836.44
436.26	2824.15
436.47	2658.26
436.67	2590.68
436.88	2705.37
437.08	2908.12
437.29	2803.67
437.49	2781.14
437.70	2942.93
437.90	2695.13
438.11	2863.06
438.31	2688.98
438.52	2930.64
438.72	2842.58
438.93	2975.70
439.13	2725.85
439.34	2930.64
439.54	2654.17
439.75	2709.46
439.95	2742.23
440.16	2652.12
440.36	2772.95
440.57	2672.60
440.77	2701.27
440.98	2619.35
441.18	2818.00
441.39	2635.74
441.59	2467.80
441.80	3055.57
442.00	2715.61
442.21	2688.98
442.41	2504.67
442.62	2883.54
442.82	2674.65
443.02	2684.89
443.23	2682.84
443.43	2686.94
443.64	2854.87
443.84	2545.63
444.05	2775.00
444.25	2742.23
444.46	2684.89
444.66	2623.45
444.87	2754.52
445.07	2502.62
445.28	2658.26
445.48	2793.43
445.69	2775.00
445.89	3172.30
446.09	2643.93
446.30	3045.33
446.50	3069.91
446.71	4599.74
446.91	5660.59
447.12	6457.25
447.32	6815.64
447.53	6514.59
447.73	5480.36
447.93	4734.90
448.14	4497.34
448.34	4505.53
448.55	3911.62
448.75	3813.32
448.96	3700.68
449.16	3370.96
449.36	3268.56
449.57	2936.79
449.77	2707.41
449.98	2697.17
450.18	2736.09
450.39	2660.31
450.59	2842.58
450.79	2736.09
451.00	2584.54
451.20	2787.29
451.41	2641.88
451.61	2826.20
451.81	2721.75
452.02	2627.54
452.22	2648.02
452.43	2660.31
452.63	2635.74
452.84	2783.19
453.04	2598.87
453.24	2758.61
453.45	2623.45
453.65	2631.64
453.86	2744.28
454.06	2783.19
454.26	2695.13
454.47	2531.29
454.67	2772.95
454.87	2865.11
455.08	2688.98
455.28	2826.20
455.49	2731.99
455.69	2588.63
455.89	3049.43
456.10	2715.61
456.30	2557.91
456.51	2877.40
456.71	2781.14
456.91	2740.18
457.12	2645.98
457.32	2822.10
457.52	2611.16
457.73	2754.52
457.93	2861.01
458.14	2623.45
458.34	2525.15
458.54	2641.88
458.75	2545.63
458.95	2779.09
459.15	2789.33
459.36	2719.70
459.56	2697.17
459.76	3104.72
459.97	2727.89
460.17	2670.55
460.37	2707.41
460.58	2744.28
460.78	2742.23
460.99	2633.69
461.19	2605.02
461.39	2668.50
461.60	2727.89
461.80	2748.37
462.00	2555.86
462.21	2666.46
462.41	2631.64
462.61	2545.63
462.82	2416.60
463.02	2768.85
463.22	2738.13
463.43	2838.48
463.63	2682.84
463.83	2869.20
464.04	2801.62
464.24	2680.79
464.44	2523.10
464.64	2820.05
464.85	2959.31
465.05	2695.13
465.25	2602.97
465.46	2617.30
465.66	2822.10
465.86	2701.27
466.07	2625.50
466.27	2742.23
466.47	2504.67
466.68	2529.24
466.88	2791.38
467.08	2844.63
467.29	2854.87
467.49	2725.85
467.69	2625.50
467.89	2762.71
468.10	2744.28
468.30	2652.12
468.50	2791.38
468.71	2940.88
468.91	2527.19
469.11	2873.30
469.31	2723.80
469.52	2535.39
469.72	2928.60
469.92	2854.87
470.13	2602.97
470.33	2740.18
470.53	2711.51
470.73	3000.27
470.94	3323.85
471.14	3368.91
471.34	3837.89
471.54	3579.85
471.75	3413.96
471.95	3110.86
472.15	3123.15
472.36	3129.30
472.56	3010.51
472.76	3121.10
472.96	3067.86
473.17	2875.35
473.37	2858.96
473.57	2764.76
473.77	2916.31
473.98	2777.05
474.18	2596.82
474.38	3162.06
474.58	2621.40
474.79	2645.98
474.99	2754.52
475.19	2949.08
475.39	2496.47
475.60	2764.76
475.80	2621.40
476.00	2707.41
476.20	2652.12
476.41	2719.70
476.61	2727.89
476.81	2865.11
477.01	2684.89
477.21	2840.53
477.42	2873.30
477.62	2549.72
477.82	2906.07
478.02	2670.55
478.23	2738.13
478.43	2551.77
478.63	2656.22
478.83	2686.94
479.03	2713.56
479.24	2871.25
479.44	3020.75
479.64	2602.97
479.84	2488.28
480.04	2711.51
480.25	2846.68
480.45	2617.30
480.65	2580.44
480.85	2947.03
481.06	2664.41
481.26	2744.28
481.46	2693.08
481.66	2738.13
481.86	2576.34
482.06	2889.68
482.27	2611.16
482.47	2711.51
482.67	2731.99
482.87	2711.51
483.07	2736.09
483.28	2584.54
483.48	2533.34
483.68	2613.21
483.88	2537.43
484.08	2449.37
484.29	2602.97
484.49	2703.32
484.69	2512.86
484.89	2961.36
485.09	2871.25
485.29	2781.14
485.50	2725.85
485.70	2656.22
485.90	2883.54
486.10	2764.76
486.30	2701.27
486.50	2928.60
486.71	2742.23
486.91	2781.14
487.11	2797.53
487.31	2531.29
487.51	2775.00
487.71	2572.25
487.91	2568.15
488.12	2594.78
488.32	2424.80
488.52	2582.49
488.72	2430.94
488.92	2768.85
489.12	2871.25
489.32	2770.90
489.53	2711.51
489.73	2484.19
489.93	2924.50
490.13	2594.78
490.33	2539.48
490.53	2719.70
490.73	2971.60
490.94	2541.53
491.14	2738.13
491.34	2904.02
491.54	2961.36
491.74	3555.27
491.94	4020.16
492.14	4417.47
492.34	4571.07
492.54	4153.28
492.75	3534.79
492.95	3588.04
493.15	3430.35
493.35	3346.38
493.55	3215.31
493.75	3071.95
493.95	3219.41
494.15	2961.36
494.35	2752.47
494.56	2770.90
494.76	2645.98
494.96	2793.43
495.16	2629.59
495.36	2731.99
495.56	2697.17
495.76	2627.54
495.96	2672.60
496.16	2588.63
496.36	3074.00
496.56	2535.39
496.77	2772.95
496.97	2727.89
497.17	2901.97
497.37	2557.91
497.57	2736.09
497.77	2772.95
497.97	2623.45
498.17	2684.89
498.37	2688.98
498.57	2879.44
498.77	2715.61
498.97	2752.47
499.17	2893.78
499.38	2707.41
499.58	2877.40
499.78	2789.33
499.98	2785.24
500.18	2727.89
500.38	2691.03
500.58	2838.48
500.78	3207.12
500.98	5371.82
501.18	7288.72
501.38	8757.11
501.58	9555.82
501.78	9607.02
501.98	7729.03
502.18	6504.35
502.38	5705.64
502.58	5517.23
502.78	4790.20
502.98	4556.73
503.18	4415.42
503.38	4075.46
503.59	3508.17
503.79	3454.92
503.99	3221.45
504.19	3182.54
504.39	3229.65
504.59	3114.96
504.79	3069.91
504.99	3235.79
505.19	2998.23
505.39	2865.11
505.59	3020.75
505.79	2947.03
505.99	2949.08
506.19	2734.04
506.39	2918.36
506.59	2705.37
506.79	2697.17
506.99	2785.24
507.19	2637.78
507.39	2727.89
507.59	2508.76
507.79	2613.21
507.99	2564.06
508.19	2711.51
508.39	2654.17
508.59	2674.65
508.79	2871.25
508.99	3030.99
509.19	2602.97
509.39	2672.60
509.59	2607.06
509.79	2572.25
509.99	2760.66
510.19	2910.16
510.39	2736.09
510.59	2723.80
510.79	2592.73
510.99	2508.76
511.19	2693.08
511.39	2983.89
511.59	2869.20
511.79	2785.24
511.99	2645.98
512.19	3008.47
512.38	2643.93
512.58	2629.59
512.78	2621.40
512.98	2867.16
513.18	2895.83
513.38	2568.15
513.58	2731.99
513.78	2697.17
513.98	2736.09
514.18	2635.74
514.38	2613.21
514.58	2801.62
514.78	2695.13
514.98	2600.92
515.18	2682.84
515.38	2519.00
515.58	2901.97
515.78	2588.63
515.98	2738.13
516.18	2854.87
516.38	2727.89
516.57	2664.41
516.77	2545.63
516.97	2815.96
517.17	2592.73
517.37	2461.66
517.57	2699.22
517.77	2668.50
517.97	2621.40
518.17	2715.61
518.37	2619.35
518.57	2609.11
518.77	2686.94
518.97	2674.65
519.16	2686.94
519.36	2936.79
519.56	2570.20
519.76	2619.35
519.96	2701.27
520.16	2953.17
520.36	2559.96
520.56	2729.94
520.76	2529.24
520.96	2652.12
521.16	2910.16
521.35	2818.00
521.55	2873.30
521.75	2719.70
521.95	2676.70
522.15	2600.92
522.35	2557.91
522.55	2637.78
522.75	2777.05
522.95	2617.30
523.14	2504.67
523.34	2858.96
523.54	2598.87
523.74	2797.53
523.94	2695.13
524.14	2525.15
524.34	2793.43
524.54	2848.72
524.73	2684.89
524.93	2856.92
525.13	2746.33
525.33	2432.99
525.53	2897.88
525.73	2791.38
525.93	2789.33
526.13	2635.74
526.32	2541.53
526.52	2889.68
526.72	2893.78
526.92	2590.68
527.12	2545.63
527.32	2547.67
527.52	2795.48
527.71	2727.89
527.91	2600.92
528.11	2662.36
528.31	2676.70
528.51	2539.48
528.71	2836.44
528.90	2715.61
529.10	2861.01
529.30	2740.18
529.50	2465.75
529.70	2760.66
529.90	2736.09
530.09	2654.17
530.29	2508.76
530.49	2562.01
530.69	3084.24
530.89	2723.80
531.09	2885.59
531.28	2666.46
531.48	2791.38
531.68	2662.36
531.88	2711.51
532.08	2807.77
532.28	2639.83
532.47	2748.37
532.67	2738.13
532.87	2779.09
533.07	2631.64
533.27	2777.05
533.46	2744.28
533.66	2801.62
533.86	2719.70
534.06	2707.41
534.26	2621.40
534.45	2578.39
534.65	2899.92
534.85	2758.61
535.05	2541.53
535.25	2871.25
535.44	2521.05
535.64	2658.26
535.84	2705.37
536.04	2652.12
536.24	2727.89
536.43	2635.74
536.63	2635.74
536.83	2832.34
537.03	2705.37
537.22	2492.38
537.42	2584.54
537.62	2740.18
537.82	2691.03
538.02	2832.34
538.21	2701.27
538.41	3151.82
538.61	2863.06
538.81	2723.80
539.00	2707.41
539.20	2445.27
539.40	2607.06
539.60	2648.02
539.79	2844.63
539.99	2662.36
540.19	2686.94
540.39	2621.40
540.58	2746.33
540.78	2820.05
540.98	2762.71
541.18	2840.53
541.37	2699.22
541.57	2756.57
541.77	2760.66
541.97	2523.10
542.16	2504.67
542.36	2750.42
542.56	2584.54
542.76	2793.43
542.95	2717.65
543.15	2877.40
543.35	2863.06
543.54	2543.58
543.74	2457.56
543.94	2969.55
544.14	2654.17
544.33	2725.85
544.53	2654.17
544.73	2738.13
544.93	2672.60
545.12	2570.20
545.32	2652.12
545.52	2586.58
545.71	2570.20
545.91	2609.11
546.11	2586.58
546.30	2705.37
546.50	2760.66
546.70	2703.32
546.90	2699.22
547.09	2494.43
547.29	2756.57
547.49	2785.24
547.68	2580.44
547.88	2592.73
548.08	2813.91
548.27	3102.67
548.47	2590.68
548.67	2623.45
548.87	2820.05
549.06	2607.06
549.26	2658.26
549.46	2744.28
549.65	2586.58
549.85	2645.98
550.05	2668.50
550.24	2531.29
550.44	2748.37
550.64	2684.89
550.83	2602.97
551.03	2930.64
551.23	2799.57
551.42	2686.94
551.62	2672.60
551.82	2715.61
552.01	2697.17
552.21	2834.39
552.41	2688.98
552.60	2967.51
552.80	2688.98
553.00	2576.34
553.19	2652.12
553.39	2998.23
553.59	2566.10
553.78	2791.38
553.98	2775.00
554.17	2596.82
554.37	2852.82
554.57	2711.51
554.76	2496.47
554.96	2613.21
555.16	2779.09
555.35	2707.41
555.55	2746.33
555.75	2750.42
555.94	2811.86
556.14	2488.28
556.33	2676.70
556.53	2736.09
556.73	2826.20
556.92	2738.13
557.12	2719.70
557.32	3022.80
557.51	3010.51
557.71	2723.80
557.90	2881.49
558.10	2889.68
558.30	2746.33
558.49	2650.07
558.69	2613.21
558.88	2830.29
559.08	2699.22
559.28	2613.21
559.47	2738.13
559.67	2826.20
559.86	2996.18
560.06	2670.55
560.26	2697.17
560.45	2736.09
560.65	2768.85
560.84	2887.64
561.04	2508.76
561.24	2840.53
561.43	2510.81
561.63	2875.35
561.82	2754.52
562.02	2797.53
562.22	2664.41
562.41	2555.86
562.61	2641.88
562.80	2633.69
563.00	3080.14
563.19	2797.53
563.39	2633.69
563.59	2904.02
563.78	2564.06
563.98	2478.04
564.17	2586.58
564.37	2441.18
564.56	2772.95
564.76	2498.52
564.96	2793.43
565.15	2832.34
565.35	3037.14
565.54	2586.58
565.74	2711.51
565.93	2805.72
566.13	2713.56
566.32	2715.61
566.52	2666.46
566.71	2744.28
566.91	2834.39
567.11	2781.14
567.30	2650.07
567.50	2809.81
567.69	2760.66
567.89	2631.64
568.08	2543.58
568.28	2789.33
568.47	2562.01
568.67	2645.98
568.86	2578.39
569.06	2834.39
569.25	2709.46
569.45	2559.96
569.64	2631.64
569.84	2731.99
570.04	2711.51
570.23	2590.68
570.43	2695.13
570.62	2764.76
570.82	2940.88
571.01	2514.91
571.21	2564.06
571.40	2506.71
571.60	2897.88
571.79	2723.80
571.99	2672.60
572.18	2641.88
572.38	2848.72
572.57	2578.39
572.77	2721.75
572.96	3125.20
573.16	2746.33
573.35	2574.30
573.55	2752.47
573.74	2791.38
573.94	2643.93
574.13	2668.50
574.33	2797.53
574.52	2858.96
574.71	2713.56
574.91	2721.75
575.10	2496.47
575.30	2666.46
575.49	2650.07
575.69	2576.34
575.88	2607.06
576.08	2705.37
576.27	2891.73
576.47	2631.64
576.66	2842.58
576.86	2973.65
577.05	2719.70
577.25	2746.33
577.44	2858.96
577.64	2736.09
577.83	2918.36
578.02	2693.08
578.22	2768.85
578.41	3039.19
578.61	2672.60
578.80	2457.56
579.00	2754.52
579.19	2736.09
579.39	2795.48
579.58	2818.00
579.77	2688.98
579.97	2930.64
580.16	2916.31
580.36	2783.19
580.55	2787.29
580.75	2815.96
580.94	2809.81
581.13	2854.87
581.33	2891.73
581.52	2650.07
581.72	2979.79
581.91	2799.57
582.11	2729.94
582.30	2869.20
582.49	2801.62
582.69	2871.25
582.88	2734.04
583.08	2842.58
583.27	2881.49
583.47	2676.70
583.66	2605.02
583.85	2578.39
584.05	2725.85
584.24	2795.48
584.44	2678.74
584.63	2914.26
584.82	2936.79
585.02	2940.88
585.21	2832.34
585.41	2867.16
585.60	2719.70
585.79	2930.64
585.99	2979.79
586.18	2881.49
586.37	3588.04
586.57	5529.52
586.76	16125.71
586.96	35444.20
587.15	48487.71
587.34	57644.18
587.54	61510.74
587.73	54871.23
587.93	39097.77
588.12	29922.87
588.31	24163.98
588.51	21096.13
588.70	19371.74
588.89	17510.13
589.09	14653.22
589.28	12455.75
589.47	10110.82
589.67	7745.42
589.86	6123.43
590.06	4552.63
590.25	3934.15
590.44	3475.40
590.64	3045.33
590.83	3035.09
591.02	2953.17
591.22	2746.33
591.41	2717.65
591.60	2742.23
591.80	3028.95
591.99	2564.06
592.18	2748.37
592.38	2785.24
592.57	2615.26
592.76	2711.51
592.96	2711.51
593.15	2744.28
593.34	2910.16
593.54	2666.46
593.73	2781.14
593.92	2777.05
594.12	2811.86
594.31	2701.27
594.50	2883.54
594.70	2717.65
594.89	3262.41
595.08	2576.34
595.28	2801.62
595.47	3237.84
595.66	2959.31
595.86	2531.29
596.05	2592.73
596.24	2711.51
596.43	3002.32
596.63	2856.92
596.82	2719.70
597.01	2846.68
597.21	3071.95
597.40	2713.56
597.59	2703.32
597.79	2736.09
597.98	2865.11
598.17	2781.14
598.36	2719.70
598.56	2834.39
598.75	2713.56
598.94	2717.65
599.14	2703.32
599.33	2547.67
599.52	2895.83
599.71	2691.03
599.91	2742.23
600.10	2856.92
600.29	2809.81
600.48	2715.61
600.68	2725.85
600.87	2779.09
601.06	2623.45
601.26	2688.98
601.45	2787.29
601.64	2648.02
601.83	2875.35
602.03	2674.65
602.22	2541.53
602.41	2897.88
602.60	3129.30
602.80	2779.09
602.99	2691.03
603.18	2654.17
603.37	2721.75
603.57	2695.13
603.76	2699.22
603.95	2975.70
604.14	2668.50
604.34	2564.06
604.53	2691.03
604.72	2766.81
604.91	2813.91
605.10	2727.89
605.30	2523.10
605.49	3012.56
605.68	2934.74
605.87	2818.00
606.07	2586.58
606.26	2725.85
606.45	2883.54
606.64	2756.57
606.84	2594.78
607.03	2736.09
607.22	2815.96
607.41	2680.79
607.60	2629.59
607.80	2897.88
607.99	2680.79
608.18	2658.26
608.37	2691.03
608.56	2637.78
608.76	2858.96
608.95	2895.83
609.14	2760.66
609.33	2811.86
609.52	2934.74
609.72	2686.94
609.91	2760.66
610.10	2799.57
610.29	2922.45
610.48	2768.85
610.68	2777.05
610.87	2705.37
611.06	2883.54
611.25	2684.89
611.44	2850.77
611.63	2631.64
611.83	2918.36
612.02	2590.68
612.21	2711.51
612.40	2500.57
612.59	2506.71
612.79	2527.19
612.98	2680.79
613.17	2910.16
613.36	2727.89
613.55	2858.96
613.74	2701.27
613.93	2807.77
614.13	2846.68
614.32	2922.45
614.51	2856.92
614.70	2736.09
614.89	2725.85
615.08	2783.19
615.28	3063.76
615.47	2602.97
615.66	2879.44
615.85	2695.13
616.04	2824.15
616.23	2697.17
616.42	2791.38
616.62	2662.36
616.81	2674.65
617.00	2711.51
617.19	2815.96
617.38	2713.56
617.57	2725.85
617.76	2844.63
617.95	2912.21
618.15	2684.89
618.34	2875.35
618.53	2566.10
618.72	2887.64
618.91	2815.96
619.10	2756.57
619.29	2645.98
619.48	2662.36
619.68	2492.38
619.87	2615.26
620.06	2553.82
620.25	2822.10
620.44	2662.36
620.63	2639.83
620.82	2760.66
621.01	2715.61
621.20	2756.57
621.39	2793.43
621.59	2750.42
621.78	2637.78
621.97	2660.31
622.16	2760.66
622.35	2760.66
622.54	2844.63
622.73	2789.33
622.92	2457.56
623.11	2842.58
623.30	2686.94
623.49	2809.81
623.68	2594.78
623.88	2908.12
624.07	2727.89
624.26	2691.03
624.45	2705.37
624.64	2699.22
624.83	2756.57
625.02	2703.32
625.21	2643.93
625.40	2824.15
625.59	2879.44
625.78	2674.65
625.97	2785.24
626.16	2904.02
626.35	2834.39
626.54	2703.32
626.74	2807.77
626.93	2678.74
627.12	2664.41
627.31	2752.47
627.50	2711.51
627.69	2930.64
627.88	2607.06
628.07	2527.19
628.26	2519.00
628.45	2559.96
628.64	2559.96
628.83	2578.39
629.02	2506.71
629.21	2775.00
629.40	2740.18
629.59	2574.30
629.78	2635.74
629.97	2654.17
630.16	2748.37
630.35	2572.25
630.54	2721.75
630.73	2787.29
630.92	2715.61
631.11	2607.06
631.30	2686.94
631.49	2846.68
631.68	2715.61
631.87	2711.51
632.06	2578.39
632.25	3074.00
632.44	2734.04
632.63	2633.69
632.82	2592.73
633.01	2645.98
633.20	2826.20
633.39	2654.17
633.58	2514.91
633.77	2803.67
633.96	2850.77
634.15	2770.90
634.34	2645.98
634.53	2764.76
634.72	2721.75
634.91	2527.19
635.10	2695.13
635.29	2789.33
635.48	2756.57
635.67	2559.96
635.86	2443.23
636.05	2867.16
636.24	2764.76
636.43	2695.13
636.62	2705.37
636.81	2349.02
637.00	2777.05
637.19	2785.24
637.38	2664.41
637.57	2703.32
637.76	2791.38
637.95	2867.16
638.14	2637.78
638.33	2701.27
638.52	2740.18
638.71	2562.01
638.89	2592.73
639.08	3088.34
639.27	2957.27
639.46	2867.16
639.65	3071.95
639.84	3213.26
640.03	3330.00
640.22	3088.34
640.41	3106.77
640.60	2840.53
640.79	2875.35
640.98	2834.39
641.17	2834.39
641.36	2934.74
641.55	2840.53
641.74	2570.20
641.92	2635.74
642.11	2650.07
642.30	2670.55
642.49	2582.49
642.68	2654.17
642.87	2734.04
643.06	2777.05
643.25	2525.15
643.44	2584.54
643.63	2715.61
643.82	2875.35
644.00	2514.91
644.19	2643.93
644.38	2529.24
644.57	2803.67
644.76	2709.46
644.95	2588.63
645.14	2781.14
645.33	2654.17
645.52	2746.33
645.71	2467.80
645.89	2600.92
646.08	2731.99
646.27	2682.84
646.46	2830.29
646.65	2574.30
646.84	2752.47
647.03	2600.92
647.22	2750.42
647.40	2754.52
647.59	2660.31
647.78	2443.23
647.97	2574.30
648.16	2621.40
648.35	2830.29
648.54	2815.96
648.73	2570.20
648.91	2889.68
649.10	2754.52
649.29	2600.92
649.48	2566.10
649.67	2801.62
649.86	2772.95
650.05	2703.32
650.23	2838.48
650.42	2725.85
650.61	2985.94
650.80	2826.20
650.99	2990.03
651.18	2850.77
651.36	2912.21
651.55	2697.17
651.74	2777.05
651.93	2686.94
652.12	2764.76
652.31	2615.26
652.49	2648.02
652.68	2627.54
652.87	2918.36
653.06	2686.94
653.25	2883.54
653.44	2731.99
653.62	2955.22
653.81	2750.42
654.00	2691.03
654.19	2818.00
654.38	3119.06
654.56	2787.29
654.75	2594.78
654.94	2818.00
655.13	2760.66
655.32	2660.31
655.51	2719.70
655.69	2602.97
655.88	2822.10
656.07	2469.85
656.26	2674.65
656.45	2541.53
656.63	2750.42
656.82	2695.13
657.01	2906.07
657.20	2592.73
657.38	3024.85
657.57	2643.93
657.76	2467.80
657.95	2832.34
658.14	2621.40
658.32	2686.94
658.51	2588.63
658.70	2750.42
658.89	2826.20
659.08	2719.70
659.26	2824.15
659.45	2588.63
659.64	2832.34
659.83	2637.78
660.01	3098.58
660.20	2742.23
660.39	2953.17
660.58	2383.84
660.76	2744.28
660.95	2543.58
661.14	2697.17
661.33	2496.47
661.51	2598.87
661.70	2678.74
661.89	2813.91
662.08	2652.12
662.26	2498.52
662.45	2592.73
662.64	2969.55
662.83	2727.89
663.01	2553.82
663.20	2662.36
663.39	2936.79
663.58	2615.26
663.76	2637.78
663.95	2901.97
664.14	2496.47
664.32	2576.34
664.51	2498.52
664.70	2480.09
664.89	2688.98
665.07	2531.29
665.26	2746.33
665.45	2482.14
665.64	2789.33
665.82	2662.36
666.01	2744.28
666.20	2551.77
666.38	2879.44
666.57	2887.64
666.76	4319.17
666.95	10088.29
667.13	17188.60
667.32	21257.92
667.51	24065.68
667.69	25421.44
667.88	21741.24
668.07	15492.88
668.25	13098.81
668.44	11087.70
668.63	9478.00
668.81	8521.60
669.00	7311.25
669.19	6662.04
669.38	5824.42
669.56	5035.96
669.75	4265.92
669.94	3737.54
670.12	3278.80
670.31	2998.23
670.50	2940.88
670.68	2953.17
670.87	2785.24
671.06	2664.41
671.24	2736.09
671.43	2944.98
671.62	2838.48
671.80	2650.07
671.99	2748.37
672.18	2740.18
672.36	2820.05
672.55	2809.81
672.74	2709.46
672.92	2723.80
673.11	2912.21
673.29	2551.77
673.48	2836.44
673.67	2664.41
673.85	2897.88
674.04	2660.31
674.23	2674.65
674.41	2969.55
674.60	2545.63
674.79	2572.25
674.97	2486.23
675.16	2826.20
675.34	2865.11
675.53	2652.12
675.72	2740.18
675.90	2975.70
676.09	2707.41
676.28	2752.47
676.46	2535.39
676.65	2848.72
676.83	2588.63
677.02	2643.93
677.21	2736.09
677.39	2668.50
677.58	2572.25
677.77	2576.34
677.95	2531.29
678.14	2668.50
678.32	2658.26
678.51	2543.58
678.70	2979.79
678.88	2658.26
679.07	2652.12
679.25	2717.65
679.44	2648.02
679.63	2564.06
679.81	2742.23
680.00	2908.12
680.18	2729.94
680.37	3000.27
680.55	2641.88
680.74	2533.34
680.93	2508.76
681.11	2789.33
681.30	2680.79
681.48	2693.08
681.67	2680.79
681.85	2729.94
682.04	2635.74
682.23	2807.77
682.41	2764.76
682.60	2678.74
682.78	2682.84
682.97	2578.39
683.15	2676.70
683.34	2768.85
683.53	2932.69
683.71	2588.63
683.90	2738.13
684.08	2998.23
684.27	2617.30
684.45	2707.41
684.64	2762.71
684.82	2668.50
685.01	2908.12
685.19	2688.98
685.38	2895.83
685.57	2652.12
685.75	2598.87
685.94	2566.10
686.12	2551.77
686.31	2695.13
686.49	2942.93
686.68	2441.18
686.86	2688.98
687.05	2666.46
687.23	2985.94
687.42	2637.78
687.60	2445.27
687.79	2785.24
687.97	2922.45
688.16	2795.48
688.34	2840.53
688.53	2543.58
688.71	2711.51
688.90	2891.73
689.08	2668.50
689.27	2457.56
689.45	2820.05
689.64	2781.14
689.82	2676.70
690.01	2805.72
690.19	2738.13
690.38	2654.17
690.56	2881.49
690.75	2543.58
690.93	2627.54
691.12	2607.06
691.30	2691.03
691.49	2613.21
691.67	2654.17
691.86	2965.46
692.04	2621.40
692.23	2625.50
692.41	2756.57
692.60	3096.53
692.78	2811.86
692.97	2697.17
693.15	2789.33
693.34	2932.69
693.52	2861.01
693.71	2594.78
693.89	2691.03
694.08	2516.95
694.26	2752.47
694.44	2807.77
694.63	2818.00
694.81	2564.06
695.00	2668.50
695.18	2842.58
695.37	3141.58
695.55	2711.51
695.74	2662.36
695.92	2623.45
696.10	2883.54
696.29	2584.54
696.47	2598.87
696.66	2625.50
696.84	2543.58
697.03	2686.94
697.21	2928.60
697.40	4079.55
697.58	2869.20
697.76	2582.49
697.95	2588.63
698.13	2576.34
698.32	2656.22
698.50	2676.70
698.68	2705.37
698.87	2756.57
699.05	2975.70
699.24	2684.89
699.42	2521.05
699.61	2760.66
699.79	2705.37
699.97	2691.03
700.16	2535.39
700.34	2555.86
700.53	2746.33
700.71	2877.40
700.89	2818.00
701.08	2680.79
701.26	2635.74
701.45	3084.24
701.63	2590.68
701.81	2670.55
702.00	2633.69
702.18	2738.13
702.37	2686.94
702.55	2940.88
702.73	2799.57
702.92	2592.73
703.10	2963.41
703.28	2852.82
703.47	2572.25
703.65	2789.33
703.84	2777.05
704.02	2734.04
704.20	2920.40
704.39	2582.49
704.57	2627.54
704.75	2789.33
704.94	2777.05
705.12	2715.61
705.30	3098.58
705.49	5861.29
705.67	12083.02
705.86	17577.72
706.04	20500.17
706.22	23066.27
706.41	22890.15
706.59	17954.54
706.77	13365.04
706.96	11611.98
707.14	10448.74
707.32	8988.53
707.51	7804.81
707.69	6504.35
707.87	5392.30
708.06	4431.80
708.24	3854.28
708.42	3391.44
708.61	3332.05
708.79	2768.85
708.97	2760.66
709.16	2875.35
709.34	2869.20
709.52	2734.04
709.71	2637.78
709.89	2840.53
710.07	2586.58
710.26	2527.19
710.44	2645.98
710.62	2897.88
710.80	2670.55
710.99	2793.43
711.17	2762.71
711.35	2623.45
711.54	2617.30
711.72	2830.29
711.90	2736.09
712.09	2846.68
712.27	2658.26
712.45	2701.27
712.63	2588.63
712.82	2719.70
713.00	2729.94
713.18	2758.61
713.37	2795.48
713.55	2883.54
713.73	2822.10
713.91	2775.00
714.10	2652.12
714.28	2691.03
714.46	2672.60
714.65	2775.00
714.83	2664.41
715.01	2740.18
715.19	2820.05
715.38	2621.40
715.56	2723.80
715.74	2633.69
715.92	2582.49
716.11	2920.40
716.29	2447.32
716.47	2744.28
716.65	2652.12
716.84	2467.80
717.02	2789.33
717.20	2465.75
717.38	2676.70
717.57	2750.42
717.75	2709.46
717.93	2611.16
718.11	2887.64
718.30	2576.34
718.48	2641.88
718.66	2854.87
718.84	2846.68
719.03	2740.18
719.21	2529.24
719.39	2992.08
719.57	2783.19
719.75	2760.66
719.94	2592.73
720.12	2674.65
720.30	2760.66
720.48	2705.37
720.67	2553.82
720.85	2568.15
721.03	2557.91
721.21	2590.68
721.39	2789.33
721.58	2863.06
721.76	2744.28
721.94	2666.46
722.12	2693.08
722.30	2977.75
722.49	2676.70
722.67	2721.75
722.85	2731.99
723.03	2512.86
723.21	2635.74
723.40	2684.89
723.58	2781.14
723.76	2727.89
723.94	2944.98
724.12	2680.79
724.30	2861.01
724.49	2906.07
724.67	2551.77
724.85	2818.00
725.03	2475.99
725.21	2799.57
725.40	2926.55
725.58	2615.26
725.76	2838.48
725.94	2811.86
726.12	2650.07
726.30	2715.61
726.49	2572.25
726.67	2605.02
726.85	2723.80
727.03	3057.62
727.21	4093.89
727.39	5216.18
727.57	5756.84
727.76	6086.56
727.94	6297.50
728.12	5545.90
728.30	4628.41
728.48	4259.78
728.66	4011.97
728.84	3725.26
729.03	3397.58
729.21	3135.44
729.39	2918.36
729.57	2766.81
729.75	2832.34
729.93	2807.77
730.11	2613.21
730.30	2725.85
730.48	2674.65
730.66	2830.29
730.84	2756.57
731.02	2664.41
731.20	2633.69
731.38	2668.50
731.56	2539.48
731.74	2580.44
731.93	2691.03
732.11	2643.93
732.29	2600.92
732.47	2783.19
732.65	2758.61
732.83	2842.58
733.01	2717.65
733.19	2639.83
733.37	2842.58
733.56	2695.13
733.74	2645.98
733.92	2887.64
734.10	2633.69
734.28	2750.42
734.46	2490.33
734.64	2686.94
734.82	2723.80
735.00	2643.93
735.18	2570.20
735.36	2662.36
735.54	2717.65
735.73	2678.74
735.91	2742.23
736.09	2916.31
736.27	2650.07
736.45	2654.17
736.63	2408.41
736.81	2678.74
736.99	2856.92
737.17	2883.54
737.35	2533.34
737.53	2713.56
737.71	2678.74
737.89	2832.34
738.07	2551.77
738.25	2613.21
738.43	2549.72
738.61	2684.89
738.80	2574.30
738.98	2535.39
739.16	2617.30
739.34	2594.78
739.52	2848.72
739.70	2682.84
739.88	2766.81
740.06	2838.48
740.24	2408.41
740.42	2869.20
740.60	2539.48
740.78	2701.27
740.96	2447.32
741.14	2611.16
741.32	2691.03
741.50	2471.90
741.68	2920.40
741.86	2963.41
742.04	2525.15
742.22	2535.39
742.40	2617.30
742.58	2787.29
742.76	2592.73
742.94	2854.87
743.12	2537.43
743.30	2750.42
743.48	2830.29
743.66	2545.63
743.84	2725.85
744.02	2756.57
744.20	2734.04
744.38	2627.54
744.56	2617.30
744.74	2961.36
744.92	2797.53
745.10	2856.92
745.28	2727.89
745.46	2963.41
745.64	2641.88
745.82	2736.09
746.00	2680.79
746.18	2772.95
746.36	2611.16
746.54	2686.94
746.72	2742.23
746.90	2576.34
747.08	2854.87
747.26	2584.54
747.44	2754.52
747.62	2809.81
747.80	2807.77
747.98	2754.52
748.15	2582.49
748.33	2881.49
748.51	2750.42
748.69	2711.51
748.87	2605.02
749.05	2703.32
749.23	2779.09
749.41	2693.08
749.59	2654.17
749.77	2783.19
749.95	2682.84
750.13	2592.73
750.31	2836.44
750.49	2699.22
750.67	2801.62
750.85	2772.95
751.03	2627.54
751.20	3043.28
751.38	2758.61
751.56	2619.35
751.74	2670.55
751.92	2654.17
752.10	2553.82
752.28	2750.42
752.46	2621.40
752.64	2717.65
752.82	2746.33
753.00	2850.77
753.18	2609.11
753.35	2717.65
753.53	2664.41
753.71	2527.19
753.89	2793.43
754.07	2713.56
754.25	2840.53
754.43	2752.47
754.61	2586.58
754.79	2744.28
754.97	2686.94
755.14	2822.10
755.32	2482.14
755.50	2701.27
755.68	2729.94
755.86	2562.01
756.04	2645.98
756.22	2482.14
756.40	2877.40
756.57	2936.79
756.75	2625.50
756.93	2846.68
757.11	2895.83
757.29	2451.42
757.47	2617.30
757.65	2484.19
757.82	2394.08
758.00	2664.41
758.18	2676.70
758.36	2559.96
758.54	2871.25
758.72	2502.62
758.90	2758.61
759.07	2826.20
759.25	2584.54
759.43	2688.98
759.61	2562.01
759.79	3944.39
759.97	2856.92
760.15	2613.21
760.32	2645.98
760.50	2775.00
760.68	2973.65
760.86	2514.91
761.04	2818.00
761.22	2828.24
761.39	2723.80
761.57	2750.42
761.75	2637.78
761.93	2717.65
762.11	2633.69
762.28	2711.51
762.46	2562.01
762.64	2869.20
762.82	2574.30
763.00	2643.93
763.18	2791.38
763.35	2580.44
763.53	2824.15
763.71	2709.46
763.89	2617.30
764.07	2695.13
764.24	2750.42
764.42	2797.53
764.60	2611.16
764.78	2729.94
764.96	2772.95
765.13	2793.43
765.31	2584.54
765.49	2826.20
765.67	2572.25
765.84	2521.05
766.02	2598.87
766.20	2529.24
766.38	2760.66
766.56	2676.70
766.73	2766.81
766.91	2678.74
767.09	2772.95
767.27	2734.04
767.44	2535.39
767.62	2779.09
767.80	2648.02
767.98	2596.82
768.15	2664.41
768.33	2820.05
768.51	2891.73
768.69	2711.51
768.87	2654.17
769.04	2772.95
769.22	3094.48
769.40	2842.58
769.58	2854.87
769.75	2693.08
769.93	2893.78
770.11	2658.26
770.28	2574.30
770.46	2781.14
770.64	2701.27
770.82	2590.68
770.99	2613.21
771.17	2795.48
771.35	2674.65
771.53	2662.36
771.70	2625.50
771.88	2797.53
772.06	2713.56
772.23	2600.92
772.41	2678.74
772.59	2627.54
772.77	2617.30
772.94	2613.21
773.12	2699.22
773.30	2668.50
773.47	2760.66
773.65	2605.02
773.83	2871.25
774.01	2760.66
774.18	2394.08
774.36	2701.27
774.54	2475.99
774.71	2750.42
774.89	2498.52
775.07	2568.15
775.24	2564.06
775.42	2645.98
775.60	2918.36
775.78	2574.30
775.95	2441.18
776.13	2426.84
776.31	2488.28
776.48	2752.47
776.66	2854.87
776.84	2703.32
777.01	2504.67
777.19	2613.21
777.37	2602.97
777.54	2785.24
777.72	2973.65
777.90	2740.18
778.07	2543.58
778.25	3149.78
778.43	2848.72
778.60	2611.16
778.78	2713.56
778.96	2850.77
779.13	2592.73
779.31	2742.23
779.49	2676.70
779.66	2666.46
779.84	2645.98
780.01	2613.21
780.19	2543.58
780.37	2908.12
780.54	2746.33
780.72	2551.77
780.90	2654.17
781.07	2645.98
781.25	2490.33
781.43	2818.00
781.60	2662.36
781.78	2949.08
781.95	2746.33
782.13	2555.86
782.31	2598.87
782.48	2459.61
782.66	2682.84
782.83	2895.83
783.01	2750.42
783.19	2818.00
783.36	2666.46
783.54	2582.49
783.72	2742.23
783.89	2672.60
784.07	2727.89
784.24	2797.53
784.42	2801.62
784.60	2680.79
784.77	2731.99
784.95	2451.42
785.12	2641.88
785.30	2760.66
785.47	2594.78
785.65	2549.72
785.83	2656.22
786.00	2627.54
786.18	2705.37
786.35	2545.63
786.53	2557.91
786.71	2840.53
786.88	2734.04
787.06	2707.41
787.23	2674.65
787.41	2619.35
787.58	2805.72
787.76	2547.67
787.94	2635.74
788.11	2801.62
788.29	2498.52
788.46	2613.21
788.64	2469.85
788.81	2676.70
788.99	2602.97
789.16	2562.01
789.34	2674.65
789.52	2750.42
789.69	2666.46
789.87	2441.18
790.04	2633.69
790.22	2709.46
790.39	2983.89
790.57	2574.30
790.74	2600.92
790.92	2834.39
791.09	2527.19
791.27	2637.78
791.44	2799.57
791.62	2602.97
791.79	2846.68
791.97	2742.23
792.15	2996.18
792.32	2772.95
792.50	2742.23
792.67	2844.63
792.85	2791.38
793.02	2760.66
793.20	2707.41
793.37	2559.96
793.55	2605.02
793.72	2568.15
793.90	2826.20
794.07	2586.58
794.25	2578.39
794.42	2713.56
794.60	2594.78
794.77	2695.13
794.95	2834.39
795.12	2850.77
795.30	2650.07
795.47	2553.82
795.65	3074.00
795.82	2645.98
796.00	2688.98
796.17	2693.08
796.34	2572.25
796.52	2723.80
796.69	2852.82
796.87	2777.05
797.04	2731.99
797.22	2826.20
797.39	2754.52
797.57	2785.24
797.74	2707.41
797.92	2832.34
798.09	2654.17
798.27	2899.92
798.44	2582.49
798.62	2709.46
798.79	2748.37
798.96	2736.09
799.14	2633.69
799.31	3024.85
799.49	2645.98
799.66	2650.07
799.84	2729.94
800.01	2523.10
800.19	2797.53
800.36	2455.51
800.53	2664.41
800.71	2742.23
800.88	2955.22
801.06	2543.58
801.23	2641.88
801.41	2639.83
801.58	2680.79
801.75	2639.83
801.93	2697.17
802.10	2777.05
802.28	2713.56
802.45	2580.44
802.63	2678.74
802.80	2965.46
802.97	2545.63
803.15	2670.55
803.32	2693.08
803.50	2652.12
803.67	2658.26
803.84	2539.48
804.02	2674.65
804.19	2705.37
804.37	2414.56
804.54	2551.77
804.71	2562.01
804.89	2815.96
805.06	2533.34
805.24	2572.25
805.41	2533.34
805.58	2627.54
805.76	3157.97
805.93	2662.36
806.10	2856.92
806.28	2799.57
806.45	2721.75
806.63	2744.28
806.80	2731.99
806.97	2762.71
807.15	2820.05
807.32	2637.78
807.49	2666.46
807.67	2529.24
807.84	2727.89
808.01	2498.52
808.19	2887.64
808.36	3088.34
808.54	2641.88
808.71	2592.73
808.88	2676.70
809.06	2930.64
809.23	2965.46
809.40	2566.10
809.58	2740.18
809.75	2729.94
809.92	2543.58
810.10	2953.17
810.27	2631.64
810.44	2830.29
810.62	2818.00
810.79	2709.46
810.96	2625.50
811.14	2686.94
811.31	2756.57
811.48	2775.00
811.66	2731.99
811.83	2899.92
812.00	2789.33
812.18	2740.18
812.35	2944.98
812.52	2652.12
812.69	2672.60
812.87	2627.54
813.04	2580.44
813.21	2707.41
813.39	2578.39
813.56	2578.39
813.73	2828.24
813.91	2502.62
814.08	2670.55
814.25	2639.83
814.42	2445.27
814.60	2682.84
814.77	2807.77
814.94	2635.74
815.12	2719.70
815.29	3055.57
815.46	2605.02
815.63	2594.78
815.81	2707.41
815.98	2676.70
816.15	2600.92
816.33	2748.37
816.50	2676.70
816.67	2768.85
816.84	2594.78
817.02	2570.20
817.19	2625.50
817.36	2697.17
817.53	2826.20
817.71	2578.39
817.88	2752.47
818.05	2684.89
818.22	2631.64
818.40	2856.92
818.57	2582.49
818.74	2836.44
818.91	2693.08
819.09	2834.39
819.26	2727.89
819.43	2635.74
819.60	2607.06
819.78	2777.05
819.95	2752.47
820.12	2611.16
820.29	2916.31
820.47	2797.53
820.64	2537.43
820.81	2510.81
820.98	2602.97
821.15	2666.46
821.33	2781.14
821.50	2463.71
821.67	2758.61
821.84	2590.68
822.02	2746.33
822.19	2850.77
822.36	2668.50
822.53	2643.93
822.70	2592.73
822.88	2652.12
823.05	2895.83
823.22	2699.22
823.39	2748.37
823.56	2678.74
823.74	2953.17
823.91	2584.54
824.08	2508.76
824.25	2637.78
824.42	2889.68
824.60	2424.80
824.77	2678.74
824.94	2691.03
825.11	2879.44
825.28	2553.82
825.45	2641.88
825.63	2705.37
825.80	2582.49
825.97	2629.59
826.14	2691.03
826.31	2469.85
826.48	2815.96
826.66	2568.15
826.83	2641.88
827.00	2762.71
827.17	2609.11
827.34	2605.02
827.51	2543.58
827.69	2662.36
827.86	2529.24
828.03	2635.74
828.20	2605.02
828.37	2633.69
828.54	2811.86
828.71	2535.39
828.89	2740.18
829.06	2740.18
829.23	2861.01
829.40	2572.25
829.57	2572.25
829.74	2789.33
829.91	2584.54
830.09	2549.72
830.26	2736.09
830.43	3006.42
830.60	2701.27
830.77	2752.47
830.94	2813.91
831.11	2740.18
831.28	2695.13
831.46	2713.56
831.63	2594.78
831.80	2772.95
831.97	2525.15
832.14	2695.13
832.31	2682.84
832.48	2736.09
832.65	2901.97
832.82	2654.17
832.99	2686.94
833.17	2510.81
833.34	2983.89
833.51	2633.69
833.68	2441.18
833.85	2826.20
834.02	2555.86
834.19	2508.76
834.36	2576.34
834.53	2672.60
834.70	2781.14
834.87	2688.98
835.04	2531.29
835.22	2654.17
835.39	2680.79
835.56	2533.34
835.73	2609.11
835.90	2904.02
836.07	2574.30
836.24	2727.89
836.41	2527.19
836.58	2623.45
836.75	2867.16
836.92	2611.16
837.09	2519.00
837.26	2861.01
837.43	2711.51
837.60	2682.84
837.77	2557.91
837.94	2848.72
838.12	2926.55
838.29	2437.08
838.46	2449.37
838.63	2543.58
838.80	2887.64
838.97	2650.07
839.14	2521.05
839.31	2709.46
839.48	2711.51
839.65	2529.24
839.82	2615.26
839.99	2641.88
840.16	2658.26
840.33	2502.62
840.50	2584.54
840.67	2574.30
840.84	2400.22
841.01	2543.58
841.18	2523.10
841.35	2770.90
841.52	2811.86
841.69	2881.49
841.86	2600.92
842.03	2768.85
842.20	2850.77
842.37	2693.08
842.54	2627.54
842.71	2760.66
842.88	2586.58
843.05	2570.20
843.22	2529.24
843.39	2785.24
843.56	2645.98
843.73	2590.68
843.90	2607.06
844.07	2727.89
844.24	2777.05
844.41	2562.01
844.58	2645.98
844.75	2775.00
844.92	2795.48
845.09	2621.40
845.26	2539.48
845.43	2727.89
845.60	2658.26
845.77	2674.65
845.94	2629.59
846.10	2807.77
846.27	2461.66
846.44	2494.43
846.61	2512.86
846.78	2809.81
846.95	2787.29
847.12	2537.43
847.29	2527.19
847.46	2553.82
847.63	2783.19
847.80	2475.99
847.97	2572.25
848.14	3030.99
848.31	2656.22
848.48	2418.65
848.65	2598.87
848.82	2613.21
848.98	3051.47
849.15	2729.94
849.32	2658.26
849.49	2906.07
849.66	2676.70
849.83	2533.34
850.00	2521.05
850.17	2760.66
850.34	2711.51
850.51	2473.95
850.68	2625.50
850.85	3047.38
851.01	2719.70
851.18	2559.96
851.35	2531.29
851.52	2772.95
851.69	2975.70
851.86	2512.86
852.03	2500.57
852.20	2809.81
852.37	2715.61
852.53	2398.17
852.70	2455.51
852.87	2707.41
853.04	2838.48
853.21	2455.51
853.38	2772.95
853.55	2856.92
853.72	2865.11
853.89	2486.23
854.05	2539.48
854.22	2711.51
854.39	2670.55
854.56	2559.96
854.73	2721.75
854.90	2666.46
855.07	2678.74
855.23	2465.75
855.40	2539.48
855.57	2613.21
855.74	2408.41
855.91	2760.66
856.08	2420.70
856.25	2521.05
856.41	2650.07
856.58	2527.19
856.75	2510.81
856.92	2529.24
857.09	2916.31
857.26	2367.45
857.42	2506.71
857.59	2795.48
857.76	2664.41
857.93	2598.87
858.10	2596.82
858.27	2559.96
858.43	2779.09
858.60	2535.39
858.77	2473.95
858.94	2623.45
859.11	2906.07
859.27	2654.17
859.44	2549.72
859.61	3028.95
859.78	2791.38
859.95	2480.09
860.12	2490.33
860.28	3012.56
860.45	3014.61
860.62	2531.29
860.79	2611.16
860.95	2613.21
861.12	2652.12
861.29	2510.81
861.46	2527.19
861.63	2717.65
861.79	2682.84
861.96	2428.89
862.13	2529.24
862.30	2885.59
862.47	2594.78
862.63	2437.08
862.80	2609.11
862.97	2858.96
863.14	2674.65
863.30	2680.79
863.47	2443.23
863.64	2908.12
863.81	2731.99
863.97	2486.23
864.14	2648.02
864.31	2707.41
864.48	2719.70
864.65	2580.44
864.81	2703.32
864.98	2858.96
865.15	2822.10
865.32	2658.26
865.48	2619.35
865.65	2959.31
865.82	2633.69
865.98	2605.02
866.15	2691.03
866.32	2717.65
866.49	2707.41
866.65	2643.93
866.82	2516.95
866.99	2701.27
867.16	2617.30
867.32	2490.33
867.49	2396.12
867.66	2588.63
867.83	2551.77
867.99	2486.23
868.16	2570.20
868.33	2568.15
868.49	2734.04
868.66	2541.53
868.83	2641.88
868.99	2711.51
869.16	2752.47
869.33	2731.99
869.50	2617.30
869.66	2719.70
869.83	2635.74
870.00	2564.06
870.16	2619.35
870.33	2731.99
870.50	2838.48
870.66	2455.51
870.83	2637.78
871.00	2744.28
871.17	2824.15
871.33	2590.68
871.50	2537.43
871.67	2668.50
871.83	2533.34
872.00	2693.08
872.17	2576.34
872.33	2990.03
872.50	2846.68
872.67	2457.56
872.83	2555.86
873.00	2734.04
873.17	2740.18
873.33	2672.60
873.50	2566.10
873.67	2514.91
873.83	2596.82
874.00	2516.95
874.16	2637.78
874.33	2725.85
874.50	2521.05
874.66	2574.30
874.83	2559.96
875.00	2836.44
875.16	2955.22
875.33	2621.40
875.50	2375.64
875.66	2621.40
875.83	2764.76
875.99	2641.88
876.16	2648.02
876.33	2631.64
876.49	2736.09
876.66	2656.22
876.83	2559.96
876.99	2480.09
877.16	2672.60
877.32	2559.96
877.49	2572.25
877.66	2758.61
877.82	2912.21
877.99	2588.63
878.15	2750.42
878.32	2719.70
878.49	2772.95
878.65	2656.22
878.82	2777.05
878.98	2635.74
879.15	2758.61
879.32	2766.81
879.48	2664.41
879.65	2592.73
879.81	2654.17
879.98	2562.01
880.15	2619.35
880.31	2820.05
880.48	2533.34
880.64	2652.12
880.81	2715.61
880.97	3014.61
881.14	2922.45
881.31	2473.95
881.47	2729.94
881.64	2637.78
881.80	2557.91
881.97	2699.22
882.13	2648.02
882.30	2672.60
882.47	2598.87
882.63	2533.34
882.80	2519.00
882.96	2684.89
883.13	2940.88
883.29	2525.15
883.46	2543.58
883.62	3020.75
883.79	2727.89
883.95	2684.89
884.12	2492.38
884.29	2867.16
884.45	2682.84
884.62	2584.54
884.78	2537.43
884.95	2885.59
885.11	2592.73
885.28	2674.65
885.44	2559.96
885.61	2875.35
885.77	2920.40
885.94	2750.42
886.10	2602.97
886.27	2758.61
886.43	3051.47
886.60	2711.51
886.76	2596.82
886.93	2543.58
887.09	2711.51
887.26	2490.33
887.42	2570.20
887.59	2867.16
887.75	3002.32
887.92	2703.32
888.08	2693.08
888.25	3020.75
888.41	2838.48
888.58	2648.02
888.74	2451.42
888.91	2643.93
>>>>>End Processed Spectral Data<<<<<
