SpectraSuite Data File
++++++++++++++++++++++++++++++++++++
Date: Thu May 05 16:20:12 CEST 2016
User: root
Dark Spectrum Present: No
Reference Spectrum Present: No
Number of Sampled Component Spectra: 1
Spectrometers: USB4C02835
Integration Time (usec): 100000 (USB4C02835)
Spectra Averaged: 1 (USB4C02835)
Boxcar Smoothing: 0 (USB4C02835)
Correct for Electrical Dark: No (USB4C02835)
Strobe/Lamp Enabled: No (USB4C02835)
Correct for Detector Non-linearity: No (USB4C02835)
Correct for Stray Light: No (USB4C02835)
Number of Pixels in Processed Spectrum: 3648
>>>>>Begin Processed Spectral Data<<<<<
177.47	2066.40
177.69	2066.40
177.91	2066.40
178.13	1996.77
178.36	2029.54
178.58	2629.59
178.80	2748.37
179.02	2529.24
179.24	2527.19
179.46	2408.41
179.68	2504.67
179.90	2641.88
180.13	2637.78
180.35	2449.37
180.57	2525.15
180.79	2779.09
181.01	2697.17
181.23	2602.97
181.45	2605.02
181.67	2828.24
181.90	2863.06
182.12	2600.92
182.34	2402.27
182.56	2830.29
182.78	2789.33
183.00	2490.33
183.22	2547.67
183.44	2414.56
183.66	3125.20
183.89	2590.68
184.11	2508.76
184.33	2813.91
184.55	2904.02
184.77	2588.63
184.99	2559.96
185.21	2645.98
185.43	3069.91
185.65	2527.19
185.87	2473.95
186.10	3030.99
186.32	3053.52
186.54	2635.74
186.76	2617.30
186.98	2770.90
187.20	2666.46
187.42	2514.91
187.64	2498.52
187.86	2715.61
188.08	2852.82
188.30	2400.22
188.52	2598.87
188.75	2885.59
188.97	2893.78
189.19	2475.99
189.41	2441.18
189.63	2846.68
189.85	2615.26
190.07	2428.89
190.29	2344.92
190.51	2744.28
190.73	2613.21
190.95	2643.93
191.17	2521.05
191.39	2555.86
191.61	2672.60
191.84	2549.72
192.06	2619.35
192.28	2473.95
192.50	3141.58
192.72	2600.92
192.94	2492.38
193.16	2797.53
193.38	2793.43
193.60	2467.80
193.82	2600.92
194.04	2891.73
194.26	2834.39
194.48	2557.91
194.70	2447.32
194.92	2686.94
195.14	2738.13
195.36	2529.24
195.58	2541.53
195.80	2742.23
196.02	2652.12
196.24	2457.56
196.46	2633.69
196.69	2652.12
196.91	3094.48
197.13	2553.82
197.35	2510.81
197.57	2992.08
197.79	2838.48
198.01	2598.87
198.23	2582.49
198.45	2775.00
198.67	2566.10
198.89	2394.08
199.11	2678.74
199.33	2678.74
199.55	2420.70
199.77	2469.85
199.99	2617.30
200.21	2633.69
200.43	2697.17
200.65	2398.17
200.87	2439.13
201.09	2676.70
201.31	2691.03
201.53	2512.86
201.75	2584.54
201.97	2738.13
202.19	2740.18
202.41	2619.35
202.63	2723.80
202.85	2850.77
203.07	2748.37
203.29	2613.21
203.51	2471.90
203.73	2688.98
203.95	3131.34
204.17	2533.34
204.39	2598.87
204.61	2715.61
204.83	2666.46
205.05	2650.07
205.27	2607.06
205.49	3014.61
205.71	2705.37
205.93	2430.94
206.15	2363.36
206.37	2742.23
206.59	2662.36
206.81	2441.18
207.03	2416.60
207.25	2600.92
207.47	2832.34
207.69	2553.82
207.91	2680.79
208.13	2998.23
208.34	2607.06
208.56	2383.84
208.78	2547.67
209.00	2619.35
209.22	2621.40
209.44	2547.67
209.66	2461.66
209.88	2709.46
210.10	2656.22
210.32	2435.03
210.54	2582.49
210.76	2709.46
210.98	2863.06
211.20	2326.49
211.42	2600.92
211.64	3010.51
211.86	2744.28
212.08	2600.92
212.30	2549.72
212.52	2652.12
212.74	2762.71
212.96	2555.86
213.17	2590.68
213.39	2873.30
213.61	2940.88
213.83	2576.34
214.05	2426.84
214.27	2922.45
214.49	2566.10
214.71	2457.56
214.93	2654.17
215.15	2725.85
215.37	2867.16
215.59	2373.60
215.81	2525.15
216.03	2955.22
216.24	2740.18
216.46	2566.10
216.68	2555.86
216.90	2871.25
217.12	2910.16
217.34	2473.95
217.56	2619.35
217.78	2924.50
218.00	2807.77
218.22	2512.86
218.44	2627.54
218.66	2768.85
218.87	2987.99
219.09	2539.48
219.31	2451.42
219.53	2772.95
219.75	2574.30
219.97	2525.15
220.19	2580.44
220.41	2713.56
220.63	2949.08
220.85	2486.23
221.06	2598.87
221.28	2854.87
221.50	2834.39
221.72	2502.62
221.94	2453.47
222.16	2795.48
222.38	2844.63
222.60	2480.09
222.82	2586.58
223.03	2834.39
223.25	2582.49
223.47	2543.58
223.69	2766.81
223.91	2838.48
224.13	2736.09
224.35	2414.56
224.57	2670.55
224.78	2828.24
225.00	2596.82
225.22	2592.73
225.44	2457.56
225.66	2830.29
225.88	2650.07
226.10	2645.98
226.32	2549.72
226.53	2877.40
226.75	2693.08
226.97	2555.86
227.19	2533.34
227.41	2592.73
227.63	2742.23
227.85	2326.49
228.06	2543.58
228.28	2734.04
228.50	2934.74
228.72	2414.56
228.94	2482.14
229.16	2482.14
229.37	2609.11
229.59	2473.95
229.81	2809.81
230.03	2574.30
230.25	2547.67
230.47	2344.92
230.69	2430.94
230.90	2787.29
231.12	2598.87
231.34	2531.29
231.56	2615.26
231.78	2615.26
232.00	2652.12
232.21	2387.93
232.43	2512.86
232.65	2486.23
232.87	2775.00
233.09	2377.69
233.30	2465.75
233.52	2897.88
233.74	2670.55
233.96	2449.37
234.18	2631.64
234.40	2701.27
234.61	3030.99
234.83	2527.19
235.05	2414.56
235.27	3020.75
235.49	2867.16
235.70	2459.61
235.92	2598.87
236.14	2744.28
236.36	3082.19
236.58	2437.08
236.79	2580.44
237.01	2676.70
237.23	2701.27
237.45	2725.85
237.67	2572.25
237.88	2768.85
238.10	2928.60
238.32	2377.69
238.54	2486.23
238.76	2701.27
238.97	2627.54
239.19	2412.51
239.41	2564.06
239.63	2893.78
239.85	2611.16
240.06	2496.47
240.28	2447.32
240.50	2869.20
240.72	2791.38
240.93	2430.94
241.15	2627.54
241.37	2711.51
241.59	2906.07
241.81	2578.39
242.02	2527.19
242.24	2785.24
242.46	2805.72
242.68	2465.75
242.89	2502.62
243.11	2858.96
243.33	2729.94
243.55	2525.15
243.76	2537.43
243.98	2613.21
244.20	2699.22
244.42	2478.04
244.64	2523.10
244.85	2566.10
245.07	2609.11
245.29	2537.43
245.51	2572.25
245.72	2727.89
245.94	2891.73
246.16	2486.23
246.38	2568.15
246.59	2650.07
246.81	2553.82
247.03	2453.47
247.24	2416.60
247.46	2674.65
247.68	2744.28
247.90	2455.51
248.11	2492.38
248.33	2844.63
248.55	2686.94
248.77	2566.10
248.98	2578.39
249.20	2965.46
249.42	2842.58
249.64	2531.29
249.85	2533.34
250.07	2678.74
250.29	2828.24
250.50	2576.34
250.72	2387.93
250.94	2744.28
251.16	3049.43
251.37	2523.10
251.59	2512.86
251.81	2838.48
252.02	2981.84
252.24	2484.19
252.46	2631.64
252.68	2578.39
252.89	2684.89
253.11	2353.12
253.33	2648.02
253.54	2897.88
253.76	2510.81
253.98	2529.24
254.20	2502.62
254.41	2533.34
254.63	2645.98
254.85	2457.56
255.06	2678.74
255.28	2809.81
255.50	2668.50
255.71	2529.24
255.93	2336.73
256.15	2711.51
256.36	2701.27
256.58	2404.32
256.80	2564.06
257.02	2713.56
257.23	2691.03
257.45	2578.39
257.67	2625.50
257.88	2643.93
258.10	2775.00
258.32	2475.99
258.53	2576.34
258.75	2934.74
258.97	2715.61
259.18	2406.36
259.40	2478.04
259.62	2944.98
259.83	2932.69
260.05	2533.34
260.27	3194.83
260.48	2844.63
260.70	2539.48
260.92	2404.32
261.13	2592.73
261.35	2635.74
261.57	2848.72
261.78	2383.84
262.00	2422.75
262.22	2865.11
262.43	2611.16
262.65	2529.24
262.86	2584.54
263.08	3049.43
263.30	2707.41
263.51	2367.45
263.73	2508.76
263.95	2912.21
264.16	2691.03
264.38	2449.37
264.60	2465.75
264.81	2734.04
265.03	2856.92
265.25	2787.29
265.46	2445.27
265.68	2895.83
265.89	2852.82
266.11	2461.66
266.33	2486.23
266.54	2965.46
266.76	2719.70
266.98	2557.91
267.19	2609.11
267.41	2799.57
267.62	2701.27
267.84	2367.45
268.06	2613.21
268.27	2752.47
268.49	2871.25
268.70	2588.63
268.92	2539.48
269.14	2584.54
269.35	2465.75
269.57	2580.44
269.79	2613.21
270.00	2602.97
270.22	2924.50
270.43	2351.07
270.65	2414.56
270.87	2752.47
271.08	2920.40
271.30	2594.78
271.51	2551.77
271.73	2826.20
271.95	2963.41
272.16	2519.00
272.38	2555.86
272.59	2666.46
272.81	2754.52
273.02	2469.85
273.24	2564.06
273.46	2889.68
273.67	2502.62
273.89	2430.94
274.10	2457.56
274.32	2846.68
274.54	2707.41
274.75	2607.06
274.97	2559.96
275.18	2854.87
275.40	2809.81
275.61	2519.00
275.83	2609.11
276.05	2537.43
276.26	2719.70
276.48	2658.26
276.69	2598.87
276.91	2703.32
277.12	3000.27
277.34	2686.94
277.55	2678.74
277.77	2707.41
277.99	2658.26
278.20	2539.48
278.42	2502.62
278.63	2559.96
278.85	2619.35
279.06	2553.82
279.28	2727.89
279.49	2867.16
279.71	2830.29
279.93	2602.97
280.14	2574.30
280.36	2570.20
280.57	2797.53
280.79	2686.94
281.00	2525.15
281.22	2668.50
281.43	2861.01
281.65	2453.47
281.86	2539.48
282.08	2809.81
282.29	3053.52
282.51	2449.37
282.73	2578.39
282.94	2502.62
283.16	2803.67
283.37	2748.37
283.59	2641.88
283.80	2824.15
284.02	2711.51
284.23	2629.59
284.45	2543.58
284.66	2645.98
284.88	2564.06
285.09	2666.46
285.31	2779.09
285.52	2785.24
285.74	2512.86
285.95	2736.09
286.17	2688.98
286.38	2891.73
286.60	2664.41
286.81	2574.30
287.03	2617.30
287.24	2652.12
287.46	2879.44
287.67	2729.94
287.89	2768.85
288.10	2684.89
288.32	2762.71
288.53	2805.72
288.75	2596.82
288.96	2883.54
289.18	2691.03
289.39	2637.78
289.61	2680.79
289.82	3047.38
290.04	3016.66
290.25	2553.82
290.47	2682.84
290.68	2729.94
290.90	2863.06
291.11	2502.62
291.33	2686.94
291.54	2633.69
291.76	2590.68
291.97	2703.32
292.18	2682.84
292.40	2629.59
292.61	2592.73
292.83	2869.20
293.04	2658.26
293.26	2756.57
293.47	2783.19
293.69	2494.43
293.90	2539.48
294.12	2826.20
294.33	2766.81
294.55	2607.06
294.76	2785.24
294.97	2899.92
295.19	3033.04
295.40	2605.02
295.62	2672.60
295.83	2899.92
296.05	2613.21
296.26	2768.85
296.48	2613.21
296.69	2754.52
296.90	2750.42
297.12	2660.31
297.33	2736.09
297.55	2764.76
297.76	2815.96
297.98	2670.55
298.19	2668.50
298.41	2717.65
298.62	2541.53
298.83	2805.72
299.05	2736.09
299.26	2609.11
299.48	2568.15
299.69	2748.37
299.90	2658.26
300.12	2605.02
300.33	2834.39
300.55	2682.84
300.76	2619.35
300.98	2580.44
301.19	2912.21
301.40	2564.06
301.62	2570.20
301.83	2834.39
302.05	2719.70
302.26	2580.44
302.47	2664.41
302.69	2557.91
302.90	2652.12
303.12	2381.79
303.33	2666.46
303.54	2969.55
303.76	2623.45
303.97	2564.06
304.19	2777.05
304.40	2693.08
304.61	2748.37
304.83	2756.57
305.04	2725.85
305.26	2748.37
305.47	2736.09
305.68	2693.08
305.90	2445.27
306.11	2887.64
306.33	2678.74
306.54	2596.82
306.75	2629.59
306.97	2441.18
307.18	2549.72
307.39	2559.96
307.61	2674.65
307.82	2619.35
308.04	2877.40
308.25	2486.23
308.46	2693.08
308.68	2686.94
308.89	2727.89
309.10	2691.03
309.32	2713.56
309.53	2742.23
309.74	2846.68
309.96	2559.96
310.17	2676.70
310.39	2625.50
310.60	2770.90
310.81	2719.70
311.03	2478.04
311.24	2797.53
311.45	2797.53
311.67	2811.86
311.88	2707.41
312.09	2678.74
312.31	2666.46
312.52	2623.45
312.73	2572.25
312.95	2502.62
313.16	2613.21
313.37	2760.66
313.59	2697.17
313.80	2805.72
314.01	3012.56
314.23	2590.68
314.44	2535.39
314.65	2596.82
314.87	2621.40
315.08	2527.19
315.29	2674.65
315.51	2580.44
315.72	2514.91
315.93	2693.08
316.15	2686.94
316.36	2625.50
316.57	2707.41
316.79	2643.93
317.00	2510.81
317.21	2797.53
317.43	2572.25
317.64	2684.89
317.85	2613.21
318.07	2566.10
318.28	2678.74
318.49	2717.65
318.70	2867.16
318.92	2793.43
319.13	2766.81
319.34	2742.23
319.56	2654.17
319.77	2664.41
319.98	2850.77
320.20	2752.47
320.41	2715.61
320.62	2832.34
320.83	2584.54
321.05	2861.01
321.26	2660.31
321.47	2719.70
321.69	2752.47
321.90	2490.33
322.11	2514.91
322.32	2775.00
322.54	2920.40
322.75	2592.73
322.96	3227.60
323.18	2527.19
323.39	2430.94
323.60	2523.10
323.81	2742.23
324.03	2645.98
324.24	2723.80
324.45	2758.61
324.66	2551.77
324.88	2914.26
325.09	3039.19
325.30	2588.63
325.52	2586.58
325.73	2744.28
325.94	2627.54
326.15	2437.08
326.37	2480.09
326.58	2901.97
326.79	2979.79
327.00	2570.20
327.22	2584.54
327.43	2613.21
327.64	2566.10
327.85	2633.69
328.07	2629.59
328.28	3020.75
328.49	2658.26
328.70	2586.58
328.92	2674.65
329.13	2621.40
329.34	2750.42
329.55	2834.39
329.76	2678.74
329.98	2740.18
330.19	2865.11
330.40	2686.94
330.61	2697.17
330.83	2861.01
331.04	2654.17
331.25	2662.36
331.46	2602.97
331.68	2531.29
331.89	2971.60
332.10	2635.74
332.31	2490.33
332.52	2715.61
332.74	2818.00
332.95	2529.24
333.16	2641.88
333.37	2856.92
333.58	2654.17
333.80	2639.83
334.01	2420.70
334.22	2662.36
334.43	2639.83
334.64	2586.58
334.86	2551.77
335.07	2602.97
335.28	2940.88
335.49	2533.34
335.70	2725.85
335.92	2918.36
336.13	2934.74
336.34	2682.84
336.55	2688.98
336.76	2731.99
336.98	2416.60
337.19	2658.26
337.40	2699.22
337.61	3147.73
337.82	2686.94
338.04	2717.65
338.25	2437.08
338.46	2678.74
338.67	2678.74
338.88	2506.71
339.09	2547.67
339.31	2650.07
339.52	2586.58
339.73	2527.19
339.94	2594.78
340.15	2906.07
340.36	2705.37
340.58	2555.86
340.79	2525.15
341.00	2781.14
341.21	2551.77
341.42	2867.16
341.63	2695.13
341.85	2758.61
342.06	2736.09
342.27	2523.10
342.48	2680.79
342.69	2498.52
342.90	2744.28
343.12	2906.07
343.33	2539.48
343.54	2916.31
343.75	2947.03
343.96	2656.22
344.17	2553.82
344.38	2641.88
344.60	2555.86
344.81	2596.82
345.02	2633.69
345.23	2858.96
345.44	3088.34
345.65	2742.23
345.86	2627.54
346.07	2744.28
346.29	2670.55
346.50	2699.22
346.71	2709.46
346.92	2910.16
347.13	3106.77
347.34	2621.40
347.55	2486.23
347.76	2736.09
347.98	2510.81
348.19	2652.12
348.40	2762.71
348.61	2744.28
348.82	3047.38
349.03	2709.46
349.24	2545.63
349.45	3018.71
349.66	2437.08
349.88	2594.78
350.09	2469.85
350.30	2947.03
350.51	2924.50
350.72	2682.84
350.93	2639.83
351.14	2645.98
351.35	2875.35
351.56	2658.26
351.77	2625.50
351.99	2752.47
352.20	2967.51
352.41	2721.75
352.62	2396.12
352.83	2602.97
353.04	2617.30
353.25	2605.02
353.46	2643.93
353.67	2838.48
353.88	2496.47
354.09	2543.58
354.30	2576.34
354.52	2822.10
354.73	2740.18
354.94	2586.58
355.15	2641.88
355.36	3012.56
355.57	2627.54
355.78	2596.82
355.99	2664.41
356.20	2670.55
356.41	2908.12
356.62	2680.79
356.83	2559.96
357.04	2895.83
357.25	2588.63
357.46	2514.91
357.68	2473.95
357.89	2572.25
358.10	2688.98
358.31	2541.53
358.52	2643.93
358.73	2553.82
358.94	2574.30
359.15	2555.86
359.36	2643.93
359.57	2807.77
359.78	2713.56
359.99	2801.62
360.20	2506.71
360.41	2619.35
360.62	2770.90
360.83	2641.88
361.04	2668.50
361.25	2785.24
361.46	2971.60
361.67	2672.60
361.88	2695.13
362.09	2901.97
362.30	2723.80
362.51	2553.82
362.72	2635.74
362.93	2826.20
363.14	2791.38
363.35	2707.41
363.56	2570.20
363.78	2889.68
363.99	2848.72
364.20	2568.15
364.41	2641.88
364.62	2957.27
364.83	2725.85
365.04	2590.68
365.25	2637.78
365.46	3016.66
365.67	2652.12
365.88	2729.94
366.09	2568.15
366.30	2633.69
366.51	2736.09
366.72	2533.34
366.93	2582.49
367.14	2760.66
367.35	2934.74
367.56	2564.06
367.77	2756.57
367.98	2801.62
368.18	2672.60
368.39	2664.41
368.60	2510.81
368.81	2818.00
369.02	2748.37
369.23	2631.64
369.44	2447.32
369.65	2568.15
369.86	2775.00
370.07	2742.23
370.28	2512.86
370.49	2858.96
370.70	2703.32
370.91	2514.91
371.12	2496.47
371.33	2949.08
371.54	2621.40
371.75	2801.62
371.96	2424.80
372.17	2721.75
372.38	2678.74
372.59	2666.46
372.80	2576.34
373.01	2645.98
373.22	2762.71
373.43	2619.35
373.64	2496.47
373.85	2840.53
374.06	2897.88
374.26	2731.99
374.47	2670.55
374.68	2963.41
374.89	2740.18
375.10	2602.97
375.31	2719.70
375.52	2723.80
375.73	2742.23
375.94	2469.85
376.15	2750.42
376.36	2684.89
376.57	2615.26
376.78	2584.54
376.99	2707.41
377.20	2947.03
377.40	2621.40
377.61	2854.87
377.82	2473.95
378.03	2897.88
378.24	2883.54
378.45	2664.41
378.66	2648.02
378.87	2482.14
379.08	2475.99
379.29	2637.78
379.50	2703.32
379.71	2695.13
379.91	2838.48
380.12	2598.87
380.33	2635.74
380.54	2645.98
380.75	2699.22
380.96	2611.16
381.17	2611.16
381.38	2621.40
381.59	2729.94
381.80	2594.78
382.00	2910.16
382.21	2738.13
382.42	3067.86
382.63	2965.46
382.84	2758.61
383.05	2858.96
383.26	2906.07
383.47	2701.27
383.68	2568.15
383.88	2744.28
384.09	2719.70
384.30	2904.02
384.51	2797.53
384.72	2570.20
384.93	2502.62
385.14	2701.27
385.35	2844.63
385.55	2502.62
385.76	2858.96
385.97	2600.92
386.18	2441.18
386.39	2545.63
386.60	2648.02
386.81	2621.40
387.02	2478.04
387.22	2490.33
387.43	2865.11
387.64	2707.41
387.85	2779.09
388.06	2871.25
388.27	3928.00
388.48	7462.80
388.68	11007.83
388.89	13549.36
389.10	14462.76
389.31	13608.75
389.52	10917.72
389.73	9455.47
389.93	8603.52
390.14	7831.43
390.35	7034.77
390.56	6336.42
390.77	5404.59
390.98	4054.98
391.18	3499.98
391.39	3231.69
391.60	2758.61
391.81	2899.92
392.02	2609.11
392.23	3125.20
392.43	2775.00
392.64	2772.95
392.85	2707.41
393.06	3004.37
393.27	2805.72
393.47	2578.39
393.68	2695.13
393.89	2631.64
394.10	2901.97
394.31	2566.10
394.52	2551.77
394.72	2617.30
394.93	2920.40
395.14	2617.30
395.35	2762.71
395.56	2627.54
395.76	2709.46
395.97	2650.07
396.18	2705.37
396.39	2762.71
396.60	3254.22
396.80	3061.71
397.01	2869.20
397.22	2795.48
397.43	2940.88
397.64	2588.63
397.84	2772.95
398.05	3055.57
398.26	2766.81
398.47	2807.77
398.67	2779.09
398.88	2725.85
399.09	2842.58
399.30	2592.73
399.51	2691.03
399.71	2580.44
399.92	2662.36
400.13	2637.78
400.34	2582.49
400.54	2805.72
400.75	2942.93
400.96	2680.79
401.17	2883.54
401.37	2738.13
401.58	2715.61
401.79	2633.69
402.00	2785.24
402.21	3051.47
402.41	2965.46
402.62	2920.40
402.83	3049.43
403.04	3096.53
403.24	3317.71
403.45	2744.28
403.66	2887.64
403.87	2899.92
404.07	2996.18
404.28	3010.51
404.49	2920.40
404.70	2768.85
404.90	2858.96
405.11	2688.98
405.32	2750.42
405.52	2666.46
405.73	2584.54
405.94	2613.21
406.15	2615.26
406.35	2824.15
406.56	2863.06
406.77	2785.24
406.98	2654.17
407.18	2637.78
407.39	2846.68
407.60	2633.69
407.80	2672.60
408.01	2596.82
408.22	2801.62
408.43	2508.76
408.63	2777.05
408.84	2936.79
409.05	2920.40
409.25	2654.17
409.46	2623.45
409.67	2672.60
409.88	2660.31
410.08	2711.51
410.29	2635.74
410.50	2824.15
410.70	2789.33
410.91	2574.30
411.12	2742.23
411.32	2697.17
411.53	2564.06
411.74	2717.65
411.95	2791.38
412.15	2727.89
412.36	2871.25
412.57	2725.85
412.77	2729.94
412.98	2703.32
413.19	2713.56
413.39	2678.74
413.60	2740.18
413.81	2906.07
414.01	2564.06
414.22	2627.54
414.43	2727.89
414.63	2627.54
414.84	2875.35
415.05	2648.02
415.25	2486.23
415.46	2834.39
415.67	2701.27
415.87	2742.23
416.08	2674.65
416.29	2678.74
416.49	2922.45
416.70	2695.13
416.91	2615.26
417.11	2693.08
417.32	2824.15
417.53	2729.94
417.73	2750.42
417.94	2729.94
418.15	2738.13
418.35	2699.22
418.56	2637.78
418.77	3047.38
418.97	2731.99
419.18	2678.74
419.38	2445.27
419.59	2775.00
419.80	2975.70
420.00	2627.54
420.21	2752.47
420.42	2848.72
420.62	2772.95
420.83	2572.25
421.04	2625.50
421.24	2686.94
421.45	2805.72
421.65	2709.46
421.86	2654.17
422.07	2783.19
422.27	2703.32
422.48	2666.46
422.69	2553.82
422.89	2815.96
423.10	2658.26
423.30	2514.91
423.51	2721.75
423.72	2805.72
423.92	2748.37
424.13	2488.28
424.33	2785.24
424.54	2834.39
424.75	2717.65
424.95	2899.92
425.16	2617.30
425.36	2676.70
425.57	2906.07
425.78	2725.85
425.98	2750.42
426.19	2691.03
426.39	2633.69
426.60	2715.61
426.81	2789.33
427.01	2693.08
427.22	2594.78
427.42	2467.80
427.63	2551.77
427.83	2932.69
428.04	3004.37
428.25	2768.85
428.45	2695.13
428.66	2824.15
428.86	2777.05
429.07	2670.55
429.28	2623.45
429.48	2637.78
429.69	2613.21
429.89	2725.85
430.10	2516.95
430.30	2832.34
430.51	2824.15
430.71	2580.44
430.92	2709.46
431.13	2682.84
431.33	2723.80
431.54	2711.51
431.74	2908.12
431.95	3168.21
432.15	2609.11
432.36	2709.46
432.56	2725.85
432.77	2992.08
432.98	2965.46
433.18	2623.45
433.39	2549.72
433.59	2711.51
433.80	3053.52
434.00	2824.15
434.21	2605.02
434.41	2592.73
434.62	3069.91
434.82	2527.19
435.03	2545.63
435.23	2760.66
435.44	2502.62
435.64	2588.63
435.85	2680.79
436.06	2834.39
436.26	2867.16
436.47	2555.86
436.67	2635.74
436.88	2699.22
437.08	2914.26
437.29	2840.53
437.49	2709.46
437.70	3014.61
437.90	2713.56
438.11	2869.20
438.31	2672.60
438.52	2936.79
438.72	2930.64
438.93	2932.69
439.13	2723.80
439.34	2879.44
439.54	2746.33
439.75	2734.04
439.95	2754.52
440.16	2594.78
440.36	2678.74
440.57	2658.26
440.77	2705.37
440.98	2680.79
441.18	2764.76
441.39	2613.21
441.59	2478.04
441.80	3000.27
442.00	2791.38
442.21	2734.04
442.41	2457.56
442.62	2906.07
442.82	2617.30
443.02	2596.82
443.23	2727.89
443.43	2666.46
443.64	2990.03
443.84	2588.63
444.05	2723.80
444.25	2826.20
444.46	2607.06
444.66	2664.41
444.87	2863.06
445.07	2521.05
445.28	2684.89
445.48	2797.53
445.69	2752.47
445.89	3088.34
446.09	2703.32
446.30	2951.12
446.50	3137.49
446.71	4579.26
446.91	5636.01
447.12	6408.09
447.32	6752.15
447.53	6612.89
447.73	5334.96
447.93	4794.29
448.14	4558.78
448.34	4546.49
448.55	3870.66
448.75	3823.56
448.96	3461.07
449.16	3426.25
449.36	3241.93
449.57	2871.25
449.77	2680.79
449.98	2635.74
450.18	2828.24
450.39	2756.57
450.59	2729.94
450.79	2781.14
451.00	2652.12
451.20	2787.29
451.41	2641.88
451.61	2711.51
451.81	2703.32
452.02	2617.30
452.22	2602.97
452.43	2627.54
452.63	2666.46
452.84	2637.78
453.04	2566.10
453.24	2770.90
453.45	2607.06
453.65	2674.65
453.86	2680.79
454.06	2744.28
454.26	2701.27
454.47	2637.78
454.67	2813.91
454.87	2799.57
455.08	2648.02
455.28	2801.62
455.49	2754.52
455.69	2723.80
455.89	3028.95
456.10	2801.62
456.30	2572.25
456.51	2906.07
456.71	2721.75
456.91	2801.62
457.12	2654.17
457.32	2785.24
457.52	2488.28
457.73	2727.89
457.93	2727.89
458.14	2637.78
458.34	2473.95
458.54	2609.11
458.75	2602.97
458.95	2756.57
459.15	2762.71
459.36	2691.03
459.56	2658.26
459.76	3061.71
459.97	2717.65
460.17	2727.89
460.37	2760.66
460.58	2674.65
460.78	2789.33
460.99	2650.07
461.19	2695.13
461.39	2643.93
461.60	2731.99
461.80	2686.94
462.00	2488.28
462.21	2752.47
462.41	2592.73
462.61	2521.05
462.82	2500.57
463.02	2752.47
463.22	2705.37
463.43	2703.32
463.63	2670.55
463.83	2973.65
464.04	2836.44
464.24	2676.70
464.44	2686.94
464.64	2826.20
464.85	2838.48
465.05	2678.74
465.25	2645.98
465.46	2580.44
465.66	2820.05
465.86	2789.33
466.07	2623.45
466.27	2731.99
466.47	2594.78
466.68	2467.80
466.88	2842.58
467.08	2873.30
467.29	2895.83
467.49	2748.37
467.69	2682.84
467.89	2805.72
468.10	2734.04
468.30	2746.33
468.50	2803.67
468.71	2881.49
468.91	2627.54
469.11	2793.43
469.31	2740.18
469.52	2613.21
469.72	3022.80
469.92	2867.16
470.13	2623.45
470.33	2746.33
470.53	2871.25
470.73	3002.32
470.94	3286.99
471.14	3387.34
471.34	3839.94
471.54	3610.57
471.75	3403.72
471.95	3133.39
472.15	3096.53
472.36	3180.50
472.56	2940.88
472.76	3174.35
472.96	3057.62
473.17	2967.51
473.37	2840.53
473.57	2752.47
473.77	2779.09
473.98	2738.13
474.18	2533.34
474.38	3192.78
474.58	2682.84
474.79	2666.46
474.99	2832.34
475.19	2805.72
475.39	2633.69
475.60	2697.17
475.80	2662.36
476.00	2719.70
476.20	2695.13
476.41	2693.08
476.61	2731.99
476.81	2947.03
477.01	2621.40
477.21	2858.96
477.42	2777.05
477.62	2617.30
477.82	2852.82
478.02	2609.11
478.23	2719.70
478.43	2615.26
478.63	2688.98
478.83	2686.94
479.03	2666.46
479.24	2893.78
479.44	2998.23
479.64	2686.94
479.84	2394.08
480.04	2586.58
480.25	2973.65
480.45	2592.73
480.65	2613.21
480.85	2940.88
481.06	2668.50
481.26	2699.22
481.46	2637.78
481.66	2832.34
481.86	2613.21
482.06	2830.29
482.27	2648.02
482.47	2621.40
482.67	2717.65
482.87	2674.65
483.07	2815.96
483.28	2670.55
483.48	2598.87
483.68	2703.32
483.88	2527.19
484.08	2451.42
484.29	2574.30
484.49	2701.27
484.69	2557.91
484.89	2930.64
485.09	2811.86
485.29	2699.22
485.50	2717.65
485.70	2645.98
485.90	2863.06
486.10	2738.13
486.30	2645.98
486.50	2920.40
486.71	2777.05
486.91	2723.80
487.11	2746.33
487.31	2551.77
487.51	2764.76
487.71	2615.26
487.91	2533.34
488.12	2562.01
488.32	2426.84
488.52	2559.96
488.72	2410.46
488.92	2742.23
489.12	2926.55
489.32	2805.72
489.53	2676.70
489.73	2525.15
489.93	2949.08
490.13	2668.50
490.33	2457.56
490.53	2731.99
490.73	2848.72
490.94	2494.43
491.14	2750.42
491.34	2826.20
491.54	2942.93
491.74	3416.01
491.94	4036.55
492.14	4435.90
492.34	4456.38
492.54	4175.81
492.75	3622.86
492.95	3588.04
493.15	3436.49
493.35	3299.28
493.55	3282.89
493.75	3030.99
493.95	3190.74
494.15	2897.88
494.35	2791.38
494.56	2803.67
494.76	2623.45
494.96	2797.53
495.16	2654.17
495.36	2703.32
495.56	2629.59
495.76	2623.45
495.96	2652.12
496.16	2594.78
496.36	2985.94
496.56	2617.30
496.77	2676.70
496.97	2707.41
497.17	2824.15
497.37	2488.28
497.57	2654.17
497.77	2785.24
497.97	2537.43
498.17	2719.70
498.37	2645.98
498.57	2793.43
498.77	2686.94
498.97	2789.33
499.17	2863.06
499.38	2768.85
499.58	2848.72
499.78	2840.53
499.98	2768.85
500.18	2744.28
500.38	2609.11
500.58	2811.86
500.78	3213.26
500.98	5341.10
501.18	7225.23
501.38	8685.44
501.58	9383.79
501.78	9269.11
501.98	7661.45
502.18	6578.08
502.38	5627.82
502.58	5457.84
502.78	4820.92
502.98	4591.55
503.18	4362.17
503.38	4073.41
503.59	3559.37
503.79	3487.69
503.99	3225.55
504.19	3131.34
504.39	3190.74
504.59	3063.76
504.79	3078.10
504.99	3182.54
505.19	3030.99
505.39	2811.86
505.59	3012.56
505.79	3020.75
505.99	2912.21
506.19	2633.69
506.39	2822.10
506.59	2619.35
506.79	2748.37
506.99	2758.61
507.19	2668.50
507.39	2795.48
507.59	2473.95
507.79	2656.22
507.99	2539.48
508.19	2721.75
508.39	2715.61
508.59	2680.79
508.79	2734.04
508.99	3045.33
509.19	2621.40
509.39	2686.94
509.59	2557.91
509.79	2605.02
509.99	2713.56
510.19	2836.44
510.39	2713.56
510.59	2639.83
510.79	2695.13
510.99	2465.75
511.19	2602.97
511.39	2908.12
511.59	2932.69
511.79	2811.86
511.99	2670.55
512.19	2985.94
512.38	2762.71
512.58	2641.88
512.78	2691.03
512.98	2830.29
513.18	2971.60
513.38	2471.90
513.58	2725.85
513.78	2711.51
513.98	2725.85
514.18	2553.82
514.38	2633.69
514.58	2779.09
514.78	2650.07
514.98	2590.68
515.18	2709.46
515.38	2525.15
515.58	2990.03
515.78	2637.78
515.98	2711.51
516.18	2830.29
516.38	2695.13
516.57	2576.34
516.77	2619.35
516.97	2856.92
517.17	2592.73
517.37	2473.95
517.57	2715.61
517.77	2746.33
517.97	2600.92
518.17	2750.42
518.37	2523.10
518.57	2699.22
518.77	2637.78
518.97	2590.68
519.16	2760.66
519.36	2914.26
519.56	2701.27
519.76	2676.70
519.96	2721.75
520.16	2951.12
520.36	2607.06
520.56	2811.86
520.76	2545.63
520.96	2709.46
521.16	2883.54
521.35	2797.53
521.55	2865.11
521.75	2717.65
521.95	2592.73
522.15	2588.63
522.35	2551.77
522.55	2600.92
522.75	2748.37
522.95	2586.58
523.14	2473.95
523.34	2750.42
523.54	2623.45
523.74	2727.89
523.94	2752.47
524.14	2541.53
524.34	2801.62
524.54	2795.48
524.73	2629.59
524.93	2842.58
525.13	2768.85
525.33	2475.99
525.53	2865.11
525.73	2883.54
525.93	2713.56
526.13	2609.11
526.32	2625.50
526.52	2867.16
526.72	2803.67
526.92	2709.46
527.12	2596.82
527.32	2582.49
527.52	2715.61
527.71	2658.26
527.91	2619.35
528.11	2676.70
528.31	2674.65
528.51	2582.49
528.71	2674.65
528.90	2838.48
529.10	2906.07
529.30	2785.24
529.50	2389.98
529.70	2789.33
529.90	2760.66
530.09	2648.02
530.29	2498.52
530.49	2551.77
530.69	3129.30
530.89	2686.94
531.09	2750.42
531.28	2701.27
531.48	2895.83
531.68	2623.45
531.88	2645.98
532.08	2928.60
532.28	2678.74
532.47	2791.38
532.67	2815.96
532.87	2742.23
533.07	2678.74
533.27	2752.47
533.46	2701.27
533.66	2856.92
533.86	2641.88
534.06	2709.46
534.26	2609.11
534.45	2688.98
534.65	2863.06
534.85	2772.95
535.05	2615.26
535.25	2807.77
535.44	2541.53
535.64	2791.38
535.84	2602.97
536.04	2652.12
536.24	2629.59
536.43	2662.36
536.63	2672.60
536.83	2707.41
537.03	2766.81
537.22	2531.29
537.42	2412.51
537.62	2764.76
537.82	2668.50
538.02	2858.96
538.21	2789.33
538.41	3141.58
538.61	2795.48
538.81	2674.65
539.00	2750.42
539.20	2514.91
539.40	2717.65
539.60	2750.42
539.79	2762.71
539.99	2686.94
540.19	2566.10
540.39	2680.79
540.58	2729.94
540.78	2883.54
540.98	2770.90
541.18	2736.09
541.37	2768.85
541.57	2652.12
541.77	2736.09
541.97	2621.40
542.16	2445.27
542.36	2672.60
542.56	2701.27
542.76	2863.06
542.95	2746.33
543.15	2783.19
543.35	2881.49
543.54	2559.96
543.74	2596.82
543.94	2961.36
544.14	2594.78
544.33	2777.05
544.53	2674.65
544.73	2746.33
544.93	2750.42
545.12	2564.06
545.32	2637.78
545.52	2736.09
545.71	2457.56
545.91	2613.21
546.11	2525.15
546.30	2553.82
546.50	2869.20
546.70	2744.28
546.90	2709.46
547.09	2437.08
547.29	2758.61
547.49	2731.99
547.68	2648.02
547.88	2576.34
548.08	2801.62
548.27	3117.01
548.47	2562.01
548.67	2664.41
548.87	2764.76
549.06	2549.72
549.26	2711.51
549.46	2684.89
549.65	2645.98
549.85	2662.36
550.05	2752.47
550.24	2512.86
550.44	2660.31
550.64	2643.93
550.83	2629.59
551.03	2951.12
551.23	2801.62
551.42	2711.51
551.62	2656.22
551.82	2721.75
552.01	2699.22
552.21	2850.77
552.41	2731.99
552.60	2875.35
552.80	2783.19
553.00	2551.77
553.19	2635.74
553.39	2994.13
553.59	2553.82
553.78	2758.61
553.98	2680.79
554.17	2572.25
554.37	2705.37
554.57	2686.94
554.76	2506.71
554.96	2637.78
555.16	2752.47
555.35	2740.18
555.55	2756.57
555.75	2731.99
555.94	2789.33
556.14	2551.77
556.33	2627.54
556.53	2713.56
556.73	2682.84
556.92	2781.14
557.12	2715.61
557.32	2949.08
557.51	2940.88
557.71	2639.83
557.90	2887.64
558.10	2961.36
558.30	2645.98
558.49	2568.15
558.69	2660.31
558.88	2803.67
559.08	2701.27
559.28	2588.63
559.47	2658.26
559.67	2826.20
559.86	3016.66
560.06	2746.33
560.26	2605.02
560.45	2779.09
560.65	2695.13
560.84	2881.49
561.04	2519.00
561.24	2815.96
561.43	2576.34
561.63	2883.54
561.82	2777.05
562.02	2850.77
562.22	2729.94
562.41	2480.09
562.61	2617.30
562.80	2619.35
563.00	3069.91
563.19	2680.79
563.39	2785.24
563.59	2795.48
563.78	2553.82
563.98	2398.17
564.17	2596.82
564.37	2428.89
564.56	2742.23
564.76	2588.63
564.96	2818.00
565.15	2762.71
565.35	2990.03
565.54	2652.12
565.74	2736.09
565.93	2899.92
566.13	2705.37
566.32	2703.32
566.52	2697.17
566.71	2688.98
566.91	2795.48
567.11	2750.42
567.30	2566.10
567.50	2840.53
567.69	2836.44
567.89	2637.78
568.08	2623.45
568.28	2746.33
568.47	2529.24
568.67	2697.17
568.86	2674.65
569.06	2789.33
569.25	2658.26
569.45	2562.01
569.64	2703.32
569.84	2740.18
570.04	2752.47
570.23	2617.30
570.43	2598.87
570.62	2754.52
570.82	2957.27
571.01	2492.38
571.21	2531.29
571.40	2609.11
571.60	2908.12
571.79	2752.47
571.99	2731.99
572.18	2629.59
572.38	2750.42
572.57	2691.03
572.77	2742.23
572.96	3010.51
573.16	2826.20
573.35	2596.82
573.55	2772.95
573.74	2844.63
573.94	2760.66
574.13	2648.02
574.33	2834.39
574.52	2906.07
574.71	2731.99
574.91	2711.51
575.10	2490.33
575.30	2783.19
575.49	2547.67
575.69	2572.25
575.88	2688.98
576.08	2643.93
576.27	2846.68
576.47	2652.12
576.66	2783.19
576.86	3059.67
577.05	2787.29
577.25	2703.32
577.44	2834.39
577.64	2691.03
577.83	2830.29
578.02	2658.26
578.22	2787.29
578.41	3047.38
578.61	2697.17
578.80	2498.52
579.00	2650.07
579.19	2725.85
579.39	2805.72
579.58	2797.53
579.77	2707.41
579.97	2949.08
580.16	2861.01
580.36	2899.92
580.55	2783.19
580.75	2783.19
580.94	2783.19
581.13	2826.20
581.33	2926.55
581.52	2660.31
581.72	2969.55
581.91	2848.72
582.11	2635.74
582.30	2828.24
582.49	2764.76
582.69	2885.59
582.88	2668.50
583.08	2797.53
583.27	2908.12
583.47	2736.09
583.66	2633.69
583.85	2629.59
584.05	2754.52
584.24	2809.81
584.44	2682.84
584.63	2940.88
584.82	2891.73
585.02	2877.40
585.21	2863.06
585.41	2834.39
585.60	2813.91
585.79	2981.84
585.99	3041.23
586.18	2879.44
586.37	3592.14
586.57	5388.21
586.76	15814.41
586.96	35567.07
587.15	48254.24
587.34	56880.28
587.54	60943.45
587.73	54742.20
587.93	38651.31
588.12	29609.53
588.31	23776.92
588.51	21067.45
588.70	19455.70
588.89	17127.16
589.09	14718.75
589.28	12498.75
589.47	9781.10
589.67	7653.26
589.86	5924.77
590.06	4501.44
590.25	3856.33
590.44	3477.45
590.64	3076.05
590.83	2963.41
591.02	3035.09
591.22	2742.23
591.41	2791.38
591.60	2701.27
591.80	3166.16
591.99	2600.92
592.18	2607.06
592.38	2908.12
592.57	2658.26
592.76	2676.70
592.96	2807.77
593.15	2766.81
593.34	2926.55
593.54	2643.93
593.73	2740.18
593.92	2793.43
594.12	2895.83
594.31	2736.09
594.50	2863.06
594.70	2848.72
594.89	3108.82
595.08	2582.49
595.28	2781.14
595.47	3172.30
595.66	2879.44
595.86	2613.21
596.05	2693.08
596.24	2684.89
596.43	2942.93
596.63	2840.53
596.82	2682.84
597.01	2697.17
597.21	3071.95
597.40	2588.63
597.59	2691.03
597.79	2674.65
597.98	2783.19
598.17	2703.32
598.36	2666.46
598.56	2766.81
598.75	2713.56
598.94	2637.78
599.14	2752.47
599.33	2623.45
599.52	2891.73
599.71	2686.94
599.91	2744.28
600.10	2834.39
600.29	2809.81
600.48	2725.85
600.68	2781.14
600.87	2805.72
601.06	2527.19
601.26	2797.53
601.45	2670.55
601.64	2727.89
601.83	2977.75
602.03	2592.73
602.22	2504.67
602.41	2799.57
602.60	3090.38
602.80	2770.90
602.99	2717.65
603.18	2668.50
603.37	2828.24
603.57	2609.11
603.76	2719.70
603.95	2848.72
604.14	2619.35
604.34	2582.49
604.53	2541.53
604.72	2791.38
604.91	2899.92
605.10	2734.04
605.30	2523.10
605.49	3002.32
605.68	2781.14
605.87	2762.71
606.07	2592.73
606.26	2795.48
606.45	2787.29
606.64	2686.94
606.84	2615.26
607.03	2711.51
607.22	2895.83
607.41	2586.58
607.60	2623.45
607.80	2881.49
607.99	2670.55
608.18	2678.74
608.37	2641.88
608.56	2695.13
608.76	2912.21
608.95	2826.20
609.14	2742.23
609.33	2832.34
609.52	2918.36
609.72	2734.04
609.91	2871.25
610.10	2764.76
610.29	2930.64
610.48	2731.99
610.68	2760.66
610.87	2725.85
611.06	2844.63
611.25	2721.75
611.44	2731.99
611.63	2668.50
611.83	3002.32
612.02	2531.29
612.21	2766.81
612.40	2572.25
612.59	2617.30
612.79	2584.54
612.98	2668.50
613.17	2938.84
613.36	2785.24
613.55	2754.52
613.74	2670.55
613.93	2697.17
614.13	2795.48
614.32	2815.96
614.51	2850.77
614.70	2709.46
614.89	2770.90
615.08	2779.09
615.28	3112.91
615.47	2557.91
615.66	2809.81
615.85	2727.89
616.04	2734.04
616.23	2701.27
616.42	2793.43
616.62	2701.27
616.81	2713.56
617.00	2674.65
617.19	2770.90
617.38	2629.59
617.57	2678.74
617.76	2762.71
617.95	2848.72
618.15	2738.13
618.34	2936.79
618.53	2592.73
618.72	2822.10
618.91	2838.48
619.10	2809.81
619.29	2713.56
619.48	2775.00
619.68	2586.58
619.87	2539.48
620.06	2490.33
620.25	2826.20
620.44	2611.16
620.63	2641.88
620.82	2723.80
621.01	2783.19
621.20	2660.31
621.39	2727.89
621.59	2789.33
621.78	2777.05
621.97	2744.28
622.16	2795.48
622.35	2852.82
622.54	2908.12
622.73	2752.47
622.92	2514.91
623.11	2875.35
623.30	2670.55
623.49	2582.49
623.68	2652.12
623.88	2840.53
624.07	2643.93
624.26	2645.98
624.45	2713.56
624.64	2643.93
624.83	2781.14
625.02	2643.93
625.21	2670.55
625.40	2734.04
625.59	2971.60
625.78	2711.51
625.97	2768.85
626.16	2938.84
626.35	2820.05
626.54	2650.07
626.74	2854.87
626.93	2643.93
627.12	2721.75
627.31	2742.23
627.50	2736.09
627.69	2783.19
627.88	2578.39
628.07	2582.49
628.26	2547.67
628.45	2637.78
628.64	2572.25
628.83	2619.35
629.02	2527.19
629.21	2830.29
629.40	2760.66
629.59	2574.30
629.78	2607.06
629.97	2711.51
630.16	2678.74
630.35	2629.59
630.54	2707.41
630.73	2635.74
630.92	2756.57
631.11	2617.30
631.30	2648.02
631.49	2871.25
631.68	2703.32
631.87	2772.95
632.06	2541.53
632.25	3121.10
632.44	2695.13
632.63	2717.65
632.82	2588.63
633.01	2662.36
633.20	2738.13
633.39	2654.17
633.58	2547.67
633.77	2809.81
633.96	2875.35
634.15	2801.62
634.34	2725.85
634.53	2852.82
634.72	2635.74
634.91	2437.08
635.10	2727.89
635.29	2844.63
635.48	2715.61
635.67	2592.73
635.86	2527.19
636.05	2944.98
636.24	2705.37
636.43	2693.08
636.62	2725.85
636.81	2422.75
637.00	2709.46
637.19	2723.80
637.38	2711.51
637.57	2648.02
637.76	2828.24
637.95	2764.76
638.14	2674.65
638.33	2711.51
638.52	2746.33
638.71	2611.16
638.89	2568.15
639.08	3074.00
639.27	2951.12
639.46	2828.24
639.65	3102.67
639.84	3170.26
640.03	3344.33
640.22	3108.82
640.41	3178.45
640.60	2854.87
640.79	2930.64
640.98	2797.53
641.17	2799.57
641.36	2775.00
641.55	2875.35
641.74	2535.39
641.92	2514.91
642.11	2572.25
642.30	2711.51
642.49	2533.34
642.68	2584.54
642.87	2858.96
643.06	2752.47
643.25	2617.30
643.44	2555.86
643.63	2703.32
643.82	2809.81
644.00	2568.15
644.19	2643.93
644.38	2602.97
644.57	2783.19
644.76	2662.36
644.95	2680.79
645.14	2779.09
645.33	2734.04
645.52	2701.27
645.71	2529.24
645.89	2621.40
646.08	2662.36
646.27	2670.55
646.46	2879.44
646.65	2555.86
646.84	2811.86
647.03	2547.67
647.22	2809.81
647.40	2781.14
647.59	2688.98
647.78	2478.04
647.97	2602.97
648.16	2529.24
648.35	2877.40
648.54	2834.39
648.73	2570.20
648.91	2918.36
649.10	2766.81
649.29	2602.97
649.48	2584.54
649.67	2709.46
649.86	2695.13
650.05	2670.55
650.23	2883.54
650.42	2664.41
650.61	2973.65
650.80	2791.38
650.99	2856.92
651.18	2875.35
651.36	2867.16
651.55	2611.16
651.74	2813.91
651.93	2768.85
652.12	2703.32
652.31	2664.41
652.49	2691.03
652.68	2633.69
652.87	2969.55
653.06	2742.23
653.25	2879.44
653.44	2693.08
653.62	2949.08
653.81	2621.40
654.00	2674.65
654.19	2820.05
654.38	3030.99
654.56	2758.61
654.75	2562.01
654.94	2727.89
655.13	2742.23
655.32	2621.40
655.51	2721.75
655.69	2580.44
655.88	2818.00
656.07	2531.29
656.26	2703.32
656.45	2570.20
656.63	2787.29
656.82	2770.90
657.01	2828.24
657.20	2617.30
657.38	2887.64
657.57	2650.07
657.76	2549.72
657.95	2731.99
658.14	2625.50
658.32	2736.09
658.51	2494.43
658.70	2781.14
658.89	2772.95
659.08	2727.89
659.26	2918.36
659.45	2627.54
659.64	2785.24
659.83	2613.21
660.01	3069.91
660.20	2777.05
660.39	2967.51
660.58	2408.41
660.76	2650.07
660.95	2490.33
661.14	2652.12
661.33	2529.24
661.51	2654.17
661.70	2666.46
661.89	2791.38
662.08	2688.98
662.26	2521.05
662.45	2590.68
662.64	2949.08
662.83	2697.17
663.01	2594.78
663.20	2641.88
663.39	3006.42
663.58	2635.74
663.76	2615.26
663.95	2897.88
664.14	2533.34
664.32	2686.94
664.51	2533.34
664.70	2510.81
664.89	2756.57
665.07	2535.39
665.26	2801.62
665.45	2539.48
665.64	2775.00
665.82	2670.55
666.01	2705.37
666.20	2551.77
666.38	2818.00
666.57	2869.20
666.76	4233.15
666.95	9920.36
667.13	17116.92
667.32	20934.34
667.51	23903.89
667.69	24792.71
667.88	21661.37
668.07	15441.68
668.25	12674.88
668.44	11048.79
668.63	9541.49
668.81	8353.66
669.00	7417.74
669.19	6631.32
669.38	5892.01
669.56	5040.05
669.75	4296.64
669.94	3807.17
670.12	3227.60
670.31	2975.70
670.50	2906.07
670.68	2828.24
670.87	2899.92
671.06	2600.92
671.24	2658.26
671.43	2990.03
671.62	2760.66
671.80	2684.89
671.99	2775.00
672.18	2805.72
672.36	2875.35
672.55	2770.90
672.74	2652.12
672.92	2742.23
673.11	2766.81
673.29	2580.44
673.48	2820.05
673.67	2631.64
673.85	2889.68
674.04	2594.78
674.23	2715.61
674.41	3030.99
674.60	2621.40
674.79	2420.70
674.97	2557.91
675.16	2830.29
675.34	2813.91
675.53	2570.20
675.72	2686.94
675.90	2885.59
676.09	2648.02
676.28	2617.30
676.46	2504.67
676.65	2858.96
676.83	2594.78
677.02	2701.27
677.21	2740.18
677.39	2711.51
677.58	2588.63
677.77	2645.98
677.95	2598.87
678.14	2633.69
678.32	2680.79
678.51	2617.30
678.70	2996.18
678.88	2643.93
679.07	2803.67
679.25	2660.31
679.44	2635.74
679.63	2611.16
679.81	2777.05
680.00	2852.82
680.18	2754.52
680.37	2944.98
680.55	2748.37
680.74	2519.00
680.93	2451.42
681.11	2793.43
681.30	2668.50
681.48	2709.46
681.67	2641.88
681.85	2766.81
682.04	2648.02
682.23	2815.96
682.41	2709.46
682.60	2650.07
682.78	2756.57
682.97	2531.29
683.15	2691.03
683.34	2748.37
683.53	2830.29
683.71	2500.57
683.90	2834.39
684.08	2928.60
684.27	2654.17
684.45	2656.22
684.64	2779.09
684.82	2775.00
685.01	2889.68
685.19	2670.55
685.38	2904.02
685.57	2662.36
685.75	2586.58
685.94	2564.06
686.12	2514.91
686.31	2605.02
686.49	2924.50
686.68	2521.05
686.86	2678.74
687.05	2676.70
687.23	2869.20
687.42	2627.54
687.60	2416.60
687.79	2856.92
687.97	2916.31
688.16	2801.62
688.34	2838.48
688.53	2473.95
688.71	2766.81
688.90	2897.88
689.08	2631.64
689.27	2578.39
689.45	2803.67
689.64	2787.29
689.82	2744.28
690.01	2785.24
690.19	2770.90
690.38	2713.56
690.56	2834.39
690.75	2627.54
690.93	2637.78
691.12	2572.25
691.30	2713.56
691.49	2621.40
691.67	2779.09
691.86	2944.98
692.04	2703.32
692.23	2729.94
692.41	2650.07
692.60	2975.70
692.78	2848.72
692.97	2701.27
693.15	2807.77
693.34	2930.64
693.52	2871.25
693.71	2678.74
693.89	2617.30
694.08	2527.19
694.26	2762.71
694.44	2760.66
694.63	2791.38
694.81	2555.86
695.00	2609.11
695.18	2932.69
695.37	3080.14
695.55	2674.65
695.74	2695.13
695.92	2619.35
696.10	2934.74
696.29	2600.92
696.47	2592.73
696.66	2475.99
696.84	2586.58
697.03	2650.07
697.21	2834.39
697.40	4120.51
697.58	2879.44
697.76	2514.91
697.95	2607.06
698.13	2506.71
698.32	2572.25
698.50	2727.89
698.68	2695.13
698.87	2772.95
699.05	2961.36
699.24	2621.40
699.42	2592.73
699.61	2715.61
699.79	2686.94
699.97	2619.35
700.16	2525.15
700.34	2580.44
700.53	2703.32
700.71	2850.77
700.89	2748.37
701.08	2729.94
701.26	2660.31
701.45	3092.43
701.63	2551.77
701.81	2607.06
702.00	2650.07
702.18	2662.36
702.37	2582.49
702.55	2940.88
702.73	2834.39
702.92	2713.56
703.10	2953.17
703.28	2834.39
703.47	2607.06
703.65	2873.30
703.84	2734.04
704.02	2734.04
704.20	2942.93
704.39	2602.97
704.57	2627.54
704.75	2918.36
704.94	2785.24
705.12	2695.13
705.30	3024.85
705.49	5801.90
705.67	12013.38
705.86	17774.32
706.04	20408.01
706.22	23064.22
706.41	22675.11
706.59	17637.11
706.77	13109.05
706.96	11585.36
707.14	10411.87
707.32	8961.91
707.51	7858.06
707.69	6520.73
707.87	5255.09
708.06	4315.07
708.24	3989.44
708.42	3289.04
708.61	3420.11
708.79	2754.52
708.97	2844.63
709.16	2801.62
709.34	2785.24
709.52	2727.89
709.71	2545.63
709.89	2809.81
710.07	2588.63
710.26	2592.73
710.44	2596.82
710.62	2881.49
710.80	2805.72
710.99	2731.99
711.17	2783.19
711.35	2572.25
711.54	2699.22
711.72	2744.28
711.90	2736.09
712.09	2781.14
712.27	2588.63
712.45	2793.43
712.63	2660.31
712.82	2691.03
713.00	2662.36
713.18	2777.05
713.37	2799.57
713.55	2805.72
713.73	2854.87
713.91	2760.66
714.10	2611.16
714.28	2742.23
714.46	2801.62
714.65	2721.75
714.83	2707.41
715.01	2715.61
715.19	2750.42
715.38	2539.48
715.56	2858.96
715.74	2654.17
715.92	2637.78
716.11	2820.05
716.29	2404.32
716.47	2744.28
716.65	2803.67
716.84	2551.77
717.02	2762.71
717.20	2494.43
717.38	2527.19
717.57	2766.81
717.75	2791.38
717.93	2691.03
718.11	2764.76
718.30	2465.75
718.48	2639.83
718.66	2854.87
718.84	2889.68
719.03	2617.30
719.21	2531.29
719.39	2990.03
719.57	2787.29
719.75	2766.81
719.94	2635.74
720.12	2785.24
720.30	2711.51
720.48	2752.47
720.67	2590.68
720.85	2523.10
721.03	2619.35
721.21	2555.86
721.39	2725.85
721.58	2797.53
721.76	2750.42
721.94	2758.61
722.12	2768.85
722.30	2944.98
722.49	2627.54
722.67	2701.27
722.85	2648.02
723.03	2521.05
723.21	2580.44
723.40	2701.27
723.58	2785.24
723.76	2768.85
723.94	2985.94
724.12	2725.85
724.30	2922.45
724.49	2848.72
724.67	2547.67
724.85	2795.48
725.03	2500.57
725.21	2865.11
725.40	2867.16
725.58	2586.58
725.76	2801.62
725.94	2824.15
726.12	2557.91
726.30	2686.94
726.49	2645.98
726.67	2744.28
726.85	2758.61
727.03	3141.58
727.21	4220.86
727.39	5218.22
727.57	5623.72
727.76	5947.30
727.94	6180.77
728.12	5492.65
728.30	4655.03
728.48	4358.08
728.66	4026.31
728.84	3688.39
729.03	3387.34
729.21	3121.10
729.39	2971.60
729.57	2811.86
729.75	2818.00
729.93	2740.18
730.11	2600.92
730.30	2602.97
730.48	2691.03
730.66	2736.09
730.84	2764.76
731.02	2654.17
731.20	2676.70
731.38	2756.57
731.56	2519.00
731.74	2547.67
731.93	2764.76
732.11	2619.35
732.29	2668.50
732.47	2785.24
732.65	2734.04
732.83	2908.12
733.01	2711.51
733.19	2588.63
733.37	2809.81
733.56	2670.55
733.74	2527.19
733.92	2906.07
734.10	2607.06
734.28	2707.41
734.46	2504.67
734.64	2611.16
734.82	2725.85
735.00	2658.26
735.18	2525.15
735.36	2727.89
735.54	2654.17
735.73	2697.17
735.91	2756.57
736.09	2963.41
736.27	2678.74
736.45	2660.31
736.63	2408.41
736.81	2701.27
736.99	2863.06
737.17	2863.06
737.35	2588.63
737.53	2754.52
737.71	2664.41
737.89	2742.23
738.07	2637.78
738.25	2568.15
738.43	2553.82
738.61	2605.02
738.80	2504.67
738.98	2605.02
739.16	2656.22
739.34	2633.69
739.52	2934.74
739.70	2719.70
739.88	2836.44
740.06	2834.39
740.24	2422.75
740.42	2865.11
740.60	2457.56
740.78	2652.12
740.96	2484.19
741.14	2650.07
741.32	2691.03
741.50	2537.43
741.68	2959.31
741.86	2932.69
742.04	2609.11
742.22	2527.19
742.40	2682.84
742.58	2826.20
742.76	2543.58
742.94	2764.76
743.12	2451.42
743.30	2768.85
743.48	2787.29
743.66	2598.87
743.84	2709.46
744.02	2672.60
744.20	2680.79
744.38	2621.40
744.56	2551.77
744.74	2942.93
744.92	2842.58
745.10	2865.11
745.28	2729.94
745.46	2973.65
745.64	2639.83
745.82	2787.29
746.00	2695.13
746.18	2756.57
746.36	2641.88
746.54	2695.13
746.72	2648.02
746.90	2674.65
747.08	2883.54
747.26	2545.63
747.44	2688.98
747.62	2811.86
747.80	2754.52
747.98	2764.76
748.15	2629.59
748.33	2912.21
748.51	2785.24
748.69	2764.76
748.87	2568.15
749.05	2723.80
749.23	2652.12
749.41	2641.88
749.59	2645.98
749.77	2877.40
749.95	2703.32
750.13	2594.78
750.31	2680.79
750.49	2748.37
750.67	2838.48
750.85	2850.77
751.03	2772.95
751.20	2930.64
751.38	2650.07
751.56	2650.07
751.74	2686.94
751.92	2705.37
752.10	2543.58
752.28	2789.33
752.46	2641.88
752.64	2684.89
752.82	2815.96
753.00	2809.81
753.18	2611.16
753.35	2662.36
753.53	2688.98
753.71	2496.47
753.89	2826.20
754.07	2729.94
754.25	2834.39
754.43	2723.80
754.61	2555.86
754.79	2797.53
754.97	2682.84
755.14	2826.20
755.32	2527.19
755.50	2711.51
755.68	2738.13
755.86	2555.86
756.04	2559.96
756.22	2381.79
756.40	2797.53
756.57	2848.72
756.75	2592.73
756.93	2828.24
757.11	2877.40
757.29	2525.15
757.47	2582.49
757.65	2523.10
757.82	2426.84
758.00	2506.71
758.18	2607.06
758.36	2602.97
758.54	2947.03
758.72	2435.03
758.90	2809.81
759.07	2820.05
759.25	2551.77
759.43	2627.54
759.61	2578.39
759.79	3844.04
759.97	2867.16
760.15	2594.78
760.32	2607.06
760.50	2742.23
760.68	2891.73
760.86	2484.19
761.04	2838.48
761.22	2899.92
761.39	2754.52
761.57	2686.94
761.75	2701.27
761.93	2842.58
762.11	2664.41
762.28	2756.57
762.46	2545.63
762.64	2899.92
762.82	2602.97
763.00	2641.88
763.18	2879.44
763.35	2494.43
763.53	2858.96
763.71	2650.07
763.89	2660.31
764.07	2742.23
764.24	2789.33
764.42	2744.28
764.60	2629.59
764.78	2850.77
764.96	2830.29
765.13	2811.86
765.31	2652.12
765.49	2846.68
765.67	2615.26
765.84	2555.86
766.02	2562.01
766.20	2514.91
766.38	2775.00
766.56	2740.18
766.73	2764.76
766.91	2715.61
767.09	2693.08
767.27	2734.04
767.44	2541.53
767.62	2789.33
767.80	2772.95
767.98	2662.36
768.15	2656.22
768.33	2850.77
768.51	2818.00
768.69	2830.29
768.87	2717.65
769.04	2686.94
769.22	3071.95
769.40	2848.72
769.58	2838.48
769.75	2736.09
769.93	2932.69
770.11	2619.35
770.28	2619.35
770.46	2924.50
770.64	2723.80
770.82	2762.71
770.99	2525.15
771.17	2848.72
771.35	2691.03
771.53	2750.42
771.70	2648.02
771.88	2840.53
772.06	2746.33
772.23	2645.98
772.41	2662.36
772.59	2666.46
772.77	2586.58
772.94	2654.17
773.12	2768.85
773.30	2650.07
773.47	2645.98
773.65	2588.63
773.83	2826.20
774.01	2660.31
774.18	2422.75
774.36	2693.08
774.54	2539.48
774.71	2756.57
774.89	2488.28
775.07	2609.11
775.24	2551.77
775.42	2674.65
775.60	3012.56
775.78	2639.83
775.95	2600.92
776.13	2488.28
776.31	2453.47
776.48	2672.60
776.66	2834.39
776.84	2600.92
777.01	2574.30
777.19	2562.01
777.37	2580.44
777.54	2840.53
777.72	2928.60
777.90	2713.56
778.07	2682.84
778.25	3180.50
778.43	2879.44
778.60	2553.82
778.78	2719.70
778.96	2932.69
779.13	2514.91
779.31	2787.29
779.49	2707.41
779.66	2828.24
779.84	2629.59
780.01	2701.27
780.19	2482.14
780.37	2858.96
780.54	2779.09
780.72	2492.38
780.90	2594.78
781.07	2652.12
781.25	2588.63
781.43	2783.19
781.60	2570.20
781.78	2848.72
781.95	2793.43
782.13	2572.25
782.31	2613.21
782.48	2490.33
782.66	2734.04
782.83	2867.16
783.01	2711.51
783.19	2826.20
783.36	2645.98
783.54	2566.10
783.72	2674.65
783.89	2670.55
784.07	2682.84
784.24	2756.57
784.42	2832.34
784.60	2807.77
784.77	2750.42
784.95	2346.97
785.12	2641.88
785.30	2762.71
785.47	2674.65
785.65	2596.82
785.83	2686.94
786.00	2615.26
786.18	2672.60
786.35	2498.52
786.53	2506.71
786.71	2832.34
786.88	2738.13
787.06	2711.51
787.23	2656.22
787.41	2566.10
787.58	2666.46
787.76	2621.40
787.94	2760.66
788.11	2746.33
788.29	2578.39
788.46	2582.49
788.64	2459.61
788.81	2645.98
788.99	2623.45
789.16	2557.91
789.34	2656.22
789.52	2621.40
789.69	2678.74
789.87	2494.43
790.04	2590.68
790.22	2688.98
790.39	2963.41
790.57	2508.76
790.74	2586.58
790.92	2930.64
791.09	2568.15
791.27	2701.27
791.44	2779.09
791.62	2627.54
791.79	2807.77
791.97	2703.32
792.15	3002.32
792.32	2850.77
792.50	2781.14
792.67	2858.96
792.85	2889.68
793.02	2719.70
793.20	2629.59
793.37	2488.28
793.55	2600.92
793.72	2551.77
793.90	2703.32
794.07	2578.39
794.25	2525.15
794.42	2756.57
794.60	2615.26
794.77	2715.61
794.95	2760.66
795.12	2832.34
795.30	2674.65
795.47	2475.99
795.65	2979.79
795.82	2729.94
796.00	2537.43
796.17	2654.17
796.34	2555.86
796.52	2709.46
796.69	2871.25
796.87	2799.57
797.04	2744.28
797.22	2901.97
797.39	2746.33
797.57	2875.35
797.74	2713.56
797.92	2809.81
798.09	2586.58
798.27	2854.87
798.44	2564.06
798.62	2578.39
798.79	2670.55
798.96	2684.89
799.14	2648.02
799.31	3102.67
799.49	2781.14
799.66	2627.54
799.84	2660.31
800.01	2437.08
800.19	2693.08
800.36	2443.23
800.53	2664.41
800.71	2772.95
800.88	2967.51
801.06	2582.49
801.23	2570.20
801.41	2670.55
801.58	2625.50
801.75	2605.02
801.93	2707.41
802.10	2815.96
802.28	2727.89
802.45	2674.65
802.63	2729.94
802.80	2940.88
802.97	2746.33
803.15	2703.32
803.32	2566.10
803.50	2519.00
803.67	2617.30
803.84	2557.91
804.02	2717.65
804.19	2703.32
804.37	2375.64
804.54	2533.34
804.71	2570.20
804.89	2686.94
805.06	2496.47
805.24	2602.97
805.41	2572.25
805.58	2609.11
805.76	3090.38
805.93	2607.06
806.10	2813.91
806.28	2752.47
806.45	2762.71
806.63	2729.94
806.80	2707.41
806.97	2740.18
807.15	2736.09
807.32	2707.41
807.49	2574.30
807.67	2566.10
807.84	2746.33
808.01	2482.14
808.19	2807.77
808.36	3067.86
808.54	2715.61
808.71	2504.67
808.88	2734.04
809.06	2969.55
809.23	2987.99
809.40	2641.88
809.58	2662.36
809.75	2691.03
809.92	2500.57
810.10	2969.55
810.27	2600.92
810.44	2781.14
810.62	2766.81
810.79	2748.37
810.96	2582.49
811.14	2691.03
811.31	2738.13
811.48	2772.95
811.66	2693.08
811.83	2815.96
812.00	2807.77
812.18	2752.47
812.35	2899.92
812.52	2719.70
812.69	2629.59
812.87	2621.40
813.04	2570.20
813.21	2719.70
813.39	2652.12
813.56	2637.78
813.73	2799.57
813.91	2469.85
814.08	2740.18
814.25	2738.13
814.42	2451.42
814.60	2643.93
814.77	2783.19
814.94	2631.64
815.12	2654.17
815.29	2998.23
815.46	2668.50
815.63	2637.78
815.81	2588.63
815.98	2731.99
816.15	2666.46
816.33	2750.42
816.50	2625.50
816.67	2752.47
816.84	2668.50
817.02	2500.57
817.19	2559.96
817.36	2760.66
817.53	2707.41
817.71	2578.39
817.88	2715.61
818.05	2643.93
818.22	2662.36
818.40	2785.24
818.57	2660.31
818.74	2766.81
818.91	2721.75
819.09	2807.77
819.26	2742.23
819.43	2611.16
819.60	2623.45
819.78	2746.33
819.95	2779.09
820.12	2557.91
820.29	2912.21
820.47	2783.19
820.64	2547.67
820.81	2617.30
820.98	2568.15
821.15	2643.93
821.33	2787.29
821.50	2539.48
821.67	2746.33
821.84	2656.22
822.02	2664.41
822.19	2809.81
822.36	2652.12
822.53	2570.20
822.70	2514.91
822.88	2643.93
823.05	2971.60
823.22	2629.59
823.39	2707.41
823.56	2766.81
823.74	2944.98
823.91	2508.76
824.08	2488.28
824.25	2613.21
824.42	2969.55
824.60	2531.29
824.77	2756.57
824.94	2691.03
825.11	2797.53
825.28	2453.47
825.45	2799.57
825.63	2818.00
825.80	2578.39
825.97	2762.71
826.14	2676.70
826.31	2512.86
826.48	2789.33
826.66	2570.20
826.83	2609.11
827.00	2684.89
827.17	2539.48
827.34	2654.17
827.51	2574.30
827.69	2721.75
827.86	2482.14
828.03	2697.17
828.20	2691.03
828.37	2629.59
828.54	2756.57
828.71	2545.63
828.89	2871.25
829.06	2762.71
829.23	2897.88
829.40	2629.59
829.57	2586.58
829.74	2807.77
829.91	2543.58
830.09	2629.59
830.26	2703.32
830.43	3010.51
830.60	2695.13
830.77	2699.22
830.94	2842.58
831.11	2777.05
831.28	2611.16
831.46	2805.72
831.63	2631.64
831.80	2920.40
831.97	2576.34
832.14	2684.89
832.31	2664.41
832.48	2725.85
832.65	2856.92
832.82	2719.70
832.99	2711.51
833.17	2551.77
833.34	2947.03
833.51	2731.99
833.68	2498.52
833.85	2914.26
834.02	2574.30
834.19	2637.78
834.36	2613.21
834.53	2701.27
834.70	2856.92
834.87	2742.23
835.04	2498.52
835.22	2648.02
835.39	2645.98
835.56	2523.10
835.73	2553.82
835.90	2916.31
836.07	2547.67
836.24	2684.89
836.41	2437.08
836.58	2635.74
836.75	2854.87
836.92	2605.02
837.09	2523.10
837.26	2805.72
837.43	2695.13
837.60	2586.58
837.77	2582.49
837.94	2832.34
838.12	2797.53
838.29	2566.10
838.46	2461.66
838.63	2611.16
838.80	2926.55
838.97	2682.84
839.14	2588.63
839.31	2736.09
839.48	2807.77
839.65	2580.44
839.82	2676.70
839.99	2701.27
840.16	2772.95
840.33	2502.62
840.50	2566.10
840.67	2600.92
840.84	2332.64
841.01	2553.82
841.18	2412.51
841.35	2654.17
841.52	2803.67
841.69	2842.58
841.86	2609.11
842.03	2662.36
842.20	2858.96
842.37	2502.62
842.54	2539.48
842.71	2666.46
842.88	2498.52
843.05	2613.21
843.22	2506.71
843.39	2842.58
843.56	2586.58
843.73	2564.06
843.90	2643.93
844.07	2734.04
844.24	2764.76
844.41	2701.27
844.58	2607.06
844.75	2670.55
844.92	2867.16
845.09	2596.82
845.26	2463.71
845.43	2807.77
845.60	2684.89
845.77	2727.89
845.94	2633.69
846.10	2865.11
846.27	2486.23
846.44	2449.37
846.61	2437.08
846.78	2760.66
846.95	2869.20
847.12	2441.18
847.29	2529.24
847.46	2586.58
847.63	2824.15
847.80	2609.11
847.97	2527.19
848.14	2951.12
848.31	2721.75
848.48	2424.80
848.65	2615.26
848.82	2635.74
848.98	3076.05
849.15	2676.70
849.32	2686.94
849.49	2850.77
849.66	2713.56
849.83	2529.24
850.00	2519.00
850.17	2836.44
850.34	2731.99
850.51	2471.90
850.68	2572.25
850.85	3014.61
851.01	2787.29
851.18	2609.11
851.35	2451.42
851.52	2770.90
851.69	2873.30
851.86	2416.60
852.03	2582.49
852.20	2815.96
852.37	2709.46
852.53	2420.70
852.70	2596.82
852.87	2803.67
853.04	2871.25
853.21	2596.82
853.38	2748.37
853.55	2875.35
853.72	2826.20
853.89	2500.57
854.05	2492.38
854.22	2748.37
854.39	2709.46
854.56	2596.82
854.73	2717.65
854.90	2664.41
855.07	2705.37
855.23	2533.34
855.40	2506.71
855.57	2734.04
855.74	2435.03
855.91	2762.71
856.08	2387.93
856.25	2510.81
856.41	2629.59
856.58	2582.49
856.75	2594.78
856.92	2545.63
857.09	2777.05
857.26	2531.29
857.42	2559.96
857.59	2797.53
857.76	2586.58
857.93	2629.59
858.10	2574.30
858.27	2527.19
858.43	2750.42
858.60	2535.39
858.77	2402.27
858.94	2564.06
859.11	2875.35
859.27	2570.20
859.44	2555.86
859.61	3004.37
859.78	2695.13
859.95	2506.71
860.12	2443.23
860.28	2961.36
860.45	2963.41
860.62	2551.77
860.79	2615.26
860.95	2721.75
861.12	2648.02
861.29	2467.80
861.46	2531.29
861.63	2695.13
861.79	2740.18
861.96	2437.08
862.13	2514.91
862.30	2809.81
862.47	2566.10
862.63	2439.13
862.80	2641.88
862.97	2729.94
863.14	2717.65
863.30	2598.87
863.47	2566.10
863.64	2867.16
863.81	2721.75
863.97	2449.37
864.14	2643.93
864.31	2656.22
864.48	2775.00
864.65	2607.06
864.81	2705.37
864.98	2813.91
865.15	2983.89
865.32	2619.35
865.48	2596.82
865.65	3002.32
865.82	2629.59
865.98	2596.82
866.15	2627.54
866.32	2658.26
866.49	2621.40
866.65	2697.17
866.82	2545.63
866.99	2717.65
867.16	2564.06
867.32	2527.19
867.49	2533.34
867.66	2695.13
867.83	2713.56
867.99	2437.08
868.16	2564.06
868.33	2617.30
868.49	2713.56
868.66	2588.63
868.83	2656.22
868.99	2703.32
869.16	2691.03
869.33	2656.22
869.50	2676.70
869.66	2658.26
869.83	2707.41
870.00	2510.81
870.16	2705.37
870.33	2744.28
870.50	2807.77
870.66	2615.26
870.83	2648.02
871.00	2715.61
871.17	2768.85
871.33	2555.86
871.50	2488.28
871.67	2693.08
871.83	2490.33
872.00	2674.65
872.17	2543.58
872.33	2932.69
872.50	2897.88
872.67	2574.30
872.83	2547.67
873.00	2758.61
873.17	2680.79
873.33	2613.21
873.50	2576.34
873.67	2578.39
873.83	2562.01
874.00	2525.15
874.16	2658.26
874.33	2734.04
874.50	2564.06
874.66	2584.54
874.83	2615.26
875.00	2815.96
875.16	2805.72
875.33	2676.70
875.50	2406.36
875.66	2674.65
875.83	2723.80
875.99	2545.63
876.16	2594.78
876.33	2504.67
876.49	2668.50
876.66	2584.54
876.83	2619.35
876.99	2519.00
877.16	2674.65
877.32	2531.29
877.49	2641.88
877.66	2695.13
877.82	2949.08
877.99	2619.35
878.15	2791.38
878.32	2717.65
878.49	2785.24
878.65	2662.36
878.82	2734.04
878.98	2586.58
879.15	2766.81
879.32	2684.89
879.48	2607.06
879.65	2686.94
879.81	2629.59
879.98	2512.86
880.15	2664.41
880.31	2809.81
880.48	2623.45
880.64	2715.61
880.81	2656.22
880.97	2987.99
881.14	2873.30
881.31	2500.57
881.47	2691.03
881.64	2668.50
881.80	2494.43
881.97	2641.88
882.13	2625.50
882.30	2576.34
882.47	2596.82
882.63	2383.84
882.80	2531.29
882.96	2586.58
883.13	2867.16
883.29	2586.58
883.46	2559.96
883.62	3030.99
883.79	2711.51
883.95	2746.33
884.12	2607.06
884.29	2793.43
884.45	2754.52
884.62	2564.06
884.78	2564.06
884.95	2899.92
885.11	2678.74
885.28	2609.11
885.44	2551.77
885.61	2811.86
885.77	2850.77
885.94	2662.36
886.10	2621.40
886.27	2721.75
886.43	3049.43
886.60	2748.37
886.76	2559.96
886.93	2666.46
887.09	2729.94
887.26	2535.39
887.42	2572.25
887.59	2820.05
887.75	3051.47
887.92	2736.09
888.08	2674.65
888.25	2947.03
888.41	2811.86
888.58	2568.15
888.74	2519.00
888.91	2594.78
>>>>>End Processed Spectral Data<<<<<
