SpectraSuite Data File
++++++++++++++++++++++++++++++++++++
Date: Thu May 05 16:21:02 CEST 2016
User: root
Dark Spectrum Present: No
Reference Spectrum Present: No
Number of Sampled Component Spectra: 1
Spectrometers: USB4C02835
Integration Time (usec): 100000 (USB4C02835)
Spectra Averaged: 1 (USB4C02835)
Boxcar Smoothing: 0 (USB4C02835)
Correct for Electrical Dark: No (USB4C02835)
Strobe/Lamp Enabled: No (USB4C02835)
Correct for Detector Non-linearity: No (USB4C02835)
Correct for Stray Light: No (USB4C02835)
Number of Pixels in Processed Spectrum: 3648
>>>>>Begin Processed Spectral Data<<<<<
177.47	2045.92
177.69	2045.92
177.91	2045.92
178.13	2074.59
178.36	2023.39
178.58	2469.85
178.80	2703.32
179.02	2545.63
179.24	2598.87
179.46	2445.27
179.68	2504.67
179.90	2598.87
180.13	2629.59
180.35	2367.45
180.57	2519.00
180.79	2797.53
181.01	2709.46
181.23	2508.76
181.45	2627.54
181.67	2777.05
181.90	2820.05
182.12	2502.62
182.34	2422.75
182.56	2818.00
182.78	2762.71
183.00	2461.66
183.22	2516.95
183.44	2428.89
183.66	3121.10
183.89	2627.54
184.11	2516.95
184.33	2789.33
184.55	2910.16
184.77	2559.96
184.99	2482.14
185.21	2686.94
185.43	3071.95
185.65	2512.86
185.87	2555.86
186.10	3098.58
186.32	3094.48
186.54	2664.41
186.76	2664.41
186.98	2852.82
187.20	2748.37
187.42	2592.73
187.64	2498.52
187.86	2801.62
188.08	2850.77
188.30	2400.22
188.52	2555.86
188.75	2922.45
188.97	2897.88
189.19	2494.43
189.41	2506.71
189.63	2809.81
189.85	2584.54
190.07	2381.79
190.29	2379.74
190.51	2883.54
190.73	2523.10
190.95	2723.80
191.17	2594.78
191.39	2525.15
191.61	2715.61
191.84	2500.57
192.06	2613.21
192.28	2506.71
192.50	3297.23
192.72	2586.58
192.94	2564.06
193.16	2807.77
193.38	2727.89
193.60	2392.03
193.82	2596.82
194.04	2824.15
194.26	2666.46
194.48	2566.10
194.70	2496.47
194.92	2617.30
195.14	2926.55
195.36	2445.27
195.58	2566.10
195.80	2725.85
196.02	2674.65
196.24	2482.14
196.46	2592.73
196.69	2637.78
196.91	3143.63
197.13	2463.71
197.35	2498.52
197.57	2973.65
197.79	2742.23
198.01	2580.44
198.23	2471.90
198.45	2783.19
198.67	2523.10
198.89	2422.75
199.11	2648.02
199.33	2615.26
199.55	2412.51
199.77	2578.39
199.99	2629.59
200.21	2682.84
200.43	2766.81
200.65	2418.65
200.87	2365.40
201.09	2793.43
201.31	2713.56
201.53	2553.82
201.75	2600.92
201.97	2815.96
202.19	2674.65
202.41	2617.30
202.63	2711.51
202.85	2789.33
203.07	2770.90
203.29	2488.28
203.51	2459.61
203.73	2580.44
203.95	3129.30
204.17	2539.48
204.39	2656.22
204.61	2727.89
204.83	2699.22
205.05	2664.41
205.27	2629.59
205.49	3112.91
205.71	2674.65
205.93	2463.71
206.15	2473.95
206.37	2721.75
206.59	2699.22
206.81	2406.36
207.03	2432.99
207.25	2576.34
207.47	2785.24
207.69	2496.47
207.91	2703.32
208.13	3030.99
208.34	2598.87
208.56	2486.23
208.78	2551.77
209.00	2707.41
209.22	2699.22
209.44	2527.19
209.66	2428.89
209.88	2705.37
210.10	2674.65
210.32	2543.58
210.54	2572.25
210.76	2684.89
210.98	2904.02
211.20	2371.55
211.42	2580.44
211.64	2910.16
211.86	2762.71
212.08	2596.82
212.30	2582.49
212.52	2656.22
212.74	2723.80
212.96	2576.34
213.17	2521.05
213.39	2805.72
213.61	3008.47
213.83	2482.14
214.05	2445.27
214.27	2830.29
214.49	2605.02
214.71	2459.61
214.93	2566.10
215.15	2676.70
215.37	2858.96
215.59	2404.32
215.81	2559.96
216.03	2881.49
216.24	2754.52
216.46	2471.90
216.68	2596.82
216.90	2887.64
217.12	2830.29
217.34	2422.75
217.56	2666.46
217.78	2838.48
218.00	2809.81
218.22	2586.58
218.44	2621.40
218.66	2891.73
218.87	3012.56
219.09	2473.95
219.31	2510.81
219.53	2818.00
219.75	2660.31
219.97	2562.01
220.19	2519.00
220.41	2725.85
220.63	2977.75
220.85	2553.82
221.06	2482.14
221.28	2949.08
221.50	2865.11
221.72	2445.27
221.94	2500.57
222.16	2715.61
222.38	2840.53
222.60	2498.52
222.82	2533.34
223.03	2809.81
223.25	2568.15
223.47	2457.56
223.69	2580.44
223.91	2861.01
224.13	2842.58
224.35	2437.08
224.57	2758.61
224.78	2828.24
225.00	2619.35
225.22	2551.77
225.44	2496.47
225.66	2756.57
225.88	2645.98
226.10	2611.16
226.32	2623.45
226.53	2916.31
226.75	2684.89
226.97	2547.67
227.19	2541.53
227.41	2617.30
227.63	2680.79
227.85	2346.97
228.06	2557.91
228.28	2707.41
228.50	2840.53
228.72	2379.74
228.94	2547.67
229.16	2529.24
229.37	2584.54
229.59	2504.67
229.81	2770.90
230.03	2717.65
230.25	2539.48
230.47	2389.98
230.69	2418.65
230.90	2830.29
231.12	2545.63
231.34	2582.49
231.56	2592.73
231.78	2496.47
232.00	2648.02
232.21	2424.80
232.43	2549.72
232.65	2428.89
232.87	2768.85
233.09	2531.29
233.30	2478.04
233.52	2891.73
233.74	2707.41
233.96	2498.52
234.18	2637.78
234.40	2703.32
234.61	3035.09
234.83	2449.37
235.05	2484.19
235.27	3080.14
235.49	2922.45
235.70	2490.33
235.92	2572.25
236.14	2740.18
236.36	3098.58
236.58	2404.32
236.79	2586.58
237.01	2752.47
237.23	2650.07
237.45	2848.72
237.67	2541.53
237.88	2768.85
238.10	2947.03
238.32	2523.10
238.54	2449.37
238.76	2738.13
238.97	2613.21
239.19	2449.37
239.41	2568.15
239.63	2883.54
239.85	2580.44
240.06	2584.54
240.28	2519.00
240.50	2826.20
240.72	2752.47
240.93	2416.60
241.15	2613.21
241.37	2756.57
241.59	2873.30
241.81	2455.51
242.02	2521.05
242.24	2713.56
242.46	2781.14
242.68	2414.56
242.89	2455.51
243.11	2818.00
243.33	2723.80
243.55	2535.39
243.76	2531.29
243.98	2656.22
244.20	2756.57
244.42	2551.77
244.64	2512.86
244.85	2502.62
245.07	2588.63
245.29	2523.10
245.51	2516.95
245.72	2803.67
245.94	2879.44
246.16	2539.48
246.38	2516.95
246.59	2662.36
246.81	2539.48
247.03	2465.75
247.24	2435.03
247.46	2660.31
247.68	2764.76
247.90	2537.43
248.11	2519.00
248.33	2887.64
248.55	2699.22
248.77	2512.86
248.98	2602.97
249.20	2944.98
249.42	2723.80
249.64	2574.30
249.85	2512.86
250.07	2711.51
250.29	2805.72
250.50	2580.44
250.72	2377.69
250.94	2858.96
251.16	2947.03
251.37	2473.95
251.59	2535.39
251.81	2865.11
252.02	2963.41
252.24	2463.71
252.46	2691.03
252.68	2605.02
252.89	2615.26
253.11	2316.25
253.33	2736.09
253.54	2906.07
253.76	2596.82
253.98	2473.95
254.20	2516.95
254.41	2539.48
254.63	2682.84
254.85	2498.52
255.06	2523.10
255.28	2840.53
255.50	2650.07
255.71	2510.81
255.93	2422.75
256.15	2723.80
256.36	2777.05
256.58	2402.27
256.80	2453.47
257.02	2621.40
257.23	2615.26
257.45	2568.15
257.67	2562.01
257.88	2600.92
258.10	2729.94
258.32	2467.80
258.53	2629.59
258.75	2965.46
258.97	2623.45
259.18	2492.38
259.40	2494.43
259.62	2971.60
259.83	2944.98
260.05	2576.34
260.27	3248.08
260.48	2871.25
260.70	2572.25
260.92	2459.61
261.13	2559.96
261.35	2815.96
261.57	2754.52
261.78	2443.23
262.00	2478.04
262.22	2807.77
262.43	2637.78
262.65	2502.62
262.86	2492.38
263.08	3143.63
263.30	2740.18
263.51	2295.77
263.73	2482.14
263.95	2965.46
264.16	2627.54
264.38	2375.64
264.60	2426.84
264.81	2709.46
265.03	2826.20
265.25	2762.71
265.46	2473.95
265.68	2871.25
265.89	2901.97
266.11	2355.16
266.33	2453.47
266.54	2883.54
266.76	2838.48
266.98	2607.06
267.19	2654.17
267.41	2856.92
267.62	2703.32
267.84	2322.40
268.06	2584.54
268.27	2748.37
268.49	2815.96
268.70	2549.72
268.92	2537.43
269.14	2527.19
269.35	2527.19
269.57	2578.39
269.79	2564.06
270.00	2641.88
270.22	2981.84
270.43	2416.60
270.65	2349.02
270.87	2783.19
271.08	2736.09
271.30	2611.16
271.51	2502.62
271.73	2858.96
271.95	3012.56
272.16	2494.43
272.38	2613.21
272.59	2738.13
272.81	2723.80
273.02	2496.47
273.24	2559.96
273.46	2807.77
273.67	2543.58
273.89	2416.60
274.10	2422.75
274.32	2922.45
274.54	2754.52
274.75	2629.59
274.97	2605.02
275.18	2838.48
275.40	2678.74
275.61	2523.10
275.83	2629.59
276.05	2506.71
276.26	2711.51
276.48	2623.45
276.69	2652.12
276.91	2676.70
277.12	2926.55
277.34	2752.47
277.55	2699.22
277.77	2740.18
277.99	2760.66
278.20	2555.86
278.42	2461.66
278.63	2621.40
278.85	2648.02
279.06	2527.19
279.28	2684.89
279.49	2809.81
279.71	2854.87
279.93	2676.70
280.14	2697.17
280.36	2559.96
280.57	2848.72
280.79	2619.35
281.00	2605.02
281.22	2615.26
281.43	2879.44
281.65	2392.03
281.86	2549.72
282.08	2783.19
282.29	3059.67
282.51	2512.86
282.73	2494.43
282.94	2422.75
283.16	2729.94
283.37	2746.33
283.59	2551.77
283.80	2801.62
284.02	2740.18
284.23	2691.03
284.45	2621.40
284.66	2617.30
284.88	2678.74
285.09	2629.59
285.31	2650.07
285.52	2820.05
285.74	2465.75
285.95	2682.84
286.17	2578.39
286.38	2854.87
286.60	2654.17
286.81	2553.82
287.03	2523.10
287.24	2691.03
287.46	2799.57
287.67	2709.46
287.89	2914.26
288.10	2799.57
288.32	2705.37
288.53	2785.24
288.75	2717.65
288.96	2807.77
289.18	2609.11
289.39	2578.39
289.61	2674.65
289.82	3030.99
290.04	3110.86
290.25	2498.52
290.47	2609.11
290.68	2691.03
290.90	2895.83
291.11	2500.57
291.33	2731.99
291.54	2588.63
291.76	2592.73
291.97	2637.78
292.18	2609.11
292.40	2631.64
292.61	2500.57
292.83	2953.17
293.04	2645.98
293.26	2656.22
293.47	2629.59
293.69	2551.77
293.90	2582.49
294.12	2914.26
294.33	2668.50
294.55	2691.03
294.76	2777.05
294.97	2867.16
295.19	3039.19
295.40	2582.49
295.62	2656.22
295.83	2844.63
296.05	2639.83
296.26	2777.05
296.48	2617.30
296.69	2695.13
296.90	2613.21
297.12	2662.36
297.33	2695.13
297.55	2752.47
297.76	2813.91
297.98	2711.51
298.19	2635.74
298.41	2680.79
298.62	2572.25
298.83	2797.53
299.05	2731.99
299.26	2600.92
299.48	2639.83
299.69	2637.78
299.90	2592.73
300.12	2691.03
300.33	2740.18
300.55	2674.65
300.76	2559.96
300.98	2598.87
301.19	2785.24
301.40	2566.10
301.62	2564.06
301.83	2789.33
302.05	2731.99
302.26	2568.15
302.47	2686.94
302.69	2523.10
302.90	2760.66
303.12	2496.47
303.33	2719.70
303.54	3076.05
303.76	2645.98
303.97	2602.97
304.19	2809.81
304.40	2600.92
304.61	2787.29
304.83	2731.99
305.04	2783.19
305.26	2766.81
305.47	2736.09
305.68	2637.78
305.90	2506.71
306.11	2893.78
306.33	2723.80
306.54	2549.72
306.75	2527.19
306.97	2545.63
307.18	2547.67
307.39	2605.02
307.61	2680.79
307.82	2645.98
308.04	2801.62
308.25	2451.42
308.46	2721.75
308.68	2703.32
308.89	2684.89
309.10	2678.74
309.32	2674.65
309.53	2637.78
309.74	2748.37
309.96	2553.82
310.17	2731.99
310.39	2674.65
310.60	2836.44
310.81	2662.36
311.03	2490.33
311.24	2809.81
311.45	2731.99
311.67	2854.87
311.88	2664.41
312.09	2637.78
312.31	2582.49
312.52	2633.69
312.73	2584.54
312.95	2516.95
313.16	2602.97
313.37	2775.00
313.59	2715.61
313.80	2760.66
314.01	2924.50
314.23	2584.54
314.44	2559.96
314.65	2562.01
314.87	2613.21
315.08	2545.63
315.29	2564.06
315.51	2588.63
315.72	2537.43
315.93	2717.65
316.15	2660.31
316.36	2611.16
316.57	2697.17
316.79	2623.45
317.00	2539.48
317.21	2754.52
317.43	2621.40
317.64	2678.74
317.85	2523.10
318.07	2652.12
318.28	2652.12
318.49	2713.56
318.70	2799.57
318.92	2805.72
319.13	2850.77
319.34	2865.11
319.56	2629.59
319.77	2815.96
319.98	2846.68
320.20	2793.43
320.41	2631.64
320.62	2822.10
320.83	2537.43
321.05	2871.25
321.26	2650.07
321.47	2719.70
321.69	2918.36
321.90	2484.19
322.11	2611.16
322.32	2740.18
322.54	2977.75
322.75	2615.26
322.96	3084.24
323.18	2457.56
323.39	2490.33
323.60	2576.34
323.81	2676.70
324.03	2678.74
324.24	2711.51
324.45	2691.03
324.66	2527.19
324.88	2828.24
325.09	2957.27
325.30	2656.22
325.52	2650.07
325.73	2742.23
325.94	2652.12
326.15	2502.62
326.37	2523.10
326.58	2867.16
326.79	2959.31
327.00	2465.75
327.22	2602.97
327.43	2676.70
327.64	2551.77
327.85	2740.18
328.07	2658.26
328.28	3020.75
328.49	2578.39
328.70	2666.46
328.92	2559.96
329.13	2621.40
329.34	2768.85
329.55	2752.47
329.76	2748.37
329.98	2725.85
330.19	2932.69
330.40	2686.94
330.61	2658.26
330.83	2957.27
331.04	2592.73
331.25	2572.25
331.46	2633.69
331.68	2562.01
331.89	2887.64
332.10	2660.31
332.31	2500.57
332.52	2715.61
332.74	2779.09
332.95	2453.47
333.16	2635.74
333.37	2854.87
333.58	2742.23
333.80	2627.54
334.01	2435.03
334.22	2793.43
334.43	2627.54
334.64	2521.05
334.86	2519.00
335.07	2594.78
335.28	2965.46
335.49	2439.13
335.70	2670.55
335.92	2924.50
336.13	3100.62
336.34	2703.32
336.55	2576.34
336.76	2764.76
336.98	2467.80
337.19	2572.25
337.40	2684.89
337.61	3059.67
337.82	2652.12
338.04	2713.56
338.25	2377.69
338.46	2713.56
338.67	2625.50
338.88	2639.83
339.09	2424.80
339.31	2658.26
339.52	2576.34
339.73	2484.19
339.94	2637.78
340.15	2904.02
340.36	2682.84
340.58	2635.74
340.79	2535.39
341.00	2836.44
341.21	2582.49
341.42	2820.05
341.63	2572.25
341.85	2879.44
342.06	2715.61
342.27	2555.86
342.48	2799.57
342.69	2537.43
342.90	2723.80
343.12	2826.20
343.33	2498.52
343.54	2838.48
343.75	2930.64
343.96	2703.32
344.17	2576.34
344.38	2672.60
344.60	2639.83
344.81	2521.05
345.02	2551.77
345.23	2901.97
345.44	3078.10
345.65	2701.27
345.86	2650.07
346.07	2795.48
346.29	2621.40
346.50	2703.32
346.71	2645.98
346.92	2990.03
347.13	3043.28
347.34	2711.51
347.55	2570.20
347.76	2785.24
347.98	2588.63
348.19	2625.50
348.40	2717.65
348.61	2709.46
348.82	2990.03
349.03	2740.18
349.24	2535.39
349.45	3063.76
349.66	2441.18
349.88	2621.40
350.09	2566.10
350.30	2932.69
350.51	2918.36
350.72	2703.32
350.93	2596.82
351.14	2605.02
351.35	2820.05
351.56	2621.40
351.77	2674.65
351.99	2709.46
352.20	2932.69
352.41	2674.65
352.62	2449.37
352.83	2725.85
353.04	2678.74
353.25	2543.58
353.46	2586.58
353.67	2899.92
353.88	2424.80
354.09	2588.63
354.30	2670.55
354.52	2803.67
354.73	2684.89
354.94	2605.02
355.15	2600.92
355.36	3022.80
355.57	2672.60
355.78	2605.02
355.99	2498.52
356.20	2631.64
356.41	2885.59
356.62	2652.12
356.83	2625.50
357.04	2836.44
357.25	2482.14
357.46	2596.82
357.68	2504.67
357.89	2564.06
358.10	2670.55
358.31	2623.45
358.52	2625.50
358.73	2578.39
358.94	2570.20
359.15	2637.78
359.36	2684.89
359.57	2686.94
359.78	2637.78
359.99	2777.05
360.20	2562.01
360.41	2731.99
360.62	2803.67
360.83	2656.22
361.04	2668.50
361.25	2811.86
361.46	2924.50
361.67	2652.12
361.88	2707.41
362.09	2863.06
362.30	2791.38
362.51	2557.91
362.72	2602.97
362.93	2836.44
363.14	2836.44
363.35	2686.94
363.56	2533.34
363.78	2936.79
363.99	2854.87
364.20	2629.59
364.41	2746.33
364.62	2908.12
364.83	2805.72
365.04	2598.87
365.25	2654.17
365.46	3084.24
365.67	2682.84
365.88	2656.22
366.09	2617.30
366.30	2662.36
366.51	2721.75
366.72	2547.67
366.93	2641.88
367.14	2727.89
367.35	2858.96
367.56	2586.58
367.77	2764.76
367.98	2684.89
368.18	2824.15
368.39	2748.37
368.60	2512.86
368.81	2861.01
369.02	2770.90
369.23	2600.92
369.44	2459.61
369.65	2670.55
369.86	2813.91
370.07	2666.46
370.28	2523.10
370.49	2779.09
370.70	2705.37
370.91	2471.90
371.12	2496.47
371.33	2842.58
371.54	2617.30
371.75	2715.61
371.96	2371.55
372.17	2793.43
372.38	2607.06
372.59	2668.50
372.80	2537.43
373.01	2693.08
373.22	2758.61
373.43	2572.25
373.64	2492.38
373.85	2910.16
374.06	2924.50
374.26	2736.09
374.47	2678.74
374.68	2953.17
374.89	2760.66
375.10	2580.44
375.31	2734.04
375.52	2779.09
375.73	2670.55
375.94	2514.91
376.15	2858.96
376.36	2662.36
376.57	2605.02
376.78	2645.98
376.99	2652.12
377.20	2973.65
377.40	2729.94
377.61	2969.55
377.82	2498.52
378.03	2924.50
378.24	2815.96
378.45	2625.50
378.66	2635.74
378.87	2570.20
379.08	2512.86
379.29	2527.19
379.50	2738.13
379.71	2676.70
379.91	2711.51
380.12	2586.58
380.33	2678.74
380.54	2693.08
380.75	2723.80
380.96	2643.93
381.17	2709.46
381.38	2680.79
381.59	2764.76
381.80	2639.83
382.00	2783.19
382.21	2797.53
382.42	2961.36
382.63	2897.88
382.84	2705.37
383.05	2858.96
383.26	2953.17
383.47	2654.17
383.68	2611.16
383.88	2805.72
384.09	2703.32
384.30	2893.78
384.51	2676.70
384.72	2686.94
384.93	2543.58
385.14	2729.94
385.35	2766.81
385.55	2525.15
385.76	2916.31
385.97	2629.59
386.18	2504.67
386.39	2615.26
386.60	2617.30
386.81	2588.63
387.02	2529.24
387.22	2584.54
387.43	2785.24
387.64	2629.59
387.85	2772.95
388.06	2811.86
388.27	3878.85
388.48	7434.13
388.68	10897.24
388.89	13293.37
389.10	14241.57
389.31	13530.93
389.52	10911.58
389.73	9363.31
389.93	8488.83
390.14	7765.90
390.35	7038.87
390.56	6414.24
390.77	5212.08
390.98	4044.74
391.18	3440.59
391.39	3082.19
391.60	2775.00
391.81	2883.54
392.02	2596.82
392.23	3024.85
392.43	2811.86
392.64	2787.29
392.85	2678.74
393.06	3000.27
393.27	2674.65
393.47	2568.15
393.68	2662.36
393.89	2670.55
394.10	2926.55
394.31	2615.26
394.52	2488.28
394.72	2605.02
394.93	2969.55
395.14	2529.24
395.35	2723.80
395.56	2566.10
395.76	2650.07
395.97	2695.13
396.18	2777.05
396.39	2807.77
396.60	3276.75
396.80	2922.45
397.01	2838.48
397.22	2805.72
397.43	2983.89
397.64	2619.35
397.84	2695.13
398.05	3022.80
398.26	2721.75
398.47	2772.95
398.67	2744.28
398.88	2695.13
399.09	2957.27
399.30	2619.35
399.51	2727.89
399.71	2602.97
399.92	2750.42
400.13	2668.50
400.34	2613.21
400.54	2744.28
400.75	3026.90
400.96	2678.74
401.17	2838.48
401.37	2818.00
401.58	2727.89
401.79	2602.97
402.00	2756.57
402.21	3143.63
402.41	2877.40
402.62	2916.31
402.83	3030.99
403.04	3108.82
403.24	3237.84
403.45	2707.41
403.66	2834.39
403.87	2895.83
404.07	2959.31
404.28	2858.96
404.49	2998.23
404.70	2840.53
404.90	2838.48
405.11	2693.08
405.32	2793.43
405.52	2660.31
405.73	2670.55
405.94	2521.05
406.15	2664.41
406.35	2828.24
406.56	2807.77
406.77	2744.28
406.98	2705.37
407.18	2572.25
407.39	2889.68
407.60	2602.97
407.80	2740.18
408.01	2615.26
408.22	2777.05
408.43	2541.53
408.63	2744.28
408.84	2813.91
409.05	2822.10
409.25	2537.43
409.46	2562.01
409.67	2605.02
409.88	2586.58
410.08	2637.78
410.29	2537.43
410.50	2844.63
410.70	2756.57
410.91	2535.39
411.12	2711.51
411.32	2699.22
411.53	2596.82
411.74	2680.79
411.95	2729.94
412.15	2869.20
412.36	2793.43
412.57	2680.79
412.77	2748.37
412.98	2721.75
413.19	2650.07
413.39	2742.23
413.60	2678.74
413.81	2899.92
414.01	2619.35
414.22	2674.65
414.43	2725.85
414.63	2725.85
414.84	2846.68
415.05	2607.06
415.25	2502.62
415.46	2781.14
415.67	2680.79
415.87	2715.61
416.08	2637.78
416.29	2672.60
416.49	2795.48
416.70	2627.54
416.91	2693.08
417.11	2725.85
417.32	2815.96
417.53	2721.75
417.73	2699.22
417.94	2768.85
418.15	2783.19
418.35	2684.89
418.56	2752.47
418.77	3057.62
418.97	2740.18
419.18	2654.17
419.38	2410.46
419.59	2731.99
419.80	2922.45
420.00	2596.82
420.21	2650.07
420.42	2940.88
420.62	2762.71
420.83	2584.54
421.04	2627.54
421.24	2754.52
421.45	2850.77
421.65	2682.84
421.86	2617.30
422.07	2891.73
422.27	2824.15
422.48	2576.34
422.69	2600.92
422.89	2703.32
423.10	2629.59
423.30	2523.10
423.51	2695.13
423.72	2822.10
423.92	2820.05
424.13	2555.86
424.33	2656.22
424.54	2822.10
424.75	2695.13
424.95	2873.30
425.16	2709.46
425.36	2760.66
425.57	2830.29
425.78	2740.18
425.98	2729.94
426.19	2717.65
426.39	2516.95
426.60	2662.36
426.81	2777.05
427.01	2797.53
427.22	2633.69
427.42	2478.04
427.63	2551.77
427.83	2844.63
428.04	2990.03
428.25	2764.76
428.45	2707.41
428.66	2922.45
428.86	2777.05
429.07	2680.79
429.28	2686.94
429.48	2666.46
429.69	2643.93
429.89	2703.32
430.10	2590.68
430.30	2799.57
430.51	2824.15
430.71	2631.64
430.92	2676.70
431.13	2588.63
431.33	2803.67
431.54	2725.85
431.74	2840.53
431.95	3067.86
432.15	2566.10
432.36	2592.73
432.56	2703.32
432.77	2996.18
432.98	2969.55
433.18	2682.84
433.39	2629.59
433.59	2678.74
433.80	3024.85
434.00	2818.00
434.21	2666.46
434.41	2600.92
434.62	3100.62
434.82	2553.82
435.03	2523.10
435.23	2775.00
435.44	2475.99
435.64	2621.40
435.85	2695.13
436.06	2885.59
436.26	2953.17
436.47	2645.98
436.67	2510.81
436.88	2652.12
437.08	2820.05
437.29	2750.42
437.49	2695.13
437.70	2930.64
437.90	2605.02
438.11	2918.36
438.31	2742.23
438.52	2975.70
438.72	2830.29
438.93	2947.03
439.13	2711.51
439.34	2852.82
439.54	2686.94
439.75	2705.37
439.95	2746.33
440.16	2680.79
440.36	2748.37
440.57	2637.78
440.77	2648.02
440.98	2793.43
441.18	2809.81
441.39	2586.58
441.59	2492.38
441.80	3086.29
442.00	2705.37
442.21	2764.76
442.41	2463.71
442.62	2877.40
442.82	2619.35
443.02	2668.50
443.23	2645.98
443.43	2691.03
443.64	2983.89
443.84	2559.96
444.05	2758.61
444.25	2705.37
444.46	2631.64
444.66	2611.16
444.87	2824.15
445.07	2613.21
445.28	2686.94
445.48	2852.82
445.69	2748.37
445.89	3059.67
446.09	2641.88
446.30	2897.88
446.50	3114.96
446.71	4552.63
446.91	5586.86
447.12	6451.10
447.32	6760.34
447.53	6496.16
447.73	5210.03
447.93	4718.52
448.14	4466.62
448.34	4489.15
448.55	3829.70
448.75	3837.89
448.96	3641.29
449.16	3416.01
449.36	3260.37
449.57	2840.53
449.77	2725.85
449.98	2643.93
450.18	2793.43
450.39	2652.12
450.59	2834.39
450.79	2779.09
451.00	2594.78
451.20	2746.33
451.41	2695.13
451.61	2832.34
451.81	2758.61
452.02	2539.48
452.22	2652.12
452.43	2654.17
452.63	2676.70
452.84	2660.31
453.04	2648.02
453.24	2818.00
453.45	2621.40
453.65	2619.35
453.86	2676.70
454.06	2846.68
454.26	2688.98
454.47	2598.87
454.67	2746.33
454.87	2787.29
455.08	2701.27
455.28	2834.39
455.49	2758.61
455.69	2635.74
455.89	2985.94
456.10	2783.19
456.30	2703.32
456.51	2914.26
456.71	2736.09
456.91	2770.90
457.12	2678.74
457.32	2809.81
457.52	2584.54
457.73	2768.85
457.93	2795.48
458.14	2684.89
458.34	2486.23
458.54	2715.61
458.75	2666.46
458.95	2830.29
459.15	2748.37
459.36	2734.04
459.56	2703.32
459.76	3104.72
459.97	2760.66
460.17	2562.01
460.37	2740.18
460.58	2701.27
460.78	2842.58
460.99	2602.97
461.19	2684.89
461.39	2650.07
461.60	2676.70
461.80	2736.09
462.00	2498.52
462.21	2707.41
462.41	2619.35
462.61	2492.38
462.82	2502.62
463.02	2805.72
463.22	2758.61
463.43	2772.95
463.63	2658.26
463.83	3030.99
464.04	2815.96
464.24	2670.55
464.44	2598.87
464.64	2785.24
464.85	2785.24
465.05	2752.47
465.25	2609.11
465.46	2654.17
465.66	2863.06
465.86	2766.81
466.07	2639.83
466.27	2719.70
466.47	2506.71
466.68	2539.48
466.88	2867.16
467.08	2795.48
467.29	2861.01
467.49	2680.79
467.69	2723.80
467.89	2828.24
468.10	2637.78
468.30	2725.85
468.50	2785.24
468.71	2926.55
468.91	2592.73
469.11	2836.44
469.31	2707.41
469.52	2613.21
469.72	3059.67
469.92	2858.96
470.13	2736.09
470.33	2731.99
470.53	2803.67
470.73	2967.51
470.94	3309.52
471.14	3409.87
471.34	3786.69
471.54	3583.95
471.75	3452.88
471.95	3151.82
472.15	3012.56
472.36	3106.77
472.56	2924.50
472.76	3160.02
472.96	3088.34
473.17	2824.15
473.37	2803.67
473.57	2764.76
473.77	2834.39
473.98	2643.93
474.18	2502.62
474.38	3174.35
474.58	2746.33
474.79	2502.62
474.99	2723.80
475.19	2826.20
475.39	2641.88
475.60	2772.95
475.80	2660.31
476.00	2758.61
476.20	2699.22
476.41	2686.94
476.61	2715.61
476.81	2922.45
477.01	2627.54
477.21	2854.87
477.42	2807.77
477.62	2617.30
477.82	2809.81
478.02	2570.20
478.23	2791.38
478.43	2629.59
478.63	2621.40
478.83	2721.75
479.03	2756.57
479.24	2850.77
479.44	3024.85
479.64	2574.30
479.84	2486.23
480.04	2619.35
480.25	2781.14
480.45	2582.49
480.65	2596.82
480.85	2992.08
481.06	2654.17
481.26	2754.52
481.46	2699.22
481.66	2793.43
481.86	2541.53
482.06	2805.72
482.27	2637.78
482.47	2664.41
482.67	2824.15
482.87	2666.46
483.07	2707.41
483.28	2715.61
483.48	2529.24
483.68	2549.72
483.88	2531.29
484.08	2443.23
484.29	2695.13
484.49	2758.61
484.69	2531.29
484.89	3010.51
485.09	2861.01
485.29	2693.08
485.50	2748.37
485.70	2611.16
485.90	2869.20
486.10	2742.23
486.30	2625.50
486.50	2889.68
486.71	2793.43
486.91	2703.32
487.11	2711.51
487.31	2559.96
487.51	2719.70
487.71	2562.01
487.91	2568.15
488.12	2656.22
488.32	2461.66
488.52	2512.86
488.72	2379.74
488.92	2826.20
489.12	2850.77
489.32	2834.39
489.53	2715.61
489.73	2490.33
489.93	2932.69
490.13	2543.58
490.33	2502.62
490.53	2752.47
490.73	2944.98
490.94	2465.75
491.14	2676.70
491.34	2760.66
491.54	2840.53
491.74	3512.27
491.94	4050.88
492.14	4360.13
492.34	4474.81
492.54	4075.46
492.75	3499.98
492.95	3620.81
493.15	3446.73
493.35	3258.32
493.55	3194.83
493.75	3164.11
493.95	3196.88
494.15	2926.55
494.35	2791.38
494.56	2764.76
494.76	2670.55
494.96	2742.23
495.16	2625.50
495.36	2672.60
495.56	2723.80
495.76	2711.51
495.96	2600.92
496.16	2674.65
496.36	3026.90
496.56	2629.59
496.77	2797.53
496.97	2703.32
497.17	2865.11
497.37	2553.82
497.57	2756.57
497.77	2809.81
497.97	2568.15
498.17	2615.26
498.37	2592.73
498.57	2828.24
498.77	2674.65
498.97	2799.57
499.17	2871.25
499.38	2658.26
499.58	2813.91
499.78	2775.00
499.98	2779.09
500.18	2736.09
500.38	2629.59
500.58	2916.31
500.78	3280.85
500.98	5320.62
501.18	7110.55
501.38	8574.85
501.58	9482.10
501.78	9430.90
501.98	7718.79
502.18	6492.06
502.38	5550.00
502.58	5306.29
502.78	4757.43
502.98	4609.98
503.18	4392.89
503.38	4118.47
503.59	3495.88
503.79	3399.63
503.99	3266.51
504.19	3139.54
504.39	3172.30
504.59	3084.24
504.79	2994.13
504.99	3338.19
505.19	2922.45
505.39	2846.68
505.59	3051.47
505.79	3086.29
505.99	2899.92
506.19	2707.41
506.39	2836.44
506.59	2621.40
506.79	2680.79
506.99	2858.96
507.19	2717.65
507.39	2809.81
507.59	2551.77
507.79	2678.74
507.99	2508.76
508.19	2736.09
508.39	2629.59
508.59	2668.50
508.79	2801.62
508.99	3002.32
509.19	2695.13
509.39	2768.85
509.59	2633.69
509.79	2641.88
509.99	2660.31
510.19	2772.95
510.39	2750.42
510.59	2754.52
510.79	2676.70
510.99	2504.67
511.19	2709.46
511.39	2990.03
511.59	2934.74
511.79	2740.18
511.99	2598.87
512.19	2973.65
512.38	2725.85
512.58	2643.93
512.78	2535.39
512.98	2893.78
513.18	3012.56
513.38	2559.96
513.58	2734.04
513.78	2650.07
513.98	2723.80
514.18	2691.03
514.38	2637.78
514.58	2844.63
514.78	2605.02
514.98	2600.92
515.18	2668.50
515.38	2523.10
515.58	3043.28
515.78	2613.21
515.98	2672.60
516.18	2873.30
516.38	2729.94
516.57	2613.21
516.77	2609.11
516.97	2899.92
517.17	2557.91
517.37	2416.60
517.57	2736.09
517.77	2740.18
517.97	2592.73
518.17	2701.27
518.37	2588.63
518.57	2650.07
518.77	2658.26
518.97	2637.78
519.16	2697.17
519.36	2861.01
519.56	2588.63
519.76	2650.07
519.96	2703.32
520.16	2973.65
520.36	2547.67
520.56	2805.72
520.76	2627.54
520.96	2676.70
521.16	2881.49
521.35	2818.00
521.55	2836.44
521.75	2725.85
521.95	2678.74
522.15	2527.19
522.35	2527.19
522.55	2594.78
522.75	2934.74
522.95	2494.43
523.14	2510.81
523.34	2736.09
523.54	2607.06
523.74	2777.05
523.94	2627.54
524.14	2533.34
524.34	2846.68
524.54	2818.00
524.73	2672.60
524.93	2899.92
525.13	2748.37
525.33	2537.43
525.53	2895.83
525.73	2830.29
525.93	2717.65
526.13	2584.54
526.32	2660.31
526.52	2883.54
526.72	2824.15
526.92	2660.31
527.12	2576.34
527.32	2508.76
527.52	2781.14
527.71	2707.41
527.91	2664.41
528.11	2557.91
528.31	2672.60
528.51	2572.25
528.71	2746.33
528.90	2805.72
529.10	2891.73
529.30	2756.57
529.50	2424.80
529.70	2719.70
529.90	2725.85
530.09	2666.46
530.29	2455.51
530.49	2684.89
530.69	3061.71
530.89	2691.03
531.09	2686.94
531.28	2625.50
531.48	2940.88
531.68	2701.27
531.88	2656.22
532.08	2846.68
532.28	2680.79
532.47	2824.15
532.67	2750.42
532.87	2805.72
533.07	2600.92
533.27	2725.85
533.46	2670.55
533.66	2772.95
533.86	2701.27
534.06	2775.00
534.26	2660.31
534.45	2676.70
534.65	2791.38
534.85	2742.23
535.05	2596.82
535.25	2828.24
535.44	2564.06
535.64	2711.51
535.84	2650.07
536.04	2662.36
536.24	2629.59
536.43	2633.69
536.63	2666.46
536.83	2793.43
537.03	2635.74
537.22	2498.52
537.42	2496.47
537.62	2707.41
537.82	2609.11
538.02	2881.49
538.21	2756.57
538.41	3157.97
538.61	2834.39
538.81	2650.07
539.00	2760.66
539.20	2586.58
539.40	2668.50
539.60	2625.50
539.79	2746.33
539.99	2654.17
540.19	2621.40
540.39	2613.21
540.58	2684.89
540.78	2891.73
540.98	2764.76
541.18	2760.66
541.37	2709.46
541.57	2725.85
541.77	2836.44
541.97	2539.48
542.16	2564.06
542.36	2654.17
542.56	2680.79
542.76	2836.44
542.95	2727.89
543.15	2815.96
543.35	2809.81
543.54	2551.77
543.74	2572.25
543.94	2901.97
544.14	2615.26
544.33	2719.70
544.53	2613.21
544.73	2711.51
544.93	2592.73
545.12	2621.40
545.32	2670.55
545.52	2600.92
545.71	2555.86
545.91	2582.49
546.11	2623.45
546.30	2611.16
546.50	2723.80
546.70	2725.85
546.90	2664.41
547.09	2428.89
547.29	2727.89
547.49	2793.43
547.68	2602.97
547.88	2678.74
548.08	2772.95
548.27	3039.19
548.47	2605.02
548.67	2719.70
548.87	2863.06
549.06	2645.98
549.26	2658.26
549.46	2809.81
549.65	2631.64
549.85	2652.12
550.05	2654.17
550.24	2539.48
550.44	2715.61
550.64	2664.41
550.83	2592.73
551.03	2936.79
551.23	2856.92
551.42	2719.70
551.62	2643.93
551.82	2736.09
552.01	2705.37
552.21	2867.16
552.41	2662.36
552.60	2998.23
552.80	2740.18
553.00	2652.12
553.19	2684.89
553.39	2994.13
553.59	2525.15
553.78	2731.99
553.98	2645.98
554.17	2621.40
554.37	2729.94
554.57	2715.61
554.76	2557.91
554.96	2656.22
555.16	2727.89
555.35	2777.05
555.55	2697.17
555.75	2766.81
555.94	2832.34
556.14	2496.47
556.33	2631.64
556.53	2625.50
556.73	2664.41
556.92	2777.05
557.12	2674.65
557.32	2975.70
557.51	2926.55
557.71	2637.78
557.90	2844.63
558.10	2830.29
558.30	2705.37
558.49	2654.17
558.69	2617.30
558.88	2809.81
559.08	2719.70
559.28	2596.82
559.47	2674.65
559.67	2721.75
559.86	2961.36
560.06	2645.98
560.26	2691.03
560.45	2779.09
560.65	2709.46
560.84	2883.54
561.04	2551.77
561.24	2815.96
561.43	2590.68
561.63	2809.81
561.82	2707.41
562.02	2768.85
562.22	2650.07
562.41	2570.20
562.61	2609.11
562.80	2641.88
563.00	3137.49
563.19	2750.42
563.39	2668.50
563.59	2850.77
563.78	2523.10
563.98	2435.03
564.17	2611.16
564.37	2512.86
564.56	2658.26
564.76	2553.82
564.96	2725.85
565.15	2701.27
565.35	3071.95
565.54	2623.45
565.74	2658.26
565.93	2799.57
566.13	2715.61
566.32	2756.57
566.52	2777.05
566.71	2744.28
566.91	2875.35
567.11	2744.28
567.30	2525.15
567.50	2742.23
567.69	2754.52
567.89	2680.79
568.08	2537.43
568.28	2738.13
568.47	2590.68
568.67	2746.33
568.86	2686.94
569.06	2791.38
569.25	2742.23
569.45	2547.67
569.64	2621.40
569.84	2711.51
570.04	2832.34
570.23	2578.39
570.43	2580.44
570.62	2764.76
570.82	2926.55
571.01	2545.63
571.21	2613.21
571.40	2600.92
571.60	2811.86
571.79	2746.33
571.99	2699.22
572.18	2643.93
572.38	2828.24
572.57	2609.11
572.77	2707.41
572.96	3133.39
573.16	2828.24
573.35	2650.07
573.55	2848.72
573.74	2809.81
573.94	2621.40
574.13	2594.78
574.33	2793.43
574.52	2887.64
574.71	2711.51
574.91	2674.65
575.10	2559.96
575.30	2594.78
575.49	2590.68
575.69	2553.82
575.88	2676.70
576.08	2699.22
576.27	2992.08
576.47	2678.74
576.66	2828.24
576.86	2912.21
577.05	2729.94
577.25	2693.08
577.44	2834.39
577.64	2639.83
577.83	2850.77
578.02	2703.32
578.22	2746.33
578.41	3039.19
578.61	2678.74
578.80	2527.19
579.00	2666.46
579.19	2729.94
579.39	2805.72
579.58	2809.81
579.77	2635.74
579.97	2969.55
580.16	2910.16
580.36	2805.72
580.55	2772.95
580.75	2777.05
580.94	2742.23
581.13	2861.01
581.33	2889.68
581.52	2791.38
581.72	2994.13
581.91	2830.29
582.11	2600.92
582.30	2873.30
582.49	2820.05
582.69	2899.92
582.88	2725.85
583.08	2842.58
583.27	2867.16
583.47	2707.41
583.66	2621.40
583.85	2617.30
584.05	2723.80
584.24	2738.13
584.44	2731.99
584.63	2977.75
584.82	2863.06
585.02	2858.96
585.21	2783.19
585.41	2844.63
585.60	2838.48
585.79	2951.12
585.99	3006.42
586.18	2775.00
586.37	3551.18
586.57	5427.12
586.76	15949.58
586.96	34913.77
587.15	47795.49
587.34	56300.71
587.54	60294.25
587.73	54574.27
587.93	38278.58
588.12	29120.07
588.31	23858.84
588.51	20862.66
588.70	19242.71
588.89	17024.76
589.09	14409.51
589.28	12320.58
589.47	9817.96
589.67	7559.05
589.86	5932.97
590.06	4485.05
590.25	3809.22
590.44	3334.09
590.64	3112.91
590.83	2957.27
591.02	3004.37
591.22	2758.61
591.41	2699.22
591.60	2803.67
591.80	3112.91
591.99	2533.34
592.18	2654.17
592.38	2830.29
592.57	2658.26
592.76	2719.70
592.96	2746.33
593.15	2727.89
593.34	2924.50
593.54	2637.78
593.73	2758.61
593.92	2910.16
594.12	2846.68
594.31	2727.89
594.50	2793.43
594.70	2826.20
594.89	3123.15
595.08	2586.58
595.28	2801.62
595.47	3188.69
595.66	2922.45
595.86	2629.59
596.05	2584.54
596.24	2633.69
596.43	2996.18
596.63	2793.43
596.82	2785.24
597.01	2826.20
597.21	2951.12
597.40	2719.70
597.59	2654.17
597.79	2748.37
597.98	2863.06
598.17	2738.13
598.36	2746.33
598.56	2883.54
598.75	2582.49
598.94	2799.57
599.14	2707.41
599.33	2676.70
599.52	2861.01
599.71	2793.43
599.91	2748.37
600.10	2836.44
600.29	2787.29
600.48	2791.38
600.68	2770.90
600.87	2803.67
601.06	2629.59
601.26	2678.74
601.45	2783.19
601.64	2703.32
601.83	2920.40
602.03	2594.78
602.22	2600.92
602.41	2826.20
602.60	3155.92
602.80	2809.81
602.99	2754.52
603.18	2705.37
603.37	2791.38
603.57	2682.84
603.76	2744.28
603.95	2856.92
604.14	2658.26
604.34	2576.34
604.53	2580.44
604.72	2742.23
604.91	2813.91
605.10	2719.70
605.30	2564.06
605.49	3106.77
605.68	2813.91
605.87	2713.56
606.07	2672.60
606.26	2723.80
606.45	2734.04
606.64	2738.13
606.84	2625.50
607.03	2719.70
607.22	2895.83
607.41	2711.51
607.60	2602.97
607.80	2897.88
607.99	2670.55
608.18	2650.07
608.37	2641.88
608.56	2621.40
608.76	2785.24
608.95	2836.44
609.14	2734.04
609.33	2914.26
609.52	2871.25
609.72	2781.14
609.91	2856.92
610.10	2834.39
610.29	2938.84
610.48	2752.47
610.68	2777.05
610.87	2703.32
611.06	2852.82
611.25	2670.55
611.44	2787.29
611.63	2758.61
611.83	3006.42
612.02	2543.58
612.21	2842.58
612.40	2492.38
612.59	2533.34
612.79	2547.67
612.98	2750.42
613.17	2992.08
613.36	2703.32
613.55	2846.68
613.74	2711.51
613.93	2824.15
614.13	2891.73
614.32	2809.81
614.51	2711.51
614.70	2719.70
614.89	2641.88
615.08	2818.00
615.28	3133.39
615.47	2611.16
615.66	2775.00
615.85	2678.74
616.04	2879.44
616.23	2695.13
616.42	2764.76
616.62	2715.61
616.81	2703.32
617.00	2736.09
617.19	2854.87
617.38	2654.17
617.57	2650.07
617.76	2815.96
617.95	2869.20
618.15	2744.28
618.34	2861.01
618.53	2488.28
618.72	2848.72
618.91	2793.43
619.10	2721.75
619.29	2742.23
619.48	2758.61
619.68	2537.43
619.87	2684.89
620.06	2586.58
620.25	2820.05
620.44	2564.06
620.63	2703.32
620.82	2799.57
621.01	2682.84
621.20	2717.65
621.39	2707.41
621.59	2746.33
621.78	2731.99
621.97	2713.56
622.16	2752.47
622.35	2803.67
622.54	2830.29
622.73	2813.91
622.92	2496.47
623.11	2848.72
623.30	2731.99
623.49	2783.19
623.68	2547.67
623.88	2924.50
624.07	2740.18
624.26	2629.59
624.45	2600.92
624.64	2697.17
624.83	2865.11
625.02	2621.40
625.21	2592.73
625.40	2803.67
625.59	2871.25
625.78	2674.65
625.97	2830.29
626.16	2910.16
626.35	2901.97
626.54	2783.19
626.74	2910.16
626.93	2715.61
627.12	2676.70
627.31	2813.91
627.50	2727.89
627.69	2873.30
627.88	2547.67
628.07	2621.40
628.26	2523.10
628.45	2629.59
628.64	2592.73
628.83	2547.67
629.02	2488.28
629.21	2809.81
629.40	2713.56
629.59	2596.82
629.78	2691.03
629.97	2754.52
630.16	2791.38
630.35	2639.83
630.54	2768.85
630.73	2621.40
630.92	2717.65
631.11	2592.73
631.30	2701.27
631.49	2871.25
631.68	2613.21
631.87	2701.27
632.06	2539.48
632.25	3039.19
632.44	2723.80
632.63	2764.76
632.82	2674.65
633.01	2590.68
633.20	2705.37
633.39	2619.35
633.58	2545.63
633.77	2789.33
633.96	2752.47
634.15	2791.38
634.34	2697.17
634.53	2838.48
634.72	2701.27
634.91	2521.05
635.10	2717.65
635.29	2854.87
635.48	2748.37
635.67	2570.20
635.86	2523.10
636.05	2924.50
636.24	2641.88
636.43	2662.36
636.62	2764.76
636.81	2406.36
637.00	2695.13
637.19	2691.03
637.38	2559.96
637.57	2637.78
637.76	2750.42
637.95	2820.05
638.14	2639.83
638.33	2785.24
638.52	2799.57
638.71	2510.81
638.89	2519.00
639.08	3041.23
639.27	2901.97
639.46	2924.50
639.65	3192.78
639.84	3157.97
640.03	3342.28
640.22	2981.84
640.41	3098.58
640.60	2775.00
640.79	2963.41
640.98	2789.33
641.17	2783.19
641.36	2947.03
641.55	2893.78
641.74	2590.68
641.92	2529.24
642.11	2555.86
642.30	2682.84
642.49	2602.97
642.68	2596.82
642.87	2768.85
643.06	2748.37
643.25	2576.34
643.44	2553.82
643.63	2705.37
643.82	2787.29
644.00	2486.23
644.19	2711.51
644.38	2613.21
644.57	2785.24
644.76	2775.00
644.95	2721.75
645.14	2766.81
645.33	2777.05
645.52	2680.79
645.71	2492.38
645.89	2543.58
646.08	2703.32
646.27	2596.82
646.46	2873.30
646.65	2598.87
646.84	2744.28
647.03	2596.82
647.22	2799.57
647.40	2731.99
647.59	2725.85
647.78	2435.03
647.97	2656.22
648.16	2613.21
648.35	2947.03
648.54	2830.29
648.73	2596.82
648.91	2852.82
649.10	2731.99
649.29	2582.49
649.48	2623.45
649.67	2766.81
649.86	2785.24
650.05	2729.94
650.23	2854.87
650.42	2648.02
650.61	2928.60
650.80	2858.96
650.99	2961.36
651.18	2940.88
651.36	2809.81
651.55	2592.73
651.74	2734.04
651.93	2662.36
652.12	2678.74
652.31	2719.70
652.49	2717.65
652.68	2648.02
652.87	2977.75
653.06	2695.13
653.25	2953.17
653.44	2674.65
653.62	2998.23
653.81	2668.50
654.00	2775.00
654.19	2826.20
654.38	3207.12
654.56	2662.36
654.75	2539.48
654.94	2861.01
655.13	2756.57
655.32	2664.41
655.51	2709.46
655.69	2596.82
655.88	2820.05
656.07	2521.05
656.26	2688.98
656.45	2592.73
656.63	2678.74
656.82	2680.79
657.01	2799.57
657.20	2637.78
657.38	2893.78
657.57	2605.02
657.76	2541.53
657.95	2891.73
658.14	2660.31
658.32	2721.75
658.51	2531.29
658.70	2731.99
658.89	2744.28
659.08	2717.65
659.26	2901.97
659.45	2631.64
659.64	2807.77
659.83	2652.12
660.01	3090.38
660.20	2805.72
660.39	3006.42
660.58	2445.27
660.76	2736.09
660.95	2600.92
661.14	2729.94
661.33	2539.48
661.51	2656.22
661.70	2707.41
661.89	2768.85
662.08	2645.98
662.26	2598.87
662.45	2535.39
662.64	2957.27
662.83	2768.85
663.01	2496.47
663.20	2664.41
663.39	2914.26
663.58	2623.45
663.76	2602.97
663.95	2875.35
664.14	2652.12
664.32	2629.59
664.51	2539.48
664.70	2488.28
664.89	2760.66
665.07	2473.95
665.26	2752.47
665.45	2557.91
665.64	2873.30
665.82	2736.09
666.01	2822.10
666.20	2549.72
666.38	2873.30
666.57	2809.81
666.76	4306.88
666.95	9891.69
667.13	16713.47
667.32	20924.10
667.51	23901.84
667.69	24594.06
667.88	21259.96
668.07	15310.61
668.25	12795.71
668.44	10950.49
668.63	9654.12
668.81	8398.72
669.00	7065.49
669.19	6631.32
669.38	5711.78
669.56	4966.32
669.75	4169.66
669.94	3727.30
670.12	3266.51
670.31	2985.94
670.50	2932.69
670.68	2951.12
670.87	2768.85
671.06	2701.27
671.24	2772.95
671.43	2940.88
671.62	2807.77
671.80	2562.01
671.99	2723.80
672.18	2754.52
672.36	2908.12
672.55	2695.13
672.74	2772.95
672.92	2650.07
673.11	2881.49
673.29	2486.23
673.48	2756.57
673.67	2701.27
673.85	2842.58
674.04	2553.82
674.23	2707.41
674.41	3028.95
674.60	2656.22
674.79	2453.47
674.97	2529.24
675.16	2824.15
675.34	2887.64
675.53	2607.06
675.72	2684.89
675.90	3030.99
676.09	2627.54
676.28	2729.94
676.46	2492.38
676.65	2832.34
676.83	2545.63
677.02	2617.30
677.21	2635.74
677.39	2678.74
677.58	2680.79
677.77	2645.98
677.95	2523.10
678.14	2637.78
678.32	2791.38
678.51	2699.22
678.70	2922.45
678.88	2641.88
679.07	2746.33
679.25	2691.03
679.44	2629.59
679.63	2596.82
679.81	2793.43
680.00	2826.20
680.18	2725.85
680.37	2963.41
680.55	2652.12
680.74	2482.14
680.93	2445.27
681.11	2748.37
681.30	2752.47
681.48	2783.19
681.67	2727.89
681.85	2736.09
682.04	2625.50
682.23	2772.95
682.41	2670.55
682.60	2641.88
682.78	2703.32
682.97	2519.00
683.15	2656.22
683.34	2744.28
683.53	2953.17
683.71	2527.19
683.90	2834.39
684.08	2916.31
684.27	2627.54
684.45	2709.46
684.64	2766.81
684.82	2664.41
685.01	2760.66
685.19	2643.93
685.38	2953.17
685.57	2715.61
685.75	2637.78
685.94	2605.02
686.12	2533.34
686.31	2596.82
686.49	2938.84
686.68	2498.52
686.86	2672.60
687.05	2725.85
687.23	2987.99
687.42	2609.11
687.60	2555.86
687.79	2818.00
687.97	2844.63
688.16	2801.62
688.34	2807.77
688.53	2486.23
688.71	2703.32
688.90	2899.92
689.08	2666.46
689.27	2516.95
689.45	2760.66
689.64	2731.99
689.82	2758.61
690.01	2711.51
690.19	2809.81
690.38	2635.74
690.56	2772.95
690.75	2592.73
690.93	2539.48
691.12	2582.49
691.30	2660.31
691.49	2645.98
691.67	2752.47
691.86	2957.27
692.04	2615.26
692.23	2723.80
692.41	2717.65
692.60	2944.98
692.78	2891.73
692.97	2752.47
693.15	2832.34
693.34	2809.81
693.52	2883.54
693.71	2688.98
693.89	2691.03
694.08	2473.95
694.26	2725.85
694.44	2799.57
694.63	2854.87
694.81	2494.43
695.00	2625.50
695.18	2869.20
695.37	3082.19
695.55	2736.09
695.74	2686.94
695.92	2633.69
696.10	2879.44
696.29	2512.86
696.47	2514.91
696.66	2570.20
696.84	2602.97
697.03	2670.55
697.21	2887.64
697.40	4044.74
697.58	2840.53
697.76	2590.68
697.95	2553.82
698.13	2674.65
698.32	2648.02
698.50	2596.82
698.68	2832.34
698.87	2717.65
699.05	2877.40
699.24	2680.79
699.42	2510.81
699.61	2850.77
699.79	2723.80
699.97	2740.18
700.16	2602.97
700.34	2545.63
700.53	2768.85
700.71	2969.55
700.89	2807.77
701.08	2662.36
701.26	2766.81
701.45	3151.82
701.63	2668.50
701.81	2715.61
702.00	2566.10
702.18	2660.31
702.37	2590.68
702.55	2932.69
702.73	2752.47
702.92	2662.36
703.10	2875.35
703.28	2916.31
703.47	2607.06
703.65	2908.12
703.84	2795.48
704.02	2672.60
704.20	2924.50
704.39	2611.16
704.57	2674.65
704.75	2805.72
704.94	2848.72
705.12	2666.46
705.30	3047.38
705.49	5693.35
705.67	11784.01
705.86	17442.55
706.04	20164.30
706.22	22283.95
706.41	22445.74
706.59	17501.94
706.77	13147.96
706.96	11151.19
707.14	10329.95
707.32	8847.22
707.51	7825.29
707.69	6373.28
707.87	5316.53
708.06	4474.81
708.24	3782.60
708.42	3391.44
708.61	3397.58
708.79	2691.03
708.97	2756.57
709.16	2844.63
709.34	2805.72
709.52	2633.69
709.71	2688.98
709.89	2826.20
710.07	2682.84
710.26	2617.30
710.44	2719.70
710.62	2840.53
710.80	2748.37
710.99	2805.72
711.17	2758.61
711.35	2602.97
711.54	2662.36
711.72	2717.65
711.90	2787.29
712.09	2793.43
712.27	2611.16
712.45	2768.85
712.63	2568.15
712.82	2779.09
713.00	2639.83
713.18	2842.58
713.37	2834.39
713.55	2883.54
713.73	2764.76
713.91	2781.14
714.10	2619.35
714.28	2682.84
714.46	2781.14
714.65	2742.23
714.83	2619.35
715.01	2789.33
715.19	2785.24
715.38	2545.63
715.56	2648.02
715.74	2588.63
715.92	2648.02
716.11	2848.72
716.29	2514.91
716.47	2693.08
716.65	2799.57
716.84	2521.05
717.02	2719.70
717.20	2498.52
717.38	2613.21
717.57	2752.47
717.75	2746.33
717.93	2715.61
718.11	2869.20
718.30	2469.85
718.48	2719.70
718.66	2838.48
718.84	2897.88
719.03	2627.54
719.21	2555.86
719.39	3022.80
719.57	2832.34
719.75	2770.90
719.94	2572.25
720.12	2621.40
720.30	2680.79
720.48	2754.52
720.67	2596.82
720.85	2533.34
721.03	2633.69
721.21	2574.30
721.39	2850.77
721.58	2820.05
721.76	2781.14
721.94	2656.22
722.12	2715.61
722.30	2875.35
722.49	2609.11
722.67	2648.02
722.85	2650.07
723.03	2488.28
723.21	2590.68
723.40	2621.40
723.58	2799.57
723.76	2811.86
723.94	2977.75
724.12	2719.70
724.30	2924.50
724.49	2883.54
724.67	2654.17
724.85	2785.24
725.03	2498.52
725.21	2809.81
725.40	2842.58
725.58	2611.16
725.76	2813.91
725.94	2797.53
726.12	2562.01
726.30	2633.69
726.49	2621.40
726.67	2674.65
726.85	2863.06
727.03	3117.01
727.21	4018.11
727.39	5218.22
727.57	5619.63
727.76	5988.26
727.94	6049.70
728.12	5506.99
728.30	4435.90
728.48	4294.59
728.66	3975.11
728.84	3798.98
729.03	3303.37
729.21	3241.93
729.39	3043.28
729.57	2820.05
729.75	2879.44
729.93	2805.72
730.11	2621.40
730.30	2750.42
730.48	2697.17
730.66	2795.48
730.84	2791.38
731.02	2744.28
731.20	2666.46
731.38	2678.74
731.56	2570.20
731.74	2533.34
731.93	2758.61
732.11	2758.61
732.29	2664.41
732.47	2807.77
732.65	2721.75
732.83	2887.64
733.01	2734.04
733.19	2650.07
733.37	2818.00
733.56	2703.32
733.74	2559.96
733.92	2928.60
734.10	2623.45
734.28	2691.03
734.46	2447.32
734.64	2658.26
734.82	2744.28
735.00	2609.11
735.18	2590.68
735.36	2793.43
735.54	2693.08
735.73	2703.32
735.91	2723.80
736.09	2895.83
736.27	2650.07
736.45	2744.28
736.63	2447.32
736.81	2680.79
736.99	2885.59
737.17	2879.44
737.35	2664.41
737.53	2785.24
737.71	2691.03
737.89	2875.35
738.07	2553.82
738.25	2611.16
738.43	2553.82
738.61	2584.54
738.80	2469.85
738.98	2641.88
739.16	2611.16
739.34	2586.58
739.52	2871.25
739.70	2637.78
739.88	2832.34
740.06	2834.39
740.24	2437.08
740.42	2873.30
740.60	2496.47
740.78	2623.45
740.96	2504.67
741.14	2635.74
741.32	2762.71
741.50	2463.71
741.68	2891.73
741.86	2998.23
742.04	2551.77
742.22	2637.78
742.40	2695.13
742.58	2793.43
742.76	2645.98
742.94	2815.96
743.12	2441.18
743.30	2791.38
743.48	2844.63
743.66	2549.72
743.84	2701.27
744.02	2643.93
744.20	2717.65
744.38	2514.91
744.56	2613.21
744.74	2973.65
744.92	2777.05
745.10	2922.45
745.28	2740.18
745.46	3026.90
745.64	2697.17
745.82	2738.13
746.00	2703.32
746.18	2738.13
746.36	2592.73
746.54	2613.21
746.72	2648.02
746.90	2623.45
747.08	2846.68
747.26	2701.27
747.44	2748.37
747.62	2777.05
747.80	2744.28
747.98	2783.19
748.15	2609.11
748.33	2971.60
748.51	2758.61
748.69	2734.04
748.87	2463.71
749.05	2664.41
749.23	2719.70
749.41	2613.21
749.59	2541.53
749.77	2867.16
749.95	2566.10
750.13	2670.55
750.31	2850.77
750.49	2738.13
750.67	2873.30
750.85	2807.77
751.03	2641.88
751.20	3051.47
751.38	2709.46
751.56	2625.50
751.74	2629.59
751.92	2711.51
752.10	2596.82
752.28	2805.72
752.46	2656.22
752.64	2740.18
752.82	2764.76
753.00	2797.53
753.18	2648.02
753.35	2717.65
753.53	2668.50
753.71	2650.07
753.89	2721.75
754.07	2734.04
754.25	2846.68
754.43	2754.52
754.61	2584.54
754.79	2842.58
754.97	2674.65
755.14	2793.43
755.32	2480.09
755.50	2723.80
755.68	2838.48
755.86	2549.72
756.04	2641.88
756.22	2435.03
756.40	2854.87
756.57	2891.73
756.75	2633.69
756.93	2865.11
757.11	2891.73
757.29	2519.00
757.47	2508.76
757.65	2557.91
757.82	2426.84
758.00	2523.10
758.18	2672.60
758.36	2594.78
758.54	2938.84
758.72	2416.60
758.90	2826.20
759.07	2768.85
759.25	2596.82
759.43	2693.08
759.61	2492.38
759.79	3981.25
759.97	2818.00
760.15	2609.11
760.32	2674.65
760.50	2758.61
760.68	2951.12
760.86	2473.95
761.04	2809.81
761.22	2756.57
761.39	2734.04
761.57	2789.33
761.75	2643.93
761.93	2824.15
762.11	2775.00
762.28	2770.90
762.46	2598.87
762.64	2754.52
762.82	2449.37
763.00	2680.79
763.18	2856.92
763.35	2582.49
763.53	2791.38
763.71	2758.61
763.89	2711.51
764.07	2707.41
764.24	2615.26
764.42	2731.99
764.60	2635.74
764.78	2750.42
764.96	2779.09
765.13	2754.52
765.31	2600.92
765.49	2785.24
765.67	2578.39
765.84	2686.94
766.02	2609.11
766.20	2465.75
766.38	2789.33
766.56	2746.33
766.73	2801.62
766.91	2686.94
767.09	2754.52
767.27	2752.47
767.44	2525.15
767.62	2822.10
767.80	2582.49
767.98	2611.16
768.15	2660.31
768.33	2807.77
768.51	2818.00
768.69	2707.41
768.87	2625.50
769.04	2688.98
769.22	3069.91
769.40	2807.77
769.58	2842.58
769.75	2875.35
769.93	2918.36
770.11	2641.88
770.28	2580.44
770.46	2930.64
770.64	2863.06
770.82	2686.94
770.99	2566.10
771.17	2768.85
771.35	2717.65
771.53	2711.51
771.70	2619.35
771.88	2815.96
772.06	2703.32
772.23	2609.11
772.41	2660.31
772.59	2693.08
772.77	2617.30
772.94	2682.84
773.12	2676.70
773.30	2602.97
773.47	2705.37
773.65	2643.93
773.83	2863.06
774.01	2740.18
774.18	2486.23
774.36	2637.78
774.54	2576.34
774.71	2777.05
774.89	2562.01
775.07	2541.53
775.24	2658.26
775.42	2648.02
775.60	2963.41
775.78	2621.40
775.95	2521.05
776.13	2529.24
776.31	2379.74
776.48	2662.36
776.66	2865.11
776.84	2666.46
777.01	2617.30
777.19	2545.63
777.37	2596.82
777.54	2818.00
777.72	2953.17
777.90	2654.17
778.07	2654.17
778.25	3096.53
778.43	2879.44
778.60	2514.91
778.78	2707.41
778.96	2977.75
779.13	2568.15
779.31	2736.09
779.49	2668.50
779.66	2709.46
779.84	2719.70
780.01	2637.78
780.19	2592.73
780.37	2928.60
780.54	2779.09
780.72	2564.06
780.90	2709.46
781.07	2648.02
781.25	2658.26
781.43	2758.61
781.60	2615.26
781.78	2875.35
781.95	2820.05
782.13	2568.15
782.31	2617.30
782.48	2445.27
782.66	2723.80
782.83	2850.77
783.01	2719.70
783.19	2891.73
783.36	2676.70
783.54	2529.24
783.72	2672.60
783.89	2643.93
784.07	2766.81
784.24	2762.71
784.42	2871.25
784.60	2713.56
784.77	2752.47
784.95	2478.04
785.12	2537.43
785.30	2639.83
785.47	2572.25
785.65	2531.29
785.83	2600.92
786.00	2654.17
786.18	2742.23
786.35	2598.87
786.53	2527.19
786.71	2846.68
786.88	2729.94
787.06	2707.41
787.23	2654.17
787.41	2562.01
787.58	2672.60
787.76	2576.34
787.94	2670.55
788.11	2768.85
788.29	2547.67
788.46	2633.69
788.64	2461.66
788.81	2664.41
788.99	2592.73
789.16	2514.91
789.34	2660.31
789.52	2670.55
789.69	2617.30
789.87	2465.75
790.04	2566.10
790.22	2793.43
790.39	3030.99
790.57	2467.80
790.74	2562.01
790.92	2934.74
791.09	2553.82
791.27	2674.65
791.44	2815.96
791.62	2693.08
791.79	2826.20
791.97	2750.42
792.15	2987.99
792.32	2775.00
792.50	2748.37
792.67	2799.57
792.85	2850.77
793.02	2713.56
793.20	2637.78
793.37	2531.29
793.55	2584.54
793.72	2510.81
793.90	2791.38
794.07	2633.69
794.25	2615.26
794.42	2824.15
794.60	2668.50
794.77	2668.50
794.95	2736.09
795.12	2856.92
795.30	2754.52
795.47	2437.08
795.65	2949.08
795.82	2736.09
796.00	2602.97
796.17	2650.07
796.34	2504.67
796.52	2725.85
796.69	2879.44
796.87	2768.85
797.04	2740.18
797.22	2822.10
797.39	2775.00
797.57	2760.66
797.74	2645.98
797.92	2719.70
798.09	2650.07
798.27	2811.86
798.44	2572.25
798.62	2635.74
798.79	2721.75
798.96	2678.74
799.14	2633.69
799.31	3053.52
799.49	2580.44
799.66	2643.93
799.84	2740.18
800.01	2521.05
800.19	2777.05
800.36	2465.75
800.53	2738.13
800.71	2801.62
800.88	2944.98
801.06	2613.21
801.23	2605.02
801.41	2768.85
801.58	2668.50
801.75	2598.87
801.93	2688.98
802.10	2807.77
802.28	2590.68
802.45	2629.59
802.63	2654.17
802.80	2940.88
802.97	2658.26
803.15	2713.56
803.32	2668.50
803.50	2625.50
803.67	2592.73
803.84	2598.87
804.02	2654.17
804.19	2645.98
804.37	2406.36
804.54	2531.29
804.71	2559.96
804.89	2723.80
805.06	2570.20
805.24	2549.72
805.41	2447.32
805.58	2529.24
805.76	3051.47
805.93	2703.32
806.10	2807.77
806.28	2836.44
806.45	2719.70
806.63	2838.48
806.80	2697.17
806.97	2826.20
807.15	2789.33
807.32	2666.46
807.49	2666.46
807.67	2488.28
807.84	2736.09
808.01	2441.18
808.19	2818.00
808.36	2969.55
808.54	2693.08
808.71	2660.31
808.88	2609.11
809.06	2846.68
809.23	2928.60
809.40	2625.50
809.58	2680.79
809.75	2818.00
809.92	2629.59
810.10	2875.35
810.27	2645.98
810.44	2766.81
810.62	2822.10
810.79	2686.94
810.96	2670.55
811.14	2635.74
811.31	2791.38
811.48	2775.00
811.66	2746.33
811.83	2908.12
812.00	2744.28
812.18	2676.70
812.35	2918.36
812.52	2684.89
812.69	2586.58
812.87	2566.10
813.04	2658.26
813.21	2725.85
813.39	2555.86
813.56	2449.37
813.73	2820.05
813.91	2523.10
814.08	2738.13
814.25	2670.55
814.42	2559.96
814.60	2594.78
814.77	2629.59
814.94	2682.84
815.12	2742.23
815.29	2938.84
815.46	2580.44
815.63	2688.98
815.81	2723.80
815.98	2645.98
816.15	2670.55
816.33	2652.12
816.50	2705.37
816.67	2670.55
816.84	2664.41
817.02	2566.10
817.19	2713.56
817.36	2707.41
817.53	2807.77
817.71	2480.09
817.88	2691.03
818.05	2645.98
818.22	2693.08
818.40	2910.16
818.57	2609.11
818.74	2674.65
818.91	2707.41
819.09	2818.00
819.26	2711.51
819.43	2557.91
819.60	2605.02
819.78	2738.13
819.95	2756.57
820.12	2594.78
820.29	2869.20
820.47	2824.15
820.64	2594.78
820.81	2596.82
820.98	2613.21
821.15	2652.12
821.33	2713.56
821.50	2471.90
821.67	2852.82
821.84	2539.48
822.02	2719.70
822.19	2822.10
822.36	2654.17
822.53	2652.12
822.70	2445.27
822.88	2629.59
823.05	2889.68
823.22	2682.84
823.39	2738.13
823.56	2695.13
823.74	2904.02
823.91	2484.19
824.08	2482.14
824.25	2523.10
824.42	2959.31
824.60	2529.24
824.77	2709.46
824.94	2654.17
825.11	2668.50
825.28	2469.85
825.45	2691.03
825.63	2643.93
825.80	2625.50
825.97	2666.46
826.14	2750.42
826.31	2459.61
826.48	2678.74
826.66	2619.35
826.83	2578.39
827.00	2654.17
827.17	2551.77
827.34	2670.55
827.51	2578.39
827.69	2695.13
827.86	2525.15
828.03	2645.98
828.20	2639.83
828.37	2637.78
828.54	2750.42
828.71	2666.46
828.89	2820.05
829.06	2772.95
829.23	2932.69
829.40	2494.43
829.57	2617.30
829.74	2746.33
829.91	2613.21
830.09	2516.95
830.26	2725.85
830.43	2908.12
830.60	2564.06
830.77	2818.00
830.94	2828.24
831.11	2875.35
831.28	2717.65
831.46	2756.57
831.63	2609.11
831.80	2834.39
831.97	2607.06
832.14	2656.22
832.31	2688.98
832.48	2766.81
832.65	2875.35
832.82	2754.52
832.99	2772.95
833.17	2570.20
833.34	2928.60
833.51	2678.74
833.68	2469.85
833.85	2879.44
834.02	2645.98
834.19	2516.95
834.36	2623.45
834.53	2734.04
834.70	2867.16
834.87	2711.51
835.04	2504.67
835.22	2541.53
835.39	2633.69
835.56	2506.71
835.73	2453.47
835.90	2883.54
836.07	2625.50
836.24	2688.98
836.41	2588.63
836.58	2682.84
836.75	2787.29
836.92	2600.92
837.09	2572.25
837.26	2818.00
837.43	2772.95
837.60	2650.07
837.77	2568.15
837.94	2850.77
838.12	2891.73
838.29	2562.01
838.46	2447.32
838.63	2580.44
838.80	2828.24
838.97	2637.78
839.14	2494.43
839.31	2693.08
839.48	2861.01
839.65	2523.10
839.82	2707.41
839.99	2791.38
840.16	2639.83
840.33	2514.91
840.50	2598.87
840.67	2639.83
840.84	2449.37
841.01	2580.44
841.18	2519.00
841.35	2660.31
841.52	2901.97
841.69	2797.53
841.86	2639.83
842.03	2764.76
842.20	2731.99
842.37	2553.82
842.54	2549.72
842.71	2703.32
842.88	2490.33
843.05	2580.44
843.22	2572.25
843.39	2731.99
843.56	2613.21
843.73	2527.19
843.90	2609.11
844.07	2764.76
844.24	2824.15
844.41	2613.21
844.58	2566.10
844.75	2703.32
844.92	2674.65
845.09	2590.68
845.26	2525.15
845.43	2783.19
845.60	2699.22
845.77	2686.94
845.94	2543.58
846.10	2838.48
846.27	2420.70
846.44	2506.71
846.61	2398.17
846.78	2854.87
846.95	2832.34
847.12	2521.05
847.29	2613.21
847.46	2564.06
847.63	2811.86
847.80	2500.57
847.97	2553.82
848.14	2996.18
848.31	2684.89
848.48	2484.19
848.65	2688.98
848.82	2572.25
848.98	3076.05
849.15	2670.55
849.32	2635.74
849.49	2779.09
849.66	2641.88
849.83	2574.30
850.00	2482.14
850.17	2787.29
850.34	2727.89
850.51	2506.71
850.68	2627.54
850.85	3063.76
851.01	2785.24
851.18	2588.63
851.35	2674.65
851.52	2762.71
851.69	2961.36
851.86	2496.47
852.03	2549.72
852.20	2758.61
852.37	2686.94
852.53	2439.13
852.70	2596.82
852.87	2744.28
853.04	2815.96
853.21	2566.10
853.38	2719.70
853.55	2846.68
853.72	2951.12
853.89	2432.99
854.05	2549.72
854.22	2670.55
854.39	2785.24
854.56	2557.91
854.73	2793.43
854.90	2576.34
855.07	2643.93
855.23	2449.37
855.40	2506.71
855.57	2717.65
855.74	2449.37
855.91	2789.33
856.08	2400.22
856.25	2547.67
856.41	2621.40
856.58	2537.43
856.75	2611.16
856.92	2580.44
857.09	2756.57
857.26	2449.37
857.42	2588.63
857.59	2840.53
857.76	2678.74
857.93	2637.78
858.10	2586.58
858.27	2523.10
858.43	2727.89
858.60	2439.13
858.77	2385.88
858.94	2574.30
859.11	2803.67
859.27	2570.20
859.44	2498.52
859.61	2994.13
859.78	2766.81
859.95	2504.67
860.12	2469.85
860.28	3039.19
860.45	2953.17
860.62	2533.34
860.79	2633.69
860.95	2658.26
861.12	2713.56
861.29	2461.66
861.46	2516.95
861.63	2693.08
861.79	2684.89
861.96	2404.32
862.13	2508.76
862.30	2918.36
862.47	2619.35
862.63	2523.10
862.80	2717.65
862.97	2838.48
863.14	2764.76
863.30	2553.82
863.47	2523.10
863.64	2922.45
863.81	2779.09
863.97	2457.56
864.14	2600.92
864.31	2672.60
864.48	2674.65
864.65	2555.86
864.81	2701.27
864.98	2805.72
865.15	2828.24
865.32	2670.55
865.48	2703.32
865.65	2891.73
865.82	2578.39
865.98	2559.96
866.15	2662.36
866.32	2605.02
866.49	2744.28
866.65	2666.46
866.82	2541.53
866.99	2731.99
867.16	2654.17
867.32	2592.73
867.49	2545.63
867.66	2666.46
867.83	2615.26
867.99	2469.85
868.16	2555.86
868.33	2471.90
868.49	2678.74
868.66	2592.73
868.83	2578.39
868.99	2734.04
869.16	2709.46
869.33	2678.74
869.50	2615.26
869.66	2783.19
869.83	2699.22
870.00	2392.03
870.16	2705.37
870.33	2645.98
870.50	2752.47
870.66	2668.50
870.83	2643.93
871.00	2691.03
871.17	2803.67
871.33	2613.21
871.50	2529.24
871.67	2680.79
871.83	2463.71
872.00	2627.54
872.17	2592.73
872.33	2932.69
872.50	2908.12
872.67	2525.15
872.83	2562.01
873.00	2777.05
873.17	2719.70
873.33	2652.12
873.50	2619.35
873.67	2576.34
873.83	2613.21
874.00	2566.10
874.16	2830.29
874.33	2752.47
874.50	2539.48
874.66	2523.10
874.83	2609.11
875.00	2865.11
875.16	2826.20
875.33	2656.22
875.50	2349.02
875.66	2643.93
875.83	2709.46
875.99	2592.73
876.16	2627.54
876.33	2580.44
876.49	2662.36
876.66	2674.65
876.83	2609.11
876.99	2545.63
877.16	2695.13
877.32	2461.66
877.49	2564.06
877.66	2748.37
877.82	2879.44
877.99	2533.34
878.15	2760.66
878.32	2809.81
878.49	2736.09
878.65	2602.97
878.82	2777.05
878.98	2639.83
879.15	2809.81
879.32	2709.46
879.48	2672.60
879.65	2703.32
879.81	2715.61
879.98	2572.25
880.15	2541.53
880.31	2768.85
880.48	2621.40
880.64	2686.94
880.81	2629.59
880.97	2920.40
881.14	2912.21
881.31	2439.13
881.47	2742.23
881.64	2654.17
881.80	2506.71
881.97	2729.94
882.13	2641.88
882.30	2531.29
882.47	2576.34
882.63	2510.81
882.80	2521.05
882.96	2621.40
883.13	2871.25
883.29	2592.73
883.46	2598.87
883.62	3002.32
883.79	2736.09
883.95	2736.09
884.12	2516.95
884.29	2863.06
884.45	2764.76
884.62	2625.50
884.78	2469.85
884.95	2949.08
885.11	2645.98
885.28	2693.08
885.44	2578.39
885.61	2783.19
885.77	2873.30
885.94	2586.58
886.10	2619.35
886.27	2783.19
886.43	2969.55
886.60	2766.81
886.76	2553.82
886.93	2611.16
887.09	2748.37
887.26	2430.94
887.42	2521.05
887.59	2791.38
887.75	3037.14
887.92	2648.02
888.08	2713.56
888.25	3063.76
888.41	2836.44
888.58	2641.88
888.74	2525.15
888.91	2637.78
>>>>>End Processed Spectral Data<<<<<
