SpectraSuite Data File
++++++++++++++++++++++++++++++++++++
Date: Thu May 05 16:20:25 CEST 2016
User: root
Dark Spectrum Present: No
Reference Spectrum Present: No
Number of Sampled Component Spectra: 1
Spectrometers: USB4C02835
Integration Time (usec): 100000 (USB4C02835)
Spectra Averaged: 1 (USB4C02835)
Boxcar Smoothing: 0 (USB4C02835)
Correct for Electrical Dark: No (USB4C02835)
Strobe/Lamp Enabled: No (USB4C02835)
Correct for Detector Non-linearity: No (USB4C02835)
Correct for Stray Light: No (USB4C02835)
Number of Pixels in Processed Spectrum: 3648
>>>>>Begin Processed Spectral Data<<<<<
177.47	2037.73
177.69	2037.73
177.91	2037.73
178.13	1998.82
178.36	2019.30
178.58	2559.96
178.80	2701.27
179.02	2506.71
179.24	2551.77
179.46	2457.56
179.68	2588.63
179.90	2666.46
180.13	2676.70
180.35	2457.56
180.57	2465.75
180.79	2809.81
181.01	2762.71
181.23	2602.97
181.45	2674.65
181.67	2918.36
181.90	2840.53
182.12	2559.96
182.34	2357.21
182.56	2807.77
182.78	2861.01
183.00	2490.33
183.22	2475.99
183.44	2430.94
183.66	3147.73
183.89	2654.17
184.11	2535.39
184.33	2824.15
184.55	2822.10
184.77	2465.75
184.99	2557.91
185.21	2633.69
185.43	3098.58
185.65	2488.28
185.87	2519.00
186.10	3018.71
186.32	3061.71
186.54	2549.72
186.76	2535.39
186.98	2881.49
187.20	2658.26
187.42	2490.33
187.64	2529.24
187.86	2809.81
188.08	2940.88
188.30	2471.90
188.52	2559.96
188.75	2867.16
188.97	2910.16
189.19	2527.19
189.41	2484.19
189.63	2746.33
189.85	2635.74
190.07	2338.78
190.29	2351.07
190.51	2777.05
190.73	2588.63
190.95	2645.98
191.17	2566.10
191.39	2451.42
191.61	2701.27
191.84	2502.62
192.06	2633.69
192.28	2512.86
192.50	3194.83
192.72	2617.30
192.94	2555.86
193.16	2813.91
193.38	2760.66
193.60	2488.28
193.82	2539.48
194.04	2977.75
194.26	2830.29
194.48	2574.30
194.70	2461.66
194.92	2633.69
195.14	2807.77
195.36	2496.47
195.58	2578.39
195.80	2772.95
196.02	2590.68
196.24	2449.37
196.46	2619.35
196.69	2623.45
196.91	3037.14
197.13	2594.78
197.35	2510.81
197.57	2949.08
197.79	2775.00
198.01	2580.44
198.23	2551.77
198.45	2858.96
198.67	2572.25
198.89	2478.04
199.11	2629.59
199.33	2562.01
199.55	2428.89
199.77	2424.80
199.99	2592.73
200.21	2621.40
200.43	2793.43
200.65	2392.03
200.87	2312.16
201.09	2684.89
201.31	2697.17
201.53	2611.16
201.75	2578.39
201.97	2715.61
202.19	2631.64
202.41	2527.19
202.63	2721.75
202.85	2736.09
203.07	2783.19
203.29	2521.05
203.51	2443.23
203.73	2574.30
203.95	3045.33
204.17	2555.86
204.39	2527.19
204.61	2697.17
204.83	2635.74
205.05	2588.63
205.27	2510.81
205.49	3076.05
205.71	2734.04
205.93	2416.60
206.15	2416.60
206.37	2797.53
206.59	2668.50
206.81	2326.49
207.03	2504.67
207.25	2645.98
207.47	2793.43
207.69	2578.39
207.91	2742.23
208.13	2897.88
208.34	2682.84
208.56	2449.37
208.78	2519.00
209.00	2623.45
209.22	2633.69
209.44	2494.43
209.66	2443.23
209.88	2725.85
210.10	2686.94
210.32	2478.04
210.54	2621.40
210.76	2754.52
210.98	2858.96
211.20	2346.97
211.42	2582.49
211.64	2885.59
211.86	2803.67
212.08	2566.10
212.30	2484.19
212.52	2588.63
212.74	2858.96
212.96	2553.82
213.17	2586.58
213.39	2791.38
213.61	2957.27
213.83	2531.29
214.05	2416.60
214.27	2916.31
214.49	2668.50
214.71	2471.90
214.93	2666.46
215.15	2729.94
215.37	2850.77
215.59	2402.27
215.81	2588.63
216.03	2856.92
216.24	2672.60
216.46	2541.53
216.68	2557.91
216.90	2850.77
217.12	2805.72
217.34	2514.91
217.56	2621.40
217.78	2947.03
218.00	2750.42
218.22	2629.59
218.44	2631.64
218.66	2791.38
218.87	3090.38
219.09	2467.80
219.31	2547.67
219.53	2779.09
219.75	2705.37
219.97	2549.72
220.19	2519.00
220.41	2670.55
220.63	2901.97
220.85	2529.24
221.06	2535.39
221.28	2846.68
221.50	2748.37
221.72	2527.19
221.94	2418.65
222.16	2789.33
222.38	2813.91
222.60	2572.25
222.82	2527.19
223.03	2789.33
223.25	2547.67
223.47	2516.95
223.69	2711.51
223.91	2854.87
224.13	2731.99
224.35	2430.94
224.57	2711.51
224.78	2881.49
225.00	2564.06
225.22	2555.86
225.44	2500.57
225.66	2863.06
225.88	2617.30
226.10	2645.98
226.32	2465.75
226.53	2916.31
226.75	2617.30
226.97	2580.44
227.19	2480.09
227.41	2703.32
227.63	2623.45
227.85	2369.50
228.06	2463.71
228.28	2750.42
228.50	2867.16
228.72	2365.40
228.94	2490.33
229.16	2437.08
229.37	2516.95
229.59	2490.33
229.81	2598.87
230.03	2611.16
230.25	2551.77
230.47	2459.61
230.69	2426.84
230.90	2871.25
231.12	2572.25
231.34	2633.69
231.56	2631.64
231.78	2547.67
232.00	2654.17
232.21	2502.62
232.43	2482.14
232.65	2355.16
232.87	2791.38
233.09	2430.94
233.30	2457.56
233.52	2832.34
233.74	2654.17
233.96	2439.13
234.18	2623.45
234.40	2656.22
234.61	2992.08
234.83	2449.37
235.05	2377.69
235.27	3174.35
235.49	2910.16
235.70	2480.09
235.92	2584.54
236.14	2785.24
236.36	3069.91
236.58	2408.41
236.79	2617.30
237.01	2668.50
237.23	2731.99
237.45	2672.60
237.67	2541.53
237.88	2770.90
238.10	3002.32
238.32	2416.60
238.54	2500.57
238.76	2731.99
238.97	2594.78
239.19	2369.50
239.41	2629.59
239.63	2858.96
239.85	2648.02
240.06	2547.67
240.28	2488.28
240.50	2828.24
240.72	2672.60
240.93	2432.99
241.15	2637.78
241.37	2727.89
241.59	2830.29
241.81	2478.04
242.02	2564.06
242.24	2832.34
242.46	2881.49
242.68	2387.93
242.89	2449.37
243.11	2858.96
243.33	2787.29
243.55	2537.43
243.76	2568.15
243.98	2539.48
244.20	2705.37
244.42	2521.05
244.64	2529.24
244.85	2613.21
245.07	2641.88
245.29	2551.77
245.51	2588.63
245.72	2754.52
245.94	3039.19
246.16	2514.91
246.38	2613.21
246.59	2613.21
246.81	2600.92
247.03	2496.47
247.24	2420.70
247.46	2678.74
247.68	2734.04
247.90	2502.62
248.11	2471.90
248.33	2791.38
248.55	2697.17
248.77	2568.15
248.98	2586.58
249.20	2990.03
249.42	2721.75
249.64	2543.58
249.85	2451.42
250.07	2656.22
250.29	2813.91
250.50	2598.87
250.72	2435.03
250.94	2684.89
251.16	3135.44
251.37	2545.63
251.59	2600.92
251.81	2826.20
252.02	2961.36
252.24	2482.14
252.46	2617.30
252.68	2664.41
252.89	2727.89
253.11	2463.71
253.33	2615.26
253.54	2871.25
253.76	2527.19
253.98	2455.51
254.20	2588.63
254.41	2506.71
254.63	2744.28
254.85	2400.22
255.06	2611.16
255.28	2754.52
255.50	2744.28
255.71	2486.23
255.93	2359.26
256.15	2758.61
256.36	2828.24
256.58	2406.36
256.80	2430.94
257.02	2635.74
257.23	2629.59
257.45	2572.25
257.67	2613.21
257.88	2596.82
258.10	2815.96
258.32	2465.75
258.53	2576.34
258.75	2965.46
258.97	2670.55
259.18	2396.12
259.40	2527.19
259.62	3002.32
259.83	2885.59
260.05	2568.15
260.27	3166.16
260.48	2858.96
260.70	2660.31
260.92	2486.23
261.13	2469.85
261.35	2717.65
261.57	2789.33
261.78	2410.46
262.00	2424.80
262.22	2822.10
262.43	2619.35
262.65	2531.29
262.86	2506.71
263.08	3100.62
263.30	2723.80
263.51	2367.45
263.73	2486.23
263.95	2920.40
264.16	2572.25
264.38	2445.27
264.60	2439.13
264.81	2691.03
265.03	2789.33
265.25	2867.16
265.46	2523.10
265.68	2891.73
265.89	2881.49
266.11	2349.02
266.33	2510.81
266.54	2928.60
266.76	2783.19
266.98	2543.58
267.19	2645.98
267.41	2799.57
267.62	2725.85
267.84	2424.80
268.06	2623.45
268.27	2768.85
268.49	2932.69
268.70	2537.43
268.92	2564.06
269.14	2602.97
269.35	2559.96
269.57	2602.97
269.79	2609.11
270.00	2605.02
270.22	2936.79
270.43	2396.12
270.65	2355.16
270.87	2781.14
271.08	2848.72
271.30	2529.24
271.51	2514.91
271.73	2813.91
271.95	2910.16
272.16	2424.80
272.38	2652.12
272.59	2699.22
272.81	2832.34
273.02	2490.33
273.24	2607.06
273.46	2891.73
273.67	2564.06
273.89	2437.08
274.10	2467.80
274.32	2932.69
274.54	2750.42
274.75	2594.78
274.97	2596.82
275.18	2832.34
275.40	2736.09
275.61	2564.06
275.83	2666.46
276.05	2611.16
276.26	2691.03
276.48	2678.74
276.69	2619.35
276.91	2621.40
277.12	2938.84
277.34	2717.65
277.55	2707.41
277.77	2768.85
277.99	2621.40
278.20	2582.49
278.42	2453.47
278.63	2613.21
278.85	2551.77
279.06	2519.00
279.28	2668.50
279.49	2850.77
279.71	2795.48
279.93	2660.31
280.14	2643.93
280.36	2582.49
280.57	2793.43
280.79	2725.85
281.00	2539.48
281.22	2580.44
281.43	2887.64
281.65	2351.07
281.86	2496.47
282.08	2748.37
282.29	2969.55
282.51	2566.10
282.73	2494.43
282.94	2580.44
283.16	2789.33
283.37	2775.00
283.59	2629.59
283.80	2752.47
284.02	2744.28
284.23	2662.36
284.45	2572.25
284.66	2660.31
284.88	2598.87
285.09	2570.20
285.31	2660.31
285.52	2809.81
285.74	2488.28
285.95	2695.13
286.17	2684.89
286.38	2875.35
286.60	2660.31
286.81	2621.40
287.03	2514.91
287.24	2715.61
287.46	2758.61
287.67	2656.22
287.89	2793.43
288.10	2748.37
288.32	2740.18
288.53	2752.47
288.75	2570.20
288.96	2877.40
289.18	2699.22
289.39	2594.78
289.61	2645.98
289.82	3096.53
290.04	2981.84
290.25	2478.04
290.47	2613.21
290.68	2693.08
290.90	2822.10
291.11	2404.32
291.33	2711.51
291.54	2633.69
291.76	2641.88
291.97	2697.17
292.18	2629.59
292.40	2654.17
292.61	2613.21
292.83	2791.38
293.04	2713.56
293.26	2723.80
293.47	2672.60
293.69	2588.63
293.90	2523.10
294.12	2940.88
294.33	2678.74
294.55	2639.83
294.76	2736.09
294.97	2985.94
295.19	3020.75
295.40	2678.74
295.62	2605.02
295.83	2766.81
296.05	2533.34
296.26	2815.96
296.48	2559.96
296.69	2717.65
296.90	2744.28
297.12	2746.33
297.33	2818.00
297.55	2731.99
297.76	2904.02
297.98	2656.22
298.19	2779.09
298.41	2627.54
298.62	2611.16
298.83	2734.04
299.05	2654.17
299.26	2660.31
299.48	2582.49
299.69	2699.22
299.90	2625.50
300.12	2570.20
300.33	2912.21
300.55	2678.74
300.76	2652.12
300.98	2611.16
301.19	2801.62
301.40	2645.98
301.62	2467.80
301.83	2785.24
302.05	2734.04
302.26	2645.98
302.47	2652.12
302.69	2482.14
302.90	2805.72
303.12	2457.56
303.33	2750.42
303.54	2963.41
303.76	2682.84
303.97	2637.78
304.19	2854.87
304.40	2588.63
304.61	2758.61
304.83	2746.33
305.04	2727.89
305.26	2742.23
305.47	2701.27
305.68	2586.58
305.90	2555.86
306.11	2924.50
306.33	2693.08
306.54	2500.57
306.75	2584.54
306.97	2475.99
307.18	2662.36
307.39	2633.69
307.61	2672.60
307.82	2652.12
308.04	2803.67
308.25	2547.67
308.46	2656.22
308.68	2736.09
308.89	2703.32
309.10	2725.85
309.32	2680.79
309.53	2715.61
309.74	2766.81
309.96	2557.91
310.17	2793.43
310.39	2656.22
310.60	2781.14
310.81	2713.56
311.03	2525.15
311.24	2918.36
311.45	2703.32
311.67	2803.67
311.88	2670.55
312.09	2611.16
312.31	2686.94
312.52	2519.00
312.73	2570.20
312.95	2584.54
313.16	2578.39
313.37	2645.98
313.59	2746.33
313.80	2736.09
314.01	2953.17
314.23	2562.01
314.44	2584.54
314.65	2551.77
314.87	2654.17
315.08	2519.00
315.29	2660.31
315.51	2527.19
315.72	2480.09
315.93	2715.61
316.15	2648.02
316.36	2717.65
316.57	2625.50
316.79	2660.31
317.00	2570.20
317.21	2922.45
317.43	2695.13
317.64	2637.78
317.85	2611.16
318.07	2562.01
318.28	2701.27
318.49	2736.09
318.70	2840.53
318.92	2842.58
319.13	2754.52
319.34	2766.81
319.56	2678.74
319.77	2783.19
319.98	2791.38
320.20	2760.66
320.41	2770.90
320.62	2848.72
320.83	2568.15
321.05	2805.72
321.26	2660.31
321.47	2723.80
321.69	2875.35
321.90	2531.29
322.11	2576.34
322.32	2750.42
322.54	2899.92
322.75	2672.60
322.96	3203.02
323.18	2490.33
323.39	2375.64
323.60	2543.58
323.81	2605.02
324.03	2609.11
324.24	2740.18
324.45	2619.35
324.66	2533.34
324.88	2856.92
325.09	2953.17
325.30	2588.63
325.52	2594.78
325.73	2752.47
325.94	2584.54
326.15	2498.52
326.37	2543.58
326.58	2797.53
326.79	3008.47
327.00	2500.57
327.22	2555.86
327.43	2594.78
327.64	2551.77
327.85	2748.37
328.07	2717.65
328.28	3041.23
328.49	2615.26
328.70	2586.58
328.92	2600.92
329.13	2686.94
329.34	2701.27
329.55	2828.24
329.76	2797.53
329.98	2736.09
330.19	2832.34
330.40	2703.32
330.61	2641.88
330.83	2762.71
331.04	2582.49
331.25	2676.70
331.46	2574.30
331.68	2598.87
331.89	2897.88
332.10	2555.86
332.31	2443.23
332.52	2707.41
332.74	2912.21
332.95	2469.85
333.16	2623.45
333.37	2865.11
333.58	2703.32
333.80	2598.87
334.01	2389.98
334.22	2699.22
334.43	2611.16
334.64	2633.69
334.86	2490.33
335.07	2555.86
335.28	2944.98
335.49	2484.19
335.70	2660.31
335.92	2879.44
336.13	2975.70
336.34	2676.70
336.55	2658.26
336.76	2760.66
336.98	2471.90
337.19	2652.12
337.40	2787.29
337.61	3096.53
337.82	2596.82
338.04	2674.65
338.25	2463.71
338.46	2711.51
338.67	2707.41
338.88	2500.57
339.09	2543.58
339.31	2742.23
339.52	2543.58
339.73	2555.86
339.94	2641.88
340.15	2869.20
340.36	2721.75
340.58	2672.60
340.79	2559.96
341.00	2756.57
341.21	2441.18
341.42	2858.96
341.63	2580.44
341.85	2807.77
342.06	2684.89
342.27	2525.15
342.48	2715.61
342.69	2523.10
342.90	2744.28
343.12	2944.98
343.33	2621.40
343.54	2815.96
343.75	2879.44
343.96	2631.64
344.17	2531.29
344.38	2645.98
344.60	2541.53
344.81	2492.38
345.02	2629.59
345.23	2904.02
345.44	3166.16
345.65	2723.80
345.86	2662.36
346.07	2742.23
346.29	2588.63
346.50	2684.89
346.71	2723.80
346.92	2891.73
347.13	2959.31
347.34	2619.35
347.55	2510.81
347.76	2799.57
347.98	2516.95
348.19	2645.98
348.40	2758.61
348.61	2703.32
348.82	2981.84
349.03	2785.24
349.24	2496.47
349.45	3067.86
349.66	2432.99
349.88	2605.02
350.09	2531.29
350.30	2883.54
350.51	2867.16
350.72	2662.36
350.93	2637.78
351.14	2654.17
351.35	2746.33
351.56	2641.88
351.77	2654.17
351.99	2795.48
352.20	2975.70
352.41	2709.46
352.62	2475.99
352.83	2815.96
353.04	2740.18
353.25	2580.44
353.46	2627.54
353.67	2840.53
353.88	2371.55
354.09	2568.15
354.30	2684.89
354.52	2858.96
354.73	2691.03
354.94	2594.78
355.15	2619.35
355.36	2969.55
355.57	2654.17
355.78	2580.44
355.99	2656.22
356.20	2734.04
356.41	2838.48
356.62	2688.98
356.83	2572.25
357.04	2869.20
357.25	2420.70
357.46	2617.30
357.68	2500.57
357.89	2596.82
358.10	2785.24
358.31	2629.59
358.52	2555.86
358.73	2609.11
358.94	2529.24
359.15	2662.36
359.36	2656.22
359.57	2775.00
359.78	2717.65
359.99	2750.42
360.20	2537.43
360.41	2748.37
360.62	2840.53
360.83	2643.93
361.04	2729.94
361.25	2832.34
361.46	2951.12
361.67	2652.12
361.88	2688.98
362.09	2883.54
362.30	2775.00
362.51	2545.63
362.72	2568.15
362.93	2815.96
363.14	2842.58
363.35	2619.35
363.56	2549.72
363.78	2899.92
363.99	2867.16
364.20	2572.25
364.41	2662.36
364.62	2930.64
364.83	2791.38
365.04	2613.21
365.25	2596.82
365.46	3078.10
365.67	2541.53
365.88	2746.33
366.09	2709.46
366.30	2641.88
366.51	2723.80
366.72	2549.72
366.93	2590.68
367.14	2701.27
367.35	2944.98
367.56	2611.16
367.77	2791.38
367.98	2717.65
368.18	2795.48
368.39	2678.74
368.60	2506.71
368.81	2820.05
369.02	2754.52
369.23	2580.44
369.44	2465.75
369.65	2695.13
369.86	2772.95
370.07	2709.46
370.28	2535.39
370.49	2844.63
370.70	2820.05
370.91	2459.61
371.12	2432.99
371.33	2856.92
371.54	2627.54
371.75	2760.66
371.96	2396.12
372.17	2723.80
372.38	2664.41
372.59	2623.45
372.80	2611.16
373.01	2746.33
373.22	2803.67
373.43	2701.27
373.64	2543.58
373.85	2875.35
374.06	2998.23
374.26	2824.15
374.47	2695.13
374.68	2992.08
374.89	2760.66
375.10	2664.41
375.31	2648.02
375.52	2678.74
375.73	2744.28
375.94	2506.71
376.15	2742.23
376.36	2578.39
376.57	2678.74
376.78	2529.24
376.99	2707.41
377.20	2924.50
377.40	2789.33
377.61	2822.10
377.82	2562.01
378.03	2848.72
378.24	2758.61
378.45	2598.87
378.66	2609.11
378.87	2521.05
379.08	2570.20
379.29	2576.34
379.50	2762.71
379.71	2668.50
379.91	2750.42
380.12	2652.12
380.33	2701.27
380.54	2695.13
380.75	2652.12
380.96	2633.69
381.17	2664.41
381.38	2824.15
381.59	2775.00
381.80	2645.98
382.00	2799.57
382.21	2731.99
382.42	2973.65
382.63	2947.03
382.84	2758.61
383.05	2832.34
383.26	2893.78
383.47	2795.48
383.68	2557.91
383.88	2838.48
384.09	2686.94
384.30	2895.83
384.51	2715.61
384.72	2672.60
384.93	2512.86
385.14	2664.41
385.35	2803.67
385.55	2551.77
385.76	2895.83
385.97	2570.20
386.18	2435.03
386.39	2621.40
386.60	2674.65
386.81	2551.77
387.02	2471.90
387.22	2580.44
387.43	2809.81
387.64	2764.76
387.85	2801.62
388.06	2856.92
388.27	3899.33
388.48	7397.26
388.68	10833.75
388.89	13403.96
389.10	14288.68
389.31	13700.91
389.52	10925.91
389.73	9391.98
389.93	8640.38
390.14	7884.68
390.35	6883.22
390.56	6369.18
390.77	5222.32
390.98	4118.47
391.18	3424.20
391.39	3112.91
391.60	2836.44
391.81	2795.48
392.02	2574.30
392.23	3078.10
392.43	2844.63
392.64	2772.95
392.85	2656.22
393.06	2906.07
393.27	2680.79
393.47	2607.06
393.68	2725.85
393.89	2695.13
394.10	2906.07
394.31	2574.30
394.52	2482.14
394.72	2621.40
394.93	2951.12
395.14	2592.73
395.35	2693.08
395.56	2588.63
395.76	2719.70
395.97	2709.46
396.18	2686.94
396.39	2805.72
396.60	3274.70
396.80	2920.40
397.01	2783.19
397.22	2885.59
397.43	2861.01
397.64	2609.11
397.84	2742.23
398.05	3096.53
398.26	2764.76
398.47	2731.99
398.67	2764.76
398.88	2711.51
399.09	2842.58
399.30	2592.73
399.51	2713.56
399.71	2672.60
399.92	2627.54
400.13	2723.80
400.34	2557.91
400.54	2756.57
400.75	2959.31
400.96	2660.31
401.17	2965.46
401.37	2797.53
401.58	2717.65
401.79	2674.65
402.00	2727.89
402.21	3145.68
402.41	2887.64
402.62	2914.26
402.83	3028.95
403.04	3041.23
403.24	3350.48
403.45	2715.61
403.66	2916.31
403.87	2887.64
404.07	2973.65
404.28	2955.22
404.49	2883.54
404.70	2838.48
404.90	2842.58
405.11	2617.30
405.32	2682.84
405.52	2631.64
405.73	2648.02
405.94	2527.19
406.15	2654.17
406.35	2791.38
406.56	2766.81
406.77	2725.85
406.98	2619.35
407.18	2584.54
407.39	2961.36
407.60	2629.59
407.80	2744.28
408.01	2637.78
408.22	2760.66
408.43	2529.24
408.63	2809.81
408.84	2897.88
409.05	2820.05
409.25	2533.34
409.46	2547.67
409.67	2658.26
409.88	2586.58
410.08	2639.83
410.29	2680.79
410.50	2791.38
410.70	2721.75
410.91	2559.96
411.12	2723.80
411.32	2688.98
411.53	2598.87
411.74	2590.68
411.95	2822.10
412.15	2883.54
412.36	2768.85
412.57	2738.13
412.77	2811.86
412.98	2795.48
413.19	2680.79
413.39	2699.22
413.60	2691.03
413.81	2977.75
414.01	2598.87
414.22	2701.27
414.43	2729.94
414.63	2643.93
414.84	2850.77
415.05	2621.40
415.25	2471.90
415.46	2887.64
415.67	2637.78
415.87	2691.03
416.08	2621.40
416.29	2627.54
416.49	2830.29
416.70	2684.89
416.91	2668.50
417.11	2695.13
417.32	2783.19
417.53	2693.08
417.73	2715.61
417.94	2807.77
418.15	2746.33
418.35	2729.94
418.56	2607.06
418.77	3053.52
418.97	2641.88
419.18	2678.74
419.38	2389.98
419.59	2721.75
419.80	2865.11
420.00	2596.82
420.21	2615.26
420.42	2891.73
420.62	2822.10
420.83	2609.11
421.04	2662.36
421.24	2686.94
421.45	2865.11
421.65	2680.79
421.86	2629.59
422.07	2918.36
422.27	2731.99
422.48	2617.30
422.69	2469.85
422.89	2662.36
423.10	2686.94
423.30	2475.99
423.51	2721.75
423.72	2785.24
423.92	2779.09
424.13	2498.52
424.33	2719.70
424.54	2854.87
424.75	2729.94
424.95	2858.96
425.16	2658.26
425.36	2633.69
425.57	2904.02
425.78	2842.58
425.98	2777.05
426.19	2652.12
426.39	2527.19
426.60	2723.80
426.81	2744.28
427.01	2766.81
427.22	2510.81
427.42	2469.85
427.63	2596.82
427.83	2850.77
428.04	2975.70
428.25	2719.70
428.45	2709.46
428.66	2854.87
428.86	2645.98
429.07	2660.31
429.28	2686.94
429.48	2744.28
429.69	2564.06
429.89	2664.41
430.10	2559.96
430.30	2805.72
430.51	2895.83
430.71	2553.82
430.92	2641.88
431.13	2629.59
431.33	2762.71
431.54	2723.80
431.74	2944.98
431.95	2959.31
432.15	2580.44
432.36	2662.36
432.56	2711.51
432.77	3016.66
432.98	3016.66
433.18	2719.70
433.39	2600.92
433.59	2592.73
433.80	3100.62
434.00	2879.44
434.21	2543.58
434.41	2648.02
434.62	3043.28
434.82	2512.86
435.03	2557.91
435.23	2858.96
435.44	2510.81
435.64	2621.40
435.85	2734.04
436.06	2842.58
436.26	2875.35
436.47	2676.70
436.67	2666.46
436.88	2691.03
437.08	2871.25
437.29	2725.85
437.49	2678.74
437.70	2852.82
437.90	2711.51
438.11	2828.24
438.31	2777.05
438.52	2924.50
438.72	2844.63
438.93	2996.18
439.13	2828.24
439.34	2938.84
439.54	2717.65
439.75	2756.57
439.95	2793.43
440.16	2613.21
440.36	2736.09
440.57	2658.26
440.77	2609.11
440.98	2682.84
441.18	2775.00
441.39	2568.15
441.59	2617.30
441.80	3018.71
442.00	2707.41
442.21	2777.05
442.41	2506.71
442.62	2867.16
442.82	2592.73
443.02	2715.61
443.23	2631.64
443.43	2588.63
443.64	2938.84
443.84	2584.54
444.05	2766.81
444.25	2768.85
444.46	2717.65
444.66	2648.02
444.87	2858.96
445.07	2607.06
445.28	2645.98
445.48	2807.77
445.69	2721.75
445.89	3114.96
446.09	2719.70
446.30	2940.88
446.50	3059.67
446.71	4569.02
446.91	5560.24
447.12	6365.09
447.32	6743.96
447.53	6541.21
447.73	5431.21
447.93	4779.96
448.14	4546.49
448.34	4583.35
448.55	3827.65
448.75	3874.76
448.96	3702.73
449.16	3342.28
449.36	3311.57
449.57	2899.92
449.77	2740.18
449.98	2676.70
450.18	2826.20
450.39	2680.79
450.59	2789.33
450.79	2762.71
451.00	2648.02
451.20	2854.87
451.41	2623.45
451.61	2787.29
451.81	2713.56
452.02	2613.21
452.22	2670.55
452.43	2682.84
452.63	2645.98
452.84	2682.84
453.04	2562.01
453.24	2756.57
453.45	2633.69
453.65	2652.12
453.86	2746.33
454.06	2684.89
454.26	2826.20
454.47	2654.17
454.67	2822.10
454.87	2815.96
455.08	2723.80
455.28	2834.39
455.49	2695.13
455.69	2627.54
455.89	3053.52
456.10	2799.57
456.30	2629.59
456.51	2797.53
456.71	2762.71
456.91	2752.47
457.12	2625.50
457.32	2813.91
457.52	2553.82
457.73	2766.81
457.93	2789.33
458.14	2625.50
458.34	2543.58
458.54	2596.82
458.75	2645.98
458.95	2891.73
459.15	2793.43
459.36	2744.28
459.56	2650.07
459.76	3000.27
459.97	2791.38
460.17	2586.58
460.37	2775.00
460.58	2695.13
460.78	2715.61
460.99	2559.96
461.19	2656.22
461.39	2656.22
461.60	2666.46
461.80	2723.80
462.00	2437.08
462.21	2680.79
462.41	2609.11
462.61	2514.91
462.82	2519.00
463.02	2842.58
463.22	2762.71
463.43	2752.47
463.63	2645.98
463.83	2873.30
464.04	2760.66
464.24	2682.84
464.44	2600.92
464.64	2750.42
464.85	2836.44
465.05	2691.03
465.25	2641.88
465.46	2621.40
465.66	2828.24
465.86	2674.65
466.07	2680.79
466.27	2748.37
466.47	2531.29
466.68	2500.57
466.88	2846.68
467.08	2758.61
467.29	2873.30
467.49	2740.18
467.69	2699.22
467.89	2752.47
468.10	2727.89
468.30	2695.13
468.50	2760.66
468.71	2940.88
468.91	2494.43
469.11	2836.44
469.31	2725.85
469.52	2607.06
469.72	2930.64
469.92	2920.40
470.13	2654.17
470.33	2795.48
470.53	2775.00
470.73	3033.04
470.94	3295.18
471.14	3444.68
471.34	3803.08
471.54	3708.87
471.75	3362.76
471.95	3119.06
472.15	3084.24
472.36	3170.26
472.56	3006.42
472.76	3145.68
472.96	3078.10
473.17	2912.21
473.37	2781.14
473.57	2727.89
473.77	2789.33
473.98	2738.13
474.18	2578.39
474.38	3235.79
474.58	2678.74
474.79	2617.30
474.99	2809.81
475.19	2897.88
475.39	2588.63
475.60	2699.22
475.80	2701.27
476.00	2813.91
476.20	2709.46
476.41	2744.28
476.61	2785.24
476.81	2967.51
477.01	2629.59
477.21	2830.29
477.42	2772.95
477.62	2580.44
477.82	2848.72
478.02	2592.73
478.23	2686.94
478.43	2662.36
478.63	2701.27
478.83	2670.55
479.03	2664.41
479.24	2916.31
479.44	3010.51
479.64	2568.15
479.84	2447.32
480.04	2633.69
480.25	2861.01
480.45	2541.53
480.65	2645.98
480.85	2971.60
481.06	2680.79
481.26	2727.89
481.46	2652.12
481.66	2775.00
481.86	2590.68
482.06	2799.57
482.27	2596.82
482.47	2701.27
482.67	2770.90
482.87	2607.06
483.07	2727.89
483.28	2602.97
483.48	2478.04
483.68	2643.93
483.88	2506.71
484.08	2465.75
484.29	2555.86
484.49	2641.88
484.69	2529.24
484.89	2930.64
485.09	2928.60
485.29	2711.51
485.50	2736.09
485.70	2662.36
485.90	2858.96
486.10	2811.86
486.30	2693.08
486.50	2877.40
486.71	2797.53
486.91	2729.94
487.11	2824.15
487.31	2537.43
487.51	2805.72
487.71	2541.53
487.91	2523.10
488.12	2615.26
488.32	2408.41
488.52	2596.82
488.72	2430.94
488.92	2744.28
489.12	2932.69
489.32	2844.63
489.53	2717.65
489.73	2531.29
489.93	2942.93
490.13	2564.06
490.33	2557.91
490.53	2680.79
490.73	2850.77
490.94	2494.43
491.14	2738.13
491.34	2824.15
491.54	2934.74
491.74	3471.31
491.94	3983.30
492.14	4505.53
492.34	4489.15
492.54	4124.61
492.75	3590.09
492.95	3651.53
493.15	3379.15
493.35	3321.81
493.55	3256.27
493.75	3092.43
493.95	3229.65
494.15	2959.31
494.35	2727.89
494.56	2783.19
494.76	2680.79
494.96	2752.47
495.16	2588.63
495.36	2760.66
495.56	2703.32
495.76	2662.36
495.96	2588.63
496.16	2619.35
496.36	3028.95
496.56	2684.89
496.77	2731.99
496.97	2650.07
497.17	2906.07
497.37	2482.14
497.57	2842.58
497.77	2727.89
497.97	2541.53
498.17	2660.31
498.37	2609.11
498.57	2764.76
498.77	2648.02
498.97	2775.00
499.17	2861.01
499.38	2715.61
499.58	2832.34
499.78	2762.71
499.98	2785.24
500.18	2754.52
500.38	2576.34
500.58	2961.36
500.78	3258.32
500.98	5351.34
501.18	7141.27
501.38	8687.48
501.58	9453.42
501.78	9568.11
501.98	7643.02
502.18	6477.73
502.38	5658.54
502.58	5439.40
502.78	4732.86
502.98	4616.12
503.18	4462.52
503.38	4036.55
503.59	3614.66
503.79	3487.69
503.99	3327.95
504.19	3178.45
504.39	3139.54
504.59	3162.06
504.79	3129.30
504.99	3182.54
505.19	2938.84
505.39	2887.64
505.59	2985.94
505.79	3059.67
505.99	2934.74
506.19	2664.41
506.39	2830.29
506.59	2705.37
506.79	2666.46
506.99	2715.61
507.19	2645.98
507.39	2818.00
507.59	2588.63
507.79	2498.52
507.99	2564.06
508.19	2729.94
508.39	2664.41
508.59	2617.30
508.79	2875.35
508.99	2971.60
509.19	2623.45
509.39	2723.80
509.59	2578.39
509.79	2674.65
509.99	2777.05
510.19	2826.20
510.39	2715.61
510.59	2760.66
510.79	2660.31
510.99	2566.10
511.19	2633.69
511.39	3000.27
511.59	2893.78
511.79	2781.14
511.99	2650.07
512.19	2949.08
512.38	2697.17
512.58	2598.87
512.78	2658.26
512.98	2947.03
513.18	2938.84
513.38	2551.77
513.58	2674.65
513.78	2613.21
513.98	2715.61
514.18	2633.69
514.38	2678.74
514.58	2787.29
514.78	2625.50
514.98	2621.40
515.18	2707.41
515.38	2535.39
515.58	2947.03
515.78	2660.31
515.98	2686.94
516.18	2813.91
516.38	2797.53
516.57	2664.41
516.77	2525.15
516.97	2848.72
517.17	2660.31
517.37	2457.56
517.57	2815.96
517.77	2734.04
517.97	2572.25
518.17	2770.90
518.37	2586.58
518.57	2637.78
518.77	2666.46
518.97	2658.26
519.16	2693.08
519.36	2875.35
519.56	2635.74
519.76	2621.40
519.96	2697.17
520.16	2852.82
520.36	2541.53
520.56	2775.00
520.76	2619.35
520.96	2725.85
521.16	2852.82
521.35	2951.12
521.55	2809.81
521.75	2775.00
521.95	2650.07
522.15	2645.98
522.35	2512.86
522.55	2639.83
522.75	2793.43
522.95	2543.58
523.14	2527.19
523.34	2783.19
523.54	2695.13
523.74	2731.99
523.94	2758.61
524.14	2533.34
524.34	2738.13
524.54	2852.82
524.73	2637.78
524.93	2783.19
525.13	2654.17
525.33	2424.80
525.53	2922.45
525.73	2863.06
525.93	2791.38
526.13	2629.59
526.32	2574.30
526.52	2834.39
526.72	2830.29
526.92	2607.06
527.12	2568.15
527.32	2529.24
527.52	2736.09
527.71	2686.94
527.91	2654.17
528.11	2652.12
528.31	2691.03
528.51	2623.45
528.71	2815.96
528.90	2852.82
529.10	2818.00
529.30	2723.80
529.50	2428.89
529.70	2736.09
529.90	2738.13
530.09	2705.37
530.29	2514.91
530.49	2639.83
530.69	3178.45
530.89	2725.85
531.09	2772.95
531.28	2637.78
531.48	2904.02
531.68	2641.88
531.88	2611.16
532.08	2867.16
532.28	2633.69
532.47	2834.39
532.67	2723.80
532.87	2861.01
533.07	2586.58
533.27	2725.85
533.46	2686.94
533.66	2799.57
533.86	2756.57
534.06	2637.78
534.26	2691.03
534.45	2734.04
534.65	2908.12
534.85	2707.41
535.05	2607.06
535.25	2885.59
535.44	2527.19
535.64	2686.94
535.84	2613.21
536.04	2637.78
536.24	2662.36
536.43	2607.06
536.63	2631.64
536.83	2684.89
537.03	2684.89
537.22	2504.67
537.42	2406.36
537.62	2764.76
537.82	2605.02
538.02	2832.34
538.21	2777.05
538.41	3172.30
538.61	2807.77
538.81	2701.27
539.00	2744.28
539.20	2564.06
539.40	2705.37
539.60	2668.50
539.79	2756.57
539.99	2717.65
540.19	2715.61
540.39	2600.92
540.58	2688.98
540.78	2914.26
540.98	2715.61
541.18	2777.05
541.37	2654.17
541.57	2695.13
541.77	2799.57
541.97	2553.82
542.16	2506.71
542.36	2670.55
542.56	2623.45
542.76	2768.85
542.95	2674.65
543.15	2822.10
543.35	2818.00
543.54	2602.97
543.74	2668.50
543.94	2904.02
544.14	2584.54
544.33	2711.51
544.53	2650.07
544.73	2725.85
544.93	2709.46
545.12	2611.16
545.32	2670.55
545.52	2719.70
545.71	2574.30
545.91	2621.40
546.11	2648.02
546.30	2639.83
546.50	2731.99
546.70	2717.65
546.90	2682.84
547.09	2465.75
547.29	2695.13
547.49	2736.09
547.68	2566.10
547.88	2693.08
548.08	2840.53
548.27	3114.96
548.47	2607.06
548.67	2596.82
548.87	2785.24
549.06	2648.02
549.26	2660.31
549.46	2783.19
549.65	2631.64
549.85	2748.37
550.05	2760.66
550.24	2580.44
550.44	2744.28
550.64	2711.51
550.83	2656.22
551.03	2957.27
551.23	2887.64
551.42	2809.81
551.62	2645.98
551.82	2719.70
552.01	2699.22
552.21	2877.40
552.41	2740.18
552.60	2990.03
552.80	2785.24
553.00	2594.78
553.19	2779.09
553.39	2963.41
553.59	2541.53
553.78	2766.81
553.98	2691.03
554.17	2602.97
554.37	2754.52
554.57	2764.76
554.76	2592.73
554.96	2686.94
555.16	2723.80
555.35	2711.51
555.55	2828.24
555.75	2813.91
555.94	2807.77
556.14	2531.29
556.33	2705.37
556.53	2723.80
556.73	2686.94
556.92	2668.50
557.12	2658.26
557.32	3082.19
557.51	2908.12
557.71	2656.22
557.90	2799.57
558.10	2930.64
558.30	2654.17
558.49	2691.03
558.69	2660.31
558.88	2834.39
559.08	2758.61
559.28	2613.21
559.47	2660.31
559.67	2863.06
559.86	3080.14
560.06	2703.32
560.26	2672.60
560.45	2811.86
560.65	2648.02
560.84	2908.12
561.04	2564.06
561.24	2805.72
561.43	2525.15
561.63	2869.20
561.82	2731.99
562.02	2912.21
562.22	2613.21
562.41	2600.92
562.61	2590.68
562.80	2482.14
563.00	3184.59
563.19	2693.08
563.39	2740.18
563.59	2887.64
563.78	2584.54
563.98	2461.66
564.17	2654.17
564.37	2437.08
564.56	2750.42
564.76	2473.95
564.96	2863.06
565.15	2793.43
565.35	3084.24
565.54	2701.27
565.74	2752.47
565.93	2850.77
566.13	2785.24
566.32	2617.30
566.52	2764.76
566.71	2740.18
566.91	2842.58
567.11	2738.13
567.30	2598.87
567.50	2893.78
567.69	2842.58
567.89	2709.46
568.08	2482.14
568.28	2772.95
568.47	2617.30
568.67	2725.85
568.86	2574.30
569.06	2889.68
569.25	2654.17
569.45	2498.52
569.64	2592.73
569.84	2674.65
570.04	2707.41
570.23	2574.30
570.43	2637.78
570.62	2815.96
570.82	2996.18
571.01	2617.30
571.21	2541.53
571.40	2533.34
571.60	2850.77
571.79	2674.65
571.99	2613.21
572.18	2553.82
572.38	2756.57
572.57	2625.50
572.77	2775.00
572.96	3164.11
573.16	2785.24
573.35	2676.70
573.55	2775.00
573.74	2760.66
573.94	2686.94
574.13	2678.74
574.33	2869.20
574.52	2914.26
574.71	2725.85
574.91	2736.09
575.10	2596.82
575.30	2625.50
575.49	2564.06
575.69	2611.16
575.88	2674.65
576.08	2635.74
576.27	2867.16
576.47	2621.40
576.66	2811.86
576.86	2955.22
577.05	2736.09
577.25	2811.86
577.44	2949.08
577.64	2598.87
577.83	2877.40
578.02	2613.21
578.22	2777.05
578.41	2940.88
578.61	2619.35
578.80	2475.99
579.00	2703.32
579.19	2709.46
579.39	2824.15
579.58	2715.61
579.77	2670.55
579.97	2930.64
580.16	2840.53
580.36	2840.53
580.55	2746.33
580.75	2799.57
580.94	2725.85
581.13	2801.62
581.33	2914.26
581.52	2742.23
581.72	3000.27
581.91	2815.96
582.11	2686.94
582.30	2897.88
582.49	2721.75
582.69	2920.40
582.88	2820.05
583.08	2822.10
583.27	2934.74
583.47	2760.66
583.66	2654.17
583.85	2613.21
584.05	2701.27
584.24	2832.34
584.44	2703.32
584.63	3014.61
584.82	2932.69
585.02	2875.35
585.21	2822.10
585.41	2889.68
585.60	2822.10
585.79	2949.08
585.99	2996.18
586.18	2850.77
586.37	3555.27
586.57	5466.03
586.76	15914.77
586.96	34942.44
587.15	48438.56
587.34	56812.70
587.54	60900.45
587.73	54691.01
587.93	38550.96
588.12	29351.49
588.31	23705.24
588.51	20917.95
588.70	19396.31
588.89	17137.40
589.09	14546.72
589.28	12533.57
589.47	9744.24
589.67	7597.96
589.86	6023.08
590.06	4530.11
590.25	3758.02
590.44	3432.40
590.64	3024.85
590.83	2934.74
591.02	2949.08
591.22	2746.33
591.41	2809.81
591.60	2744.28
591.80	3028.95
591.99	2594.78
592.18	2736.09
592.38	2928.60
592.57	2701.27
592.76	2676.70
592.96	2682.84
593.15	2760.66
593.34	2822.10
593.54	2617.30
593.73	2807.77
593.92	2783.19
594.12	2854.87
594.31	2801.62
594.50	2797.53
594.70	2832.34
594.89	3119.06
595.08	2580.44
595.28	2727.89
595.47	3182.54
595.66	2916.31
595.86	2549.72
596.05	2613.21
596.24	2619.35
596.43	2938.84
596.63	2775.00
596.82	2785.24
597.01	2756.57
597.21	2998.23
597.40	2676.70
597.59	2758.61
597.79	2627.54
597.98	2881.49
598.17	2625.50
598.36	2744.28
598.56	2832.34
598.75	2701.27
598.94	2729.94
599.14	2736.09
599.33	2627.54
599.52	2770.90
599.71	2719.70
599.91	2731.99
600.10	2844.63
600.29	2731.99
600.48	2793.43
600.68	2748.37
600.87	2791.38
601.06	2654.17
601.26	2660.31
601.45	2703.32
601.64	2762.71
601.83	2942.93
602.03	2650.07
602.22	2543.58
602.41	2838.48
602.60	3196.88
602.80	2678.74
602.99	2768.85
603.18	2672.60
603.37	2684.89
603.57	2648.02
603.76	2691.03
603.95	2916.31
604.14	2656.22
604.34	2555.86
604.53	2598.87
604.72	2791.38
604.91	2758.61
605.10	2699.22
605.30	2461.66
605.49	3104.72
605.68	2805.72
605.87	2719.70
606.07	2568.15
606.26	2721.75
606.45	2760.66
606.64	2731.99
606.84	2570.20
607.03	2775.00
607.22	2836.44
607.41	2605.02
607.60	2656.22
607.80	2815.96
607.99	2631.64
608.18	2691.03
608.37	2742.23
608.56	2645.98
608.76	2861.01
608.95	2910.16
609.14	2717.65
609.33	2906.07
609.52	2920.40
609.72	2697.17
609.91	2801.62
610.10	2775.00
610.29	2981.84
610.48	2717.65
610.68	2768.85
610.87	2691.03
611.06	2922.45
611.25	2686.94
611.44	2824.15
611.63	2711.51
611.83	2865.11
612.02	2596.82
612.21	2772.95
612.40	2478.04
612.59	2525.15
612.79	2584.54
612.98	2703.32
613.17	2998.23
613.36	2752.47
613.55	2865.11
613.74	2656.22
613.93	2754.52
614.13	2756.57
614.32	2830.29
614.51	2795.48
614.70	2719.70
614.89	2707.41
615.08	2770.90
615.28	3102.67
615.47	2549.72
615.66	2801.62
615.85	2752.47
616.04	2768.85
616.23	2660.31
616.42	2789.33
616.62	2713.56
616.81	2725.85
617.00	2662.36
617.19	2836.44
617.38	2658.26
617.57	2740.18
617.76	2893.78
617.95	2906.07
618.15	2799.57
618.34	2895.83
618.53	2555.86
618.72	2867.16
618.91	2828.24
619.10	2703.32
619.29	2744.28
619.48	2781.14
619.68	2613.21
619.87	2654.17
620.06	2523.10
620.25	2891.73
620.44	2586.58
620.63	2623.45
620.82	2752.47
621.01	2787.29
621.20	2617.30
621.39	2699.22
621.59	2772.95
621.78	2652.12
621.97	2686.94
622.16	2789.33
622.35	2713.56
622.54	2828.24
622.73	2752.47
622.92	2426.84
623.11	2897.88
623.30	2676.70
623.49	2666.46
623.68	2551.77
623.88	2918.36
624.07	2709.46
624.26	2619.35
624.45	2641.88
624.64	2701.27
624.83	2746.33
625.02	2652.12
625.21	2662.36
625.40	2777.05
625.59	2871.25
625.78	2719.70
625.97	2686.94
626.16	2987.99
626.35	2861.01
626.54	2713.56
626.74	2885.59
626.93	2770.90
627.12	2731.99
627.31	2699.22
627.50	2650.07
627.69	2783.19
627.88	2648.02
628.07	2674.65
628.26	2525.15
628.45	2605.02
628.64	2572.25
628.83	2562.01
629.02	2566.10
629.21	2791.38
629.40	2770.90
629.59	2602.97
629.78	2660.31
629.97	2643.93
630.16	2688.98
630.35	2666.46
630.54	2664.41
630.73	2660.31
630.92	2713.56
631.11	2557.91
631.30	2676.70
631.49	2842.58
631.68	2715.61
631.87	2672.60
632.06	2566.10
632.25	3086.29
632.44	2756.57
632.63	2713.56
632.82	2705.37
633.01	2645.98
633.20	2783.19
633.39	2723.80
633.58	2504.67
633.77	2830.29
633.96	2834.39
634.15	2772.95
634.34	2721.75
634.53	2877.40
634.72	2676.70
634.91	2473.95
635.10	2658.26
635.29	2822.10
635.48	2686.94
635.67	2576.34
635.86	2523.10
636.05	2920.40
636.24	2668.50
636.43	2686.94
636.62	2799.57
636.81	2432.99
637.00	2744.28
637.19	2711.51
637.38	2639.83
637.57	2670.55
637.76	2705.37
637.95	2838.48
638.14	2727.89
638.33	2697.17
638.52	2715.61
638.71	2639.83
638.89	2516.95
639.08	3139.54
639.27	2897.88
639.46	2869.20
639.65	3221.45
639.84	3153.87
640.03	3346.38
640.22	3084.24
640.41	3129.30
640.60	2926.55
640.79	3014.61
640.98	2793.43
641.17	2883.54
641.36	2897.88
641.55	2938.84
641.74	2605.02
641.92	2590.68
642.11	2629.59
642.30	2768.85
642.49	2566.10
642.68	2631.64
642.87	2848.72
643.06	2865.11
643.25	2543.58
643.44	2512.86
643.63	2670.55
643.82	2799.57
644.00	2584.54
644.19	2684.89
644.38	2527.19
644.57	2811.86
644.76	2725.85
644.95	2643.93
645.14	2750.42
645.33	2693.08
645.52	2682.84
645.71	2510.81
645.89	2578.39
646.08	2731.99
646.27	2637.78
646.46	2895.83
646.65	2527.19
646.84	2770.90
647.03	2572.25
647.22	2777.05
647.40	2699.22
647.59	2717.65
647.78	2486.23
647.97	2645.98
648.16	2512.86
648.35	2965.46
648.54	2883.54
648.73	2641.88
648.91	2865.11
649.10	2734.04
649.29	2633.69
649.48	2633.69
649.67	2844.63
649.86	2713.56
650.05	2607.06
650.23	2893.78
650.42	2645.98
650.61	2920.40
650.80	2850.77
650.99	2901.97
651.18	2871.25
651.36	2858.96
651.55	2615.26
651.74	2809.81
651.93	2648.02
652.12	2701.27
652.31	2631.64
652.49	2682.84
652.68	2752.47
652.87	2928.60
653.06	2760.66
653.25	2906.07
653.44	2705.37
653.62	2897.88
653.81	2645.98
654.00	2617.30
654.19	2834.39
654.38	3104.72
654.56	2699.22
654.75	2670.55
654.94	2826.20
655.13	2662.36
655.32	2635.74
655.51	2744.28
655.69	2688.98
655.88	2842.58
656.07	2555.86
656.26	2734.04
656.45	2547.67
656.63	2740.18
656.82	2721.75
657.01	2932.69
657.20	2686.94
657.38	2971.60
657.57	2643.93
657.76	2559.96
657.95	2803.67
658.14	2652.12
658.32	2719.70
658.51	2494.43
658.70	2754.52
658.89	2826.20
659.08	2674.65
659.26	2865.11
659.45	2658.26
659.64	2852.82
659.83	2539.48
660.01	3039.19
660.20	2676.70
660.39	2955.22
660.58	2490.33
660.76	2719.70
660.95	2496.47
661.14	2770.90
661.33	2494.43
661.51	2715.61
661.70	2654.17
661.89	2793.43
662.08	2621.40
662.26	2504.67
662.45	2514.91
662.64	3067.86
662.83	2752.47
663.01	2519.00
663.20	2666.46
663.39	2957.27
663.58	2631.64
663.76	2641.88
663.95	2746.33
664.14	2535.39
664.32	2668.50
664.51	2566.10
664.70	2465.75
664.89	2709.46
665.07	2480.09
665.26	2789.33
665.45	2545.63
665.64	2838.48
665.82	2578.39
666.01	2793.43
666.20	2545.63
666.38	2793.43
666.57	2824.15
666.76	4286.40
666.95	10039.14
667.13	16965.37
667.32	21135.04
667.51	23867.03
667.69	24884.87
667.88	21321.40
668.07	15216.41
668.25	12816.19
668.44	11016.02
668.63	9547.63
668.81	8511.36
669.00	7411.60
669.19	6596.51
669.38	5783.46
669.56	4970.42
669.75	4208.58
669.94	3741.64
670.12	3184.59
670.31	2940.88
670.50	3043.28
670.68	3008.47
670.87	2770.90
671.06	2666.46
671.24	2727.89
671.43	3045.33
671.62	2803.67
671.80	2670.55
671.99	2770.90
672.18	2752.47
672.36	2844.63
672.55	2736.09
672.74	2633.69
672.92	2695.13
673.11	2811.86
673.29	2535.39
673.48	2789.33
673.67	2703.32
673.85	2895.83
674.04	2602.97
674.23	2662.36
674.41	2922.45
674.60	2537.43
674.79	2510.81
674.97	2574.30
675.16	2834.39
675.34	2832.34
675.53	2617.30
675.72	2711.51
675.90	2971.60
676.09	2664.41
676.28	2705.37
676.46	2502.62
676.65	2758.61
676.83	2578.39
677.02	2717.65
677.21	2605.02
677.39	2822.10
677.58	2545.63
677.77	2578.39
677.95	2611.16
678.14	2713.56
678.32	2705.37
678.51	2619.35
678.70	2959.31
678.88	2586.58
679.07	2736.09
679.25	2625.50
679.44	2621.40
679.63	2582.49
679.81	2727.89
680.00	2891.73
680.18	2684.89
680.37	2932.69
680.55	2719.70
680.74	2564.06
680.93	2435.03
681.11	2779.09
681.30	2715.61
681.48	2707.41
681.67	2678.74
681.85	2781.14
682.04	2666.46
682.23	2818.00
682.41	2725.85
682.60	2656.22
682.78	2635.74
682.97	2545.63
683.15	2680.79
683.34	2815.96
683.53	2924.50
683.71	2586.58
683.90	2738.13
684.08	2922.45
684.27	2662.36
684.45	2760.66
684.64	2873.30
684.82	2684.89
685.01	2758.61
685.19	2691.03
685.38	2916.31
685.57	2727.89
685.75	2664.41
685.94	2611.16
686.12	2535.39
686.31	2611.16
686.49	2996.18
686.68	2488.28
686.86	2709.46
687.05	2731.99
687.23	2973.65
687.42	2611.16
687.60	2392.03
687.79	2834.39
687.97	2979.79
688.16	2781.14
688.34	2789.33
688.53	2435.03
688.71	2764.76
688.90	2899.92
689.08	2686.94
689.27	2549.72
689.45	2924.50
689.64	2791.38
689.82	2801.62
690.01	2768.85
690.19	2787.29
690.38	2676.70
690.56	2744.28
690.75	2711.51
690.93	2754.52
691.12	2600.92
691.30	2668.50
691.49	2670.55
691.67	2736.09
691.86	2906.07
692.04	2662.36
692.23	2594.78
692.41	2783.19
692.60	2965.46
692.78	2820.05
692.97	2758.61
693.15	2768.85
693.34	2879.44
693.52	2705.37
693.71	2678.74
693.89	2652.12
694.08	2506.71
694.26	2684.89
694.44	2932.69
694.63	2770.90
694.81	2568.15
695.00	2654.17
695.18	2916.31
695.37	3088.34
695.55	2738.13
695.74	2670.55
695.92	2625.50
696.10	3008.47
696.29	2473.95
696.47	2652.12
696.66	2621.40
696.84	2523.10
697.03	2705.37
697.21	2944.98
697.40	4032.45
697.58	2928.60
697.76	2645.98
697.95	2588.63
698.13	2562.01
698.32	2662.36
698.50	2641.88
698.68	2711.51
698.87	2815.96
699.05	2961.36
699.24	2664.41
699.42	2559.96
699.61	2742.23
699.79	2801.62
699.97	2674.65
700.16	2504.67
700.34	2609.11
700.53	2742.23
700.71	2891.73
700.89	2768.85
701.08	2676.70
701.26	2664.41
701.45	3094.48
701.63	2586.58
701.81	2709.46
702.00	2586.58
702.18	2709.46
702.37	2645.98
702.55	2893.78
702.73	2889.68
702.92	2670.55
703.10	2973.65
703.28	2910.16
703.47	2553.82
703.65	2895.83
703.84	2789.33
704.02	2719.70
704.20	2920.40
704.39	2623.45
704.57	2639.83
704.75	2920.40
704.94	2785.24
705.12	2707.41
705.30	3024.85
705.49	5869.48
705.67	11863.88
705.86	17499.89
706.04	20287.18
706.22	22570.66
706.41	22650.53
706.59	17669.87
706.77	13037.37
706.96	11403.09
707.14	10366.82
707.32	9031.54
707.51	7845.77
707.69	6369.18
707.87	5414.83
708.06	4370.37
708.24	3794.89
708.42	3350.48
708.61	3446.73
708.79	2727.89
708.97	2805.72
709.16	2861.01
709.34	2863.06
709.52	2580.44
709.71	2643.93
709.89	2768.85
710.07	2609.11
710.26	2594.78
710.44	2590.68
710.62	2824.15
710.80	2680.79
710.99	2721.75
711.17	2844.63
711.35	2572.25
711.54	2602.97
711.72	2811.86
711.90	2762.71
712.09	2727.89
712.27	2668.50
712.45	2867.16
712.63	2590.68
712.82	2748.37
713.00	2723.80
713.18	2815.96
713.37	2777.05
713.55	2832.34
713.73	2791.38
713.91	2748.37
714.10	2600.92
714.28	2662.36
714.46	2752.47
714.65	2684.89
714.83	2637.78
715.01	2684.89
715.19	2750.42
715.38	2613.21
715.56	2709.46
715.74	2643.93
715.92	2555.86
716.11	2861.01
716.29	2451.42
716.47	2701.27
716.65	2691.03
716.84	2523.10
717.02	2861.01
717.20	2535.39
717.38	2588.63
717.57	2775.00
717.75	2678.74
717.93	2670.55
718.11	2809.81
718.30	2531.29
718.48	2691.03
718.66	2889.68
718.84	2832.34
719.03	2662.36
719.21	2500.57
719.39	2959.31
719.57	2815.96
719.75	2834.39
719.94	2645.98
720.12	2695.13
720.30	2799.57
720.48	2719.70
720.67	2631.64
720.85	2643.93
721.03	2549.72
721.21	2537.43
721.39	2727.89
721.58	2863.06
721.76	2697.17
721.94	2699.22
722.12	2740.18
722.30	3055.57
722.49	2635.74
722.67	2695.13
722.85	2719.70
723.03	2490.33
723.21	2764.76
723.40	2688.98
723.58	2830.29
723.76	2768.85
723.94	2924.50
724.12	2678.74
724.30	2852.82
724.49	2848.72
724.67	2570.20
724.85	2852.82
725.03	2621.40
725.21	2840.53
725.40	2895.83
725.58	2590.68
725.76	2867.16
725.94	2760.66
726.12	2566.10
726.30	2668.50
726.49	2623.45
726.67	2553.82
726.85	2826.20
727.03	3121.10
727.21	4097.99
727.39	5222.32
727.57	5773.22
727.76	6068.13
727.94	6092.71
728.12	5484.46
728.30	4548.54
728.48	4292.54
728.66	3915.72
728.84	3731.40
729.03	3299.28
729.21	3164.11
729.39	3055.57
729.57	2789.33
729.75	2856.92
729.93	2762.71
730.11	2541.53
730.30	2650.07
730.48	2605.02
730.66	2813.91
730.84	2734.04
731.02	2648.02
731.20	2650.07
731.38	2668.50
731.56	2486.23
731.74	2539.48
731.93	2748.37
732.11	2654.17
732.29	2660.31
732.47	2750.42
732.65	2705.37
732.83	2828.24
733.01	2717.65
733.19	2701.27
733.37	2818.00
733.56	2668.50
733.74	2643.93
733.92	2922.45
734.10	2707.41
734.28	2783.19
734.46	2469.85
734.64	2686.94
734.82	2676.70
735.00	2609.11
735.18	2686.94
735.36	2725.85
735.54	2670.55
735.73	2637.78
735.91	2756.57
736.09	2908.12
736.27	2701.27
736.45	2785.24
736.63	2488.28
736.81	2760.66
736.99	2848.72
737.17	2828.24
737.35	2588.63
737.53	2768.85
737.71	2691.03
737.89	2779.09
738.07	2662.36
738.25	2605.02
738.43	2541.53
738.61	2607.06
738.80	2486.23
738.98	2602.97
739.16	2633.69
739.34	2600.92
739.52	2920.40
739.70	2588.63
739.88	2783.19
740.06	2805.72
740.24	2500.57
740.42	2818.00
740.60	2559.96
740.78	2582.49
740.96	2492.38
741.14	2772.95
741.32	2723.80
741.50	2564.06
741.68	2965.46
741.86	2928.60
742.04	2600.92
742.22	2514.91
742.40	2619.35
742.58	2772.95
742.76	2564.06
742.94	2856.92
743.12	2549.72
743.30	2680.79
743.48	2877.40
743.66	2588.63
743.84	2615.26
744.02	2699.22
744.20	2715.61
744.38	2535.39
744.56	2506.71
744.74	2940.88
744.92	2783.19
745.10	2838.48
745.28	2717.65
745.46	3041.23
745.64	2656.22
745.82	2686.94
746.00	2559.96
746.18	2758.61
746.36	2596.82
746.54	2643.93
746.72	2633.69
746.90	2670.55
747.08	2973.65
747.26	2592.73
747.44	2731.99
747.62	2836.44
747.80	2797.53
747.98	2738.13
748.15	2645.98
748.33	2969.55
748.51	2740.18
748.69	2807.77
748.87	2588.63
749.05	2613.21
749.23	2672.60
749.41	2678.74
749.59	2615.26
749.77	2820.05
749.95	2717.65
750.13	2572.25
750.31	2799.57
750.49	2637.78
750.67	2891.73
750.85	2789.33
751.03	2678.74
751.20	2977.75
751.38	2699.22
751.56	2703.32
751.74	2691.03
751.92	2686.94
752.10	2570.20
752.28	2777.05
752.46	2572.25
752.64	2766.81
752.82	2664.41
753.00	2777.05
753.18	2615.26
753.35	2600.92
753.53	2703.32
753.71	2586.58
753.89	2762.71
754.07	2678.74
754.25	2922.45
754.43	2707.41
754.61	2619.35
754.79	2670.55
754.97	2645.98
755.14	2775.00
755.32	2447.32
755.50	2705.37
755.68	2742.23
755.86	2605.02
756.04	2648.02
756.22	2484.19
756.40	2844.63
756.57	2912.21
756.75	2633.69
756.93	2856.92
757.11	2877.40
757.29	2510.81
757.47	2557.91
757.65	2521.05
757.82	2410.46
758.00	2617.30
758.18	2545.63
758.36	2541.53
758.54	2951.12
758.72	2502.62
758.90	2719.70
759.07	2793.43
759.25	2652.12
759.43	2742.23
759.61	2568.15
759.79	3893.19
759.97	2756.57
760.15	2627.54
760.32	2605.02
760.50	2693.08
760.68	2961.36
760.86	2488.28
761.04	2834.39
761.22	2822.10
761.39	2725.85
761.57	2725.85
761.75	2572.25
761.93	2783.19
762.11	2756.57
762.28	2674.65
762.46	2611.16
762.64	2867.16
762.82	2516.95
763.00	2588.63
763.18	2826.20
763.35	2578.39
763.53	2789.33
763.71	2691.03
763.89	2633.69
764.07	2775.00
764.24	2731.99
764.42	2711.51
764.60	2633.69
764.78	2748.37
764.96	2869.20
765.13	2777.05
765.31	2688.98
765.49	2807.77
765.67	2602.97
765.84	2580.44
766.02	2555.86
766.20	2435.03
766.38	2797.53
766.56	2750.42
766.73	2807.77
766.91	2727.89
767.09	2680.79
767.27	2787.29
767.44	2508.76
767.62	2818.00
767.80	2756.57
767.98	2652.12
768.15	2641.88
768.33	2762.71
768.51	2852.82
768.69	2750.42
768.87	2635.74
769.04	2740.18
769.22	3063.76
769.40	2836.44
769.58	2932.69
769.75	2830.29
769.93	2883.54
770.11	2600.92
770.28	2576.34
770.46	2836.44
770.64	2723.80
770.82	2682.84
770.99	2564.06
771.17	2715.61
771.35	2703.32
771.53	2766.81
771.70	2652.12
771.88	2865.11
772.06	2686.94
772.23	2678.74
772.41	2658.26
772.59	2717.65
772.77	2541.53
772.94	2686.94
773.12	2750.42
773.30	2719.70
773.47	2797.53
773.65	2578.39
773.83	2789.33
774.01	2748.37
774.18	2465.75
774.36	2619.35
774.54	2519.00
774.71	2815.96
774.89	2480.09
775.07	2547.67
775.24	2602.97
775.42	2580.44
775.60	2969.55
775.78	2619.35
775.95	2484.19
776.13	2523.10
776.31	2449.37
776.48	2684.89
776.66	2828.24
776.84	2662.36
777.01	2549.72
777.19	2525.15
777.37	2586.58
777.54	2916.31
777.72	3022.80
777.90	2715.61
778.07	2553.82
778.25	3227.60
778.43	2867.16
778.60	2547.67
778.78	2793.43
778.96	2897.88
779.13	2529.24
779.31	2772.95
779.49	2676.70
779.66	2791.38
779.84	2602.97
780.01	2656.22
780.19	2539.48
780.37	2891.73
780.54	2822.10
780.72	2510.81
780.90	2654.17
781.07	2629.59
781.25	2662.36
781.43	2791.38
781.60	2652.12
781.78	2871.25
781.95	2758.61
782.13	2617.30
782.31	2750.42
782.48	2523.10
782.66	2678.74
782.83	2895.83
783.01	2703.32
783.19	2834.39
783.36	2674.65
783.54	2535.39
783.72	2731.99
783.89	2658.26
784.07	2762.71
784.24	2797.53
784.42	2809.81
784.60	2705.37
784.77	2775.00
784.95	2414.56
785.12	2639.83
785.30	2725.85
785.47	2625.50
785.65	2576.34
785.83	2668.50
786.00	2639.83
786.18	2691.03
786.35	2633.69
786.53	2629.59
786.71	2826.20
786.88	2723.80
787.06	2766.81
787.23	2703.32
787.41	2643.93
787.58	2705.37
787.76	2582.49
787.94	2674.65
788.11	2824.15
788.29	2654.17
788.46	2568.15
788.64	2527.19
788.81	2633.69
788.99	2529.24
789.16	2578.39
789.34	2650.07
789.52	2666.46
789.69	2619.35
789.87	2482.14
790.04	2635.74
790.22	2742.23
790.39	3018.71
790.57	2535.39
790.74	2602.97
790.92	2834.39
791.09	2570.20
791.27	2715.61
791.44	2777.05
791.62	2678.74
791.79	2854.87
791.97	2711.51
792.15	3026.90
792.32	2863.06
792.50	2795.48
792.67	2834.39
792.85	2863.06
793.02	2770.90
793.20	2703.32
793.37	2529.24
793.55	2602.97
793.72	2574.30
793.90	2797.53
794.07	2547.67
794.25	2586.58
794.42	2686.94
794.60	2664.41
794.77	2664.41
794.95	2691.03
795.12	2770.90
795.30	2695.13
795.47	2420.70
795.65	3020.75
795.82	2648.02
796.00	2578.39
796.17	2736.09
796.34	2578.39
796.52	2633.69
796.69	2783.19
796.87	2756.57
797.04	2727.89
797.22	2818.00
797.39	2768.85
797.57	2811.86
797.74	2660.31
797.92	2781.14
798.09	2633.69
798.27	2826.20
798.44	2668.50
798.62	2637.78
798.79	2715.61
798.96	2699.22
799.14	2648.02
799.31	3155.92
799.49	2676.70
799.66	2746.33
799.84	2715.61
800.01	2586.58
800.19	2906.07
800.36	2502.62
800.53	2674.65
800.71	2777.05
800.88	2961.36
801.06	2678.74
801.23	2602.97
801.41	2652.12
801.58	2633.69
801.75	2555.86
801.93	2707.41
802.10	2711.51
802.28	2748.37
802.45	2574.30
802.63	2717.65
802.80	2899.92
802.97	2580.44
803.15	2750.42
803.32	2617.30
803.50	2621.40
803.67	2611.16
803.84	2551.77
804.02	2654.17
804.19	2674.65
804.37	2516.95
804.54	2488.28
804.71	2564.06
804.89	2676.70
805.06	2574.30
805.24	2594.78
805.41	2641.88
805.58	2623.45
805.76	3049.43
805.93	2656.22
806.10	2750.42
806.28	2650.07
806.45	2770.90
806.63	2736.09
806.80	2691.03
806.97	2731.99
807.15	2781.14
807.32	2656.22
807.49	2633.69
807.67	2555.86
807.84	2795.48
808.01	2457.56
808.19	2830.29
808.36	3018.71
808.54	2668.50
808.71	2553.82
808.88	2676.70
809.06	2875.35
809.23	2914.26
809.40	2519.00
809.58	2768.85
809.75	2729.94
809.92	2578.39
810.10	2944.98
810.27	2670.55
810.44	2818.00
810.62	2865.11
810.79	2688.98
810.96	2551.77
811.14	2629.59
811.31	2785.24
811.48	2748.37
811.66	2619.35
811.83	2953.17
812.00	2777.05
812.18	2652.12
812.35	2918.36
812.52	2648.02
812.69	2674.65
812.87	2695.13
813.04	2539.48
813.21	2670.55
813.39	2547.67
813.56	2574.30
813.73	2861.01
813.91	2471.90
814.08	2777.05
814.25	2682.84
814.42	2527.19
814.60	2709.46
814.77	2699.22
814.94	2676.70
815.12	2668.50
815.29	2924.50
815.46	2656.22
815.63	2664.41
815.81	2746.33
815.98	2678.74
816.15	2660.31
816.33	2611.16
816.50	2672.60
816.67	2707.41
816.84	2668.50
817.02	2498.52
817.19	2566.10
817.36	2695.13
817.53	2805.72
817.71	2570.20
817.88	2697.17
818.05	2668.50
818.22	2711.51
818.40	2822.10
818.57	2592.73
818.74	2775.00
818.91	2719.70
819.09	2783.19
819.26	2756.57
819.43	2615.26
819.60	2670.55
819.78	2748.37
819.95	2824.15
820.12	2623.45
820.29	2906.07
820.47	2826.20
820.64	2641.88
820.81	2463.71
820.98	2553.82
821.15	2686.94
821.33	2697.17
821.50	2465.75
821.67	2856.92
821.84	2643.93
822.02	2721.75
822.19	2795.48
822.36	2598.87
822.53	2607.06
822.70	2582.49
822.88	2633.69
823.05	2899.92
823.22	2617.30
823.39	2758.61
823.56	2633.69
823.74	3010.51
823.91	2607.06
824.08	2543.58
824.25	2600.92
824.42	2918.36
824.60	2496.47
824.77	2764.76
824.94	2734.04
825.11	2805.72
825.28	2545.63
825.45	2731.99
825.63	2658.26
825.80	2605.02
825.97	2703.32
826.14	2713.56
826.31	2514.91
826.48	2826.20
826.66	2566.10
826.83	2621.40
827.00	2670.55
827.17	2582.49
827.34	2725.85
827.51	2531.29
827.69	2617.30
827.86	2586.58
828.03	2666.46
828.20	2697.17
828.37	2588.63
828.54	2791.38
828.71	2600.92
828.89	2777.05
829.06	2693.08
829.23	2928.60
829.40	2633.69
829.57	2545.63
829.74	2779.09
829.91	2582.49
830.09	2564.06
830.26	2623.45
830.43	2887.64
830.60	2715.61
830.77	2648.02
830.94	2883.54
831.11	2813.91
831.28	2637.78
831.46	2775.00
831.63	2662.36
831.80	2824.15
831.97	2494.43
832.14	2631.64
832.31	2641.88
832.48	2834.39
832.65	2840.53
832.82	2742.23
832.99	2731.99
833.17	2592.73
833.34	2940.88
833.51	2672.60
833.68	2402.27
833.85	2940.88
834.02	2643.93
834.19	2490.33
834.36	2627.54
834.53	2680.79
834.70	2824.15
834.87	2682.84
835.04	2555.86
835.22	2611.16
835.39	2641.88
835.56	2535.39
835.73	2617.30
835.90	2858.96
836.07	2584.54
836.24	2805.72
836.41	2473.95
836.58	2537.43
836.75	2852.82
836.92	2586.58
837.09	2539.48
837.26	2793.43
837.43	2781.14
837.60	2602.97
837.77	2473.95
837.94	2760.66
838.12	2850.77
838.29	2498.52
838.46	2471.90
838.63	2600.92
838.80	2961.36
838.97	2633.69
839.14	2596.82
839.31	2746.33
839.48	2820.05
839.65	2525.15
839.82	2711.51
839.99	2670.55
840.16	2750.42
840.33	2510.81
840.50	2588.63
840.67	2660.31
840.84	2379.74
841.01	2539.48
841.18	2473.95
841.35	2742.23
841.52	2867.16
841.69	2824.15
841.86	2613.21
842.03	2731.99
842.20	2826.20
842.37	2568.15
842.54	2584.54
842.71	2727.89
842.88	2516.95
843.05	2596.82
843.22	2531.29
843.39	2822.10
843.56	2596.82
843.73	2572.25
843.90	2562.01
844.07	2680.79
844.24	2781.14
844.41	2621.40
844.58	2619.35
844.75	2697.17
844.92	2731.99
845.09	2512.86
845.26	2588.63
845.43	2744.28
845.60	2650.07
845.77	2701.27
845.94	2623.45
846.10	2795.48
846.27	2500.57
846.44	2502.62
846.61	2441.18
846.78	2840.53
846.95	2842.58
847.12	2506.71
847.29	2523.10
847.46	2582.49
847.63	2834.39
847.80	2418.65
847.97	2621.40
848.14	3065.81
848.31	2652.12
848.48	2494.43
848.65	2637.78
848.82	2580.44
848.98	3071.95
849.15	2631.64
849.32	2729.94
849.49	2766.81
849.66	2721.75
849.83	2539.48
850.00	2453.47
850.17	2807.77
850.34	2652.12
850.51	2537.43
850.68	2519.00
850.85	3084.24
851.01	2697.17
851.18	2598.87
851.35	2529.24
851.52	2754.52
851.69	2938.84
851.86	2447.32
852.03	2531.29
852.20	2744.28
852.37	2691.03
852.53	2396.12
852.70	2473.95
852.87	2582.49
853.04	2813.91
853.21	2643.93
853.38	2734.04
853.55	2914.26
853.72	2775.00
853.89	2506.71
854.05	2555.86
854.22	2650.07
854.39	2770.90
854.56	2605.02
854.73	2742.23
854.90	2588.63
855.07	2705.37
855.23	2414.56
855.40	2519.00
855.57	2666.46
855.74	2488.28
855.91	2688.98
856.08	2426.84
856.25	2631.64
856.41	2588.63
856.58	2539.48
856.75	2525.15
856.92	2512.86
857.09	2826.20
857.26	2475.99
857.42	2590.68
857.59	2791.38
857.76	2713.56
857.93	2602.97
858.10	2619.35
858.27	2627.54
858.43	2691.03
858.60	2611.16
858.77	2428.89
858.94	2623.45
859.11	2850.77
859.27	2611.16
859.44	2480.09
859.61	2940.88
859.78	2764.76
859.95	2578.39
860.12	2551.77
860.28	3063.76
860.45	2973.65
860.62	2504.67
860.79	2588.63
860.95	2684.89
861.12	2512.86
861.29	2439.13
861.46	2531.29
861.63	2715.61
861.79	2752.47
861.96	2416.60
862.13	2514.91
862.30	2908.12
862.47	2691.03
862.63	2412.51
862.80	2576.34
862.97	2899.92
863.14	2779.09
863.30	2637.78
863.47	2525.15
863.64	2967.51
863.81	2684.89
863.97	2471.90
864.14	2613.21
864.31	2729.94
864.48	2744.28
864.65	2545.63
864.81	2652.12
864.98	2840.53
865.15	2826.20
865.32	2652.12
865.48	2607.06
865.65	2924.50
865.82	2594.78
865.98	2590.68
866.15	2627.54
866.32	2658.26
866.49	2648.02
866.65	2695.13
866.82	2498.52
866.99	2734.04
867.16	2682.84
867.32	2547.67
867.49	2482.14
867.66	2703.32
867.83	2674.65
867.99	2422.75
868.16	2510.81
868.33	2564.06
868.49	2779.09
868.66	2555.86
868.83	2666.46
868.99	2664.41
869.16	2697.17
869.33	2645.98
869.50	2682.84
869.66	2725.85
869.83	2701.27
870.00	2471.90
870.16	2643.93
870.33	2693.08
870.50	2842.58
870.66	2605.02
870.83	2658.26
871.00	2654.17
871.17	2803.67
871.33	2621.40
871.50	2564.06
871.67	2752.47
871.83	2570.20
872.00	2629.59
872.17	2600.92
872.33	2918.36
872.50	2783.19
872.67	2568.15
872.83	2555.86
873.00	2811.86
873.17	2729.94
873.33	2643.93
873.50	2535.39
873.67	2594.78
873.83	2598.87
874.00	2514.91
874.16	2705.37
874.33	2691.03
874.50	2531.29
874.66	2572.25
874.83	2551.77
875.00	2881.49
875.16	2803.67
875.33	2744.28
875.50	2326.49
875.66	2672.60
875.83	2652.12
875.99	2684.89
876.16	2656.22
876.33	2519.00
876.49	2611.16
876.66	2605.02
876.83	2602.97
876.99	2414.56
877.16	2693.08
877.32	2549.72
877.49	2596.82
877.66	2748.37
877.82	2867.16
877.99	2660.31
878.15	2793.43
878.32	2762.71
878.49	2719.70
878.65	2564.06
878.82	2789.33
878.98	2559.96
879.15	2801.62
879.32	2652.12
879.48	2695.13
879.65	2654.17
879.81	2656.22
879.98	2605.02
880.15	2574.30
880.31	2795.48
880.48	2586.58
880.64	2666.46
880.81	2633.69
880.97	2848.72
881.14	2861.01
881.31	2531.29
881.47	2736.09
881.64	2666.46
881.80	2529.24
881.97	2611.16
882.13	2664.41
882.30	2521.05
882.47	2602.97
882.63	2553.82
882.80	2484.19
882.96	2686.94
883.13	2885.59
883.29	2539.48
883.46	2578.39
883.62	2983.89
883.79	2631.64
883.95	2781.14
884.12	2516.95
884.29	2854.87
884.45	2703.32
884.62	2654.17
884.78	2504.67
884.95	2990.03
885.11	2693.08
885.28	2615.26
885.44	2590.68
885.61	2795.48
885.77	2992.08
885.94	2707.41
886.10	2602.97
886.27	2701.27
886.43	2873.30
886.60	2662.36
886.76	2564.06
886.93	2543.58
887.09	2777.05
887.26	2523.10
887.42	2615.26
887.59	2838.48
887.75	2971.60
887.92	2691.03
888.08	2605.02
888.25	2934.74
888.41	2811.86
888.58	2623.45
888.74	2506.71
888.91	2678.74
>>>>>End Processed Spectral Data<<<<<
