SpectraSuite Data File
++++++++++++++++++++++++++++++++++++
Date: Thu May 05 16:20:17 CEST 2016
User: root
Dark Spectrum Present: No
Reference Spectrum Present: No
Number of Sampled Component Spectra: 1
Spectrometers: USB4C02835
Integration Time (usec): 100000 (USB4C02835)
Spectra Averaged: 1 (USB4C02835)
Boxcar Smoothing: 0 (USB4C02835)
Correct for Electrical Dark: No (USB4C02835)
Strobe/Lamp Enabled: No (USB4C02835)
Correct for Detector Non-linearity: No (USB4C02835)
Correct for Stray Light: No (USB4C02835)
Number of Pixels in Processed Spectrum: 3648
>>>>>Begin Processed Spectral Data<<<<<
177.47	2031.58
177.69	2031.58
177.91	2031.58
178.13	2002.91
178.36	2000.87
178.58	2609.11
178.80	2621.40
179.02	2457.56
179.24	2559.96
179.46	2475.99
179.68	2506.71
179.90	2656.22
180.13	2715.61
180.35	2400.22
180.57	2469.85
180.79	2756.57
181.01	2736.09
181.23	2543.58
181.45	2615.26
181.67	2848.72
181.90	2832.34
182.12	2564.06
182.34	2396.12
182.56	2869.20
182.78	2748.37
183.00	2443.23
183.22	2494.43
183.44	2492.38
183.66	3114.96
183.89	2662.36
184.11	2527.19
184.33	2840.53
184.55	2867.16
184.77	2541.53
184.99	2502.62
185.21	2682.84
185.43	3100.62
185.65	2539.48
185.87	2484.19
186.10	3069.91
186.32	3051.47
186.54	2656.22
186.76	2643.93
186.98	2875.35
187.20	2686.94
187.42	2504.67
187.64	2457.56
187.86	2723.80
188.08	2871.25
188.30	2471.90
188.52	2537.43
188.75	2930.64
188.97	2869.20
189.19	2482.14
189.41	2465.75
189.63	2818.00
189.85	2629.59
190.07	2353.12
190.29	2340.83
190.51	2764.76
190.73	2566.10
190.95	2662.36
191.17	2519.00
191.39	2516.95
191.61	2801.62
191.84	2564.06
192.06	2555.86
192.28	2498.52
192.50	3243.98
192.72	2576.34
192.94	2535.39
193.16	2887.64
193.38	2731.99
193.60	2453.47
193.82	2594.78
194.04	2838.48
194.26	2787.29
194.48	2539.48
194.70	2392.03
194.92	2662.36
195.14	2793.43
195.36	2449.37
195.58	2615.26
195.80	2709.46
196.02	2729.94
196.24	2463.71
196.46	2605.02
196.69	2666.46
196.91	3119.06
197.13	2621.40
197.35	2541.53
197.57	3004.37
197.79	2766.81
198.01	2537.43
198.23	2547.67
198.45	2824.15
198.67	2545.63
198.89	2426.84
199.11	2627.54
199.33	2633.69
199.55	2422.75
199.77	2475.99
199.99	2707.41
200.21	2676.70
200.43	2785.24
200.65	2396.12
200.87	2367.45
201.09	2758.61
201.31	2637.78
201.53	2535.39
201.75	2533.34
201.97	2777.05
202.19	2682.84
202.41	2592.73
202.63	2611.16
202.85	2756.57
203.07	2703.32
203.29	2504.67
203.51	2402.27
203.73	2652.12
203.95	3137.49
204.17	2547.67
204.39	2615.26
204.61	2717.65
204.83	2662.36
205.05	2658.26
205.27	2602.97
205.49	3000.27
205.71	2727.89
205.93	2430.94
206.15	2426.84
206.37	2691.03
206.59	2744.28
206.81	2398.17
207.03	2402.27
207.25	2506.71
207.47	2760.66
207.69	2549.72
207.91	2770.90
208.13	2908.12
208.34	2695.13
208.56	2389.98
208.78	2500.57
209.00	2695.13
209.22	2654.17
209.44	2529.24
209.66	2494.43
209.88	2709.46
210.10	2701.27
210.32	2545.63
210.54	2547.67
210.76	2731.99
210.98	2887.64
211.20	2275.29
211.42	2605.02
211.64	2891.73
211.86	2723.80
212.08	2639.83
212.30	2562.01
212.52	2650.07
212.74	2740.18
212.96	2594.78
213.17	2605.02
213.39	2797.53
213.61	2994.13
213.83	2568.15
214.05	2435.03
214.27	2858.96
214.49	2592.73
214.71	2516.95
214.93	2668.50
215.15	2707.41
215.37	2787.29
215.59	2443.23
215.81	2578.39
216.03	2922.45
216.24	2803.67
216.46	2500.57
216.68	2508.76
216.90	2748.37
217.12	2899.92
217.34	2439.13
217.56	2582.49
217.78	3024.85
218.00	2734.04
218.22	2576.34
218.44	2691.03
218.66	2713.56
218.87	3024.85
219.09	2498.52
219.31	2480.09
219.53	2760.66
219.75	2574.30
219.97	2504.67
220.19	2467.80
220.41	2658.26
220.63	2965.46
220.85	2539.48
221.06	2564.06
221.28	2844.63
221.50	2748.37
221.72	2512.86
221.94	2494.43
222.16	2746.33
222.38	2834.39
222.60	2428.89
222.82	2562.01
223.03	2826.20
223.25	2605.02
223.47	2463.71
223.69	2684.89
223.91	2975.70
224.13	2807.77
224.35	2500.57
224.57	2711.51
224.78	2797.53
225.00	2633.69
225.22	2514.91
225.44	2478.04
225.66	2856.92
225.88	2695.13
226.10	2590.68
226.32	2588.63
226.53	2877.40
226.75	2703.32
226.97	2453.47
227.19	2592.73
227.41	2666.46
227.63	2600.92
227.85	2447.32
228.06	2541.53
228.28	2762.71
228.50	2770.90
228.72	2375.64
228.94	2480.09
229.16	2557.91
229.37	2523.10
229.59	2465.75
229.81	2717.65
230.03	2676.70
230.25	2482.14
230.47	2389.98
230.69	2439.13
230.90	2818.00
231.12	2588.63
231.34	2592.73
231.56	2574.30
231.78	2588.63
232.00	2748.37
232.21	2549.72
232.43	2531.29
232.65	2441.18
232.87	2762.71
233.09	2377.69
233.30	2449.37
233.52	2858.96
233.74	2762.71
233.96	2523.10
234.18	2623.45
234.40	2693.08
234.61	3022.80
234.83	2355.16
235.05	2418.65
235.27	3041.23
235.49	2932.69
235.70	2461.66
235.92	2580.44
236.14	2754.52
236.36	3080.14
236.58	2369.50
236.79	2645.98
237.01	2746.33
237.23	2709.46
237.45	2756.57
237.67	2525.15
237.88	2762.71
238.10	3010.51
238.32	2445.27
238.54	2541.53
238.76	2725.85
238.97	2576.34
239.19	2498.52
239.41	2562.01
239.63	2809.81
239.85	2645.98
240.06	2588.63
240.28	2455.51
240.50	2883.54
240.72	2693.08
240.93	2514.91
241.15	2576.34
241.37	2699.22
241.59	2918.36
241.81	2463.71
242.02	2502.62
242.24	2748.37
242.46	2789.33
242.68	2420.70
242.89	2482.14
243.11	2869.20
243.33	2762.71
243.55	2519.00
243.76	2596.82
243.98	2627.54
244.20	2744.28
244.42	2547.67
244.64	2547.67
244.85	2443.23
245.07	2568.15
245.29	2537.43
245.51	2592.73
245.72	2699.22
245.94	2858.96
246.16	2568.15
246.38	2527.19
246.59	2654.17
246.81	2658.26
247.03	2457.56
247.24	2426.84
247.46	2605.02
247.68	2693.08
247.90	2453.47
248.11	2469.85
248.33	2865.11
248.55	2717.65
248.77	2635.74
248.98	2578.39
249.20	3071.95
249.42	2750.42
249.64	2473.95
249.85	2609.11
250.07	2609.11
250.29	2822.10
250.50	2555.86
250.72	2400.22
250.94	2828.24
251.16	3084.24
251.37	2502.62
251.59	2582.49
251.81	2781.14
252.02	2897.88
252.24	2449.37
252.46	2609.11
252.68	2596.82
252.89	2623.45
253.11	2367.45
253.33	2621.40
253.54	2883.54
253.76	2512.86
253.98	2535.39
254.20	2523.10
254.41	2535.39
254.63	2686.94
254.85	2422.75
255.06	2611.16
255.28	2807.77
255.50	2631.64
255.71	2486.23
255.93	2375.64
256.15	2666.46
256.36	2795.48
256.58	2441.18
256.80	2506.71
257.02	2752.47
257.23	2637.78
257.45	2596.82
257.67	2602.97
257.88	2564.06
258.10	2805.72
258.32	2471.90
258.53	2570.20
258.75	2912.21
258.97	2641.88
259.18	2447.32
259.40	2500.57
259.62	2969.55
259.83	2867.16
260.05	2529.24
260.27	3162.06
260.48	2824.15
260.70	2564.06
260.92	2383.84
261.13	2490.33
261.35	2777.05
261.57	2824.15
261.78	2430.94
262.00	2533.34
262.22	2758.61
262.43	2592.73
262.65	2545.63
262.86	2557.91
263.08	3071.95
263.30	2762.71
263.51	2338.78
263.73	2533.34
263.95	3043.28
264.16	2609.11
264.38	2416.60
264.60	2426.84
264.81	2731.99
265.03	2863.06
265.25	2836.44
265.46	2469.85
265.68	2961.36
265.89	2840.53
266.11	2355.16
266.33	2514.91
266.54	2899.92
266.76	2834.39
266.98	2535.39
267.19	2600.92
267.41	2895.83
267.62	2727.89
267.84	2359.26
268.06	2506.71
268.27	2705.37
268.49	2908.12
268.70	2502.62
268.92	2596.82
269.14	2615.26
269.35	2613.21
269.57	2572.25
269.79	2543.58
270.00	2648.02
270.22	3008.47
270.43	2437.08
270.65	2324.44
270.87	2787.29
271.08	2881.49
271.30	2594.78
271.51	2482.14
271.73	2781.14
271.95	2953.17
272.16	2494.43
272.38	2568.15
272.59	2652.12
272.81	2830.29
273.02	2514.91
273.24	2512.86
273.46	2944.98
273.67	2607.06
273.89	2432.99
274.10	2545.63
274.32	2893.78
274.54	2719.70
274.75	2555.86
274.97	2562.01
275.18	2789.33
275.40	2818.00
275.61	2555.86
275.83	2656.22
276.05	2580.44
276.26	2682.84
276.48	2611.16
276.69	2566.10
276.91	2693.08
277.12	2858.96
277.34	2641.88
277.55	2721.75
277.77	2693.08
277.99	2660.31
278.20	2572.25
278.42	2543.58
278.63	2539.48
278.85	2566.10
279.06	2496.47
279.28	2617.30
279.49	2861.01
279.71	2811.86
279.93	2727.89
280.14	2625.50
280.36	2631.64
280.57	2777.05
280.79	2639.83
281.00	2508.76
281.22	2643.93
281.43	2770.90
281.65	2404.32
281.86	2449.37
282.08	2740.18
282.29	2998.23
282.51	2406.36
282.73	2539.48
282.94	2525.15
283.16	2861.01
283.37	2760.66
283.59	2645.98
283.80	2750.42
284.02	2703.32
284.23	2674.65
284.45	2600.92
284.66	2623.45
284.88	2656.22
285.09	2674.65
285.31	2736.09
285.52	2799.57
285.74	2475.99
285.95	2822.10
286.17	2658.26
286.38	2881.49
286.60	2607.06
286.81	2531.29
287.03	2580.44
287.24	2762.71
287.46	2836.44
287.67	2711.51
287.89	2805.72
288.10	2740.18
288.32	2654.17
288.53	2783.19
288.75	2652.12
288.96	2848.72
289.18	2578.39
289.39	2555.86
289.61	2701.27
289.82	3020.75
290.04	3014.61
290.25	2537.43
290.47	2637.78
290.68	2650.07
290.90	2863.06
291.11	2498.52
291.33	2760.66
291.54	2656.22
291.76	2684.89
291.97	2629.59
292.18	2609.11
292.40	2592.73
292.61	2660.31
292.83	2891.73
293.04	2680.79
293.26	2758.61
293.47	2672.60
293.69	2490.33
293.90	2510.81
294.12	2944.98
294.33	2709.46
294.55	2654.17
294.76	2703.32
294.97	2990.03
295.19	3063.76
295.40	2562.01
295.62	2719.70
295.83	2936.79
296.05	2701.27
296.26	2785.24
296.48	2578.39
296.69	2760.66
296.90	2731.99
297.12	2697.17
297.33	2777.05
297.55	2775.00
297.76	2797.53
297.98	2619.35
298.19	2654.17
298.41	2707.41
298.62	2545.63
298.83	2715.61
299.05	2738.13
299.26	2633.69
299.48	2572.25
299.69	2715.61
299.90	2590.68
300.12	2588.63
300.33	2838.48
300.55	2623.45
300.76	2627.54
300.98	2588.63
301.19	2850.77
301.40	2596.82
301.62	2539.48
301.83	2777.05
302.05	2770.90
302.26	2559.96
302.47	2648.02
302.69	2602.97
302.90	2795.48
303.12	2457.56
303.33	2738.13
303.54	2979.79
303.76	2717.65
303.97	2547.67
304.19	2801.62
304.40	2564.06
304.61	2756.57
304.83	2783.19
305.04	2717.65
305.26	2783.19
305.47	2676.70
305.68	2668.50
305.90	2555.86
306.11	2901.97
306.33	2670.55
306.54	2523.10
306.75	2564.06
306.97	2480.09
307.18	2586.58
307.39	2500.57
307.61	2688.98
307.82	2746.33
308.04	2867.16
308.25	2502.62
308.46	2731.99
308.68	2691.03
308.89	2670.55
309.10	2750.42
309.32	2658.26
309.53	2684.89
309.74	2861.01
309.96	2553.82
310.17	2719.70
310.39	2625.50
310.60	2818.00
310.81	2619.35
311.03	2562.01
311.24	2834.39
311.45	2740.18
311.67	2785.24
311.88	2674.65
312.09	2643.93
312.31	2596.82
312.52	2531.29
312.73	2539.48
312.95	2473.95
313.16	2623.45
313.37	2807.77
313.59	2729.94
313.80	2840.53
314.01	2936.79
314.23	2576.34
314.44	2496.47
314.65	2510.81
314.87	2572.25
315.08	2555.86
315.29	2656.22
315.51	2602.97
315.72	2514.91
315.93	2754.52
316.15	2744.28
316.36	2711.51
316.57	2734.04
316.79	2672.60
317.00	2584.54
317.21	2813.91
317.43	2562.01
317.64	2652.12
317.85	2525.15
318.07	2664.41
318.28	2648.02
318.49	2740.18
318.70	2891.73
318.92	2836.44
319.13	2813.91
319.34	2818.00
319.56	2623.45
319.77	2764.76
319.98	2846.68
320.20	2856.92
320.41	2725.85
320.62	2783.19
320.83	2596.82
321.05	2752.47
321.26	2602.97
321.47	2768.85
321.69	2834.39
321.90	2506.71
322.11	2482.14
322.32	2756.57
322.54	2844.63
322.75	2615.26
322.96	3153.87
323.18	2605.02
323.39	2465.75
323.60	2531.29
323.81	2742.23
324.03	2553.82
324.24	2721.75
324.45	2652.12
324.66	2572.25
324.88	2799.57
325.09	2967.51
325.30	2584.54
325.52	2510.81
325.73	2764.76
325.94	2582.49
326.15	2510.81
326.37	2508.76
326.58	2848.72
326.79	2967.51
327.00	2539.48
327.22	2686.94
327.43	2676.70
327.64	2555.86
327.85	2723.80
328.07	2623.45
328.28	3067.86
328.49	2650.07
328.70	2531.29
328.92	2738.13
329.13	2729.94
329.34	2748.37
329.55	2822.10
329.76	2740.18
329.98	2701.27
330.19	2846.68
330.40	2711.51
330.61	2656.22
330.83	2783.19
331.04	2553.82
331.25	2643.93
331.46	2621.40
331.68	2541.53
331.89	2867.16
332.10	2578.39
332.31	2449.37
332.52	2805.72
332.74	2850.77
332.95	2471.90
333.16	2605.02
333.37	2914.26
333.58	2617.30
333.80	2660.31
334.01	2394.08
334.22	2654.17
334.43	2617.30
334.64	2549.72
334.86	2508.76
335.07	2562.01
335.28	2918.36
335.49	2451.42
335.70	2676.70
335.92	2949.08
336.13	3059.67
336.34	2643.93
336.55	2592.73
336.76	2805.72
336.98	2420.70
337.19	2660.31
337.40	2740.18
337.61	3121.10
337.82	2691.03
338.04	2740.18
338.25	2406.36
338.46	2750.42
338.67	2734.04
338.88	2498.52
339.09	2482.14
339.31	2680.79
339.52	2598.87
339.73	2496.47
339.94	2676.70
340.15	2832.34
340.36	2584.54
340.58	2582.49
340.79	2572.25
341.00	2807.77
341.21	2547.67
341.42	2893.78
341.63	2598.87
341.85	2981.84
342.06	2781.14
342.27	2514.91
342.48	2672.60
342.69	2514.91
342.90	2832.34
343.12	2803.67
343.33	2617.30
343.54	2885.59
343.75	2918.36
343.96	2596.82
344.17	2514.91
344.38	2666.46
344.60	2613.21
344.81	2580.44
345.02	2637.78
345.23	2930.64
345.44	3078.10
345.65	2637.78
345.86	2703.32
346.07	2752.47
346.29	2605.02
346.50	2658.26
346.71	2678.74
346.92	2949.08
347.13	2979.79
347.34	2777.05
347.55	2535.39
347.76	2830.29
347.98	2523.10
348.19	2602.97
348.40	2777.05
348.61	2680.79
348.82	2973.65
349.03	2662.36
349.24	2453.47
349.45	2994.13
349.66	2445.27
349.88	2588.63
350.09	2500.57
350.30	2873.30
350.51	2875.35
350.72	2746.33
350.93	2656.22
351.14	2691.03
351.35	2797.53
351.56	2668.50
351.77	2676.70
351.99	2832.34
352.20	2889.68
352.41	2707.41
352.62	2392.03
352.83	2787.29
353.04	2682.84
353.25	2502.62
353.46	2662.36
353.67	2977.75
353.88	2447.32
354.09	2582.49
354.30	2580.44
354.52	2797.53
354.73	2715.61
354.94	2584.54
355.15	2619.35
355.36	2996.18
355.57	2611.16
355.78	2533.34
355.99	2648.02
356.20	2650.07
356.41	2815.96
356.62	2617.30
356.83	2691.03
357.04	2856.92
357.25	2551.77
357.46	2664.41
357.68	2525.15
357.89	2596.82
358.10	2736.09
358.31	2592.73
358.52	2574.30
358.73	2584.54
358.94	2631.64
359.15	2562.01
359.36	2703.32
359.57	2752.47
359.78	2695.13
359.99	2760.66
360.20	2582.49
360.41	2731.99
360.62	2834.39
360.83	2656.22
361.04	2674.65
361.25	2836.44
361.46	2926.55
361.67	2715.61
361.88	2664.41
362.09	2815.96
362.30	2783.19
362.51	2580.44
362.72	2617.30
362.93	2738.13
363.14	2813.91
363.35	2590.68
363.56	2490.33
363.78	2908.12
363.99	2879.44
364.20	2557.91
364.41	2695.13
364.62	2990.03
364.83	2711.51
365.04	2666.46
365.25	2691.03
365.46	3119.06
365.67	2645.98
365.88	2607.06
366.09	2582.49
366.30	2674.65
366.51	2703.32
366.72	2553.82
366.93	2635.74
367.14	2740.18
367.35	2906.07
367.56	2574.30
367.77	2779.09
367.98	2744.28
368.18	2697.17
368.39	2641.88
368.60	2572.25
368.81	2840.53
369.02	2818.00
369.23	2666.46
369.44	2455.51
369.65	2693.08
369.86	2852.82
370.07	2772.95
370.28	2547.67
370.49	2772.95
370.70	2764.76
370.91	2486.23
371.12	2475.99
371.33	2863.06
371.54	2697.17
371.75	2740.18
371.96	2295.77
372.17	2709.46
372.38	2676.70
372.59	2688.98
372.80	2545.63
373.01	2637.78
373.22	2695.13
373.43	2621.40
373.64	2512.86
373.85	2877.40
374.06	2985.94
374.26	2815.96
374.47	2744.28
374.68	3014.61
374.89	2709.46
375.10	2629.59
375.31	2703.32
375.52	2752.47
375.73	2768.85
375.94	2541.53
376.15	2779.09
376.36	2551.77
376.57	2613.21
376.78	2529.24
376.99	2600.92
377.20	2979.79
377.40	2688.98
377.61	2867.16
377.82	2572.25
378.03	2969.55
378.24	2731.99
378.45	2605.02
378.66	2723.80
378.87	2486.23
379.08	2519.00
379.29	2627.54
379.50	2691.03
379.71	2611.16
379.91	2830.29
380.12	2584.54
380.33	2691.03
380.54	2746.33
380.75	2676.70
380.96	2531.29
381.17	2709.46
381.38	2715.61
381.59	2752.47
381.80	2592.73
382.00	2801.62
382.21	2766.81
382.42	2959.31
382.63	2961.36
382.84	2717.65
383.05	2842.58
383.26	2949.08
383.47	2666.46
383.68	2611.16
383.88	2805.72
384.09	2758.61
384.30	2850.77
384.51	2682.84
384.72	2656.22
384.93	2494.43
385.14	2648.02
385.35	2760.66
385.55	2557.91
385.76	2891.73
385.97	2680.79
386.18	2473.95
386.39	2629.59
386.60	2684.89
386.81	2660.31
387.02	2516.95
387.22	2605.02
387.43	2801.62
387.64	2643.93
387.85	2858.96
388.06	2834.39
388.27	4032.45
388.48	7485.33
388.68	10817.37
388.89	13319.99
389.10	14575.39
389.31	13653.81
389.52	10987.35
389.73	9443.18
389.93	8683.39
390.14	7843.72
390.35	7116.69
390.56	6477.73
390.77	5181.36
390.98	4184.00
391.18	3442.64
391.39	3153.87
391.60	2711.51
391.81	2711.51
392.02	2596.82
392.23	3121.10
392.43	2676.70
392.64	2762.71
392.85	2674.65
393.06	2983.89
393.27	2731.99
393.47	2605.02
393.68	2744.28
393.89	2621.40
394.10	2918.36
394.31	2555.86
394.52	2590.68
394.72	2637.78
394.93	2953.17
395.14	2549.72
395.35	2686.94
395.56	2633.69
395.76	2725.85
395.97	2623.45
396.18	2703.32
396.39	2785.24
396.60	3299.28
396.80	2840.53
397.01	2736.09
397.22	2770.90
397.43	2924.50
397.64	2545.63
397.84	2734.04
398.05	3112.91
398.26	2623.45
398.47	2752.47
398.67	2828.24
398.88	2762.71
399.09	2799.57
399.30	2578.39
399.51	2699.22
399.71	2588.63
399.92	2680.79
400.13	2727.89
400.34	2617.30
400.54	2822.10
400.75	2975.70
400.96	2676.70
401.17	2959.31
401.37	2885.59
401.58	2760.66
401.79	2523.10
402.00	2760.66
402.21	3153.87
402.41	2920.40
402.62	3041.23
402.83	3033.04
403.04	3137.49
403.24	3325.90
403.45	2711.51
403.66	2944.98
403.87	2899.92
404.07	2985.94
404.28	2887.64
404.49	2891.73
404.70	2699.22
404.90	2852.82
405.11	2668.50
405.32	2721.75
405.52	2625.50
405.73	2645.98
405.94	2559.96
406.15	2703.32
406.35	2805.72
406.56	2832.34
406.77	2727.89
406.98	2686.94
407.18	2709.46
407.39	2912.21
407.60	2643.93
407.80	2688.98
408.01	2654.17
408.22	2760.66
408.43	2650.07
408.63	2678.74
408.84	2951.12
409.05	2818.00
409.25	2504.67
409.46	2590.68
409.67	2662.36
409.88	2703.32
410.08	2688.98
410.29	2596.82
410.50	2793.43
410.70	2811.86
410.91	2537.43
411.12	2731.99
411.32	2707.41
411.53	2682.84
411.74	2666.46
411.95	2717.65
412.15	2795.48
412.36	2846.68
412.57	2777.05
412.77	2801.62
412.98	2717.65
413.19	2605.02
413.39	2717.65
413.60	2615.26
413.81	2936.79
414.01	2625.50
414.22	2711.51
414.43	2809.81
414.63	2617.30
414.84	2809.81
415.05	2658.26
415.25	2453.47
415.46	2813.91
415.67	2658.26
415.87	2584.54
416.08	2529.24
416.29	2664.41
416.49	2830.29
416.70	2611.16
416.91	2627.54
417.11	2709.46
417.32	2922.45
417.53	2760.66
417.73	2715.61
417.94	2744.28
418.15	2703.32
418.35	2607.06
418.56	2600.92
418.77	3071.95
418.97	2701.27
419.18	2609.11
419.38	2381.79
419.59	2748.37
419.80	2906.07
420.00	2713.56
420.21	2529.24
420.42	2914.26
420.62	2828.24
420.83	2580.44
421.04	2609.11
421.24	2654.17
421.45	2787.29
421.65	2731.99
421.86	2598.87
422.07	2811.86
422.27	2799.57
422.48	2658.26
422.69	2547.67
422.89	2691.03
423.10	2678.74
423.30	2582.49
423.51	2656.22
423.72	2838.48
423.92	2815.96
424.13	2510.81
424.33	2770.90
424.54	2799.57
424.75	2764.76
424.95	2887.64
425.16	2619.35
425.36	2693.08
425.57	2834.39
425.78	2787.29
425.98	2721.75
426.19	2670.55
426.39	2609.11
426.60	2770.90
426.81	2760.66
427.01	2797.53
427.22	2637.78
427.42	2416.60
427.63	2578.39
427.83	2893.78
428.04	2955.22
428.25	2727.89
428.45	2820.05
428.66	2983.89
428.86	2660.31
429.07	2674.65
429.28	2617.30
429.48	2781.14
429.69	2594.78
429.89	2734.04
430.10	2539.48
430.30	2822.10
430.51	2891.73
430.71	2621.40
430.92	2668.50
431.13	2633.69
431.33	2805.72
431.54	2738.13
431.74	2785.24
431.95	3090.38
432.15	2545.63
432.36	2625.50
432.56	2723.80
432.77	3033.04
432.98	2916.31
433.18	2736.09
433.39	2596.82
433.59	2662.36
433.80	2969.55
434.00	2842.58
434.21	2678.74
434.41	2648.02
434.62	3071.95
434.82	2559.96
435.03	2570.20
435.23	2744.28
435.44	2484.19
435.64	2635.74
435.85	2674.65
436.06	2858.96
436.26	2949.08
436.47	2611.16
436.67	2553.82
436.88	2729.94
437.08	2934.74
437.29	2799.57
437.49	2648.02
437.70	2920.40
437.90	2697.17
438.11	2871.25
438.31	2740.18
438.52	2912.21
438.72	2901.97
438.93	2916.31
439.13	2654.17
439.34	2875.35
439.54	2662.36
439.75	2731.99
439.95	2734.04
440.16	2645.98
440.36	2664.41
440.57	2617.30
440.77	2701.27
440.98	2693.08
441.18	2752.47
441.39	2549.72
441.59	2383.84
441.80	3022.80
442.00	2729.94
442.21	2766.81
442.41	2498.52
442.62	2873.30
442.82	2637.78
443.02	2652.12
443.23	2693.08
443.43	2590.68
443.64	2854.87
443.84	2531.29
444.05	2781.14
444.25	2734.04
444.46	2670.55
444.66	2611.16
444.87	2932.69
445.07	2506.71
445.28	2668.50
445.48	2785.24
445.69	2734.04
445.89	3053.52
446.09	2723.80
446.30	3024.85
446.50	3127.25
446.71	4577.21
446.91	5623.72
447.12	6541.21
447.32	6793.11
447.53	6469.53
447.73	5552.04
447.93	4771.77
448.14	4511.68
448.34	4421.56
448.55	3807.17
448.75	3911.62
448.96	3635.14
449.16	3366.86
449.36	3274.70
449.57	2865.11
449.77	2736.09
449.98	2658.26
450.18	2834.39
450.39	2635.74
450.59	2762.71
450.79	2775.00
451.00	2701.27
451.20	2760.66
451.41	2600.92
451.61	2809.81
451.81	2721.75
452.02	2564.06
452.22	2703.32
452.43	2654.17
452.63	2594.78
452.84	2674.65
453.04	2656.22
453.24	2697.17
453.45	2533.34
453.65	2635.74
453.86	2643.93
454.06	2750.42
454.26	2754.52
454.47	2519.00
454.67	2869.20
454.87	2832.34
455.08	2602.97
455.28	2830.29
455.49	2727.89
455.69	2596.82
455.89	3069.91
456.10	2670.55
456.30	2564.06
456.51	2869.20
456.71	2746.33
456.91	2736.09
457.12	2668.50
457.32	2752.47
457.52	2576.34
457.73	2736.09
457.93	2785.24
458.14	2605.02
458.34	2486.23
458.54	2670.55
458.75	2541.53
458.95	2908.12
459.15	2676.70
459.36	2695.13
459.56	2654.17
459.76	3057.62
459.97	2762.71
460.17	2662.36
460.37	2736.09
460.58	2785.24
460.78	2760.66
460.99	2611.16
461.19	2615.26
461.39	2660.31
461.60	2701.27
461.80	2742.23
462.00	2529.24
462.21	2686.94
462.41	2639.83
462.61	2559.96
462.82	2430.94
463.02	2770.90
463.22	2750.42
463.43	2734.04
463.63	2598.87
463.83	2983.89
464.04	2793.43
464.24	2613.21
464.44	2580.44
464.64	2684.89
464.85	2914.26
465.05	2678.74
465.25	2639.83
465.46	2619.35
465.66	2797.53
465.86	2756.57
466.07	2641.88
466.27	2762.71
466.47	2613.21
466.68	2527.19
466.88	2813.91
467.08	2891.73
467.29	2850.77
467.49	2754.52
467.69	2686.94
467.89	2785.24
468.10	2629.59
468.30	2715.61
468.50	2768.85
468.71	2901.97
468.91	2482.14
469.11	2830.29
469.31	2660.31
469.52	2555.86
469.72	3039.19
469.92	2998.23
470.13	2596.82
470.33	2752.47
470.53	2777.05
470.73	2998.23
470.94	3295.18
471.14	3499.98
471.34	3915.72
471.54	3680.20
471.75	3336.14
471.95	3155.92
472.15	3071.95
472.36	3219.41
472.56	3043.28
472.76	3108.82
472.96	2998.23
473.17	2875.35
473.37	2813.91
473.57	2629.59
473.77	2805.72
473.98	2729.94
474.18	2508.76
474.38	3178.45
474.58	2570.20
474.79	2537.43
474.99	2715.61
475.19	2803.67
475.39	2537.43
475.60	2781.14
475.80	2562.01
476.00	2756.57
476.20	2605.02
476.41	2701.27
476.61	2723.80
476.81	2897.88
477.01	2617.30
477.21	2869.20
477.42	2811.86
477.62	2557.91
477.82	2818.00
478.02	2605.02
478.23	2736.09
478.43	2623.45
478.63	2729.94
478.83	2707.41
479.03	2609.11
479.24	2928.60
479.44	3000.27
479.64	2562.01
479.84	2389.98
480.04	2596.82
480.25	2781.14
480.45	2539.48
480.65	2598.87
480.85	2856.92
481.06	2699.22
481.26	2711.51
481.46	2678.74
481.66	2740.18
481.86	2576.34
482.06	2858.96
482.27	2705.37
482.47	2619.35
482.67	2846.68
482.87	2650.07
483.07	2770.90
483.28	2576.34
483.48	2621.40
483.68	2662.36
483.88	2559.96
484.08	2449.37
484.29	2553.82
484.49	2652.12
484.69	2422.75
484.89	2934.74
485.09	2861.01
485.29	2709.46
485.50	2723.80
485.70	2621.40
485.90	2979.79
486.10	2775.00
486.30	2688.98
486.50	2973.65
486.71	2781.14
486.91	2785.24
487.11	2752.47
487.31	2605.02
487.51	2826.20
487.71	2590.68
487.91	2592.73
488.12	2613.21
488.32	2392.03
488.52	2568.15
488.72	2453.47
488.92	2736.09
489.12	2840.53
489.32	2834.39
489.53	2740.18
489.73	2541.53
489.93	2938.84
490.13	2568.15
490.33	2514.91
490.53	2764.76
490.73	3006.42
490.94	2553.82
491.14	2748.37
491.34	2871.25
491.54	2891.73
491.74	3495.88
491.94	4057.03
492.14	4399.04
492.34	4286.40
492.54	4114.37
492.75	3538.89
492.95	3647.43
493.15	3397.58
493.35	3278.80
493.55	3174.35
493.75	3096.53
493.95	3241.93
494.15	2865.11
494.35	2717.65
494.56	2746.33
494.76	2686.94
494.96	2734.04
495.16	2678.74
495.36	2703.32
495.56	2746.33
495.76	2695.13
495.96	2697.17
496.16	2691.03
496.36	2926.55
496.56	2676.70
496.77	2693.08
496.97	2703.32
497.17	2949.08
497.37	2469.85
497.57	2752.47
497.77	2797.53
497.97	2547.67
498.17	2645.98
498.37	2629.59
498.57	2791.38
498.77	2623.45
498.97	2838.48
499.17	2904.02
499.38	2734.04
499.58	2721.75
499.78	2744.28
499.98	2807.77
500.18	2621.40
500.38	2588.63
500.58	2850.77
500.78	3215.31
500.98	5437.36
501.18	7268.24
501.38	8697.72
501.58	9537.39
501.78	9457.52
501.98	7554.96
502.18	6498.20
502.38	5568.43
502.58	5287.86
502.78	4784.06
502.98	4716.47
503.18	4468.67
503.38	4216.77
503.59	3540.94
503.79	3442.64
503.99	3194.83
504.19	3231.69
504.39	3170.26
504.59	3162.06
504.79	3110.86
504.99	3196.88
505.19	2973.65
505.39	2875.35
505.59	3041.23
505.79	3051.47
505.99	2861.01
506.19	2633.69
506.39	2953.17
506.59	2615.26
506.79	2695.13
506.99	2695.13
507.19	2652.12
507.39	2760.66
507.59	2572.25
507.79	2641.88
507.99	2586.58
508.19	2719.70
508.39	2756.57
508.59	2725.85
508.79	2785.24
508.99	3018.71
509.19	2672.60
509.39	2754.52
509.59	2625.50
509.79	2611.16
509.99	2727.89
510.19	2744.28
510.39	2719.70
510.59	2768.85
510.79	2615.26
510.99	2478.04
511.19	2656.22
511.39	2981.84
511.59	2932.69
511.79	2830.29
511.99	2613.21
512.19	2914.26
512.38	2719.70
512.58	2475.99
512.78	2648.02
512.98	2873.30
513.18	2985.94
513.38	2555.86
513.58	2693.08
513.78	2635.74
513.98	2727.89
514.18	2625.50
514.38	2611.16
514.58	2695.13
514.78	2619.35
514.98	2559.96
515.18	2682.84
515.38	2643.93
515.58	2996.18
515.78	2613.21
515.98	2652.12
516.18	2805.72
516.38	2693.08
516.57	2654.17
516.77	2617.30
516.97	2779.09
517.17	2648.02
517.37	2416.60
517.57	2736.09
517.77	2727.89
517.97	2580.44
518.17	2731.99
518.37	2596.82
518.57	2643.93
518.77	2627.54
518.97	2678.74
519.16	2709.46
519.36	2928.60
519.56	2652.12
519.76	2633.69
519.96	2693.08
520.16	2953.17
520.36	2623.45
520.56	2713.56
520.76	2629.59
520.96	2639.83
521.16	2838.48
521.35	2844.63
521.55	2867.16
521.75	2748.37
521.95	2666.46
522.15	2600.92
522.35	2471.90
522.55	2613.21
522.75	2856.92
522.95	2572.25
523.14	2508.76
523.34	2742.23
523.54	2635.74
523.74	2770.90
523.94	2744.28
524.14	2535.39
524.34	2762.71
524.54	2826.20
524.73	2672.60
524.93	2785.24
525.13	2815.96
525.33	2465.75
525.53	2891.73
525.73	2832.34
525.93	2721.75
526.13	2645.98
526.32	2555.86
526.52	2863.06
526.72	2858.96
526.92	2637.78
527.12	2555.86
527.32	2441.18
527.52	2756.57
527.71	2660.31
527.91	2625.50
528.11	2670.55
528.31	2791.38
528.51	2564.06
528.71	2801.62
528.90	2791.38
529.10	2916.31
529.30	2746.33
529.50	2424.80
529.70	2727.89
529.90	2703.32
530.09	2662.36
530.29	2533.34
530.49	2596.82
530.69	3119.06
530.89	2734.04
531.09	2715.61
531.28	2652.12
531.48	2801.62
531.68	2711.51
531.88	2705.37
532.08	2867.16
532.28	2729.94
532.47	2752.47
532.67	2807.77
532.87	2795.48
533.07	2596.82
533.27	2731.99
533.46	2777.05
533.66	2783.19
533.86	2697.17
534.06	2693.08
534.26	2672.60
534.45	2670.55
534.65	2846.68
534.85	2684.89
535.05	2629.59
535.25	2908.12
535.44	2504.67
535.64	2711.51
535.84	2584.54
536.04	2643.93
536.24	2707.41
536.43	2645.98
536.63	2772.95
536.83	2752.47
537.03	2707.41
537.22	2484.19
537.42	2371.55
537.62	2660.31
537.82	2590.68
538.02	2856.92
538.21	2678.74
538.41	3190.74
538.61	2801.62
538.81	2637.78
539.00	2746.33
539.20	2568.15
539.40	2686.94
539.60	2660.31
539.79	2789.33
539.99	2688.98
540.19	2701.27
540.39	2672.60
540.58	2637.78
540.78	2867.16
540.98	2723.80
541.18	2834.39
541.37	2662.36
541.57	2734.04
541.77	2727.89
541.97	2521.05
542.16	2430.94
542.36	2664.41
542.56	2686.94
542.76	2877.40
542.95	2727.89
543.15	2867.16
543.35	2881.49
543.54	2529.24
543.74	2617.30
543.94	2947.03
544.14	2748.37
544.33	2754.52
544.53	2596.82
544.73	2695.13
544.93	2766.81
545.12	2592.73
545.32	2633.69
545.52	2734.04
545.71	2480.09
545.91	2666.46
546.11	2613.21
546.30	2508.76
546.50	2772.95
546.70	2645.98
546.90	2654.17
547.09	2496.47
547.29	2805.72
547.49	2770.90
547.68	2654.17
547.88	2625.50
548.08	2770.90
548.27	3071.95
548.47	2594.78
548.67	2645.98
548.87	2820.05
549.06	2664.41
549.26	2643.93
549.46	2795.48
549.65	2695.13
549.85	2686.94
550.05	2695.13
550.24	2531.29
550.44	2707.41
550.64	2750.42
550.83	2648.02
551.03	2951.12
551.23	2801.62
551.42	2742.23
551.62	2596.82
551.82	2779.09
552.01	2631.64
552.21	2910.16
552.41	2672.60
552.60	2920.40
552.80	2717.65
553.00	2586.58
553.19	2654.17
553.39	2983.89
553.59	2545.63
553.78	2766.81
553.98	2736.09
554.17	2553.82
554.37	2805.72
554.57	2770.90
554.76	2437.08
554.96	2613.21
555.16	2717.65
555.35	2664.41
555.55	2752.47
555.75	2734.04
555.94	2828.24
556.14	2502.62
556.33	2684.89
556.53	2645.98
556.73	2734.04
556.92	2699.22
557.12	2744.28
557.32	3020.75
557.51	3020.75
557.71	2633.69
557.90	2865.11
558.10	2977.75
558.30	2641.88
558.49	2701.27
558.69	2637.78
558.88	2775.00
559.08	2801.62
559.28	2613.21
559.47	2731.99
559.67	2799.57
559.86	3024.85
560.06	2641.88
560.26	2682.84
560.45	2832.34
560.65	2688.98
560.84	2877.40
561.04	2527.19
561.24	2840.53
561.43	2629.59
561.63	2861.01
561.82	2693.08
562.02	2836.44
562.22	2641.88
562.41	2533.34
562.61	2623.45
562.80	2592.73
563.00	3151.82
563.19	2723.80
563.39	2729.94
563.59	2891.73
563.78	2605.02
563.98	2422.75
564.17	2625.50
564.37	2529.24
564.56	2662.36
564.76	2551.77
564.96	2754.52
565.15	2762.71
565.35	3076.05
565.54	2572.25
565.74	2731.99
565.93	2877.40
566.13	2754.52
566.32	2645.98
566.52	2750.42
566.71	2838.48
566.91	2873.30
567.11	2727.89
567.30	2625.50
567.50	2801.62
567.69	2793.43
567.89	2582.49
568.08	2629.59
568.28	2656.22
568.47	2584.54
568.67	2705.37
568.86	2629.59
569.06	2818.00
569.25	2658.26
569.45	2602.97
569.64	2611.16
569.84	2641.88
570.04	2826.20
570.23	2600.92
570.43	2691.03
570.62	2877.40
570.82	2881.49
571.01	2484.19
571.21	2598.87
571.40	2662.36
571.60	2899.92
571.79	2768.85
571.99	2686.94
572.18	2547.67
572.38	2760.66
572.57	2627.54
572.77	2811.86
572.96	3151.82
573.16	2803.67
573.35	2594.78
573.55	2758.61
573.74	2797.53
573.94	2664.41
574.13	2652.12
574.33	2803.67
574.52	2891.73
574.71	2666.46
574.91	2803.67
575.10	2519.00
575.30	2600.92
575.49	2635.74
575.69	2605.02
575.88	2684.89
576.08	2715.61
576.27	2799.57
576.47	2691.03
576.66	2832.34
576.86	2901.97
577.05	2822.10
577.25	2742.23
577.44	2871.25
577.64	2656.22
577.83	2861.01
578.02	2686.94
578.22	2828.24
578.41	2973.65
578.61	2766.81
578.80	2508.76
579.00	2641.88
579.19	2686.94
579.39	2824.15
579.58	2695.13
579.77	2664.41
579.97	2955.22
580.16	2854.87
580.36	2830.29
580.55	2797.53
580.75	2783.19
580.94	2760.66
581.13	2844.63
581.33	2832.34
581.52	2738.13
581.72	3096.53
581.91	2809.81
582.11	2643.93
582.30	2912.21
582.49	2768.85
582.69	2977.75
582.88	2723.80
583.08	2768.85
583.27	2850.77
583.47	2703.32
583.66	2637.78
583.85	2605.02
584.05	2625.50
584.24	2811.86
584.44	2748.37
584.63	2826.20
584.82	2854.87
585.02	2871.25
585.21	2826.20
585.41	2873.30
585.60	2818.00
585.79	2910.16
585.99	2969.55
586.18	2809.81
586.37	3590.09
586.57	5470.12
586.76	16015.12
586.96	35358.18
587.15	48553.24
587.34	56949.92
587.54	61189.21
587.73	55108.79
587.93	39011.76
588.12	29365.82
588.31	23991.95
588.51	21055.17
588.70	19246.81
588.89	17155.83
589.09	14700.32
589.28	12422.98
589.47	9887.59
589.67	7720.84
589.86	5986.21
590.06	4509.63
590.25	3823.56
590.44	3428.30
590.64	3014.61
590.83	2994.13
591.02	2959.31
591.22	2725.85
591.41	2811.86
591.60	2758.61
591.80	3086.29
591.99	2564.06
592.18	2672.60
592.38	2858.96
592.57	2635.74
592.76	2678.74
592.96	2779.09
593.15	2699.22
593.34	2815.96
593.54	2670.55
593.73	2801.62
593.92	2779.09
594.12	2838.48
594.31	2731.99
594.50	2803.67
594.70	2805.72
594.89	3045.33
595.08	2555.86
595.28	2840.53
595.47	3262.41
595.66	2881.49
595.86	2590.68
596.05	2623.45
596.24	2670.55
596.43	3012.56
596.63	2846.68
596.82	2754.52
597.01	2766.81
597.21	3039.19
597.40	2764.76
597.59	2766.81
597.79	2693.08
597.98	2797.53
598.17	2742.23
598.36	2723.80
598.56	2908.12
598.75	2746.33
598.94	2693.08
599.14	2658.26
599.33	2705.37
599.52	2840.53
599.71	2793.43
599.91	2791.38
600.10	2822.10
600.29	2729.94
600.48	2713.56
600.68	2736.09
600.87	2715.61
601.06	2652.12
601.26	2678.74
601.45	2791.38
601.64	2670.55
601.83	2908.12
602.03	2541.53
602.22	2564.06
602.41	2926.55
602.60	3149.78
602.80	2777.05
602.99	2809.81
603.18	2678.74
603.37	2781.14
603.57	2631.64
603.76	2719.70
603.95	2967.51
604.14	2738.13
604.34	2637.78
604.53	2629.59
604.72	2744.28
604.91	2822.10
605.10	2672.60
605.30	2412.51
605.49	3057.62
605.68	2850.77
605.87	2699.22
606.07	2592.73
606.26	2719.70
606.45	2801.62
606.64	2736.09
606.84	2611.16
607.03	2717.65
607.22	2842.58
607.41	2600.92
607.60	2686.94
607.80	2799.57
607.99	2731.99
608.18	2666.46
608.37	2731.99
608.56	2633.69
608.76	2904.02
608.95	2815.96
609.14	2719.70
609.33	2916.31
609.52	2899.92
609.72	2682.84
609.91	2777.05
610.10	2744.28
610.29	2871.25
610.48	2779.09
610.68	2738.13
610.87	2711.51
611.06	2826.20
611.25	2637.78
611.44	2809.81
611.63	2633.69
611.83	3002.32
612.02	2572.25
612.21	2893.78
612.40	2506.71
612.59	2539.48
612.79	2531.29
612.98	2650.07
613.17	2938.84
613.36	2682.84
613.55	2850.77
613.74	2727.89
613.93	2756.57
614.13	2785.24
614.32	2875.35
614.51	2709.46
614.70	2645.98
614.89	2709.46
615.08	2736.09
615.28	3119.06
615.47	2660.31
615.66	2748.37
615.85	2678.74
616.04	2865.11
616.23	2672.60
616.42	2707.41
616.62	2768.85
616.81	2764.76
617.00	2750.42
617.19	2824.15
617.38	2547.67
617.57	2740.18
617.76	2746.33
617.95	2934.74
618.15	2758.61
618.34	2924.50
618.53	2602.97
618.72	2867.16
618.91	2801.62
619.10	2842.58
619.29	2748.37
619.48	2719.70
619.68	2564.06
619.87	2617.30
620.06	2590.68
620.25	2801.62
620.44	2605.02
620.63	2566.10
620.82	2744.28
621.01	2762.71
621.20	2582.49
621.39	2691.03
621.59	2797.53
621.78	2717.65
621.97	2707.41
622.16	2727.89
622.35	2748.37
622.54	2815.96
622.73	2744.28
622.92	2439.13
623.11	2889.68
623.30	2637.78
623.49	2740.18
623.68	2564.06
623.88	2971.60
624.07	2725.85
624.26	2678.74
624.45	2719.70
624.64	2697.17
624.83	2803.67
625.02	2654.17
625.21	2707.41
625.40	2781.14
625.59	2992.08
625.78	2684.89
625.97	2770.90
626.16	2979.79
626.35	2832.34
626.54	2719.70
626.74	2906.07
626.93	2680.79
627.12	2727.89
627.31	2797.53
627.50	2803.67
627.69	2844.63
627.88	2592.73
628.07	2576.34
628.26	2449.37
628.45	2625.50
628.64	2549.72
628.83	2656.22
629.02	2570.20
629.21	2904.02
629.40	2701.27
629.59	2559.96
629.78	2617.30
629.97	2682.84
630.16	2736.09
630.35	2656.22
630.54	2725.85
630.73	2592.73
630.92	2777.05
631.11	2506.71
631.30	2705.37
631.49	2858.96
631.68	2670.55
631.87	2736.09
632.06	2594.78
632.25	3071.95
632.44	2740.18
632.63	2656.22
632.82	2615.26
633.01	2672.60
633.20	2797.53
633.39	2635.74
633.58	2549.72
633.77	2783.19
633.96	2828.24
634.15	2820.05
634.34	2717.65
634.53	2754.52
634.72	2688.98
634.91	2490.33
635.10	2633.69
635.29	2744.28
635.48	2750.42
635.67	2578.39
635.86	2508.76
636.05	2936.79
636.24	2734.04
636.43	2719.70
636.62	2711.51
636.81	2396.12
637.00	2867.16
637.19	2695.13
637.38	2711.51
637.57	2611.16
637.76	2623.45
637.95	2871.25
638.14	2629.59
638.33	2858.96
638.52	2879.44
638.71	2562.01
638.89	2525.15
639.08	3076.05
639.27	3004.37
639.46	2879.44
639.65	3143.63
639.84	3168.21
640.03	3311.57
640.22	3104.72
640.41	3121.10
640.60	2840.53
640.79	2916.31
640.98	2725.85
641.17	2910.16
641.36	2897.88
641.55	2854.87
641.74	2508.76
641.92	2633.69
642.11	2613.21
642.30	2719.70
642.49	2580.44
642.68	2584.54
642.87	2783.19
643.06	2818.00
643.25	2551.77
643.44	2596.82
643.63	2668.50
643.82	2842.58
644.00	2562.01
644.19	2623.45
644.38	2533.34
644.57	2801.62
644.76	2723.80
644.95	2717.65
645.14	2740.18
645.33	2686.94
645.52	2715.61
645.71	2488.28
645.89	2568.15
646.08	2703.32
646.27	2631.64
646.46	2918.36
646.65	2576.34
646.84	2656.22
647.03	2539.48
647.22	2770.90
647.40	2772.95
647.59	2701.27
647.78	2514.91
647.97	2551.77
648.16	2535.39
648.35	2895.83
648.54	2858.96
648.73	2648.02
648.91	2848.72
649.10	2742.23
649.29	2541.53
649.48	2559.96
649.67	2746.33
649.86	2848.72
650.05	2650.07
650.23	2869.20
650.42	2666.46
650.61	2908.12
650.80	2865.11
650.99	2990.03
651.18	2918.36
651.36	2854.87
651.55	2662.36
651.74	2785.24
651.93	2695.13
652.12	2727.89
652.31	2682.84
652.49	2668.50
652.68	2680.79
652.87	2912.21
653.06	2756.57
653.25	2990.03
653.44	2688.98
653.62	2944.98
653.81	2639.83
654.00	2639.83
654.19	2799.57
654.38	3170.26
654.56	2666.46
654.75	2568.15
654.94	2863.06
655.13	2760.66
655.32	2652.12
655.51	2686.94
655.69	2746.33
655.88	2795.48
656.07	2605.02
656.26	2668.50
656.45	2535.39
656.63	2818.00
656.82	2717.65
657.01	2834.39
657.20	2623.45
657.38	2924.50
657.57	2625.50
657.76	2527.19
657.95	2854.87
658.14	2664.41
658.32	2660.31
658.51	2502.62
658.70	2813.91
658.89	2768.85
659.08	2672.60
659.26	2869.20
659.45	2662.36
659.64	2795.48
659.83	2766.81
660.01	3030.99
660.20	2740.18
660.39	3018.71
660.58	2519.00
660.76	2719.70
660.95	2488.28
661.14	2682.84
661.33	2482.14
661.51	2621.40
661.70	2643.93
661.89	2805.72
662.08	2652.12
662.26	2465.75
662.45	2543.58
662.64	2998.23
662.83	2719.70
663.01	2496.47
663.20	2697.17
663.39	2961.36
663.58	2688.98
663.76	2592.73
663.95	2791.38
664.14	2564.06
664.32	2693.08
664.51	2539.48
664.70	2482.14
664.89	2711.51
665.07	2514.91
665.26	2781.14
665.45	2566.10
665.64	2809.81
665.82	2662.36
666.01	2803.67
666.20	2486.23
666.38	2908.12
666.57	2906.07
666.76	4255.68
666.95	9965.42
667.13	16807.68
667.32	20971.20
667.51	24104.59
667.69	25015.94
667.88	21456.57
668.07	15458.07
668.25	12930.87
668.44	10884.95
668.63	9588.59
668.81	8552.32
669.00	7270.29
669.19	6725.53
669.38	5810.09
669.56	5025.72
669.75	4382.65
669.94	3770.31
670.12	3260.37
670.31	3030.99
670.50	2877.40
670.68	2875.35
670.87	2799.57
671.06	2670.55
671.24	2723.80
671.43	2977.75
671.62	2777.05
671.80	2596.82
671.99	2797.53
672.18	2777.05
672.36	2863.06
672.55	2775.00
672.74	2625.50
672.92	2598.87
673.11	2772.95
673.29	2504.67
673.48	2815.96
673.67	2775.00
673.85	2871.25
674.04	2629.59
674.23	2625.50
674.41	2883.54
674.60	2512.86
674.79	2527.19
674.97	2576.34
675.16	2850.77
675.34	2899.92
675.53	2562.01
675.72	2682.84
675.90	3053.52
676.09	2719.70
676.28	2738.13
676.46	2512.86
676.65	2889.68
676.83	2545.63
677.02	2701.27
677.21	2693.08
677.39	2707.41
677.58	2635.74
677.77	2594.78
677.95	2570.20
678.14	2744.28
678.32	2668.50
678.51	2613.21
678.70	3030.99
678.88	2672.60
679.07	2799.57
679.25	2633.69
679.44	2600.92
679.63	2590.68
679.81	2736.09
680.00	2832.34
680.18	2789.33
680.37	2914.26
680.55	2713.56
680.74	2473.95
680.93	2449.37
681.11	2779.09
681.30	2672.60
681.48	2740.18
681.67	2670.55
681.85	2791.38
682.04	2523.10
682.23	2729.94
682.41	2762.71
682.60	2748.37
682.78	2703.32
682.97	2496.47
683.15	2656.22
683.34	2834.39
683.53	2963.41
683.71	2475.99
683.90	2777.05
684.08	2934.74
684.27	2645.98
684.45	2678.74
684.64	2801.62
684.82	2701.27
685.01	2805.72
685.19	2695.13
685.38	2912.21
685.57	2744.28
685.75	2674.65
685.94	2559.96
686.12	2562.01
686.31	2586.58
686.49	2987.99
686.68	2494.43
686.86	2742.23
687.05	2777.05
687.23	2832.34
687.42	2564.06
687.60	2541.53
687.79	2852.82
687.97	2895.83
688.16	2768.85
688.34	2836.44
688.53	2592.73
688.71	2783.19
688.90	2879.44
689.08	2662.36
689.27	2535.39
689.45	2793.43
689.64	2768.85
689.82	2709.46
690.01	2752.47
690.19	2740.18
690.38	2791.38
690.56	2789.33
690.75	2547.67
690.93	2641.88
691.12	2666.46
691.30	2613.21
691.49	2576.34
691.67	2785.24
691.86	2953.17
692.04	2736.09
692.23	2707.41
692.41	2709.46
692.60	3000.27
692.78	2881.49
692.97	2643.93
693.15	2795.48
693.34	2895.83
693.52	2807.77
693.71	2574.30
693.89	2629.59
694.08	2516.95
694.26	2709.46
694.44	2828.24
694.63	2824.15
694.81	2555.86
695.00	2695.13
695.18	2856.92
695.37	3188.69
695.55	2684.89
695.74	2652.12
695.92	2613.21
696.10	2942.93
696.29	2443.23
696.47	2633.69
696.66	2670.55
696.84	2516.95
697.03	2686.94
697.21	2840.53
697.40	4157.38
697.58	2846.68
697.76	2674.65
697.95	2572.25
698.13	2551.77
698.32	2611.16
698.50	2617.30
698.68	2699.22
698.87	2777.05
699.05	2877.40
699.24	2580.44
699.42	2641.88
699.61	2740.18
699.79	2703.32
699.97	2645.98
700.16	2549.72
700.34	2551.77
700.53	2734.04
700.71	2889.68
700.89	2824.15
701.08	2650.07
701.26	2668.50
701.45	3110.86
701.63	2535.39
701.81	2613.21
702.00	2605.02
702.18	2672.60
702.37	2686.94
702.55	2969.55
702.73	2723.80
702.92	2627.54
703.10	2949.08
703.28	2924.50
703.47	2652.12
703.65	2826.20
703.84	2883.54
704.02	2631.64
704.20	2940.88
704.39	2621.40
704.57	2629.59
704.75	2793.43
704.94	2858.96
705.12	2709.46
705.30	3096.53
705.49	5980.07
705.67	11806.54
705.86	17846.00
706.04	20264.65
706.22	22812.32
706.41	22322.86
706.59	17633.01
706.77	13264.69
706.96	11523.92
707.14	10372.96
707.32	8810.36
707.51	7909.26
707.69	6360.99
707.87	5334.96
708.06	4538.30
708.24	3936.20
708.42	3334.09
708.61	3401.68
708.79	2736.09
708.97	2801.62
709.16	2885.59
709.34	2809.81
709.52	2637.78
709.71	2652.12
709.89	2822.10
710.07	2568.15
710.26	2555.86
710.44	2719.70
710.62	2834.39
710.80	2736.09
710.99	2797.53
711.17	2770.90
711.35	2629.59
711.54	2691.03
711.72	2897.88
711.90	2656.22
712.09	2832.34
712.27	2682.84
712.45	2723.80
712.63	2668.50
712.82	2748.37
713.00	2731.99
713.18	2795.48
713.37	2727.89
713.55	2826.20
713.73	2820.05
713.91	2744.28
714.10	2707.41
714.28	2641.88
714.46	2850.77
714.65	2746.33
714.83	2639.83
715.01	2811.86
715.19	2748.37
715.38	2586.58
715.56	2744.28
715.74	2545.63
715.92	2551.77
716.11	2846.68
716.29	2498.52
716.47	2695.13
716.65	2699.22
716.84	2531.29
717.02	2727.89
717.20	2471.90
717.38	2574.30
717.57	2699.22
717.75	2631.64
717.93	2654.17
718.11	2760.66
718.30	2590.68
718.48	2756.57
718.66	2834.39
718.84	2883.54
719.03	2613.21
719.21	2570.20
719.39	2877.40
719.57	2744.28
719.75	2883.54
719.94	2582.49
720.12	2621.40
720.30	2758.61
720.48	2781.14
720.67	2688.98
720.85	2504.67
721.03	2699.22
721.21	2641.88
721.39	2762.71
721.58	2848.72
721.76	2701.27
721.94	2699.22
722.12	2791.38
722.30	2873.30
722.49	2672.60
722.67	2676.70
722.85	2727.89
723.03	2576.34
723.21	2582.49
723.40	2678.74
723.58	2789.33
723.76	2805.72
723.94	2863.06
724.12	2754.52
724.30	2924.50
724.49	2891.73
724.67	2543.58
724.85	2863.06
725.03	2523.10
725.21	2820.05
725.40	2852.82
725.58	2572.25
725.76	2789.33
725.94	2723.80
726.12	2588.63
726.30	2615.26
726.49	2615.26
726.67	2619.35
726.85	2752.47
727.03	3129.30
727.21	4163.52
727.39	5203.89
727.57	5527.47
727.76	6127.52
727.94	6203.30
728.12	5539.76
728.30	4579.26
728.48	4257.73
728.66	4007.87
728.84	3755.97
729.03	3387.34
729.21	3182.54
729.39	2895.83
729.57	2748.37
729.75	2822.10
729.93	2756.57
730.11	2609.11
730.30	2670.55
730.48	2748.37
730.66	2809.81
730.84	2740.18
731.02	2693.08
731.20	2664.41
731.38	2674.65
731.56	2525.15
731.74	2533.34
731.93	2707.41
732.11	2723.80
732.29	2670.55
732.47	2828.24
732.65	2688.98
732.83	2899.92
733.01	2740.18
733.19	2582.49
733.37	2815.96
733.56	2758.61
733.74	2551.77
733.92	2959.31
734.10	2635.74
734.28	2734.04
734.46	2519.00
734.64	2555.86
734.82	2652.12
735.00	2676.70
735.18	2617.30
735.36	2723.80
735.54	2650.07
735.73	2693.08
735.91	2746.33
736.09	2983.89
736.27	2725.85
736.45	2713.56
736.63	2490.33
736.81	2742.23
736.99	2881.49
737.17	2873.30
737.35	2701.27
737.53	2729.94
737.71	2701.27
737.89	2877.40
738.07	2645.98
738.25	2600.92
738.43	2547.67
738.61	2564.06
738.80	2559.96
738.98	2566.10
739.16	2731.99
739.34	2531.29
739.52	2897.88
739.70	2703.32
739.88	2801.62
740.06	2815.96
740.24	2453.47
740.42	2799.57
740.60	2510.81
740.78	2578.39
740.96	2443.23
741.14	2705.37
741.32	2727.89
741.50	2486.23
741.68	2895.83
741.86	2897.88
742.04	2471.90
742.22	2555.86
742.40	2738.13
742.58	2838.48
742.76	2570.20
742.94	2867.16
743.12	2486.23
743.30	2695.13
743.48	2727.89
743.66	2635.74
743.84	2680.79
744.02	2723.80
744.20	2682.84
744.38	2572.25
744.56	2590.68
744.74	3106.77
744.92	2727.89
745.10	2891.73
745.28	2707.41
745.46	2955.22
745.64	2625.50
745.82	2727.89
746.00	2572.25
746.18	2756.57
746.36	2582.49
746.54	2697.17
746.72	2736.09
746.90	2588.63
747.08	2963.41
747.26	2654.17
747.44	2744.28
747.62	2842.58
747.80	2756.57
747.98	2867.16
748.15	2633.69
748.33	2987.99
748.51	2709.46
748.69	2756.57
748.87	2547.67
749.05	2695.13
749.23	2664.41
749.41	2672.60
749.59	2619.35
749.77	2846.68
749.95	2721.75
750.13	2547.67
750.31	2779.09
750.49	2697.17
750.67	2867.16
750.85	2908.12
751.03	2613.21
751.20	3094.48
751.38	2717.65
751.56	2670.55
751.74	2775.00
751.92	2682.84
752.10	2605.02
752.28	2826.20
752.46	2658.26
752.64	2629.59
752.82	2758.61
753.00	2775.00
753.18	2613.21
753.35	2709.46
753.53	2711.51
753.71	2557.91
753.89	2680.79
754.07	2717.65
754.25	2873.30
754.43	2758.61
754.61	2549.72
754.79	2799.57
754.97	2701.27
755.14	2916.31
755.32	2545.63
755.50	2750.42
755.68	2854.87
755.86	2523.10
756.04	2615.26
756.22	2453.47
756.40	2801.62
756.57	2910.16
756.75	2600.92
756.93	2848.72
757.11	2949.08
757.29	2549.72
757.47	2574.30
757.65	2545.63
757.82	2389.98
758.00	2559.96
758.18	2535.39
758.36	2555.86
758.54	2930.64
758.72	2592.73
758.90	2820.05
759.07	2693.08
759.25	2613.21
759.43	2719.70
759.61	2557.91
759.79	3909.57
759.97	2871.25
760.15	2605.02
760.32	2572.25
760.50	2807.77
760.68	2932.69
760.86	2510.81
761.04	2785.24
761.22	2826.20
761.39	2787.29
761.57	2736.09
761.75	2637.78
761.93	2799.57
762.11	2701.27
762.28	2703.32
762.46	2570.20
762.64	2891.73
762.82	2598.87
763.00	2703.32
763.18	2844.63
763.35	2580.44
763.53	2856.92
763.71	2660.31
763.89	2676.70
764.07	2707.41
764.24	2691.03
764.42	2799.57
764.60	2574.30
764.78	2744.28
764.96	2889.68
765.13	2775.00
765.31	2535.39
765.49	2844.63
765.67	2543.58
765.84	2588.63
766.02	2541.53
766.20	2535.39
766.38	2779.09
766.56	2740.18
766.73	2703.32
766.91	2686.94
767.09	2680.79
767.27	2746.33
767.44	2541.53
767.62	2850.77
767.80	2748.37
767.98	2572.25
768.15	2637.78
768.33	2826.20
768.51	2838.48
768.69	2758.61
768.87	2684.89
769.04	2740.18
769.22	3030.99
769.40	2834.39
769.58	2918.36
769.75	2760.66
769.93	2951.12
770.11	2609.11
770.28	2572.25
770.46	2815.96
770.64	2805.72
770.82	2629.59
770.99	2637.78
771.17	2848.72
771.35	2625.50
771.53	2637.78
771.70	2660.31
771.88	2799.57
772.06	2754.52
772.23	2574.30
772.41	2731.99
772.59	2678.74
772.77	2629.59
772.94	2686.94
773.12	2678.74
773.30	2715.61
773.47	2666.46
773.65	2596.82
773.83	2805.72
774.01	2742.23
774.18	2519.00
774.36	2598.87
774.54	2441.18
774.71	2752.47
774.89	2469.85
775.07	2617.30
775.24	2629.59
775.42	2629.59
775.60	3024.85
775.78	2574.30
775.95	2568.15
776.13	2459.61
776.31	2461.66
776.48	2705.37
776.66	2775.00
776.84	2666.46
777.01	2498.52
777.19	2537.43
777.37	2639.83
777.54	2818.00
777.72	3010.51
777.90	2723.80
778.07	2695.13
778.25	3235.79
778.43	2750.42
778.60	2582.49
778.78	2701.27
778.96	2981.84
779.13	2519.00
779.31	2766.81
779.49	2633.69
779.66	2772.95
779.84	2662.36
780.01	2578.39
780.19	2529.24
780.37	2932.69
780.54	2797.53
780.72	2533.34
780.90	2580.44
781.07	2670.55
781.25	2664.41
781.43	2834.39
781.60	2705.37
781.78	2910.16
781.95	2707.41
782.13	2588.63
782.31	2680.79
782.48	2461.66
782.66	2736.09
782.83	2916.31
783.01	2768.85
783.19	2826.20
783.36	2686.94
783.54	2557.91
783.72	2766.81
783.89	2721.75
784.07	2789.33
784.24	2688.98
784.42	2795.48
784.60	2744.28
784.77	2822.10
784.95	2344.92
785.12	2559.96
785.30	2676.70
785.47	2607.06
785.65	2555.86
785.83	2650.07
786.00	2734.04
786.18	2723.80
786.35	2514.91
786.53	2504.67
786.71	2830.29
786.88	2789.33
787.06	2705.37
787.23	2693.08
787.41	2594.78
787.58	2670.55
787.76	2492.38
787.94	2693.08
788.11	2770.90
788.29	2568.15
788.46	2619.35
788.64	2514.91
788.81	2736.09
788.99	2551.77
789.16	2480.09
789.34	2684.89
789.52	2588.63
789.69	2645.98
789.87	2482.14
790.04	2613.21
790.22	2744.28
790.39	2998.23
790.57	2555.86
790.74	2574.30
790.92	2869.20
791.09	2459.61
791.27	2693.08
791.44	2787.29
791.62	2621.40
791.79	2820.05
791.97	2697.17
792.15	2975.70
792.32	2826.20
792.50	2721.75
792.67	2846.68
792.85	2865.11
793.02	2721.75
793.20	2709.46
793.37	2488.28
793.55	2631.64
793.72	2555.86
793.90	2697.17
794.07	2627.54
794.25	2566.10
794.42	2805.72
794.60	2590.68
794.77	2717.65
794.95	2775.00
795.12	2848.72
795.30	2615.26
795.47	2480.09
795.65	2973.65
795.82	2815.96
796.00	2578.39
796.17	2686.94
796.34	2521.05
796.52	2740.18
796.69	2770.90
796.87	2797.53
797.04	2760.66
797.22	2781.14
797.39	2727.89
797.57	2766.81
797.74	2766.81
797.92	2766.81
798.09	2684.89
798.27	2818.00
798.44	2637.78
798.62	2639.83
798.79	2717.65
798.96	2705.37
799.14	2674.65
799.31	3098.58
799.49	2631.64
799.66	2715.61
799.84	2752.47
800.01	2531.29
800.19	2777.05
800.36	2435.03
800.53	2703.32
800.71	2746.33
800.88	2928.60
801.06	2596.82
801.23	2537.43
801.41	2727.89
801.58	2600.92
801.75	2625.50
801.93	2707.41
802.10	2834.39
802.28	2699.22
802.45	2588.63
802.63	2764.76
802.80	2955.22
802.97	2707.41
803.15	2709.46
803.32	2650.07
803.50	2535.39
803.67	2605.02
803.84	2539.48
804.02	2697.17
804.19	2615.26
804.37	2451.42
804.54	2506.71
804.71	2529.24
804.89	2746.33
805.06	2609.11
805.24	2600.92
805.41	2469.85
805.58	2594.78
805.76	3049.43
805.93	2639.83
806.10	2832.34
806.28	2861.01
806.45	2703.32
806.63	2697.17
806.80	2721.75
806.97	2713.56
807.15	2719.70
807.32	2607.06
807.49	2635.74
807.67	2525.15
807.84	2760.66
808.01	2482.14
808.19	2887.64
808.36	3123.15
808.54	2664.41
808.71	2523.10
808.88	2701.27
809.06	2912.21
809.23	2932.69
809.40	2519.00
809.58	2598.87
809.75	2635.74
809.92	2494.43
810.10	2863.06
810.27	2596.82
810.44	2809.81
810.62	2813.91
810.79	2686.94
810.96	2576.34
811.14	2609.11
811.31	2766.81
811.48	2795.48
811.66	2666.46
811.83	2875.35
812.00	2742.23
812.18	2688.98
812.35	2908.12
812.52	2660.31
812.69	2590.68
812.87	2574.30
813.04	2566.10
813.21	2684.89
813.39	2617.30
813.56	2594.78
813.73	2791.38
813.91	2562.01
814.08	2764.76
814.25	2725.85
814.42	2547.67
814.60	2725.85
814.77	2707.41
814.94	2648.02
815.12	2676.70
815.29	2906.07
815.46	2705.37
815.63	2684.89
815.81	2676.70
815.98	2662.36
816.15	2695.13
816.33	2621.40
816.50	2637.78
816.67	2711.51
816.84	2695.13
817.02	2523.10
817.19	2611.16
817.36	2662.36
817.53	2760.66
817.71	2521.05
817.88	2768.85
818.05	2648.02
818.22	2617.30
818.40	2908.12
818.57	2543.58
818.74	2783.19
818.91	2695.13
819.09	2764.76
819.26	2711.51
819.43	2627.54
819.60	2594.78
819.78	2815.96
819.95	2779.09
820.12	2527.19
820.29	2826.20
820.47	2834.39
820.64	2564.06
820.81	2523.10
820.98	2510.81
821.15	2639.83
821.33	2777.05
821.50	2449.37
821.67	2791.38
821.84	2568.15
822.02	2725.85
822.19	2854.87
822.36	2746.33
822.53	2629.59
822.70	2506.71
822.88	2645.98
823.05	2979.79
823.22	2639.83
823.39	2727.89
823.56	2723.80
823.74	3053.52
823.91	2510.81
824.08	2502.62
824.25	2580.44
824.42	2936.79
824.60	2410.46
824.77	2723.80
824.94	2658.26
825.11	2791.38
825.28	2504.67
825.45	2703.32
825.63	2750.42
825.80	2617.30
825.97	2752.47
826.14	2705.37
826.31	2523.10
826.48	2777.05
826.66	2592.73
826.83	2605.02
827.00	2688.98
827.17	2584.54
827.34	2660.31
827.51	2535.39
827.69	2627.54
827.86	2551.77
828.03	2607.06
828.20	2701.27
828.37	2650.07
828.54	2811.86
828.71	2537.43
828.89	2760.66
829.06	2766.81
829.23	2955.22
829.40	2586.58
829.57	2674.65
829.74	2717.65
829.91	2635.74
830.09	2527.19
830.26	2693.08
830.43	2836.44
830.60	2648.02
830.77	2758.61
830.94	2836.44
831.11	2846.68
831.28	2656.22
831.46	2740.18
831.63	2627.54
831.80	2826.20
831.97	2684.89
832.14	2654.17
832.31	2674.65
832.48	2736.09
832.65	2840.53
832.82	2709.46
832.99	2652.12
833.17	2480.09
833.34	2916.31
833.51	2668.50
833.68	2447.32
833.85	2869.20
834.02	2572.25
834.19	2506.71
834.36	2648.02
834.53	2715.61
834.70	2813.91
834.87	2668.50
835.04	2586.58
835.22	2555.86
835.39	2615.26
835.56	2465.75
835.73	2492.38
835.90	2752.47
836.07	2533.34
836.24	2648.02
836.41	2453.47
836.58	2543.58
836.75	2897.88
836.92	2551.77
837.09	2506.71
837.26	2815.96
837.43	2777.05
837.60	2611.16
837.77	2494.43
837.94	2787.29
838.12	2920.40
838.29	2512.86
838.46	2455.51
838.63	2463.71
838.80	2912.21
838.97	2639.83
839.14	2633.69
839.31	2697.17
839.48	2768.85
839.65	2506.71
839.82	2666.46
839.99	2688.98
840.16	2723.80
840.33	2449.37
840.50	2572.25
840.67	2619.35
840.84	2406.36
841.01	2543.58
841.18	2564.06
841.35	2705.37
841.52	2836.44
841.69	2869.20
841.86	2535.39
842.03	2748.37
842.20	2846.68
842.37	2578.39
842.54	2547.67
842.71	2686.94
842.88	2510.81
843.05	2586.58
843.22	2639.83
843.39	2799.57
843.56	2531.29
843.73	2605.02
843.90	2570.20
844.07	2770.90
844.24	2758.61
844.41	2596.82
844.58	2625.50
844.75	2656.22
844.92	2693.08
845.09	2602.97
845.26	2578.39
845.43	2818.00
845.60	2723.80
845.77	2768.85
845.94	2654.17
846.10	2891.73
846.27	2617.30
846.44	2457.56
846.61	2521.05
846.78	2717.65
846.95	2861.01
847.12	2547.67
847.29	2605.02
847.46	2519.00
847.63	2834.39
847.80	2516.95
847.97	2568.15
848.14	3026.90
848.31	2715.61
848.48	2463.71
848.65	2643.93
848.82	2629.59
848.98	3051.47
849.15	2674.65
849.32	2650.07
849.49	2775.00
849.66	2643.93
849.83	2482.14
850.00	2463.71
850.17	2785.24
850.34	2676.70
850.51	2549.72
850.68	2570.20
850.85	3063.76
851.01	2693.08
851.18	2551.77
851.35	2551.77
851.52	2791.38
851.69	2871.25
851.86	2414.56
852.03	2576.34
852.20	2797.53
852.37	2652.12
852.53	2428.89
852.70	2480.09
852.87	2752.47
853.04	2736.09
853.21	2537.43
853.38	2721.75
853.55	2865.11
853.72	2934.74
853.89	2510.81
854.05	2459.61
854.22	2693.08
854.39	2707.41
854.56	2545.63
854.73	2785.24
854.90	2586.58
855.07	2756.57
855.23	2494.43
855.40	2582.49
855.57	2746.33
855.74	2443.23
855.91	2691.03
856.08	2430.94
856.25	2494.43
856.41	2637.78
856.58	2549.72
856.75	2566.10
856.92	2461.66
857.09	2785.24
857.26	2398.17
857.42	2574.30
857.59	2803.67
857.76	2670.55
857.93	2611.16
858.10	2635.74
858.27	2547.67
858.43	2793.43
858.60	2645.98
858.77	2422.75
858.94	2650.07
859.11	2895.83
859.27	2564.06
859.44	2482.14
859.61	3043.28
859.78	2770.90
859.95	2590.68
860.12	2459.61
860.28	2914.26
860.45	3010.51
860.62	2535.39
860.79	2621.40
860.95	2633.69
861.12	2623.45
861.29	2373.60
861.46	2543.58
861.63	2664.41
861.79	2719.70
861.96	2428.89
862.13	2574.30
862.30	2850.77
862.47	2617.30
862.63	2469.85
862.80	2637.78
862.97	2789.33
863.14	2688.98
863.30	2688.98
863.47	2580.44
863.64	2930.64
863.81	2715.61
863.97	2445.27
864.14	2576.34
864.31	2699.22
864.48	2777.05
864.65	2611.16
864.81	2686.94
864.98	2818.00
865.15	2861.01
865.32	2625.50
865.48	2682.84
865.65	3035.09
865.82	2635.74
865.98	2580.44
866.15	2641.88
866.32	2662.36
866.49	2676.70
866.65	2672.60
866.82	2533.34
866.99	2707.41
867.16	2678.74
867.32	2586.58
867.49	2539.48
867.66	2674.65
867.83	2629.59
867.99	2486.23
868.16	2615.26
868.33	2580.44
868.49	2711.51
868.66	2463.71
868.83	2686.94
868.99	2703.32
869.16	2719.70
869.33	2650.07
869.50	2656.22
869.66	2777.05
869.83	2684.89
870.00	2572.25
870.16	2656.22
870.33	2682.84
870.50	2822.10
870.66	2664.41
870.83	2643.93
871.00	2758.61
871.17	2760.66
871.33	2682.84
871.50	2521.05
871.67	2654.17
871.83	2463.71
872.00	2633.69
872.17	2574.30
872.33	2926.55
872.50	2779.09
872.67	2539.48
872.83	2529.24
873.00	2731.99
873.17	2727.89
873.33	2568.15
873.50	2527.19
873.67	2654.17
873.83	2529.24
874.00	2551.77
874.16	2764.76
874.33	2775.00
874.50	2592.73
874.66	2535.39
874.83	2574.30
875.00	2834.39
875.16	2867.16
875.33	2703.32
875.50	2293.72
875.66	2650.07
875.83	2729.94
875.99	2648.02
876.16	2543.58
876.33	2459.61
876.49	2731.99
876.66	2645.98
876.83	2555.86
876.99	2545.63
877.16	2658.26
877.32	2512.86
877.49	2502.62
877.66	2723.80
877.82	2910.16
877.99	2600.92
878.15	2725.85
878.32	2703.32
878.49	2744.28
878.65	2506.71
878.82	2719.70
878.98	2617.30
879.15	2752.47
879.32	2656.22
879.48	2695.13
879.65	2715.61
879.81	2578.39
879.98	2570.20
880.15	2596.82
880.31	2813.91
880.48	2617.30
880.64	2650.07
880.81	2684.89
880.97	3022.80
881.14	2858.96
881.31	2492.38
881.47	2791.38
881.64	2621.40
881.80	2488.28
881.97	2643.93
882.13	2555.86
882.30	2516.95
882.47	2545.63
882.63	2547.67
882.80	2523.10
882.96	2629.59
883.13	2881.49
883.29	2615.26
883.46	2600.92
883.62	2971.60
883.79	2648.02
883.95	2662.36
884.12	2555.86
884.29	2863.06
884.45	2713.56
884.62	2555.86
884.78	2521.05
884.95	2922.45
885.11	2633.69
885.28	2670.55
885.44	2605.02
885.61	2684.89
885.77	2973.65
885.94	2635.74
886.10	2568.15
886.27	2658.26
886.43	2936.79
886.60	2775.00
886.76	2543.58
886.93	2656.22
887.09	2699.22
887.26	2355.16
887.42	2572.25
887.59	2815.96
887.75	2940.88
887.92	2811.86
888.08	2682.84
888.25	2881.49
888.41	2869.20
888.58	2635.74
888.74	2523.10
888.91	2645.98
>>>>>End Processed Spectral Data<<<<<
