SpectraSuite Data File
++++++++++++++++++++++++++++++++++++
Date: Thu May 05 16:20:10 CEST 2016
User: root
Dark Spectrum Present: No
Reference Spectrum Present: No
Number of Sampled Component Spectra: 1
Spectrometers: USB4C02835
Integration Time (usec): 100000 (USB4C02835)
Spectra Averaged: 1 (USB4C02835)
Boxcar Smoothing: 0 (USB4C02835)
Correct for Electrical Dark: No (USB4C02835)
Strobe/Lamp Enabled: No (USB4C02835)
Correct for Detector Non-linearity: No (USB4C02835)
Correct for Stray Light: No (USB4C02835)
Number of Pixels in Processed Spectrum: 3648
>>>>>Begin Processed Spectral Data<<<<<
177.47	2121.70
177.69	2121.70
177.91	2121.70
178.13	2084.83
178.36	2047.97
178.58	2496.47
178.80	2654.17
179.02	2555.86
179.24	2555.86
179.46	2414.56
179.68	2584.54
179.90	2766.81
180.13	2703.32
180.35	2396.12
180.57	2584.54
180.79	2834.39
181.01	2729.94
181.23	2506.71
181.45	2650.07
181.67	2822.10
181.90	2863.06
182.12	2566.10
182.34	2379.74
182.56	2867.16
182.78	2789.33
183.00	2486.23
183.22	2543.58
183.44	2461.66
183.66	3022.80
183.89	2641.88
184.11	2512.86
184.33	2807.77
184.55	2863.06
184.77	2494.43
184.99	2490.33
185.21	2650.07
185.43	3090.38
185.65	2527.19
185.87	2500.57
186.10	3100.62
186.32	3082.19
186.54	2598.87
186.76	2635.74
186.98	2918.36
187.20	2639.83
187.42	2504.67
187.64	2482.14
187.86	2809.81
188.08	2805.72
188.30	2535.39
188.52	2500.57
188.75	2875.35
188.97	2871.25
189.19	2449.37
189.41	2533.34
189.63	2764.76
189.85	2578.39
190.07	2375.64
190.29	2402.27
190.51	2740.18
190.73	2502.62
190.95	2695.13
191.17	2529.24
191.39	2494.43
191.61	2668.50
191.84	2512.86
192.06	2555.86
192.28	2519.00
192.50	3194.83
192.72	2695.13
192.94	2611.16
193.16	2906.07
193.38	2766.81
193.60	2451.42
193.82	2562.01
194.04	2953.17
194.26	2797.53
194.48	2506.71
194.70	2457.56
194.92	2664.41
195.14	2815.96
195.36	2437.08
195.58	2592.73
195.80	2693.08
196.02	2613.21
196.24	2471.90
196.46	2557.91
196.69	2557.91
196.91	3092.43
197.13	2641.88
197.35	2572.25
197.57	2994.13
197.79	2826.20
198.01	2572.25
198.23	2586.58
198.45	2717.65
198.67	2547.67
198.89	2416.60
199.11	2572.25
199.33	2572.25
199.55	2457.56
199.77	2439.13
199.99	2596.82
200.21	2748.37
200.43	2809.81
200.65	2408.41
200.87	2371.55
201.09	2699.22
201.31	2674.65
201.53	2535.39
201.75	2596.82
201.97	2828.24
202.19	2715.61
202.41	2555.86
202.63	2674.65
202.85	2795.48
203.07	2752.47
203.29	2547.67
203.51	2377.69
203.73	2756.57
203.95	3207.12
204.17	2568.15
204.39	2680.79
204.61	2740.18
204.83	2721.75
205.05	2674.65
205.27	2473.95
205.49	3080.14
205.71	2725.85
205.93	2367.45
206.15	2412.51
206.37	2715.61
206.59	2701.27
206.81	2424.80
207.03	2424.80
207.25	2713.56
207.47	2731.99
207.69	2521.05
207.91	2725.85
208.13	2992.08
208.34	2582.49
208.56	2435.03
208.78	2559.96
209.00	2686.94
209.22	2672.60
209.44	2523.10
209.66	2502.62
209.88	2688.98
210.10	2641.88
210.32	2480.09
210.54	2609.11
210.76	2719.70
210.98	2885.59
211.20	2381.79
211.42	2609.11
211.64	2893.78
211.86	2836.44
212.08	2562.01
212.30	2465.75
212.52	2656.22
212.74	2762.71
212.96	2553.82
213.17	2600.92
213.39	2861.01
213.61	2961.36
213.83	2568.15
214.05	2375.64
214.27	2875.35
214.49	2566.10
214.71	2387.93
214.93	2629.59
215.15	2652.12
215.37	2865.11
215.59	2404.32
215.81	2514.91
216.03	2865.11
216.24	2775.00
216.46	2516.95
216.68	2596.82
216.90	2863.06
217.12	2832.34
217.34	2490.33
217.56	2676.70
217.78	2920.40
218.00	2781.14
218.22	2605.02
218.44	2564.06
218.66	2791.38
218.87	2996.18
219.09	2441.18
219.31	2535.39
219.53	2740.18
219.75	2652.12
219.97	2537.43
220.19	2570.20
220.41	2670.55
220.63	2916.31
220.85	2576.34
221.06	2525.15
221.28	2938.84
221.50	2772.95
221.72	2498.52
221.94	2404.32
222.16	2654.17
222.38	2768.85
222.60	2519.00
222.82	2527.19
223.03	2869.20
223.25	2551.77
223.47	2519.00
223.69	2682.84
223.91	2727.89
224.13	2770.90
224.35	2445.27
224.57	2596.82
224.78	2879.44
225.00	2584.54
225.22	2588.63
225.44	2449.37
225.66	2815.96
225.88	2635.74
226.10	2576.34
226.32	2541.53
226.53	2947.03
226.75	2648.02
226.97	2590.68
227.19	2547.67
227.41	2678.74
227.63	2662.36
227.85	2396.12
228.06	2578.39
228.28	2713.56
228.50	2940.88
228.72	2420.70
228.94	2424.80
229.16	2459.61
229.37	2645.98
229.59	2449.37
229.81	2691.03
230.03	2650.07
230.25	2459.61
230.47	2439.13
230.69	2400.22
230.90	2813.91
231.12	2682.84
231.34	2574.30
231.56	2625.50
231.78	2580.44
232.00	2748.37
232.21	2531.29
232.43	2551.77
232.65	2490.33
232.87	2883.54
233.09	2383.84
233.30	2490.33
233.52	2838.48
233.74	2766.81
233.96	2457.56
234.18	2672.60
234.40	2744.28
234.61	3049.43
234.83	2432.99
235.05	2461.66
235.27	3016.66
235.49	2850.77
235.70	2516.95
235.92	2639.83
236.14	2801.62
236.36	3114.96
236.58	2428.89
236.79	2619.35
237.01	2695.13
237.23	2660.31
237.45	2760.66
237.67	2562.01
237.88	2740.18
238.10	3047.38
238.32	2475.99
238.54	2451.42
238.76	2682.84
238.97	2584.54
239.19	2375.64
239.41	2547.67
239.63	2895.83
239.85	2588.63
240.06	2543.58
240.28	2516.95
240.50	2871.25
240.72	2740.18
240.93	2525.15
241.15	2572.25
241.37	2781.14
241.59	2852.82
241.81	2475.99
242.02	2555.86
242.24	2734.04
242.46	2777.05
242.68	2392.03
242.89	2451.42
243.11	2846.68
243.33	2795.48
243.55	2537.43
243.76	2568.15
243.98	2668.50
244.20	2676.70
244.42	2588.63
244.64	2609.11
244.85	2543.58
245.07	2469.85
245.29	2506.71
245.51	2598.87
245.72	2779.09
245.94	2867.16
246.16	2537.43
246.38	2516.95
246.59	2660.31
246.81	2637.78
247.03	2502.62
247.24	2387.93
247.46	2672.60
247.68	2742.23
247.90	2514.91
248.11	2488.28
248.33	2873.30
248.55	2725.85
248.77	2580.44
248.98	2578.39
249.20	2942.93
249.42	2686.94
249.64	2416.60
249.85	2445.27
250.07	2541.53
250.29	2861.01
250.50	2547.67
250.72	2424.80
250.94	2828.24
251.16	2963.41
251.37	2420.70
251.59	2621.40
251.81	2842.58
252.02	2936.79
252.24	2439.13
252.46	2654.17
252.68	2584.54
252.89	2607.06
253.11	2363.36
253.33	2559.96
253.54	2893.78
253.76	2516.95
253.98	2469.85
254.20	2455.51
254.41	2557.91
254.63	2715.61
254.85	2371.55
255.06	2625.50
255.28	2744.28
255.50	2650.07
255.71	2455.51
255.93	2420.70
256.15	2660.31
256.36	2822.10
256.58	2449.37
256.80	2375.64
257.02	2650.07
257.23	2641.88
257.45	2519.00
257.67	2617.30
257.88	2668.50
258.10	2766.81
258.32	2498.52
258.53	2631.64
258.75	2957.27
258.97	2621.40
259.18	2482.14
259.40	2551.77
259.62	2944.98
259.83	2961.36
260.05	2553.82
260.27	3188.69
260.48	2914.26
260.70	2568.15
260.92	2451.42
261.13	2496.47
261.35	2691.03
261.57	2791.38
261.78	2398.17
262.00	2451.42
262.22	2793.43
262.43	2645.98
262.65	2553.82
262.86	2580.44
263.08	3114.96
263.30	2756.57
263.51	2371.55
263.73	2475.99
263.95	2969.55
264.16	2574.30
264.38	2424.80
264.60	2469.85
264.81	2717.65
265.03	2768.85
265.25	2844.63
265.46	2523.10
265.68	2904.02
265.89	2846.68
266.11	2412.51
266.33	2475.99
266.54	2899.92
266.76	2750.42
266.98	2588.63
267.19	2621.40
267.41	2881.49
267.62	2625.50
267.84	2383.84
268.06	2635.74
268.27	2775.00
268.49	2887.64
268.70	2564.06
268.92	2521.05
269.14	2559.96
269.35	2541.53
269.57	2609.11
269.79	2592.73
270.00	2654.17
270.22	2947.03
270.43	2430.94
270.65	2392.03
270.87	2719.70
271.08	2863.06
271.30	2582.49
271.51	2504.67
271.73	2768.85
271.95	2910.16
272.16	2500.57
272.38	2574.30
272.59	2709.46
272.81	2805.72
273.02	2527.19
273.24	2588.63
273.46	2789.33
273.67	2559.96
273.89	2475.99
274.10	2449.37
274.32	2807.77
274.54	2744.28
274.75	2559.96
274.97	2668.50
275.18	2785.24
275.40	2775.00
275.61	2555.86
275.83	2582.49
276.05	2527.19
276.26	2688.98
276.48	2631.64
276.69	2629.59
276.91	2676.70
277.12	2918.36
277.34	2734.04
277.55	2746.33
277.77	2766.81
277.99	2676.70
278.20	2537.43
278.42	2459.61
278.63	2568.15
278.85	2564.06
279.06	2473.95
279.28	2580.44
279.49	2815.96
279.71	2809.81
279.93	2658.26
280.14	2715.61
280.36	2605.02
280.57	2865.11
280.79	2711.51
281.00	2533.34
281.22	2613.21
281.43	2848.72
281.65	2365.40
281.86	2576.34
282.08	2832.34
282.29	3006.42
282.51	2512.86
282.73	2535.39
282.94	2463.71
283.16	2916.31
283.37	2856.92
283.59	2627.54
283.80	2805.72
284.02	2744.28
284.23	2699.22
284.45	2514.91
284.66	2551.77
284.88	2566.10
285.09	2715.61
285.31	2664.41
285.52	2760.66
285.74	2598.87
285.95	2691.03
286.17	2648.02
286.38	2914.26
286.60	2648.02
286.81	2514.91
287.03	2621.40
287.24	2641.88
287.46	2805.72
287.67	2723.80
287.89	2824.15
288.10	2686.94
288.32	2719.70
288.53	2742.23
288.75	2662.36
288.96	2783.19
289.18	2615.26
289.39	2492.38
289.61	2592.73
289.82	3071.95
290.04	2963.41
290.25	2510.81
290.47	2600.92
290.68	2775.00
290.90	2836.44
291.11	2486.23
291.33	2740.18
291.54	2605.02
291.76	2648.02
291.97	2699.22
292.18	2721.75
292.40	2633.69
292.61	2625.50
292.83	2809.81
293.04	2688.98
293.26	2799.57
293.47	2758.61
293.69	2502.62
293.90	2541.53
294.12	2895.83
294.33	2713.56
294.55	2656.22
294.76	2768.85
294.97	2869.20
295.19	3051.47
295.40	2613.21
295.62	2639.83
295.83	2807.77
296.05	2668.50
296.26	2828.24
296.48	2564.06
296.69	2674.65
296.90	2691.03
297.12	2703.32
297.33	2824.15
297.55	2815.96
297.76	2783.19
297.98	2709.46
298.19	2705.37
298.41	2721.75
298.62	2588.63
298.83	2752.47
299.05	2684.89
299.26	2615.26
299.48	2619.35
299.69	2674.65
299.90	2639.83
300.12	2531.29
300.33	2750.42
300.55	2680.79
300.76	2672.60
300.98	2570.20
301.19	2787.29
301.40	2605.02
301.62	2637.78
301.83	2854.87
302.05	2686.94
302.26	2607.06
302.47	2686.94
302.69	2547.67
302.90	2736.09
303.12	2400.22
303.33	2672.60
303.54	3022.80
303.76	2662.36
303.97	2533.34
304.19	2818.00
304.40	2607.06
304.61	2752.47
304.83	2721.75
305.04	2691.03
305.26	2836.44
305.47	2672.60
305.68	2617.30
305.90	2447.32
306.11	2963.41
306.33	2590.68
306.54	2553.82
306.75	2588.63
306.97	2453.47
307.18	2582.49
307.39	2643.93
307.61	2701.27
307.82	2666.46
308.04	2768.85
308.25	2467.80
308.46	2727.89
308.68	2650.07
308.89	2693.08
309.10	2721.75
309.32	2598.87
309.53	2715.61
309.74	2721.75
309.96	2574.30
310.17	2762.71
310.39	2635.74
310.60	2893.78
310.81	2623.45
311.03	2519.00
311.24	2793.43
311.45	2695.13
311.67	2791.38
311.88	2643.93
312.09	2623.45
312.31	2668.50
312.52	2547.67
312.73	2566.10
312.95	2490.33
313.16	2588.63
313.37	2752.47
313.59	2695.13
313.80	2789.33
314.01	3018.71
314.23	2578.39
314.44	2510.81
314.65	2516.95
314.87	2494.43
315.08	2641.88
315.29	2627.54
315.51	2572.25
315.72	2519.00
315.93	2736.09
316.15	2693.08
316.36	2658.26
316.57	2623.45
316.79	2672.60
317.00	2627.54
317.21	2858.96
317.43	2602.97
317.64	2631.64
317.85	2598.87
318.07	2676.70
318.28	2656.22
318.49	2631.64
318.70	2951.12
318.92	2832.34
319.13	2840.53
319.34	2809.81
319.56	2621.40
319.77	2762.71
319.98	2807.77
320.20	2707.41
320.41	2772.95
320.62	2828.24
320.83	2557.91
321.05	2813.91
321.26	2719.70
321.47	2686.94
321.69	2811.86
321.90	2549.72
322.11	2482.14
322.32	2777.05
322.54	3006.42
322.75	2588.63
322.96	3272.65
323.18	2543.58
323.39	2480.09
323.60	2469.85
323.81	2684.89
324.03	2566.10
324.24	2699.22
324.45	2635.74
324.66	2580.44
324.88	2883.54
325.09	2990.03
325.30	2662.36
325.52	2543.58
325.73	2736.09
325.94	2572.25
326.15	2455.51
326.37	2545.63
326.58	2832.34
326.79	2904.02
327.00	2510.81
327.22	2625.50
327.43	2650.07
327.64	2547.67
327.85	2715.61
328.07	2686.94
328.28	2959.31
328.49	2652.12
328.70	2705.37
328.92	2609.11
329.13	2752.47
329.34	2805.72
329.55	2777.05
329.76	2764.76
329.98	2772.95
330.19	2901.97
330.40	2740.18
330.61	2693.08
330.83	2838.48
331.04	2562.01
331.25	2713.56
331.46	2613.21
331.68	2584.54
331.89	2922.45
332.10	2678.74
332.31	2519.00
332.52	2850.77
332.74	2891.73
332.95	2420.70
333.16	2731.99
333.37	2807.77
333.58	2664.41
333.80	2645.98
334.01	2418.65
334.22	2783.19
334.43	2678.74
334.64	2553.82
334.86	2541.53
335.07	2564.06
335.28	2879.44
335.49	2514.91
335.70	2711.51
335.92	2916.31
336.13	3145.68
336.34	2643.93
336.55	2652.12
336.76	2797.53
336.98	2424.80
337.19	2570.20
337.40	2654.17
337.61	3076.05
337.82	2625.50
338.04	2688.98
338.25	2498.52
338.46	2729.94
338.67	2625.50
338.88	2543.58
339.09	2488.28
339.31	2744.28
339.52	2574.30
339.73	2535.39
339.94	2527.19
340.15	2736.09
340.36	2605.02
340.58	2680.79
340.79	2541.53
341.00	2725.85
341.21	2566.10
341.42	2764.76
341.63	2596.82
341.85	2811.86
342.06	2809.81
342.27	2551.77
342.48	2871.25
342.69	2488.28
342.90	2826.20
343.12	2850.77
343.33	2535.39
343.54	2838.48
343.75	2953.17
343.96	2648.02
344.17	2406.36
344.38	2762.71
344.60	2662.36
344.81	2502.62
345.02	2598.87
345.23	2865.11
345.44	3117.01
345.65	2695.13
345.86	2662.36
346.07	2750.42
346.29	2590.68
346.50	2775.00
346.71	2684.89
346.92	2967.51
347.13	3020.75
347.34	2611.16
347.55	2514.91
347.76	2793.43
347.98	2605.02
348.19	2656.22
348.40	2805.72
348.61	2645.98
348.82	2971.60
349.03	2637.78
349.24	2490.33
349.45	3030.99
349.66	2475.99
349.88	2572.25
350.09	2590.68
350.30	2942.93
350.51	2977.75
350.72	2715.61
350.93	2572.25
351.14	2619.35
351.35	2727.89
351.56	2629.59
351.77	2664.41
351.99	2830.29
352.20	2912.21
352.41	2770.90
352.62	2400.22
352.83	2668.50
353.04	2717.65
353.25	2629.59
353.46	2686.94
353.67	2897.88
353.88	2400.22
354.09	2619.35
354.30	2602.97
354.52	2799.57
354.73	2693.08
354.94	2541.53
355.15	2648.02
355.36	2955.22
355.57	2668.50
355.78	2580.44
355.99	2543.58
356.20	2697.17
356.41	2871.25
356.62	2625.50
356.83	2643.93
357.04	2965.46
357.25	2486.23
357.46	2625.50
357.68	2414.56
357.89	2590.68
358.10	2662.36
358.31	2592.73
358.52	2588.63
358.73	2580.44
358.94	2523.10
359.15	2602.97
359.36	2670.55
359.57	2719.70
359.78	2764.76
359.99	2725.85
360.20	2500.57
360.41	2754.52
360.62	2838.48
360.83	2740.18
361.04	2684.89
361.25	2775.00
361.46	2906.07
361.67	2748.37
361.88	2658.26
362.09	2815.96
362.30	2684.89
362.51	2529.24
362.72	2598.87
362.93	2793.43
363.14	2844.63
363.35	2693.08
363.56	2514.91
363.78	2869.20
363.99	2856.92
364.20	2582.49
364.41	2631.64
364.62	3037.14
364.83	2775.00
365.04	2555.86
365.25	2639.83
365.46	3030.99
365.67	2594.78
365.88	2725.85
366.09	2568.15
366.30	2715.61
366.51	2764.76
366.72	2490.33
366.93	2609.11
367.14	2670.55
367.35	2971.60
367.56	2602.97
367.77	2783.19
367.98	2709.46
368.18	2858.96
368.39	2736.09
368.60	2527.19
368.81	2826.20
369.02	2754.52
369.23	2693.08
369.44	2475.99
369.65	2723.80
369.86	2775.00
370.07	2783.19
370.28	2527.19
370.49	2777.05
370.70	2836.44
370.91	2566.10
371.12	2432.99
371.33	2852.82
371.54	2615.26
371.75	2752.47
371.96	2338.78
372.17	2775.00
372.38	2658.26
372.59	2629.59
372.80	2621.40
373.01	2713.56
373.22	2756.57
373.43	2543.58
373.64	2545.63
373.85	2873.30
374.06	2924.50
374.26	2834.39
374.47	2658.26
374.68	2934.74
374.89	2779.09
375.10	2549.72
375.31	2645.98
375.52	2676.70
375.73	2789.33
375.94	2523.10
376.15	2752.47
376.36	2621.40
376.57	2629.59
376.78	2637.78
376.99	2613.21
377.20	2949.08
377.40	2588.63
377.61	2920.40
377.82	2492.38
378.03	2914.26
378.24	2744.28
378.45	2633.69
378.66	2666.46
378.87	2527.19
379.08	2510.81
379.29	2625.50
379.50	2756.57
379.71	2760.66
379.91	2842.58
380.12	2619.35
380.33	2650.07
380.54	2744.28
380.75	2674.65
380.96	2637.78
381.17	2760.66
381.38	2668.50
381.59	2729.94
381.80	2674.65
382.00	2772.95
382.21	2711.51
382.42	3004.37
382.63	2944.98
382.84	2697.17
383.05	2811.86
383.26	2899.92
383.47	2684.89
383.68	2568.15
383.88	2754.52
384.09	2691.03
384.30	2820.05
384.51	2711.51
384.72	2633.69
384.93	2545.63
385.14	2775.00
385.35	2799.57
385.55	2506.71
385.76	2877.40
385.97	2637.78
386.18	2496.47
386.39	2615.26
386.60	2740.18
386.81	2549.72
387.02	2492.38
387.22	2572.25
387.43	2840.53
387.64	2799.57
387.85	2891.73
388.06	2834.39
388.27	3950.53
388.48	7655.31
388.68	11063.13
388.89	13602.61
389.10	14247.72
389.31	13954.86
389.52	10843.99
389.73	9426.80
389.93	8755.07
390.14	7888.78
390.35	7167.89
390.56	6332.32
390.77	5255.09
390.98	4134.85
391.18	3370.96
391.39	3123.15
391.60	2793.43
391.81	2725.85
392.02	2656.22
392.23	3080.14
392.43	2717.65
392.64	2727.89
392.85	2625.50
393.06	3004.37
393.27	2750.42
393.47	2602.97
393.68	2701.27
393.89	2772.95
394.10	2891.73
394.31	2635.74
394.52	2527.19
394.72	2645.98
394.93	2947.03
395.14	2516.95
395.35	2564.06
395.56	2621.40
395.76	2678.74
395.97	2619.35
396.18	2785.24
396.39	2768.85
396.60	3174.35
396.80	2899.92
397.01	2850.77
397.22	2885.59
397.43	2906.07
397.64	2592.73
397.84	2686.94
398.05	2940.88
398.26	2764.76
398.47	2807.77
398.67	2848.72
398.88	2709.46
399.09	2811.86
399.30	2611.16
399.51	2652.12
399.71	2564.06
399.92	2713.56
400.13	2666.46
400.34	2637.78
400.54	2664.41
400.75	2932.69
400.96	2678.74
401.17	2934.74
401.37	2842.58
401.58	2664.41
401.79	2639.83
402.00	2809.81
402.21	3069.91
402.41	2953.17
402.62	2893.78
402.83	3014.61
403.04	3160.02
403.24	3299.28
403.45	2762.71
403.66	2887.64
403.87	2871.25
404.07	3026.90
404.28	2916.31
404.49	2912.21
404.70	2772.95
404.90	2711.51
405.11	2670.55
405.32	2695.13
405.52	2668.50
405.73	2613.21
405.94	2541.53
406.15	2678.74
406.35	2850.77
406.56	2805.72
406.77	2629.59
406.98	2605.02
407.18	2613.21
407.39	2916.31
407.60	2609.11
407.80	2672.60
408.01	2582.49
408.22	2744.28
408.43	2529.24
408.63	2697.17
408.84	2781.14
409.05	2879.44
409.25	2662.36
409.46	2572.25
409.67	2723.80
409.88	2609.11
410.08	2645.98
410.29	2701.27
410.50	2826.20
410.70	2842.58
410.91	2605.02
411.12	2684.89
411.32	2662.36
411.53	2584.54
411.74	2738.13
411.95	2711.51
412.15	2736.09
412.36	2846.68
412.57	2770.90
412.77	2891.73
412.98	2676.70
413.19	2617.30
413.39	2633.69
413.60	2703.32
413.81	2916.31
414.01	2611.16
414.22	2682.84
414.43	2846.68
414.63	2736.09
414.84	2863.06
415.05	2662.36
415.25	2557.91
415.46	2805.72
415.67	2619.35
415.87	2693.08
416.08	2648.02
416.29	2713.56
416.49	2795.48
416.70	2562.01
416.91	2670.55
417.11	2664.41
417.32	2881.49
417.53	2752.47
417.73	2711.51
417.94	2744.28
418.15	2752.47
418.35	2680.79
418.56	2643.93
418.77	3080.14
418.97	2777.05
419.18	2666.46
419.38	2410.46
419.59	2703.32
419.80	2887.64
420.00	2588.63
420.21	2688.98
420.42	2934.74
420.62	2754.52
420.83	2629.59
421.04	2584.54
421.24	2709.46
421.45	2824.15
421.65	2744.28
421.86	2615.26
422.07	2850.77
422.27	2813.91
422.48	2635.74
422.69	2510.81
422.89	2676.70
423.10	2713.56
423.30	2596.82
423.51	2719.70
423.72	2813.91
423.92	2803.67
424.13	2529.24
424.33	2703.32
424.54	2850.77
424.75	2715.61
424.95	2846.68
425.16	2627.54
425.36	2709.46
425.57	2861.01
425.78	2793.43
425.98	2719.70
426.19	2711.51
426.39	2641.88
426.60	2686.94
426.81	2772.95
427.01	2758.61
427.22	2662.36
427.42	2500.57
427.63	2521.05
427.83	2801.62
428.04	2951.12
428.25	2766.81
428.45	2775.00
428.66	2875.35
428.86	2605.02
429.07	2676.70
429.28	2658.26
429.48	2637.78
429.69	2664.41
429.89	2674.65
430.10	2453.47
430.30	2858.96
430.51	2912.21
430.71	2582.49
430.92	2693.08
431.13	2625.50
431.33	2883.54
431.54	2695.13
431.74	2795.48
431.95	3069.91
432.15	2510.81
432.36	2566.10
432.56	2750.42
432.77	3010.51
432.98	2998.23
433.18	2682.84
433.39	2519.00
433.59	2785.24
433.80	3016.66
434.00	2861.01
434.21	2596.82
434.41	2592.73
434.62	3006.42
434.82	2519.00
435.03	2572.25
435.23	2742.23
435.44	2504.67
435.64	2631.64
435.85	2723.80
436.06	2924.50
436.26	2944.98
436.47	2666.46
436.67	2625.50
436.88	2727.89
437.08	2824.15
437.29	2820.05
437.49	2752.47
437.70	2881.49
437.90	2658.26
438.11	2801.62
438.31	2715.61
438.52	2930.64
438.72	2916.31
438.93	2922.45
439.13	2707.41
439.34	2875.35
439.54	2643.93
439.75	2762.71
439.95	2719.70
440.16	2652.12
440.36	2752.47
440.57	2670.55
440.77	2635.74
440.98	2824.15
441.18	2795.48
441.39	2613.21
441.59	2594.78
441.80	3018.71
442.00	2650.07
442.21	2785.24
442.41	2537.43
442.62	2787.29
442.82	2625.50
443.02	2650.07
443.23	2662.36
443.43	2705.37
443.64	2850.77
443.84	2562.01
444.05	2838.48
444.25	2639.83
444.46	2688.98
444.66	2674.65
444.87	2873.30
445.07	2539.48
445.28	2727.89
445.48	2881.49
445.69	2721.75
445.89	3114.96
446.09	2711.51
446.30	2867.16
446.50	3176.40
446.71	4566.97
446.91	5738.41
447.12	6471.58
447.32	6840.22
447.53	6545.31
447.73	5429.17
447.93	4863.93
448.14	4591.55
448.34	4505.53
448.55	3909.57
448.75	3839.94
448.96	3680.20
449.16	3491.79
449.36	3219.41
449.57	2822.10
449.77	2693.08
449.98	2752.47
450.18	2777.05
450.39	2727.89
450.59	2779.09
450.79	2736.09
451.00	2662.36
451.20	2820.05
451.41	2613.21
451.61	2779.09
451.81	2691.03
452.02	2643.93
452.22	2594.78
452.43	2684.89
452.63	2607.06
452.84	2617.30
453.04	2586.58
453.24	2748.37
453.45	2607.06
453.65	2723.80
453.86	2725.85
454.06	2742.23
454.26	2734.04
454.47	2623.45
454.67	2781.14
454.87	2818.00
455.08	2758.61
455.28	2797.53
455.49	2777.05
455.69	2650.07
455.89	3067.86
456.10	2723.80
456.30	2578.39
456.51	2766.81
456.71	2768.85
456.91	2783.19
457.12	2686.94
457.32	2789.33
457.52	2633.69
457.73	2795.48
457.93	2768.85
458.14	2627.54
458.34	2494.43
458.54	2648.02
458.75	2607.06
458.95	2797.53
459.15	2723.80
459.36	2777.05
459.56	2654.17
459.76	3117.01
459.97	2750.42
460.17	2697.17
460.37	2777.05
460.58	2744.28
460.78	2863.06
460.99	2645.98
461.19	2645.98
461.39	2637.78
461.60	2650.07
461.80	2717.65
462.00	2521.05
462.21	2641.88
462.41	2656.22
462.61	2492.38
462.82	2498.52
463.02	2770.90
463.22	2785.24
463.43	2836.44
463.63	2617.30
463.83	2918.36
464.04	2789.33
464.24	2674.65
464.44	2519.00
464.64	2709.46
464.85	2858.96
465.05	2697.17
465.25	2652.12
465.46	2666.46
465.66	2834.39
465.86	2711.51
466.07	2674.65
466.27	2695.13
466.47	2537.43
466.68	2504.67
466.88	2797.53
467.08	2871.25
467.29	2883.54
467.49	2654.17
467.69	2729.94
467.89	2791.38
468.10	2789.33
468.30	2752.47
468.50	2770.90
468.71	2891.73
468.91	2596.82
469.11	2871.25
469.31	2746.33
469.52	2592.73
469.72	2963.41
469.92	2883.54
470.13	2656.22
470.33	2766.81
470.53	2727.89
470.73	2992.08
470.94	3223.50
471.14	3370.96
471.34	3833.80
471.54	3669.96
471.75	3352.52
471.95	3186.64
472.15	3065.81
472.36	3123.15
472.56	3043.28
472.76	3141.58
472.96	3059.67
473.17	2906.07
473.37	2869.20
473.57	2664.41
473.77	2744.28
473.98	2691.03
474.18	2598.87
474.38	3129.30
474.58	2709.46
474.79	2648.02
474.99	2844.63
475.19	2912.21
475.39	2598.87
475.60	2711.51
475.80	2711.51
476.00	2754.52
476.20	2701.27
476.41	2633.69
476.61	2699.22
476.81	2891.73
477.01	2729.94
477.21	2858.96
477.42	2789.33
477.62	2629.59
477.82	2865.11
478.02	2619.35
478.23	2813.91
478.43	2652.12
478.63	2656.22
478.83	2654.17
479.03	2695.13
479.24	2953.17
479.44	3033.04
479.64	2572.25
479.84	2416.60
480.04	2609.11
480.25	2861.01
480.45	2656.22
480.65	2643.93
480.85	3006.42
481.06	2705.37
481.26	2719.70
481.46	2635.74
481.66	2775.00
481.86	2615.26
482.06	2824.15
482.27	2652.12
482.47	2627.54
482.67	2750.42
482.87	2594.78
483.07	2748.37
483.28	2670.55
483.48	2519.00
483.68	2600.92
483.88	2590.68
484.08	2392.03
484.29	2545.63
484.49	2629.59
484.69	2555.86
484.89	2953.17
485.09	2863.06
485.29	2713.56
485.50	2772.95
485.70	2684.89
485.90	2904.02
486.10	2740.18
486.30	2721.75
486.50	2834.39
486.71	2711.51
486.91	2731.99
487.11	2799.57
487.31	2521.05
487.51	2770.90
487.71	2633.69
487.91	2549.72
488.12	2553.82
488.32	2455.51
488.52	2598.87
488.72	2383.84
488.92	2678.74
489.12	2891.73
489.32	2762.71
489.53	2674.65
489.73	2465.75
489.93	3018.71
490.13	2551.77
490.33	2449.37
490.53	2758.61
490.73	2830.29
490.94	2494.43
491.14	2799.57
491.34	2805.72
491.54	2852.82
491.74	3473.36
491.94	4073.41
492.14	4403.13
492.34	4513.72
492.54	4181.95
492.75	3553.23
492.95	3569.61
493.15	3350.48
493.35	3252.17
493.55	3157.97
493.75	3080.14
493.95	3305.42
494.15	2973.65
494.35	2758.61
494.56	2830.29
494.76	2629.59
494.96	2695.13
495.16	2609.11
495.36	2637.78
495.56	2738.13
495.76	2668.50
495.96	2680.79
496.16	2537.43
496.36	3030.99
496.56	2594.78
496.77	2744.28
496.97	2693.08
497.17	2924.50
497.37	2535.39
497.57	2752.47
497.77	2781.14
497.97	2578.39
498.17	2719.70
498.37	2639.83
498.57	2781.14
498.77	2680.79
498.97	2691.03
499.17	2932.69
499.38	2785.24
499.58	2752.47
499.78	2912.21
499.98	2762.71
500.18	2695.13
500.38	2568.15
500.58	2852.82
500.78	3280.85
500.98	5414.83
501.18	7202.71
501.38	8703.87
501.58	9557.87
501.78	9504.62
501.98	7767.95
502.18	6553.50
502.38	5601.19
502.58	5445.55
502.78	4796.34
502.98	4689.85
503.18	4419.52
503.38	4136.90
503.59	3524.55
503.79	3516.36
503.99	3266.51
504.19	3104.72
504.39	3106.77
504.59	3100.62
504.79	3033.04
504.99	3198.93
505.19	2994.13
505.39	2861.01
505.59	3057.62
505.79	3086.29
505.99	2906.07
506.19	2711.51
506.39	2846.68
506.59	2707.41
506.79	2648.02
506.99	2863.06
507.19	2670.55
507.39	2793.43
507.59	2496.47
507.79	2549.72
507.99	2580.44
508.19	2670.55
508.39	2703.32
508.59	2643.93
508.79	2713.56
508.99	3030.99
509.19	2678.74
509.39	2719.70
509.59	2574.30
509.79	2547.67
509.99	2768.85
510.19	2731.99
510.39	2772.95
510.59	2793.43
510.79	2672.60
510.99	2494.43
511.19	2633.69
511.39	3010.51
511.59	2975.70
511.79	2803.67
511.99	2758.61
512.19	3006.42
512.38	2754.52
512.58	2590.68
512.78	2570.20
512.98	2840.53
513.18	2981.84
513.38	2516.95
513.58	2744.28
513.78	2697.17
513.98	2758.61
514.18	2643.93
514.38	2574.30
514.58	2836.44
514.78	2695.13
514.98	2559.96
515.18	2658.26
515.38	2529.24
515.58	2904.02
515.78	2674.65
515.98	2633.69
516.18	2777.05
516.38	2699.22
516.57	2639.83
516.77	2633.69
516.97	2777.05
517.17	2580.44
517.37	2484.19
517.57	2740.18
517.77	2744.28
517.97	2537.43
518.17	2729.94
518.37	2615.26
518.57	2615.26
518.77	2672.60
518.97	2654.17
519.16	2670.55
519.36	2881.49
519.56	2691.03
519.76	2572.25
519.96	2703.32
520.16	2953.17
520.36	2566.10
520.56	2873.30
520.76	2543.58
520.96	2645.98
521.16	2877.40
521.35	2846.68
521.55	2738.13
521.75	2705.37
521.95	2641.88
522.15	2572.25
522.35	2469.85
522.55	2633.69
522.75	2852.82
522.95	2635.74
523.14	2496.47
523.34	2826.20
523.54	2590.68
523.74	2793.43
523.94	2695.13
524.14	2557.91
524.34	2807.77
524.54	2852.82
524.73	2684.89
524.93	2867.16
525.13	2756.57
525.33	2533.34
525.53	2852.82
525.73	2830.29
525.93	2760.66
526.13	2631.64
526.32	2668.50
526.52	2846.68
526.72	2867.16
526.92	2656.22
527.12	2641.88
527.32	2496.47
527.52	2756.57
527.71	2656.22
527.91	2635.74
528.11	2654.17
528.31	2820.05
528.51	2512.86
528.71	2750.42
528.90	2893.78
529.10	2897.88
529.30	2705.37
529.50	2346.97
529.70	2693.08
529.90	2674.65
530.09	2643.93
530.29	2510.81
530.49	2551.77
530.69	3170.26
530.89	2688.98
531.09	2768.85
531.28	2596.82
531.48	2893.78
531.68	2637.78
531.88	2721.75
532.08	2840.53
532.28	2635.74
532.47	2682.84
532.67	2762.71
532.87	2811.86
533.07	2607.06
533.27	2775.00
533.46	2734.04
533.66	2818.00
533.86	2613.21
534.06	2619.35
534.26	2748.37
534.45	2713.56
534.65	2820.05
534.85	2662.36
535.05	2613.21
535.25	2813.91
535.44	2537.43
535.64	2746.33
535.84	2637.78
536.04	2693.08
536.24	2676.70
536.43	2701.27
536.63	2684.89
536.83	2744.28
537.03	2684.89
537.22	2471.90
537.42	2525.15
537.62	2803.67
537.82	2568.15
538.02	2783.19
538.21	2664.41
538.41	3139.54
538.61	2815.96
538.81	2756.57
539.00	2809.81
539.20	2570.20
539.40	2754.52
539.60	2715.61
539.79	2711.51
539.99	2650.07
540.19	2609.11
540.39	2641.88
540.58	2695.13
540.78	2895.83
540.98	2736.09
541.18	2815.96
541.37	2764.76
541.57	2713.56
541.77	2807.77
541.97	2574.30
542.16	2525.15
542.36	2674.65
542.56	2664.41
542.76	2875.35
542.95	2723.80
543.15	2783.19
543.35	2826.20
543.54	2645.98
543.74	2703.32
543.94	2969.55
544.14	2615.26
544.33	2805.72
544.53	2693.08
544.73	2721.75
544.93	2699.22
545.12	2607.06
545.32	2641.88
545.52	2672.60
545.71	2537.43
545.91	2545.63
546.11	2660.31
546.30	2582.49
546.50	2674.65
546.70	2824.15
546.90	2674.65
547.09	2498.52
547.29	2756.57
547.49	2721.75
547.68	2697.17
547.88	2645.98
548.08	2846.68
548.27	3119.06
548.47	2605.02
548.67	2625.50
548.87	2752.47
549.06	2609.11
549.26	2639.83
549.46	2785.24
549.65	2572.25
549.85	2703.32
550.05	2697.17
550.24	2588.63
550.44	2748.37
550.64	2699.22
550.83	2631.64
551.03	2846.68
551.23	2977.75
551.42	2709.46
551.62	2615.26
551.82	2766.81
552.01	2738.13
552.21	2848.72
552.41	2654.17
552.60	2895.83
552.80	2729.94
553.00	2631.64
553.19	2678.74
553.39	3006.42
553.59	2537.43
553.78	2881.49
553.98	2660.31
554.17	2523.10
554.37	2793.43
554.57	2762.71
554.76	2463.71
554.96	2699.22
555.16	2691.03
555.35	2654.17
555.55	2727.89
555.75	2809.81
555.94	2871.25
556.14	2521.05
556.33	2748.37
556.53	2713.56
556.73	2711.51
556.92	2629.59
557.12	2752.47
557.32	3035.09
557.51	2815.96
557.71	2744.28
557.90	2867.16
558.10	2973.65
558.30	2699.22
558.49	2621.40
558.69	2660.31
558.88	2822.10
559.08	2709.46
559.28	2613.21
559.47	2699.22
559.67	2781.14
559.86	3026.90
560.06	2648.02
560.26	2639.83
560.45	2785.24
560.65	2682.84
560.84	2867.16
561.04	2566.10
561.24	2807.77
561.43	2514.91
561.63	2850.77
561.82	2658.26
562.02	2785.24
562.22	2594.78
562.41	2539.48
562.61	2643.93
562.80	2533.34
563.00	3084.24
563.19	2637.78
563.39	2717.65
563.59	2871.25
563.78	2666.46
563.98	2424.80
564.17	2631.64
564.37	2432.99
564.56	2686.94
564.76	2465.75
564.96	2822.10
565.15	2772.95
565.35	3104.72
565.54	2670.55
565.74	2740.18
565.93	2826.20
566.13	2731.99
566.32	2740.18
566.52	2760.66
566.71	2736.09
566.91	2805.72
567.11	2801.62
567.30	2549.72
567.50	2727.89
567.69	2736.09
567.89	2611.16
568.08	2588.63
568.28	2772.95
568.47	2506.71
568.67	2648.02
568.86	2588.63
569.06	2850.77
569.25	2672.60
569.45	2555.86
569.64	2721.75
569.84	2684.89
570.04	2828.24
570.23	2580.44
570.43	2715.61
570.62	2783.19
570.82	3006.42
571.01	2576.34
571.21	2609.11
571.40	2607.06
571.60	2824.15
571.79	2777.05
571.99	2590.68
572.18	2619.35
572.38	2854.87
572.57	2727.89
572.77	2731.99
572.96	3166.16
573.16	2775.00
573.35	2711.51
573.55	2766.81
573.74	2834.39
573.94	2711.51
574.13	2676.70
574.33	2834.39
574.52	2914.26
574.71	2801.62
574.91	2650.07
575.10	2531.29
575.30	2734.04
575.49	2594.78
575.69	2551.77
575.88	2787.29
576.08	2695.13
576.27	2858.96
576.47	2613.21
576.66	2813.91
576.86	2908.12
577.05	2785.24
577.25	2775.00
577.44	2897.88
577.64	2680.79
577.83	2906.07
578.02	2619.35
578.22	2863.06
578.41	2971.60
578.61	2627.54
578.80	2506.71
579.00	2684.89
579.19	2746.33
579.39	2775.00
579.58	2785.24
579.77	2670.55
579.97	2893.78
580.16	2840.53
580.36	2871.25
580.55	2818.00
580.75	2846.68
580.94	2803.67
581.13	2887.64
581.33	2918.36
581.52	2750.42
581.72	2897.88
581.91	2838.48
582.11	2627.54
582.30	2910.16
582.49	2797.53
582.69	2887.64
582.88	2699.22
583.08	2738.13
583.27	2893.78
583.47	2750.42
583.66	2602.97
583.85	2627.54
584.05	2617.30
584.24	2781.14
584.44	2725.85
584.63	2936.79
584.82	2910.16
585.02	2842.58
585.21	2820.05
585.41	2895.83
585.60	2766.81
585.79	2944.98
585.99	2951.12
586.18	2877.40
586.37	3520.46
586.57	5461.93
586.76	16066.31
586.96	35071.46
587.15	48719.13
587.34	57201.82
587.54	61310.04
587.73	54891.71
587.93	38856.11
588.12	29605.44
588.31	24090.26
588.51	20965.06
588.70	19437.27
588.89	17219.32
589.09	14792.48
589.28	12355.40
589.47	9914.22
589.67	7528.33
589.86	5756.84
590.06	4593.59
590.25	3966.92
590.44	3467.21
590.64	3090.38
590.83	2983.89
591.02	3000.27
591.22	2809.81
591.41	2797.53
591.60	2691.03
591.80	3133.39
591.99	2586.58
592.18	2686.94
592.38	2928.60
592.57	2625.50
592.76	2654.17
592.96	2715.61
593.15	2744.28
593.34	2791.38
593.54	2584.54
593.73	2807.77
593.92	2818.00
594.12	2899.92
594.31	2752.47
594.50	2818.00
594.70	2805.72
594.89	3180.50
595.08	2508.76
595.28	2795.48
595.47	3213.26
595.66	2865.11
595.86	2514.91
596.05	2600.92
596.24	2668.50
596.43	2998.23
596.63	2848.72
596.82	2838.48
597.01	2705.37
597.21	3028.95
597.40	2715.61
597.59	2656.22
597.79	2691.03
597.98	2744.28
598.17	2789.33
598.36	2629.59
598.56	2824.15
598.75	2658.26
598.94	2691.03
599.14	2695.13
599.33	2666.46
599.52	2924.50
599.71	2791.38
599.91	2699.22
600.10	2815.96
600.29	2723.80
600.48	2662.36
600.68	2760.66
600.87	2811.86
601.06	2654.17
601.26	2715.61
601.45	2740.18
601.64	2723.80
601.83	2928.60
602.03	2586.58
602.22	2465.75
602.41	2789.33
602.60	3100.62
602.80	2795.48
602.99	2740.18
603.18	2664.41
603.37	2772.95
603.57	2670.55
603.76	2746.33
603.95	2865.11
604.14	2576.34
604.34	2602.97
604.53	2637.78
604.72	2758.61
604.91	2824.15
605.10	2693.08
605.30	2492.38
605.49	3086.29
605.68	2875.35
605.87	2740.18
606.07	2576.34
606.26	2734.04
606.45	2820.05
606.64	2645.98
606.84	2631.64
607.03	2648.02
607.22	2871.25
607.41	2645.98
607.60	2666.46
607.80	2906.07
607.99	2742.23
608.18	2703.32
608.37	2674.65
608.56	2588.63
608.76	2891.73
608.95	2840.53
609.14	2705.37
609.33	2920.40
609.52	3008.47
609.72	2711.51
609.91	2750.42
610.10	2873.30
610.29	2994.13
610.48	2744.28
610.68	2703.32
610.87	2660.31
611.06	2871.25
611.25	2637.78
611.44	2811.86
611.63	2684.89
611.83	2922.45
612.02	2496.47
612.21	2785.24
612.40	2562.01
612.59	2559.96
612.79	2572.25
612.98	2703.32
613.17	2987.99
613.36	2641.88
613.55	2885.59
613.74	2658.26
613.93	2842.58
614.13	2887.64
614.32	2789.33
614.51	2748.37
614.70	2818.00
614.89	2711.51
615.08	2758.61
615.28	3137.49
615.47	2539.48
615.66	2815.96
615.85	2686.94
616.04	2824.15
616.23	2711.51
616.42	2725.85
616.62	2684.89
616.81	2738.13
617.00	2695.13
617.19	2828.24
617.38	2596.82
617.57	2707.41
617.76	2867.16
617.95	2895.83
618.15	2695.13
618.34	2920.40
618.53	2553.82
618.72	2828.24
618.91	2715.61
619.10	2736.09
619.29	2719.70
619.48	2654.17
619.68	2547.67
619.87	2623.45
620.06	2508.76
620.25	2799.57
620.44	2652.12
620.63	2645.98
620.82	2801.62
621.01	2764.76
621.20	2715.61
621.39	2654.17
621.59	2797.53
621.78	2775.00
621.97	2621.40
622.16	2742.23
622.35	2805.72
622.54	2895.83
622.73	2772.95
622.92	2414.56
623.11	2846.68
623.30	2736.09
623.49	2752.47
623.68	2547.67
623.88	2942.93
624.07	2648.02
624.26	2615.26
624.45	2670.55
624.64	2678.74
624.83	2766.81
625.02	2600.92
625.21	2713.56
625.40	2736.09
625.59	2899.92
625.78	2633.69
625.97	2822.10
626.16	3028.95
626.35	2871.25
626.54	2758.61
626.74	2832.34
626.93	2770.90
627.12	2645.98
627.31	2768.85
627.50	2848.72
627.69	2842.58
627.88	2580.44
628.07	2598.87
628.26	2473.95
628.45	2648.02
628.64	2547.67
628.83	2754.52
629.02	2590.68
629.21	2797.53
629.40	2762.71
629.59	2512.86
629.78	2613.21
629.97	2705.37
630.16	2801.62
630.35	2645.98
630.54	2731.99
630.73	2580.44
630.92	2723.80
631.11	2539.48
631.30	2693.08
631.49	2828.24
631.68	2701.27
631.87	2775.00
632.06	2650.07
632.25	3041.23
632.44	2713.56
632.63	2693.08
632.82	2662.36
633.01	2645.98
633.20	2756.57
633.39	2578.39
633.58	2537.43
633.77	2764.76
633.96	2770.90
634.15	2820.05
634.34	2707.41
634.53	2779.09
634.72	2652.12
634.91	2447.32
635.10	2666.46
635.29	2783.19
635.48	2723.80
635.67	2557.91
635.86	2506.71
636.05	2848.72
636.24	2691.03
636.43	2627.54
636.62	2719.70
636.81	2418.65
637.00	2740.18
637.19	2734.04
637.38	2666.46
637.57	2635.74
637.76	2775.00
637.95	2869.20
638.14	2641.88
638.33	2858.96
638.52	2797.53
638.71	2512.86
638.89	2529.24
639.08	3123.15
639.27	2828.24
639.46	2910.16
639.65	3168.21
639.84	3227.60
640.03	3264.46
640.22	3121.10
640.41	3170.26
640.60	2809.81
640.79	3014.61
640.98	2799.57
641.17	2781.14
641.36	2914.26
641.55	2914.26
641.74	2629.59
641.92	2627.54
642.11	2623.45
642.30	2725.85
642.49	2635.74
642.68	2637.78
642.87	2750.42
643.06	2756.57
643.25	2627.54
643.44	2559.96
643.63	2738.13
643.82	2791.38
644.00	2570.20
644.19	2658.26
644.38	2643.93
644.57	2852.82
644.76	2654.17
644.95	2615.26
645.14	2736.09
645.33	2762.71
645.52	2701.27
645.71	2543.58
645.89	2570.20
646.08	2693.08
646.27	2617.30
646.46	2826.20
646.65	2533.34
646.84	2635.74
647.03	2488.28
647.22	2803.67
647.40	2725.85
647.59	2693.08
647.78	2562.01
647.97	2631.64
648.16	2629.59
648.35	2998.23
648.54	2875.35
648.73	2619.35
648.91	2801.62
649.10	2695.13
649.29	2584.54
649.48	2631.64
649.67	2783.19
649.86	2750.42
650.05	2703.32
650.23	2885.59
650.42	2670.55
650.61	2906.07
650.80	2875.35
650.99	2961.36
651.18	2879.44
651.36	2883.54
651.55	2605.02
651.74	2736.09
651.93	2723.80
652.12	2672.60
652.31	2670.55
652.49	2719.70
652.68	2637.78
652.87	2883.54
653.06	2654.17
653.25	2920.40
653.44	2686.94
653.62	2922.45
653.81	2658.26
654.00	2691.03
654.19	2856.92
654.38	3129.30
654.56	2760.66
654.75	2557.91
654.94	2901.97
655.13	2727.89
655.32	2635.74
655.51	2785.24
655.69	2625.50
655.88	2897.88
656.07	2539.48
656.26	2662.36
656.45	2519.00
656.63	2686.94
656.82	2627.54
657.01	2799.57
657.20	2643.93
657.38	2924.50
657.57	2531.29
657.76	2523.10
657.95	2807.77
658.14	2736.09
658.32	2803.67
658.51	2557.91
658.70	2805.72
658.89	2725.85
659.08	2703.32
659.26	2863.06
659.45	2592.73
659.64	2787.29
659.83	2619.35
660.01	3026.90
660.20	2748.37
660.39	2885.59
660.58	2435.03
660.76	2756.57
660.95	2500.57
661.14	2791.38
661.33	2523.10
661.51	2684.89
661.70	2609.11
661.89	2820.05
662.08	2703.32
662.26	2514.91
662.45	2572.25
662.64	2971.60
662.83	2756.57
663.01	2486.23
663.20	2680.79
663.39	2977.75
663.58	2605.02
663.76	2688.98
663.95	2842.58
664.14	2631.64
664.32	2621.40
664.51	2490.33
664.70	2555.86
664.89	2820.05
665.07	2486.23
665.26	2793.43
665.45	2541.53
665.64	2844.63
665.82	2621.40
666.01	2820.05
666.20	2547.67
666.38	2861.01
666.57	2922.45
666.76	4261.82
666.95	10049.38
667.13	16961.28
667.32	21249.72
667.51	24041.11
667.69	25177.73
667.88	21716.66
668.07	15480.60
668.25	12971.83
668.44	11018.07
668.63	9584.49
668.81	8531.84
669.00	7364.50
669.19	6694.81
669.38	5820.33
669.56	4863.93
669.75	4173.76
669.94	3702.73
670.12	3274.70
670.31	2910.16
670.50	2955.22
670.68	2949.08
670.87	2824.15
671.06	2662.36
671.24	2703.32
671.43	2899.92
671.62	2785.24
671.80	2658.26
671.99	2760.66
672.18	2775.00
672.36	2750.42
672.55	2789.33
672.74	2652.12
672.92	2650.07
673.11	2815.96
673.29	2570.20
673.48	2787.29
673.67	2744.28
673.85	2899.92
674.04	2535.39
674.23	2783.19
674.41	2996.18
674.60	2645.98
674.79	2478.04
674.97	2594.78
675.16	2844.63
675.34	2785.24
675.53	2611.16
675.72	2752.47
675.90	3090.38
676.09	2711.51
676.28	2664.41
676.46	2435.03
676.65	2850.77
676.83	2584.54
677.02	2699.22
677.21	2754.52
677.39	2742.23
677.58	2580.44
677.77	2596.82
677.95	2557.91
678.14	2645.98
678.32	2723.80
678.51	2619.35
678.70	2996.18
678.88	2717.65
679.07	2734.04
679.25	2695.13
679.44	2674.65
679.63	2523.10
679.81	2815.96
680.00	2832.34
680.18	2752.47
680.37	2924.50
680.55	2742.23
680.74	2512.86
680.93	2435.03
681.11	2754.52
681.30	2717.65
681.48	2742.23
681.67	2633.69
681.85	2697.17
682.04	2588.63
682.23	2811.86
682.41	2686.94
682.60	2631.64
682.78	2758.61
682.97	2545.63
683.15	2686.94
683.34	2775.00
683.53	2924.50
683.71	2463.71
683.90	2838.48
684.08	3039.19
684.27	2697.17
684.45	2676.70
684.64	2760.66
684.82	2734.04
685.01	2815.96
685.19	2668.50
685.38	2850.77
685.57	2750.42
685.75	2609.11
685.94	2619.35
686.12	2576.34
686.31	2721.75
686.49	3002.32
686.68	2455.51
686.86	2678.74
687.05	2725.85
687.23	2924.50
687.42	2713.56
687.60	2449.37
687.79	2869.20
687.97	2887.64
688.16	2811.86
688.34	2824.15
688.53	2564.06
688.71	2914.26
688.90	2801.62
689.08	2656.22
689.27	2496.47
689.45	2822.10
689.64	2775.00
689.82	2641.88
690.01	2807.77
690.19	2764.76
690.38	2695.13
690.56	2809.81
690.75	2559.96
690.93	2664.41
691.12	2582.49
691.30	2715.61
691.49	2719.70
691.67	2795.48
691.86	2926.55
692.04	2605.02
692.23	2641.88
692.41	2707.41
692.60	2938.84
692.78	2813.91
692.97	2707.41
693.15	2785.24
693.34	2889.68
693.52	2777.05
693.71	2633.69
693.89	2639.83
694.08	2521.05
694.26	2746.33
694.44	2830.29
694.63	2785.24
694.81	2523.10
695.00	2617.30
695.18	2926.55
695.37	3090.38
695.55	2791.38
695.74	2639.83
695.92	2602.97
696.10	2957.27
696.29	2498.52
696.47	2598.87
696.66	2635.74
696.84	2598.87
697.03	2764.76
697.21	2942.93
697.40	4173.76
697.58	2887.64
697.76	2629.59
697.95	2576.34
698.13	2512.86
698.32	2635.74
698.50	2666.46
698.68	2672.60
698.87	2783.19
699.05	2951.12
699.24	2660.31
699.42	2508.76
699.61	2738.13
699.79	2660.31
699.97	2748.37
700.16	2535.39
700.34	2521.05
700.53	2742.23
700.71	2877.40
700.89	2705.37
701.08	2666.46
701.26	2731.99
701.45	3186.64
701.63	2635.74
701.81	2658.26
702.00	2588.63
702.18	2623.45
702.37	2619.35
702.55	2961.36
702.73	2805.72
702.92	2707.41
703.10	2873.30
703.28	2920.40
703.47	2666.46
703.65	2879.44
703.84	2818.00
704.02	2779.09
704.20	2895.83
704.39	2654.17
704.57	2582.49
704.75	2854.87
704.94	2793.43
705.12	2723.80
705.30	3055.57
705.49	5773.22
705.67	11824.97
705.86	17880.82
706.04	20324.04
706.22	22611.62
706.41	22638.25
706.59	17559.28
706.77	13354.80
706.96	11482.96
707.14	10375.01
707.32	8984.44
707.51	7989.13
707.69	6444.96
707.87	5386.16
708.06	4478.91
708.24	3876.80
708.42	3381.20
708.61	3395.53
708.79	2887.64
708.97	2779.09
709.16	2797.53
709.34	2842.58
709.52	2605.02
709.71	2598.87
709.89	2770.90
710.07	2631.64
710.26	2580.44
710.44	2695.13
710.62	2791.38
710.80	2625.50
710.99	2811.86
711.17	2768.85
711.35	2629.59
711.54	2592.73
711.72	2750.42
711.90	2736.09
712.09	2785.24
712.27	2557.91
712.45	2766.81
712.63	2623.45
712.82	2717.65
713.00	2693.08
713.18	2789.33
713.37	2758.61
713.55	2858.96
713.73	2871.25
713.91	2719.70
714.10	2633.69
714.28	2637.78
714.46	2742.23
714.65	2779.09
714.83	2703.32
715.01	2717.65
715.19	2785.24
715.38	2555.86
715.56	2676.70
715.74	2613.21
715.92	2598.87
716.11	2916.31
716.29	2494.43
716.47	2760.66
716.65	2719.70
716.84	2535.39
717.02	2711.51
717.20	2453.47
717.38	2645.98
717.57	2680.79
717.75	2682.84
717.93	2627.54
718.11	2785.24
718.30	2545.63
718.48	2664.41
718.66	2908.12
718.84	2854.87
719.03	2727.89
719.21	2578.39
719.39	2981.84
719.57	2768.85
719.75	2785.24
719.94	2531.29
720.12	2656.22
720.30	2662.36
720.48	2760.66
720.67	2578.39
720.85	2551.77
721.03	2678.74
721.21	2527.19
721.39	2818.00
721.58	2783.19
721.76	2711.51
721.94	2744.28
722.12	2777.05
722.30	2977.75
722.49	2586.58
722.67	2660.31
722.85	2695.13
723.03	2551.77
723.21	2678.74
723.40	2672.60
723.58	2844.63
723.76	2801.62
723.94	2858.96
724.12	2693.08
724.30	2904.02
724.49	2813.91
724.67	2637.78
724.85	2840.53
725.03	2572.25
725.21	2840.53
725.40	2844.63
725.58	2654.17
725.76	2834.39
725.94	2830.29
726.12	2574.30
726.30	2672.60
726.49	2676.70
726.67	2666.46
726.85	2879.44
727.03	3102.67
727.21	4171.71
727.39	5062.58
727.57	5578.67
727.76	6025.12
727.94	6119.33
728.12	5640.11
728.30	4634.55
728.48	4315.07
728.66	3985.35
728.84	3717.06
729.03	3342.28
729.21	3145.68
729.39	3041.23
729.57	2820.05
729.75	2740.18
729.93	2785.24
730.11	2619.35
730.30	2715.61
730.48	2660.31
730.66	2803.67
730.84	2691.03
731.02	2701.27
731.20	2633.69
731.38	2750.42
731.56	2629.59
731.74	2482.14
731.93	2723.80
732.11	2680.79
732.29	2645.98
732.47	2797.53
732.65	2736.09
732.83	2906.07
733.01	2674.65
733.19	2648.02
733.37	2738.13
733.56	2793.43
733.74	2631.64
733.92	2908.12
734.10	2666.46
734.28	2748.37
734.46	2498.52
734.64	2658.26
734.82	2682.84
735.00	2660.31
735.18	2590.68
735.36	2742.23
735.54	2744.28
735.73	2648.02
735.91	2641.88
736.09	2938.84
736.27	2707.41
736.45	2768.85
736.63	2396.12
736.81	2699.22
736.99	2840.53
737.17	2895.83
737.35	2611.16
737.53	2740.18
737.71	2731.99
737.89	2822.10
738.07	2596.82
738.25	2605.02
738.43	2455.51
738.61	2613.21
738.80	2537.43
738.98	2580.44
739.16	2662.36
739.34	2637.78
739.52	2820.05
739.70	2686.94
739.88	2828.24
740.06	2775.00
740.24	2478.04
740.42	2840.53
740.60	2490.33
740.78	2592.73
740.96	2418.65
741.14	2656.22
741.32	2756.57
741.50	2449.37
741.68	2885.59
741.86	2973.65
742.04	2582.49
742.22	2594.78
742.40	2727.89
742.58	2858.96
742.76	2639.83
742.94	2791.38
743.12	2461.66
743.30	2629.59
743.48	2729.94
743.66	2535.39
743.84	2719.70
744.02	2736.09
744.20	2760.66
744.38	2574.30
744.56	2633.69
744.74	2934.74
744.92	2670.55
745.10	2840.53
745.28	2676.70
745.46	2885.59
745.64	2629.59
745.82	2809.81
746.00	2662.36
746.18	2770.90
746.36	2570.20
746.54	2764.76
746.72	2643.93
746.90	2639.83
747.08	2904.02
747.26	2605.02
747.44	2770.90
747.62	2838.48
747.80	2801.62
747.98	2752.47
748.15	2703.32
748.33	2932.69
748.51	2758.61
748.69	2713.56
748.87	2541.53
749.05	2650.07
749.23	2764.76
749.41	2605.02
749.59	2625.50
749.77	2807.77
749.95	2691.03
750.13	2645.98
750.31	2758.61
750.49	2768.85
750.67	2813.91
750.85	2762.71
751.03	2693.08
751.20	3125.20
751.38	2750.42
751.56	2549.72
751.74	2662.36
751.92	2650.07
752.10	2600.92
752.28	2832.34
752.46	2605.02
752.64	2715.61
752.82	2846.68
753.00	2826.20
753.18	2619.35
753.35	2738.13
753.53	2686.94
753.71	2553.82
753.89	2779.09
754.07	2758.61
754.25	2822.10
754.43	2697.17
754.61	2617.30
754.79	2795.48
754.97	2717.65
755.14	2869.20
755.32	2527.19
755.50	2727.89
755.68	2758.61
755.86	2508.76
756.04	2611.16
756.22	2529.24
756.40	2826.20
756.57	2863.06
756.75	2674.65
756.93	2809.81
757.11	2795.48
757.29	2596.82
757.47	2486.23
757.65	2463.71
757.82	2353.12
758.00	2586.58
758.18	2615.26
758.36	2699.22
758.54	3000.27
758.72	2529.24
758.90	2861.01
759.07	2699.22
759.25	2531.29
759.43	2731.99
759.61	2605.02
759.79	3876.80
759.97	2863.06
760.15	2580.44
760.32	2656.22
760.50	2793.43
760.68	2965.46
760.86	2512.86
761.04	2891.73
761.22	2838.48
761.39	2707.41
761.57	2807.77
761.75	2588.63
761.93	2787.29
762.11	2625.50
762.28	2764.76
762.46	2514.91
762.64	2867.16
762.82	2525.15
763.00	2648.02
763.18	2889.68
763.35	2553.82
763.53	2893.78
763.71	2684.89
763.89	2643.93
764.07	2744.28
764.24	2740.18
764.42	2707.41
764.60	2676.70
764.78	2760.66
764.96	2922.45
765.13	2742.23
765.31	2684.89
765.49	2840.53
765.67	2559.96
765.84	2635.74
766.02	2654.17
766.20	2582.49
766.38	2822.10
766.56	2791.38
766.73	2686.94
766.91	2684.89
767.09	2725.85
767.27	2695.13
767.44	2533.34
767.62	2865.11
767.80	2713.56
767.98	2586.58
768.15	2691.03
768.33	2891.73
768.51	2758.61
768.69	2695.13
768.87	2695.13
769.04	2699.22
769.22	3020.75
769.40	2852.82
769.58	2828.24
769.75	2709.46
769.93	2971.60
770.11	2609.11
770.28	2598.87
770.46	2740.18
770.64	2770.90
770.82	2717.65
770.99	2527.19
771.17	2807.77
771.35	2619.35
771.53	2701.27
771.70	2615.26
771.88	2801.62
772.06	2627.54
772.23	2637.78
772.41	2682.84
772.59	2678.74
772.77	2568.15
772.94	2613.21
773.12	2719.70
773.30	2701.27
773.47	2729.94
773.65	2568.15
773.83	2799.57
774.01	2799.57
774.18	2502.62
774.36	2629.59
774.54	2564.06
774.71	2709.46
774.89	2607.06
775.07	2582.49
775.24	2592.73
775.42	2621.40
775.60	2924.50
775.78	2566.10
775.95	2521.05
776.13	2484.19
776.31	2441.18
776.48	2711.51
776.66	2846.68
776.84	2660.31
777.01	2615.26
777.19	2613.21
777.37	2631.64
777.54	2807.77
777.72	3035.09
777.90	2652.12
778.07	2576.34
778.25	3168.21
778.43	2930.64
778.60	2615.26
778.78	2791.38
778.96	3018.71
779.13	2580.44
779.31	2734.04
779.49	2586.58
779.66	2676.70
779.84	2660.31
780.01	2611.16
780.19	2555.86
780.37	2920.40
780.54	2815.96
780.72	2629.59
780.90	2717.65
781.07	2723.80
781.25	2658.26
781.43	2801.62
781.60	2637.78
781.78	2893.78
781.95	2734.04
782.13	2662.36
782.31	2682.84
782.48	2441.18
782.66	2781.14
782.83	2965.46
783.01	2670.55
783.19	2854.87
783.36	2650.07
783.54	2504.67
783.72	2826.20
783.89	2607.06
784.07	2809.81
784.24	2693.08
784.42	2818.00
784.60	2723.80
784.77	2734.04
784.95	2406.36
785.12	2625.50
785.30	2799.57
785.47	2594.78
785.65	2512.86
785.83	2629.59
786.00	2607.06
786.18	2697.17
786.35	2539.48
786.53	2553.82
786.71	2916.31
786.88	2795.48
787.06	2809.81
787.23	2678.74
787.41	2670.55
787.58	2719.70
787.76	2572.25
787.94	2682.84
788.11	2729.94
788.29	2582.49
788.46	2549.72
788.64	2519.00
788.81	2676.70
788.99	2527.19
789.16	2512.86
789.34	2627.54
789.52	2580.44
789.69	2633.69
789.87	2449.37
790.04	2643.93
790.22	2740.18
790.39	3008.47
790.57	2629.59
790.74	2523.10
790.92	2834.39
791.09	2555.86
791.27	2678.74
791.44	2740.18
791.62	2750.42
791.79	2791.38
791.97	2725.85
792.15	2957.27
792.32	2852.82
792.50	2828.24
792.67	2824.15
792.85	2906.07
793.02	2742.23
793.20	2637.78
793.37	2510.81
793.55	2619.35
793.72	2547.67
793.90	2772.95
794.07	2641.88
794.25	2578.39
794.42	2727.89
794.60	2629.59
794.77	2691.03
794.95	2777.05
795.12	2820.05
795.30	2719.70
795.47	2478.04
795.65	2985.94
795.82	2803.67
796.00	2576.34
796.17	2715.61
796.34	2566.10
796.52	2818.00
796.69	2942.93
796.87	2764.76
797.04	2717.65
797.22	2805.72
797.39	2752.47
797.57	2813.91
797.74	2658.26
797.92	2746.33
798.09	2623.45
798.27	2899.92
798.44	2643.93
798.62	2666.46
798.79	2719.70
798.96	2756.57
799.14	2615.26
799.31	3172.30
799.49	2768.85
799.66	2664.41
799.84	2734.04
800.01	2453.47
800.19	2711.51
800.36	2445.27
800.53	2652.12
800.71	2818.00
800.88	2992.08
801.06	2562.01
801.23	2633.69
801.41	2736.09
801.58	2670.55
801.75	2555.86
801.93	2633.69
802.10	2834.39
802.28	2697.17
802.45	2670.55
802.63	2764.76
802.80	2942.93
802.97	2654.17
803.15	2727.89
803.32	2594.78
803.50	2596.82
803.67	2625.50
803.84	2592.73
804.02	2668.50
804.19	2672.60
804.37	2426.84
804.54	2566.10
804.71	2594.78
804.89	2703.32
805.06	2594.78
805.24	2559.96
805.41	2541.53
805.58	2662.36
805.76	3030.99
805.93	2645.98
806.10	2734.04
806.28	2830.29
806.45	2729.94
806.63	2768.85
806.80	2721.75
806.97	2795.48
807.15	2723.80
807.32	2607.06
807.49	2639.83
807.67	2523.10
807.84	2713.56
808.01	2453.47
808.19	2801.62
808.36	3112.91
808.54	2645.98
808.71	2635.74
808.88	2707.41
809.06	2881.49
809.23	2887.64
809.40	2658.26
809.58	2674.65
809.75	2783.19
809.92	2609.11
810.10	2973.65
810.27	2645.98
810.44	2695.13
810.62	2785.24
810.79	2717.65
810.96	2475.99
811.14	2645.98
811.31	2856.92
811.48	2777.05
811.66	2625.50
811.83	2826.20
812.00	2820.05
812.18	2721.75
812.35	2895.83
812.52	2680.79
812.69	2662.36
812.87	2611.16
813.04	2592.73
813.21	2736.09
813.39	2645.98
813.56	2578.39
813.73	2916.31
813.91	2572.25
814.08	2693.08
814.25	2738.13
814.42	2441.18
814.60	2656.22
814.77	2699.22
814.94	2680.79
815.12	2682.84
815.29	2963.41
815.46	2559.96
815.63	2727.89
815.81	2578.39
815.98	2695.13
816.15	2801.62
816.33	2697.17
816.50	2615.26
816.67	2734.04
816.84	2670.55
817.02	2564.06
817.19	2660.31
817.36	2736.09
817.53	2826.20
817.71	2523.10
817.88	2705.37
818.05	2684.89
818.22	2662.36
818.40	2820.05
818.57	2541.53
818.74	2752.47
818.91	2719.70
819.09	2768.85
819.26	2729.94
819.43	2658.26
819.60	2613.21
819.78	2789.33
819.95	2793.43
820.12	2512.86
820.29	2834.39
820.47	2842.58
820.64	2564.06
820.81	2514.91
820.98	2627.54
821.15	2650.07
821.33	2754.52
821.50	2445.27
821.67	2772.95
821.84	2670.55
822.02	2674.65
822.19	2854.87
822.36	2715.61
822.53	2578.39
822.70	2609.11
822.88	2602.97
823.05	2955.22
823.22	2711.51
823.39	2703.32
823.56	2703.32
823.74	2944.98
823.91	2564.06
824.08	2539.48
824.25	2629.59
824.42	2932.69
824.60	2488.28
824.77	2672.60
824.94	2682.84
825.11	2840.53
825.28	2453.47
825.45	2680.79
825.63	2775.00
825.80	2557.91
825.97	2752.47
826.14	2701.27
826.31	2506.71
826.48	2777.05
826.66	2588.63
826.83	2594.78
827.00	2580.44
827.17	2584.54
827.34	2598.87
827.51	2615.26
827.69	2744.28
827.86	2543.58
828.03	2645.98
828.20	2760.66
828.37	2641.88
828.54	2688.98
828.71	2580.44
828.89	2723.80
829.06	2842.58
829.23	2971.60
829.40	2574.30
829.57	2574.30
829.74	2883.54
829.91	2574.30
830.09	2525.15
830.26	2752.47
830.43	2930.64
830.60	2615.26
830.77	2754.52
830.94	2805.72
831.11	2801.62
831.28	2662.36
831.46	2738.13
831.63	2588.63
831.80	2883.54
831.97	2551.77
832.14	2648.02
832.31	2729.94
832.48	2795.48
832.65	2768.85
832.82	2731.99
832.99	2656.22
833.17	2578.39
833.34	2867.16
833.51	2682.84
833.68	2500.57
833.85	2760.66
834.02	2605.02
834.19	2541.53
834.36	2549.72
834.53	2688.98
834.70	2838.48
834.87	2627.54
835.04	2545.63
835.22	2645.98
835.39	2664.41
835.56	2478.04
835.73	2578.39
835.90	2881.49
836.07	2641.88
836.24	2656.22
836.41	2533.34
836.58	2590.68
836.75	2834.39
836.92	2578.39
837.09	2510.81
837.26	2813.91
837.43	2777.05
837.60	2588.63
837.77	2516.95
837.94	2766.81
838.12	2920.40
838.29	2559.96
838.46	2475.99
838.63	2549.72
838.80	2879.44
838.97	2627.54
839.14	2562.01
839.31	2652.12
839.48	2869.20
839.65	2582.49
839.82	2674.65
839.99	2662.36
840.16	2719.70
840.33	2521.05
840.50	2596.82
840.67	2535.39
840.84	2455.51
841.01	2463.71
841.18	2551.77
841.35	2674.65
841.52	2805.72
841.69	2826.20
841.86	2547.67
842.03	2666.46
842.20	2822.10
842.37	2619.35
842.54	2553.82
842.71	2674.65
842.88	2457.56
843.05	2557.91
843.22	2584.54
843.39	2797.53
843.56	2594.78
843.73	2572.25
843.90	2547.67
844.07	2736.09
844.24	2916.31
844.41	2650.07
844.58	2617.30
844.75	2697.17
844.92	2758.61
845.09	2570.20
845.26	2516.95
845.43	2852.82
845.60	2695.13
845.77	2621.40
845.94	2648.02
846.10	2875.35
846.27	2482.14
846.44	2545.63
846.61	2490.33
846.78	2693.08
846.95	2818.00
847.12	2508.76
847.29	2588.63
847.46	2605.02
847.63	2809.81
847.80	2447.32
847.97	2566.10
848.14	3090.38
848.31	2715.61
848.48	2439.13
848.65	2758.61
848.82	2635.74
848.98	3106.77
849.15	2611.16
849.32	2645.98
849.49	2871.25
849.66	2688.98
849.83	2521.05
850.00	2490.33
850.17	2826.20
850.34	2654.17
850.51	2510.81
850.68	2586.58
850.85	3041.23
851.01	2752.47
851.18	2516.95
851.35	2586.58
851.52	2818.00
851.69	2873.30
851.86	2533.34
852.03	2506.71
852.20	2775.00
852.37	2611.16
852.53	2457.56
852.70	2492.38
852.87	2848.72
853.04	2887.64
853.21	2584.54
853.38	2682.84
853.55	2822.10
853.72	2883.54
853.89	2404.32
854.05	2543.58
854.22	2684.89
854.39	2695.13
854.56	2625.50
854.73	2750.42
854.90	2592.73
855.07	2703.32
855.23	2463.71
855.40	2490.33
855.57	2715.61
855.74	2430.94
855.91	2717.65
856.08	2396.12
856.25	2523.10
856.41	2568.15
856.58	2531.29
856.75	2555.86
856.92	2539.48
857.09	2887.64
857.26	2432.99
857.42	2582.49
857.59	2881.49
857.76	2680.79
857.93	2568.15
858.10	2598.87
858.27	2549.72
858.43	2834.39
858.60	2516.95
858.77	2428.89
858.94	2664.41
859.11	2926.55
859.27	2578.39
859.44	2547.67
859.61	2987.99
859.78	2766.81
859.95	2492.38
860.12	2453.47
860.28	2996.18
860.45	2961.36
860.62	2498.52
860.79	2674.65
860.95	2715.61
861.12	2562.01
861.29	2396.12
861.46	2441.18
861.63	2641.88
861.79	2721.75
861.96	2418.65
862.13	2574.30
862.30	2850.77
862.47	2645.98
862.63	2463.71
862.80	2682.84
862.97	2879.44
863.14	2703.32
863.30	2623.45
863.47	2551.77
863.64	2856.92
863.81	2682.84
863.97	2498.52
864.14	2539.48
864.31	2652.12
864.48	2768.85
864.65	2504.67
864.81	2621.40
864.98	2783.19
865.15	2875.35
865.32	2641.88
865.48	2654.17
865.65	3004.37
865.82	2598.87
865.98	2643.93
866.15	2672.60
866.32	2676.70
866.49	2594.78
866.65	2697.17
866.82	2531.29
866.99	2725.85
867.16	2645.98
867.32	2543.58
867.49	2549.72
867.66	2658.26
867.83	2590.68
867.99	2455.51
868.16	2582.49
868.33	2570.20
868.49	2703.32
868.66	2559.96
868.83	2666.46
868.99	2721.75
869.16	2688.98
869.33	2633.69
869.50	2631.64
869.66	2766.81
869.83	2654.17
870.00	2498.52
870.16	2641.88
870.33	2656.22
870.50	2828.24
870.66	2625.50
870.83	2613.21
871.00	2674.65
871.17	2744.28
871.33	2588.63
871.50	2564.06
871.67	2682.84
871.83	2559.96
872.00	2703.32
872.17	2572.25
872.33	3037.14
872.50	2762.71
872.67	2594.78
872.83	2498.52
873.00	2809.81
873.17	2721.75
873.33	2602.97
873.50	2682.84
873.67	2580.44
873.83	2584.54
874.00	2586.58
874.16	2660.31
874.33	2682.84
874.50	2519.00
874.66	2531.29
874.83	2596.82
875.00	2822.10
875.16	2801.62
875.33	2680.79
875.50	2359.26
875.66	2559.96
875.83	2727.89
875.99	2551.77
876.16	2658.26
876.33	2654.17
876.49	2723.80
876.66	2596.82
876.83	2559.96
876.99	2539.48
877.16	2758.61
877.32	2447.32
877.49	2519.00
877.66	2777.05
877.82	2938.84
877.99	2600.92
878.15	2731.99
878.32	2848.72
878.49	2764.76
878.65	2625.50
878.82	2758.61
878.98	2564.06
879.15	2867.16
879.32	2662.36
879.48	2697.17
879.65	2633.69
879.81	2662.36
879.98	2592.73
880.15	2496.47
880.31	2842.58
880.48	2592.73
880.64	2691.03
880.81	2686.94
880.97	2928.60
881.14	2889.68
881.31	2523.10
881.47	2725.85
881.64	2643.93
881.80	2449.37
881.97	2699.22
882.13	2602.97
882.30	2695.13
882.47	2680.79
882.63	2439.13
882.80	2512.86
882.96	2619.35
883.13	2930.64
883.29	2637.78
883.46	2619.35
883.62	3000.27
883.79	2672.60
883.95	2654.17
884.12	2549.72
884.29	2865.11
884.45	2648.02
884.62	2617.30
884.78	2494.43
884.95	2996.18
885.11	2543.58
885.28	2670.55
885.44	2523.10
885.61	2785.24
885.77	2836.44
885.94	2699.22
886.10	2596.82
886.27	2746.33
886.43	3002.32
886.60	2734.04
886.76	2555.86
886.93	2535.39
887.09	2756.57
887.26	2471.90
887.42	2557.91
887.59	2871.25
887.75	3078.10
887.92	2709.46
888.08	2695.13
888.25	2994.13
888.41	2824.15
888.58	2600.92
888.74	2510.81
888.91	2639.83
>>>>>End Processed Spectral Data<<<<<
