SpectraSuite Data File
++++++++++++++++++++++++++++++++++++
Date: Thu May 05 16:20:14 CEST 2016
User: root
Dark Spectrum Present: No
Reference Spectrum Present: No
Number of Sampled Component Spectra: 1
Spectrometers: USB4C02835
Integration Time (usec): 100000 (USB4C02835)
Spectra Averaged: 1 (USB4C02835)
Boxcar Smoothing: 0 (USB4C02835)
Correct for Electrical Dark: No (USB4C02835)
Strobe/Lamp Enabled: No (USB4C02835)
Correct for Detector Non-linearity: No (USB4C02835)
Correct for Stray Light: No (USB4C02835)
Number of Pixels in Processed Spectrum: 3648
>>>>>Begin Processed Spectral Data<<<<<
177.47	2105.31
177.69	2105.31
177.91	2105.31
178.13	2025.44
178.36	1990.63
178.58	2543.58
178.80	2711.51
179.02	2514.91
179.24	2529.24
179.46	2496.47
179.68	2506.71
179.90	2682.84
180.13	2715.61
180.35	2357.21
180.57	2531.29
180.79	2846.68
181.01	2688.98
181.23	2508.76
181.45	2654.17
181.67	2768.85
181.90	2873.30
182.12	2555.86
182.34	2351.07
182.56	2803.67
182.78	2742.23
183.00	2465.75
183.22	2500.57
183.44	2551.77
183.66	3110.86
183.89	2645.98
184.11	2500.57
184.33	2865.11
184.55	2850.77
184.77	2557.91
184.99	2547.67
185.21	2736.09
185.43	3059.67
185.65	2512.86
185.87	2408.41
186.10	3067.86
186.32	3028.95
186.54	2637.78
186.76	2545.63
186.98	2883.54
187.20	2650.07
187.42	2539.48
187.64	2531.29
187.86	2736.09
188.08	2832.34
188.30	2412.51
188.52	2572.25
188.75	2928.60
188.97	2891.73
189.19	2424.80
189.41	2461.66
189.63	2818.00
189.85	2686.94
190.07	2406.36
190.29	2359.26
190.51	2775.00
190.73	2482.14
190.95	2664.41
191.17	2578.39
191.39	2443.23
191.61	2740.18
191.84	2473.95
192.06	2623.45
192.28	2559.96
192.50	3194.83
192.72	2596.82
192.94	2617.30
193.16	2887.64
193.38	2717.65
193.60	2486.23
193.82	2506.71
194.04	2936.79
194.26	2826.20
194.48	2508.76
194.70	2514.91
194.92	2654.17
195.14	2838.48
195.36	2492.38
195.58	2549.72
195.80	2691.03
196.02	2619.35
196.24	2449.37
196.46	2609.11
196.69	2719.70
196.91	3098.58
197.13	2465.75
197.35	2555.86
197.57	2936.79
197.79	2828.24
198.01	2633.69
198.23	2566.10
198.45	2781.14
198.67	2529.24
198.89	2367.45
199.11	2637.78
199.33	2652.12
199.55	2406.36
199.77	2478.04
199.99	2686.94
200.21	2641.88
200.43	2693.08
200.65	2432.99
200.87	2328.54
201.09	2707.41
201.31	2697.17
201.53	2531.29
201.75	2619.35
201.97	2803.67
202.19	2719.70
202.41	2549.72
202.63	2672.60
202.85	2787.29
203.07	2867.16
203.29	2500.57
203.51	2473.95
203.73	2617.30
203.95	3010.51
204.17	2514.91
204.39	2564.06
204.61	2674.65
204.83	2715.61
205.05	2680.79
205.27	2521.05
205.49	3022.80
205.71	2654.17
205.93	2394.08
206.15	2428.89
206.37	2801.62
206.59	2709.46
206.81	2316.25
207.03	2351.07
207.25	2594.78
207.47	2826.20
207.69	2613.21
207.91	2729.94
208.13	2883.54
208.34	2588.63
208.56	2416.60
208.78	2502.62
209.00	2570.20
209.22	2639.83
209.44	2510.81
209.66	2484.19
209.88	2717.65
210.10	2785.24
210.32	2480.09
210.54	2664.41
210.76	2633.69
210.98	2867.16
211.20	2357.21
211.42	2559.96
211.64	2848.72
211.86	2854.87
212.08	2662.36
212.30	2596.82
212.52	2676.70
212.74	2783.19
212.96	2654.17
213.17	2586.58
213.39	2838.48
213.61	2942.93
213.83	2551.77
214.05	2439.13
214.27	2889.68
214.49	2564.06
214.71	2445.27
214.93	2621.40
215.15	2744.28
215.37	2842.58
215.59	2457.56
215.81	2590.68
216.03	2922.45
216.24	2676.70
216.46	2457.56
216.68	2590.68
216.90	2852.82
217.12	2848.72
217.34	2428.89
217.56	2658.26
217.78	2906.07
218.00	2744.28
218.22	2568.15
218.44	2559.96
218.66	2775.00
218.87	3047.38
219.09	2512.86
219.31	2578.39
219.53	2738.13
219.75	2586.58
219.97	2537.43
220.19	2594.78
220.41	2678.74
220.63	2977.75
220.85	2549.72
221.06	2519.00
221.28	2936.79
221.50	2772.95
221.72	2576.34
221.94	2512.86
222.16	2756.57
222.38	2850.77
222.60	2514.91
222.82	2521.05
223.03	2834.39
223.25	2584.54
223.47	2461.66
223.69	2664.41
223.91	2828.24
224.13	2813.91
224.35	2463.71
224.57	2658.26
224.78	2850.77
225.00	2590.68
225.22	2600.92
225.44	2432.99
225.66	2818.00
225.88	2566.10
226.10	2602.97
226.32	2535.39
226.53	2938.84
226.75	2721.75
226.97	2557.91
227.19	2508.76
227.41	2645.98
227.63	2572.25
227.85	2346.97
228.06	2562.01
228.28	2764.76
228.50	2818.00
228.72	2428.89
228.94	2562.01
229.16	2519.00
229.37	2484.19
229.59	2471.90
229.81	2772.95
230.03	2619.35
230.25	2572.25
230.47	2441.18
230.69	2465.75
230.90	2842.58
231.12	2693.08
231.34	2576.34
231.56	2607.06
231.78	2531.29
232.00	2744.28
232.21	2508.76
232.43	2551.77
232.65	2416.60
232.87	2813.91
233.09	2488.28
233.30	2475.99
233.52	2908.12
233.74	2701.27
233.96	2426.84
234.18	2711.51
234.40	2650.07
234.61	3063.76
234.83	2457.56
235.05	2428.89
235.27	3067.86
235.49	2918.36
235.70	2365.40
235.92	2580.44
236.14	2854.87
236.36	3047.38
236.58	2508.76
236.79	2600.92
237.01	2693.08
237.23	2717.65
237.45	2662.36
237.67	2543.58
237.88	2729.94
238.10	3082.19
238.32	2412.51
238.54	2488.28
238.76	2719.70
238.97	2643.93
239.19	2379.74
239.41	2619.35
239.63	2867.16
239.85	2600.92
240.06	2475.99
240.28	2531.29
240.50	2836.44
240.72	2643.93
240.93	2471.90
241.15	2596.82
241.37	2709.46
241.59	2926.55
241.81	2551.77
242.02	2557.91
242.24	2717.65
242.46	2805.72
242.68	2387.93
242.89	2531.29
243.11	2850.77
243.33	2668.50
243.55	2547.67
243.76	2584.54
243.98	2645.98
244.20	2686.94
244.42	2490.33
244.64	2533.34
244.85	2527.19
245.07	2615.26
245.29	2482.14
245.51	2500.57
245.72	2758.61
245.94	2908.12
246.16	2478.04
246.38	2447.32
246.59	2629.59
246.81	2543.58
247.03	2490.33
247.24	2361.31
247.46	2754.52
247.68	2760.66
247.90	2506.71
248.11	2502.62
248.33	2811.86
248.55	2695.13
248.77	2607.06
248.98	2654.17
249.20	2930.64
249.42	2846.68
249.64	2516.95
249.85	2496.47
250.07	2652.12
250.29	2799.57
250.50	2519.00
250.72	2416.60
250.94	2725.85
251.16	3080.14
251.37	2562.01
251.59	2555.86
251.81	2813.91
252.02	2959.31
252.24	2461.66
252.46	2729.94
252.68	2586.58
252.89	2615.26
253.11	2355.16
253.33	2658.26
253.54	3020.75
253.76	2572.25
253.98	2465.75
254.20	2424.80
254.41	2531.29
254.63	2699.22
254.85	2416.60
255.06	2641.88
255.28	2826.20
255.50	2629.59
255.71	2496.47
255.93	2355.16
256.15	2680.79
256.36	2779.09
256.58	2400.22
256.80	2430.94
257.02	2688.98
257.23	2670.55
257.45	2609.11
257.67	2652.12
257.88	2656.22
258.10	2828.24
258.32	2439.13
258.53	2611.16
258.75	2901.97
258.97	2598.87
259.18	2416.60
259.40	2496.47
259.62	2998.23
259.83	2856.92
260.05	2533.34
260.27	3209.17
260.48	2830.29
260.70	2570.20
260.92	2414.56
261.13	2521.05
261.35	2785.24
261.57	2783.19
261.78	2424.80
262.00	2514.91
262.22	2797.53
262.43	2576.34
262.65	2627.54
262.86	2600.92
263.08	3065.81
263.30	2824.15
263.51	2299.87
263.73	2482.14
263.95	2826.20
264.16	2572.25
264.38	2424.80
264.60	2482.14
264.81	2736.09
265.03	2924.50
265.25	2734.04
265.46	2465.75
265.68	2965.46
265.89	2805.72
266.11	2371.55
266.33	2488.28
266.54	2828.24
266.76	2758.61
266.98	2629.59
267.19	2746.33
267.41	2846.68
267.62	2738.13
267.84	2363.36
268.06	2668.50
268.27	2703.32
268.49	2848.72
268.70	2596.82
268.92	2555.86
269.14	2584.54
269.35	2580.44
269.57	2580.44
269.79	2588.63
270.00	2648.02
270.22	3024.85
270.43	2439.13
270.65	2418.65
270.87	2768.85
271.08	2789.33
271.30	2607.06
271.51	2498.52
271.73	2830.29
271.95	2918.36
272.16	2453.47
272.38	2590.68
272.59	2635.74
272.81	2789.33
273.02	2531.29
273.24	2625.50
273.46	2846.68
273.67	2547.67
273.89	2375.64
274.10	2480.09
274.32	2842.58
274.54	2758.61
274.75	2623.45
274.97	2578.39
275.18	2818.00
275.40	2815.96
275.61	2607.06
275.83	2764.76
276.05	2570.20
276.26	2719.70
276.48	2594.78
276.69	2602.97
276.91	2723.80
277.12	2861.01
277.34	2652.12
277.55	2705.37
277.77	2768.85
277.99	2668.50
278.20	2519.00
278.42	2547.67
278.63	2703.32
278.85	2629.59
279.06	2496.47
279.28	2686.94
279.49	2846.68
279.71	2828.24
279.93	2605.02
280.14	2641.88
280.36	2582.49
280.57	2846.68
280.79	2670.55
281.00	2615.26
281.22	2600.92
281.43	2865.11
281.65	2361.31
281.86	2488.28
282.08	2770.90
282.29	3020.75
282.51	2506.71
282.73	2531.29
282.94	2531.29
283.16	2838.48
283.37	2688.98
283.59	2559.96
283.80	2777.05
284.02	2713.56
284.23	2596.82
284.45	2654.17
284.66	2672.60
284.88	2652.12
285.09	2619.35
285.31	2691.03
285.52	2801.62
285.74	2510.81
285.95	2701.27
286.17	2648.02
286.38	2852.82
286.60	2652.12
286.81	2523.10
287.03	2562.01
287.24	2695.13
287.46	2748.37
287.67	2588.63
287.89	2832.34
288.10	2672.60
288.32	2764.76
288.53	2781.14
288.75	2709.46
288.96	2828.24
289.18	2641.88
289.39	2648.02
289.61	2666.46
289.82	3119.06
290.04	2981.84
290.25	2504.67
290.47	2629.59
290.68	2666.46
290.90	2799.57
291.11	2453.47
291.33	2695.13
291.54	2613.21
291.76	2584.54
291.97	2721.75
292.18	2643.93
292.40	2617.30
292.61	2592.73
292.83	2822.10
293.04	2643.93
293.26	2740.18
293.47	2693.08
293.69	2586.58
293.90	2529.24
294.12	2912.21
294.33	2699.22
294.55	2643.93
294.76	2760.66
294.97	2930.64
295.19	3047.38
295.40	2613.21
295.62	2652.12
295.83	2873.30
296.05	2684.89
296.26	2809.81
296.48	2607.06
296.69	2707.41
296.90	2721.75
297.12	2697.17
297.33	2725.85
297.55	2783.19
297.76	2777.05
297.98	2686.94
298.19	2691.03
298.41	2686.94
298.62	2623.45
298.83	2680.79
299.05	2680.79
299.26	2609.11
299.48	2572.25
299.69	2777.05
299.90	2637.78
300.12	2623.45
300.33	2887.64
300.55	2641.88
300.76	2650.07
300.98	2543.58
301.19	2783.19
301.40	2578.39
301.62	2617.30
301.83	2768.85
302.05	2711.51
302.26	2656.22
302.47	2629.59
302.69	2594.78
302.90	2760.66
303.12	2392.03
303.33	2717.65
303.54	3014.61
303.76	2709.46
303.97	2662.36
304.19	2746.33
304.40	2621.40
304.61	2709.46
304.83	2740.18
305.04	2805.72
305.26	2830.29
305.47	2643.93
305.68	2584.54
305.90	2539.48
306.11	2867.16
306.33	2631.64
306.54	2492.38
306.75	2549.72
306.97	2562.01
307.18	2551.77
307.39	2576.34
307.61	2695.13
307.82	2625.50
308.04	2768.85
308.25	2514.91
308.46	2686.94
308.68	2707.41
308.89	2750.42
309.10	2701.27
309.32	2705.37
309.53	2621.40
309.74	2781.14
309.96	2580.44
310.17	2750.42
310.39	2654.17
310.60	2854.87
310.81	2613.21
311.03	2478.04
311.24	2844.63
311.45	2703.32
311.67	2930.64
311.88	2699.22
312.09	2674.65
312.31	2662.36
312.52	2596.82
312.73	2588.63
312.95	2482.14
313.16	2660.31
313.37	2740.18
313.59	2721.75
313.80	2772.95
314.01	3012.56
314.23	2682.84
314.44	2490.33
314.65	2543.58
314.87	2654.17
315.08	2586.58
315.29	2539.48
315.51	2619.35
315.72	2541.53
315.93	2736.09
316.15	2631.64
316.36	2613.21
316.57	2785.24
316.79	2621.40
317.00	2623.45
317.21	2764.76
317.43	2734.04
317.64	2662.36
317.85	2494.43
318.07	2664.41
318.28	2654.17
318.49	2742.23
318.70	2881.49
318.92	2793.43
319.13	2824.15
319.34	2785.24
319.56	2693.08
319.77	2813.91
319.98	2818.00
320.20	2809.81
320.41	2734.04
320.62	2856.92
320.83	2602.97
321.05	2867.16
321.26	2713.56
321.47	2754.52
321.69	2916.31
321.90	2502.62
322.11	2572.25
322.32	2637.78
322.54	2848.72
322.75	2594.78
322.96	3110.86
323.18	2514.91
323.39	2420.70
323.60	2557.91
323.81	2678.74
324.03	2684.89
324.24	2594.78
324.45	2719.70
324.66	2637.78
324.88	2877.40
325.09	2944.98
325.30	2658.26
325.52	2551.77
325.73	2760.66
325.94	2602.97
326.15	2445.27
326.37	2461.66
326.58	2881.49
326.79	2932.69
327.00	2541.53
327.22	2615.26
327.43	2686.94
327.64	2586.58
327.85	2742.23
328.07	2674.65
328.28	2914.26
328.49	2639.83
328.70	2553.82
328.92	2602.97
329.13	2717.65
329.34	2762.71
329.55	2805.72
329.76	2691.03
329.98	2746.33
330.19	2873.30
330.40	2650.07
330.61	2641.88
330.83	2871.25
331.04	2643.93
331.25	2650.07
331.46	2684.89
331.68	2480.09
331.89	2854.87
332.10	2594.78
332.31	2428.89
332.52	2717.65
332.74	2908.12
332.95	2527.19
333.16	2543.58
333.37	2805.72
333.58	2648.02
333.80	2645.98
334.01	2432.99
334.22	2662.36
334.43	2635.74
334.64	2605.02
334.86	2432.99
335.07	2570.20
335.28	2901.97
335.49	2463.71
335.70	2731.99
335.92	2881.49
336.13	3129.30
336.34	2656.22
336.55	2701.27
336.76	2709.46
336.98	2308.06
337.19	2619.35
337.40	2707.41
337.61	3084.24
337.82	2635.74
338.04	2719.70
338.25	2494.43
338.46	2611.16
338.67	2691.03
338.88	2504.67
339.09	2500.57
339.31	2691.03
339.52	2541.53
339.73	2564.06
339.94	2691.03
340.15	2822.10
340.36	2666.46
340.58	2762.71
340.79	2545.63
341.00	2803.67
341.21	2549.72
341.42	2858.96
341.63	2674.65
341.85	2879.44
342.06	2777.05
342.27	2555.86
342.48	2748.37
342.69	2523.10
342.90	2762.71
343.12	2789.33
343.33	2562.01
343.54	2820.05
343.75	2904.02
343.96	2643.93
344.17	2527.19
344.38	2813.91
344.60	2643.93
344.81	2478.04
345.02	2574.30
345.23	2910.16
345.44	3129.30
345.65	2697.17
345.86	2748.37
346.07	2742.23
346.29	2621.40
346.50	2758.61
346.71	2684.89
346.92	2801.62
347.13	3024.85
347.34	2641.88
347.55	2566.10
347.76	2834.39
347.98	2543.58
348.19	2582.49
348.40	2791.38
348.61	2641.88
348.82	2899.92
349.03	2682.84
349.24	2502.62
349.45	3055.57
349.66	2412.51
349.88	2582.49
350.09	2570.20
350.30	2858.96
350.51	2881.49
350.72	2691.03
350.93	2547.67
351.14	2670.55
351.35	2809.81
351.56	2564.06
351.77	2596.82
351.99	2873.30
352.20	2887.64
352.41	2721.75
352.62	2375.64
352.83	2645.98
353.04	2668.50
353.25	2516.95
353.46	2648.02
353.67	2861.01
353.88	2383.84
354.09	2539.48
354.30	2695.13
354.52	2867.16
354.73	2707.41
354.94	2582.49
355.15	2662.36
355.36	2998.23
355.57	2623.45
355.78	2684.89
355.99	2625.50
356.20	2691.03
356.41	2934.74
356.62	2766.81
356.83	2662.36
357.04	2897.88
357.25	2521.05
357.46	2631.64
357.68	2484.19
357.89	2523.10
358.10	2672.60
358.31	2637.78
358.52	2670.55
358.73	2572.25
358.94	2547.67
359.15	2557.91
359.36	2680.79
359.57	2670.55
359.78	2654.17
359.99	2723.80
360.20	2490.33
360.41	2658.26
360.62	2713.56
360.83	2588.63
361.04	2648.02
361.25	2869.20
361.46	2977.75
361.67	2662.36
361.88	2662.36
362.09	2871.25
362.30	2750.42
362.51	2531.29
362.72	2734.04
362.93	2826.20
363.14	2768.85
363.35	2775.00
363.56	2490.33
363.78	2930.64
363.99	2828.24
364.20	2598.87
364.41	2674.65
364.62	3000.27
364.83	2734.04
365.04	2643.93
365.25	2605.02
365.46	3078.10
365.67	2625.50
365.88	2731.99
366.09	2594.78
366.30	2660.31
366.51	2791.38
366.72	2508.76
366.93	2605.02
367.14	2770.90
367.35	2881.49
367.56	2557.91
367.77	2682.84
367.98	2863.06
368.18	2820.05
368.39	2678.74
368.60	2523.10
368.81	2744.28
369.02	2740.18
369.23	2627.54
369.44	2473.95
369.65	2688.98
369.86	2746.33
370.07	2736.09
370.28	2531.29
370.49	2807.77
370.70	2779.09
370.91	2496.47
371.12	2465.75
371.33	2875.35
371.54	2736.09
371.75	2793.43
371.96	2349.02
372.17	2717.65
372.38	2660.31
372.59	2691.03
372.80	2473.95
373.01	2660.31
373.22	2711.51
373.43	2584.54
373.64	2478.04
373.85	2932.69
374.06	2916.31
374.26	2754.52
374.47	2666.46
374.68	2940.88
374.89	2799.57
375.10	2578.39
375.31	2754.52
375.52	2777.05
375.73	2711.51
375.94	2590.68
376.15	2697.17
376.36	2580.44
376.57	2656.22
376.78	2547.67
376.99	2684.89
377.20	3002.32
377.40	2633.69
377.61	2795.48
377.82	2574.30
378.03	2877.40
378.24	2738.13
378.45	2658.26
378.66	2744.28
378.87	2404.32
379.08	2584.54
379.29	2580.44
379.50	2793.43
379.71	2740.18
379.91	2791.38
380.12	2568.15
380.33	2613.21
380.54	2727.89
380.75	2705.37
380.96	2611.16
381.17	2705.37
381.38	2717.65
381.59	2785.24
381.80	2672.60
382.00	2809.81
382.21	2775.00
382.42	3043.28
382.63	2955.22
382.84	2727.89
383.05	2830.29
383.26	2924.50
383.47	2686.94
383.68	2658.26
383.88	2787.29
384.09	2707.41
384.30	2793.43
384.51	2795.48
384.72	2648.02
384.93	2623.45
385.14	2715.61
385.35	2865.11
385.55	2521.05
385.76	2910.16
385.97	2676.70
386.18	2467.80
386.39	2559.96
386.60	2607.06
386.81	2570.20
387.02	2600.92
387.22	2482.14
387.43	2785.24
387.64	2682.84
387.85	2836.44
388.06	2858.96
388.27	3977.16
388.48	7528.33
388.68	11278.16
388.89	13322.04
389.10	14360.36
389.31	13745.97
389.52	10968.92
389.73	9506.67
389.93	8560.51
390.14	7892.87
390.35	7133.08
390.56	6459.29
390.77	5275.57
390.98	4097.99
391.18	3463.12
391.39	3090.38
391.60	2820.05
391.81	2779.09
392.02	2512.86
392.23	3096.53
392.43	2750.42
392.64	2725.85
392.85	2633.69
393.06	2990.03
393.27	2715.61
393.47	2535.39
393.68	2725.85
393.89	2641.88
394.10	2895.83
394.31	2635.74
394.52	2572.25
394.72	2525.15
394.93	2985.94
395.14	2471.90
395.35	2719.70
395.56	2660.31
395.76	2684.89
395.97	2670.55
396.18	2770.90
396.39	2748.37
396.60	3291.09
396.80	2885.59
397.01	2768.85
397.22	2873.30
397.43	2873.30
397.64	2656.22
397.84	2775.00
398.05	3022.80
398.26	2707.41
398.47	2801.62
398.67	2764.76
398.88	2793.43
399.09	2836.44
399.30	2650.07
399.51	2760.66
399.71	2588.63
399.92	2713.56
400.13	2721.75
400.34	2607.06
400.54	2777.05
400.75	2912.21
400.96	2760.66
401.17	2942.93
401.37	2809.81
401.58	2725.85
401.79	2607.06
402.00	2809.81
402.21	3102.67
402.41	2891.73
402.62	2887.64
402.83	3039.19
403.04	3129.30
403.24	3399.63
403.45	2746.33
403.66	2893.78
403.87	2891.73
404.07	3049.43
404.28	2899.92
404.49	2926.55
404.70	2746.33
404.90	2805.72
405.11	2645.98
405.32	2686.94
405.52	2684.89
405.73	2559.96
405.94	2607.06
406.15	2621.40
406.35	2762.71
406.56	2856.92
406.77	2684.89
406.98	2684.89
407.18	2611.16
407.39	2985.94
407.60	2615.26
407.80	2734.04
408.01	2621.40
408.22	2836.44
408.43	2605.02
408.63	2707.41
408.84	2818.00
409.05	2858.96
409.25	2635.74
409.46	2596.82
409.67	2678.74
409.88	2623.45
410.08	2693.08
410.29	2562.01
410.50	2858.96
410.70	2752.47
410.91	2580.44
411.12	2650.07
411.32	2719.70
411.53	2623.45
411.74	2762.71
411.95	2641.88
412.15	2697.17
412.36	2797.53
412.57	2729.94
412.77	2867.16
412.98	2777.05
413.19	2625.50
413.39	2633.69
413.60	2656.22
413.81	2965.46
414.01	2584.54
414.22	2699.22
414.43	2717.65
414.63	2625.50
414.84	2871.25
415.05	2643.93
415.25	2498.52
415.46	2850.77
415.67	2557.91
415.87	2727.89
416.08	2623.45
416.29	2725.85
416.49	2856.92
416.70	2623.45
416.91	2613.21
417.11	2627.54
417.32	2824.15
417.53	2766.81
417.73	2703.32
417.94	2723.80
418.15	2721.75
418.35	2662.36
418.56	2605.02
418.77	3024.85
418.97	2719.70
419.18	2699.22
419.38	2412.51
419.59	2764.76
419.80	2934.74
420.00	2568.15
420.21	2543.58
420.42	2883.54
420.62	2760.66
420.83	2572.25
421.04	2641.88
421.24	2713.56
421.45	2754.52
421.65	2666.46
421.86	2568.15
422.07	2887.64
422.27	2801.62
422.48	2654.17
422.69	2471.90
422.89	2676.70
423.10	2641.88
423.30	2635.74
423.51	2605.02
423.72	2830.29
423.92	2772.95
424.13	2519.00
424.33	2645.98
424.54	2908.12
424.75	2775.00
424.95	2875.35
425.16	2658.26
425.36	2650.07
425.57	2777.05
425.78	2717.65
425.98	2811.86
426.19	2641.88
426.39	2592.73
426.60	2680.79
426.81	2768.85
427.01	2758.61
427.22	2643.93
427.42	2531.29
427.63	2592.73
427.83	2875.35
428.04	2969.55
428.25	2744.28
428.45	2709.46
428.66	2850.77
428.86	2682.84
429.07	2658.26
429.28	2605.02
429.48	2684.89
429.69	2637.78
429.89	2742.23
430.10	2523.10
430.30	2729.94
430.51	2879.44
430.71	2545.63
430.92	2635.74
431.13	2680.79
431.33	2850.77
431.54	2693.08
431.74	2850.77
431.95	3063.76
432.15	2543.58
432.36	2727.89
432.56	2650.07
432.77	3024.85
432.98	2938.84
433.18	2734.04
433.39	2662.36
433.59	2721.75
433.80	3020.75
434.00	2887.64
434.21	2643.93
434.41	2672.60
434.62	3065.81
434.82	2529.24
435.03	2602.97
435.23	2734.04
435.44	2482.14
435.64	2627.54
435.85	2711.51
436.06	2785.24
436.26	2901.97
436.47	2680.79
436.67	2557.91
436.88	2678.74
437.08	2912.21
437.29	2811.86
437.49	2736.09
437.70	2947.03
437.90	2772.95
438.11	2818.00
438.31	2686.94
438.52	2926.55
438.72	2961.36
438.93	2959.31
439.13	2629.59
439.34	2846.68
439.54	2645.98
439.75	2760.66
439.95	2678.74
440.16	2686.94
440.36	2715.61
440.57	2742.23
440.77	2650.07
440.98	2793.43
441.18	2707.41
441.39	2508.76
441.59	2502.62
441.80	3022.80
442.00	2719.70
442.21	2840.53
442.41	2480.09
442.62	2912.21
442.82	2609.11
443.02	2719.70
443.23	2758.61
443.43	2684.89
443.64	2914.26
443.84	2562.01
444.05	2674.65
444.25	2654.17
444.46	2734.04
444.66	2631.64
444.87	2885.59
445.07	2471.90
445.28	2645.98
445.48	2822.10
445.69	2764.76
445.89	3065.81
446.09	2678.74
446.30	2990.03
446.50	3102.67
446.71	4528.06
446.91	5783.46
447.12	6477.73
447.32	6801.30
447.53	6563.74
447.73	5517.23
447.93	4782.01
448.14	4442.04
448.34	4564.92
448.55	3839.94
448.75	3827.65
448.96	3620.81
449.16	3403.72
449.36	3274.70
449.57	2805.72
449.77	2785.24
449.98	2643.93
450.18	2875.35
450.39	2697.17
450.59	2834.39
450.79	2668.50
451.00	2697.17
451.20	2746.33
451.41	2674.65
451.61	2799.57
451.81	2680.79
452.02	2586.58
452.22	2607.06
452.43	2621.40
452.63	2613.21
452.84	2654.17
453.04	2654.17
453.24	2750.42
453.45	2635.74
453.65	2703.32
453.86	2777.05
454.06	2748.37
454.26	2729.94
454.47	2580.44
454.67	2834.39
454.87	2795.48
455.08	2643.93
455.28	2752.47
455.49	2742.23
455.69	2588.63
455.89	3041.23
456.10	2820.05
456.30	2619.35
456.51	2799.57
456.71	2703.32
456.91	2639.83
457.12	2660.31
457.32	2772.95
457.52	2519.00
457.73	2758.61
457.93	2801.62
458.14	2662.36
458.34	2445.27
458.54	2738.13
458.75	2551.77
458.95	2807.77
459.15	2744.28
459.36	2686.94
459.56	2701.27
459.76	3112.91
459.97	2772.95
460.17	2654.17
460.37	2738.13
460.58	2772.95
460.78	2801.62
460.99	2605.02
461.19	2600.92
461.39	2652.12
461.60	2619.35
461.80	2734.04
462.00	2484.19
462.21	2672.60
462.41	2588.63
462.61	2494.43
462.82	2475.99
463.02	2844.63
463.22	2795.48
463.43	2719.70
463.63	2656.22
463.83	2926.55
464.04	2760.66
464.24	2682.84
464.44	2611.16
464.64	2754.52
464.85	2848.72
465.05	2707.41
465.25	2600.92
465.46	2736.09
465.66	2770.90
465.86	2832.34
466.07	2662.36
466.27	2723.80
466.47	2473.95
466.68	2559.96
466.88	2779.09
467.08	2789.33
467.29	2848.72
467.49	2705.37
467.69	2645.98
467.89	2781.14
468.10	2631.64
468.30	2770.90
468.50	2793.43
468.71	2834.39
468.91	2519.00
469.11	2914.26
469.31	2746.33
469.52	2666.46
469.72	3047.38
469.92	2785.24
470.13	2684.89
470.33	2785.24
470.53	2770.90
470.73	3004.37
470.94	3282.89
471.14	3319.76
471.34	3876.80
471.54	3606.47
471.75	3325.90
471.95	3043.28
472.15	3129.30
472.36	3178.45
472.56	3047.38
472.76	3117.01
472.96	3076.05
473.17	2891.73
473.37	2815.96
473.57	2777.05
473.77	2752.47
473.98	2652.12
474.18	2539.48
474.38	3289.04
474.58	2674.65
474.79	2662.36
474.99	2799.57
475.19	2844.63
475.39	2643.93
475.60	2744.28
475.80	2664.41
476.00	2805.72
476.20	2660.31
476.41	2684.89
476.61	2770.90
476.81	2963.41
477.01	2539.48
477.21	2926.55
477.42	2783.19
477.62	2562.01
477.82	2889.68
478.02	2596.82
478.23	2721.75
478.43	2656.22
478.63	2637.78
478.83	2738.13
479.03	2635.74
479.24	2920.40
479.44	2965.46
479.64	2596.82
479.84	2455.51
480.04	2613.21
480.25	2832.34
480.45	2557.91
480.65	2676.70
480.85	2924.50
481.06	2658.26
481.26	2711.51
481.46	2707.41
481.66	2832.34
481.86	2523.10
482.06	2865.11
482.27	2703.32
482.47	2652.12
482.67	2731.99
482.87	2676.70
483.07	2705.37
483.28	2627.54
483.48	2564.06
483.68	2615.26
483.88	2519.00
484.08	2447.32
484.29	2551.77
484.49	2643.93
484.69	2492.38
484.89	2869.20
485.09	2924.50
485.29	2674.65
485.50	2746.33
485.70	2674.65
485.90	2869.20
486.10	2772.95
486.30	2734.04
486.50	2912.21
486.71	2756.57
486.91	2734.04
487.11	2772.95
487.31	2586.58
487.51	2734.04
487.71	2609.11
487.91	2627.54
488.12	2580.44
488.32	2408.41
488.52	2596.82
488.72	2414.56
488.92	2752.47
489.12	2920.40
489.32	2799.57
489.53	2670.55
489.73	2559.96
489.93	3008.47
490.13	2564.06
490.33	2500.57
490.53	2736.09
490.73	2957.27
490.94	2502.62
491.14	2813.91
491.34	2727.89
491.54	2928.60
491.74	3542.99
491.94	4149.18
492.14	4399.04
492.34	4347.84
492.54	4155.33
492.75	3608.52
492.95	3686.34
493.15	3373.00
493.35	3268.56
493.55	3168.21
493.75	3137.49
493.95	3254.22
494.15	2889.68
494.35	2785.24
494.56	2813.91
494.76	2648.02
494.96	2725.85
495.16	2629.59
495.36	2729.94
495.56	2721.75
495.76	2693.08
495.96	2572.25
496.16	2586.58
496.36	2895.83
496.56	2637.78
496.77	2772.95
496.97	2699.22
497.17	2977.75
497.37	2529.24
497.57	2772.95
497.77	2736.09
497.97	2557.91
498.17	2641.88
498.37	2693.08
498.57	2830.29
498.77	2641.88
498.97	2777.05
499.17	2867.16
499.38	2705.37
499.58	2723.80
499.78	2834.39
499.98	2805.72
500.18	2650.07
500.38	2584.54
500.58	2858.96
500.78	3174.35
500.98	5332.91
501.18	7286.67
501.38	8611.71
501.58	9600.88
501.78	9398.13
501.98	7608.20
502.18	6414.24
502.38	5580.71
502.58	5314.48
502.78	4863.93
502.98	4685.75
503.18	4460.48
503.38	4116.42
503.59	3557.32
503.79	3475.40
503.99	3221.45
504.19	3194.83
504.39	3147.73
504.59	3174.35
504.79	3082.19
504.99	3246.03
505.19	3022.80
505.39	2818.00
505.59	3053.52
505.79	3022.80
505.99	2889.68
506.19	2650.07
506.39	2815.96
506.59	2645.98
506.79	2676.70
506.99	2871.25
507.19	2674.65
507.39	2754.52
507.59	2471.90
507.79	2549.72
507.99	2611.16
508.19	2682.84
508.39	2703.32
508.59	2572.25
508.79	2785.24
508.99	3006.42
509.19	2625.50
509.39	2740.18
509.59	2490.33
509.79	2609.11
509.99	2764.76
510.19	2621.40
510.39	2686.94
510.59	2676.70
510.79	2637.78
510.99	2559.96
511.19	2602.97
511.39	2963.41
511.59	2861.01
511.79	2775.00
511.99	2668.50
512.19	3057.62
512.38	2654.17
512.58	2617.30
512.78	2658.26
512.98	2889.68
513.18	2863.06
513.38	2559.96
513.58	2766.81
513.78	2703.32
513.98	2727.89
514.18	2697.17
514.38	2625.50
514.58	2799.57
514.78	2660.31
514.98	2562.01
515.18	2619.35
515.38	2596.82
515.58	3008.47
515.78	2543.58
515.98	2592.73
516.18	2725.85
516.38	2662.36
516.57	2596.82
516.77	2637.78
516.97	2805.72
517.17	2613.21
517.37	2455.51
517.57	2781.14
517.77	2734.04
517.97	2678.74
518.17	2725.85
518.37	2488.28
518.57	2602.97
518.77	2699.22
518.97	2619.35
519.16	2688.98
519.36	2934.74
519.56	2652.12
519.76	2627.54
519.96	2654.17
520.16	2885.59
520.36	2584.54
520.56	2805.72
520.76	2615.26
520.96	2648.02
521.16	2932.69
521.35	2789.33
521.55	2805.72
521.75	2772.95
521.95	2564.06
522.15	2549.72
522.35	2459.61
522.55	2656.22
522.75	2826.20
522.95	2568.15
523.14	2488.28
523.34	2832.34
523.54	2588.63
523.74	2875.35
523.94	2660.31
524.14	2531.29
524.34	2828.24
524.54	2854.87
524.73	2680.79
524.93	2840.53
525.13	2729.94
525.33	2439.13
525.53	2850.77
525.73	2754.52
525.93	2727.89
526.13	2617.30
526.32	2613.21
526.52	2893.78
526.72	2897.88
526.92	2656.22
527.12	2650.07
527.32	2543.58
527.52	2781.14
527.71	2707.41
527.91	2693.08
528.11	2639.83
528.31	2668.50
528.51	2588.63
528.71	2742.23
528.90	2848.72
529.10	2918.36
529.30	2779.09
529.50	2430.94
529.70	2711.51
529.90	2713.56
530.09	2625.50
530.29	2486.23
530.49	2582.49
530.69	3096.53
530.89	2684.89
531.09	2744.28
531.28	2654.17
531.48	2811.86
531.68	2652.12
531.88	2711.51
532.08	2850.77
532.28	2691.03
532.47	2820.05
532.67	2697.17
532.87	2793.43
533.07	2605.02
533.27	2699.22
533.46	2707.41
533.66	2801.62
533.86	2662.36
534.06	2744.28
534.26	2670.55
534.45	2629.59
534.65	2861.01
534.85	2785.24
535.05	2539.48
535.25	2889.68
535.44	2500.57
535.64	2731.99
535.84	2656.22
536.04	2600.92
536.24	2588.63
536.43	2680.79
536.63	2611.16
536.83	2729.94
537.03	2766.81
537.22	2469.85
537.42	2467.80
537.62	2715.61
537.82	2566.10
538.02	2744.28
538.21	2734.04
538.41	3135.44
538.61	2777.05
538.81	2650.07
539.00	2781.14
539.20	2494.43
539.40	2637.78
539.60	2678.74
539.79	2727.89
539.99	2629.59
540.19	2625.50
540.39	2664.41
540.58	2684.89
540.78	2824.15
540.98	2775.00
541.18	2756.57
541.37	2754.52
541.57	2744.28
541.77	2844.63
541.97	2617.30
542.16	2551.77
542.36	2691.03
542.56	2734.04
542.76	2899.92
542.95	2764.76
543.15	2820.05
543.35	2842.58
543.54	2572.25
543.74	2582.49
543.94	2906.07
544.14	2627.54
544.33	2793.43
544.53	2666.46
544.73	2586.58
544.93	2662.36
545.12	2645.98
545.32	2682.84
545.52	2631.64
545.71	2555.86
545.91	2617.30
546.11	2598.87
546.30	2625.50
546.50	2686.94
546.70	2668.50
546.90	2746.33
547.09	2430.94
547.29	2715.61
547.49	2791.38
547.68	2645.98
547.88	2590.68
548.08	2813.91
548.27	3065.81
548.47	2576.34
548.67	2568.15
548.87	2752.47
549.06	2660.31
549.26	2625.50
549.46	2709.46
549.65	2705.37
549.85	2666.46
550.05	2701.27
550.24	2572.25
550.44	2711.51
550.64	2625.50
550.83	2586.58
551.03	2938.84
551.23	2826.20
551.42	2742.23
551.62	2746.33
551.82	2752.47
552.01	2691.03
552.21	2850.77
552.41	2736.09
552.60	2944.98
552.80	2781.14
553.00	2621.40
553.19	2729.94
553.39	3008.47
553.59	2639.83
553.78	2652.12
553.98	2672.60
554.17	2625.50
554.37	2711.51
554.57	2731.99
554.76	2559.96
554.96	2658.26
555.16	2701.27
555.35	2727.89
555.55	2750.42
555.75	2783.19
555.94	2879.44
556.14	2516.95
556.33	2703.32
556.53	2713.56
556.73	2746.33
556.92	2756.57
557.12	2756.57
557.32	3039.19
557.51	2940.88
557.71	2695.13
557.90	2881.49
558.10	2873.30
558.30	2582.49
558.49	2576.34
558.69	2672.60
558.88	2799.57
559.08	2699.22
559.28	2691.03
559.47	2701.27
559.67	2785.24
559.86	3047.38
560.06	2609.11
560.26	2699.22
560.45	2750.42
560.65	2652.12
560.84	2871.25
561.04	2584.54
561.24	2846.68
561.43	2516.95
561.63	2906.07
561.82	2707.41
562.02	2824.15
562.22	2629.59
562.41	2539.48
562.61	2602.97
562.80	2600.92
563.00	3051.47
563.19	2811.86
563.39	2787.29
563.59	2842.58
563.78	2562.01
563.98	2473.95
564.17	2633.69
564.37	2453.47
564.56	2648.02
564.76	2527.19
564.96	2793.43
565.15	2893.78
565.35	3041.23
565.54	2654.17
565.74	2684.89
565.93	2838.48
566.13	2734.04
566.32	2729.94
566.52	2697.17
566.71	2748.37
566.91	2883.54
567.11	2693.08
567.30	2609.11
567.50	2832.34
567.69	2748.37
567.89	2602.97
568.08	2566.10
568.28	2764.76
568.47	2617.30
568.67	2787.29
568.86	2613.21
569.06	2891.73
569.25	2748.37
569.45	2535.39
569.64	2629.59
569.84	2697.17
570.04	2754.52
570.23	2666.46
570.43	2662.36
570.62	2717.65
570.82	3035.09
571.01	2553.82
571.21	2506.71
571.40	2570.20
571.60	2873.30
571.79	2768.85
571.99	2621.40
572.18	2615.26
572.38	2713.56
572.57	2602.97
572.77	2750.42
572.96	3088.34
573.16	2686.94
573.35	2596.82
573.55	2848.72
573.74	2877.40
573.94	2711.51
574.13	2623.45
574.33	2867.16
574.52	2920.40
574.71	2719.70
574.91	2719.70
575.10	2562.01
575.30	2742.23
575.49	2623.45
575.69	2586.58
575.88	2713.56
576.08	2680.79
576.27	2766.81
576.47	2684.89
576.66	2856.92
576.86	2912.21
577.05	2809.81
577.25	2701.27
577.44	2873.30
577.64	2721.75
577.83	2891.73
578.02	2670.55
578.22	2807.77
578.41	3033.04
578.61	2717.65
578.80	2506.71
579.00	2674.65
579.19	2713.56
579.39	2797.53
579.58	2717.65
579.77	2654.17
579.97	2930.64
580.16	2848.72
580.36	2793.43
580.55	2791.38
580.75	2777.05
580.94	2703.32
581.13	2906.07
581.33	2889.68
581.52	2731.99
581.72	3055.57
581.91	2858.96
582.11	2623.45
582.30	2826.20
582.49	2805.72
582.69	2934.74
582.88	2791.38
583.08	2717.65
583.27	2924.50
583.47	2736.09
583.66	2652.12
583.85	2592.73
584.05	2717.65
584.24	2752.47
584.44	2705.37
584.63	2977.75
584.82	2938.84
585.02	2895.83
585.21	2752.47
585.41	2766.81
585.60	2811.86
585.79	2930.64
585.99	2971.60
586.18	2830.29
586.37	3491.79
586.57	5429.17
586.76	15773.46
586.96	35200.49
587.15	48633.11
587.34	57087.13
587.54	61967.44
587.73	54924.47
587.93	38944.17
588.12	29894.20
588.31	24022.67
588.51	20979.39
588.70	19619.54
588.89	17211.13
589.09	14796.57
589.28	12414.79
589.47	9992.04
589.67	7493.52
589.86	5873.57
590.06	4468.67
590.25	3897.28
590.44	3438.54
590.64	3149.78
590.83	3033.04
591.02	3043.28
591.22	2705.37
591.41	2826.20
591.60	2723.80
591.80	3067.86
591.99	2529.24
592.18	2588.63
592.38	2953.17
592.57	2652.12
592.76	2719.70
592.96	2701.27
593.15	2801.62
593.34	2811.86
593.54	2594.78
593.73	2783.19
593.92	2846.68
594.12	2777.05
594.31	2723.80
594.50	2865.11
594.70	2820.05
594.89	3205.07
595.08	2578.39
595.28	2850.77
595.47	3192.78
595.66	2910.16
595.86	2537.43
596.05	2584.54
596.24	2701.27
596.43	3016.66
596.63	2820.05
596.82	2727.89
597.01	2846.68
597.21	2981.84
597.40	2688.98
597.59	2705.37
597.79	2727.89
597.98	2838.48
598.17	2770.90
598.36	2768.85
598.56	2834.39
598.75	2691.03
598.94	2744.28
599.14	2768.85
599.33	2660.31
599.52	2865.11
599.71	2752.47
599.91	2752.47
600.10	2846.68
600.29	2752.47
600.48	2627.54
600.68	2738.13
600.87	2752.47
601.06	2631.64
601.26	2695.13
601.45	2719.70
601.64	2738.13
601.83	2918.36
602.03	2523.10
602.22	2611.16
602.41	2838.48
602.60	3084.24
602.80	2715.61
602.99	2785.24
603.18	2656.22
603.37	2768.85
603.57	2662.36
603.76	2725.85
603.95	3022.80
604.14	2688.98
604.34	2637.78
604.53	2707.41
604.72	2834.39
604.91	2809.81
605.10	2742.23
605.30	2471.90
605.49	3088.34
605.68	2840.53
605.87	2744.28
606.07	2539.48
606.26	2746.33
606.45	2711.51
606.64	2695.13
606.84	2582.49
607.03	2758.61
607.22	2838.48
607.41	2600.92
607.60	2627.54
607.80	2836.44
607.99	2715.61
608.18	2717.65
608.37	2686.94
608.56	2680.79
608.76	2906.07
608.95	2844.63
609.14	2750.42
609.33	2879.44
609.52	2990.03
609.72	2719.70
609.91	2803.67
610.10	2758.61
610.29	2887.64
610.48	2779.09
610.68	2699.22
610.87	2717.65
611.06	2848.72
611.25	2674.65
611.44	2744.28
611.63	2717.65
611.83	2885.59
612.02	2533.34
612.21	2758.61
612.40	2422.75
612.59	2504.67
612.79	2588.63
612.98	2766.81
613.17	2924.50
613.36	2715.61
613.55	2850.77
613.74	2650.07
613.93	2715.61
614.13	2791.38
614.32	2820.05
614.51	2772.95
614.70	2777.05
614.89	2703.32
615.08	2785.24
615.28	3114.96
615.47	2586.58
615.66	2815.96
615.85	2693.08
616.04	2775.00
616.23	2729.94
616.42	2820.05
616.62	2752.47
616.81	2705.37
617.00	2760.66
617.19	2809.81
617.38	2631.64
617.57	2648.02
617.76	2826.20
617.95	2856.92
618.15	2703.32
618.34	2838.48
618.53	2547.67
618.72	2844.63
618.91	2832.34
619.10	2725.85
619.29	2670.55
619.48	2711.51
619.68	2537.43
619.87	2590.68
620.06	2539.48
620.25	2865.11
620.44	2635.74
620.63	2674.65
620.82	2785.24
621.01	2766.81
621.20	2682.84
621.39	2674.65
621.59	2768.85
621.78	2684.89
621.97	2633.69
622.16	2838.48
622.35	2758.61
622.54	2824.15
622.73	2818.00
622.92	2471.90
623.11	2863.06
623.30	2668.50
623.49	2654.17
623.68	2643.93
623.88	2947.03
624.07	2697.17
624.26	2590.68
624.45	2684.89
624.64	2770.90
624.83	2740.18
625.02	2621.40
625.21	2693.08
625.40	2738.13
625.59	2916.31
625.78	2715.61
625.97	2768.85
626.16	2944.98
626.35	2809.81
626.54	2734.04
626.74	2879.44
626.93	2807.77
627.12	2691.03
627.31	2801.62
627.50	2662.36
627.69	2758.61
627.88	2605.02
628.07	2572.25
628.26	2519.00
628.45	2568.15
628.64	2596.82
628.83	2629.59
629.02	2508.76
629.21	2801.62
629.40	2723.80
629.59	2578.39
629.78	2592.73
629.97	2754.52
630.16	2605.02
630.35	2631.64
630.54	2613.21
630.73	2543.58
630.92	2664.41
631.11	2619.35
631.30	2703.32
631.49	2752.47
631.68	2723.80
631.87	2674.65
632.06	2488.28
632.25	3069.91
632.44	2721.75
632.63	2768.85
632.82	2686.94
633.01	2627.54
633.20	2791.38
633.39	2701.27
633.58	2533.34
633.77	2805.72
633.96	2772.95
634.15	2785.24
634.34	2691.03
634.53	2775.00
634.72	2662.36
634.91	2555.86
635.10	2703.32
635.29	2842.58
635.48	2717.65
635.67	2447.32
635.86	2527.19
636.05	2850.77
636.24	2721.75
636.43	2719.70
636.62	2711.51
636.81	2451.42
637.00	2803.67
637.19	2676.70
637.38	2709.46
637.57	2629.59
637.76	2734.04
637.95	2869.20
638.14	2662.36
638.33	2770.90
638.52	2734.04
638.71	2619.35
638.89	2529.24
639.08	3098.58
639.27	2875.35
639.46	2785.24
639.65	3121.10
639.84	3129.30
640.03	3299.28
640.22	2987.99
640.41	3098.58
640.60	2897.88
640.79	2899.92
640.98	2764.76
641.17	2934.74
641.36	2824.15
641.55	2877.40
641.74	2498.52
641.92	2635.74
642.11	2562.01
642.30	2619.35
642.49	2557.91
642.68	2660.31
642.87	2793.43
643.06	2754.52
643.25	2609.11
643.44	2590.68
643.63	2674.65
643.82	2795.48
644.00	2627.54
644.19	2635.74
644.38	2570.20
644.57	2834.39
644.76	2707.41
644.95	2621.40
645.14	2766.81
645.33	2711.51
645.52	2723.80
645.71	2549.72
645.89	2594.78
646.08	2695.13
646.27	2670.55
646.46	2854.87
646.65	2545.63
646.84	2742.23
647.03	2545.63
647.22	2783.19
647.40	2752.47
647.59	2727.89
647.78	2445.27
647.97	2605.02
648.16	2531.29
648.35	2963.41
648.54	2865.11
648.73	2633.69
648.91	2854.87
649.10	2713.56
649.29	2598.87
649.48	2621.40
649.67	2785.24
649.86	2701.27
650.05	2639.83
650.23	2861.01
650.42	2736.09
650.61	2971.60
650.80	2904.02
650.99	2930.64
651.18	2979.79
651.36	2836.44
651.55	2713.56
651.74	2822.10
651.93	2721.75
652.12	2772.95
652.31	2725.85
652.49	2645.98
652.68	2658.26
652.87	2973.65
653.06	2701.27
653.25	2932.69
653.44	2742.23
653.62	2910.16
653.81	2719.70
654.00	2627.54
654.19	2805.72
654.38	3088.34
654.56	2697.17
654.75	2625.50
654.94	2772.95
655.13	2762.71
655.32	2617.30
655.51	2744.28
655.69	2623.45
655.88	2846.68
656.07	2488.28
656.26	2711.51
656.45	2602.97
656.63	2768.85
656.82	2662.36
657.01	2883.54
657.20	2678.74
657.38	2914.26
657.57	2645.98
657.76	2543.58
657.95	2865.11
658.14	2584.54
658.32	2742.23
658.51	2488.28
658.70	2744.28
658.89	2727.89
659.08	2670.55
659.26	2885.59
659.45	2584.54
659.64	2826.20
659.83	2629.59
660.01	3071.95
660.20	2760.66
660.39	2940.88
660.58	2473.95
660.76	2654.17
660.95	2623.45
661.14	2766.81
661.33	2570.20
661.51	2592.73
661.70	2613.21
661.89	2848.72
662.08	2725.85
662.26	2504.67
662.45	2611.16
662.64	3012.56
662.83	2697.17
663.01	2555.86
663.20	2572.25
663.39	2918.36
663.58	2629.59
663.76	2578.39
663.95	2746.33
664.14	2619.35
664.32	2596.82
664.51	2537.43
664.70	2445.27
664.89	2783.19
665.07	2504.67
665.26	2772.95
665.45	2594.78
665.64	2785.24
665.82	2551.77
666.01	2813.91
666.20	2527.19
666.38	2801.62
666.57	2801.62
666.76	4249.54
666.95	10030.95
667.13	17129.21
667.32	21315.26
667.51	23934.61
667.69	25460.35
667.88	21956.27
668.07	15646.48
668.25	13127.48
668.44	11104.09
668.63	9729.90
668.81	8554.37
669.00	7399.31
669.19	6639.51
669.38	5855.14
669.56	5027.76
669.75	4186.05
669.94	3815.37
670.12	3309.52
670.31	3024.85
670.50	2961.36
670.68	2938.84
670.87	2777.05
671.06	2678.74
671.24	2760.66
671.43	2947.03
671.62	2803.67
671.80	2650.07
671.99	2828.24
672.18	2701.27
672.36	2854.87
672.55	2734.04
672.74	2697.17
672.92	2650.07
673.11	2879.44
673.29	2519.00
673.48	2779.09
673.67	2656.22
673.85	2826.20
674.04	2615.26
674.23	2734.04
674.41	2938.84
674.60	2572.25
674.79	2504.67
674.97	2463.71
675.16	2762.71
675.34	2850.77
675.53	2631.64
675.72	2701.27
675.90	3018.71
676.09	2658.26
676.28	2678.74
676.46	2469.85
676.65	2877.40
676.83	2621.40
677.02	2656.22
677.21	2731.99
677.39	2783.19
677.58	2637.78
677.77	2627.54
677.95	2611.16
678.14	2592.73
678.32	2752.47
678.51	2627.54
678.70	2969.55
678.88	2613.21
679.07	2719.70
679.25	2664.41
679.44	2650.07
679.63	2523.10
679.81	2727.89
680.00	2779.09
680.18	2801.62
680.37	2951.12
680.55	2715.61
680.74	2535.39
680.93	2451.42
681.11	2736.09
681.30	2680.79
681.48	2688.98
681.67	2639.83
681.85	2764.76
682.04	2568.15
682.23	2744.28
682.41	2697.17
682.60	2645.98
682.78	2809.81
682.97	2539.48
683.15	2582.49
683.34	2777.05
683.53	3049.43
683.71	2488.28
683.90	2799.57
684.08	2957.27
684.27	2686.94
684.45	2703.32
684.64	2824.15
684.82	2693.08
685.01	2785.24
685.19	2678.74
685.38	2818.00
685.57	2695.13
685.75	2578.39
685.94	2684.89
686.12	2574.30
686.31	2611.16
686.49	3002.32
686.68	2457.56
686.86	2676.70
687.05	2627.54
687.23	2920.40
687.42	2578.39
687.60	2512.86
687.79	2867.16
687.97	2934.74
688.16	2793.43
688.34	2865.11
688.53	2439.13
688.71	2826.20
688.90	2834.39
689.08	2641.88
689.27	2547.67
689.45	2807.77
689.64	2867.16
689.82	2738.13
690.01	2693.08
690.19	2811.86
690.38	2666.46
690.56	2818.00
690.75	2584.54
690.93	2633.69
691.12	2607.06
691.30	2652.12
691.49	2676.70
691.67	2775.00
691.86	2914.26
692.04	2607.06
692.23	2688.98
692.41	2746.33
692.60	2895.83
692.78	2889.68
692.97	2760.66
693.15	2801.62
693.34	2871.25
693.52	2775.00
693.71	2721.75
693.89	2596.82
694.08	2521.05
694.26	2725.85
694.44	2854.87
694.63	2760.66
694.81	2580.44
695.00	2645.98
695.18	2912.21
695.37	3104.72
695.55	2756.57
695.74	2619.35
695.92	2611.16
696.10	2981.84
696.29	2572.25
696.47	2600.92
696.66	2496.47
696.84	2566.10
697.03	2705.37
697.21	2801.62
697.40	4140.99
697.58	2873.30
697.76	2617.30
697.95	2615.26
698.13	2588.63
698.32	2605.02
698.50	2676.70
698.68	2744.28
698.87	2797.53
699.05	2942.93
699.24	2699.22
699.42	2504.67
699.61	2691.03
699.79	2758.61
699.97	2686.94
700.16	2514.91
700.34	2435.03
700.53	2725.85
700.71	2861.01
700.89	2822.10
701.08	2697.17
701.26	2772.95
701.45	3137.49
701.63	2602.97
701.81	2613.21
702.00	2639.83
702.18	2764.76
702.37	2625.50
702.55	3020.75
702.73	2834.39
702.92	2645.98
703.10	2861.01
703.28	2828.24
703.47	2672.60
703.65	2932.69
703.84	2783.19
704.02	2684.89
704.20	2852.82
704.39	2600.92
704.57	2656.22
704.75	2785.24
704.94	2832.34
705.12	2760.66
705.30	3117.01
705.49	5896.10
705.67	12058.44
705.86	17731.31
706.04	20563.65
706.22	22636.20
706.41	22718.12
706.59	17747.70
706.77	13657.90
706.96	11446.10
707.14	10407.78
707.32	9056.12
707.51	7917.45
707.69	6442.91
707.87	5283.76
708.06	4466.62
708.24	3870.66
708.42	3332.05
708.61	3454.92
708.79	2729.94
708.97	2719.70
709.16	2834.39
709.34	2777.05
709.52	2643.93
709.71	2678.74
709.89	2805.72
710.07	2582.49
710.26	2547.67
710.44	2693.08
710.62	2885.59
710.80	2678.74
710.99	2818.00
711.17	2756.57
711.35	2596.82
711.54	2662.36
711.72	2785.24
711.90	2740.18
712.09	2762.71
712.27	2576.34
712.45	2734.04
712.63	2592.73
712.82	2772.95
713.00	2664.41
713.18	2762.71
713.37	2824.15
713.55	2928.60
713.73	2818.00
713.91	2742.23
714.10	2678.74
714.28	2668.50
714.46	2740.18
714.65	2791.38
714.83	2691.03
715.01	2697.17
715.19	2703.32
715.38	2514.91
715.56	2736.09
715.74	2639.83
715.92	2643.93
716.11	2904.02
716.29	2435.03
716.47	2766.81
716.65	2684.89
716.84	2496.47
717.02	2768.85
717.20	2473.95
717.38	2574.30
717.57	2678.74
717.75	2637.78
717.93	2699.22
718.11	2856.92
718.30	2557.91
718.48	2670.55
718.66	2979.79
718.84	2897.88
719.03	2662.36
719.21	2478.04
719.39	2977.75
719.57	2854.87
719.75	2752.47
719.94	2562.01
720.12	2629.59
720.30	2744.28
720.48	2770.90
720.67	2576.34
720.85	2592.73
721.03	2688.98
721.21	2617.30
721.39	2850.77
721.58	2799.57
721.76	2764.76
721.94	2725.85
722.12	2676.70
722.30	2889.68
722.49	2666.46
722.67	2709.46
722.85	2682.84
723.03	2500.57
723.21	2598.87
723.40	2686.94
723.58	2834.39
723.76	2822.10
723.94	2920.40
724.12	2723.80
724.30	2865.11
724.49	2832.34
724.67	2543.58
724.85	2807.77
725.03	2527.19
725.21	2877.40
725.40	2873.30
725.58	2621.40
725.76	2865.11
725.94	2787.29
726.12	2588.63
726.30	2656.22
726.49	2658.26
726.67	2629.59
726.85	2861.01
727.03	3149.78
727.21	4102.08
727.39	5128.11
727.57	5683.11
727.76	6117.28
727.94	6158.24
728.12	5425.07
728.30	4478.91
728.48	4380.61
728.66	3938.24
728.84	3686.34
729.03	3334.09
729.21	3190.74
729.39	2942.93
729.57	2832.34
729.75	2801.62
729.93	2781.14
730.11	2519.00
730.30	2643.93
730.48	2645.98
730.66	2752.47
730.84	2760.66
731.02	2707.41
731.20	2654.17
731.38	2709.46
731.56	2510.81
731.74	2498.52
731.93	2793.43
732.11	2750.42
732.29	2625.50
732.47	2813.91
732.65	2717.65
732.83	2811.86
733.01	2818.00
733.19	2609.11
733.37	2707.41
733.56	2752.47
733.74	2619.35
733.92	2953.17
734.10	2691.03
734.28	2768.85
734.46	2512.86
734.64	2723.80
734.82	2660.31
735.00	2570.20
735.18	2693.08
735.36	2658.26
735.54	2729.94
735.73	2711.51
735.91	2691.03
736.09	2848.72
736.27	2729.94
736.45	2742.23
736.63	2457.56
736.81	2701.27
736.99	2889.68
737.17	2752.47
737.35	2686.94
737.53	2785.24
737.71	2627.54
737.89	2922.45
738.07	2535.39
738.25	2572.25
738.43	2469.85
738.61	2637.78
738.80	2480.09
738.98	2633.69
739.16	2641.88
739.34	2648.02
739.52	2826.20
739.70	2719.70
739.88	2779.09
740.06	2805.72
740.24	2445.27
740.42	2908.12
740.60	2437.08
740.78	2613.21
740.96	2496.47
741.14	2662.36
741.32	2752.47
741.50	2506.71
741.68	2854.87
741.86	2854.87
742.04	2553.82
742.22	2514.91
742.40	2670.55
742.58	2844.63
742.76	2578.39
742.94	2805.72
743.12	2494.43
743.30	2658.26
743.48	2834.39
743.66	2562.01
743.84	2691.03
744.02	2684.89
744.20	2719.70
744.38	2586.58
744.56	2533.34
744.74	2979.79
744.92	2815.96
745.10	2889.68
745.28	2750.42
745.46	2967.51
745.64	2645.98
745.82	2721.75
746.00	2650.07
746.18	2830.29
746.36	2594.78
746.54	2709.46
746.72	2615.26
746.90	2707.41
747.08	2830.29
747.26	2643.93
747.44	2738.13
747.62	2809.81
747.80	2803.67
747.98	2727.89
748.15	2670.55
748.33	2957.27
748.51	2707.41
748.69	2760.66
748.87	2590.68
749.05	2676.70
749.23	2709.46
749.41	2691.03
749.59	2635.74
749.77	2824.15
749.95	2645.98
750.13	2539.48
750.31	2688.98
750.49	2691.03
750.67	2828.24
750.85	2881.49
751.03	2697.17
751.20	3012.56
751.38	2666.46
751.56	2609.11
751.74	2693.08
751.92	2613.21
752.10	2615.26
752.28	2781.14
752.46	2519.00
752.64	2697.17
752.82	2664.41
753.00	2756.57
753.18	2633.69
753.35	2693.08
753.53	2695.13
753.71	2615.26
753.89	2736.09
754.07	2750.42
754.25	2893.78
754.43	2742.23
754.61	2523.10
754.79	2719.70
754.97	2674.65
755.14	2785.24
755.32	2529.24
755.50	2715.61
755.68	2713.56
755.86	2527.19
756.04	2562.01
756.22	2523.10
756.40	2772.95
756.57	2885.59
756.75	2592.73
756.93	2889.68
757.11	2858.96
757.29	2478.04
757.47	2519.00
757.65	2537.43
757.82	2344.92
758.00	2514.91
758.18	2574.30
758.36	2613.21
758.54	2930.64
758.72	2475.99
758.90	2797.53
759.07	2777.05
759.25	2670.55
759.43	2693.08
759.61	2566.10
759.79	3899.33
759.97	2920.40
760.15	2572.25
760.32	2609.11
760.50	2818.00
760.68	2938.84
760.86	2564.06
761.04	2785.24
761.22	2811.86
761.39	2680.79
761.57	2752.47
761.75	2625.50
761.93	2795.48
762.11	2682.84
762.28	2654.17
762.46	2559.96
762.64	2918.36
762.82	2451.42
763.00	2631.64
763.18	2834.39
763.35	2525.15
763.53	2830.29
763.71	2711.51
763.89	2697.17
764.07	2764.76
764.24	2709.46
764.42	2912.21
764.60	2723.80
764.78	2713.56
764.96	2842.58
765.13	2832.34
765.31	2617.30
765.49	2854.87
765.67	2635.74
765.84	2582.49
766.02	2529.24
766.20	2484.19
766.38	2693.08
766.56	2775.00
766.73	2738.13
766.91	2672.60
767.09	2664.41
767.27	2781.14
767.44	2598.87
767.62	2740.18
767.80	2744.28
767.98	2615.26
768.15	2553.82
768.33	2838.48
768.51	2721.75
768.69	2758.61
768.87	2686.94
769.04	2697.17
769.22	3108.82
769.40	2818.00
769.58	2924.50
769.75	2785.24
769.93	2949.08
770.11	2658.26
770.28	2564.06
770.46	2838.48
770.64	2742.23
770.82	2527.19
770.99	2650.07
771.17	2783.19
771.35	2586.58
771.53	2658.26
771.70	2592.73
771.88	2783.19
772.06	2691.03
772.23	2662.36
772.41	2703.32
772.59	2654.17
772.77	2559.96
772.94	2688.98
773.12	2678.74
773.30	2635.74
773.47	2703.32
773.65	2519.00
773.83	2867.16
774.01	2760.66
774.18	2486.23
774.36	2635.74
774.54	2566.10
774.71	2756.57
774.89	2525.15
775.07	2588.63
775.24	2574.30
775.42	2652.12
775.60	2918.36
775.78	2623.45
775.95	2490.33
776.13	2439.13
776.31	2461.66
776.48	2783.19
776.66	2820.05
776.84	2654.17
777.01	2668.50
777.19	2559.96
777.37	2598.87
777.54	2793.43
777.72	3002.32
777.90	2760.66
778.07	2555.86
778.25	3194.83
778.43	2807.77
778.60	2574.30
778.78	2707.41
778.96	2916.31
779.13	2506.71
779.31	2693.08
779.49	2713.56
779.66	2801.62
779.84	2660.31
780.01	2584.54
780.19	2695.13
780.37	2865.11
780.54	2838.48
780.72	2539.48
780.90	2641.88
781.07	2731.99
781.25	2602.97
781.43	2820.05
781.60	2670.55
781.78	2840.53
781.95	2676.70
782.13	2613.21
782.31	2670.55
782.48	2441.18
782.66	2826.20
782.83	2893.78
783.01	2787.29
783.19	2785.24
783.36	2652.12
783.54	2480.09
783.72	2832.34
783.89	2668.50
784.07	2754.52
784.24	2762.71
784.42	2889.68
784.60	2715.61
784.77	2830.29
784.95	2437.08
785.12	2596.82
785.30	2770.90
785.47	2574.30
785.65	2506.71
785.83	2691.03
786.00	2652.12
786.18	2734.04
786.35	2566.10
786.53	2490.33
786.71	2904.02
786.88	2820.05
787.06	2731.99
787.23	2717.65
787.41	2615.26
787.58	2703.32
787.76	2596.82
787.94	2602.97
788.11	2760.66
788.29	2633.69
788.46	2574.30
788.64	2453.47
788.81	2678.74
788.99	2537.43
789.16	2551.77
789.34	2711.51
789.52	2611.16
789.69	2627.54
789.87	2492.38
790.04	2633.69
790.22	2738.13
790.39	3020.75
790.57	2551.77
790.74	2572.25
790.92	2846.68
791.09	2602.97
791.27	2660.31
791.44	2785.24
791.62	2699.22
791.79	2871.25
791.97	2748.37
792.15	3030.99
792.32	2752.47
792.50	2719.70
792.67	2815.96
792.85	2858.96
793.02	2707.41
793.20	2715.61
793.37	2553.82
793.55	2596.82
793.72	2519.00
793.90	2746.33
794.07	2547.67
794.25	2480.09
794.42	2719.70
794.60	2693.08
794.77	2748.37
794.95	2748.37
795.12	2818.00
795.30	2652.12
795.47	2414.56
795.65	3006.42
795.82	2766.81
796.00	2648.02
796.17	2619.35
796.34	2629.59
796.52	2727.89
796.69	2768.85
796.87	2725.85
797.04	2711.51
797.22	2840.53
797.39	2822.10
797.57	2772.95
797.74	2695.13
797.92	2701.27
798.09	2611.16
798.27	2850.77
798.44	2621.40
798.62	2664.41
798.79	2688.98
798.96	2693.08
799.14	2652.12
799.31	3086.29
799.49	2688.98
799.66	2553.82
799.84	2736.09
800.01	2514.91
800.19	2713.56
800.36	2486.23
800.53	2715.61
800.71	2760.66
800.88	2957.27
801.06	2578.39
801.23	2586.58
801.41	2623.45
801.58	2670.55
801.75	2586.58
801.93	2605.02
802.10	2889.68
802.28	2611.16
802.45	2535.39
802.63	2740.18
802.80	2940.88
802.97	2555.86
803.15	2629.59
803.32	2658.26
803.50	2615.26
803.67	2705.37
803.84	2498.52
804.02	2670.55
804.19	2684.89
804.37	2326.49
804.54	2568.15
804.71	2611.16
804.89	2637.78
805.06	2619.35
805.24	2625.50
805.41	2480.09
805.58	2600.92
805.76	3039.19
805.93	2613.21
806.10	2770.90
806.28	2858.96
806.45	2801.62
806.63	2742.23
806.80	2621.40
806.97	2742.23
807.15	2809.81
807.32	2658.26
807.49	2670.55
807.67	2502.62
807.84	2811.86
808.01	2498.52
808.19	2811.86
808.36	3037.14
808.54	2691.03
808.71	2578.39
808.88	2729.94
809.06	2858.96
809.23	2875.35
809.40	2641.88
809.58	2723.80
809.75	2631.64
809.92	2617.30
810.10	2963.41
810.27	2609.11
810.44	2740.18
810.62	2748.37
810.79	2705.37
810.96	2635.74
811.14	2674.65
811.31	2764.76
811.48	2709.46
811.66	2686.94
811.83	2838.48
812.00	2736.09
812.18	2799.57
812.35	2922.45
812.52	2635.74
812.69	2564.06
812.87	2596.82
813.04	2549.72
813.21	2627.54
813.39	2652.12
813.56	2516.95
813.73	2854.87
813.91	2545.63
814.08	2791.38
814.25	2717.65
814.42	2557.91
814.60	2662.36
814.77	2697.17
814.94	2635.74
815.12	2705.37
815.29	2981.84
815.46	2680.79
815.63	2709.46
815.81	2605.02
815.98	2693.08
816.15	2611.16
816.33	2719.70
816.50	2588.63
816.67	2727.89
816.84	2715.61
817.02	2594.78
817.19	2645.98
817.36	2785.24
817.53	2803.67
817.71	2514.91
817.88	2662.36
818.05	2713.56
818.22	2664.41
818.40	2867.16
818.57	2648.02
818.74	2815.96
818.91	2762.71
819.09	2719.70
819.26	2766.81
819.43	2580.44
819.60	2619.35
819.78	2719.70
819.95	2723.80
820.12	2521.05
820.29	2971.60
820.47	2783.19
820.64	2639.83
820.81	2494.43
820.98	2576.34
821.15	2674.65
821.33	2838.48
821.50	2566.10
821.67	2789.33
821.84	2580.44
822.02	2760.66
822.19	2914.26
822.36	2635.74
822.53	2625.50
822.70	2512.86
822.88	2660.31
823.05	2932.69
823.22	2699.22
823.39	2738.13
823.56	2654.17
823.74	2990.03
823.91	2539.48
824.08	2510.81
824.25	2553.82
824.42	2938.84
824.60	2521.05
824.77	2772.95
824.94	2736.09
825.11	2856.92
825.28	2508.76
825.45	2650.07
825.63	2731.99
825.80	2619.35
825.97	2697.17
826.14	2693.08
826.31	2494.43
826.48	2738.13
826.66	2584.54
826.83	2600.92
827.00	2711.51
827.17	2615.26
827.34	2676.70
827.51	2598.87
827.69	2717.65
827.86	2494.43
828.03	2736.09
828.20	2654.17
828.37	2537.43
828.54	2787.29
828.71	2564.06
828.89	2822.10
829.06	2670.55
829.23	2944.98
829.40	2578.39
829.57	2562.01
829.74	2826.20
829.91	2598.87
830.09	2635.74
830.26	2715.61
830.43	2996.18
830.60	2731.99
830.77	2791.38
830.94	2861.01
831.11	2863.06
831.28	2654.17
831.46	2785.24
831.63	2600.92
831.80	2865.11
831.97	2592.73
832.14	2590.68
832.31	2729.94
832.48	2785.24
832.65	2897.88
832.82	2588.63
832.99	2756.57
833.17	2539.48
833.34	2912.21
833.51	2715.61
833.68	2471.90
833.85	2910.16
834.02	2637.78
834.19	2562.01
834.36	2635.74
834.53	2693.08
834.70	2834.39
834.87	2684.89
835.04	2514.91
835.22	2619.35
835.39	2672.60
835.56	2523.10
835.73	2510.81
835.90	2838.48
836.07	2600.92
836.24	2660.31
836.41	2484.19
836.58	2525.15
836.75	2772.95
836.92	2596.82
837.09	2555.86
837.26	2815.96
837.43	2717.65
837.60	2613.21
837.77	2559.96
837.94	2770.90
838.12	2844.63
838.29	2482.14
838.46	2498.52
838.63	2670.55
838.80	2877.40
838.97	2596.82
839.14	2609.11
839.31	2727.89
839.48	2863.06
839.65	2539.48
839.82	2641.88
839.99	2793.43
840.16	2754.52
840.33	2541.53
840.50	2613.21
840.67	2584.54
840.84	2449.37
841.01	2449.37
841.18	2478.04
841.35	2668.50
841.52	2781.14
841.69	2893.78
841.86	2678.74
842.03	2777.05
842.20	2791.38
842.37	2582.49
842.54	2648.02
842.71	2691.03
842.88	2469.85
843.05	2557.91
843.22	2541.53
843.39	2818.00
843.56	2635.74
843.73	2555.86
843.90	2654.17
844.07	2676.70
844.24	2807.77
844.41	2658.26
844.58	2586.58
844.75	2717.65
844.92	2748.37
845.09	2678.74
845.26	2551.77
845.43	2893.78
845.60	2557.91
845.77	2635.74
845.94	2643.93
846.10	2842.58
846.27	2465.75
846.44	2469.85
846.61	2508.76
846.78	2727.89
846.95	2850.77
847.12	2582.49
847.29	2537.43
847.46	2543.58
847.63	2795.48
847.80	2471.90
847.97	2557.91
848.14	3084.24
848.31	2668.50
848.48	2455.51
848.65	2564.06
848.82	2639.83
848.98	3123.15
849.15	2662.36
849.32	2682.84
849.49	2822.10
849.66	2768.85
849.83	2525.15
850.00	2469.85
850.17	2789.33
850.34	2670.55
850.51	2510.81
850.68	2514.91
850.85	2944.98
851.01	2777.05
851.18	2525.15
851.35	2584.54
851.52	2729.94
851.69	2873.30
851.86	2424.80
852.03	2611.16
852.20	2846.68
852.37	2707.41
852.53	2392.03
852.70	2543.58
852.87	2660.31
853.04	2740.18
853.21	2621.40
853.38	2750.42
853.55	2834.39
853.72	2836.44
853.89	2512.86
854.05	2516.95
854.22	2750.42
854.39	2723.80
854.56	2506.71
854.73	2699.22
854.90	2686.94
855.07	2703.32
855.23	2441.18
855.40	2539.48
855.57	2617.30
855.74	2435.03
855.91	2785.24
856.08	2449.37
856.25	2482.14
856.41	2656.22
856.58	2541.53
856.75	2566.10
856.92	2523.10
857.09	2873.30
857.26	2387.93
857.42	2588.63
857.59	2793.43
857.76	2664.41
857.93	2537.43
858.10	2527.19
858.27	2506.71
858.43	2650.07
858.60	2553.82
858.77	2455.51
858.94	2627.54
859.11	2875.35
859.27	2592.73
859.44	2512.86
859.61	2957.27
859.78	2775.00
859.95	2549.72
860.12	2478.04
860.28	3018.71
860.45	3039.19
860.62	2435.03
860.79	2619.35
860.95	2643.93
861.12	2545.63
861.29	2502.62
861.46	2551.77
861.63	2695.13
861.79	2750.42
861.96	2537.43
862.13	2537.43
862.30	2844.63
862.47	2615.26
862.63	2475.99
862.80	2592.73
862.97	2852.82
863.14	2744.28
863.30	2605.02
863.47	2449.37
863.64	2957.27
863.81	2650.07
863.97	2437.08
864.14	2523.10
864.31	2666.46
864.48	2754.52
864.65	2572.25
864.81	2738.13
864.98	2742.23
865.15	2895.83
865.32	2672.60
865.48	2615.26
865.65	2914.26
865.82	2588.63
865.98	2590.68
866.15	2607.06
866.32	2637.78
866.49	2645.98
866.65	2670.55
866.82	2510.81
866.99	2740.18
867.16	2701.27
867.32	2557.91
867.49	2498.52
867.66	2619.35
867.83	2639.83
867.99	2484.19
868.16	2613.21
868.33	2490.33
868.49	2660.31
868.66	2580.44
868.83	2672.60
868.99	2719.70
869.16	2762.71
869.33	2684.89
869.50	2674.65
869.66	2736.09
869.83	2701.27
870.00	2531.29
870.16	2703.32
870.33	2682.84
870.50	2850.77
870.66	2635.74
870.83	2678.74
871.00	2762.71
871.17	2824.15
871.33	2613.21
871.50	2555.86
871.67	2676.70
871.83	2443.23
872.00	2721.75
872.17	2547.67
872.33	2983.89
872.50	2863.06
872.67	2572.25
872.83	2451.42
873.00	2766.81
873.17	2688.98
873.33	2629.59
873.50	2635.74
873.67	2602.97
873.83	2674.65
874.00	2568.15
874.16	2682.84
874.33	2703.32
874.50	2545.63
874.66	2578.39
874.83	2701.27
875.00	2826.20
875.16	2834.39
875.33	2670.55
875.50	2377.69
875.66	2684.89
875.83	2705.37
875.99	2658.26
876.16	2635.74
876.33	2578.39
876.49	2639.83
876.66	2600.92
876.83	2559.96
876.99	2521.05
877.16	2662.36
877.32	2588.63
877.49	2553.82
877.66	2703.32
877.82	2912.21
877.99	2533.34
878.15	2711.51
878.32	2676.70
878.49	2703.32
878.65	2584.54
878.82	2760.66
878.98	2699.22
879.15	2916.31
879.32	2670.55
879.48	2633.69
879.65	2645.98
879.81	2664.41
879.98	2639.83
880.15	2611.16
880.31	2818.00
880.48	2598.87
880.64	2625.50
880.81	2680.79
880.97	2924.50
881.14	2877.40
881.31	2621.40
881.47	2740.18
881.64	2705.37
881.80	2543.58
881.97	2719.70
882.13	2588.63
882.30	2490.33
882.47	2600.92
882.63	2547.67
882.80	2594.78
882.96	2652.12
883.13	2826.20
883.29	2519.00
883.46	2555.86
883.62	3014.61
883.79	2746.33
883.95	2717.65
884.12	2537.43
884.29	2863.06
884.45	2729.94
884.62	2547.67
884.78	2551.77
884.95	2947.03
885.11	2602.97
885.28	2635.74
885.44	2506.71
885.61	2744.28
885.77	2861.01
885.94	2656.22
886.10	2648.02
886.27	2715.61
886.43	2955.22
886.60	2731.99
886.76	2553.82
886.93	2506.71
887.09	2719.70
887.26	2445.27
887.42	2596.82
887.59	2891.73
887.75	3067.86
887.92	2805.72
888.08	2590.68
888.25	2963.41
888.41	2920.40
888.58	2701.27
888.74	2539.48
888.91	2605.02
>>>>>End Processed Spectral Data<<<<<
