SpectraSuite Data File
++++++++++++++++++++++++++++++++++++
Date: Thu May 05 16:20:49 CEST 2016
User: root
Dark Spectrum Present: No
Reference Spectrum Present: No
Number of Sampled Component Spectra: 1
Spectrometers: USB4C02835
Integration Time (usec): 100000 (USB4C02835)
Spectra Averaged: 1 (USB4C02835)
Boxcar Smoothing: 0 (USB4C02835)
Correct for Electrical Dark: No (USB4C02835)
Strobe/Lamp Enabled: No (USB4C02835)
Correct for Detector Non-linearity: No (USB4C02835)
Correct for Stray Light: No (USB4C02835)
Number of Pixels in Processed Spectrum: 3648
>>>>>Begin Processed Spectral Data<<<<<
177.47	2021.35
177.69	2021.35
177.91	2021.35
178.13	1972.19
178.36	2066.40
178.58	2643.93
178.80	2652.12
179.02	2498.52
179.24	2588.63
179.46	2512.86
179.68	2545.63
179.90	2707.41
180.13	2764.76
180.35	2377.69
180.57	2484.19
180.79	2811.86
181.01	2682.84
181.23	2506.71
181.45	2580.44
181.67	2793.43
181.90	2861.01
182.12	2535.39
182.34	2373.60
182.56	2791.38
182.78	2785.24
183.00	2480.09
183.22	2607.06
183.44	2428.89
183.66	3190.74
183.89	2660.31
184.11	2508.76
184.33	2807.77
184.55	2955.22
184.77	2531.29
184.99	2535.39
185.21	2711.51
185.43	3094.48
185.65	2457.56
185.87	2445.27
186.10	3078.10
186.32	3061.71
186.54	2605.02
186.76	2564.06
186.98	2861.01
187.20	2686.94
187.42	2488.28
187.64	2473.95
187.86	2797.53
188.08	2873.30
188.30	2426.84
188.52	2525.15
188.75	2842.58
188.97	2787.29
189.19	2486.23
189.41	2463.71
189.63	2797.53
189.85	2725.85
190.07	2383.84
190.29	2334.68
190.51	2820.05
190.73	2598.87
190.95	2637.78
191.17	2549.72
191.39	2588.63
191.61	2613.21
191.84	2529.24
192.06	2582.49
192.28	2484.19
192.50	3229.65
192.72	2652.12
192.94	2574.30
193.16	2953.17
193.38	2707.41
193.60	2453.47
193.82	2676.70
194.04	2914.26
194.26	2793.43
194.48	2557.91
194.70	2473.95
194.92	2691.03
195.14	2848.72
195.36	2482.14
195.58	2580.44
195.80	2740.18
196.02	2658.26
196.24	2441.18
196.46	2619.35
196.69	2596.82
196.91	3121.10
197.13	2531.29
197.35	2467.80
197.57	2957.27
197.79	2727.89
198.01	2594.78
198.23	2543.58
198.45	2791.38
198.67	2564.06
198.89	2408.41
199.11	2648.02
199.33	2631.64
199.55	2453.47
199.77	2398.17
199.99	2645.98
200.21	2648.02
200.43	2752.47
200.65	2381.79
200.87	2346.97
201.09	2643.93
201.31	2682.84
201.53	2516.95
201.75	2588.63
201.97	2803.67
202.19	2754.52
202.41	2574.30
202.63	2611.16
202.85	2779.09
203.07	2756.57
203.29	2605.02
203.51	2432.99
203.73	2660.31
203.95	3119.06
204.17	2488.28
204.39	2572.25
204.61	2717.65
204.83	2652.12
205.05	2672.60
205.27	2549.72
205.49	2971.60
205.71	2715.61
205.93	2394.08
206.15	2435.03
206.37	2781.14
206.59	2650.07
206.81	2379.74
207.03	2445.27
207.25	2656.22
207.47	2865.11
207.69	2572.25
207.91	2725.85
208.13	2971.60
208.34	2635.74
208.56	2402.27
208.78	2570.20
209.00	2674.65
209.22	2637.78
209.44	2498.52
209.66	2463.71
209.88	2734.04
210.10	2695.13
210.32	2490.33
210.54	2602.97
210.76	2693.08
210.98	2883.54
211.20	2400.22
211.42	2600.92
211.64	2944.98
211.86	2695.13
212.08	2572.25
212.30	2611.16
212.52	2736.09
212.74	2805.72
212.96	2600.92
213.17	2691.03
213.39	2899.92
213.61	2994.13
213.83	2582.49
214.05	2396.12
214.27	2922.45
214.49	2506.71
214.71	2490.33
214.93	2576.34
215.15	2754.52
215.37	2772.95
215.59	2422.75
215.81	2568.15
216.03	2936.79
216.24	2721.75
216.46	2555.86
216.68	2566.10
216.90	2809.81
217.12	2875.35
217.34	2457.56
217.56	2648.02
217.78	2971.60
218.00	2795.48
218.22	2596.82
218.44	2545.63
218.66	2785.24
218.87	3039.19
219.09	2447.32
219.31	2525.15
219.53	2658.26
219.75	2613.21
219.97	2516.95
220.19	2543.58
220.41	2701.27
220.63	2992.08
220.85	2568.15
221.06	2555.86
221.28	2998.23
221.50	2832.34
221.72	2504.67
221.94	2428.89
222.16	2666.46
222.38	2832.34
222.60	2498.52
222.82	2598.87
223.03	2887.64
223.25	2658.26
223.47	2545.63
223.69	2705.37
223.91	2883.54
224.13	2783.19
224.35	2465.75
224.57	2664.41
224.78	2887.64
225.00	2590.68
225.22	2516.95
225.44	2494.43
225.66	2815.96
225.88	2629.59
226.10	2568.15
226.32	2527.19
226.53	2949.08
226.75	2660.31
226.97	2574.30
227.19	2590.68
227.41	2600.92
227.63	2658.26
227.85	2379.74
228.06	2527.19
228.28	2731.99
228.50	2863.06
228.72	2402.27
228.94	2525.15
229.16	2437.08
229.37	2598.87
229.59	2445.27
229.81	2658.26
230.03	2607.06
230.25	2533.34
230.47	2400.22
230.69	2441.18
230.90	2854.87
231.12	2723.80
231.34	2557.91
231.56	2602.97
231.78	2586.58
232.00	2684.89
232.21	2537.43
232.43	2568.15
232.65	2492.38
232.87	2707.41
233.09	2469.85
233.30	2461.66
233.52	2854.87
233.74	2676.70
233.96	2564.06
234.18	2670.55
234.40	2631.64
234.61	3008.47
234.83	2437.08
235.05	2484.19
235.27	3135.44
235.49	2920.40
235.70	2416.60
235.92	2506.71
236.14	2754.52
236.36	3080.14
236.58	2375.64
236.79	2609.11
237.01	2705.37
237.23	2701.27
237.45	2691.03
237.67	2539.48
237.88	2758.61
238.10	2998.23
238.32	2455.51
238.54	2531.29
238.76	2715.61
238.97	2559.96
239.19	2482.14
239.41	2596.82
239.63	2867.16
239.85	2650.07
240.06	2531.29
240.28	2553.82
240.50	2906.07
240.72	2746.33
240.93	2422.75
241.15	2562.01
241.37	2770.90
241.59	3020.75
241.81	2525.15
242.02	2619.35
242.24	2787.29
242.46	2908.12
242.68	2359.26
242.89	2494.43
243.11	2899.92
243.33	2713.56
243.55	2510.81
243.76	2574.30
243.98	2631.64
244.20	2615.26
244.42	2562.01
244.64	2580.44
244.85	2531.29
245.07	2514.91
245.29	2525.15
245.51	2496.47
245.72	2797.53
245.94	2932.69
246.16	2531.29
246.38	2602.97
246.59	2637.78
246.81	2613.21
247.03	2523.10
247.24	2437.08
247.46	2707.41
247.68	2729.94
247.90	2469.85
248.11	2529.24
248.33	2852.82
248.55	2736.09
248.77	2609.11
248.98	2531.29
249.20	2936.79
249.42	2662.36
249.64	2564.06
249.85	2533.34
250.07	2611.16
250.29	2838.48
250.50	2568.15
250.72	2400.22
250.94	2824.15
251.16	3028.95
251.37	2555.86
251.59	2578.39
251.81	2764.76
252.02	2938.84
252.24	2443.23
252.46	2674.65
252.68	2594.78
252.89	2568.15
253.11	2394.08
253.33	2652.12
253.54	2912.21
253.76	2516.95
253.98	2535.39
254.20	2498.52
254.41	2562.01
254.63	2676.70
254.85	2430.94
255.06	2547.67
255.28	2904.02
255.50	2705.37
255.71	2496.47
255.93	2457.56
256.15	2666.46
256.36	2926.55
256.58	2396.12
256.80	2531.29
257.02	2719.70
257.23	2629.59
257.45	2629.59
257.67	2652.12
257.88	2713.56
258.10	2777.05
258.32	2494.43
258.53	2580.44
258.75	2975.70
258.97	2627.54
259.18	2492.38
259.40	2437.08
259.62	2930.64
259.83	2858.96
260.05	2535.39
260.27	3186.64
260.48	2891.73
260.70	2568.15
260.92	2394.08
261.13	2590.68
261.35	2742.23
261.57	2734.04
261.78	2346.97
262.00	2410.46
262.22	2787.29
262.43	2539.48
262.65	2525.15
262.86	2559.96
263.08	3033.04
263.30	2674.65
263.51	2408.41
263.73	2449.37
263.95	2852.82
264.16	2662.36
264.38	2432.99
264.60	2461.66
264.81	2678.74
265.03	2916.31
265.25	2770.90
265.46	2418.65
265.68	2863.06
265.89	2854.87
266.11	2383.84
266.33	2549.72
266.54	2826.20
266.76	2783.19
266.98	2611.16
267.19	2680.79
267.41	2854.87
267.62	2703.32
267.84	2367.45
268.06	2602.97
268.27	2662.36
268.49	2824.15
268.70	2637.78
268.92	2549.72
269.14	2643.93
269.35	2502.62
269.57	2570.20
269.79	2547.67
270.00	2680.79
270.22	2965.46
270.43	2385.88
270.65	2400.22
270.87	2815.96
271.08	2838.48
271.30	2551.77
271.51	2547.67
271.73	2791.38
271.95	2899.92
272.16	2478.04
272.38	2596.82
272.59	2619.35
272.81	2670.55
273.02	2490.33
273.24	2617.30
273.46	2879.44
273.67	2588.63
273.89	2441.18
274.10	2523.10
274.32	2949.08
274.54	2805.72
274.75	2662.36
274.97	2660.31
275.18	2748.37
275.40	2799.57
275.61	2592.73
275.83	2592.73
276.05	2547.67
276.26	2592.73
276.48	2574.30
276.69	2592.73
276.91	2602.97
277.12	2953.17
277.34	2662.36
277.55	2760.66
277.77	2740.18
277.99	2709.46
278.20	2555.86
278.42	2508.76
278.63	2572.25
278.85	2562.01
279.06	2549.72
279.28	2559.96
279.49	2858.96
279.71	2869.20
279.93	2617.30
280.14	2691.03
280.36	2615.26
280.57	2871.25
280.79	2731.99
281.00	2580.44
281.22	2666.46
281.43	2842.58
281.65	2432.99
281.86	2559.96
282.08	2848.72
282.29	3026.90
282.51	2490.33
282.73	2514.91
282.94	2570.20
283.16	2867.16
283.37	2785.24
283.59	2564.06
283.80	2750.42
284.02	2650.07
284.23	2635.74
284.45	2594.78
284.66	2617.30
284.88	2623.45
285.09	2670.55
285.31	2748.37
285.52	2777.05
285.74	2498.52
285.95	2736.09
286.17	2652.12
286.38	2871.25
286.60	2582.49
286.81	2562.01
287.03	2539.48
287.24	2709.46
287.46	2770.90
287.67	2641.88
287.89	2785.24
288.10	2666.46
288.32	2772.95
288.53	2789.33
288.75	2635.74
288.96	2809.81
289.18	2664.41
289.39	2543.58
289.61	2639.83
289.82	3006.42
290.04	2959.31
290.25	2498.52
290.47	2617.30
290.68	2691.03
290.90	2865.11
291.11	2389.98
291.33	2670.55
291.54	2590.68
291.76	2654.17
291.97	2674.65
292.18	2678.74
292.40	2701.27
292.61	2654.17
292.83	2875.35
293.04	2658.26
293.26	2779.09
293.47	2662.36
293.69	2531.29
293.90	2551.77
294.12	2922.45
294.33	2686.94
294.55	2611.16
294.76	2729.94
294.97	2910.16
295.19	3026.90
295.40	2594.78
295.62	2664.41
295.83	2881.49
296.05	2611.16
296.26	2775.00
296.48	2504.67
296.69	2750.42
296.90	2676.70
297.12	2744.28
297.33	2748.37
297.55	2803.67
297.76	2834.39
297.98	2697.17
298.19	2664.41
298.41	2719.70
298.62	2584.54
298.83	2787.29
299.05	2670.55
299.26	2678.74
299.48	2660.31
299.69	2760.66
299.90	2555.86
300.12	2637.78
300.33	2805.72
300.55	2584.54
300.76	2650.07
300.98	2553.82
301.19	2865.11
301.40	2691.03
301.62	2566.10
301.83	2820.05
302.05	2676.70
302.26	2576.34
302.47	2688.98
302.69	2492.38
302.90	2756.57
303.12	2439.13
303.33	2736.09
303.54	3053.52
303.76	2586.58
303.97	2566.10
304.19	2818.00
304.40	2531.29
304.61	2832.34
304.83	2762.71
305.04	2684.89
305.26	2750.42
305.47	2748.37
305.68	2613.21
305.90	2496.47
306.11	2811.86
306.33	2734.04
306.54	2514.91
306.75	2566.10
306.97	2523.10
307.18	2539.48
307.39	2650.07
307.61	2693.08
307.82	2633.69
308.04	2727.89
308.25	2484.19
308.46	2639.83
308.68	2744.28
308.89	2734.04
309.10	2680.79
309.32	2602.97
309.53	2658.26
309.74	2783.19
309.96	2523.10
310.17	2731.99
310.39	2633.69
310.60	2844.63
310.81	2668.50
311.03	2527.19
311.24	2793.43
311.45	2707.41
311.67	2777.05
311.88	2695.13
312.09	2658.26
312.31	2580.44
312.52	2625.50
312.73	2566.10
312.95	2523.10
313.16	2588.63
313.37	2707.41
313.59	2695.13
313.80	2820.05
314.01	2908.12
314.23	2648.02
314.44	2424.80
314.65	2492.38
314.87	2617.30
315.08	2541.53
315.29	2553.82
315.51	2602.97
315.72	2584.54
315.93	2713.56
316.15	2594.78
316.36	2693.08
316.57	2766.81
316.79	2627.54
317.00	2658.26
317.21	2805.72
317.43	2611.16
317.64	2682.84
317.85	2547.67
318.07	2568.15
318.28	2670.55
318.49	2695.13
318.70	2826.20
318.92	2809.81
319.13	2887.64
319.34	2809.81
319.56	2699.22
319.77	2789.33
319.98	2848.72
320.20	2766.81
320.41	2777.05
320.62	2899.92
320.83	2566.10
321.05	2791.38
321.26	2623.45
321.47	2684.89
321.69	2891.73
321.90	2537.43
322.11	2500.57
322.32	2731.99
322.54	2955.22
322.75	2635.74
322.96	3215.31
323.18	2490.33
323.39	2318.30
323.60	2535.39
323.81	2717.65
324.03	2648.02
324.24	2760.66
324.45	2711.51
324.66	2598.87
324.88	2908.12
325.09	2957.27
325.30	2684.89
325.52	2611.16
325.73	2803.67
325.94	2592.73
326.15	2482.14
326.37	2465.75
326.58	2885.59
326.79	2936.79
327.00	2529.24
327.22	2584.54
327.43	2666.46
327.64	2539.48
327.85	2648.02
328.07	2666.46
328.28	3071.95
328.49	2580.44
328.70	2668.50
328.92	2619.35
329.13	2672.60
329.34	2764.76
329.55	2822.10
329.76	2645.98
329.98	2711.51
330.19	2877.40
330.40	2705.37
330.61	2668.50
330.83	2822.10
331.04	2605.02
331.25	2719.70
331.46	2512.86
331.68	2547.67
331.89	2838.48
332.10	2633.69
332.31	2465.75
332.52	2672.60
332.74	2875.35
332.95	2461.66
333.16	2613.21
333.37	2832.34
333.58	2641.88
333.80	2605.02
334.01	2457.56
334.22	2678.74
334.43	2660.31
334.64	2572.25
334.86	2506.71
335.07	2555.86
335.28	2934.74
335.49	2498.52
335.70	2729.94
335.92	2901.97
336.13	3078.10
336.34	2725.85
336.55	2588.63
336.76	2744.28
336.98	2496.47
337.19	2645.98
337.40	2709.46
337.61	3037.14
337.82	2695.13
338.04	2779.09
338.25	2439.13
338.46	2723.80
338.67	2699.22
338.88	2519.00
339.09	2590.68
339.31	2678.74
339.52	2621.40
339.73	2500.57
339.94	2670.55
340.15	2824.15
340.36	2641.88
340.58	2635.74
340.79	2531.29
341.00	2826.20
341.21	2566.10
341.42	2793.43
341.63	2654.17
341.85	2826.20
342.06	2762.71
342.27	2555.86
342.48	2777.05
342.69	2549.72
342.90	2721.75
343.12	2877.40
343.33	2609.11
343.54	2869.20
343.75	2942.93
343.96	2684.89
344.17	2504.67
344.38	2676.70
344.60	2572.25
344.81	2500.57
345.02	2643.93
345.23	2846.68
345.44	3071.95
345.65	2693.08
345.86	2656.22
346.07	2770.90
346.29	2629.59
346.50	2775.00
346.71	2609.11
346.92	2936.79
347.13	3014.61
347.34	2553.82
347.55	2455.51
347.76	2758.61
347.98	2451.42
348.19	2709.46
348.40	2738.13
348.61	2639.83
348.82	3045.33
349.03	2648.02
349.24	2504.67
349.45	2914.26
349.66	2531.29
349.88	2588.63
350.09	2473.95
350.30	2838.48
350.51	2897.88
350.72	2699.22
350.93	2623.45
351.14	2699.22
351.35	2748.37
351.56	2650.07
351.77	2543.58
351.99	2783.19
352.20	2934.74
352.41	2678.74
352.62	2463.71
352.83	2711.51
353.04	2756.57
353.25	2607.06
353.46	2705.37
353.67	2811.86
353.88	2512.86
354.09	2574.30
354.30	2797.53
354.52	2854.87
354.73	2633.69
354.94	2547.67
355.15	2592.73
355.36	3100.62
355.57	2619.35
355.78	2570.20
355.99	2525.15
356.20	2680.79
356.41	2908.12
356.62	2709.46
356.83	2578.39
357.04	3000.27
357.25	2461.66
357.46	2555.86
357.68	2553.82
357.89	2621.40
358.10	2682.84
358.31	2641.88
358.52	2695.13
358.73	2584.54
358.94	2592.73
359.15	2605.02
359.36	2641.88
359.57	2754.52
359.78	2719.70
359.99	2785.24
360.20	2480.09
360.41	2666.46
360.62	2799.57
360.83	2703.32
361.04	2627.54
361.25	2916.31
361.46	2942.93
361.67	2746.33
361.88	2600.92
362.09	2850.77
362.30	2770.90
362.51	2523.10
362.72	2660.31
362.93	2918.36
363.14	2793.43
363.35	2635.74
363.56	2469.85
363.78	2879.44
363.99	2844.63
364.20	2559.96
364.41	2643.93
364.62	2981.84
364.83	2775.00
365.04	2594.78
365.25	2637.78
365.46	3012.56
365.67	2664.41
365.88	2650.07
366.09	2539.48
366.30	2668.50
366.51	2684.89
366.72	2596.82
366.93	2570.20
367.14	2717.65
367.35	2924.50
367.56	2650.07
367.77	2770.90
367.98	2715.61
368.18	2781.14
368.39	2691.03
368.60	2547.67
368.81	2734.04
369.02	2699.22
369.23	2594.78
369.44	2539.48
369.65	2723.80
369.86	2672.60
370.07	2758.61
370.28	2539.48
370.49	2783.19
370.70	2777.05
370.91	2494.43
371.12	2473.95
371.33	2863.06
371.54	2623.45
371.75	2748.37
371.96	2414.56
372.17	2721.75
372.38	2795.48
372.59	2693.08
372.80	2582.49
373.01	2725.85
373.22	2766.81
373.43	2695.13
373.64	2486.23
373.85	2848.72
374.06	2951.12
374.26	2760.66
374.47	2709.46
374.68	2852.82
374.89	2736.09
375.10	2574.30
375.31	2676.70
375.52	2734.04
375.73	2750.42
375.94	2504.67
376.15	2719.70
376.36	2592.73
376.57	2635.74
376.78	2652.12
376.99	2621.40
377.20	2971.60
377.40	2586.58
377.61	2873.30
377.82	2514.91
378.03	3022.80
378.24	2805.72
378.45	2697.17
378.66	2660.31
378.87	2541.53
379.08	2543.58
379.29	2643.93
379.50	2789.33
379.71	2660.31
379.91	2783.19
380.12	2639.83
380.33	2609.11
380.54	2633.69
380.75	2719.70
380.96	2619.35
381.17	2697.17
381.38	2725.85
381.59	2750.42
381.80	2635.74
382.00	2740.18
382.21	2756.57
382.42	2940.88
382.63	2983.89
382.84	2670.55
383.05	2803.67
383.26	2930.64
383.47	2715.61
383.68	2684.89
383.88	2848.72
384.09	2736.09
384.30	2826.20
384.51	2666.46
384.72	2643.93
384.93	2598.87
385.14	2725.85
385.35	2850.77
385.55	2582.49
385.76	2969.55
385.97	2668.50
386.18	2506.71
386.39	2621.40
386.60	2711.51
386.81	2660.31
387.02	2555.86
387.22	2521.05
387.43	2752.47
387.64	2750.42
387.85	2912.21
388.06	2846.68
388.27	4001.73
388.48	7573.39
388.68	11104.09
388.89	13330.23
389.10	14462.76
389.31	13987.63
389.52	10862.43
389.73	9510.77
389.93	8587.13
390.14	7878.54
390.35	7120.79
390.56	6344.61
390.77	5302.19
390.98	4097.99
391.18	3444.68
391.39	3069.91
391.60	2781.14
391.81	2873.30
392.02	2568.15
392.23	3059.67
392.43	2854.87
392.64	2717.65
392.85	2682.84
393.06	3012.56
393.27	2686.94
393.47	2576.34
393.68	2668.50
393.89	2641.88
394.10	2856.92
394.31	2531.29
394.52	2549.72
394.72	2713.56
394.93	3010.51
395.14	2551.77
395.35	2723.80
395.56	2594.78
395.76	2803.67
395.97	2643.93
396.18	2723.80
396.39	2772.95
396.60	3282.89
396.80	2918.36
397.01	2772.95
397.22	2875.35
397.43	2899.92
397.64	2609.11
397.84	2748.37
398.05	2963.41
398.26	2748.37
398.47	2766.81
398.67	2779.09
398.88	2770.90
399.09	2797.53
399.30	2586.58
399.51	2676.70
399.71	2580.44
399.92	2674.65
400.13	2684.89
400.34	2557.91
400.54	2709.46
400.75	2936.79
400.96	2670.55
401.17	2883.54
401.37	2805.72
401.58	2713.56
401.79	2537.43
402.00	2785.24
402.21	3166.16
402.41	2975.70
402.62	2928.60
402.83	3094.48
403.04	3047.38
403.24	3403.72
403.45	2766.81
403.66	2871.25
403.87	2901.97
404.07	2973.65
404.28	2885.59
404.49	2850.77
404.70	2803.67
404.90	2842.58
405.11	2611.16
405.32	2807.77
405.52	2656.22
405.73	2627.54
405.94	2547.67
406.15	2641.88
406.35	2785.24
406.56	2871.25
406.77	2707.41
406.98	2678.74
407.18	2617.30
407.39	2906.07
407.60	2631.64
407.80	2775.00
408.01	2654.17
408.22	2852.82
408.43	2506.71
408.63	2740.18
408.84	2887.64
409.05	2881.49
409.25	2510.81
409.46	2582.49
409.67	2668.50
409.88	2682.84
410.08	2717.65
410.29	2547.67
410.50	2858.96
410.70	2795.48
410.91	2574.30
411.12	2670.55
411.32	2809.81
411.53	2652.12
411.74	2717.65
411.95	2723.80
412.15	2824.15
412.36	2908.12
412.57	2742.23
412.77	2854.87
412.98	2715.61
413.19	2654.17
413.39	2643.93
413.60	2752.47
413.81	2965.46
414.01	2543.58
414.22	2719.70
414.43	2779.09
414.63	2674.65
414.84	2848.72
415.05	2691.03
415.25	2500.57
415.46	2846.68
415.67	2555.86
415.87	2711.51
416.08	2654.17
416.29	2666.46
416.49	2856.92
416.70	2627.54
416.91	2623.45
417.11	2734.04
417.32	2834.39
417.53	2760.66
417.73	2824.15
417.94	2686.94
418.15	2736.09
418.35	2772.95
418.56	2711.51
418.77	3084.24
418.97	2670.55
419.18	2699.22
419.38	2453.47
419.59	2711.51
419.80	2875.35
420.00	2605.02
420.21	2629.59
420.42	2895.83
420.62	2838.48
420.83	2535.39
421.04	2605.02
421.24	2674.65
421.45	2811.86
421.65	2723.80
421.86	2596.82
422.07	2879.44
422.27	2824.15
422.48	2668.50
422.69	2539.48
422.89	2668.50
423.10	2684.89
423.30	2619.35
423.51	2719.70
423.72	2762.71
423.92	2848.72
424.13	2514.91
424.33	2693.08
424.54	2832.34
424.75	2717.65
424.95	2809.81
425.16	2652.12
425.36	2775.00
425.57	2867.16
425.78	2772.95
425.98	2842.58
426.19	2719.70
426.39	2570.20
426.60	2760.66
426.81	2723.80
427.01	2779.09
427.22	2588.63
427.42	2455.51
427.63	2527.19
427.83	2830.29
428.04	2949.08
428.25	2811.86
428.45	2801.62
428.66	2850.77
428.86	2740.18
429.07	2654.17
429.28	2662.36
429.48	2693.08
429.69	2648.02
429.89	2719.70
430.10	2502.62
430.30	2822.10
430.51	2877.40
430.71	2607.06
430.92	2695.13
431.13	2607.06
431.33	2772.95
431.54	2797.53
431.74	2858.96
431.95	3078.10
432.15	2564.06
432.36	2723.80
432.56	2701.27
432.77	3057.62
432.98	2944.98
433.18	2705.37
433.39	2633.69
433.59	2711.51
433.80	3016.66
434.00	2828.24
434.21	2666.46
434.41	2596.82
434.62	3094.48
434.82	2555.86
435.03	2504.67
435.23	2873.30
435.44	2510.81
435.64	2645.98
435.85	2639.83
436.06	2820.05
436.26	2809.81
436.47	2617.30
436.67	2617.30
436.88	2701.27
437.08	2975.70
437.29	2828.24
437.49	2662.36
437.70	2887.64
437.90	2648.02
438.11	2758.61
438.31	2713.56
438.52	2844.63
438.72	2934.74
438.93	2889.68
439.13	2699.22
439.34	2736.09
439.54	2746.33
439.75	2750.42
439.95	2731.99
440.16	2645.98
440.36	2658.26
440.57	2719.70
440.77	2721.75
440.98	2781.14
441.18	2775.00
441.39	2572.25
441.59	2490.33
441.80	3026.90
442.00	2758.61
442.21	2744.28
442.41	2525.15
442.62	2877.40
442.82	2652.12
443.02	2662.36
443.23	2602.97
443.43	2725.85
443.64	2899.92
443.84	2562.01
444.05	2807.77
444.25	2719.70
444.46	2756.57
444.66	2607.06
444.87	2883.54
445.07	2463.71
445.28	2678.74
445.48	2740.18
445.69	2717.65
445.89	3162.06
446.09	2738.13
446.30	2987.99
446.50	3039.19
446.71	4612.03
446.91	5652.39
447.12	6481.82
447.32	6774.68
447.53	6664.09
447.73	5545.90
447.93	4886.45
448.14	4491.20
448.34	4491.20
448.55	3872.71
448.75	3747.78
448.96	3684.30
449.16	3366.86
449.36	3231.69
449.57	2908.12
449.77	2701.27
449.98	2662.36
450.18	2789.33
450.39	2709.46
450.59	2789.33
450.79	2709.46
451.00	2658.26
451.20	2791.38
451.41	2613.21
451.61	2858.96
451.81	2719.70
452.02	2539.48
452.22	2668.50
452.43	2672.60
452.63	2609.11
452.84	2725.85
453.04	2566.10
453.24	2795.48
453.45	2621.40
453.65	2633.69
453.86	2695.13
454.06	2693.08
454.26	2758.61
454.47	2572.25
454.67	2834.39
454.87	2877.40
455.08	2734.04
455.28	2842.58
455.49	2701.27
455.69	2605.02
455.89	3024.85
456.10	2830.29
456.30	2627.54
456.51	2809.81
456.71	2799.57
456.91	2699.22
457.12	2693.08
457.32	2764.76
457.52	2621.40
457.73	2746.33
457.93	2731.99
458.14	2682.84
458.34	2439.13
458.54	2674.65
458.75	2584.54
458.95	2850.77
459.15	2770.90
459.36	2693.08
459.56	2738.13
459.76	3123.15
459.97	2799.57
460.17	2701.27
460.37	2770.90
460.58	2815.96
460.78	2832.34
460.99	2572.25
461.19	2637.78
461.39	2645.98
461.60	2688.98
461.80	2764.76
462.00	2568.15
462.21	2766.81
462.41	2574.30
462.61	2506.71
462.82	2482.14
463.02	2789.33
463.22	2748.37
463.43	2707.41
463.63	2584.54
463.83	2901.97
464.04	2797.53
464.24	2670.55
464.44	2629.59
464.64	2818.00
464.85	2832.34
465.05	2676.70
465.25	2617.30
465.46	2686.94
465.66	2791.38
465.86	2766.81
466.07	2668.50
466.27	2645.98
466.47	2543.58
466.68	2461.66
466.88	2762.71
467.08	2818.00
467.29	2856.92
467.49	2684.89
467.69	2760.66
467.89	2865.11
468.10	2760.66
468.30	2701.27
468.50	2731.99
468.71	2881.49
468.91	2510.81
469.11	2836.44
469.31	2639.83
469.52	2590.68
469.72	2957.27
469.92	2947.03
470.13	2695.13
470.33	2701.27
470.53	2813.91
470.73	3002.32
470.94	3248.08
471.14	3420.11
471.34	3911.62
471.54	3606.47
471.75	3444.68
471.95	3149.78
472.15	3194.83
472.36	3102.67
472.56	3123.15
472.76	3082.19
472.96	3018.71
473.17	2869.20
473.37	2785.24
473.57	2713.56
473.77	2766.81
473.98	2717.65
474.18	2510.81
474.38	3055.57
474.58	2707.41
474.79	2613.21
474.99	2703.32
475.19	2867.16
475.39	2547.67
475.60	2750.42
475.80	2670.55
476.00	2781.14
476.20	2645.98
476.41	2656.22
476.61	2684.89
476.81	2934.74
477.01	2645.98
477.21	2832.34
477.42	2789.33
477.62	2562.01
477.82	2842.58
478.02	2629.59
478.23	2760.66
478.43	2553.82
478.63	2775.00
478.83	2729.94
479.03	2574.30
479.24	2920.40
479.44	3069.91
479.64	2627.54
479.84	2519.00
480.04	2641.88
480.25	2791.38
480.45	2553.82
480.65	2598.87
480.85	2912.21
481.06	2715.61
481.26	2777.05
481.46	2629.59
481.66	2787.29
481.86	2596.82
482.06	2756.57
482.27	2674.65
482.47	2670.55
482.67	2785.24
482.87	2621.40
483.07	2781.14
483.28	2672.60
483.48	2588.63
483.68	2668.50
483.88	2570.20
484.08	2441.18
484.29	2492.38
484.49	2678.74
484.69	2549.72
484.89	2893.78
485.09	2877.40
485.29	2703.32
485.50	2805.72
485.70	2746.33
485.90	2979.79
486.10	2746.33
486.30	2650.07
486.50	2887.64
486.71	2770.90
486.91	2744.28
487.11	2779.09
487.31	2555.86
487.51	2781.14
487.71	2674.65
487.91	2506.71
488.12	2512.86
488.32	2418.65
488.52	2605.02
488.72	2457.56
488.92	2756.57
489.12	2897.88
489.32	2785.24
489.53	2670.55
489.73	2576.34
489.93	2944.98
490.13	2594.78
490.33	2478.04
490.53	2764.76
490.73	2897.88
490.94	2498.52
491.14	2826.20
491.34	2781.14
491.54	2949.08
491.74	3506.12
491.94	4024.26
492.14	4466.62
492.34	4480.96
492.54	4081.60
492.75	3588.04
492.95	3686.34
493.15	3362.76
493.35	3231.69
493.55	3182.54
493.75	3094.48
493.95	3200.98
494.15	2856.92
494.35	2818.00
494.56	2750.42
494.76	2574.30
494.96	2758.61
495.16	2572.25
495.36	2750.42
495.56	2811.86
495.76	2621.40
495.96	2670.55
496.16	2619.35
496.36	2934.74
496.56	2566.10
496.77	2699.22
496.97	2725.85
497.17	2895.83
497.37	2588.63
497.57	2709.46
497.77	2762.71
497.97	2635.74
498.17	2664.41
498.37	2643.93
498.57	2820.05
498.77	2621.40
498.97	2729.94
499.17	2908.12
499.38	2791.38
499.58	2813.91
499.78	2809.81
499.98	2877.40
500.18	2709.46
500.38	2648.02
500.58	2842.58
500.78	3200.98
500.98	5332.91
501.18	7233.43
501.38	8769.40
501.58	9469.81
501.78	9416.56
501.98	7806.86
502.18	6616.99
502.38	5521.32
502.58	5506.99
502.78	4667.32
502.98	4573.11
503.18	4499.39
503.38	4071.36
503.59	3493.83
503.79	3487.69
503.99	3252.17
504.19	3235.79
504.39	3157.97
504.59	3141.58
504.79	3078.10
504.99	3198.93
505.19	2920.40
505.39	2881.49
505.59	2899.92
505.79	2936.79
505.99	2844.63
506.19	2731.99
506.39	2881.49
506.59	2662.36
506.79	2705.37
506.99	2801.62
507.19	2682.84
507.39	2750.42
507.59	2514.91
507.79	2586.58
507.99	2639.83
508.19	2674.65
508.39	2633.69
508.59	2754.52
508.79	2787.29
508.99	3092.43
509.19	2674.65
509.39	2715.61
509.59	2613.21
509.79	2645.98
509.99	2916.31
510.19	2818.00
510.39	2740.18
510.59	2711.51
510.79	2654.17
510.99	2551.77
511.19	2629.59
511.39	2904.02
511.59	2875.35
511.79	2815.96
511.99	2662.36
512.19	2998.23
512.38	2672.60
512.58	2594.78
512.78	2588.63
512.98	2873.30
513.18	3014.61
513.38	2498.52
513.58	2742.23
513.78	2731.99
513.98	2731.99
514.18	2678.74
514.38	2580.44
514.58	2715.61
514.78	2678.74
514.98	2502.62
515.18	2633.69
515.38	2588.63
515.58	2963.41
515.78	2691.03
515.98	2629.59
516.18	2852.82
516.38	2731.99
516.57	2551.77
516.77	2680.79
516.97	2846.68
517.17	2641.88
517.37	2457.56
517.57	2744.28
517.77	2770.90
517.97	2654.17
518.17	2807.77
518.37	2562.01
518.57	2637.78
518.77	2682.84
518.97	2648.02
519.16	2697.17
519.36	2889.68
519.56	2586.58
519.76	2631.64
519.96	2645.98
520.16	2963.41
520.36	2602.97
520.56	2818.00
520.76	2592.73
520.96	2691.03
521.16	2787.29
521.35	2805.72
521.55	2789.33
521.75	2758.61
521.95	2658.26
522.15	2641.88
522.35	2537.43
522.55	2623.45
522.75	2883.54
522.95	2600.92
523.14	2590.68
523.34	2744.28
523.54	2744.28
523.74	2746.33
523.94	2740.18
524.14	2523.10
524.34	2830.29
524.54	2908.12
524.73	2623.45
524.93	2775.00
525.13	2785.24
525.33	2508.76
525.53	2920.40
525.73	2850.77
525.93	2785.24
526.13	2605.02
526.32	2598.87
526.52	2820.05
526.72	2863.06
526.92	2656.22
527.12	2617.30
527.32	2555.86
527.52	2707.41
527.71	2775.00
527.91	2666.46
528.11	2697.17
528.31	2684.89
528.51	2572.25
528.71	2775.00
528.90	2844.63
529.10	2912.21
529.30	2789.33
529.50	2412.51
529.70	2818.00
529.90	2643.93
530.09	2693.08
530.29	2521.05
530.49	2627.54
530.69	3176.40
530.89	2715.61
531.09	2723.80
531.28	2639.83
531.48	2885.59
531.68	2643.93
531.88	2658.26
532.08	2811.86
532.28	2715.61
532.47	2801.62
532.67	2719.70
532.87	2725.85
533.07	2559.96
533.27	2684.89
533.46	2750.42
533.66	2781.14
533.86	2731.99
534.06	2635.74
534.26	2633.69
534.45	2668.50
534.65	2916.31
534.85	2777.05
535.05	2588.63
535.25	2906.07
535.44	2547.67
535.64	2738.13
535.84	2660.31
536.04	2625.50
536.24	2648.02
536.43	2613.21
536.63	2674.65
536.83	2734.04
537.03	2729.94
537.22	2406.36
537.42	2428.89
537.62	2723.80
537.82	2635.74
538.02	2838.48
538.21	2740.18
538.41	3106.77
538.61	2879.44
538.81	2723.80
539.00	2738.13
539.20	2584.54
539.40	2721.75
539.60	2666.46
539.79	2787.29
539.99	2744.28
540.19	2629.59
540.39	2725.85
540.58	2623.45
540.78	2863.06
540.98	2721.75
541.18	2775.00
541.37	2752.47
541.57	2748.37
541.77	2748.37
541.97	2609.11
542.16	2461.66
542.36	2623.45
542.56	2594.78
542.76	2873.30
542.95	2707.41
543.15	2818.00
543.35	2797.53
543.54	2580.44
543.74	2586.58
543.94	2932.69
544.14	2684.89
544.33	2736.09
544.53	2686.94
544.73	2709.46
544.93	2668.50
545.12	2637.78
545.32	2613.21
545.52	2711.51
545.71	2607.06
545.91	2562.01
546.11	2523.10
546.30	2568.15
546.50	2705.37
546.70	2748.37
546.90	2672.60
547.09	2475.99
547.29	2760.66
547.49	2811.86
547.68	2670.55
547.88	2602.97
548.08	2775.00
548.27	3149.78
548.47	2602.97
548.67	2613.21
548.87	2811.86
549.06	2682.84
549.26	2625.50
549.46	2797.53
549.65	2703.32
549.85	2660.31
550.05	2699.22
550.24	2525.15
550.44	2797.53
550.64	2727.89
550.83	2625.50
551.03	2914.26
551.23	2818.00
551.42	2805.72
551.62	2668.50
551.82	2768.85
552.01	2729.94
552.21	2906.07
552.41	2678.74
552.60	2918.36
552.80	2750.42
553.00	2617.30
553.19	2729.94
553.39	2947.03
553.59	2512.86
553.78	2693.08
553.98	2613.21
554.17	2547.67
554.37	2779.09
554.57	2768.85
554.76	2516.95
554.96	2656.22
555.16	2729.94
555.35	2736.09
555.55	2811.86
555.75	2750.42
555.94	2805.72
556.14	2533.34
556.33	2672.60
556.53	2684.89
556.73	2691.03
556.92	2779.09
557.12	2654.17
557.32	2998.23
557.51	2944.98
557.71	2754.52
557.90	2838.48
558.10	2893.78
558.30	2766.81
558.49	2654.17
558.69	2578.39
558.88	2832.34
559.08	2688.98
559.28	2652.12
559.47	2643.93
559.67	2803.67
559.86	3014.61
560.06	2666.46
560.26	2684.89
560.45	2801.62
560.65	2811.86
560.84	2842.58
561.04	2521.05
561.24	2805.72
561.43	2521.05
561.63	2891.73
561.82	2693.08
562.02	2752.47
562.22	2678.74
562.41	2568.15
562.61	2650.07
562.80	2650.07
563.00	3059.67
563.19	2736.09
563.39	2760.66
563.59	2764.76
563.78	2605.02
563.98	2428.89
564.17	2650.07
564.37	2549.72
564.56	2811.86
564.76	2533.34
564.96	2760.66
565.15	2846.68
565.35	2936.79
565.54	2645.98
565.74	2760.66
565.93	2793.43
566.13	2676.70
566.32	2736.09
566.52	2760.66
566.71	2637.78
566.91	2869.20
567.11	2797.53
567.30	2617.30
567.50	2891.73
567.69	2768.85
567.89	2613.21
568.08	2570.20
568.28	2744.28
568.47	2551.77
568.67	2605.02
568.86	2609.11
569.06	2856.92
569.25	2691.03
569.45	2525.15
569.64	2650.07
569.84	2674.65
570.04	2813.91
570.23	2570.20
570.43	2611.16
570.62	2770.90
570.82	2940.88
571.01	2547.67
571.21	2592.73
571.40	2588.63
571.60	2820.05
571.79	2777.05
571.99	2666.46
572.18	2602.97
572.38	2781.14
572.57	2639.83
572.77	2658.26
572.96	3100.62
573.16	2830.29
573.35	2633.69
573.55	2887.64
573.74	2856.92
573.94	2682.84
574.13	2658.26
574.33	2797.53
574.52	2912.21
574.71	2815.96
574.91	2719.70
575.10	2523.10
575.30	2676.70
575.49	2598.87
575.69	2627.54
575.88	2703.32
576.08	2652.12
576.27	2873.30
576.47	2672.60
576.66	2795.48
576.86	2955.22
577.05	2738.13
577.25	2734.04
577.44	2887.64
577.64	2645.98
577.83	2881.49
578.02	2613.21
578.22	2881.49
578.41	2990.03
578.61	2664.41
578.80	2496.47
579.00	2682.84
579.19	2705.37
579.39	2742.23
579.58	2723.80
579.77	2627.54
579.97	2897.88
580.16	2799.57
580.36	2828.24
580.55	2779.09
580.75	2775.00
580.94	2777.05
581.13	2891.73
581.33	2863.06
581.52	2721.75
581.72	3037.14
581.91	2830.29
582.11	2594.78
582.30	2815.96
582.49	2748.37
582.69	2944.98
582.88	2793.43
583.08	2834.39
583.27	2942.93
583.47	2695.13
583.66	2688.98
583.85	2654.17
584.05	2752.47
584.24	2777.05
584.44	2723.80
584.63	2914.26
584.82	3000.27
585.02	2979.79
585.21	2777.05
585.41	2826.20
585.60	2813.91
585.79	2906.07
585.99	2994.13
586.18	2930.64
586.37	3592.14
586.57	5431.21
586.76	16086.79
586.96	35270.12
587.15	48100.64
587.34	56626.34
587.54	61242.46
587.73	54840.51
587.93	38827.44
588.12	29855.29
588.31	23983.76
588.51	20854.47
588.70	19279.58
588.89	17247.99
589.09	14901.02
589.28	12642.11
589.47	9734.00
589.67	7755.66
589.86	6043.56
590.06	4585.40
590.25	3901.38
590.44	3461.07
590.64	3065.81
590.83	3069.91
591.02	2926.55
591.22	2750.42
591.41	2791.38
591.60	2834.39
591.80	3153.87
591.99	2605.02
592.18	2678.74
592.38	2838.48
592.57	2852.82
592.76	2711.51
592.96	2736.09
593.15	2793.43
593.34	2906.07
593.54	2594.78
593.73	2711.51
593.92	2834.39
594.12	2801.62
594.31	2705.37
594.50	2867.16
594.70	2846.68
594.89	3170.26
595.08	2559.96
595.28	2832.34
595.47	3182.54
595.66	2858.96
595.86	2553.82
596.05	2492.38
596.24	2703.32
596.43	2981.84
596.63	2877.40
596.82	2711.51
597.01	2828.24
597.21	3010.51
597.40	2731.99
597.59	2725.85
597.79	2760.66
597.98	2762.71
598.17	2695.13
598.36	2666.46
598.56	2901.97
598.75	2576.34
598.94	2760.66
599.14	2680.79
599.33	2662.36
599.52	2815.96
599.71	2768.85
599.91	2744.28
600.10	2801.62
600.29	2809.81
600.48	2789.33
600.68	2783.19
600.87	2820.05
601.06	2680.79
601.26	2695.13
601.45	2746.33
601.64	2660.31
601.83	2998.23
602.03	2645.98
602.22	2525.15
602.41	2893.78
602.60	3198.93
602.80	2725.85
602.99	2668.50
603.18	2717.65
603.37	2789.33
603.57	2660.31
603.76	2727.89
603.95	2967.51
604.14	2652.12
604.34	2703.32
604.53	2633.69
604.72	2721.75
604.91	2832.34
605.10	2709.46
605.30	2508.76
605.49	3059.67
605.68	2809.81
605.87	2682.84
606.07	2682.84
606.26	2703.32
606.45	2811.86
606.64	2709.46
606.84	2619.35
607.03	2764.76
607.22	2834.39
607.41	2703.32
607.60	2629.59
607.80	2891.73
607.99	2721.75
608.18	2650.07
608.37	2650.07
608.56	2652.12
608.76	2924.50
608.95	2873.30
609.14	2680.79
609.33	2947.03
609.52	2975.70
609.72	2766.81
609.91	2811.86
610.10	2807.77
610.29	2957.27
610.48	2674.65
610.68	2791.38
610.87	2666.46
611.06	2803.67
611.25	2709.46
611.44	2846.68
611.63	2693.08
611.83	2858.96
612.02	2574.30
612.21	2709.46
612.40	2523.10
612.59	2539.48
612.79	2519.00
612.98	2715.61
613.17	2897.88
613.36	2719.70
613.55	2838.48
613.74	2666.46
613.93	2832.34
614.13	2822.10
614.32	2838.48
614.51	2854.87
614.70	2711.51
614.89	2684.89
615.08	2791.38
615.28	3098.58
615.47	2619.35
615.66	2787.29
615.85	2721.75
616.04	2697.17
616.23	2738.13
616.42	2736.09
616.62	2734.04
616.81	2785.24
617.00	2762.71
617.19	2863.06
617.38	2602.97
617.57	2742.23
617.76	2838.48
617.95	2840.53
618.15	2756.57
618.34	2873.30
618.53	2605.02
618.72	2887.64
618.91	2760.66
619.10	2836.44
619.29	2762.71
619.48	2791.38
619.68	2555.86
619.87	2631.64
620.06	2545.63
620.25	2818.00
620.44	2654.17
620.63	2693.08
620.82	2656.22
621.01	2731.99
621.20	2725.85
621.39	2707.41
621.59	2830.29
621.78	2697.17
621.97	2691.03
622.16	2750.42
622.35	2793.43
622.54	2803.67
622.73	2715.61
622.92	2471.90
623.11	2906.07
623.30	2697.17
623.49	2775.00
623.68	2555.86
623.88	2875.35
624.07	2707.41
624.26	2576.34
624.45	2686.94
624.64	2748.37
624.83	2785.24
625.02	2635.74
625.21	2623.45
625.40	2818.00
625.59	2928.60
625.78	2695.13
625.97	2748.37
626.16	2883.54
626.35	2897.88
626.54	2727.89
626.74	2887.64
626.93	2686.94
627.12	2725.85
627.31	2766.81
627.50	2678.74
627.69	2865.11
627.88	2658.26
628.07	2619.35
628.26	2559.96
628.45	2656.22
628.64	2600.92
628.83	2643.93
629.02	2516.95
629.21	2803.67
629.40	2815.96
629.59	2602.97
629.78	2645.98
629.97	2721.75
630.16	2752.47
630.35	2709.46
630.54	2736.09
630.73	2568.15
630.92	2650.07
631.11	2553.82
631.30	2674.65
631.49	2815.96
631.68	2779.09
631.87	2701.27
632.06	2557.91
632.25	3100.62
632.44	2742.23
632.63	2725.85
632.82	2658.26
633.01	2605.02
633.20	2863.06
633.39	2629.59
633.58	2471.90
633.77	2797.53
633.96	2793.43
634.15	2721.75
634.34	2799.57
634.53	2811.86
634.72	2668.50
634.91	2568.15
635.10	2711.51
635.29	2875.35
635.48	2691.03
635.67	2605.02
635.86	2451.42
636.05	2861.01
636.24	2770.90
636.43	2701.27
636.62	2754.52
636.81	2351.07
637.00	2756.57
637.19	2686.94
637.38	2652.12
637.57	2693.08
637.76	2799.57
637.95	2725.85
638.14	2682.84
638.33	2748.37
638.52	2734.04
638.71	2574.30
638.89	2504.67
639.08	3162.06
639.27	2951.12
639.46	2875.35
639.65	3180.50
639.84	3252.17
640.03	3207.12
640.22	3026.90
640.41	3088.34
640.60	2756.57
640.79	2858.96
640.98	2803.67
641.17	2830.29
641.36	2961.36
641.55	2885.59
641.74	2600.92
641.92	2584.54
642.11	2623.45
642.30	2621.40
642.49	2600.92
642.68	2602.97
642.87	2805.72
643.06	2783.19
643.25	2602.97
643.44	2527.19
643.63	2637.78
643.82	2846.68
644.00	2592.73
644.19	2688.98
644.38	2578.39
644.57	2822.10
644.76	2693.08
644.95	2729.94
645.14	2678.74
645.33	2607.06
645.52	2643.93
645.71	2480.09
645.89	2441.18
646.08	2723.80
646.27	2602.97
646.46	2914.26
646.65	2502.62
646.84	2768.85
647.03	2619.35
647.22	2770.90
647.40	2736.09
647.59	2578.39
647.78	2441.18
647.97	2555.86
648.16	2596.82
648.35	2957.27
648.54	2858.96
648.73	2734.04
648.91	2850.77
649.10	2713.56
649.29	2639.83
649.48	2600.92
649.67	2840.53
649.86	2793.43
650.05	2641.88
650.23	2799.57
650.42	2695.13
650.61	2883.54
650.80	2863.06
650.99	2914.26
651.18	2858.96
651.36	2918.36
651.55	2635.74
651.74	2740.18
651.93	2824.15
652.12	2658.26
652.31	2742.23
652.49	2600.92
652.68	2658.26
652.87	2949.08
653.06	2777.05
653.25	2891.73
653.44	2678.74
653.62	2914.26
653.81	2703.32
654.00	2701.27
654.19	2799.57
654.38	3094.48
654.56	2693.08
654.75	2684.89
654.94	2906.07
655.13	2758.61
655.32	2654.17
655.51	2746.33
655.69	2666.46
655.88	2813.91
656.07	2531.29
656.26	2719.70
656.45	2588.63
656.63	2744.28
656.82	2721.75
657.01	2856.92
657.20	2662.36
657.38	2957.27
657.57	2693.08
657.76	2527.19
657.95	2889.68
658.14	2674.65
658.32	2709.46
658.51	2519.00
658.70	2738.13
658.89	2801.62
659.08	2705.37
659.26	2865.11
659.45	2596.82
659.64	2834.39
659.83	2680.79
660.01	3012.56
660.20	2822.10
660.39	2973.65
660.58	2457.56
660.76	2654.17
660.95	2492.38
661.14	2795.48
661.33	2537.43
661.51	2637.78
661.70	2705.37
661.89	2820.05
662.08	2721.75
662.26	2547.67
662.45	2529.24
662.64	3055.57
662.83	2768.85
663.01	2543.58
663.20	2631.64
663.39	2920.40
663.58	2627.54
663.76	2555.86
663.95	2836.44
664.14	2498.52
664.32	2695.13
664.51	2562.01
664.70	2529.24
664.89	2858.96
665.07	2568.15
665.26	2766.81
665.45	2611.16
665.64	2813.91
665.82	2666.46
666.01	2793.43
666.20	2494.43
666.38	2861.01
666.57	2863.06
666.76	4300.73
666.95	10071.91
667.13	17024.76
667.32	21003.97
667.51	23905.94
667.69	25210.50
667.88	21483.19
668.07	15343.38
668.25	12824.38
668.44	11155.29
668.63	9445.23
668.81	8517.50
669.00	7167.89
669.19	6506.40
669.38	5746.60
669.56	4874.17
669.75	4216.77
669.94	3692.49
670.12	3311.57
670.31	2992.08
670.50	2854.87
670.68	2842.58
670.87	2805.72
671.06	2588.63
671.24	2748.37
671.43	2957.27
671.62	2809.81
671.80	2672.60
671.99	2688.98
672.18	2785.24
672.36	2824.15
672.55	2748.37
672.74	2705.37
672.92	2635.74
673.11	2818.00
673.29	2533.34
673.48	2785.24
673.67	2711.51
673.85	2877.40
674.04	2570.20
674.23	2740.18
674.41	2998.23
674.60	2578.39
674.79	2488.28
674.97	2498.52
675.16	2824.15
675.34	2875.35
675.53	2602.97
675.72	2725.85
675.90	2977.75
676.09	2615.26
676.28	2688.98
676.46	2502.62
676.65	2873.30
676.83	2559.96
677.02	2602.97
677.21	2592.73
677.39	2711.51
677.58	2598.87
677.77	2639.83
677.95	2588.63
678.14	2666.46
678.32	2676.70
678.51	2621.40
678.70	2983.89
678.88	2645.98
679.07	2717.65
679.25	2670.55
679.44	2629.59
679.63	2564.06
679.81	2764.76
680.00	2861.01
680.18	2740.18
680.37	2897.88
680.55	2762.71
680.74	2547.67
680.93	2420.70
681.11	2768.85
681.30	2686.94
681.48	2666.46
681.67	2664.41
681.85	2830.29
682.04	2619.35
682.23	2760.66
682.41	2738.13
682.60	2695.13
682.78	2701.27
682.97	2631.64
683.15	2664.41
683.34	2701.27
683.53	2981.84
683.71	2441.18
683.90	2775.00
684.08	2994.13
684.27	2701.27
684.45	2613.21
684.64	2779.09
684.82	2721.75
685.01	2762.71
685.19	2672.60
685.38	2938.84
685.57	2752.47
685.75	2602.97
685.94	2605.02
686.12	2592.73
686.31	2633.69
686.49	2893.78
686.68	2465.75
686.86	2697.17
687.05	2762.71
687.23	2924.50
687.42	2629.59
687.60	2455.51
687.79	2897.88
687.97	2901.97
688.16	2832.34
688.34	2879.44
688.53	2453.47
688.71	2801.62
688.90	2842.58
689.08	2631.64
689.27	2453.47
689.45	2887.64
689.64	2762.71
689.82	2793.43
690.01	2795.48
690.19	2770.90
690.38	2750.42
690.56	2793.43
690.75	2643.93
690.93	2607.06
691.12	2598.87
691.30	2703.32
691.49	2557.91
691.67	2723.80
691.86	2893.78
692.04	2602.97
692.23	2715.61
692.41	2721.75
692.60	2981.84
692.78	2848.72
692.97	2678.74
693.15	2793.43
693.34	2908.12
693.52	2858.96
693.71	2654.17
693.89	2721.75
694.08	2480.09
694.26	2777.05
694.44	2852.82
694.63	2805.72
694.81	2568.15
695.00	2621.40
695.18	2836.44
695.37	3137.49
695.55	2764.76
695.74	2734.04
695.92	2645.98
696.10	2949.08
696.29	2555.86
696.47	2600.92
696.66	2625.50
696.84	2557.91
697.03	2664.41
697.21	2936.79
697.40	4018.11
697.58	2895.83
697.76	2605.02
697.95	2654.17
698.13	2584.54
698.32	2662.36
698.50	2709.46
698.68	2711.51
698.87	2752.47
699.05	2961.36
699.24	2648.02
699.42	2514.91
699.61	2715.61
699.79	2729.94
699.97	2662.36
700.16	2527.19
700.34	2490.33
700.53	2711.51
700.71	2834.39
700.89	2836.44
701.08	2686.94
701.26	2768.85
701.45	3100.62
701.63	2574.30
701.81	2695.13
702.00	2607.06
702.18	2664.41
702.37	2701.27
702.55	2906.07
702.73	2887.64
702.92	2742.23
703.10	2910.16
703.28	2924.50
703.47	2564.06
703.65	2809.81
703.84	2869.20
704.02	2674.65
704.20	2938.84
704.39	2576.34
704.57	2648.02
704.75	2801.62
704.94	2760.66
705.12	2842.58
705.30	3108.82
705.49	5918.63
705.67	11796.30
705.86	17735.41
706.04	20491.98
706.22	22859.43
706.41	22591.14
706.59	17846.00
706.77	13207.35
706.96	11480.91
707.14	10346.34
707.32	8916.86
707.51	7958.41
707.69	6537.12
707.87	5423.02
708.06	4407.23
708.24	3887.04
708.42	3448.78
708.61	3456.97
708.79	2779.09
708.97	2805.72
709.16	2871.25
709.34	2736.09
709.52	2656.22
709.71	2680.79
709.89	2775.00
710.07	2656.22
710.26	2500.57
710.44	2674.65
710.62	2789.33
710.80	2742.23
710.99	2840.53
711.17	2924.50
711.35	2715.61
711.54	2629.59
711.72	2777.05
711.90	2838.48
712.09	2775.00
712.27	2613.21
712.45	2815.96
712.63	2656.22
712.82	2721.75
713.00	2666.46
713.18	2791.38
713.37	2850.77
713.55	2824.15
713.73	2750.42
713.91	2693.08
714.10	2600.92
714.28	2715.61
714.46	2770.90
714.65	2686.94
714.83	2805.72
715.01	2695.13
715.19	2688.98
715.38	2545.63
715.56	2746.33
715.74	2738.13
715.92	2605.02
716.11	2873.30
716.29	2404.32
716.47	2787.29
716.65	2723.80
716.84	2529.24
717.02	2740.18
717.20	2535.39
717.38	2650.07
717.57	2703.32
717.75	2672.60
717.93	2731.99
718.11	2742.23
718.30	2533.34
718.48	2686.94
718.66	2881.49
718.84	2928.60
719.03	2656.22
719.21	2547.67
719.39	3049.43
719.57	2826.20
719.75	2826.20
719.94	2555.86
720.12	2691.03
720.30	2750.42
720.48	2676.70
720.67	2645.98
720.85	2613.21
721.03	2635.74
721.21	2543.58
721.39	2830.29
721.58	2856.92
721.76	2799.57
721.94	2707.41
722.12	2766.81
722.30	2912.21
722.49	2645.98
722.67	2723.80
722.85	2734.04
723.03	2527.19
723.21	2670.55
723.40	2691.03
723.58	2858.96
723.76	2723.80
723.94	2869.20
724.12	2756.57
724.30	2906.07
724.49	2803.67
724.67	2605.02
724.85	2760.66
725.03	2543.58
725.21	2797.53
725.40	2867.16
725.58	2574.30
725.76	2781.14
725.94	2779.09
726.12	2574.30
726.30	2676.70
726.49	2723.80
726.67	2650.07
726.85	2869.20
727.03	3153.87
727.21	4081.60
727.39	5205.94
727.57	5701.54
727.76	6127.52
727.94	6168.48
728.12	5586.86
728.30	4509.63
728.48	4247.49
728.66	4014.02
728.84	3682.25
729.03	3350.48
729.21	3176.40
729.39	3030.99
729.57	2734.04
729.75	2871.25
729.93	2772.95
730.11	2650.07
730.30	2578.39
730.48	2742.23
730.66	2865.11
730.84	2793.43
731.02	2832.34
731.20	2656.22
731.38	2768.85
731.56	2551.77
731.74	2500.57
731.93	2734.04
732.11	2772.95
732.29	2582.49
732.47	2867.16
732.65	2746.33
732.83	2871.25
733.01	2715.61
733.19	2641.88
733.37	2842.58
733.56	2701.27
733.74	2656.22
733.92	2930.64
734.10	2547.67
734.28	2758.61
734.46	2514.91
734.64	2627.54
734.82	2729.94
735.00	2588.63
735.18	2641.88
735.36	2727.89
735.54	2705.37
735.73	2607.06
735.91	2822.10
736.09	2889.68
736.27	2750.42
736.45	2740.18
736.63	2445.27
736.81	2693.08
736.99	2760.66
737.17	2815.96
737.35	2609.11
737.53	2795.48
737.71	2648.02
737.89	2803.67
738.07	2568.15
738.25	2629.59
738.43	2553.82
738.61	2662.36
738.80	2512.86
738.98	2566.10
739.16	2611.16
739.34	2660.31
739.52	2936.79
739.70	2674.65
739.88	2807.77
740.06	2858.96
740.24	2381.79
740.42	2889.68
740.60	2449.37
740.78	2664.41
740.96	2416.60
741.14	2643.93
741.32	2691.03
741.50	2490.33
741.68	2924.50
741.86	2895.83
742.04	2543.58
742.22	2615.26
742.40	2695.13
742.58	2750.42
742.76	2605.02
742.94	2842.58
743.12	2441.18
743.30	2695.13
743.48	2858.96
743.66	2578.39
743.84	2764.76
744.02	2777.05
744.20	2705.37
744.38	2574.30
744.56	2508.76
744.74	2971.60
744.92	2717.65
745.10	2891.73
745.28	2734.04
745.46	2981.84
745.64	2635.74
745.82	2731.99
746.00	2666.46
746.18	2785.24
746.36	2627.54
746.54	2703.32
746.72	2656.22
746.90	2639.83
747.08	2910.16
747.26	2641.88
747.44	2775.00
747.62	2826.20
747.80	2783.19
747.98	2691.03
748.15	2586.58
748.33	2916.31
748.51	2779.09
748.69	2738.13
748.87	2516.95
749.05	2666.46
749.23	2664.41
749.41	2719.70
749.59	2564.06
749.77	2869.20
749.95	2584.54
750.13	2609.11
750.31	2709.46
750.49	2709.46
750.67	2848.72
750.85	2797.53
751.03	2791.38
751.20	3012.56
751.38	2697.17
751.56	2600.92
751.74	2633.69
751.92	2688.98
752.10	2533.34
752.28	2758.61
752.46	2652.12
752.64	2756.57
752.82	2668.50
753.00	2834.39
753.18	2613.21
753.35	2682.84
753.53	2691.03
753.71	2652.12
753.89	2846.68
754.07	2736.09
754.25	2889.68
754.43	2787.29
754.61	2562.01
754.79	2781.14
754.97	2627.54
755.14	2856.92
755.32	2430.94
755.50	2756.57
755.68	2838.48
755.86	2602.97
756.04	2670.55
756.22	2492.38
756.40	2813.91
756.57	2881.49
756.75	2643.93
756.93	2865.11
757.11	2852.82
757.29	2527.19
757.47	2611.16
757.65	2473.95
757.82	2457.56
758.00	2580.44
758.18	2586.58
758.36	2576.34
758.54	3063.76
758.72	2492.38
758.90	2889.68
759.07	2760.66
759.25	2564.06
759.43	2693.08
759.61	2527.19
759.79	3921.86
759.97	2803.67
760.15	2703.32
760.32	2682.84
760.50	2693.08
760.68	2920.40
760.86	2562.01
761.04	2822.10
761.22	2889.68
761.39	2740.18
761.57	2768.85
761.75	2584.54
761.93	2801.62
762.11	2680.79
762.28	2797.53
762.46	2615.26
762.64	2822.10
762.82	2537.43
763.00	2666.46
763.18	2793.43
763.35	2496.47
763.53	2740.18
763.71	2707.41
763.89	2633.69
764.07	2748.37
764.24	2785.24
764.42	2766.81
764.60	2691.03
764.78	2719.70
764.96	2904.02
765.13	2766.81
765.31	2637.78
765.49	2809.81
765.67	2510.81
765.84	2615.26
766.02	2553.82
766.20	2545.63
766.38	2762.71
766.56	2734.04
766.73	2750.42
766.91	2711.51
767.09	2670.55
767.27	2801.62
767.44	2619.35
767.62	2793.43
767.80	2719.70
767.98	2588.63
768.15	2607.06
768.33	2799.57
768.51	2813.91
768.69	2854.87
768.87	2740.18
769.04	2734.04
769.22	3108.82
769.40	2766.81
769.58	2834.39
769.75	2742.23
769.93	2936.79
770.11	2682.84
770.28	2596.82
770.46	2809.81
770.64	2785.24
770.82	2680.79
770.99	2629.59
771.17	2805.72
771.35	2627.54
771.53	2678.74
771.70	2596.82
771.88	2731.99
772.06	2746.33
772.23	2666.46
772.41	2738.13
772.59	2709.46
772.77	2523.10
772.94	2590.68
773.12	2682.84
773.30	2688.98
773.47	2746.33
773.65	2596.82
773.83	2760.66
774.01	2752.47
774.18	2494.43
774.36	2719.70
774.54	2527.19
774.71	2852.82
774.89	2502.62
775.07	2545.63
775.24	2615.26
775.42	2600.92
775.60	2981.84
775.78	2521.05
775.95	2494.43
776.13	2516.95
776.31	2439.13
776.48	2709.46
776.66	2791.38
776.84	2621.40
777.01	2613.21
777.19	2619.35
777.37	2602.97
777.54	2856.92
777.72	2932.69
777.90	2760.66
778.07	2580.44
778.25	3170.26
778.43	2856.92
778.60	2570.20
778.78	2721.75
778.96	2842.58
779.13	2621.40
779.31	2727.89
779.49	2725.85
779.66	2699.22
779.84	2719.70
780.01	2613.21
780.19	2512.86
780.37	2916.31
780.54	2858.96
780.72	2519.00
780.90	2625.50
781.07	2662.36
781.25	2607.06
781.43	2852.82
781.60	2686.94
781.78	2936.79
781.95	2752.47
782.13	2523.10
782.31	2629.59
782.48	2375.64
782.66	2717.65
782.83	2926.55
783.01	2707.41
783.19	2881.49
783.36	2629.59
783.54	2613.21
783.72	2738.13
783.89	2666.46
784.07	2727.89
784.24	2723.80
784.42	2756.57
784.60	2791.38
784.77	2805.72
784.95	2478.04
785.12	2664.41
785.30	2760.66
785.47	2584.54
785.65	2529.24
785.83	2719.70
786.00	2629.59
786.18	2744.28
786.35	2512.86
786.53	2559.96
786.71	2838.48
786.88	2787.29
787.06	2760.66
787.23	2582.49
787.41	2512.86
787.58	2684.89
787.76	2553.82
787.94	2684.89
788.11	2701.27
788.29	2525.15
788.46	2635.74
788.64	2484.19
788.81	2605.02
788.99	2553.82
789.16	2508.76
789.34	2688.98
789.52	2695.13
789.69	2723.80
789.87	2463.71
790.04	2650.07
790.22	2666.46
790.39	3061.71
790.57	2580.44
790.74	2547.67
790.92	2840.53
791.09	2521.05
791.27	2744.28
791.44	2723.80
791.62	2719.70
791.79	2783.19
791.97	2727.89
792.15	2998.23
792.32	2879.44
792.50	2766.81
792.67	2779.09
792.85	2842.58
793.02	2641.88
793.20	2676.70
793.37	2531.29
793.55	2613.21
793.72	2525.15
793.90	2723.80
794.07	2551.77
794.25	2574.30
794.42	2801.62
794.60	2641.88
794.77	2691.03
794.95	2746.33
795.12	2805.72
795.30	2688.98
795.47	2469.85
795.65	2977.75
795.82	2742.23
796.00	2596.82
796.17	2686.94
796.34	2596.82
796.52	2783.19
796.69	2766.81
796.87	2772.95
797.04	2754.52
797.22	2846.68
797.39	2795.48
797.57	2795.48
797.74	2711.51
797.92	2781.14
798.09	2633.69
798.27	2867.16
798.44	2680.79
798.62	2543.58
798.79	2766.81
798.96	2744.28
799.14	2703.32
799.31	3096.53
799.49	2680.79
799.66	2637.78
799.84	2715.61
800.01	2496.47
800.19	2691.03
800.36	2510.81
800.53	2736.09
800.71	2871.25
800.88	2910.16
801.06	2584.54
801.23	2633.69
801.41	2650.07
801.58	2670.55
801.75	2621.40
801.93	2725.85
802.10	2922.45
802.28	2627.54
802.45	2605.02
802.63	2770.90
802.80	2971.60
802.97	2658.26
803.15	2693.08
803.32	2668.50
803.50	2637.78
803.67	2592.73
803.84	2514.91
804.02	2760.66
804.19	2678.74
804.37	2467.80
804.54	2480.09
804.71	2600.92
804.89	2805.72
805.06	2600.92
805.24	2590.68
805.41	2582.49
805.58	2592.73
805.76	3047.38
805.93	2654.17
806.10	2752.47
806.28	2775.00
806.45	2824.15
806.63	2754.52
806.80	2678.74
806.97	2764.76
807.15	2742.23
807.32	2736.09
807.49	2670.55
807.67	2650.07
807.84	2740.18
808.01	2514.91
808.19	2813.91
808.36	3004.37
808.54	2688.98
808.71	2607.06
808.88	2746.33
809.06	2899.92
809.23	3033.04
809.40	2613.21
809.58	2650.07
809.75	2668.50
809.92	2537.43
810.10	2934.74
810.27	2670.55
810.44	2834.39
810.62	2738.13
810.79	2682.84
810.96	2566.10
811.14	2623.45
811.31	2789.33
811.48	2811.86
811.66	2674.65
811.83	2922.45
812.00	2762.71
812.18	2662.36
812.35	2932.69
812.52	2695.13
812.69	2611.16
812.87	2670.55
813.04	2533.34
813.21	2709.46
813.39	2650.07
813.56	2545.63
813.73	2820.05
813.91	2496.47
814.08	2818.00
814.25	2678.74
814.42	2506.71
814.60	2598.87
814.77	2729.94
814.94	2531.29
815.12	2711.51
815.29	2924.50
815.46	2641.88
815.63	2676.70
815.81	2680.79
815.98	2717.65
816.15	2609.11
816.33	2639.83
816.50	2639.83
816.67	2731.99
816.84	2725.85
817.02	2539.48
817.19	2574.30
817.36	2748.37
817.53	2777.05
817.71	2578.39
817.88	2693.08
818.05	2715.61
818.22	2617.30
818.40	2838.48
818.57	2725.85
818.74	2826.20
818.91	2670.55
819.09	2731.99
819.26	2705.37
819.43	2625.50
819.60	2635.74
819.78	2695.13
819.95	2760.66
820.12	2564.06
820.29	2914.26
820.47	2824.15
820.64	2506.71
820.81	2471.90
820.98	2498.52
821.15	2641.88
821.33	2766.81
821.50	2502.62
821.67	2789.33
821.84	2627.54
822.02	2711.51
822.19	2914.26
822.36	2664.41
822.53	2514.91
822.70	2512.86
822.88	2662.36
823.05	2938.84
823.22	2615.26
823.39	2693.08
823.56	2783.19
823.74	2959.31
823.91	2533.34
824.08	2545.63
824.25	2539.48
824.42	3020.75
824.60	2432.99
824.77	2635.74
824.94	2719.70
825.11	2803.67
825.28	2467.80
825.45	2744.28
825.63	2764.76
825.80	2480.09
825.97	2725.85
826.14	2680.79
826.31	2506.71
826.48	2766.81
826.66	2547.67
826.83	2686.94
827.00	2625.50
827.17	2654.17
827.34	2648.02
827.51	2619.35
827.69	2723.80
827.86	2486.23
828.03	2711.51
828.20	2697.17
828.37	2625.50
828.54	2758.61
828.71	2562.01
828.89	2809.81
829.06	2729.94
829.23	2840.53
829.40	2617.30
829.57	2559.96
829.74	2775.00
829.91	2715.61
830.09	2564.06
830.26	2654.17
830.43	2924.50
830.60	2691.03
830.77	2854.87
830.94	2828.24
831.11	2893.78
831.28	2746.33
831.46	2815.96
831.63	2611.16
831.80	2813.91
831.97	2607.06
832.14	2617.30
832.31	2775.00
832.48	2746.33
832.65	2848.72
832.82	2707.41
832.99	2748.37
833.17	2580.44
833.34	2936.79
833.51	2695.13
833.68	2459.61
833.85	2889.68
834.02	2592.73
834.19	2543.58
834.36	2568.15
834.53	2725.85
834.70	2920.40
834.87	2639.83
835.04	2574.30
835.22	2557.91
835.39	2678.74
835.56	2482.14
835.73	2586.58
835.90	2924.50
836.07	2523.10
836.24	2699.22
836.41	2547.67
836.58	2594.78
836.75	2840.53
836.92	2541.53
837.09	2619.35
837.26	2805.72
837.43	2797.53
837.60	2600.92
837.77	2543.58
837.94	2844.63
838.12	2891.73
838.29	2600.92
838.46	2424.80
838.63	2609.11
838.80	2969.55
838.97	2713.56
839.14	2576.34
839.31	2723.80
839.48	2924.50
839.65	2527.19
839.82	2695.13
839.99	2754.52
840.16	2719.70
840.33	2461.66
840.50	2631.64
840.67	2559.96
840.84	2389.98
841.01	2545.63
841.18	2521.05
841.35	2764.76
841.52	2871.25
841.69	2887.64
841.86	2637.78
842.03	2719.70
842.20	2813.91
842.37	2559.96
842.54	2588.63
842.71	2744.28
842.88	2465.75
843.05	2621.40
843.22	2439.13
843.39	2770.90
843.56	2537.43
843.73	2523.10
843.90	2611.16
844.07	2777.05
844.24	2877.40
844.41	2699.22
844.58	2598.87
844.75	2731.99
844.92	2758.61
845.09	2576.34
845.26	2484.19
845.43	2801.62
845.60	2639.83
845.77	2596.82
845.94	2629.59
846.10	2805.72
846.27	2512.86
846.44	2453.47
846.61	2504.67
846.78	2772.95
846.95	2828.24
847.12	2521.05
847.29	2566.10
847.46	2594.78
847.63	2850.77
847.80	2506.71
847.97	2545.63
848.14	3016.66
848.31	2725.85
848.48	2426.84
848.65	2607.06
848.82	2590.68
848.98	3024.85
849.15	2660.31
849.32	2656.22
849.49	2791.38
849.66	2684.89
849.83	2531.29
850.00	2441.18
850.17	2793.43
850.34	2693.08
850.51	2490.33
850.68	2576.34
850.85	2979.79
851.01	2742.23
851.18	2510.81
851.35	2562.01
851.52	2867.16
851.69	2893.78
851.86	2465.75
852.03	2521.05
852.20	2777.05
852.37	2738.13
852.53	2400.22
852.70	2551.77
852.87	2682.84
853.04	2789.33
853.21	2514.91
853.38	2779.09
853.55	2801.62
853.72	2832.34
853.89	2492.38
854.05	2471.90
854.22	2652.12
854.39	2744.28
854.56	2490.33
854.73	2668.50
854.90	2562.01
855.07	2695.13
855.23	2422.75
855.40	2539.48
855.57	2703.32
855.74	2408.41
855.91	2766.81
856.08	2471.90
856.25	2463.71
856.41	2584.54
856.58	2531.29
856.75	2582.49
856.92	2623.45
857.09	2807.77
857.26	2471.90
857.42	2584.54
857.59	2867.16
857.76	2662.36
857.93	2564.06
858.10	2621.40
858.27	2562.01
858.43	2717.65
858.60	2549.72
858.77	2396.12
858.94	2596.82
859.11	2891.73
859.27	2584.54
859.44	2512.86
859.61	3012.56
859.78	2791.38
859.95	2555.86
860.12	2492.38
860.28	3047.38
860.45	2983.89
860.62	2451.42
860.79	2648.02
860.95	2623.45
861.12	2557.91
861.29	2498.52
861.46	2570.20
861.63	2662.36
861.79	2693.08
861.96	2457.56
862.13	2621.40
862.30	2834.39
862.47	2633.69
862.63	2516.95
862.80	2629.59
862.97	2828.24
863.14	2750.42
863.30	2660.31
863.47	2506.71
863.64	2938.84
863.81	2654.17
863.97	2437.08
864.14	2648.02
864.31	2719.70
864.48	2705.37
864.65	2502.62
864.81	2715.61
864.98	2760.66
865.15	2856.92
865.32	2586.58
865.48	2645.98
865.65	2947.03
865.82	2602.97
865.98	2576.34
866.15	2674.65
866.32	2654.17
866.49	2688.98
866.65	2596.82
866.82	2539.48
866.99	2693.08
867.16	2656.22
867.32	2531.29
867.49	2449.37
867.66	2680.79
867.83	2707.41
867.99	2478.04
868.16	2537.43
868.33	2584.54
868.49	2717.65
868.66	2566.10
868.83	2648.02
868.99	2793.43
869.16	2729.94
869.33	2650.07
869.50	2572.25
869.66	2637.78
869.83	2650.07
870.00	2414.56
870.16	2695.13
870.33	2619.35
870.50	2836.44
870.66	2633.69
870.83	2633.69
871.00	2645.98
871.17	2803.67
871.33	2582.49
871.50	2516.95
871.67	2721.75
871.83	2617.30
872.00	2680.79
872.17	2523.10
872.33	2977.75
872.50	2832.34
872.67	2592.73
872.83	2555.86
873.00	2791.38
873.17	2701.27
873.33	2662.36
873.50	2580.44
873.67	2551.77
873.83	2631.64
874.00	2551.77
874.16	2748.37
874.33	2760.66
874.50	2519.00
874.66	2576.34
874.83	2676.70
875.00	2936.79
875.16	2863.06
875.33	2625.50
875.50	2365.40
875.66	2684.89
875.83	2766.81
875.99	2602.97
876.16	2621.40
876.33	2586.58
876.49	2715.61
876.66	2510.81
876.83	2559.96
876.99	2453.47
877.16	2691.03
877.32	2490.33
877.49	2516.95
877.66	2717.65
877.82	2895.83
877.99	2629.59
878.15	2709.46
878.32	2764.76
878.49	2783.19
878.65	2506.71
878.82	2772.95
878.98	2580.44
879.15	2822.10
879.32	2666.46
879.48	2768.85
879.65	2697.17
879.81	2605.02
879.98	2559.96
880.15	2576.34
880.31	2752.47
880.48	2613.21
880.64	2670.55
880.81	2742.23
880.97	2924.50
881.14	2811.86
881.31	2428.89
881.47	2734.04
881.64	2555.86
881.80	2506.71
881.97	2736.09
882.13	2549.72
882.30	2576.34
882.47	2609.11
882.63	2510.81
882.80	2582.49
882.96	2629.59
883.13	2891.73
883.29	2596.82
883.46	2545.63
883.62	3012.56
883.79	2750.42
883.95	2723.80
884.12	2578.39
884.29	2826.20
884.45	2719.70
884.62	2566.10
884.78	2529.24
884.95	2897.88
885.11	2662.36
885.28	2674.65
885.44	2613.21
885.61	2877.40
885.77	2947.03
885.94	2631.64
886.10	2617.30
886.27	2746.33
886.43	2983.89
886.60	2756.57
886.76	2562.01
886.93	2627.54
887.09	2736.09
887.26	2455.51
887.42	2580.44
887.59	2906.07
887.75	3108.82
887.92	2713.56
888.08	2668.50
888.25	2971.60
888.41	2863.06
888.58	2639.83
888.74	2467.80
888.91	2637.78
>>>>>End Processed Spectral Data<<<<<
