SpectraSuite Data File
++++++++++++++++++++++++++++++++++++
Date: Thu May 05 16:20:32 CEST 2016
User: root
Dark Spectrum Present: No
Reference Spectrum Present: No
Number of Sampled Component Spectra: 1
Spectrometers: USB4C02835
Integration Time (usec): 100000 (USB4C02835)
Spectra Averaged: 1 (USB4C02835)
Boxcar Smoothing: 0 (USB4C02835)
Correct for Electrical Dark: No (USB4C02835)
Strobe/Lamp Enabled: No (USB4C02835)
Correct for Detector Non-linearity: No (USB4C02835)
Correct for Stray Light: No (USB4C02835)
Number of Pixels in Processed Spectrum: 3648
>>>>>Begin Processed Spectral Data<<<<<
177.47	1990.63
177.69	1990.63
177.91	1990.63
178.13	2027.49
178.36	2142.18
178.58	2508.76
178.80	2748.37
179.02	2531.29
179.24	2576.34
179.46	2432.99
179.68	2566.10
179.90	2758.61
180.13	2697.17
180.35	2344.92
180.57	2519.00
180.79	2871.25
181.01	2772.95
181.23	2584.54
181.45	2699.22
181.67	2746.33
181.90	2885.59
182.12	2510.81
182.34	2389.98
182.56	2777.05
182.78	2762.71
183.00	2531.29
183.22	2504.67
183.44	2432.99
183.66	3061.71
183.89	2656.22
184.11	2607.06
184.33	2709.46
184.55	2852.82
184.77	2502.62
184.99	2510.81
185.21	2717.65
185.43	3071.95
185.65	2523.10
185.87	2496.47
186.10	3069.91
186.32	3055.57
186.54	2588.63
186.76	2641.88
186.98	2942.93
187.20	2664.41
187.42	2519.00
187.64	2506.71
187.86	2809.81
188.08	2828.24
188.30	2471.90
188.52	2551.77
188.75	2977.75
188.97	2934.74
189.19	2455.51
189.41	2510.81
189.63	2768.85
189.85	2625.50
190.07	2385.88
190.29	2359.26
190.51	2768.85
190.73	2582.49
190.95	2629.59
191.17	2537.43
191.39	2445.27
191.61	2658.26
191.84	2504.67
192.06	2549.72
192.28	2514.91
192.50	3252.17
192.72	2555.86
192.94	2529.24
193.16	2885.59
193.38	2871.25
193.60	2420.70
193.82	2654.17
194.04	2867.16
194.26	2750.42
194.48	2594.78
194.70	2523.10
194.92	2559.96
195.14	2799.57
195.36	2461.66
195.58	2621.40
195.80	2736.09
196.02	2600.92
196.24	2469.85
196.46	2576.34
196.69	2619.35
196.91	3037.14
197.13	2521.05
197.35	2523.10
197.57	2944.98
197.79	2775.00
198.01	2545.63
198.23	2504.67
198.45	2799.57
198.67	2557.91
198.89	2414.56
199.11	2623.45
199.33	2621.40
199.55	2428.89
199.77	2480.09
199.99	2637.78
200.21	2631.64
200.43	2830.29
200.65	2435.03
200.87	2322.40
201.09	2727.89
201.31	2686.94
201.53	2635.74
201.75	2535.39
201.97	2799.57
202.19	2721.75
202.41	2566.10
202.63	2709.46
202.85	2818.00
203.07	2807.77
203.29	2463.71
203.51	2424.80
203.73	2596.82
203.95	3104.72
204.17	2555.86
204.39	2598.87
204.61	2686.94
204.83	2686.94
205.05	2639.83
205.27	2533.34
205.49	3055.57
205.71	2670.55
205.93	2381.79
206.15	2453.47
206.37	2717.65
206.59	2731.99
206.81	2412.51
207.03	2473.95
207.25	2549.72
207.47	2834.39
207.69	2559.96
207.91	2750.42
208.13	2981.84
208.34	2650.07
208.56	2551.77
208.78	2539.48
209.00	2629.59
209.22	2580.44
209.44	2451.42
209.66	2516.95
209.88	2731.99
210.10	2605.02
210.32	2521.05
210.54	2633.69
210.76	2742.23
210.98	2881.49
211.20	2316.25
211.42	2551.77
211.64	2951.12
211.86	2850.77
212.08	2568.15
212.30	2523.10
212.52	2699.22
212.74	2699.22
212.96	2514.91
213.17	2637.78
213.39	2826.20
213.61	3004.37
213.83	2512.86
214.05	2416.60
214.27	2832.34
214.49	2588.63
214.71	2541.53
214.93	2625.50
215.15	2711.51
215.37	2854.87
215.59	2453.47
215.81	2564.06
216.03	2879.44
216.24	2715.61
216.46	2553.82
216.68	2512.86
216.90	2807.77
217.12	2873.30
217.34	2428.89
217.56	2668.50
217.78	2910.16
218.00	2854.87
218.22	2617.30
218.44	2670.55
218.66	2801.62
218.87	3010.51
219.09	2588.63
219.31	2494.43
219.53	2715.61
219.75	2699.22
219.97	2541.53
220.19	2541.53
220.41	2791.38
220.63	3041.23
220.85	2568.15
221.06	2543.58
221.28	2920.40
221.50	2789.33
221.72	2506.71
221.94	2451.42
222.16	2760.66
222.38	2815.96
222.60	2576.34
222.82	2541.53
223.03	2820.05
223.25	2519.00
223.47	2463.71
223.69	2691.03
223.91	2852.82
224.13	2791.38
224.35	2400.22
224.57	2707.41
224.78	2805.72
225.00	2602.97
225.22	2514.91
225.44	2525.15
225.66	2877.40
225.88	2525.15
226.10	2578.39
226.32	2463.71
226.53	2924.50
226.75	2613.21
226.97	2516.95
227.19	2562.01
227.41	2631.64
227.63	2654.17
227.85	2412.51
228.06	2529.24
228.28	2727.89
228.50	2912.21
228.72	2408.41
228.94	2516.95
229.16	2465.75
229.37	2588.63
229.59	2469.85
229.81	2658.26
230.03	2609.11
230.25	2457.56
230.47	2402.27
230.69	2504.67
230.90	2852.82
231.12	2574.30
231.34	2600.92
231.56	2572.25
231.78	2494.43
232.00	2748.37
232.21	2586.58
232.43	2494.43
232.65	2453.47
232.87	2766.81
233.09	2469.85
233.30	2480.09
233.52	2801.62
233.74	2684.89
233.96	2465.75
234.18	2736.09
234.40	2670.55
234.61	3016.66
234.83	2445.27
235.05	2492.38
235.27	3069.91
235.49	2957.27
235.70	2502.62
235.92	2602.97
236.14	2858.96
236.36	3096.53
236.58	2385.88
236.79	2539.48
237.01	2643.93
237.23	2697.17
237.45	2725.85
237.67	2500.57
237.88	2750.42
238.10	2983.89
238.32	2424.80
238.54	2451.42
238.76	2723.80
238.97	2580.44
239.19	2420.70
239.41	2602.97
239.63	2807.77
239.85	2625.50
240.06	2496.47
240.28	2475.99
240.50	2889.68
240.72	2727.89
240.93	2408.41
241.15	2602.97
241.37	2719.70
241.59	2947.03
241.81	2500.57
242.02	2627.54
242.24	2766.81
242.46	2815.96
242.68	2445.27
242.89	2471.90
243.11	2789.33
243.33	2637.78
243.55	2514.91
243.76	2576.34
243.98	2635.74
244.20	2680.79
244.42	2428.89
244.64	2621.40
244.85	2539.48
245.07	2688.98
245.29	2439.13
245.51	2613.21
245.72	2877.40
245.94	2863.06
246.16	2576.34
246.38	2545.63
246.59	2617.30
246.81	2674.65
247.03	2449.37
247.24	2387.93
247.46	2701.27
247.68	2760.66
247.90	2475.99
248.11	2496.47
248.33	2869.20
248.55	2711.51
248.77	2543.58
248.98	2592.73
249.20	2963.41
249.42	2766.81
249.64	2500.57
249.85	2428.89
250.07	2592.73
250.29	2822.10
250.50	2596.82
250.72	2400.22
250.94	2736.09
251.16	3004.37
251.37	2482.14
251.59	2631.64
251.81	2783.19
252.02	2985.94
252.24	2432.99
252.46	2627.54
252.68	2578.39
252.89	2576.34
253.11	2353.12
253.33	2682.84
253.54	2895.83
253.76	2523.10
253.98	2551.77
254.20	2404.32
254.41	2557.91
254.63	2729.94
254.85	2414.56
255.06	2504.67
255.28	2793.43
255.50	2637.78
255.71	2441.18
255.93	2410.46
256.15	2635.74
256.36	2746.33
256.58	2422.75
256.80	2551.77
257.02	2617.30
257.23	2623.45
257.45	2535.39
257.67	2645.98
257.88	2557.91
258.10	2756.57
258.32	2568.15
258.53	2559.96
258.75	2944.98
258.97	2645.98
259.18	2465.75
259.40	2533.34
259.62	2990.03
259.83	2863.06
260.05	2541.53
260.27	3121.10
260.48	2957.27
260.70	2617.30
260.92	2416.60
261.13	2521.05
261.35	2766.81
261.57	2822.10
261.78	2392.03
262.00	2432.99
262.22	2842.58
262.43	2621.40
262.65	2504.67
262.86	2574.30
263.08	3039.19
263.30	2723.80
263.51	2371.55
263.73	2551.77
263.95	2996.18
264.16	2611.16
264.38	2412.51
264.60	2506.71
264.81	2740.18
265.03	2908.12
265.25	2824.15
265.46	2490.33
265.68	2901.97
265.89	2877.40
266.11	2379.74
266.33	2582.49
266.54	2920.40
266.76	2854.87
266.98	2553.82
267.19	2625.50
267.41	2871.25
267.62	2684.89
267.84	2346.97
268.06	2594.78
268.27	2672.60
268.49	2912.21
268.70	2592.73
268.92	2570.20
269.14	2478.04
269.35	2584.54
269.57	2607.06
269.79	2611.16
270.00	2621.40
270.22	2944.98
270.43	2465.75
270.65	2342.88
270.87	2764.76
271.08	2820.05
271.30	2605.02
271.51	2502.62
271.73	2809.81
271.95	2869.20
272.16	2541.53
272.38	2623.45
272.59	2688.98
272.81	2824.15
273.02	2463.71
273.24	2545.63
273.46	2899.92
273.67	2441.18
273.89	2451.42
274.10	2428.89
274.32	2842.58
274.54	2785.24
274.75	2596.82
274.97	2598.87
275.18	2809.81
275.40	2772.95
275.61	2553.82
275.83	2605.02
276.05	2523.10
276.26	2654.17
276.48	2654.17
276.69	2590.68
276.91	2582.49
277.12	2924.50
277.34	2717.65
277.55	2711.51
277.77	2756.57
277.99	2664.41
278.20	2594.78
278.42	2447.32
278.63	2602.97
278.85	2529.24
279.06	2539.48
279.28	2664.41
279.49	2797.53
279.71	2787.29
279.93	2588.63
280.14	2682.84
280.36	2572.25
280.57	2869.20
280.79	2711.51
281.00	2500.57
281.22	2615.26
281.43	3006.42
281.65	2418.65
281.86	2516.95
282.08	2758.61
282.29	3000.27
282.51	2490.33
282.73	2594.78
282.94	2502.62
283.16	2799.57
283.37	2711.51
283.59	2572.25
283.80	2801.62
284.02	2666.46
284.23	2727.89
284.45	2631.64
284.66	2600.92
284.88	2576.34
285.09	2615.26
285.31	2738.13
285.52	2766.81
285.74	2469.85
285.95	2750.42
286.17	2584.54
286.38	2815.96
286.60	2617.30
286.81	2535.39
287.03	2568.15
287.24	2715.61
287.46	2826.20
287.67	2691.03
287.89	2863.06
288.10	2740.18
288.32	2709.46
288.53	2766.81
288.75	2568.15
288.96	2791.38
289.18	2678.74
289.39	2519.00
289.61	2658.26
289.82	3024.85
290.04	2969.55
290.25	2455.51
290.47	2611.16
290.68	2658.26
290.90	2846.68
291.11	2488.28
291.33	2709.46
291.54	2621.40
291.76	2643.93
291.97	2766.81
292.18	2760.66
292.40	2686.94
292.61	2662.36
292.83	2863.06
293.04	2688.98
293.26	2815.96
293.47	2691.03
293.69	2482.14
293.90	2531.29
294.12	2965.46
294.33	2764.76
294.55	2596.82
294.76	2752.47
294.97	2918.36
295.19	3024.85
295.40	2617.30
295.62	2766.81
295.83	2834.39
296.05	2629.59
296.26	2760.66
296.48	2615.26
296.69	2756.57
296.90	2725.85
297.12	2701.27
297.33	2740.18
297.55	2805.72
297.76	2775.00
297.98	2731.99
298.19	2684.89
298.41	2684.89
298.62	2584.54
298.83	2807.77
299.05	2672.60
299.26	2693.08
299.48	2645.98
299.69	2697.17
299.90	2658.26
300.12	2580.44
300.33	2854.87
300.55	2580.44
300.76	2682.84
300.98	2572.25
301.19	2809.81
301.40	2621.40
301.62	2537.43
301.83	2744.28
302.05	2738.13
302.26	2594.78
302.47	2623.45
302.69	2613.21
302.90	2676.70
303.12	2404.32
303.33	2738.13
303.54	3043.28
303.76	2619.35
303.97	2613.21
304.19	2826.20
304.40	2572.25
304.61	2785.24
304.83	2775.00
305.04	2734.04
305.26	2854.87
305.47	2660.31
305.68	2670.55
305.90	2471.90
306.11	2895.83
306.33	2686.94
306.54	2478.04
306.75	2578.39
306.97	2469.85
307.18	2516.95
307.39	2637.78
307.61	2744.28
307.82	2621.40
308.04	2756.57
308.25	2506.71
308.46	2703.32
308.68	2715.61
308.89	2727.89
309.10	2752.47
309.32	2680.79
309.53	2717.65
309.74	2785.24
309.96	2609.11
310.17	2693.08
310.39	2660.31
310.60	2850.77
310.81	2678.74
311.03	2418.65
311.24	2770.90
311.45	2645.98
311.67	2846.68
311.88	2688.98
312.09	2641.88
312.31	2648.02
312.52	2588.63
312.73	2529.24
312.95	2562.01
313.16	2582.49
313.37	2820.05
313.59	2662.36
313.80	2879.44
314.01	2949.08
314.23	2648.02
314.44	2541.53
314.65	2551.77
314.87	2621.40
315.08	2613.21
315.29	2553.82
315.51	2576.34
315.72	2500.57
315.93	2768.85
316.15	2641.88
316.36	2641.88
316.57	2680.79
316.79	2615.26
317.00	2629.59
317.21	2760.66
317.43	2570.20
317.64	2693.08
317.85	2572.25
318.07	2598.87
318.28	2723.80
318.49	2641.88
318.70	2887.64
318.92	2799.57
319.13	2914.26
319.34	2799.57
319.56	2668.50
319.77	2787.29
319.98	2869.20
320.20	2830.29
320.41	2699.22
320.62	2850.77
320.83	2525.15
321.05	2834.39
321.26	2623.45
321.47	2801.62
321.69	2879.44
321.90	2506.71
322.11	2535.39
322.32	2734.04
322.54	2912.21
322.75	2578.39
322.96	3123.15
323.18	2576.34
323.39	2494.43
323.60	2504.67
323.81	2709.46
324.03	2596.82
324.24	2682.84
324.45	2697.17
324.66	2576.34
324.88	2971.60
325.09	2944.98
325.30	2660.31
325.52	2588.63
325.73	2811.86
325.94	2555.86
326.15	2512.86
326.37	2551.77
326.58	2805.72
326.79	2940.88
327.00	2531.29
327.22	2549.72
327.43	2629.59
327.64	2494.43
327.85	2772.95
328.07	2678.74
328.28	2971.60
328.49	2654.17
328.70	2633.69
328.92	2617.30
329.13	2680.79
329.34	2734.04
329.55	2836.44
329.76	2787.29
329.98	2652.12
330.19	2920.40
330.40	2686.94
330.61	2688.98
330.83	2828.24
331.04	2549.72
331.25	2703.32
331.46	2582.49
331.68	2625.50
331.89	2932.69
332.10	2594.78
332.31	2455.51
332.52	2709.46
332.74	2899.92
332.95	2461.66
333.16	2615.26
333.37	2838.48
333.58	2643.93
333.80	2625.50
334.01	2420.70
334.22	2703.32
334.43	2564.06
334.64	2568.15
334.86	2559.96
335.07	2596.82
335.28	2930.64
335.49	2539.48
335.70	2680.79
335.92	2947.03
336.13	3082.19
336.34	2654.17
336.55	2660.31
336.76	2850.77
336.98	2494.43
337.19	2621.40
337.40	2783.19
337.61	3059.67
337.82	2701.27
338.04	2725.85
338.25	2398.17
338.46	2674.65
338.67	2590.68
338.88	2555.86
339.09	2506.71
339.31	2641.88
339.52	2486.23
339.73	2502.62
339.94	2619.35
340.15	2801.62
340.36	2682.84
340.58	2535.39
340.79	2553.82
341.00	2815.96
341.21	2572.25
341.42	2744.28
341.63	2570.20
341.85	2957.27
342.06	2781.14
342.27	2525.15
342.48	2723.80
342.69	2475.99
342.90	2824.15
343.12	2865.11
343.33	2533.34
343.54	2893.78
343.75	2865.11
343.96	2658.26
344.17	2504.67
344.38	2658.26
344.60	2605.02
344.81	2615.26
345.02	2596.82
345.23	2922.45
345.44	3022.80
345.65	2684.89
345.86	2695.13
346.07	2793.43
346.29	2643.93
346.50	2725.85
346.71	2734.04
346.92	2983.89
347.13	3053.52
347.34	2652.12
347.55	2547.67
347.76	2822.10
347.98	2506.71
348.19	2666.46
348.40	2693.08
348.61	2748.37
348.82	3037.14
349.03	2709.46
349.24	2555.86
349.45	3045.33
349.66	2447.32
349.88	2588.63
350.09	2621.40
350.30	2922.45
350.51	2797.53
350.72	2660.31
350.93	2658.26
351.14	2629.59
351.35	2789.33
351.56	2693.08
351.77	2617.30
351.99	2768.85
352.20	2875.35
352.41	2795.48
352.62	2469.85
352.83	2656.22
353.04	2748.37
353.25	2586.58
353.46	2656.22
353.67	2824.15
353.88	2430.94
354.09	2535.39
354.30	2650.07
354.52	2840.53
354.73	2725.85
354.94	2613.21
355.15	2654.17
355.36	3039.19
355.57	2605.02
355.78	2607.06
355.99	2539.48
356.20	2654.17
356.41	2920.40
356.62	2592.73
356.83	2623.45
357.04	2981.84
357.25	2498.52
357.46	2580.44
357.68	2406.36
357.89	2645.98
358.10	2693.08
358.31	2666.46
358.52	2664.41
358.73	2572.25
358.94	2555.86
359.15	2574.30
359.36	2645.98
359.57	2664.41
359.78	2656.22
359.99	2762.71
360.20	2582.49
360.41	2684.89
360.62	2813.91
360.83	2697.17
361.04	2631.64
361.25	2795.48
361.46	2994.13
361.67	2752.47
361.88	2629.59
362.09	2875.35
362.30	2775.00
362.51	2514.91
362.72	2682.84
362.93	2842.58
363.14	2920.40
363.35	2703.32
363.56	2496.47
363.78	2920.40
363.99	2858.96
364.20	2551.77
364.41	2691.03
364.62	3069.91
364.83	2809.81
365.04	2623.45
365.25	2645.98
365.46	3035.09
365.67	2598.87
365.88	2650.07
366.09	2555.86
366.30	2668.50
366.51	2715.61
366.72	2523.10
366.93	2682.84
367.14	2656.22
367.35	2914.26
367.56	2557.91
367.77	2701.27
367.98	2756.57
368.18	2797.53
368.39	2691.03
368.60	2623.45
368.81	2762.71
369.02	2805.72
369.23	2619.35
369.44	2457.56
369.65	2631.64
369.86	2777.05
370.07	2691.03
370.28	2547.67
370.49	2742.23
370.70	2811.86
370.91	2521.05
371.12	2469.85
371.33	2908.12
371.54	2605.02
371.75	2727.89
371.96	2377.69
372.17	2779.09
372.38	2715.61
372.59	2658.26
372.80	2592.73
373.01	2678.74
373.22	2797.53
373.43	2621.40
373.64	2467.80
373.85	2944.98
374.06	2990.03
374.26	2775.00
374.47	2731.99
374.68	2883.54
374.89	2785.24
375.10	2629.59
375.31	2713.56
375.52	2826.20
375.73	2772.95
375.94	2531.29
376.15	2750.42
376.36	2602.97
376.57	2631.64
376.78	2584.54
376.99	2633.69
377.20	2889.68
377.40	2750.42
377.61	2863.06
377.82	2562.01
378.03	2828.24
378.24	2777.05
378.45	2668.50
378.66	2605.02
378.87	2559.96
379.08	2514.91
379.29	2586.58
379.50	2848.72
379.71	2727.89
379.91	2856.92
380.12	2662.36
380.33	2668.50
380.54	2652.12
380.75	2699.22
380.96	2664.41
381.17	2775.00
381.38	2676.70
381.59	2703.32
381.80	2660.31
382.00	2840.53
382.21	2824.15
382.42	2930.64
382.63	2938.84
382.84	2705.37
383.05	2879.44
383.26	3035.09
383.47	2703.32
383.68	2645.98
383.88	2809.81
384.09	2650.07
384.30	2844.63
384.51	2752.47
384.72	2643.93
384.93	2508.76
385.14	2684.89
385.35	2760.66
385.55	2471.90
385.76	2869.20
385.97	2607.06
386.18	2516.95
386.39	2557.91
386.60	2639.83
386.81	2607.06
387.02	2498.52
387.22	2533.34
387.43	2930.64
387.64	2674.65
387.85	2840.53
388.06	2887.64
388.27	3895.24
388.48	7460.75
388.68	11106.13
388.89	13336.37
389.10	14262.05
389.31	13874.99
389.52	10954.58
389.73	9314.16
389.93	8601.47
390.14	7831.43
390.35	6909.85
390.56	6307.74
390.77	5298.10
390.98	4061.12
391.18	3493.83
391.39	3094.48
391.60	2736.09
391.81	2848.72
392.02	2682.84
392.23	3047.38
392.43	2748.37
392.64	2709.46
392.85	2699.22
393.06	2977.75
393.27	2734.04
393.47	2613.21
393.68	2658.26
393.89	2744.28
394.10	2922.45
394.31	2602.97
394.52	2602.97
394.72	2682.84
394.93	2883.54
395.14	2643.93
395.35	2713.56
395.56	2641.88
395.76	2777.05
395.97	2633.69
396.18	2770.90
396.39	2713.56
396.60	3239.89
396.80	2975.70
397.01	2775.00
397.22	2914.26
397.43	2928.60
397.64	2625.50
397.84	2627.54
398.05	3006.42
398.26	2758.61
398.47	2783.19
398.67	2799.57
398.88	2734.04
399.09	2820.05
399.30	2508.76
399.51	2738.13
399.71	2570.20
399.92	2707.41
400.13	2717.65
400.34	2602.97
400.54	2662.36
400.75	2928.60
400.96	2668.50
401.17	2889.68
401.37	2799.57
401.58	2727.89
401.79	2596.82
402.00	2789.33
402.21	3172.30
402.41	2930.64
402.62	2883.54
402.83	3010.51
403.04	3096.53
403.24	3340.24
403.45	2686.94
403.66	2891.73
403.87	2844.63
404.07	2957.27
404.28	2877.40
404.49	2998.23
404.70	2680.79
404.90	2785.24
405.11	2611.16
405.32	2731.99
405.52	2631.64
405.73	2682.84
405.94	2637.78
406.15	2691.03
406.35	2805.72
406.56	2881.49
406.77	2736.09
406.98	2650.07
407.18	2650.07
407.39	2904.02
407.60	2588.63
407.80	2707.41
408.01	2576.34
408.22	2746.33
408.43	2516.95
408.63	2711.51
408.84	2787.29
409.05	2836.44
409.25	2547.67
409.46	2598.87
409.67	2670.55
409.88	2660.31
410.08	2731.99
410.29	2641.88
410.50	2854.87
410.70	2703.32
410.91	2523.10
411.12	2703.32
411.32	2721.75
411.53	2582.49
411.74	2691.03
411.95	2727.89
412.15	2744.28
412.36	2805.72
412.57	2750.42
412.77	2942.93
412.98	2637.78
413.19	2568.15
413.39	2695.13
413.60	2621.40
413.81	2836.44
414.01	2559.96
414.22	2709.46
414.43	2725.85
414.63	2705.37
414.84	2854.87
415.05	2676.70
415.25	2447.32
415.46	2791.38
415.67	2576.34
415.87	2703.32
416.08	2639.83
416.29	2721.75
416.49	2805.72
416.70	2611.16
416.91	2609.11
417.11	2793.43
417.32	2842.58
417.53	2756.57
417.73	2731.99
417.94	2740.18
418.15	2709.46
418.35	2717.65
418.56	2621.40
418.77	3041.23
418.97	2666.46
419.18	2772.95
419.38	2400.22
419.59	2709.46
419.80	2897.88
420.00	2594.78
420.21	2623.45
420.42	2889.68
420.62	2775.00
420.83	2650.07
421.04	2631.64
421.24	2731.99
421.45	2764.76
421.65	2719.70
421.86	2650.07
422.07	2807.77
422.27	2822.10
422.48	2562.01
422.69	2459.61
422.89	2768.85
423.10	2703.32
423.30	2523.10
423.51	2695.13
423.72	2750.42
423.92	2779.09
424.13	2539.48
424.33	2686.94
424.54	2854.87
424.75	2717.65
424.95	2861.01
425.16	2619.35
425.36	2709.46
425.57	2906.07
425.78	2744.28
425.98	2869.20
426.19	2736.09
426.39	2592.73
426.60	2756.57
426.81	2715.61
427.01	2770.90
427.22	2588.63
427.42	2404.32
427.63	2590.68
427.83	2858.96
428.04	3002.32
428.25	2744.28
428.45	2695.13
428.66	2834.39
428.86	2631.64
429.07	2670.55
429.28	2672.60
429.48	2709.46
429.69	2660.31
429.89	2760.66
430.10	2514.91
430.30	2875.35
430.51	2840.53
430.71	2623.45
430.92	2656.22
431.13	2705.37
431.33	2850.77
431.54	2723.80
431.74	2836.44
431.95	3108.82
432.15	2639.83
432.36	2635.74
432.56	2760.66
432.77	3037.14
432.98	3026.90
433.18	2734.04
433.39	2568.15
433.59	2721.75
433.80	3057.62
434.00	2818.00
434.21	2660.31
434.41	2627.54
434.62	3024.85
434.82	2582.49
435.03	2588.63
435.23	2768.85
435.44	2455.51
435.64	2658.26
435.85	2736.09
436.06	2811.86
436.26	2871.25
436.47	2637.78
436.67	2611.16
436.88	2746.33
437.08	2858.96
437.29	2783.19
437.49	2711.51
437.70	3000.27
437.90	2666.46
438.11	2928.60
438.31	2725.85
438.52	2920.40
438.72	2912.21
438.93	2938.84
439.13	2662.36
439.34	2856.92
439.54	2684.89
439.75	2711.51
439.95	2758.61
440.16	2580.44
440.36	2734.04
440.57	2621.40
440.77	2607.06
440.98	2754.52
441.18	2785.24
441.39	2650.07
441.59	2529.24
441.80	3071.95
442.00	2801.62
442.21	2758.61
442.41	2533.34
442.62	2867.16
442.82	2674.65
443.02	2623.45
443.23	2697.17
443.43	2668.50
443.64	2867.16
443.84	2576.34
444.05	2756.57
444.25	2662.36
444.46	2711.51
444.66	2643.93
444.87	2840.53
445.07	2609.11
445.28	2602.97
445.48	2777.05
445.69	2717.65
445.89	3149.78
446.09	2693.08
446.30	3004.37
446.50	3022.80
446.71	4587.45
446.91	5709.74
447.12	6473.63
447.32	6856.60
447.53	6506.40
447.73	5347.25
447.93	4808.63
448.14	4478.91
448.34	4552.63
448.55	3911.62
448.75	3899.33
448.96	3663.82
449.16	3368.91
449.36	3241.93
449.57	2828.24
449.77	2717.65
449.98	2695.13
450.18	2904.02
450.39	2660.31
450.59	2797.53
450.79	2619.35
451.00	2645.98
451.20	2838.48
451.41	2562.01
451.61	2750.42
451.81	2635.74
452.02	2564.06
452.22	2623.45
452.43	2666.46
452.63	2562.01
452.84	2648.02
453.04	2533.34
453.24	2809.81
453.45	2588.63
453.65	2666.46
453.86	2656.22
454.06	2766.81
454.26	2719.70
454.47	2625.50
454.67	2885.59
454.87	2858.96
455.08	2770.90
455.28	2840.53
455.49	2721.75
455.69	2650.07
455.89	3071.95
456.10	2736.09
456.30	2609.11
456.51	2772.95
456.71	2807.77
456.91	2742.23
457.12	2654.17
457.32	2775.00
457.52	2566.10
457.73	2764.76
457.93	2858.96
458.14	2654.17
458.34	2502.62
458.54	2605.02
458.75	2631.64
458.95	2840.53
459.15	2772.95
459.36	2713.56
459.56	2607.06
459.76	2996.18
459.97	2785.24
460.17	2658.26
460.37	2748.37
460.58	2772.95
460.78	2856.92
460.99	2635.74
461.19	2725.85
461.39	2705.37
461.60	2662.36
461.80	2727.89
462.00	2596.82
462.21	2748.37
462.41	2635.74
462.61	2504.67
462.82	2447.32
463.02	2752.47
463.22	2748.37
463.43	2695.13
463.63	2574.30
463.83	2846.68
464.04	2717.65
464.24	2586.58
464.44	2566.10
464.64	2791.38
464.85	2887.64
465.05	2725.85
465.25	2686.94
465.46	2637.78
465.66	2848.72
465.86	2742.23
466.07	2678.74
466.27	2699.22
466.47	2572.25
466.68	2508.76
466.88	2781.14
467.08	2891.73
467.29	2856.92
467.49	2668.50
467.69	2705.37
467.89	2815.96
468.10	2705.37
468.30	2590.68
468.50	2797.53
468.71	2963.41
468.91	2586.58
469.11	2869.20
469.31	2658.26
469.52	2613.21
469.72	2983.89
469.92	2942.93
470.13	2682.84
470.33	2777.05
470.53	2803.67
470.73	3030.99
470.94	3252.17
471.14	3401.68
471.34	3864.52
471.54	3588.04
471.75	3297.23
471.95	3078.10
472.15	3088.34
472.36	3114.96
472.56	3014.61
472.76	3162.06
472.96	3035.09
473.17	2875.35
473.37	2744.28
473.57	2736.09
473.77	2863.06
473.98	2770.90
474.18	2512.86
474.38	3184.59
474.58	2678.74
474.79	2627.54
474.99	2746.33
475.19	2922.45
475.39	2537.43
475.60	2756.57
475.80	2721.75
476.00	2811.86
476.20	2775.00
476.41	2713.56
476.61	2686.94
476.81	2973.65
477.01	2627.54
477.21	2842.58
477.42	2766.81
477.62	2635.74
477.82	2834.39
478.02	2588.63
478.23	2654.17
478.43	2586.58
478.63	2650.07
478.83	2731.99
479.03	2662.36
479.24	2979.79
479.44	3063.76
479.64	2568.15
479.84	2400.22
480.04	2629.59
480.25	2889.68
480.45	2539.48
480.65	2615.26
480.85	2963.41
481.06	2650.07
481.26	2818.00
481.46	2715.61
481.66	2805.72
481.86	2596.82
482.06	2795.48
482.27	2686.94
482.47	2584.54
482.67	2781.14
482.87	2645.98
483.07	2770.90
483.28	2693.08
483.48	2580.44
483.68	2672.60
483.88	2625.50
484.08	2541.53
484.29	2551.77
484.49	2660.31
484.69	2467.80
484.89	2914.26
485.09	2889.68
485.29	2746.33
485.50	2799.57
485.70	2682.84
485.90	2897.88
486.10	2725.85
486.30	2570.20
486.50	2895.83
486.71	2801.62
486.91	2709.46
487.11	2768.85
487.31	2535.39
487.51	2832.34
487.71	2588.63
487.91	2502.62
488.12	2557.91
488.32	2353.12
488.52	2590.68
488.72	2494.43
488.92	2709.46
489.12	2893.78
489.32	2768.85
489.53	2654.17
489.73	2512.86
489.93	2963.41
490.13	2600.92
490.33	2492.38
490.53	2744.28
490.73	2842.58
490.94	2500.57
491.14	2783.19
491.34	2832.34
491.54	2914.26
491.74	3448.78
491.94	4077.51
492.14	4390.84
492.34	4417.47
492.54	4171.71
492.75	3655.62
492.95	3598.28
493.15	3344.33
493.35	3330.00
493.55	3155.92
493.75	3074.00
493.95	3186.64
494.15	2901.97
494.35	2770.90
494.56	2799.57
494.76	2641.88
494.96	2691.03
495.16	2594.78
495.36	2707.41
495.56	2711.51
495.76	2734.04
495.96	2611.16
496.16	2611.16
496.36	2940.88
496.56	2670.55
496.77	2729.94
496.97	2660.31
497.17	2885.59
497.37	2490.33
497.57	2766.81
497.77	2715.61
497.97	2564.06
498.17	2684.89
498.37	2631.64
498.57	2818.00
498.77	2725.85
498.97	2848.72
499.17	2940.88
499.38	2705.37
499.58	2854.87
499.78	2752.47
499.98	2848.72
500.18	2693.08
500.38	2574.30
500.58	2899.92
500.78	3252.17
500.98	5349.29
501.18	7221.14
501.38	8640.38
501.58	9410.42
501.78	9498.48
501.98	7696.27
502.18	6389.66
502.38	5529.52
502.58	5351.34
502.78	4739.00
502.98	4622.27
503.18	4399.04
503.38	4046.79
503.59	3547.08
503.79	3506.12
503.99	3233.74
504.19	3180.50
504.39	3311.57
504.59	3125.20
504.79	3129.30
504.99	3178.45
505.19	2901.97
505.39	2824.15
505.59	3024.85
505.79	3047.38
505.99	2967.51
506.19	2705.37
506.39	2883.54
506.59	2645.98
506.79	2592.73
506.99	2846.68
507.19	2611.16
507.39	2734.04
507.59	2529.24
507.79	2611.16
507.99	2533.34
508.19	2697.17
508.39	2666.46
508.59	2781.14
508.79	2754.52
508.99	2981.84
509.19	2609.11
509.39	2760.66
509.59	2572.25
509.79	2602.97
509.99	2680.79
510.19	2754.52
510.39	2762.71
510.59	2695.13
510.79	2691.03
510.99	2519.00
511.19	2701.27
511.39	3022.80
511.59	2904.02
511.79	2836.44
511.99	2674.65
512.19	3028.95
512.38	2766.81
512.58	2605.02
512.78	2674.65
512.98	2932.69
513.18	2975.70
513.38	2494.43
513.58	2789.33
513.78	2711.51
513.98	2686.94
514.18	2600.92
514.38	2602.97
514.58	2801.62
514.78	2645.98
514.98	2527.19
515.18	2682.84
515.38	2562.01
515.58	2981.84
515.78	2602.97
515.98	2691.03
516.18	2858.96
516.38	2707.41
516.57	2635.74
516.77	2637.78
516.97	2777.05
517.17	2594.78
517.37	2441.18
517.57	2734.04
517.77	2664.41
517.97	2559.96
518.17	2744.28
518.37	2590.68
518.57	2600.92
518.77	2596.82
518.97	2641.88
519.16	2736.09
519.36	2805.72
519.56	2588.63
519.76	2660.31
519.96	2686.94
520.16	2959.31
520.36	2643.93
520.56	2781.14
520.76	2582.49
520.96	2658.26
521.16	2824.15
521.35	2846.68
521.55	2731.99
521.75	2848.72
521.95	2727.89
522.15	2537.43
522.35	2502.62
522.55	2658.26
522.75	2951.12
522.95	2662.36
523.14	2559.96
523.34	2820.05
523.54	2625.50
523.74	2684.89
523.94	2684.89
524.14	2559.96
524.34	2842.58
524.54	2904.02
524.73	2664.41
524.93	2738.13
525.13	2709.46
525.33	2480.09
525.53	2908.12
525.73	2744.28
525.93	2719.70
526.13	2621.40
526.32	2588.63
526.52	2867.16
526.72	2805.72
526.92	2633.69
527.12	2545.63
527.32	2590.68
527.52	2785.24
527.71	2734.04
527.91	2629.59
528.11	2666.46
528.31	2672.60
528.51	2537.43
528.71	2705.37
528.90	2654.17
529.10	2901.97
529.30	2719.70
529.50	2385.88
529.70	2756.57
529.90	2637.78
530.09	2648.02
530.29	2514.91
530.49	2674.65
530.69	3108.82
530.89	2793.43
531.09	2783.19
531.28	2629.59
531.48	2865.11
531.68	2652.12
531.88	2652.12
532.08	2875.35
532.28	2592.73
532.47	2754.52
532.67	2744.28
532.87	2871.25
533.07	2602.97
533.27	2754.52
533.46	2705.37
533.66	2883.54
533.86	2715.61
534.06	2705.37
534.26	2725.85
534.45	2660.31
534.65	2811.86
534.85	2715.61
535.05	2611.16
535.25	2805.72
535.44	2547.67
535.64	2717.65
535.84	2643.93
536.04	2621.40
536.24	2582.49
536.43	2596.82
536.63	2699.22
536.83	2719.70
537.03	2703.32
537.22	2471.90
537.42	2404.32
537.62	2725.85
537.82	2578.39
538.02	2785.24
538.21	2752.47
538.41	3221.45
538.61	2920.40
538.81	2641.88
539.00	2758.61
539.20	2478.04
539.40	2631.64
539.60	2682.84
539.79	2705.37
539.99	2705.37
540.19	2607.06
540.39	2613.21
540.58	2654.17
540.78	2856.92
540.98	2766.81
541.18	2738.13
541.37	2641.88
541.57	2756.57
541.77	2744.28
541.97	2539.48
542.16	2492.38
542.36	2770.90
542.56	2684.89
542.76	2848.72
542.95	2740.18
543.15	2858.96
543.35	2883.54
543.54	2572.25
543.74	2619.35
543.94	2965.46
544.14	2701.27
544.33	2783.19
544.53	2654.17
544.73	2672.60
544.93	2678.74
545.12	2607.06
545.32	2600.92
545.52	2684.89
545.71	2523.10
545.91	2596.82
546.11	2641.88
546.30	2578.39
546.50	2736.09
546.70	2727.89
546.90	2686.94
547.09	2514.91
547.29	2727.89
547.49	2752.47
547.68	2592.73
547.88	2645.98
548.08	2770.90
548.27	3039.19
548.47	2637.78
548.67	2650.07
548.87	2756.57
549.06	2631.64
549.26	2664.41
549.46	2736.09
549.65	2662.36
549.85	2703.32
550.05	2674.65
550.24	2496.47
550.44	2813.91
550.64	2744.28
550.83	2666.46
551.03	2830.29
551.23	2897.88
551.42	2760.66
551.62	2645.98
551.82	2695.13
552.01	2662.36
552.21	2848.72
552.41	2688.98
552.60	2944.98
552.80	2770.90
553.00	2662.36
553.19	2721.75
553.39	2998.23
553.59	2521.05
553.78	2703.32
553.98	2713.56
554.17	2568.15
554.37	2723.80
554.57	2772.95
554.76	2568.15
554.96	2701.27
555.16	2666.46
555.35	2588.63
555.55	2719.70
555.75	2760.66
555.94	2871.25
556.14	2475.99
556.33	2688.98
556.53	2656.22
556.73	2752.47
556.92	2725.85
557.12	2742.23
557.32	3016.66
557.51	2930.64
557.71	2742.23
557.90	2854.87
558.10	2844.63
558.30	2605.02
558.49	2627.54
558.69	2615.26
558.88	2848.72
559.08	2781.14
559.28	2695.13
559.47	2727.89
559.67	2799.57
559.86	3024.85
560.06	2744.28
560.26	2695.13
560.45	2809.81
560.65	2676.70
560.84	2813.91
561.04	2574.30
561.24	2858.96
561.43	2654.17
561.63	2887.64
561.82	2791.38
562.02	2731.99
562.22	2588.63
562.41	2639.83
562.61	2619.35
562.80	2602.97
563.00	3061.71
563.19	2734.04
563.39	2682.84
563.59	2785.24
563.78	2568.15
563.98	2445.27
564.17	2519.00
564.37	2572.25
564.56	2734.04
564.76	2600.92
564.96	2818.00
565.15	2760.66
565.35	3047.38
565.54	2727.89
565.74	2727.89
565.93	2848.72
566.13	2762.71
566.32	2750.42
566.52	2754.52
566.71	2791.38
566.91	2924.50
567.11	2791.38
567.30	2605.02
567.50	2764.76
567.69	2750.42
567.89	2637.78
568.08	2527.19
568.28	2777.05
568.47	2631.64
568.67	2635.74
568.86	2643.93
569.06	2871.25
569.25	2654.17
569.45	2594.78
569.64	2693.08
569.84	2701.27
570.04	2779.09
570.23	2662.36
570.43	2762.71
570.62	2760.66
570.82	2922.45
571.01	2539.48
571.21	2639.83
571.40	2615.26
571.60	2924.50
571.79	2676.70
571.99	2695.13
572.18	2611.16
572.38	2756.57
572.57	2623.45
572.77	2688.98
572.96	3102.67
573.16	2723.80
573.35	2648.02
573.55	2750.42
573.74	2768.85
573.94	2762.71
574.13	2652.12
574.33	2775.00
574.52	2928.60
574.71	2680.79
574.91	2709.46
575.10	2562.01
575.30	2717.65
575.49	2525.15
575.69	2605.02
575.88	2635.74
576.08	2721.75
576.27	2895.83
576.47	2607.06
576.66	2889.68
576.86	2944.98
577.05	2834.39
577.25	2674.65
577.44	2848.72
577.64	2672.60
577.83	2836.44
578.02	2645.98
578.22	2793.43
578.41	2961.36
578.61	2676.70
578.80	2531.29
579.00	2680.79
579.19	2703.32
579.39	2777.05
579.58	2758.61
579.77	2668.50
579.97	2977.75
580.16	2916.31
580.36	2836.44
580.55	2867.16
580.75	2822.10
580.94	2818.00
581.13	2826.20
581.33	2822.10
581.52	2799.57
581.72	3022.80
581.91	2801.62
582.11	2607.06
582.30	2848.72
582.49	2738.13
582.69	2932.69
582.88	2781.14
583.08	2793.43
583.27	2861.01
583.47	2787.29
583.66	2625.50
583.85	2531.29
584.05	2789.33
584.24	2826.20
584.44	2721.75
584.63	2932.69
584.82	2959.31
585.02	2807.77
585.21	2818.00
585.41	2783.19
585.60	2746.33
585.79	2957.27
585.99	2924.50
586.18	2838.48
586.37	3518.41
586.57	5418.93
586.76	15968.01
586.96	35012.07
587.15	48450.84
587.34	56609.95
587.54	60785.76
587.73	54912.19
587.93	38559.16
588.12	29038.15
588.31	23875.22
588.51	20901.57
588.70	19355.35
588.89	17196.79
589.09	14753.57
589.28	12564.29
589.47	10028.90
589.67	7522.19
589.86	5926.82
590.06	4534.20
590.25	4007.87
590.44	3461.07
590.64	3102.67
590.83	2992.08
591.02	2975.70
591.22	2709.46
591.41	2740.18
591.60	2738.13
591.80	3164.11
591.99	2564.06
592.18	2680.79
592.38	2809.81
592.57	2600.92
592.76	2627.54
592.96	2709.46
593.15	2674.65
593.34	2949.08
593.54	2643.93
593.73	2793.43
593.92	2846.68
594.12	2873.30
594.31	2666.46
594.50	2854.87
594.70	2750.42
594.89	3076.05
595.08	2590.68
595.28	2813.91
595.47	3215.31
595.66	2901.97
595.86	2660.31
596.05	2588.63
596.24	2721.75
596.43	2957.27
596.63	2779.09
596.82	2750.42
597.01	2772.95
597.21	2924.50
597.40	2707.41
597.59	2660.31
597.79	2682.84
597.98	2852.82
598.17	2756.57
598.36	2678.74
598.56	2828.24
598.75	2641.88
598.94	2828.24
599.14	2686.94
599.33	2729.94
599.52	2840.53
599.71	2721.75
599.91	2789.33
600.10	2820.05
600.29	2777.05
600.48	2754.52
600.68	2740.18
600.87	2772.95
601.06	2627.54
601.26	2740.18
601.45	2715.61
601.64	2727.89
601.83	2965.46
602.03	2609.11
602.22	2506.71
602.41	2779.09
602.60	3067.86
602.80	2686.94
602.99	2727.89
603.18	2629.59
603.37	2748.37
603.57	2686.94
603.76	2785.24
603.95	2940.88
604.14	2678.74
604.34	2502.62
604.53	2672.60
604.72	2770.90
604.91	2861.01
605.10	2711.51
605.30	2494.43
605.49	3061.71
605.68	2883.54
605.87	2748.37
606.07	2674.65
606.26	2703.32
606.45	2846.68
606.64	2721.75
606.84	2555.86
607.03	2729.94
607.22	2865.11
607.41	2652.12
607.60	2621.40
607.80	2934.74
607.99	2717.65
608.18	2744.28
608.37	2678.74
608.56	2562.01
608.76	2854.87
608.95	2889.68
609.14	2691.03
609.33	2846.68
609.52	2987.99
609.72	2775.00
609.91	2809.81
610.10	2789.33
610.29	2985.94
610.48	2799.57
610.68	2783.19
610.87	2760.66
611.06	2865.11
611.25	2684.89
611.44	2832.34
611.63	2693.08
611.83	2914.26
612.02	2541.53
612.21	2809.81
612.40	2498.52
612.59	2506.71
612.79	2562.01
612.98	2678.74
613.17	2899.92
613.36	2711.51
613.55	2879.44
613.74	2736.09
613.93	2793.43
614.13	2856.92
614.32	2904.02
614.51	2756.57
614.70	2705.37
614.89	2676.70
615.08	2795.48
615.28	3125.20
615.47	2545.63
615.66	2678.74
615.85	2725.85
616.04	2850.77
616.23	2693.08
616.42	2781.14
616.62	2674.65
616.81	2719.70
617.00	2768.85
617.19	2795.48
617.38	2668.50
617.57	2676.70
617.76	2826.20
617.95	2707.41
618.15	2818.00
618.34	2820.05
618.53	2482.14
618.72	2852.82
618.91	2744.28
619.10	2801.62
619.29	2645.98
619.48	2723.80
619.68	2525.15
619.87	2572.25
620.06	2537.43
620.25	2775.00
620.44	2602.97
620.63	2625.50
620.82	2768.85
621.01	2795.48
621.20	2672.60
621.39	2715.61
621.59	2791.38
621.78	2682.84
621.97	2627.54
622.16	2824.15
622.35	2834.39
622.54	2858.96
622.73	2777.05
622.92	2418.65
623.11	2875.35
623.30	2748.37
623.49	2772.95
623.68	2619.35
623.88	2873.30
624.07	2736.09
624.26	2727.89
624.45	2684.89
624.64	2760.66
624.83	2770.90
625.02	2650.07
625.21	2676.70
625.40	2781.14
625.59	2897.88
625.78	2697.17
625.97	2746.33
626.16	2947.03
626.35	2883.54
626.54	2676.70
626.74	2846.68
626.93	2676.70
627.12	2721.75
627.31	2785.24
627.50	2707.41
627.69	2861.01
627.88	2613.21
628.07	2652.12
628.26	2502.62
628.45	2652.12
628.64	2637.78
628.83	2564.06
629.02	2519.00
629.21	2811.86
629.40	2693.08
629.59	2549.72
629.78	2584.54
629.97	2832.34
630.16	2695.13
630.35	2686.94
630.54	2662.36
630.73	2682.84
630.92	2736.09
631.11	2547.67
631.30	2699.22
631.49	2834.39
631.68	2766.81
631.87	2742.23
632.06	2500.57
632.25	3067.86
632.44	2668.50
632.63	2691.03
632.82	2729.94
633.01	2623.45
633.20	2717.65
633.39	2656.22
633.58	2539.48
633.77	2783.19
633.96	2871.25
634.15	2852.82
634.34	2727.89
634.53	2793.43
634.72	2719.70
634.91	2502.62
635.10	2693.08
635.29	2850.77
635.48	2820.05
635.67	2652.12
635.86	2512.86
636.05	2940.88
636.24	2711.51
636.43	2666.46
636.62	2682.84
636.81	2334.68
637.00	2680.79
637.19	2684.89
637.38	2736.09
637.57	2645.98
637.76	2709.46
637.95	2826.20
638.14	2678.74
638.33	2830.29
638.52	2748.37
638.71	2559.96
638.89	2482.14
639.08	3078.10
639.27	2928.60
639.46	2791.38
639.65	3190.74
639.84	3096.53
640.03	3307.47
640.22	3055.57
640.41	3135.44
640.60	2885.59
640.79	3030.99
640.98	2758.61
641.17	2865.11
641.36	2938.84
641.55	2924.50
641.74	2637.78
641.92	2643.93
642.11	2609.11
642.30	2668.50
642.49	2631.64
642.68	2607.06
642.87	2805.72
643.06	2852.82
643.25	2619.35
643.44	2611.16
643.63	2672.60
643.82	2875.35
644.00	2529.24
644.19	2697.17
644.38	2566.10
644.57	2762.71
644.76	2643.93
644.95	2678.74
645.14	2822.10
645.33	2723.80
645.52	2645.98
645.71	2486.23
645.89	2572.25
646.08	2750.42
646.27	2602.97
646.46	2932.69
646.65	2572.25
646.84	2734.04
647.03	2473.95
647.22	2797.53
647.40	2772.95
647.59	2717.65
647.78	2486.23
647.97	2574.30
648.16	2629.59
648.35	2975.70
648.54	2844.63
648.73	2590.68
648.91	2838.48
649.10	2815.96
649.29	2641.88
649.48	2707.41
649.67	2760.66
649.86	2758.61
650.05	2756.57
650.23	2883.54
650.42	2652.12
650.61	3020.75
650.80	2871.25
650.99	2981.84
651.18	2869.20
651.36	2879.44
651.55	2639.83
651.74	2787.29
651.93	2666.46
652.12	2811.86
652.31	2705.37
652.49	2648.02
652.68	2670.55
652.87	2908.12
653.06	2664.41
653.25	2908.12
653.44	2785.24
653.62	2961.36
653.81	2637.78
654.00	2695.13
654.19	2951.12
654.38	3100.62
654.56	2736.09
654.75	2549.72
654.94	2834.39
655.13	2861.01
655.32	2637.78
655.51	2721.75
655.69	2619.35
655.88	2799.57
656.07	2494.43
656.26	2754.52
656.45	2564.06
656.63	2734.04
656.82	2648.02
657.01	2844.63
657.20	2629.59
657.38	2908.12
657.57	2656.22
657.76	2545.63
657.95	2889.68
658.14	2672.60
658.32	2654.17
658.51	2496.47
658.70	2762.71
658.89	2752.47
659.08	2662.36
659.26	2793.43
659.45	2627.54
659.64	2936.79
659.83	2574.30
660.01	3049.43
660.20	2740.18
660.39	3010.51
660.58	2410.46
660.76	2736.09
660.95	2557.91
661.14	2717.65
661.33	2510.81
661.51	2615.26
661.70	2613.21
661.89	2766.81
662.08	2695.13
662.26	2420.70
662.45	2574.30
662.64	2973.65
662.83	2674.65
663.01	2551.77
663.20	2688.98
663.39	2975.70
663.58	2602.97
663.76	2643.93
663.95	2787.29
664.14	2584.54
664.32	2605.02
664.51	2598.87
664.70	2543.58
664.89	2725.85
665.07	2500.57
665.26	2783.19
665.45	2613.21
665.64	2779.09
665.82	2654.17
666.01	2779.09
666.20	2559.96
666.38	2881.49
666.57	2873.30
666.76	4229.06
666.95	9967.46
667.13	16959.23
667.32	20909.76
667.51	23764.63
667.69	25034.37
667.88	21423.80
668.07	15419.16
668.25	12750.65
668.44	10962.78
668.63	9731.95
668.81	8355.71
669.00	7405.46
669.19	6530.97
669.38	5732.26
669.56	4947.89
669.75	4208.58
669.94	3725.26
670.12	3272.65
670.31	3024.85
670.50	2977.75
670.68	2924.50
670.87	2863.06
671.06	2760.66
671.24	2705.37
671.43	2955.22
671.62	2738.13
671.80	2623.45
671.99	2777.05
672.18	2713.56
672.36	2770.90
672.55	2707.41
672.74	2674.65
672.92	2738.13
673.11	2834.39
673.29	2510.81
673.48	2787.29
673.67	2764.76
673.85	2826.20
674.04	2664.41
674.23	2797.53
674.41	2942.93
674.60	2572.25
674.79	2467.80
674.97	2527.19
675.16	2785.24
675.34	2926.55
675.53	2631.64
675.72	2766.81
675.90	3018.71
676.09	2580.44
676.28	2652.12
676.46	2529.24
676.65	2791.38
676.83	2574.30
677.02	2672.60
677.21	2772.95
677.39	2783.19
677.58	2586.58
677.77	2639.83
677.95	2570.20
678.14	2680.79
678.32	2660.31
678.51	2633.69
678.70	2934.74
678.88	2613.21
679.07	2680.79
679.25	2652.12
679.44	2639.83
679.63	2572.25
679.81	2764.76
680.00	2873.30
680.18	2744.28
680.37	2963.41
680.55	2699.22
680.74	2570.20
680.93	2439.13
681.11	2815.96
681.30	2635.74
681.48	2672.60
681.67	2625.50
681.85	2760.66
682.04	2584.54
682.23	2752.47
682.41	2740.18
682.60	2758.61
682.78	2760.66
682.97	2574.30
683.15	2666.46
683.34	2797.53
683.53	2932.69
683.71	2457.56
683.90	2781.14
684.08	2932.69
684.27	2742.23
684.45	2695.13
684.64	2775.00
684.82	2668.50
685.01	2746.33
685.19	2611.16
685.38	2850.77
685.57	2744.28
685.75	2668.50
685.94	2541.53
686.12	2631.64
686.31	2674.65
686.49	2975.70
686.68	2441.18
686.86	2678.74
687.05	2729.94
687.23	2951.12
687.42	2666.46
687.60	2525.15
687.79	2844.63
687.97	2906.07
688.16	2738.13
688.34	2889.68
688.53	2494.43
688.71	2748.37
688.90	2889.68
689.08	2664.41
689.27	2496.47
689.45	2848.72
689.64	2693.08
689.82	2738.13
690.01	2795.48
690.19	2781.14
690.38	2566.10
690.56	2881.49
690.75	2578.39
690.93	2666.46
691.12	2613.21
691.30	2693.08
691.49	2721.75
691.67	2658.26
691.86	2906.07
692.04	2609.11
692.23	2635.74
692.41	2719.70
692.60	2967.51
692.78	2877.40
692.97	2797.53
693.15	2795.48
693.34	2887.64
693.52	2752.47
693.71	2668.50
693.89	2609.11
694.08	2525.15
694.26	2721.75
694.44	2869.20
694.63	2766.81
694.81	2588.63
695.00	2635.74
695.18	2850.77
695.37	3119.06
695.55	2731.99
695.74	2629.59
695.92	2602.97
696.10	2871.25
696.29	2490.33
696.47	2641.88
696.66	2578.39
696.84	2582.49
697.03	2717.65
697.21	3004.37
697.40	4011.97
697.58	2875.35
697.76	2619.35
697.95	2592.73
698.13	2533.34
698.32	2672.60
698.50	2611.16
698.68	2740.18
698.87	2828.24
699.05	2893.78
699.24	2658.26
699.42	2555.86
699.61	2709.46
699.79	2650.07
699.97	2678.74
700.16	2529.24
700.34	2613.21
700.53	2750.42
700.71	2826.20
700.89	2764.76
701.08	2662.36
701.26	2705.37
701.45	3133.39
701.63	2582.49
701.81	2617.30
702.00	2609.11
702.18	2736.09
702.37	2635.74
702.55	2875.35
702.73	2836.44
702.92	2643.93
703.10	2883.54
703.28	2897.88
703.47	2586.58
703.65	2834.39
703.84	2840.53
704.02	2643.93
704.20	2899.92
704.39	2629.59
704.57	2650.07
704.75	2869.20
704.94	2787.29
705.12	2729.94
705.30	3217.36
705.49	5697.45
705.67	11835.21
705.86	17626.87
706.04	20070.09
706.22	22509.22
706.41	22308.52
706.59	17536.76
706.77	13381.43
706.96	11317.08
707.14	10237.80
707.32	8845.18
707.51	7980.93
707.69	6516.64
707.87	5287.86
708.06	4526.01
708.24	3827.65
708.42	3432.40
708.61	3409.87
708.79	2775.00
708.97	2727.89
709.16	2914.26
709.34	2758.61
709.52	2609.11
709.71	2672.60
709.89	2891.73
710.07	2688.98
710.26	2621.40
710.44	2639.83
710.62	2875.35
710.80	2717.65
710.99	2826.20
711.17	2789.33
711.35	2678.74
711.54	2598.87
711.72	2842.58
711.90	2754.52
712.09	2738.13
712.27	2719.70
712.45	2775.00
712.63	2699.22
712.82	2713.56
713.00	2760.66
713.18	2740.18
713.37	2764.76
713.55	2875.35
713.73	2838.48
713.91	2752.47
714.10	2598.87
714.28	2691.03
714.46	2770.90
714.65	2762.71
714.83	2623.45
715.01	2783.19
715.19	2672.60
715.38	2594.78
715.56	2731.99
715.74	2674.65
715.92	2674.65
716.11	2871.25
716.29	2426.84
716.47	2734.04
716.65	2637.78
716.84	2506.71
717.02	2785.24
717.20	2475.99
717.38	2686.94
717.57	2736.09
717.75	2627.54
717.93	2699.22
718.11	2781.14
718.30	2531.29
718.48	2695.13
718.66	2875.35
718.84	2908.12
719.03	2609.11
719.21	2592.73
719.39	2916.31
719.57	2779.09
719.75	2840.53
719.94	2539.48
720.12	2650.07
720.30	2709.46
720.48	2775.00
720.67	2615.26
720.85	2547.67
721.03	2652.12
721.21	2605.02
721.39	2746.33
721.58	2809.81
721.76	2750.42
721.94	2727.89
722.12	2775.00
722.30	2957.27
722.49	2654.17
722.67	2791.38
722.85	2703.32
723.03	2539.48
723.21	2658.26
723.40	2775.00
723.58	2895.83
723.76	2762.71
723.94	2932.69
724.12	2701.27
724.30	2799.57
724.49	2875.35
724.67	2654.17
724.85	2826.20
725.03	2490.33
725.21	2785.24
725.40	2971.60
725.58	2586.58
725.76	2809.81
725.94	2783.19
726.12	2559.96
726.30	2693.08
726.49	2648.02
726.67	2641.88
726.85	2750.42
727.03	3121.10
727.21	3985.35
727.39	5308.34
727.57	5621.67
727.76	5965.73
727.94	6098.85
728.12	5564.33
728.30	4616.12
728.48	4304.83
728.66	4030.40
728.84	3712.97
729.03	3350.48
729.21	3235.79
729.39	2992.08
729.57	2858.96
729.75	2906.07
729.93	2738.13
730.11	2615.26
730.30	2607.06
730.48	2691.03
730.66	2813.91
730.84	2717.65
731.02	2793.43
731.20	2625.50
731.38	2662.36
731.56	2490.33
731.74	2584.54
731.93	2764.76
732.11	2711.51
732.29	2711.51
732.47	2818.00
732.65	2648.02
732.83	2908.12
733.01	2668.50
733.19	2547.67
733.37	2799.57
733.56	2727.89
733.74	2605.02
733.92	2895.83
734.10	2654.17
734.28	2752.47
734.46	2496.47
734.64	2666.46
734.82	2643.93
735.00	2637.78
735.18	2609.11
735.36	2815.96
735.54	2680.79
735.73	2656.22
735.91	2731.99
736.09	2916.31
736.27	2658.26
736.45	2746.33
736.63	2437.08
736.81	2686.94
736.99	2928.60
737.17	2856.92
737.35	2605.02
737.53	2793.43
737.71	2658.26
737.89	2826.20
738.07	2566.10
738.25	2500.57
738.43	2605.02
738.61	2580.44
738.80	2576.34
738.98	2631.64
739.16	2693.08
739.34	2570.20
739.52	2869.20
739.70	2754.52
739.88	2787.29
740.06	2897.88
740.24	2437.08
740.42	2916.31
740.60	2482.14
740.78	2582.49
740.96	2488.28
741.14	2695.13
741.32	2727.89
741.50	2580.44
741.68	2838.48
741.86	2836.44
742.04	2549.72
742.22	2539.48
742.40	2682.84
742.58	2672.60
742.76	2602.97
742.94	2846.68
743.12	2478.04
743.30	2805.72
743.48	2717.65
743.66	2596.82
743.84	2688.98
744.02	2705.37
744.20	2707.41
744.38	2514.91
744.56	2557.91
744.74	2942.93
744.92	2809.81
745.10	2938.84
745.28	2709.46
745.46	2975.70
745.64	2633.69
745.82	2797.53
746.00	2676.70
746.18	2752.47
746.36	2625.50
746.54	2645.98
746.72	2611.16
746.90	2619.35
747.08	2895.83
747.26	2643.93
747.44	2791.38
747.62	2838.48
747.80	2789.33
747.98	2756.57
748.15	2648.02
748.33	2977.75
748.51	2734.04
748.69	2801.62
748.87	2598.87
749.05	2682.84
749.23	2639.83
749.41	2625.50
749.59	2734.04
749.77	2818.00
749.95	2643.93
750.13	2658.26
750.31	2826.20
750.49	2580.44
750.67	2836.44
750.85	2768.85
751.03	2707.41
751.20	3004.37
751.38	2717.65
751.56	2668.50
751.74	2633.69
751.92	2666.46
752.10	2527.19
752.28	2826.20
752.46	2598.87
752.64	2705.37
752.82	2670.55
753.00	2766.81
753.18	2670.55
753.35	2613.21
753.53	2734.04
753.71	2586.58
753.89	2764.76
754.07	2754.52
754.25	2906.07
754.43	2613.21
754.61	2576.34
754.79	2783.19
754.97	2666.46
755.14	2828.24
755.32	2531.29
755.50	2807.77
755.68	2703.32
755.86	2553.82
756.04	2596.82
756.22	2443.23
756.40	2815.96
756.57	2918.36
756.75	2631.64
756.93	2887.64
757.11	2826.20
757.29	2607.06
757.47	2586.58
757.65	2459.61
757.82	2402.27
758.00	2527.19
758.18	2648.02
758.36	2650.07
758.54	2899.92
758.72	2482.14
758.90	2777.05
759.07	2740.18
759.25	2508.76
759.43	2721.75
759.61	2564.06
759.79	3872.71
759.97	2775.00
760.15	2684.89
760.32	2617.30
760.50	2740.18
760.68	2994.13
760.86	2494.43
761.04	2830.29
761.22	2944.98
761.39	2805.72
761.57	2791.38
761.75	2633.69
761.93	2803.67
762.11	2629.59
762.28	2713.56
762.46	2570.20
762.64	2834.39
762.82	2549.72
763.00	2623.45
763.18	2803.67
763.35	2576.34
763.53	2842.58
763.71	2736.09
763.89	2623.45
764.07	2756.57
764.24	2731.99
764.42	2764.76
764.60	2670.55
764.78	2801.62
764.96	2809.81
765.13	2836.44
765.31	2621.40
765.49	2766.81
765.67	2582.49
765.84	2568.15
766.02	2545.63
766.20	2457.56
766.38	2770.90
766.56	2803.67
766.73	2793.43
766.91	2709.46
767.09	2705.37
767.27	2697.17
767.44	2551.77
767.62	2766.81
767.80	2760.66
767.98	2631.64
768.15	2607.06
768.33	2834.39
768.51	2801.62
768.69	2731.99
768.87	2645.98
769.04	2844.63
769.22	2957.27
769.40	2871.25
769.58	2865.11
769.75	2856.92
769.93	2918.36
770.11	2648.02
770.28	2568.15
770.46	2848.72
770.64	2783.19
770.82	2592.73
770.99	2699.22
771.17	2846.68
771.35	2645.98
771.53	2688.98
771.70	2645.98
771.88	2795.48
772.06	2768.85
772.23	2662.36
772.41	2699.22
772.59	2684.89
772.77	2613.21
772.94	2641.88
773.12	2736.09
773.30	2738.13
773.47	2713.56
773.65	2492.38
773.83	2838.48
774.01	2678.74
774.18	2500.57
774.36	2678.74
774.54	2541.53
774.71	2775.00
774.89	2490.33
775.07	2504.67
775.24	2598.87
775.42	2668.50
775.60	2955.22
775.78	2592.73
775.95	2475.99
776.13	2486.23
776.31	2514.91
776.48	2799.57
776.66	2875.35
776.84	2637.78
777.01	2572.25
777.19	2531.29
777.37	2580.44
777.54	2824.15
777.72	3016.66
777.90	2717.65
778.07	2602.97
778.25	3213.26
778.43	2918.36
778.60	2654.17
778.78	2760.66
778.96	2973.65
779.13	2553.82
779.31	2721.75
779.49	2754.52
779.66	2731.99
779.84	2645.98
780.01	2574.30
780.19	2547.67
780.37	2901.97
780.54	2815.96
780.72	2594.78
780.90	2660.31
781.07	2625.50
781.25	2611.16
781.43	2760.66
781.60	2627.54
781.78	2848.72
781.95	2643.93
782.13	2586.58
782.31	2609.11
782.48	2490.33
782.66	2725.85
782.83	2885.59
783.01	2824.15
783.19	2766.81
783.36	2654.17
783.54	2582.49
783.72	2715.61
783.89	2629.59
784.07	2762.71
784.24	2801.62
784.42	2879.44
784.60	2768.85
784.77	2756.57
784.95	2463.71
785.12	2641.88
785.30	2742.23
785.47	2639.83
785.65	2539.48
785.83	2658.26
786.00	2693.08
786.18	2729.94
786.35	2570.20
786.53	2615.26
786.71	2877.40
786.88	2811.86
787.06	2637.78
787.23	2670.55
787.41	2555.86
787.58	2723.80
787.76	2617.30
787.94	2672.60
788.11	2725.85
788.29	2555.86
788.46	2564.06
788.64	2523.10
788.81	2688.98
788.99	2633.69
789.16	2572.25
789.34	2584.54
789.52	2682.84
789.69	2596.82
789.87	2400.22
790.04	2686.94
790.22	2676.70
790.39	2955.22
790.57	2535.39
790.74	2488.28
790.92	2799.57
791.09	2457.56
791.27	2613.21
791.44	2748.37
791.62	2664.41
791.79	2785.24
791.97	2740.18
792.15	2987.99
792.32	2805.72
792.50	2852.82
792.67	2858.96
792.85	2881.49
793.02	2742.23
793.20	2627.54
793.37	2469.85
793.55	2668.50
793.72	2535.39
793.90	2754.52
794.07	2631.64
794.25	2590.68
794.42	2727.89
794.60	2633.69
794.77	2779.09
794.95	2863.06
795.12	2783.19
795.30	2785.24
795.47	2432.99
795.65	3057.62
795.82	2777.05
796.00	2699.22
796.17	2666.46
796.34	2504.67
796.52	2809.81
796.69	2822.10
796.87	2770.90
797.04	2775.00
797.22	2805.72
797.39	2768.85
797.57	2801.62
797.74	2711.51
797.92	2770.90
798.09	2523.10
798.27	2766.81
798.44	2650.07
798.62	2650.07
798.79	2764.76
798.96	2852.82
799.14	2566.10
799.31	3102.67
799.49	2717.65
799.66	2602.97
799.84	2686.94
800.01	2568.15
800.19	2787.29
800.36	2441.18
800.53	2699.22
800.71	2842.58
800.88	3014.61
801.06	2621.40
801.23	2590.68
801.41	2727.89
801.58	2623.45
801.75	2553.82
801.93	2676.70
802.10	2779.09
802.28	2627.54
802.45	2645.98
802.63	2682.84
802.80	2926.55
802.97	2703.32
803.15	2742.23
803.32	2619.35
803.50	2523.10
803.67	2672.60
803.84	2541.53
804.02	2727.89
804.19	2670.55
804.37	2418.65
804.54	2486.23
804.71	2629.59
804.89	2693.08
805.06	2609.11
805.24	2523.10
805.41	2539.48
805.58	2566.10
805.76	3074.00
805.93	2664.41
806.10	2830.29
806.28	2824.15
806.45	2793.43
806.63	2725.85
806.80	2717.65
806.97	2770.90
807.15	2721.75
807.32	2654.17
807.49	2637.78
807.67	2568.15
807.84	2734.04
808.01	2521.05
808.19	2799.57
808.36	3006.42
808.54	2627.54
808.71	2609.11
808.88	2684.89
809.06	2916.31
809.23	2957.27
809.40	2643.93
809.58	2723.80
809.75	2619.35
809.92	2564.06
810.10	2848.72
810.27	2570.20
810.44	2791.38
810.62	2869.20
810.79	2727.89
810.96	2570.20
811.14	2619.35
811.31	2842.58
811.48	2770.90
811.66	2711.51
811.83	2928.60
812.00	2807.77
812.18	2758.61
812.35	2994.13
812.52	2691.03
812.69	2615.26
812.87	2643.93
813.04	2498.52
813.21	2672.60
813.39	2547.67
813.56	2541.53
813.73	2760.66
813.91	2541.53
814.08	2758.61
814.25	2725.85
814.42	2533.34
814.60	2701.27
814.77	2736.09
814.94	2568.15
815.12	2750.42
815.29	2854.87
815.46	2568.15
815.63	2625.50
815.81	2664.41
815.98	2691.03
816.15	2748.37
816.33	2680.79
816.50	2645.98
816.67	2693.08
816.84	2770.90
817.02	2496.47
817.19	2662.36
817.36	2760.66
817.53	2736.09
817.71	2559.96
817.88	2715.61
818.05	2674.65
818.22	2693.08
818.40	2834.39
818.57	2570.20
818.74	2764.76
818.91	2666.46
819.09	2811.86
819.26	2723.80
819.43	2676.70
819.60	2609.11
819.78	2738.13
819.95	2756.57
820.12	2600.92
820.29	2842.58
820.47	2852.82
820.64	2570.20
820.81	2605.02
820.98	2666.46
821.15	2664.41
821.33	2766.81
821.50	2512.86
821.67	2777.05
821.84	2613.21
822.02	2727.89
822.19	2899.92
822.36	2674.65
822.53	2650.07
822.70	2521.05
822.88	2658.26
823.05	2910.16
823.22	2621.40
823.39	2719.70
823.56	2680.79
823.74	3014.61
823.91	2525.15
824.08	2572.25
824.25	2547.67
824.42	2965.46
824.60	2510.81
824.77	2738.13
824.94	2643.93
825.11	2764.76
825.28	2463.71
825.45	2691.03
825.63	2801.62
825.80	2559.96
825.97	2744.28
826.14	2598.87
826.31	2486.23
826.48	2828.24
826.66	2637.78
826.83	2588.63
827.00	2656.22
827.17	2584.54
827.34	2629.59
827.51	2555.86
827.69	2775.00
827.86	2531.29
828.03	2670.55
828.20	2691.03
828.37	2643.93
828.54	2783.19
828.71	2609.11
828.89	2742.23
829.06	2680.79
829.23	2981.84
829.40	2580.44
829.57	2611.16
829.74	2768.85
829.91	2643.93
830.09	2582.49
830.26	2762.71
830.43	2916.31
830.60	2701.27
830.77	2762.71
830.94	2781.14
831.11	2766.81
831.28	2713.56
831.46	2762.71
831.63	2648.02
831.80	2811.86
831.97	2592.73
832.14	2578.39
832.31	2709.46
832.48	2715.61
832.65	2834.39
832.82	2695.13
832.99	2703.32
833.17	2631.64
833.34	2901.97
833.51	2643.93
833.68	2371.55
833.85	2904.02
834.02	2629.59
834.19	2551.77
834.36	2557.91
834.53	2723.80
834.70	2832.34
834.87	2723.80
835.04	2500.57
835.22	2535.39
835.39	2684.89
835.56	2535.39
835.73	2539.48
835.90	2875.35
836.07	2570.20
836.24	2607.06
836.41	2527.19
836.58	2670.55
836.75	2867.16
836.92	2631.64
837.09	2494.43
837.26	2869.20
837.43	2762.71
837.60	2602.97
837.77	2617.30
837.94	2832.34
838.12	2846.68
838.29	2506.71
838.46	2537.43
838.63	2557.91
838.80	2942.93
838.97	2588.63
839.14	2498.52
839.31	2750.42
839.48	2797.53
839.65	2588.63
839.82	2586.58
839.99	2701.27
840.16	2791.38
840.33	2506.71
840.50	2664.41
840.67	2639.83
840.84	2408.41
841.01	2537.43
841.18	2545.63
841.35	2680.79
841.52	2838.48
841.69	2873.30
841.86	2629.59
842.03	2744.28
842.20	2858.96
842.37	2496.47
842.54	2514.91
842.71	2670.55
842.88	2504.67
843.05	2549.72
843.22	2523.10
843.39	2770.90
843.56	2586.58
843.73	2482.14
843.90	2619.35
844.07	2734.04
844.24	2871.25
844.41	2590.68
844.58	2600.92
844.75	2768.85
844.92	2770.90
845.09	2547.67
845.26	2486.23
845.43	2744.28
845.60	2662.36
845.77	2760.66
845.94	2602.97
846.10	2842.58
846.27	2437.08
846.44	2449.37
846.61	2514.91
846.78	2850.77
846.95	2828.24
847.12	2510.81
847.29	2588.63
847.46	2666.46
847.63	2820.05
847.80	2582.49
847.97	2519.00
848.14	2969.55
848.31	2686.94
848.48	2486.23
848.65	2648.02
848.82	2586.58
848.98	3131.34
849.15	2664.41
849.32	2674.65
849.49	2858.96
849.66	2742.23
849.83	2590.68
850.00	2461.66
850.17	2809.81
850.34	2701.27
850.51	2557.91
850.68	2541.53
850.85	3039.19
851.01	2701.27
851.18	2521.05
851.35	2557.91
851.52	2701.27
851.69	2949.08
851.86	2428.89
852.03	2521.05
852.20	2777.05
852.37	2772.95
852.53	2453.47
852.70	2537.43
852.87	2691.03
853.04	2756.57
853.21	2545.63
853.38	2756.57
853.55	2891.73
853.72	2840.53
853.89	2432.99
854.05	2543.58
854.22	2648.02
854.39	2691.03
854.56	2572.25
854.73	2674.65
854.90	2598.87
855.07	2615.26
855.23	2527.19
855.40	2500.57
855.57	2719.70
855.74	2457.56
855.91	2721.75
856.08	2494.43
856.25	2537.43
856.41	2666.46
856.58	2570.20
856.75	2547.67
856.92	2551.77
857.09	2818.00
857.26	2435.03
857.42	2600.92
857.59	2715.61
857.76	2703.32
857.93	2621.40
858.10	2650.07
858.27	2535.39
858.43	2650.07
858.60	2578.39
858.77	2416.60
858.94	2643.93
859.11	3000.27
859.27	2570.20
859.44	2490.33
859.61	2930.64
859.78	2772.95
859.95	2564.06
860.12	2543.58
860.28	3061.71
860.45	2901.97
860.62	2541.53
860.79	2574.30
860.95	2635.74
861.12	2607.06
861.29	2617.30
861.46	2510.81
861.63	2721.75
861.79	2748.37
861.96	2424.80
862.13	2551.77
862.30	2828.24
862.47	2645.98
862.63	2385.88
862.80	2664.41
862.97	2930.64
863.14	2693.08
863.30	2596.82
863.47	2506.71
863.64	2922.45
863.81	2715.61
863.97	2506.71
864.14	2531.29
864.31	2693.08
864.48	2756.57
864.65	2547.67
864.81	2697.17
864.98	2820.05
865.15	2904.02
865.32	2648.02
865.48	2582.49
865.65	2924.50
865.82	2592.73
865.98	2611.16
866.15	2582.49
866.32	2605.02
866.49	2637.78
866.65	2717.65
866.82	2539.48
866.99	2611.16
867.16	2648.02
867.32	2605.02
867.49	2506.71
867.66	2660.31
867.83	2580.44
867.99	2441.18
868.16	2559.96
868.33	2576.34
868.49	2738.13
868.66	2545.63
868.83	2668.50
868.99	2605.02
869.16	2711.51
869.33	2715.61
869.50	2682.84
869.66	2658.26
869.83	2693.08
870.00	2457.56
870.16	2564.06
870.33	2662.36
870.50	2871.25
870.66	2623.45
870.83	2668.50
871.00	2738.13
871.17	2871.25
871.33	2699.22
871.50	2521.05
871.67	2731.99
871.83	2529.24
872.00	2639.83
872.17	2576.34
872.33	2942.93
872.50	2869.20
872.67	2623.45
872.83	2564.06
873.00	2772.95
873.17	2639.83
873.33	2586.58
873.50	2609.11
873.67	2539.48
873.83	2613.21
874.00	2545.63
874.16	2701.27
874.33	2709.46
874.50	2533.34
874.66	2559.96
874.83	2588.63
875.00	2908.12
875.16	2856.92
875.33	2760.66
875.50	2357.21
875.66	2602.97
875.83	2631.64
875.99	2672.60
876.16	2674.65
876.33	2516.95
876.49	2670.55
876.66	2545.63
876.83	2584.54
876.99	2461.66
877.16	2693.08
877.32	2449.37
877.49	2586.58
877.66	2734.04
877.82	2963.41
877.99	2562.01
878.15	2842.58
878.32	2779.09
878.49	2768.85
878.65	2576.34
878.82	2777.05
878.98	2602.97
879.15	2842.58
879.32	2672.60
879.48	2676.70
879.65	2629.59
879.81	2740.18
879.98	2514.91
880.15	2580.44
880.31	2791.38
880.48	2600.92
880.64	2691.03
880.81	2607.06
880.97	2858.96
881.14	2906.07
881.31	2514.91
881.47	2721.75
881.64	2639.83
881.80	2402.27
881.97	2713.56
882.13	2586.58
882.30	2553.82
882.47	2652.12
882.63	2621.40
882.80	2557.91
882.96	2654.17
883.13	2883.54
883.29	2586.58
883.46	2590.68
883.62	2924.50
883.79	2766.81
883.95	2652.12
884.12	2541.53
884.29	2783.19
884.45	2670.55
884.62	2625.50
884.78	2510.81
884.95	2963.41
885.11	2629.59
885.28	2641.88
885.44	2420.70
885.61	2783.19
885.77	2848.72
885.94	2637.78
886.10	2564.06
886.27	2721.75
886.43	2914.26
886.60	2752.47
886.76	2488.28
886.93	2580.44
887.09	2668.50
887.26	2377.69
887.42	2574.30
887.59	2879.44
887.75	3022.80
887.92	2805.72
888.08	2654.17
888.25	2977.75
888.41	2871.25
888.58	2645.98
888.74	2533.34
888.91	2629.59
>>>>>End Processed Spectral Data<<<<<
