SpectraSuite Data File
++++++++++++++++++++++++++++++++++++
Date: Thu May 05 16:20:46 CEST 2016
User: root
Dark Spectrum Present: No
Reference Spectrum Present: No
Number of Sampled Component Spectra: 1
Spectrometers: USB4C02835
Integration Time (usec): 100000 (USB4C02835)
Spectra Averaged: 1 (USB4C02835)
Boxcar Smoothing: 0 (USB4C02835)
Correct for Electrical Dark: No (USB4C02835)
Strobe/Lamp Enabled: No (USB4C02835)
Correct for Detector Non-linearity: No (USB4C02835)
Correct for Stray Light: No (USB4C02835)
Number of Pixels in Processed Spectrum: 3648
>>>>>Begin Processed Spectral Data<<<<<
177.47	2088.93
177.69	2088.93
177.91	2088.93
178.13	1957.86
178.36	2047.97
178.58	2572.25
178.80	2740.18
179.02	2553.82
179.24	2588.63
179.46	2482.14
179.68	2584.54
179.90	2729.94
180.13	2785.24
180.35	2457.56
180.57	2498.52
180.79	2842.58
181.01	2641.88
181.23	2535.39
181.45	2674.65
181.67	2826.20
181.90	2838.48
182.12	2531.29
182.34	2420.70
182.56	2783.19
182.78	2760.66
183.00	2465.75
183.22	2539.48
183.44	2418.65
183.66	3194.83
183.89	2645.98
184.11	2478.04
184.33	2856.92
184.55	2891.73
184.77	2600.92
184.99	2559.96
185.21	2723.80
185.43	3035.09
185.65	2453.47
185.87	2449.37
186.10	3014.61
186.32	3092.43
186.54	2588.63
186.76	2527.19
186.98	2875.35
187.20	2662.36
187.42	2543.58
187.64	2557.91
187.86	2760.66
188.08	2932.69
188.30	2490.33
188.52	2559.96
188.75	2899.92
188.97	2932.69
189.19	2529.24
189.41	2457.56
189.63	2727.89
189.85	2631.64
190.07	2396.12
190.29	2373.60
190.51	2815.96
190.73	2568.15
190.95	2768.85
191.17	2486.23
191.39	2475.99
191.61	2713.56
191.84	2492.38
192.06	2564.06
192.28	2478.04
192.50	3155.92
192.72	2619.35
192.94	2525.15
193.16	2867.16
193.38	2721.75
193.60	2498.52
193.82	2676.70
194.04	2899.92
194.26	2656.22
194.48	2504.67
194.70	2531.29
194.92	2664.41
195.14	2813.91
195.36	2414.56
195.58	2516.95
195.80	2662.36
196.02	2682.84
196.24	2527.19
196.46	2557.91
196.69	2656.22
196.91	3041.23
197.13	2633.69
197.35	2691.03
197.57	3012.56
197.79	2781.14
198.01	2660.31
198.23	2621.40
198.45	2695.13
198.67	2500.57
198.89	2435.03
199.11	2627.54
199.33	2596.82
199.55	2410.46
199.77	2512.86
199.99	2609.11
200.21	2635.74
200.43	2762.71
200.65	2455.51
200.87	2355.16
201.09	2621.40
201.31	2674.65
201.53	2521.05
201.75	2582.49
201.97	2768.85
202.19	2783.19
202.41	2580.44
202.63	2688.98
202.85	2787.29
203.07	2854.87
203.29	2529.24
203.51	2371.55
203.73	2605.02
203.95	3139.54
204.17	2504.67
204.39	2602.97
204.61	2693.08
204.83	2750.42
205.05	2629.59
205.27	2525.15
205.49	3022.80
205.71	2744.28
205.93	2389.98
206.15	2463.71
206.37	2826.20
206.59	2766.81
206.81	2303.96
207.03	2469.85
207.25	2611.16
207.47	2830.29
207.69	2447.32
207.91	2713.56
208.13	2971.60
208.34	2557.91
208.56	2521.05
208.78	2619.35
209.00	2719.70
209.22	2635.74
209.44	2584.54
209.66	2537.43
209.88	2772.95
210.10	2602.97
210.32	2527.19
210.54	2572.25
210.76	2695.13
210.98	2836.44
211.20	2330.59
211.42	2598.87
211.64	2928.60
211.86	2836.44
212.08	2605.02
212.30	2533.34
212.52	2652.12
212.74	2764.76
212.96	2623.45
213.17	2625.50
213.39	2777.05
213.61	2967.51
213.83	2527.19
214.05	2418.65
214.27	2832.34
214.49	2543.58
214.71	2457.56
214.93	2641.88
215.15	2686.94
215.37	2856.92
215.59	2310.11
215.81	2605.02
216.03	2856.92
216.24	2856.92
216.46	2506.71
216.68	2572.25
216.90	2854.87
217.12	2861.01
217.34	2455.51
217.56	2627.54
217.78	2906.07
218.00	2815.96
218.22	2564.06
218.44	2545.63
218.66	2785.24
218.87	2953.17
219.09	2482.14
219.31	2494.43
219.53	2682.84
219.75	2656.22
219.97	2527.19
220.19	2449.37
220.41	2680.79
220.63	3016.66
220.85	2590.68
221.06	2510.81
221.28	2924.50
221.50	2842.58
221.72	2490.33
221.94	2482.14
222.16	2684.89
222.38	2840.53
222.60	2582.49
222.82	2537.43
223.03	2852.82
223.25	2592.73
223.47	2506.71
223.69	2660.31
223.91	2899.92
224.13	2717.65
224.35	2459.61
224.57	2686.94
224.78	2783.19
225.00	2553.82
225.22	2555.86
225.44	2551.77
225.66	2777.05
225.88	2586.58
226.10	2605.02
226.32	2512.86
226.53	2957.27
226.75	2648.02
226.97	2635.74
227.19	2562.01
227.41	2600.92
227.63	2670.55
227.85	2334.68
228.06	2545.63
228.28	2705.37
228.50	2875.35
228.72	2443.23
228.94	2400.22
229.16	2424.80
229.37	2625.50
229.59	2490.33
229.81	2699.22
230.03	2703.32
230.25	2531.29
230.47	2373.60
230.69	2453.47
230.90	2777.05
231.12	2551.77
231.34	2580.44
231.56	2582.49
231.78	2496.47
232.00	2676.70
232.21	2463.71
232.43	2504.67
232.65	2349.02
232.87	2777.05
233.09	2402.27
233.30	2576.34
233.52	2858.96
233.74	2803.67
233.96	2508.76
234.18	2639.83
234.40	2613.21
234.61	3092.43
234.83	2504.67
235.05	2424.80
235.27	3110.86
235.49	2854.87
235.70	2418.65
235.92	2607.06
236.14	2856.92
236.36	3067.86
236.58	2346.97
236.79	2566.10
237.01	2777.05
237.23	2727.89
237.45	2713.56
237.67	2541.53
237.88	2848.72
238.10	2955.22
238.32	2449.37
238.54	2514.91
238.76	2725.85
238.97	2557.91
239.19	2447.32
239.41	2615.26
239.63	2807.77
239.85	2682.84
240.06	2580.44
240.28	2533.34
240.50	2838.48
240.72	2748.37
240.93	2445.27
241.15	2584.54
241.37	2717.65
241.59	2883.54
241.81	2566.10
242.02	2551.77
242.24	2775.00
242.46	2899.92
242.68	2502.62
242.89	2543.58
243.11	2842.58
243.33	2648.02
243.55	2535.39
243.76	2516.95
243.98	2572.25
244.20	2678.74
244.42	2482.14
244.64	2578.39
244.85	2602.97
245.07	2600.92
245.29	2568.15
245.51	2498.52
245.72	2676.70
245.94	2891.73
246.16	2576.34
246.38	2635.74
246.59	2691.03
246.81	2605.02
247.03	2506.71
247.24	2324.44
247.46	2645.98
247.68	2703.32
247.90	2531.29
248.11	2537.43
248.33	2850.77
248.55	2793.43
248.77	2525.15
248.98	2611.16
249.20	3018.71
249.42	2711.51
249.64	2559.96
249.85	2525.15
250.07	2695.13
250.29	2891.73
250.50	2654.17
250.72	2443.23
250.94	2779.09
251.16	2959.31
251.37	2580.44
251.59	2574.30
251.81	2844.63
252.02	2969.55
252.24	2492.38
252.46	2584.54
252.68	2678.74
252.89	2721.75
253.11	2330.59
253.33	2664.41
253.54	2899.92
253.76	2551.77
253.98	2510.81
254.20	2514.91
254.41	2512.86
254.63	2605.02
254.85	2416.60
255.06	2568.15
255.28	2777.05
255.50	2645.98
255.71	2473.95
255.93	2432.99
256.15	2641.88
256.36	2707.41
256.58	2377.69
256.80	2516.95
257.02	2729.94
257.23	2643.93
257.45	2510.81
257.67	2543.58
257.88	2686.94
258.10	2822.10
258.32	2551.77
258.53	2574.30
258.75	2930.64
258.97	2670.55
259.18	2463.71
259.40	2506.71
259.62	2969.55
259.83	2940.88
260.05	2521.05
260.27	3147.73
260.48	2881.49
260.70	2588.63
260.92	2430.94
261.13	2478.04
261.35	2801.62
261.57	2850.77
261.78	2396.12
262.00	2455.51
262.22	2824.15
262.43	2635.74
262.65	2535.39
262.86	2533.34
263.08	3074.00
263.30	2781.14
263.51	2349.02
263.73	2504.67
263.95	2928.60
264.16	2592.73
264.38	2404.32
264.60	2453.47
264.81	2766.81
265.03	2877.40
265.25	2758.61
265.46	2490.33
265.68	2897.88
265.89	2820.05
266.11	2457.56
266.33	2480.09
266.54	2893.78
266.76	2752.47
266.98	2637.78
267.19	2629.59
267.41	2916.31
267.62	2717.65
267.84	2377.69
268.06	2645.98
268.27	2768.85
268.49	2850.77
268.70	2602.97
268.92	2615.26
269.14	2725.85
269.35	2525.15
269.57	2590.68
269.79	2637.78
270.00	2555.86
270.22	3002.32
270.43	2478.04
270.65	2408.41
270.87	2756.57
271.08	2899.92
271.30	2596.82
271.51	2523.10
271.73	2828.24
271.95	2961.36
272.16	2473.95
272.38	2625.50
272.59	2645.98
272.81	2799.57
273.02	2447.32
273.24	2592.73
273.46	2818.00
273.67	2506.71
273.89	2412.51
274.10	2480.09
274.32	2940.88
274.54	2760.66
274.75	2621.40
274.97	2598.87
275.18	2867.16
275.40	2826.20
275.61	2559.96
275.83	2711.51
276.05	2607.06
276.26	2756.57
276.48	2586.58
276.69	2582.49
276.91	2602.97
277.12	2936.79
277.34	2686.94
277.55	2740.18
277.77	2705.37
277.99	2703.32
278.20	2566.10
278.42	2543.58
278.63	2572.25
278.85	2578.39
279.06	2588.63
279.28	2691.03
279.49	2932.69
279.71	2815.96
279.93	2719.70
280.14	2648.02
280.36	2596.82
280.57	2754.52
280.79	2701.27
281.00	2482.14
281.22	2639.83
281.43	2920.40
281.65	2449.37
281.86	2547.67
282.08	2813.91
282.29	3059.67
282.51	2525.15
282.73	2494.43
282.94	2488.28
283.16	2901.97
283.37	2723.80
283.59	2648.02
283.80	2830.29
284.02	2758.61
284.23	2641.88
284.45	2637.78
284.66	2555.86
284.88	2537.43
285.09	2605.02
285.31	2641.88
285.52	2799.57
285.74	2475.99
285.95	2723.80
286.17	2621.40
286.38	2871.25
286.60	2613.21
286.81	2580.44
287.03	2613.21
287.24	2719.70
287.46	2838.48
287.67	2670.55
287.89	2758.61
288.10	2760.66
288.32	2760.66
288.53	2785.24
288.75	2709.46
288.96	2848.72
289.18	2625.50
289.39	2547.67
289.61	2635.74
289.82	3049.43
290.04	3022.80
290.25	2498.52
290.47	2627.54
290.68	2717.65
290.90	2893.78
291.11	2463.71
291.33	2768.85
291.54	2539.48
291.76	2645.98
291.97	2738.13
292.18	2719.70
292.40	2600.92
292.61	2570.20
292.83	2826.20
293.04	2705.37
293.26	2818.00
293.47	2611.16
293.69	2613.21
293.90	2582.49
294.12	2920.40
294.33	2682.84
294.55	2637.78
294.76	2834.39
294.97	2947.03
295.19	3030.99
295.40	2627.54
295.62	2652.12
295.83	2867.16
296.05	2555.86
296.26	2750.42
296.48	2656.22
296.69	2684.89
296.90	2725.85
297.12	2787.29
297.33	2715.61
297.55	2701.27
297.76	2834.39
297.98	2785.24
298.19	2701.27
298.41	2719.70
298.62	2525.15
298.83	2777.05
299.05	2693.08
299.26	2641.88
299.48	2643.93
299.69	2656.22
299.90	2617.30
300.12	2555.86
300.33	2828.24
300.55	2596.82
300.76	2691.03
300.98	2539.48
301.19	2830.29
301.40	2625.50
301.62	2559.96
301.83	2807.77
302.05	2727.89
302.26	2664.41
302.47	2641.88
302.69	2576.34
302.90	2772.95
303.12	2418.65
303.33	2652.12
303.54	3055.57
303.76	2664.41
303.97	2674.65
304.19	2856.92
304.40	2572.25
304.61	2854.87
304.83	2791.38
305.04	2721.75
305.26	2793.43
305.47	2654.17
305.68	2582.49
305.90	2545.63
306.11	2861.01
306.33	2654.17
306.54	2545.63
306.75	2531.29
306.97	2602.97
307.18	2596.82
307.39	2521.05
307.61	2691.03
307.82	2736.09
308.04	2791.38
308.25	2572.25
308.46	2705.37
308.68	2791.38
308.89	2729.94
309.10	2711.51
309.32	2691.03
309.53	2760.66
309.74	2815.96
309.96	2607.06
310.17	2785.24
310.39	2629.59
310.60	2863.06
310.81	2719.70
311.03	2539.48
311.24	2799.57
311.45	2613.21
311.67	2805.72
311.88	2648.02
312.09	2715.61
312.31	2564.06
312.52	2613.21
312.73	2584.54
312.95	2465.75
313.16	2553.82
313.37	2758.61
313.59	2752.47
313.80	2795.48
314.01	3020.75
314.23	2547.67
314.44	2531.29
314.65	2564.06
314.87	2559.96
315.08	2662.36
315.29	2623.45
315.51	2521.05
315.72	2498.52
315.93	2729.94
316.15	2680.79
316.36	2652.12
316.57	2672.60
316.79	2621.40
317.00	2506.71
317.21	2856.92
317.43	2637.78
317.64	2605.02
317.85	2576.34
318.07	2662.36
318.28	2639.83
318.49	2711.51
318.70	2842.58
318.92	2797.53
319.13	2781.14
319.34	2762.71
319.56	2656.22
319.77	2854.87
319.98	2824.15
320.20	2842.58
320.41	2738.13
320.62	2836.44
320.83	2559.96
321.05	2856.92
321.26	2678.74
321.47	2748.37
321.69	2815.96
321.90	2514.91
322.11	2615.26
322.32	2809.81
322.54	2971.60
322.75	2588.63
322.96	3145.68
323.18	2494.43
323.39	2428.89
323.60	2512.86
323.81	2703.32
324.03	2674.65
324.24	2715.61
324.45	2748.37
324.66	2623.45
324.88	2832.34
325.09	2883.54
325.30	2566.10
325.52	2627.54
325.73	2768.85
325.94	2598.87
326.15	2475.99
326.37	2562.01
326.58	2844.63
326.79	2920.40
327.00	2471.90
327.22	2705.37
327.43	2723.80
327.64	2672.60
327.85	2742.23
328.07	2627.54
328.28	3010.51
328.49	2600.92
328.70	2621.40
328.92	2639.83
329.13	2723.80
329.34	2695.13
329.55	2787.29
329.76	2752.47
329.98	2705.37
330.19	2887.64
330.40	2648.02
330.61	2670.55
330.83	2787.29
331.04	2594.78
331.25	2670.55
331.46	2611.16
331.68	2527.19
331.89	2901.97
332.10	2594.78
332.31	2564.06
332.52	2723.80
332.74	2822.10
332.95	2437.08
333.16	2527.19
333.37	2822.10
333.58	2656.22
333.80	2623.45
334.01	2469.85
334.22	2645.98
334.43	2494.43
334.64	2537.43
334.86	2566.10
335.07	2553.82
335.28	2957.27
335.49	2480.09
335.70	2676.70
335.92	2910.16
336.13	3061.71
336.34	2748.37
336.55	2639.83
336.76	2768.85
336.98	2473.95
337.19	2629.59
337.40	2801.62
337.61	3125.20
337.82	2750.42
338.04	2752.47
338.25	2482.14
338.46	2764.76
338.67	2713.56
338.88	2521.05
339.09	2553.82
339.31	2619.35
339.52	2494.43
339.73	2541.53
339.94	2627.54
340.15	2834.39
340.36	2641.88
340.58	2631.64
340.79	2559.96
341.00	2854.87
341.21	2609.11
341.42	2799.57
341.63	2574.30
341.85	2856.92
342.06	2727.89
342.27	2541.53
342.48	2781.14
342.69	2519.00
342.90	2736.09
343.12	2856.92
343.33	2570.20
343.54	2877.40
343.75	2926.55
343.96	2637.78
344.17	2676.70
344.38	2711.51
344.60	2650.07
344.81	2543.58
345.02	2553.82
345.23	2891.73
345.44	3084.24
345.65	2695.13
345.86	2648.02
346.07	2766.81
346.29	2633.69
346.50	2744.28
346.71	2676.70
346.92	2916.31
347.13	3143.63
347.34	2676.70
347.55	2533.34
347.76	2772.95
347.98	2543.58
348.19	2621.40
348.40	2809.81
348.61	2631.64
348.82	2947.03
349.03	2688.98
349.24	2588.63
349.45	3002.32
349.66	2465.75
349.88	2639.83
350.09	2627.54
350.30	2899.92
350.51	2828.24
350.72	2676.70
350.93	2596.82
351.14	2613.21
351.35	2803.67
351.56	2660.31
351.77	2600.92
351.99	2846.68
352.20	2947.03
352.41	2740.18
352.62	2342.88
352.83	2668.50
353.04	2713.56
353.25	2594.78
353.46	2672.60
353.67	2891.73
353.88	2445.27
354.09	2576.34
354.30	2629.59
354.52	2854.87
354.73	2668.50
354.94	2559.96
355.15	2617.30
355.36	2996.18
355.57	2625.50
355.78	2615.26
355.99	2662.36
356.20	2637.78
356.41	2944.98
356.62	2637.78
356.83	2639.83
357.04	2877.40
357.25	2514.91
357.46	2633.69
357.68	2519.00
357.89	2613.21
358.10	2650.07
358.31	2723.80
358.52	2590.68
358.73	2553.82
358.94	2510.81
359.15	2600.92
359.36	2674.65
359.57	2643.93
359.78	2729.94
359.99	2709.46
360.20	2525.15
360.41	2666.46
360.62	2840.53
360.83	2654.17
361.04	2590.68
361.25	2686.94
361.46	2926.55
361.67	2738.13
361.88	2613.21
362.09	2830.29
362.30	2772.95
362.51	2564.06
362.72	2652.12
362.93	2815.96
363.14	2772.95
363.35	2688.98
363.56	2510.81
363.78	2785.24
363.99	2885.59
364.20	2613.21
364.41	2670.55
364.62	2930.64
364.83	2750.42
365.04	2576.34
365.25	2652.12
365.46	3035.09
365.67	2580.44
365.88	2742.23
366.09	2588.63
366.30	2664.41
366.51	2768.85
366.72	2533.34
366.93	2613.21
367.14	2719.70
367.35	2836.44
367.56	2549.72
367.77	2727.89
367.98	2725.85
368.18	2691.03
368.39	2715.61
368.60	2459.61
368.81	2824.15
369.02	2865.11
369.23	2607.06
369.44	2420.70
369.65	2562.01
369.86	2768.85
370.07	2693.08
370.28	2527.19
370.49	2731.99
370.70	2834.39
370.91	2584.54
371.12	2387.93
371.33	2846.68
371.54	2576.34
371.75	2836.44
371.96	2398.17
372.17	2643.93
372.38	2648.02
372.59	2674.65
372.80	2578.39
373.01	2668.50
373.22	2785.24
373.43	2600.92
373.64	2506.71
373.85	2916.31
374.06	3026.90
374.26	2762.71
374.47	2738.13
374.68	2924.50
374.89	2697.17
375.10	2584.54
375.31	2777.05
375.52	2760.66
375.73	2754.52
375.94	2469.85
376.15	2760.66
376.36	2625.50
376.57	2674.65
376.78	2592.73
376.99	2697.17
377.20	2836.44
377.40	2674.65
377.61	2842.58
377.82	2504.67
378.03	2990.03
378.24	2805.72
378.45	2643.93
378.66	2707.41
378.87	2545.63
379.08	2482.14
379.29	2598.87
379.50	2818.00
379.71	2656.22
379.91	2871.25
380.12	2680.79
380.33	2645.98
380.54	2738.13
380.75	2715.61
380.96	2562.01
381.17	2643.93
381.38	2787.29
381.59	2764.76
381.80	2738.13
382.00	2908.12
382.21	2736.09
382.42	3051.47
382.63	2863.06
382.84	2834.39
383.05	2906.07
383.26	2930.64
383.47	2666.46
383.68	2588.63
383.88	2742.23
384.09	2746.33
384.30	2891.73
384.51	2686.94
384.72	2727.89
384.93	2574.30
385.14	2664.41
385.35	2865.11
385.55	2510.81
385.76	2828.24
385.97	2652.12
386.18	2506.71
386.39	2504.67
386.60	2680.79
386.81	2580.44
387.02	2494.43
387.22	2578.39
387.43	2838.48
387.64	2717.65
387.85	2834.39
388.06	2705.37
388.27	3952.58
388.48	7569.29
388.68	10960.73
388.89	13346.61
389.10	14366.50
389.31	13662.00
389.52	10854.23
389.73	9297.78
389.93	8511.36
390.14	7737.23
390.35	7047.06
390.56	6313.89
390.77	5224.37
390.98	4071.36
391.18	3350.48
391.39	3121.10
391.60	2744.28
391.81	2813.91
392.02	2615.26
392.23	3033.04
392.43	2797.53
392.64	2850.77
392.85	2637.78
393.06	2985.94
393.27	2734.04
393.47	2641.88
393.68	2629.59
393.89	2693.08
394.10	2881.49
394.31	2568.15
394.52	2602.97
394.72	2650.07
394.93	2977.75
395.14	2531.29
395.35	2705.37
395.56	2605.02
395.76	2666.46
395.97	2660.31
396.18	2748.37
396.39	2752.47
396.60	3221.45
396.80	2934.74
397.01	2723.80
397.22	2856.92
397.43	2924.50
397.64	2660.31
397.84	2697.17
398.05	3026.90
398.26	2742.23
398.47	2703.32
398.67	2813.91
398.88	2697.17
399.09	2856.92
399.30	2615.26
399.51	2691.03
399.71	2574.30
399.92	2701.27
400.13	2758.61
400.34	2600.92
400.54	2684.89
400.75	2994.13
400.96	2641.88
401.17	2854.87
401.37	2793.43
401.58	2764.76
401.79	2643.93
402.00	2758.61
402.21	3166.16
402.41	2916.31
402.62	2912.21
402.83	2987.99
403.04	3157.97
403.24	3422.16
403.45	2643.93
403.66	2912.21
403.87	2826.20
404.07	3024.85
404.28	2865.11
404.49	2885.59
404.70	2772.95
404.90	2858.96
405.11	2656.22
405.32	2777.05
405.52	2643.93
405.73	2613.21
405.94	2545.63
406.15	2666.46
406.35	2803.67
406.56	2770.90
406.77	2711.51
406.98	2750.42
407.18	2682.84
407.39	2938.84
407.60	2637.78
407.80	2723.80
408.01	2686.94
408.22	2738.13
408.43	2605.02
408.63	2750.42
408.84	2818.00
409.05	2826.20
409.25	2551.77
409.46	2580.44
409.67	2623.45
409.88	2680.79
410.08	2723.80
410.29	2598.87
410.50	2824.15
410.70	2783.19
410.91	2559.96
411.12	2672.60
411.32	2707.41
411.53	2586.58
411.74	2691.03
411.95	2736.09
412.15	2731.99
412.36	2848.72
412.57	2641.88
412.77	2779.09
412.98	2748.37
413.19	2621.40
413.39	2617.30
413.60	2656.22
413.81	2975.70
414.01	2627.54
414.22	2697.17
414.43	2736.09
414.63	2691.03
414.84	2863.06
415.05	2580.44
415.25	2533.34
415.46	2834.39
415.67	2734.04
415.87	2744.28
416.08	2605.02
416.29	2668.50
416.49	2752.47
416.70	2615.26
416.91	2611.16
417.11	2686.94
417.32	2850.77
417.53	2705.37
417.73	2738.13
417.94	2713.56
418.15	2686.94
418.35	2588.63
418.56	2662.36
418.77	3086.29
418.97	2797.53
419.18	2625.50
419.38	2357.21
419.59	2789.33
419.80	2906.07
420.00	2600.92
420.21	2691.03
420.42	2934.74
420.62	2750.42
420.83	2605.02
421.04	2572.25
421.24	2691.03
421.45	2740.18
421.65	2793.43
421.86	2656.22
422.07	2781.14
422.27	2783.19
422.48	2654.17
422.69	2539.48
422.89	2729.94
423.10	2662.36
423.30	2549.72
423.51	2715.61
423.72	2742.23
423.92	2881.49
424.13	2531.29
424.33	2723.80
424.54	2881.49
424.75	2770.90
424.95	2838.48
425.16	2633.69
425.36	2727.89
425.57	2846.68
425.78	2830.29
425.98	2789.33
426.19	2686.94
426.39	2580.44
426.60	2660.31
426.81	2856.92
427.01	2725.85
427.22	2650.07
427.42	2469.85
427.63	2559.96
427.83	2822.10
428.04	2990.03
428.25	2686.94
428.45	2750.42
428.66	2901.97
428.86	2641.88
429.07	2648.02
429.28	2699.22
429.48	2746.33
429.69	2602.97
429.89	2668.50
430.10	2496.47
430.30	2748.37
430.51	2856.92
430.71	2568.15
430.92	2609.11
431.13	2662.36
431.33	2723.80
431.54	2725.85
431.74	2842.58
431.95	3024.85
432.15	2580.44
432.36	2691.03
432.56	2691.03
432.77	3030.99
432.98	2912.21
433.18	2654.17
433.39	2521.05
433.59	2656.22
433.80	3043.28
434.00	2879.44
434.21	2658.26
434.41	2494.43
434.62	3057.62
434.82	2506.71
435.03	2619.35
435.23	2731.99
435.44	2527.19
435.64	2508.76
435.85	2691.03
436.06	2842.58
436.26	2848.72
436.47	2578.39
436.67	2568.15
436.88	2670.55
437.08	2893.78
437.29	2744.28
437.49	2682.84
437.70	2906.07
437.90	2617.30
438.11	2809.81
438.31	2631.64
438.52	2904.02
438.72	2856.92
438.93	2949.08
439.13	2701.27
439.34	2891.73
439.54	2666.46
439.75	2758.61
439.95	2742.23
440.16	2615.26
440.36	2602.97
440.57	2699.22
440.77	2627.54
440.98	2775.00
441.18	2758.61
441.39	2527.19
441.59	2551.77
441.80	3092.43
442.00	2748.37
442.21	2770.90
442.41	2600.92
442.62	2940.88
442.82	2568.15
443.02	2645.98
443.23	2656.22
443.43	2645.98
443.64	2990.03
443.84	2588.63
444.05	2760.66
444.25	2670.55
444.46	2637.78
444.66	2592.73
444.87	2887.64
445.07	2519.00
445.28	2668.50
445.48	2846.68
445.69	2775.00
445.89	3051.47
446.09	2742.23
446.30	3024.85
446.50	3149.78
446.71	4630.46
446.91	5547.95
447.12	6293.41
447.32	6864.79
447.53	6377.37
447.73	5384.11
447.93	4865.97
448.14	4673.46
448.34	4450.24
448.55	3907.52
448.75	3864.52
448.96	3637.19
449.16	3495.88
449.36	3387.34
449.57	2940.88
449.77	2701.27
449.98	2627.54
450.18	2781.14
450.39	2637.78
450.59	2736.09
450.79	2754.52
451.00	2621.40
451.20	2838.48
451.41	2594.78
451.61	2805.72
451.81	2766.81
452.02	2699.22
452.22	2627.54
452.43	2680.79
452.63	2699.22
452.84	2656.22
453.04	2627.54
453.24	2762.71
453.45	2590.68
453.65	2668.50
453.86	2641.88
454.06	2815.96
454.26	2783.19
454.47	2574.30
454.67	2799.57
454.87	2873.30
455.08	2711.51
455.28	2807.77
455.49	2734.04
455.69	2641.88
455.89	3082.19
456.10	2783.19
456.30	2611.16
456.51	2777.05
456.71	2789.33
456.91	2725.85
457.12	2637.78
457.32	2822.10
457.52	2525.15
457.73	2729.94
457.93	2740.18
458.14	2699.22
458.34	2514.91
458.54	2609.11
458.75	2666.46
458.95	2846.68
459.15	2770.90
459.36	2639.83
459.56	2691.03
459.76	3108.82
459.97	2758.61
460.17	2643.93
460.37	2752.47
460.58	2746.33
460.78	2766.81
460.99	2664.41
461.19	2666.46
461.39	2760.66
461.60	2648.02
461.80	2738.13
462.00	2506.71
462.21	2740.18
462.41	2633.69
462.61	2521.05
462.82	2432.99
463.02	2809.81
463.22	2717.65
463.43	2803.67
463.63	2602.97
463.83	2908.12
464.04	2785.24
464.24	2627.54
464.44	2619.35
464.64	2736.09
464.85	2869.20
465.05	2682.84
465.25	2598.87
465.46	2668.50
465.66	2752.47
465.86	2760.66
466.07	2631.64
466.27	2658.26
466.47	2555.86
466.68	2514.91
466.88	2740.18
467.08	2809.81
467.29	2899.92
467.49	2721.75
467.69	2713.56
467.89	2826.20
468.10	2680.79
468.30	2793.43
468.50	2801.62
468.71	2901.97
468.91	2594.78
469.11	2791.38
469.31	2699.22
469.52	2549.72
469.72	2963.41
469.92	2891.73
470.13	2709.46
470.33	2766.81
470.53	2764.76
470.73	3033.04
470.94	3325.90
471.14	3407.82
471.34	3747.78
471.54	3639.24
471.75	3360.72
471.95	3096.53
472.15	3157.97
472.36	3164.11
472.56	3102.67
472.76	3082.19
472.96	3030.99
473.17	2934.74
473.37	2856.92
473.57	2746.33
473.77	2867.16
473.98	2660.31
474.18	2506.71
474.38	3059.67
474.58	2629.59
474.79	2582.49
474.99	2729.94
475.19	2897.88
475.39	2586.58
475.60	2725.85
475.80	2713.56
476.00	2762.71
476.20	2631.64
476.41	2654.17
476.61	2699.22
476.81	2973.65
477.01	2588.63
477.21	2865.11
477.42	2822.10
477.62	2645.98
477.82	2809.81
478.02	2547.67
478.23	2699.22
478.43	2621.40
478.63	2633.69
478.83	2664.41
479.03	2652.12
479.24	2983.89
479.44	3098.58
479.64	2547.67
479.84	2502.62
480.04	2631.64
480.25	2846.68
480.45	2588.63
480.65	2590.68
480.85	2889.68
481.06	2684.89
481.26	2807.77
481.46	2639.83
481.66	2756.57
481.86	2594.78
482.06	2803.67
482.27	2607.06
482.47	2635.74
482.67	2803.67
482.87	2660.31
483.07	2719.70
483.28	2680.79
483.48	2549.72
483.68	2539.48
483.88	2594.78
484.08	2396.12
484.29	2607.06
484.49	2699.22
484.69	2529.24
484.89	2840.53
485.09	2895.83
485.29	2707.41
485.50	2709.46
485.70	2682.84
485.90	2879.44
486.10	2770.90
486.30	2695.13
486.50	2916.31
486.71	2768.85
486.91	2809.81
487.11	2772.95
487.31	2562.01
487.51	2756.57
487.71	2551.77
487.91	2643.93
488.12	2600.92
488.32	2344.92
488.52	2627.54
488.72	2426.84
488.92	2764.76
489.12	2934.74
489.32	2766.81
489.53	2682.84
489.73	2543.58
489.93	3004.37
490.13	2586.58
490.33	2586.58
490.53	2793.43
490.73	2885.59
490.94	2475.99
491.14	2762.71
491.34	2822.10
491.54	2990.03
491.74	3495.88
491.94	4169.66
492.14	4335.55
492.34	4450.24
492.54	4126.66
492.75	3547.08
492.95	3493.83
493.15	3301.33
493.35	3336.14
493.55	3139.54
493.75	3205.07
493.95	3274.70
494.15	2883.54
494.35	2762.71
494.56	2738.13
494.76	2643.93
494.96	2797.53
495.16	2672.60
495.36	2736.09
495.56	2836.44
495.76	2613.21
495.96	2650.07
496.16	2693.08
496.36	3037.14
496.56	2709.46
496.77	2701.27
496.97	2738.13
497.17	2947.03
497.37	2465.75
497.57	2701.27
497.77	2797.53
497.97	2643.93
498.17	2697.17
498.37	2648.02
498.57	2785.24
498.77	2598.87
498.97	2768.85
499.17	2936.79
499.38	2729.94
499.58	2764.76
499.78	2842.58
499.98	2752.47
500.18	2678.74
500.38	2611.16
500.58	2942.93
500.78	3239.89
500.98	5414.83
501.18	7073.68
501.38	8849.27
501.58	9514.86
501.78	9396.08
501.98	7548.81
502.18	6430.62
502.38	5494.70
502.58	5318.57
502.78	4820.92
502.98	4501.44
503.18	4290.49
503.38	4100.03
503.59	3522.51
503.79	3520.46
503.99	3225.55
504.19	3198.93
504.39	3123.15
504.59	3121.10
504.79	3002.32
504.99	3164.11
505.19	2971.60
505.39	2893.78
505.59	3037.14
505.79	3047.38
505.99	2809.81
506.19	2658.26
506.39	2938.84
506.59	2662.36
506.79	2668.50
506.99	2818.00
507.19	2590.68
507.39	2775.00
507.59	2590.68
507.79	2545.63
507.99	2584.54
508.19	2709.46
508.39	2592.73
508.59	2666.46
508.79	2879.44
508.99	3033.04
509.19	2631.64
509.39	2731.99
509.59	2539.48
509.79	2637.78
509.99	2664.41
510.19	2772.95
510.39	2822.10
510.59	2754.52
510.79	2596.82
510.99	2549.72
511.19	2592.73
511.39	2885.59
511.59	3006.42
511.79	2815.96
511.99	2684.89
512.19	3006.42
512.38	2713.56
512.58	2580.44
512.78	2631.64
512.98	2861.01
513.18	2838.48
513.38	2580.44
513.58	2611.16
513.78	2701.27
513.98	2801.62
514.18	2715.61
514.38	2625.50
514.58	2760.66
514.78	2609.11
514.98	2600.92
515.18	2629.59
515.38	2578.39
515.58	2990.03
515.78	2596.82
515.98	2682.84
516.18	2854.87
516.38	2691.03
516.57	2609.11
516.77	2566.10
516.97	2760.66
517.17	2707.41
517.37	2418.65
517.57	2758.61
517.77	2742.23
517.97	2605.02
518.17	2652.12
518.37	2660.31
518.57	2625.50
518.77	2709.46
518.97	2711.51
519.16	2664.41
519.36	2928.60
519.56	2564.06
519.76	2615.26
519.96	2691.03
520.16	2987.99
520.36	2617.30
520.56	2785.24
520.76	2619.35
520.96	2758.61
521.16	2791.38
521.35	2856.92
521.55	2842.58
521.75	2711.51
521.95	2682.84
522.15	2674.65
522.35	2473.95
522.55	2609.11
522.75	2908.12
522.95	2613.21
523.14	2537.43
523.34	2697.17
523.54	2736.09
523.74	2703.32
523.94	2748.37
524.14	2596.82
524.34	2736.09
524.54	2842.58
524.73	2572.25
524.93	2818.00
525.13	2701.27
525.33	2523.10
525.53	2871.25
525.73	2920.40
525.93	2781.14
526.13	2619.35
526.32	2670.55
526.52	2854.87
526.72	2861.01
526.92	2650.07
527.12	2602.97
527.32	2484.19
527.52	2758.61
527.71	2713.56
527.91	2621.40
528.11	2727.89
528.31	2674.65
528.51	2568.15
528.71	2746.33
528.90	2791.38
529.10	2877.40
529.30	2731.99
529.50	2445.27
529.70	2779.09
529.90	2703.32
530.09	2693.08
530.29	2568.15
530.49	2576.34
530.69	3098.58
530.89	2670.55
531.09	2756.57
531.28	2678.74
531.48	2883.54
531.68	2674.65
531.88	2600.92
532.08	2873.30
532.28	2648.02
532.47	2744.28
532.67	2768.85
532.87	2750.42
533.07	2619.35
533.27	2736.09
533.46	2752.47
533.66	2809.81
533.86	2734.04
534.06	2734.04
534.26	2627.54
534.45	2691.03
534.65	2869.20
534.85	2744.28
535.05	2580.44
535.25	2875.35
535.44	2553.82
535.64	2777.05
535.84	2645.98
536.04	2590.68
536.24	2621.40
536.43	2572.25
536.63	2682.84
536.83	2721.75
537.03	2650.07
537.22	2461.66
537.42	2488.28
537.62	2795.48
537.82	2570.20
538.02	2748.37
538.21	2834.39
538.41	3135.44
538.61	2818.00
538.81	2668.50
539.00	2826.20
539.20	2496.47
539.40	2629.59
539.60	2731.99
539.79	2760.66
539.99	2744.28
540.19	2672.60
540.39	2611.16
540.58	2691.03
540.78	2926.55
540.98	2713.56
541.18	2807.77
541.37	2711.51
541.57	2723.80
541.77	2775.00
541.97	2602.97
542.16	2545.63
542.36	2672.60
542.56	2668.50
542.76	2797.53
542.95	2770.90
543.15	2770.90
543.35	2883.54
543.54	2543.58
543.74	2533.34
543.94	2906.07
544.14	2715.61
544.33	2799.57
544.53	2660.31
544.73	2645.98
544.93	2650.07
545.12	2662.36
545.32	2705.37
545.52	2660.31
545.71	2525.15
545.91	2680.79
546.11	2654.17
546.30	2439.13
546.50	2699.22
546.70	2793.43
546.90	2598.87
547.09	2473.95
547.29	2719.70
547.49	2795.48
547.68	2611.16
547.88	2545.63
548.08	2965.46
548.27	3061.71
548.47	2525.15
548.67	2648.02
548.87	2803.67
549.06	2629.59
549.26	2574.30
549.46	2783.19
549.65	2613.21
549.85	2727.89
550.05	2678.74
550.24	2506.71
550.44	2695.13
550.64	2670.55
550.83	2643.93
551.03	2963.41
551.23	2994.13
551.42	2686.94
551.62	2600.92
551.82	2760.66
552.01	2660.31
552.21	2877.40
552.41	2787.29
552.60	2942.93
552.80	2826.20
553.00	2621.40
553.19	2693.08
553.39	3006.42
553.59	2535.39
553.78	2725.85
553.98	2637.78
554.17	2555.86
554.37	2754.52
554.57	2758.61
554.76	2559.96
554.96	2688.98
555.16	2699.22
555.35	2824.15
555.55	2723.80
555.75	2691.03
555.94	2856.92
556.14	2480.09
556.33	2734.04
556.53	2748.37
556.73	2760.66
556.92	2734.04
557.12	2670.55
557.32	3037.14
557.51	2957.27
557.71	2736.09
557.90	2791.38
558.10	2852.82
558.30	2600.92
558.49	2588.63
558.69	2625.50
558.88	2764.76
559.08	2797.53
559.28	2682.84
559.47	2670.55
559.67	2789.33
559.86	3012.56
560.06	2641.88
560.26	2588.63
560.45	2754.52
560.65	2729.94
560.84	2834.39
561.04	2545.63
561.24	2852.82
561.43	2547.67
561.63	2881.49
561.82	2674.65
562.02	2758.61
562.22	2682.84
562.41	2584.54
562.61	2617.30
562.80	2637.78
563.00	3084.24
563.19	2703.32
563.39	2707.41
563.59	2734.04
563.78	2635.74
563.98	2441.18
564.17	2572.25
564.37	2512.86
564.56	2731.99
564.76	2564.06
564.96	2772.95
565.15	2756.57
565.35	3145.68
565.54	2564.06
565.74	2762.71
565.93	2799.57
566.13	2770.90
566.32	2703.32
566.52	2752.47
566.71	2697.17
566.91	2940.88
567.11	2693.08
567.30	2580.44
567.50	2824.15
567.69	2820.05
567.89	2619.35
568.08	2475.99
568.28	2742.23
568.47	2590.68
568.67	2713.56
568.86	2652.12
569.06	2869.20
569.25	2729.94
569.45	2543.58
569.64	2746.33
569.84	2662.36
570.04	2832.34
570.23	2637.78
570.43	2656.22
570.62	2729.94
570.82	2990.03
571.01	2654.17
571.21	2559.96
571.40	2568.15
571.60	2838.48
571.79	2801.62
571.99	2686.94
572.18	2578.39
572.38	2799.57
572.57	2609.11
572.77	2693.08
572.96	3145.68
573.16	2785.24
573.35	2635.74
573.55	2895.83
573.74	2818.00
573.94	2703.32
574.13	2584.54
574.33	2850.77
574.52	2908.12
574.71	2686.94
574.91	2748.37
575.10	2494.43
575.30	2723.80
575.49	2605.02
575.69	2539.48
575.88	2748.37
576.08	2643.93
576.27	2822.10
576.47	2615.26
576.66	2799.57
576.86	2904.02
577.05	2734.04
577.25	2764.76
577.44	2856.92
577.64	2721.75
577.83	2883.54
578.02	2670.55
578.22	2822.10
578.41	3006.42
578.61	2736.09
578.80	2541.53
579.00	2705.37
579.19	2799.57
579.39	2750.42
579.58	2813.91
579.77	2701.27
579.97	2885.59
580.16	2924.50
580.36	2807.77
580.55	2758.61
580.75	2731.99
580.94	2754.52
581.13	2881.49
581.33	2885.59
581.52	2746.33
581.72	3067.86
581.91	2824.15
582.11	2682.84
582.30	2893.78
582.49	2826.20
582.69	2873.30
582.88	2793.43
583.08	2744.28
583.27	2922.45
583.47	2721.75
583.66	2680.79
583.85	2670.55
584.05	2691.03
584.24	2822.10
584.44	2731.99
584.63	2803.67
584.82	2918.36
585.02	2883.54
585.21	2787.29
585.41	2822.10
585.60	2783.19
585.79	2885.59
585.99	2883.54
586.18	2842.58
586.37	3479.50
586.57	5390.25
586.76	16056.08
586.96	34653.68
587.15	47963.43
587.34	56407.20
587.54	60757.09
587.73	54379.71
587.93	38307.26
588.12	29171.27
588.31	23846.55
588.51	20881.09
588.70	19156.70
588.89	17012.48
589.09	14577.44
589.28	12308.29
589.47	9785.19
589.67	7466.89
589.86	5982.12
590.06	4562.87
590.25	3833.80
590.44	3465.16
590.64	3178.45
590.83	2918.36
591.02	2901.97
591.22	2750.42
591.41	2762.71
591.60	2731.99
591.80	3133.39
591.99	2564.06
592.18	2678.74
592.38	2811.86
592.57	2584.54
592.76	2766.81
592.96	2750.42
593.15	2781.14
593.34	2883.54
593.54	2701.27
593.73	2793.43
593.92	2799.57
594.12	2869.20
594.31	2688.98
594.50	2879.44
594.70	2789.33
594.89	3063.76
595.08	2639.83
595.28	2815.96
595.47	3151.82
595.66	2920.40
595.86	2623.45
596.05	2576.34
596.24	2633.69
596.43	3018.71
596.63	2791.38
596.82	2736.09
597.01	2867.16
597.21	3010.51
597.40	2754.52
597.59	2688.98
597.79	2686.94
597.98	2834.39
598.17	2760.66
598.36	2699.22
598.56	2861.01
598.75	2705.37
598.94	2731.99
599.14	2762.71
599.33	2605.02
599.52	2889.68
599.71	2664.41
599.91	2742.23
600.10	2826.20
600.29	2793.43
600.48	2789.33
600.68	2777.05
600.87	2734.04
601.06	2658.26
601.26	2684.89
601.45	2723.80
601.64	2678.74
601.83	2885.59
602.03	2633.69
602.22	2588.63
602.41	2850.77
602.60	3100.62
602.80	2740.18
602.99	2684.89
603.18	2652.12
603.37	2742.23
603.57	2641.88
603.76	2709.46
603.95	2871.25
604.14	2703.32
604.34	2514.91
604.53	2658.26
604.72	2754.52
604.91	2865.11
605.10	2719.70
605.30	2498.52
605.49	3014.61
605.68	2738.13
605.87	2650.07
606.07	2545.63
606.26	2693.08
606.45	2756.57
606.64	2727.89
606.84	2600.92
607.03	2691.03
607.22	2906.07
607.41	2686.94
607.60	2678.74
607.80	2844.63
607.99	2703.32
608.18	2742.23
608.37	2607.06
608.56	2602.97
608.76	2901.97
608.95	2832.34
609.14	2596.82
609.33	2881.49
609.52	2957.27
609.72	2742.23
609.91	2746.33
610.10	2805.72
610.29	2936.79
610.48	2764.76
610.68	2768.85
610.87	2703.32
611.06	2803.67
611.25	2682.84
611.44	2871.25
611.63	2715.61
611.83	2971.60
612.02	2562.01
612.21	2736.09
612.40	2406.36
612.59	2594.78
612.79	2572.25
612.98	2711.51
613.17	2985.94
613.36	2756.57
613.55	2832.34
613.74	2725.85
613.93	2824.15
614.13	2842.58
614.32	2899.92
614.51	2799.57
614.70	2723.80
614.89	2682.84
615.08	2826.20
615.28	3088.34
615.47	2637.78
615.66	2818.00
615.85	2666.46
616.04	2809.81
616.23	2738.13
616.42	2818.00
616.62	2660.31
616.81	2688.98
617.00	2727.89
617.19	2793.43
617.38	2654.17
617.57	2650.07
617.76	2783.19
617.95	2834.39
618.15	2740.18
618.34	2926.55
618.53	2572.25
618.72	2936.79
618.91	2818.00
619.10	2822.10
619.29	2699.22
619.48	2738.13
619.68	2572.25
619.87	2713.56
620.06	2553.82
620.25	2840.53
620.44	2635.74
620.63	2635.74
620.82	2699.22
621.01	2768.85
621.20	2631.64
621.39	2752.47
621.59	2758.61
621.78	2635.74
621.97	2664.41
622.16	2672.60
622.35	2797.53
622.54	2938.84
622.73	2779.09
622.92	2482.14
623.11	2842.58
623.30	2748.37
623.49	2738.13
623.68	2572.25
623.88	2906.07
624.07	2672.60
624.26	2586.58
624.45	2660.31
624.64	2699.22
624.83	2775.00
625.02	2619.35
625.21	2615.26
625.40	2805.72
625.59	2920.40
625.78	2654.17
625.97	2766.81
626.16	3014.61
626.35	2897.88
626.54	2617.30
626.74	2826.20
626.93	2709.46
627.12	2713.56
627.31	2777.05
627.50	2721.75
627.69	2957.27
627.88	2553.82
628.07	2643.93
628.26	2512.86
628.45	2611.16
628.64	2613.21
628.83	2607.06
629.02	2523.10
629.21	2824.15
629.40	2793.43
629.59	2631.64
629.78	2633.69
629.97	2709.46
630.16	2691.03
630.35	2615.26
630.54	2688.98
630.73	2693.08
630.92	2697.17
631.11	2613.21
631.30	2703.32
631.49	2840.53
631.68	2707.41
631.87	2744.28
632.06	2506.71
632.25	3106.77
632.44	2703.32
632.63	2742.23
632.82	2674.65
633.01	2643.93
633.20	2799.57
633.39	2613.21
633.58	2547.67
633.77	2766.81
633.96	2754.52
634.15	2734.04
634.34	2701.27
634.53	2742.23
634.72	2629.59
634.91	2473.95
635.10	2734.04
635.29	2846.68
635.48	2754.52
635.67	2547.67
635.86	2566.10
636.05	2944.98
636.24	2658.26
636.43	2703.32
636.62	2682.84
636.81	2412.51
637.00	2697.17
637.19	2713.56
637.38	2615.26
637.57	2680.79
637.76	2695.13
637.95	2777.05
638.14	2699.22
638.33	2746.33
638.52	2754.52
638.71	2535.39
638.89	2557.91
639.08	3061.71
639.27	2848.72
639.46	2858.96
639.65	3139.54
639.84	3217.36
640.03	3200.98
640.22	3100.62
640.41	3164.11
640.60	2936.79
640.79	2936.79
640.98	2787.29
641.17	2824.15
641.36	2953.17
641.55	2803.67
641.74	2648.02
641.92	2699.22
642.11	2631.64
642.30	2744.28
642.49	2564.06
642.68	2588.63
642.87	2781.14
643.06	2869.20
643.25	2529.24
643.44	2531.29
643.63	2738.13
643.82	2783.19
644.00	2580.44
644.19	2564.06
644.38	2580.44
644.57	2740.18
644.76	2623.45
644.95	2670.55
645.14	2697.17
645.33	2695.13
645.52	2627.54
645.71	2527.19
645.89	2564.06
646.08	2650.07
646.27	2676.70
646.46	2844.63
646.65	2570.20
646.84	2764.76
647.03	2590.68
647.22	2791.38
647.40	2783.19
647.59	2752.47
647.78	2490.33
647.97	2588.63
648.16	2584.54
648.35	2940.88
648.54	2846.68
648.73	2650.07
648.91	2899.92
649.10	2731.99
649.29	2564.06
649.48	2617.30
649.67	2809.81
649.86	2711.51
650.05	2648.02
650.23	2830.29
650.42	2701.27
650.61	2996.18
650.80	2824.15
650.99	2959.31
651.18	2885.59
651.36	2875.35
651.55	2539.48
651.74	2693.08
651.93	2791.38
652.12	2701.27
652.31	2709.46
652.49	2691.03
652.68	2684.89
652.87	2971.60
653.06	2688.98
653.25	2869.20
653.44	2691.03
653.62	2926.55
653.81	2686.94
654.00	2695.13
654.19	2775.00
654.38	3153.87
654.56	2729.94
654.75	2637.78
654.94	2912.21
655.13	2848.72
655.32	2564.06
655.51	2803.67
655.69	2627.54
655.88	2740.18
656.07	2533.34
656.26	2684.89
656.45	2559.96
656.63	2768.85
656.82	2723.80
657.01	2734.04
657.20	2693.08
657.38	2914.26
657.57	2611.16
657.76	2537.43
657.95	2826.20
658.14	2711.51
658.32	2701.27
658.51	2506.71
658.70	2809.81
658.89	2686.94
659.08	2637.78
659.26	2863.06
659.45	2615.26
659.64	2809.81
659.83	2629.59
660.01	3018.71
660.20	2783.19
660.39	3030.99
660.58	2400.22
660.76	2695.13
660.95	2486.23
661.14	2713.56
661.33	2596.82
661.51	2564.06
661.70	2658.26
661.89	2865.11
662.08	2699.22
662.26	2490.33
662.45	2615.26
662.64	2979.79
662.83	2703.32
663.01	2531.29
663.20	2637.78
663.39	2959.31
663.58	2703.32
663.76	2635.74
663.95	2826.20
664.14	2592.73
664.32	2605.02
664.51	2562.01
664.70	2490.33
664.89	2789.33
665.07	2621.40
665.26	2705.37
665.45	2502.62
665.64	2772.95
665.82	2693.08
666.01	2828.24
666.20	2502.62
666.38	2895.83
666.57	2836.44
666.76	4304.83
666.95	10006.38
667.13	16817.92
667.32	20909.76
667.51	23731.86
667.69	24891.01
667.88	21483.19
668.07	15345.43
668.25	12883.77
668.44	11052.89
668.63	9572.21
668.81	8550.27
669.00	7393.17
669.19	6518.68
669.38	5783.46
669.56	4855.73
669.75	4171.71
669.94	3821.51
670.12	3213.26
670.31	2936.79
670.50	2881.49
670.68	2826.20
670.87	2801.62
671.06	2686.94
671.24	2750.42
671.43	3088.34
671.62	2762.71
671.80	2656.22
671.99	2674.65
672.18	2746.33
672.36	2912.21
672.55	2795.48
672.74	2652.12
672.92	2676.70
673.11	2811.86
673.29	2582.49
673.48	2811.86
673.67	2572.25
673.85	2940.88
674.04	2607.06
674.23	2721.75
674.41	3024.85
674.60	2533.34
674.79	2457.56
674.97	2654.17
675.16	2779.09
675.34	2963.41
675.53	2707.41
675.72	2715.61
675.90	2990.03
676.09	2637.78
676.28	2682.84
676.46	2529.24
676.65	2842.58
676.83	2672.60
677.02	2666.46
677.21	2717.65
677.39	2766.81
677.58	2625.50
677.77	2605.02
677.95	2568.15
678.14	2648.02
678.32	2633.69
678.51	2607.06
678.70	2969.55
678.88	2555.86
679.07	2678.74
679.25	2584.54
679.44	2654.17
679.63	2541.53
679.81	2731.99
680.00	2856.92
680.18	2695.13
680.37	2951.12
680.55	2781.14
680.74	2553.82
680.93	2426.84
681.11	2736.09
681.30	2758.61
681.48	2697.17
681.67	2648.02
681.85	2684.89
682.04	2637.78
682.23	2766.81
682.41	2756.57
682.60	2676.70
682.78	2684.89
682.97	2615.26
683.15	2711.51
683.34	2680.79
683.53	2912.21
683.71	2475.99
683.90	2760.66
684.08	3020.75
684.27	2623.45
684.45	2711.51
684.64	2807.77
684.82	2682.84
685.01	2746.33
685.19	2676.70
685.38	2891.73
685.57	2676.70
685.75	2607.06
685.94	2629.59
686.12	2541.53
686.31	2572.25
686.49	2936.79
686.68	2426.84
686.86	2631.64
687.05	2744.28
687.23	2914.26
687.42	2609.11
687.60	2428.89
687.79	2856.92
687.97	2899.92
688.16	2758.61
688.34	2818.00
688.53	2430.94
688.71	2744.28
688.90	2875.35
689.08	2627.54
689.27	2465.75
689.45	2791.38
689.64	2842.58
689.82	2752.47
690.01	2807.77
690.19	2781.14
690.38	2680.79
690.56	2760.66
690.75	2594.78
690.93	2703.32
691.12	2629.59
691.30	2695.13
691.49	2686.94
691.67	2723.80
691.86	3010.51
692.04	2611.16
692.23	2666.46
692.41	2705.37
692.60	2904.02
692.78	2875.35
692.97	2768.85
693.15	2858.96
693.34	2877.40
693.52	2775.00
693.71	2662.36
693.89	2631.64
694.08	2447.32
694.26	2830.29
694.44	2834.39
694.63	2865.11
694.81	2539.48
695.00	2564.06
695.18	2889.68
695.37	3100.62
695.55	2707.41
695.74	2713.56
695.92	2688.98
696.10	2871.25
696.29	2539.48
696.47	2643.93
696.66	2498.52
696.84	2576.34
697.03	2707.41
697.21	2926.55
697.40	4071.36
697.58	2899.92
697.76	2568.15
697.95	2617.30
698.13	2578.39
698.32	2648.02
698.50	2709.46
698.68	2658.26
698.87	2758.61
699.05	3006.42
699.24	2654.17
699.42	2547.67
699.61	2693.08
699.79	2750.42
699.97	2676.70
700.16	2539.48
700.34	2551.77
700.53	2719.70
700.71	2883.54
700.89	2793.43
701.08	2684.89
701.26	2701.27
701.45	3104.72
701.63	2607.06
701.81	2617.30
702.00	2596.82
702.18	2719.70
702.37	2617.30
702.55	2973.65
702.73	2789.33
702.92	2639.83
703.10	2953.17
703.28	2906.07
703.47	2725.85
703.65	2848.72
703.84	2906.07
704.02	2717.65
704.20	3024.85
704.39	2584.54
704.57	2578.39
704.75	2826.20
704.94	2805.72
705.12	2727.89
705.30	3119.06
705.49	5791.66
705.67	11857.74
705.86	17389.30
706.04	20053.71
706.22	22689.45
706.41	22388.39
706.59	17530.61
706.77	13209.40
706.96	11358.03
707.14	10332.00
707.32	8966.01
707.51	7966.60
707.69	6477.73
707.87	5414.83
708.06	4493.24
708.24	3897.28
708.42	3311.57
708.61	3358.67
708.79	2789.33
708.97	2822.10
709.16	2809.81
709.34	2760.66
709.52	2662.36
709.71	2705.37
709.89	2822.10
710.07	2643.93
710.26	2545.63
710.44	2684.89
710.62	2779.09
710.80	2748.37
710.99	2799.57
711.17	2848.72
711.35	2654.17
711.54	2570.20
711.72	2832.34
711.90	2768.85
712.09	2766.81
712.27	2627.54
712.45	2777.05
712.63	2652.12
712.82	2752.47
713.00	2684.89
713.18	2752.47
713.37	2797.53
713.55	2854.87
713.73	2766.81
713.91	2762.71
714.10	2598.87
714.28	2693.08
714.46	2795.48
714.65	2668.50
714.83	2711.51
715.01	2797.53
715.19	2746.33
715.38	2568.15
715.56	2680.79
715.74	2711.51
715.92	2645.98
716.11	2887.64
716.29	2383.84
716.47	2752.47
716.65	2682.84
716.84	2492.38
717.02	2766.81
717.20	2457.56
717.38	2623.45
717.57	2711.51
717.75	2686.94
717.93	2625.50
718.11	2893.78
718.30	2547.67
718.48	2664.41
718.66	2897.88
718.84	2807.77
719.03	2619.35
719.21	2566.10
719.39	2973.65
719.57	2801.62
719.75	2811.86
719.94	2611.16
720.12	2658.26
720.30	2779.09
720.48	2713.56
720.67	2625.50
720.85	2514.91
721.03	2668.50
721.21	2564.06
721.39	2807.77
721.58	2826.20
721.76	2717.65
721.94	2746.33
722.12	2844.63
722.30	2942.93
722.49	2693.08
722.67	2686.94
722.85	2766.81
723.03	2486.23
723.21	2650.07
723.40	2656.22
723.58	2820.05
723.76	2875.35
723.94	2910.16
724.12	2670.55
724.30	2899.92
724.49	2858.96
724.67	2598.87
724.85	2871.25
725.03	2555.86
725.21	2856.92
725.40	2914.26
725.58	2666.46
725.76	2885.59
725.94	2873.30
726.12	2582.49
726.30	2592.73
726.49	2600.92
726.67	2645.98
726.85	2746.33
727.03	3084.24
727.21	4057.03
727.39	5273.52
727.57	5617.58
727.76	6018.98
727.94	6168.48
728.12	5547.95
728.30	4562.87
728.48	4319.17
728.66	3895.24
728.84	3786.69
729.03	3350.48
729.21	3155.92
729.39	2967.51
729.57	2826.20
729.75	2844.63
729.93	2707.41
730.11	2576.34
730.30	2695.13
730.48	2693.08
730.66	2758.61
730.84	2787.29
731.02	2725.85
731.20	2654.17
731.38	2613.21
731.56	2551.77
731.74	2586.58
731.93	2680.79
732.11	2703.32
732.29	2611.16
732.47	2824.15
732.65	2713.56
732.83	2783.19
733.01	2705.37
733.19	2635.74
733.37	2820.05
733.56	2703.32
733.74	2596.82
733.92	2959.31
734.10	2668.50
734.28	2818.00
734.46	2564.06
734.64	2666.46
734.82	2686.94
735.00	2676.70
735.18	2648.02
735.36	2768.85
735.54	2701.27
735.73	2695.13
735.91	2781.14
736.09	2949.08
736.27	2793.43
736.45	2775.00
736.63	2430.94
736.81	2621.40
736.99	2840.53
737.17	2850.77
737.35	2613.21
737.53	2781.14
737.71	2731.99
737.89	2811.86
738.07	2578.39
738.25	2641.88
738.43	2494.43
738.61	2596.82
738.80	2545.63
738.98	2619.35
739.16	2662.36
739.34	2594.78
739.52	2842.58
739.70	2707.41
739.88	2834.39
740.06	2799.57
740.24	2490.33
740.42	2910.16
740.60	2527.19
740.78	2586.58
740.96	2484.19
741.14	2729.94
741.32	2729.94
741.50	2533.34
741.68	2887.64
741.86	2916.31
742.04	2564.06
742.22	2592.73
742.40	2607.06
742.58	2838.48
742.76	2658.26
742.94	2824.15
743.12	2486.23
743.30	2748.37
743.48	2734.04
743.66	2588.63
743.84	2748.37
744.02	2607.06
744.20	2693.08
744.38	2623.45
744.56	2578.39
744.74	3035.09
744.92	2746.33
745.10	2832.34
745.28	2775.00
745.46	2938.84
745.64	2650.07
745.82	2811.86
746.00	2514.91
746.18	2707.41
746.36	2572.25
746.54	2707.41
746.72	2684.89
746.90	2633.69
747.08	2912.21
747.26	2621.40
747.44	2756.57
747.62	2785.24
747.80	2772.95
747.98	2725.85
748.15	2672.60
748.33	2944.98
748.51	2781.14
748.69	2760.66
748.87	2527.19
749.05	2637.78
749.23	2715.61
749.41	2699.22
749.59	2676.70
749.77	2836.44
749.95	2711.51
750.13	2652.12
750.31	2801.62
750.49	2574.30
750.67	2848.72
750.85	2897.88
751.03	2697.17
751.20	2992.08
751.38	2701.27
751.56	2711.51
751.74	2654.17
751.92	2645.98
752.10	2537.43
752.28	2795.48
752.46	2670.55
752.64	2678.74
752.82	2762.71
753.00	2842.58
753.18	2592.73
753.35	2731.99
753.53	2705.37
753.71	2627.54
753.89	2793.43
754.07	2748.37
754.25	2889.68
754.43	2713.56
754.61	2506.71
754.79	2789.33
754.97	2695.13
755.14	2846.68
755.32	2463.71
755.50	2736.09
755.68	2752.47
755.86	2541.53
756.04	2609.11
756.22	2555.86
756.40	2797.53
756.57	2871.25
756.75	2693.08
756.93	2854.87
757.11	2899.92
757.29	2531.29
757.47	2553.82
757.65	2494.43
757.82	2410.46
758.00	2555.86
758.18	2652.12
758.36	2588.63
758.54	2942.93
758.72	2525.15
758.90	2797.53
759.07	2770.90
759.25	2564.06
759.43	2719.70
759.61	2484.19
759.79	3997.64
759.97	2873.30
760.15	2633.69
760.32	2594.78
760.50	2729.94
760.68	2951.12
760.86	2525.15
761.04	2883.54
761.22	2813.91
761.39	2652.12
761.57	2764.76
761.75	2623.45
761.93	2781.14
762.11	2623.45
762.28	2717.65
762.46	2547.67
762.64	2834.39
762.82	2535.39
763.00	2566.10
763.18	2899.92
763.35	2580.44
763.53	2805.72
763.71	2672.60
763.89	2701.27
764.07	2656.22
764.24	2746.33
764.42	2791.38
764.60	2611.16
764.78	2803.67
764.96	2838.48
765.13	2775.00
765.31	2633.69
765.49	2783.19
765.67	2570.20
765.84	2596.82
766.02	2545.63
766.20	2467.80
766.38	2783.19
766.56	2754.52
766.73	2744.28
766.91	2727.89
767.09	2752.47
767.27	2723.80
767.44	2562.01
767.62	2781.14
767.80	2758.61
767.98	2588.63
768.15	2648.02
768.33	2854.87
768.51	2801.62
768.69	2777.05
768.87	2736.09
769.04	2693.08
769.22	3065.81
769.40	2867.16
769.58	2979.79
769.75	2783.19
769.93	2922.45
770.11	2699.22
770.28	2572.25
770.46	2944.98
770.64	2777.05
770.82	2662.36
770.99	2670.55
771.17	2881.49
771.35	2650.07
771.53	2623.45
771.70	2621.40
771.88	2703.32
772.06	2727.89
772.23	2621.40
772.41	2725.85
772.59	2645.98
772.77	2615.26
772.94	2682.84
773.12	2695.13
773.30	2650.07
773.47	2658.26
773.65	2559.96
773.83	2826.20
774.01	2789.33
774.18	2482.14
774.36	2662.36
774.54	2523.10
774.71	2777.05
774.89	2500.57
775.07	2465.75
775.24	2605.02
775.42	2596.82
775.60	2918.36
775.78	2566.10
775.95	2519.00
776.13	2506.71
776.31	2445.27
776.48	2772.95
776.66	2910.16
776.84	2658.26
777.01	2688.98
777.19	2582.49
777.37	2596.82
777.54	2815.96
777.72	2912.21
777.90	2707.41
778.07	2602.97
778.25	3174.35
778.43	2865.11
778.60	2580.44
778.78	2738.13
778.96	2889.68
779.13	2531.29
779.31	2684.89
779.49	2605.02
779.66	2768.85
779.84	2668.50
780.01	2619.35
780.19	2609.11
780.37	2832.34
780.54	2799.57
780.72	2541.53
780.90	2625.50
781.07	2719.70
781.25	2555.86
781.43	2799.57
781.60	2641.88
781.78	2887.64
781.95	2777.05
782.13	2633.69
782.31	2670.55
782.48	2482.14
782.66	2719.70
782.83	2824.15
783.01	2723.80
783.19	2781.14
783.36	2586.58
783.54	2527.19
783.72	2725.85
783.89	2662.36
784.07	2727.89
784.24	2758.61
784.42	2818.00
784.60	2807.77
784.77	2777.05
784.95	2412.51
785.12	2623.45
785.30	2772.95
785.47	2641.88
785.65	2525.15
785.83	2641.88
786.00	2643.93
786.18	2758.61
786.35	2537.43
786.53	2547.67
786.71	2881.49
786.88	2795.48
787.06	2764.76
787.23	2645.98
787.41	2586.58
787.58	2674.65
787.76	2574.30
787.94	2676.70
788.11	2762.71
788.29	2551.77
788.46	2596.82
788.64	2482.14
788.81	2660.31
788.99	2555.86
789.16	2467.80
789.34	2688.98
789.52	2635.74
789.69	2695.13
789.87	2478.04
790.04	2650.07
790.22	2766.81
790.39	2987.99
790.57	2570.20
790.74	2584.54
790.92	2842.58
791.09	2557.91
791.27	2686.94
791.44	2809.81
791.62	2613.21
791.79	2777.05
791.97	2707.41
792.15	2908.12
792.32	2834.39
792.50	2820.05
792.67	2809.81
792.85	2844.63
793.02	2727.89
793.20	2693.08
793.37	2539.48
793.55	2621.40
793.72	2521.05
793.90	2756.57
794.07	2596.82
794.25	2566.10
794.42	2748.37
794.60	2619.35
794.77	2662.36
794.95	2727.89
795.12	2781.14
795.30	2619.35
795.47	2473.95
795.65	2908.12
795.82	2805.72
796.00	2648.02
796.17	2676.70
796.34	2525.15
796.52	2731.99
796.69	2871.25
796.87	2748.37
797.04	2701.27
797.22	2916.31
797.39	2758.61
797.57	2803.67
797.74	2713.56
797.92	2740.18
798.09	2615.26
798.27	2856.92
798.44	2621.40
798.62	2672.60
798.79	2654.17
798.96	2711.51
799.14	2662.36
799.31	3084.24
799.49	2590.68
799.66	2609.11
799.84	2637.78
800.01	2527.19
800.19	2744.28
800.36	2432.99
800.53	2641.88
800.71	2850.77
800.88	2881.49
801.06	2596.82
801.23	2598.87
801.41	2688.98
801.58	2590.68
801.75	2566.10
801.93	2674.65
802.10	2770.90
802.28	2588.63
802.45	2588.63
802.63	2772.95
802.80	2996.18
802.97	2662.36
803.15	2623.45
803.32	2621.40
803.50	2617.30
803.67	2607.06
803.84	2504.67
804.02	2697.17
804.19	2650.07
804.37	2445.27
804.54	2537.43
804.71	2598.87
804.89	2652.12
805.06	2490.33
805.24	2568.15
805.41	2537.43
805.58	2623.45
805.76	3076.05
805.93	2627.54
806.10	2791.38
806.28	2793.43
806.45	2697.17
806.63	2668.50
806.80	2746.33
806.97	2768.85
807.15	2809.81
807.32	2711.51
807.49	2652.12
807.67	2572.25
807.84	2734.04
808.01	2445.27
808.19	2842.58
808.36	3121.10
808.54	2566.10
808.71	2609.11
808.88	2705.37
809.06	2852.82
809.23	2934.74
809.40	2660.31
809.58	2779.09
809.75	2754.52
809.92	2500.57
810.10	2957.27
810.27	2650.07
810.44	2791.38
810.62	2789.33
810.79	2731.99
810.96	2590.68
811.14	2639.83
811.31	2750.42
811.48	2768.85
811.66	2639.83
811.83	2928.60
812.00	2867.16
812.18	2695.13
812.35	2940.88
812.52	2592.73
812.69	2668.50
812.87	2553.82
813.04	2580.44
813.21	2648.02
813.39	2697.17
813.56	2537.43
813.73	2779.09
813.91	2539.48
814.08	2637.78
814.25	2637.78
814.42	2514.91
814.60	2639.83
814.77	2750.42
814.94	2650.07
815.12	2750.42
815.29	3092.43
815.46	2621.40
815.63	2709.46
815.81	2660.31
815.98	2672.60
816.15	2680.79
816.33	2707.41
816.50	2629.59
816.67	2754.52
816.84	2727.89
817.02	2586.58
817.19	2660.31
817.36	2818.00
817.53	2834.39
817.71	2480.09
817.88	2715.61
818.05	2703.32
818.22	2654.17
818.40	2848.72
818.57	2639.83
818.74	2836.44
818.91	2772.95
819.09	2752.47
819.26	2809.81
819.43	2564.06
819.60	2574.30
819.78	2766.81
819.95	2807.77
820.12	2564.06
820.29	2858.96
820.47	2822.10
820.64	2574.30
820.81	2473.95
820.98	2557.91
821.15	2715.61
821.33	2703.32
821.50	2457.56
821.67	2791.38
821.84	2588.63
822.02	2664.41
822.19	2887.64
822.36	2564.06
822.53	2637.78
822.70	2510.81
822.88	2656.22
823.05	2883.54
823.22	2672.60
823.39	2740.18
823.56	2662.36
823.74	3026.90
823.91	2539.48
824.08	2537.43
824.25	2629.59
824.42	2971.60
824.60	2492.38
824.77	2705.37
824.94	2611.16
825.11	2768.85
825.28	2521.05
825.45	2697.17
825.63	2734.04
825.80	2527.19
825.97	2654.17
826.14	2715.61
826.31	2527.19
826.48	2791.38
826.66	2660.31
826.83	2611.16
827.00	2697.17
827.17	2623.45
827.34	2678.74
827.51	2613.21
827.69	2719.70
827.86	2555.86
828.03	2684.89
828.20	2660.31
828.37	2625.50
828.54	2754.52
828.71	2627.54
828.89	2842.58
829.06	2754.52
829.23	2961.36
829.40	2580.44
829.57	2650.07
829.74	2750.42
829.91	2652.12
830.09	2543.58
830.26	2744.28
830.43	2957.27
830.60	2701.27
830.77	2676.70
830.94	2858.96
831.11	2854.87
831.28	2670.55
831.46	2777.05
831.63	2572.25
831.80	2871.25
831.97	2592.73
832.14	2635.74
832.31	2746.33
832.48	2600.92
832.65	2826.20
832.82	2668.50
832.99	2670.55
833.17	2535.39
833.34	2885.59
833.51	2643.93
833.68	2478.04
833.85	2969.55
834.02	2588.63
834.19	2584.54
834.36	2572.25
834.53	2688.98
834.70	2861.01
834.87	2736.09
835.04	2510.81
835.22	2676.70
835.39	2648.02
835.56	2463.71
835.73	2533.34
835.90	2738.13
836.07	2656.22
836.24	2682.84
836.41	2553.82
836.58	2539.48
836.75	2793.43
836.92	2584.54
837.09	2578.39
837.26	2785.24
837.43	2762.71
837.60	2621.40
837.77	2543.58
837.94	2942.93
838.12	2861.01
838.29	2562.01
838.46	2445.27
838.63	2514.91
838.80	2908.12
838.97	2598.87
839.14	2543.58
839.31	2742.23
839.48	2826.20
839.65	2557.91
839.82	2682.84
839.99	2691.03
840.16	2703.32
840.33	2455.51
840.50	2598.87
840.67	2650.07
840.84	2400.22
841.01	2609.11
841.18	2502.62
841.35	2707.41
841.52	2828.24
841.69	2799.57
841.86	2576.34
842.03	2711.51
842.20	2856.92
842.37	2510.81
842.54	2609.11
842.71	2713.56
842.88	2506.71
843.05	2596.82
843.22	2504.67
843.39	2846.68
843.56	2719.70
843.73	2492.38
843.90	2637.78
844.07	2742.23
844.24	2764.76
844.41	2615.26
844.58	2609.11
844.75	2678.74
844.92	2779.09
845.09	2611.16
845.26	2625.50
845.43	2768.85
845.60	2590.68
845.77	2627.54
845.94	2641.88
846.10	2795.48
846.27	2459.61
846.44	2496.47
846.61	2480.09
846.78	2807.77
846.95	2717.65
847.12	2502.62
847.29	2592.73
847.46	2574.30
847.63	2785.24
847.80	2482.14
847.97	2568.15
848.14	2987.99
848.31	2668.50
848.48	2430.94
848.65	2578.39
848.82	2660.31
848.98	3096.53
849.15	2691.03
849.32	2605.02
849.49	2932.69
849.66	2723.80
849.83	2570.20
850.00	2469.85
850.17	2867.16
850.34	2691.03
850.51	2537.43
850.68	2580.44
850.85	3026.90
851.01	2670.55
851.18	2535.39
851.35	2643.93
851.52	2756.57
851.69	2916.31
851.86	2533.34
852.03	2516.95
852.20	2815.96
852.37	2731.99
852.53	2480.09
852.70	2572.25
852.87	2715.61
853.04	2799.57
853.21	2537.43
853.38	2770.90
853.55	2881.49
853.72	2977.75
853.89	2523.10
854.05	2572.25
854.22	2629.59
854.39	2719.70
854.56	2600.92
854.73	2711.51
854.90	2559.96
855.07	2660.31
855.23	2445.27
855.40	2521.05
855.57	2715.61
855.74	2451.42
855.91	2695.13
856.08	2385.88
856.25	2535.39
856.41	2611.16
856.58	2564.06
856.75	2598.87
856.92	2590.68
857.09	2740.18
857.26	2392.03
857.42	2598.87
857.59	2783.19
857.76	2643.93
857.93	2594.78
858.10	2643.93
858.27	2539.48
858.43	2795.48
858.60	2559.96
858.77	2437.08
858.94	2633.69
859.11	2799.57
859.27	2576.34
859.44	2535.39
859.61	3076.05
859.78	2803.67
859.95	2645.98
860.12	2590.68
860.28	3000.27
860.45	2990.03
860.62	2553.82
860.79	2658.26
860.95	2711.51
861.12	2617.30
861.29	2443.23
861.46	2523.10
861.63	2680.79
861.79	2760.66
861.96	2467.80
862.13	2576.34
862.30	2861.01
862.47	2602.97
862.63	2449.37
862.80	2568.15
862.97	2838.48
863.14	2783.19
863.30	2578.39
863.47	2502.62
863.64	2922.45
863.81	2811.86
863.97	2547.67
864.14	2623.45
864.31	2664.41
864.48	2785.24
864.65	2596.82
864.81	2662.36
864.98	2734.04
865.15	2914.26
865.32	2619.35
865.48	2666.46
865.65	2947.03
865.82	2680.79
865.98	2574.30
866.15	2590.68
866.32	2672.60
866.49	2742.23
866.65	2709.46
866.82	2506.71
866.99	2705.37
867.16	2693.08
867.32	2592.73
867.49	2543.58
867.66	2619.35
867.83	2600.92
867.99	2549.72
868.16	2574.30
868.33	2621.40
868.49	2703.32
868.66	2502.62
868.83	2611.16
868.99	2721.75
869.16	2715.61
869.33	2729.94
869.50	2645.98
869.66	2617.30
869.83	2719.70
870.00	2482.14
870.16	2654.17
870.33	2641.88
870.50	2799.57
870.66	2668.50
870.83	2652.12
871.00	2666.46
871.17	2742.23
871.33	2617.30
871.50	2535.39
871.67	2652.12
871.83	2627.54
872.00	2680.79
872.17	2537.43
872.33	2977.75
872.50	2897.88
872.67	2570.20
872.83	2582.49
873.00	2736.09
873.17	2729.94
873.33	2613.21
873.50	2645.98
873.67	2619.35
873.83	2551.77
874.00	2580.44
874.16	2707.41
874.33	2791.38
874.50	2453.47
874.66	2557.91
874.83	2594.78
875.00	2848.72
875.16	2881.49
875.33	2711.51
875.50	2414.56
875.66	2578.39
875.83	2666.46
875.99	2613.21
876.16	2574.30
876.33	2582.49
876.49	2609.11
876.66	2686.94
876.83	2566.10
876.99	2514.91
877.16	2613.21
877.32	2543.58
877.49	2584.54
877.66	2815.96
877.82	2940.88
877.99	2625.50
878.15	2713.56
878.32	2705.37
878.49	2688.98
878.65	2586.58
878.82	2678.74
878.98	2637.78
879.15	2842.58
879.32	2746.33
879.48	2680.79
879.65	2695.13
879.81	2645.98
879.98	2562.01
880.15	2600.92
880.31	2727.89
880.48	2664.41
880.64	2680.79
880.81	2668.50
880.97	2965.46
881.14	2848.72
881.31	2527.19
881.47	2697.17
881.64	2713.56
881.80	2467.80
881.97	2637.78
882.13	2545.63
882.30	2572.25
882.47	2574.30
882.63	2535.39
882.80	2570.20
882.96	2600.92
883.13	2893.78
883.29	2588.63
883.46	2641.88
883.62	3076.05
883.79	2652.12
883.95	2752.47
884.12	2580.44
884.29	2779.09
884.45	2760.66
884.62	2625.50
884.78	2482.14
884.95	2891.73
885.11	2652.12
885.28	2684.89
885.44	2578.39
885.61	2799.57
885.77	2850.77
885.94	2707.41
886.10	2594.78
886.27	2766.81
886.43	2963.41
886.60	2717.65
886.76	2576.34
886.93	2539.48
887.09	2768.85
887.26	2482.14
887.42	2707.41
887.59	2856.92
887.75	3057.62
887.92	2799.57
888.08	2639.83
888.25	2922.45
888.41	2858.96
888.58	2533.34
888.74	2475.99
888.91	2600.92
>>>>>End Processed Spectral Data<<<<<
