SpectraSuite Data File
++++++++++++++++++++++++++++++++++++
Date: Thu May 05 16:20:20 CEST 2016
User: root
Dark Spectrum Present: No
Reference Spectrum Present: No
Number of Sampled Component Spectra: 1
Spectrometers: USB4C02835
Integration Time (usec): 100000 (USB4C02835)
Spectra Averaged: 1 (USB4C02835)
Boxcar Smoothing: 0 (USB4C02835)
Correct for Electrical Dark: No (USB4C02835)
Strobe/Lamp Enabled: No (USB4C02835)
Correct for Detector Non-linearity: No (USB4C02835)
Correct for Stray Light: No (USB4C02835)
Number of Pixels in Processed Spectrum: 3648
>>>>>Begin Processed Spectral Data<<<<<
177.47	2011.11
177.69	2011.11
177.91	2011.11
178.13	2056.16
178.36	2037.73
178.58	2549.72
178.80	2703.32
179.02	2555.86
179.24	2582.49
179.46	2414.56
179.68	2543.58
179.90	2701.27
180.13	2762.71
180.35	2373.60
180.57	2547.67
180.79	2848.72
181.01	2693.08
181.23	2588.63
181.45	2707.41
181.67	2744.28
181.90	2826.20
182.12	2525.15
182.34	2373.60
182.56	2797.53
182.78	2797.53
183.00	2437.08
183.22	2527.19
183.44	2463.71
183.66	3160.02
183.89	2629.59
184.11	2445.27
184.33	2809.81
184.55	2889.68
184.77	2492.38
184.99	2516.95
185.21	2566.10
185.43	3082.19
185.65	2574.30
185.87	2447.32
186.10	3090.38
186.32	3033.04
186.54	2586.58
186.76	2654.17
186.98	2889.68
187.20	2752.47
187.42	2557.91
187.64	2514.91
187.86	2856.92
188.08	2889.68
188.30	2478.04
188.52	2535.39
188.75	2928.60
188.97	2858.96
189.19	2482.14
189.41	2588.63
189.63	2740.18
189.85	2693.08
190.07	2400.22
190.29	2451.42
190.51	2758.61
190.73	2648.02
190.95	2652.12
191.17	2523.10
191.39	2490.33
191.61	2684.89
191.84	2490.33
192.06	2596.82
192.28	2533.34
192.50	3252.17
192.72	2615.26
192.94	2602.97
193.16	2815.96
193.38	2846.68
193.60	2488.28
193.82	2697.17
194.04	2910.16
194.26	2818.00
194.48	2547.67
194.70	2457.56
194.92	2635.74
195.14	2908.12
195.36	2498.52
195.58	2547.67
195.80	2750.42
196.02	2641.88
196.24	2521.05
196.46	2566.10
196.69	2697.17
196.91	3061.71
197.13	2609.11
197.35	2523.10
197.57	2942.93
197.79	2768.85
198.01	2584.54
198.23	2529.24
198.45	2787.29
198.67	2562.01
198.89	2414.56
199.11	2705.37
199.33	2602.97
199.55	2467.80
199.77	2539.48
199.99	2645.98
200.21	2658.26
200.43	2787.29
200.65	2408.41
200.87	2355.16
201.09	2676.70
201.31	2648.02
201.53	2557.91
201.75	2598.87
201.97	2693.08
202.19	2686.94
202.41	2580.44
202.63	2619.35
202.85	2807.77
203.07	2727.89
203.29	2519.00
203.51	2475.99
203.73	2660.31
203.95	3119.06
204.17	2562.01
204.39	2643.93
204.61	2717.65
204.83	2713.56
205.05	2703.32
205.27	2584.54
205.49	2973.65
205.71	2691.03
205.93	2414.56
206.15	2465.75
206.37	2693.08
206.59	2662.36
206.81	2435.03
207.03	2428.89
207.25	2580.44
207.47	2740.18
207.69	2570.20
207.91	2664.41
208.13	3002.32
208.34	2543.58
208.56	2441.18
208.78	2496.47
209.00	2617.30
209.22	2635.74
209.44	2676.70
209.66	2494.43
209.88	2738.13
210.10	2682.84
210.32	2539.48
210.54	2592.73
210.76	2625.50
210.98	2891.73
211.20	2392.03
211.42	2631.64
211.64	2928.60
211.86	2793.43
212.08	2475.99
212.30	2551.77
212.52	2633.69
212.74	2807.77
212.96	2543.58
213.17	2588.63
213.39	2811.86
213.61	2936.79
213.83	2514.91
214.05	2416.60
214.27	2891.73
214.49	2578.39
214.71	2404.32
214.93	2615.26
215.15	2750.42
215.37	2922.45
215.59	2379.74
215.81	2588.63
216.03	2957.27
216.24	2736.09
216.46	2588.63
216.68	2512.86
216.90	2824.15
217.12	2826.20
217.34	2494.43
217.56	2693.08
217.78	2959.31
218.00	2850.77
218.22	2578.39
218.44	2621.40
218.66	2645.98
218.87	3043.28
219.09	2506.71
219.31	2533.34
219.53	2721.75
219.75	2691.03
219.97	2588.63
220.19	2549.72
220.41	2750.42
220.63	2965.46
220.85	2482.14
221.06	2545.63
221.28	2922.45
221.50	2779.09
221.72	2449.37
221.94	2428.89
222.16	2752.47
222.38	2838.48
222.60	2519.00
222.82	2576.34
223.03	2795.48
223.25	2570.20
223.47	2469.85
223.69	2734.04
223.91	2826.20
224.13	2719.70
224.35	2488.28
224.57	2686.94
224.78	2867.16
225.00	2586.58
225.22	2609.11
225.44	2424.80
225.66	2826.20
225.88	2654.17
226.10	2613.21
226.32	2609.11
226.53	2926.55
226.75	2629.59
226.97	2641.88
227.19	2553.82
227.41	2580.44
227.63	2674.65
227.85	2416.60
228.06	2533.34
228.28	2736.09
228.50	2832.34
228.72	2381.79
228.94	2527.19
229.16	2461.66
229.37	2588.63
229.59	2480.09
229.81	2652.12
230.03	2617.30
230.25	2613.21
230.47	2418.65
230.69	2416.60
230.90	2858.96
231.12	2645.98
231.34	2580.44
231.56	2639.83
231.78	2555.86
232.00	2676.70
232.21	2531.29
232.43	2523.10
232.65	2459.61
232.87	2693.08
233.09	2439.13
233.30	2498.52
233.52	2887.64
233.74	2715.61
233.96	2461.66
234.18	2688.98
234.40	2695.13
234.61	3004.37
234.83	2396.12
235.05	2498.52
235.27	3055.57
235.49	2858.96
235.70	2428.89
235.92	2629.59
236.14	2719.70
236.36	3110.86
236.58	2439.13
236.79	2617.30
237.01	2758.61
237.23	2613.21
237.45	2707.41
237.67	2588.63
237.88	2820.05
238.10	3020.75
238.32	2490.33
238.54	2457.56
238.76	2676.70
238.97	2594.78
239.19	2494.43
239.41	2545.63
239.63	2928.60
239.85	2678.74
240.06	2525.15
240.28	2484.19
240.50	2881.49
240.72	2701.27
240.93	2443.23
241.15	2514.91
241.37	2785.24
241.59	2912.21
241.81	2498.52
242.02	2609.11
242.24	2813.91
242.46	2850.77
242.68	2408.41
242.89	2516.95
243.11	2881.49
243.33	2660.31
243.55	2559.96
243.76	2617.30
243.98	2609.11
244.20	2770.90
244.42	2473.95
244.64	2557.91
244.85	2529.24
245.07	2639.83
245.29	2537.43
245.51	2549.72
245.72	2709.46
245.94	2883.54
246.16	2461.66
246.38	2469.85
246.59	2699.22
246.81	2551.77
247.03	2494.43
247.24	2346.97
247.46	2631.64
247.68	2750.42
247.90	2435.03
248.11	2453.47
248.33	2826.20
248.55	2668.50
248.77	2652.12
248.98	2545.63
249.20	2953.17
249.42	2754.52
249.64	2482.14
249.85	2506.71
250.07	2654.17
250.29	2772.95
250.50	2531.29
250.72	2445.27
250.94	2754.52
251.16	3100.62
251.37	2521.05
251.59	2607.06
251.81	2852.82
252.02	2895.83
252.24	2500.57
252.46	2590.68
252.68	2643.93
252.89	2592.73
253.11	2383.84
253.33	2740.18
253.54	2924.50
253.76	2537.43
253.98	2473.95
254.20	2443.23
254.41	2519.00
254.63	2617.30
254.85	2414.56
255.06	2576.34
255.28	2697.17
255.50	2746.33
255.71	2564.06
255.93	2367.45
256.15	2691.03
256.36	2844.63
256.58	2424.80
256.80	2461.66
257.02	2643.93
257.23	2596.82
257.45	2582.49
257.67	2648.02
257.88	2727.89
258.10	2764.76
258.32	2496.47
258.53	2564.06
258.75	3000.27
258.97	2580.44
259.18	2488.28
259.40	2435.03
259.62	2940.88
259.83	2947.03
260.05	2566.10
260.27	3203.02
260.48	2850.77
260.70	2590.68
260.92	2408.41
261.13	2475.99
261.35	2701.27
261.57	2805.72
261.78	2430.94
262.00	2451.42
262.22	2801.62
262.43	2539.48
262.65	2461.66
262.86	2609.11
263.08	3063.76
263.30	2725.85
263.51	2379.74
263.73	2416.60
263.95	2846.68
264.16	2670.55
264.38	2494.43
264.60	2478.04
264.81	2715.61
265.03	2879.44
265.25	2713.56
265.46	2519.00
265.68	2928.60
265.89	2824.15
266.11	2342.88
266.33	2625.50
266.54	2869.20
266.76	2717.65
266.98	2578.39
267.19	2629.59
267.41	2807.77
267.62	2723.80
267.84	2357.21
268.06	2654.17
268.27	2744.28
268.49	2985.94
268.70	2570.20
268.92	2574.30
269.14	2555.86
269.35	2519.00
269.57	2578.39
269.79	2555.86
270.00	2654.17
270.22	3018.71
270.43	2404.32
270.65	2359.26
270.87	2772.95
271.08	2760.66
271.30	2664.41
271.51	2537.43
271.73	2805.72
271.95	2955.22
272.16	2506.71
272.38	2600.92
272.59	2654.17
272.81	2875.35
273.02	2473.95
273.24	2615.26
273.46	2848.72
273.67	2525.15
273.89	2414.56
274.10	2537.43
274.32	2873.30
274.54	2727.89
274.75	2643.93
274.97	2562.01
275.18	2881.49
275.40	2779.09
275.61	2519.00
275.83	2688.98
276.05	2631.64
276.26	2740.18
276.48	2617.30
276.69	2588.63
276.91	2645.98
277.12	2934.74
277.34	2709.46
277.55	2670.55
277.77	2674.65
277.99	2652.12
278.20	2527.19
278.42	2471.90
278.63	2613.21
278.85	2521.05
279.06	2547.67
279.28	2643.93
279.49	2881.49
279.71	2777.05
279.93	2686.94
280.14	2617.30
280.36	2643.93
280.57	2854.87
280.79	2674.65
281.00	2455.51
281.22	2598.87
281.43	2875.35
281.65	2377.69
281.86	2471.90
282.08	2801.62
282.29	2953.17
282.51	2473.95
282.73	2543.58
282.94	2506.71
283.16	2881.49
283.37	2736.09
283.59	2598.87
283.80	2721.75
284.02	2752.47
284.23	2611.16
284.45	2619.35
284.66	2693.08
284.88	2625.50
285.09	2660.31
285.31	2697.17
285.52	2742.23
285.74	2596.82
285.95	2709.46
286.17	2709.46
286.38	2863.06
286.60	2668.50
286.81	2582.49
287.03	2627.54
287.24	2738.13
287.46	2805.72
287.67	2709.46
287.89	2826.20
288.10	2762.71
288.32	2744.28
288.53	2785.24
288.75	2654.17
288.96	2822.10
289.18	2553.82
289.39	2562.01
289.61	2656.22
289.82	3104.72
290.04	3008.47
290.25	2580.44
290.47	2594.78
290.68	2766.81
290.90	2789.33
291.11	2430.94
291.33	2801.62
291.54	2625.50
291.76	2699.22
291.97	2605.02
292.18	2693.08
292.40	2691.03
292.61	2529.24
292.83	2815.96
293.04	2658.26
293.26	2752.47
293.47	2764.76
293.69	2551.77
293.90	2631.64
294.12	2965.46
294.33	2731.99
294.55	2592.73
294.76	2748.37
294.97	2850.77
295.19	3002.32
295.40	2627.54
295.62	2658.26
295.83	2852.82
296.05	2574.30
296.26	2793.43
296.48	2559.96
296.69	2713.56
296.90	2691.03
297.12	2764.76
297.33	2805.72
297.55	2725.85
297.76	2801.62
297.98	2719.70
298.19	2711.51
298.41	2738.13
298.62	2504.67
298.83	2863.06
299.05	2682.84
299.26	2590.68
299.48	2510.81
299.69	2680.79
299.90	2615.26
300.12	2559.96
300.33	2822.10
300.55	2652.12
300.76	2631.64
300.98	2521.05
301.19	2842.58
301.40	2590.68
301.62	2508.76
301.83	2856.92
302.05	2729.94
302.26	2631.64
302.47	2668.50
302.69	2555.86
302.90	2766.81
303.12	2432.99
303.33	2695.13
303.54	3100.62
303.76	2691.03
303.97	2523.10
304.19	2895.83
304.40	2623.45
304.61	2858.96
304.83	2803.67
305.04	2740.18
305.26	2815.96
305.47	2650.07
305.68	2691.03
305.90	2523.10
306.11	2797.53
306.33	2711.51
306.54	2484.19
306.75	2660.31
306.97	2519.00
307.18	2656.22
307.39	2541.53
307.61	2705.37
307.82	2670.55
308.04	2828.24
308.25	2488.28
308.46	2734.04
308.68	2795.48
308.89	2701.27
309.10	2731.99
309.32	2629.59
309.53	2695.13
309.74	2756.57
309.96	2516.95
310.17	2744.28
310.39	2590.68
310.60	2725.85
310.81	2607.06
311.03	2514.91
311.24	2815.96
311.45	2793.43
311.67	2861.01
311.88	2641.88
312.09	2680.79
312.31	2629.59
312.52	2598.87
312.73	2582.49
312.95	2457.56
313.16	2580.44
313.37	2674.65
313.59	2793.43
313.80	2781.14
314.01	2904.02
314.23	2570.20
314.44	2523.10
314.65	2562.01
314.87	2588.63
315.08	2643.93
315.29	2598.87
315.51	2541.53
315.72	2504.67
315.93	2779.09
316.15	2658.26
316.36	2660.31
316.57	2691.03
316.79	2756.57
317.00	2510.81
317.21	2801.62
317.43	2629.59
317.64	2684.89
317.85	2508.76
318.07	2541.53
318.28	2625.50
318.49	2785.24
318.70	2785.24
318.92	2736.09
319.13	2805.72
319.34	2834.39
319.56	2721.75
319.77	2822.10
319.98	2809.81
320.20	2752.47
320.41	2772.95
320.62	2789.33
320.83	2596.82
321.05	2908.12
321.26	2697.17
321.47	2721.75
321.69	2947.03
321.90	2519.00
322.11	2461.66
322.32	2760.66
322.54	2865.11
322.75	2596.82
322.96	3180.50
323.18	2521.05
323.39	2519.00
323.60	2533.34
323.81	2670.55
324.03	2602.97
324.24	2691.03
324.45	2705.37
324.66	2510.81
324.88	2881.49
325.09	2942.93
325.30	2607.06
325.52	2598.87
325.73	2742.23
325.94	2643.93
326.15	2494.43
326.37	2484.19
326.58	2906.07
326.79	2834.39
327.00	2500.57
327.22	2594.78
327.43	2695.13
327.64	2564.06
327.85	2742.23
328.07	2680.79
328.28	3012.56
328.49	2748.37
328.70	2570.20
328.92	2633.69
329.13	2678.74
329.34	2764.76
329.55	2830.29
329.76	2731.99
329.98	2668.50
330.19	2809.81
330.40	2711.51
330.61	2658.26
330.83	2832.34
331.04	2557.91
331.25	2682.84
331.46	2619.35
331.68	2568.15
331.89	2879.44
332.10	2660.31
332.31	2555.86
332.52	2731.99
332.74	2881.49
332.95	2564.06
333.16	2576.34
333.37	2766.81
333.58	2656.22
333.80	2621.40
334.01	2475.99
334.22	2711.51
334.43	2666.46
334.64	2564.06
334.86	2473.95
335.07	2588.63
335.28	2930.64
335.49	2500.57
335.70	2676.70
335.92	2895.83
336.13	3074.00
336.34	2693.08
336.55	2680.79
336.76	2781.14
336.98	2418.65
337.19	2574.30
337.40	2807.77
337.61	3108.82
337.82	2619.35
338.04	2752.47
338.25	2512.86
338.46	2797.53
338.67	2736.09
338.88	2525.15
339.09	2488.28
339.31	2660.31
339.52	2580.44
339.73	2492.38
339.94	2695.13
340.15	2916.31
340.36	2697.17
340.58	2695.13
340.79	2494.43
341.00	2781.14
341.21	2512.86
341.42	2750.42
341.63	2631.64
341.85	2824.15
342.06	2742.23
342.27	2488.28
342.48	2709.46
342.69	2533.34
342.90	2723.80
343.12	2856.92
343.33	2510.81
343.54	2873.30
343.75	2848.72
343.96	2609.11
344.17	2580.44
344.38	2682.84
344.60	2596.82
344.81	2506.71
345.02	2629.59
345.23	2897.88
345.44	3041.23
345.65	2703.32
345.86	2691.03
346.07	2650.07
346.29	2627.54
346.50	2744.28
346.71	2777.05
346.92	2942.93
347.13	2983.89
347.34	2656.22
347.55	2463.71
347.76	2775.00
347.98	2439.13
348.19	2625.50
348.40	2815.96
348.61	2660.31
348.82	2904.02
349.03	2609.11
349.24	2512.86
349.45	3004.37
349.66	2379.74
349.88	2588.63
350.09	2508.76
350.30	2940.88
350.51	2897.88
350.72	2738.13
350.93	2643.93
351.14	2611.16
351.35	2777.05
351.56	2580.44
351.77	2668.50
351.99	2777.05
352.20	2904.02
352.41	2752.47
352.62	2387.93
352.83	2676.70
353.04	2715.61
353.25	2602.97
353.46	2723.80
353.67	2822.10
353.88	2453.47
354.09	2564.06
354.30	2635.74
354.52	2830.29
354.73	2682.84
354.94	2580.44
355.15	2637.78
355.36	3104.72
355.57	2627.54
355.78	2594.78
355.99	2580.44
356.20	2607.06
356.41	2881.49
356.62	2727.89
356.83	2611.16
357.04	2916.31
357.25	2537.43
357.46	2586.58
357.68	2486.23
357.89	2641.88
358.10	2748.37
358.31	2643.93
358.52	2551.77
358.73	2535.39
358.94	2602.97
359.15	2590.68
359.36	2613.21
359.57	2719.70
359.78	2707.41
359.99	2832.34
360.20	2488.28
360.41	2676.70
360.62	2799.57
360.83	2674.65
361.04	2688.98
361.25	2752.47
361.46	2944.98
361.67	2740.18
361.88	2648.02
362.09	2889.68
362.30	2766.81
362.51	2578.39
362.72	2660.31
362.93	2908.12
363.14	2795.48
363.35	2635.74
363.56	2525.15
363.78	2883.54
363.99	2818.00
364.20	2566.10
364.41	2658.26
364.62	3061.71
364.83	2703.32
365.04	2615.26
365.25	2742.23
365.46	3106.77
365.67	2664.41
365.88	2662.36
366.09	2568.15
366.30	2562.01
366.51	2693.08
366.72	2564.06
366.93	2600.92
367.14	2719.70
367.35	2918.36
367.56	2537.43
367.77	2856.92
367.98	2709.46
368.18	2799.57
368.39	2693.08
368.60	2539.48
368.81	2797.53
369.02	2795.48
369.23	2617.30
369.44	2459.61
369.65	2664.41
369.86	2850.77
370.07	2701.27
370.28	2506.71
370.49	2818.00
370.70	2809.81
370.91	2435.03
371.12	2506.71
371.33	2924.50
371.54	2602.97
371.75	2727.89
371.96	2308.06
372.17	2719.70
372.38	2668.50
372.59	2660.31
372.80	2574.30
373.01	2639.83
373.22	2695.13
373.43	2594.78
373.64	2533.34
373.85	2951.12
374.06	2930.64
374.26	2744.28
374.47	2691.03
374.68	3008.47
374.89	2854.87
375.10	2617.30
375.31	2623.45
375.52	2723.80
375.73	2668.50
375.94	2562.01
376.15	2734.04
376.36	2605.02
376.57	2652.12
376.78	2668.50
376.99	2770.90
377.20	2852.82
377.40	2709.46
377.61	2779.09
377.82	2602.97
378.03	2947.03
378.24	2746.33
378.45	2783.19
378.66	2617.30
378.87	2435.03
379.08	2482.14
379.29	2611.16
379.50	2795.48
379.71	2654.17
379.91	2875.35
380.12	2590.68
380.33	2617.30
380.54	2727.89
380.75	2615.26
380.96	2678.74
381.17	2713.56
381.38	2633.69
381.59	2777.05
381.80	2660.31
382.00	2811.86
382.21	2717.65
382.42	3125.20
382.63	2895.83
382.84	2707.41
383.05	2865.11
383.26	2985.94
383.47	2725.85
383.68	2611.16
383.88	2811.86
384.09	2719.70
384.30	2910.16
384.51	2703.32
384.72	2605.02
384.93	2559.96
385.14	2695.13
385.35	2877.40
385.55	2514.91
385.76	2920.40
385.97	2668.50
386.18	2455.51
386.39	2619.35
386.60	2637.78
386.81	2596.82
387.02	2600.92
387.22	2523.10
387.43	2811.86
387.64	2764.76
387.85	2836.44
388.06	2770.90
388.27	4063.17
388.48	7450.51
388.68	10983.26
388.89	13276.98
389.10	14307.11
389.31	13670.19
389.52	10880.86
389.73	9432.94
389.93	8648.57
390.14	7780.23
390.35	7028.63
390.56	6399.90
390.77	5291.95
390.98	4007.87
391.18	3485.64
391.39	3190.74
391.60	2805.72
391.81	2858.96
392.02	2615.26
392.23	3114.96
392.43	2828.24
392.64	2822.10
392.85	2625.50
393.06	2922.45
393.27	2760.66
393.47	2559.96
393.68	2598.87
393.89	2682.84
394.10	2906.07
394.31	2652.12
394.52	2559.96
394.72	2693.08
394.93	2953.17
395.14	2447.32
395.35	2691.03
395.56	2596.82
395.76	2652.12
395.97	2633.69
396.18	2725.85
396.39	2828.24
396.60	3262.41
396.80	2838.48
397.01	2772.95
397.22	2811.86
397.43	2895.83
397.64	2658.26
397.84	2738.13
398.05	2981.84
398.26	2752.47
398.47	2766.81
398.67	2811.86
398.88	2807.77
399.09	2865.11
399.30	2584.54
399.51	2785.24
399.71	2588.63
399.92	2752.47
400.13	2695.13
400.34	2660.31
400.54	2684.89
400.75	2920.40
400.96	2629.59
401.17	2867.16
401.37	2815.96
401.58	2807.77
401.79	2639.83
402.00	2846.68
402.21	3063.76
402.41	2924.50
402.62	2922.45
402.83	3000.27
403.04	3174.35
403.24	3321.81
403.45	2752.47
403.66	2957.27
403.87	2987.99
404.07	2965.46
404.28	2908.12
404.49	2893.78
404.70	2795.48
404.90	2848.72
405.11	2607.06
405.32	2723.80
405.52	2662.36
405.73	2699.22
405.94	2600.92
406.15	2580.44
406.35	2858.96
406.56	2838.48
406.77	2699.22
406.98	2670.55
407.18	2627.54
407.39	2973.65
407.60	2578.39
407.80	2740.18
408.01	2717.65
408.22	2813.91
408.43	2555.86
408.63	2727.89
408.84	2791.38
409.05	2725.85
409.25	2625.50
409.46	2580.44
409.67	2711.51
409.88	2715.61
410.08	2648.02
410.29	2633.69
410.50	2926.55
410.70	2828.24
410.91	2594.78
411.12	2713.56
411.32	2834.39
411.53	2625.50
411.74	2699.22
411.95	2785.24
412.15	2793.43
412.36	2867.16
412.57	2664.41
412.77	2779.09
412.98	2656.22
413.19	2656.22
413.39	2682.84
413.60	2678.74
413.81	2965.46
414.01	2574.30
414.22	2670.55
414.43	2785.24
414.63	2629.59
414.84	2818.00
415.05	2727.89
415.25	2576.34
415.46	2750.42
415.67	2586.58
415.87	2705.37
416.08	2639.83
416.29	2701.27
416.49	2770.90
416.70	2602.97
416.91	2623.45
417.11	2748.37
417.32	2824.15
417.53	2762.71
417.73	2742.23
417.94	2656.22
418.15	2748.37
418.35	2703.32
418.56	2643.93
418.77	3030.99
418.97	2740.18
419.18	2721.75
419.38	2406.36
419.59	2695.13
419.80	2904.02
420.00	2609.11
420.21	2674.65
420.42	2953.17
420.62	2801.62
420.83	2600.92
421.04	2678.74
421.24	2674.65
421.45	2834.39
421.65	2703.32
421.86	2641.88
422.07	2811.86
422.27	2777.05
422.48	2611.16
422.69	2525.15
422.89	2637.78
423.10	2617.30
423.30	2586.58
423.51	2664.41
423.72	2756.57
423.92	2777.05
424.13	2484.19
424.33	2678.74
424.54	2793.43
424.75	2775.00
424.95	2908.12
425.16	2664.41
425.36	2674.65
425.57	2840.53
425.78	2740.18
425.98	2713.56
426.19	2709.46
426.39	2539.48
426.60	2672.60
426.81	2760.66
427.01	2805.72
427.22	2559.96
427.42	2506.71
427.63	2514.91
427.83	2865.11
428.04	2944.98
428.25	2678.74
428.45	2754.52
428.66	2920.40
428.86	2715.61
429.07	2670.55
429.28	2756.57
429.48	2777.05
429.69	2621.40
429.89	2658.26
430.10	2449.37
430.30	2815.96
430.51	2777.05
430.71	2555.86
430.92	2682.84
431.13	2600.92
431.33	2805.72
431.54	2680.79
431.74	2865.11
431.95	3026.90
432.15	2635.74
432.36	2693.08
432.56	2717.65
432.77	3002.32
432.98	2926.55
433.18	2652.12
433.39	2607.06
433.59	2699.22
433.80	2959.31
434.00	2881.49
434.21	2621.40
434.41	2557.91
434.62	3000.27
434.82	2590.68
435.03	2590.68
435.23	2809.81
435.44	2443.23
435.64	2596.82
435.85	2650.07
436.06	2834.39
436.26	2879.44
436.47	2631.64
436.67	2498.52
436.88	2731.99
437.08	2897.88
437.29	2848.72
437.49	2746.33
437.70	2861.01
437.90	2627.54
438.11	2832.34
438.31	2731.99
438.52	2914.26
438.72	2897.88
438.93	2940.88
439.13	2707.41
439.34	2850.77
439.54	2627.54
439.75	2807.77
439.95	2674.65
440.16	2734.04
440.36	2762.71
440.57	2654.17
440.77	2656.22
440.98	2678.74
441.18	2748.37
441.39	2592.73
441.59	2527.19
441.80	3106.77
442.00	2693.08
442.21	2807.77
442.41	2531.29
442.62	2842.58
442.82	2629.59
443.02	2621.40
443.23	2721.75
443.43	2752.47
443.64	2947.03
443.84	2570.20
444.05	2750.42
444.25	2764.76
444.46	2596.82
444.66	2596.82
444.87	2818.00
445.07	2535.39
445.28	2684.89
445.48	2781.14
445.69	2691.03
445.89	3076.05
446.09	2633.69
446.30	2983.89
446.50	3045.33
446.71	4579.26
446.91	5605.29
447.12	6414.24
447.32	6879.13
447.53	6533.02
447.73	5373.87
447.93	4849.59
448.14	4556.73
448.34	4706.23
448.55	3907.52
448.75	3899.33
448.96	3698.63
449.16	3389.39
449.36	3289.04
449.57	2924.50
449.77	2711.51
449.98	2670.55
450.18	2775.00
450.39	2717.65
450.59	2756.57
450.79	2723.80
451.00	2637.78
451.20	2797.53
451.41	2658.26
451.61	2779.09
451.81	2652.12
452.02	2580.44
452.22	2666.46
452.43	2629.59
452.63	2678.74
452.84	2760.66
453.04	2584.54
453.24	2637.78
453.45	2623.45
453.65	2658.26
453.86	2682.84
454.06	2748.37
454.26	2775.00
454.47	2523.10
454.67	2887.64
454.87	2777.05
455.08	2664.41
455.28	2838.48
455.49	2787.29
455.69	2635.74
455.89	2985.94
456.10	2740.18
456.30	2605.02
456.51	2777.05
456.71	2766.81
456.91	2818.00
457.12	2674.65
457.32	2799.57
457.52	2576.34
457.73	2752.47
457.93	2807.77
458.14	2641.88
458.34	2441.18
458.54	2658.26
458.75	2711.51
458.95	2856.92
459.15	2760.66
459.36	2699.22
459.56	2768.85
459.76	3074.00
459.97	2695.13
460.17	2621.40
460.37	2787.29
460.58	2678.74
460.78	2856.92
460.99	2590.68
461.19	2611.16
461.39	2703.32
461.60	2670.55
461.80	2676.70
462.00	2559.96
462.21	2734.04
462.41	2619.35
462.61	2545.63
462.82	2484.19
463.02	2783.19
463.22	2754.52
463.43	2777.05
463.63	2633.69
463.83	2906.07
464.04	2840.53
464.24	2594.78
464.44	2566.10
464.64	2723.80
464.85	2891.73
465.05	2680.79
465.25	2609.11
465.46	2633.69
465.66	2842.58
465.86	2713.56
466.07	2617.30
466.27	2697.17
466.47	2504.67
466.68	2506.71
466.88	2785.24
467.08	2830.29
467.29	2858.96
467.49	2691.03
467.69	2721.75
467.89	2818.00
468.10	2703.32
468.30	2643.93
468.50	2785.24
468.71	2867.16
468.91	2527.19
469.11	2830.29
469.31	2703.32
469.52	2609.11
469.72	2971.60
469.92	2938.84
470.13	2686.94
470.33	2688.98
470.53	2785.24
470.73	3026.90
470.94	3299.28
471.14	3373.00
471.34	3784.65
471.54	3616.71
471.75	3272.65
471.95	3151.82
472.15	3080.14
472.36	3246.03
472.56	3071.95
472.76	3121.10
472.96	3043.28
473.17	2955.22
473.37	2856.92
473.57	2707.41
473.77	2893.78
473.98	2676.70
474.18	2482.14
474.38	3143.63
474.58	2641.88
474.79	2602.97
474.99	2744.28
475.19	2891.73
475.39	2660.31
475.60	2674.65
475.80	2691.03
476.00	2736.09
476.20	2682.84
476.41	2758.61
476.61	2789.33
476.81	2938.84
477.01	2617.30
477.21	2891.73
477.42	2777.05
477.62	2635.74
477.82	2899.92
478.02	2564.06
478.23	2668.50
478.43	2609.11
478.63	2627.54
478.83	2719.70
479.03	2674.65
479.24	2908.12
479.44	2994.13
479.64	2678.74
479.84	2453.47
480.04	2678.74
480.25	2854.87
480.45	2641.88
480.65	2592.73
480.85	2949.08
481.06	2686.94
481.26	2766.81
481.46	2691.03
481.66	2828.24
481.86	2596.82
482.06	2850.77
482.27	2629.59
482.47	2672.60
482.67	2861.01
482.87	2637.78
483.07	2723.80
483.28	2697.17
483.48	2566.10
483.68	2615.26
483.88	2584.54
484.08	2467.80
484.29	2535.39
484.49	2670.55
484.69	2443.23
484.89	2914.26
485.09	2934.74
485.29	2621.40
485.50	2793.43
485.70	2602.97
485.90	2840.53
486.10	2740.18
486.30	2586.58
486.50	2871.25
486.71	2740.18
486.91	2758.61
487.11	2725.85
487.31	2490.33
487.51	2877.40
487.71	2580.44
487.91	2654.17
488.12	2607.06
488.32	2383.84
488.52	2572.25
488.72	2369.50
488.92	2766.81
489.12	2877.40
489.32	2815.96
489.53	2658.26
489.73	2496.47
489.93	2973.65
490.13	2666.46
490.33	2461.66
490.53	2777.05
490.73	2895.83
490.94	2506.71
491.14	2750.42
491.34	2768.85
491.54	2906.07
491.74	3510.22
491.94	3956.68
492.14	4435.90
492.34	4474.81
492.54	4210.62
492.75	3545.03
492.95	3579.85
493.15	3368.91
493.35	3262.41
493.55	3231.69
493.75	3168.21
493.95	3117.01
494.15	2899.92
494.35	2731.99
494.56	2731.99
494.76	2652.12
494.96	2738.13
495.16	2713.56
495.36	2760.66
495.56	2803.67
495.76	2676.70
495.96	2738.13
496.16	2609.11
496.36	3084.24
496.56	2627.54
496.77	2791.38
496.97	2762.71
497.17	2944.98
497.37	2471.90
497.57	2729.94
497.77	2752.47
497.97	2574.30
498.17	2748.37
498.37	2602.97
498.57	2813.91
498.77	2695.13
498.97	2772.95
499.17	2934.74
499.38	2727.89
499.58	2727.89
499.78	2815.96
499.98	2758.61
500.18	2742.23
500.38	2627.54
500.58	2930.64
500.78	3241.93
500.98	5287.86
501.18	7251.86
501.38	8376.19
501.58	9465.71
501.78	9314.16
501.98	7536.52
502.18	6442.91
502.38	5597.10
502.58	5468.08
502.78	4722.62
502.98	4700.09
503.18	4427.71
503.38	4097.99
503.59	3506.12
503.79	3553.23
503.99	3252.17
504.19	3104.72
504.39	3100.62
504.59	3086.29
504.79	3098.58
504.99	3215.31
505.19	2912.21
505.39	2899.92
505.59	2957.27
505.79	2971.60
505.99	2944.98
506.19	2701.27
506.39	2895.83
506.59	2666.46
506.79	2682.84
506.99	2799.57
507.19	2725.85
507.39	2723.80
507.59	2535.39
507.79	2514.91
507.99	2707.41
508.19	2670.55
508.39	2648.02
508.59	2627.54
508.79	2717.65
508.99	3080.14
509.19	2676.70
509.39	2727.89
509.59	2605.02
509.79	2625.50
509.99	2697.17
510.19	2801.62
510.39	2709.46
510.59	2676.70
510.79	2617.30
510.99	2535.39
511.19	2635.74
511.39	3049.43
511.59	2910.16
511.79	2879.44
511.99	2654.17
512.19	3049.43
512.38	2682.84
512.58	2637.78
512.78	2611.16
512.98	2891.73
513.18	2918.36
513.38	2578.39
513.58	2691.03
513.78	2670.55
513.98	2736.09
514.18	2637.78
514.38	2605.02
514.58	2719.70
514.78	2652.12
514.98	2621.40
515.18	2605.02
515.38	2502.62
515.58	3010.51
515.78	2641.88
515.98	2658.26
516.18	2805.72
516.38	2619.35
516.57	2662.36
516.77	2674.65
516.97	2787.29
517.17	2635.74
517.37	2500.57
517.57	2701.27
517.77	2787.29
517.97	2609.11
518.17	2697.17
518.37	2545.63
518.57	2740.18
518.77	2686.94
518.97	2645.98
519.16	2676.70
519.36	2865.11
519.56	2635.74
519.76	2643.93
519.96	2676.70
520.16	2936.79
520.36	2605.02
520.56	2836.44
520.76	2680.79
520.96	2682.84
521.16	2895.83
521.35	2813.91
521.55	2799.57
521.75	2672.60
521.95	2633.69
522.15	2627.54
522.35	2514.91
522.55	2588.63
522.75	2877.40
522.95	2639.83
523.14	2508.76
523.34	2797.53
523.54	2691.03
523.74	2772.95
523.94	2693.08
524.14	2508.76
524.34	2807.77
524.54	2834.39
524.73	2609.11
524.93	2813.91
525.13	2842.58
525.33	2535.39
525.53	2893.78
525.73	2893.78
525.93	2775.00
526.13	2578.39
526.32	2656.22
526.52	2897.88
526.72	2822.10
526.92	2615.26
527.12	2562.01
527.32	2514.91
527.52	2781.14
527.71	2686.94
527.91	2652.12
528.11	2654.17
528.31	2668.50
528.51	2572.25
528.71	2762.71
528.90	2822.10
529.10	2914.26
529.30	2740.18
529.50	2406.36
529.70	2785.24
529.90	2731.99
530.09	2707.41
530.29	2508.76
530.49	2645.98
530.69	3119.06
530.89	2744.28
531.09	2709.46
531.28	2580.44
531.48	2912.21
531.68	2633.69
531.88	2725.85
532.08	2836.44
532.28	2711.51
532.47	2734.04
532.67	2785.24
532.87	2752.47
533.07	2625.50
533.27	2760.66
533.46	2707.41
533.66	2799.57
533.86	2727.89
534.06	2697.17
534.26	2697.17
534.45	2672.60
534.65	2852.82
534.85	2791.38
535.05	2605.02
535.25	2893.78
535.44	2582.49
535.64	2758.61
535.84	2666.46
536.04	2639.83
536.24	2598.87
536.43	2568.15
536.63	2633.69
536.83	2664.41
537.03	2754.52
537.22	2492.38
537.42	2498.52
537.62	2766.81
537.82	2598.87
538.02	2809.81
538.21	2920.40
538.41	3256.27
538.61	2758.61
538.81	2695.13
539.00	2834.39
539.20	2482.14
539.40	2715.61
539.60	2664.41
539.79	2803.67
539.99	2703.32
540.19	2584.54
540.39	2617.30
540.58	2703.32
540.78	2828.24
540.98	2723.80
541.18	2824.15
541.37	2762.71
541.57	2713.56
541.77	2840.53
541.97	2510.81
542.16	2523.10
542.36	2686.94
542.56	2666.46
542.76	2877.40
542.95	2701.27
543.15	2918.36
543.35	2873.30
543.54	2576.34
543.74	2527.19
543.94	2975.70
544.14	2662.36
544.33	2723.80
544.53	2654.17
544.73	2643.93
544.93	2762.71
545.12	2627.54
545.32	2736.09
545.52	2625.50
545.71	2527.19
545.91	2596.82
546.11	2506.71
546.30	2582.49
546.50	2723.80
546.70	2740.18
546.90	2688.98
547.09	2480.09
547.29	2744.28
547.49	2815.96
547.68	2617.30
547.88	2590.68
548.08	2861.01
548.27	3004.37
548.47	2695.13
548.67	2680.79
548.87	2754.52
549.06	2605.02
549.26	2664.41
549.46	2727.89
549.65	2629.59
549.85	2686.94
550.05	2734.04
550.24	2527.19
550.44	2744.28
550.64	2740.18
550.83	2666.46
551.03	2953.17
551.23	2815.96
551.42	2731.99
551.62	2637.78
551.82	2717.65
552.01	2668.50
552.21	2865.11
552.41	2631.64
552.60	2949.08
552.80	2758.61
553.00	2645.98
553.19	2572.25
553.39	3053.52
553.59	2576.34
553.78	2754.52
553.98	2709.46
554.17	2535.39
554.37	2729.94
554.57	2723.80
554.76	2488.28
554.96	2615.26
555.16	2717.65
555.35	2721.75
555.55	2723.80
555.75	2822.10
555.94	2924.50
556.14	2469.85
556.33	2797.53
556.53	2650.07
556.73	2703.32
556.92	2686.94
557.12	2672.60
557.32	3137.49
557.51	2904.02
557.71	2711.51
557.90	2846.68
558.10	2893.78
558.30	2643.93
558.49	2588.63
558.69	2656.22
558.88	2815.96
559.08	2781.14
559.28	2734.04
559.47	2596.82
559.67	2881.49
559.86	3030.99
560.06	2613.21
560.26	2703.32
560.45	2758.61
560.65	2711.51
560.84	2797.53
561.04	2598.87
561.24	2809.81
561.43	2637.78
561.63	2940.88
561.82	2777.05
562.02	2869.20
562.22	2617.30
562.41	2580.44
562.61	2635.74
562.80	2498.52
563.00	3125.20
563.19	2717.65
563.39	2781.14
563.59	2832.34
563.78	2498.52
563.98	2420.70
564.17	2602.97
564.37	2449.37
564.56	2707.41
564.76	2512.86
564.96	2813.91
565.15	2768.85
565.35	3086.29
565.54	2611.16
565.74	2674.65
565.93	2850.77
566.13	2772.95
566.32	2725.85
566.52	2731.99
566.71	2709.46
566.91	2906.07
567.11	2770.90
567.30	2607.06
567.50	2775.00
567.69	2815.96
567.89	2670.55
568.08	2545.63
568.28	2764.76
568.47	2531.29
568.67	2686.94
568.86	2578.39
569.06	2811.86
569.25	2701.27
569.45	2615.26
569.64	2605.02
569.84	2684.89
570.04	2742.23
570.23	2598.87
570.43	2633.69
570.62	2772.95
570.82	2957.27
571.01	2496.47
571.21	2621.40
571.40	2584.54
571.60	2811.86
571.79	2678.74
571.99	2611.16
572.18	2596.82
572.38	2742.23
572.57	2592.73
572.77	2686.94
572.96	3082.19
573.16	2799.57
573.35	2680.79
573.55	2805.72
573.74	2822.10
573.94	2635.74
574.13	2643.93
574.33	2801.62
574.52	2932.69
574.71	2772.95
574.91	2715.61
575.10	2557.91
575.30	2648.02
575.49	2635.74
575.69	2617.30
575.88	2680.79
576.08	2727.89
576.27	2883.54
576.47	2652.12
576.66	2795.48
576.86	2869.20
577.05	2775.00
577.25	2807.77
577.44	2895.83
577.64	2627.54
577.83	2910.16
578.02	2674.65
578.22	2850.77
578.41	2985.94
578.61	2684.89
578.80	2547.67
579.00	2645.98
579.19	2775.00
579.39	2770.90
579.58	2789.33
579.77	2600.92
579.97	2992.08
580.16	2836.44
580.36	2811.86
580.55	2719.70
580.75	2846.68
580.94	2707.41
581.13	2850.77
581.33	2893.78
581.52	2662.36
581.72	3080.14
581.91	2793.43
582.11	2674.65
582.30	2865.11
582.49	2834.39
582.69	2947.03
582.88	2703.32
583.08	2701.27
583.27	2850.77
583.47	2721.75
583.66	2629.59
583.85	2578.39
584.05	2797.53
584.24	2801.62
584.44	2785.24
584.63	2908.12
584.82	2889.68
585.02	2916.31
585.21	2805.72
585.41	2916.31
585.60	2783.19
585.79	2901.97
585.99	3006.42
586.18	2846.68
586.37	3508.17
586.57	5382.06
586.76	15818.51
586.96	34668.02
587.15	47754.54
587.34	56648.86
587.54	61064.28
587.73	54226.12
587.93	38501.81
588.12	29230.66
588.31	23850.64
588.51	20885.19
588.70	19232.47
588.89	16971.52
589.09	14706.46
589.28	12435.27
589.47	9928.55
589.67	7673.74
589.86	5990.31
590.06	4386.75
590.25	3946.44
590.44	3504.07
590.64	3092.43
590.83	3014.61
591.02	3018.71
591.22	2785.24
591.41	2785.24
591.60	2723.80
591.80	3119.06
591.99	2568.15
592.18	2707.41
592.38	2811.86
592.57	2668.50
592.76	2734.04
592.96	2742.23
593.15	2760.66
593.34	2940.88
593.54	2693.08
593.73	2709.46
593.92	2793.43
594.12	2846.68
594.31	2684.89
594.50	2869.20
594.70	2856.92
594.89	3141.58
595.08	2555.86
595.28	2832.34
595.47	3213.26
595.66	2820.05
595.86	2613.21
596.05	2686.94
596.24	2637.78
596.43	2938.84
596.63	2783.19
596.82	2783.19
597.01	2873.30
597.21	3000.27
597.40	2660.31
597.59	2686.94
597.79	2650.07
597.98	2871.25
598.17	2701.27
598.36	2688.98
598.56	2875.35
598.75	2650.07
598.94	2731.99
599.14	2717.65
599.33	2691.03
599.52	2836.44
599.71	2723.80
599.91	2731.99
600.10	2844.63
600.29	2723.80
600.48	2713.56
600.68	2770.90
600.87	2768.85
601.06	2570.20
601.26	2703.32
601.45	2672.60
601.64	2709.46
601.83	2887.64
602.03	2570.20
602.22	2531.29
602.41	2961.36
602.60	3131.34
602.80	2797.53
602.99	2820.05
603.18	2598.87
603.37	2824.15
603.57	2697.17
603.76	2742.23
603.95	2871.25
604.14	2711.51
604.34	2580.44
604.53	2627.54
604.72	2797.53
604.91	2912.21
605.10	2684.89
605.30	2523.10
605.49	3086.29
605.68	2828.24
605.87	2748.37
606.07	2578.39
606.26	2703.32
606.45	2807.77
606.64	2764.76
606.84	2656.22
607.03	2709.46
607.22	2863.06
607.41	2680.79
607.60	2650.07
607.80	2871.25
607.99	2699.22
608.18	2699.22
608.37	2660.31
608.56	2576.34
608.76	2838.48
608.95	2828.24
609.14	2643.93
609.33	2889.68
609.52	2977.75
609.72	2777.05
609.91	2795.48
610.10	2738.13
610.29	2977.75
610.48	2787.29
610.68	2721.75
610.87	2762.71
611.06	2846.68
611.25	2691.03
611.44	2789.33
611.63	2623.45
611.83	2889.68
612.02	2586.58
612.21	2756.57
612.40	2512.86
612.59	2516.95
612.79	2623.45
612.98	2711.51
613.17	2949.08
613.36	2693.08
613.55	2830.29
613.74	2740.18
613.93	2756.57
614.13	2881.49
614.32	2729.94
614.51	2740.18
614.70	2695.13
614.89	2729.94
615.08	2760.66
615.28	3131.34
615.47	2588.63
615.66	2779.09
615.85	2660.31
616.04	2863.06
616.23	2760.66
616.42	2742.23
616.62	2795.48
616.81	2654.17
617.00	2695.13
617.19	2760.66
617.38	2629.59
617.57	2713.56
617.76	2752.47
617.95	2740.18
618.15	2693.08
618.34	2899.92
618.53	2488.28
618.72	2824.15
618.91	2775.00
619.10	2729.94
619.29	2777.05
619.48	2746.33
619.68	2574.30
619.87	2498.52
620.06	2475.99
620.25	2775.00
620.44	2590.68
620.63	2619.35
620.82	2740.18
621.01	2758.61
621.20	2664.41
621.39	2775.00
621.59	2750.42
621.78	2611.16
621.97	2650.07
622.16	2785.24
622.35	2731.99
622.54	2877.40
622.73	2764.76
622.92	2455.51
623.11	2930.64
623.30	2598.87
623.49	2748.37
623.68	2609.11
623.88	2865.11
624.07	2756.57
624.26	2652.12
624.45	2607.06
624.64	2729.94
624.83	2795.48
625.02	2613.21
625.21	2631.64
625.40	2711.51
625.59	2846.68
625.78	2742.23
625.97	2727.89
626.16	2908.12
626.35	2846.68
626.54	2727.89
626.74	2861.01
626.93	2699.22
627.12	2705.37
627.31	2893.78
627.50	2676.70
627.69	2901.97
627.88	2576.34
628.07	2721.75
628.26	2461.66
628.45	2605.02
628.64	2656.22
628.83	2629.59
629.02	2478.04
629.21	2762.71
629.40	2705.37
629.59	2564.06
629.78	2570.20
629.97	2666.46
630.16	2789.33
630.35	2633.69
630.54	2731.99
630.73	2611.16
630.92	2756.57
631.11	2594.78
631.30	2715.61
631.49	2863.06
631.68	2648.02
631.87	2725.85
632.06	2568.15
632.25	3076.05
632.44	2684.89
632.63	2668.50
632.82	2615.26
633.01	2643.93
633.20	2740.18
633.39	2715.61
633.58	2529.24
633.77	2797.53
633.96	2838.48
634.15	2729.94
634.34	2762.71
634.53	2766.81
634.72	2666.46
634.91	2516.95
635.10	2752.47
635.29	2826.20
635.48	2744.28
635.67	2519.00
635.86	2535.39
636.05	3016.66
636.24	2715.61
636.43	2594.78
636.62	2711.51
636.81	2359.26
637.00	2713.56
637.19	2703.32
637.38	2676.70
637.57	2635.74
637.76	2719.70
637.95	2820.05
638.14	2678.74
638.33	2797.53
638.52	2783.19
638.71	2574.30
638.89	2607.06
639.08	3108.82
639.27	2809.81
639.46	2797.53
639.65	3153.87
639.84	3213.26
640.03	3327.95
640.22	3063.76
640.41	3143.63
640.60	2869.20
640.79	2912.21
640.98	2785.24
641.17	2856.92
641.36	2908.12
641.55	2922.45
641.74	2559.96
641.92	2586.58
642.11	2631.64
642.30	2686.94
642.49	2611.16
642.68	2549.72
642.87	2742.23
643.06	2818.00
643.25	2590.68
643.44	2525.15
643.63	2682.84
643.82	2795.48
644.00	2574.30
644.19	2576.34
644.38	2553.82
644.57	2795.48
644.76	2662.36
644.95	2633.69
645.14	2764.76
645.33	2729.94
645.52	2695.13
645.71	2500.57
645.89	2529.24
646.08	2672.60
646.27	2629.59
646.46	2944.98
646.65	2537.43
646.84	2734.04
647.03	2596.82
647.22	2764.76
647.40	2727.89
647.59	2652.12
647.78	2523.10
647.97	2553.82
648.16	2637.78
648.35	2932.69
648.54	2944.98
648.73	2602.97
648.91	2854.87
649.10	2775.00
649.29	2621.40
649.48	2631.64
649.67	2760.66
649.86	2709.46
650.05	2650.07
650.23	2772.95
650.42	2643.93
650.61	2934.74
650.80	2863.06
650.99	2908.12
651.18	2828.24
651.36	2830.29
651.55	2643.93
651.74	2881.49
651.93	2750.42
652.12	2744.28
652.31	2670.55
652.49	2623.45
652.68	2656.22
652.87	3014.61
653.06	2723.80
653.25	2932.69
653.44	2713.56
653.62	2959.31
653.81	2580.44
654.00	2623.45
654.19	2877.40
654.38	3121.10
654.56	2748.37
654.75	2521.05
654.94	2826.20
655.13	2748.37
655.32	2684.89
655.51	2660.31
655.69	2662.36
655.88	2756.57
656.07	2553.82
656.26	2688.98
656.45	2471.90
656.63	2678.74
656.82	2662.36
657.01	2856.92
657.20	2691.03
657.38	3002.32
657.57	2654.17
657.76	2514.91
657.95	2793.43
658.14	2674.65
658.32	2746.33
658.51	2555.86
658.70	2736.09
658.89	2742.23
659.08	2635.74
659.26	2852.82
659.45	2635.74
659.64	2781.14
659.83	2643.93
660.01	3076.05
660.20	2762.71
660.39	3008.47
660.58	2435.03
660.76	2666.46
660.95	2539.48
661.14	2719.70
661.33	2480.09
661.51	2652.12
661.70	2652.12
661.89	2836.44
662.08	2695.13
662.26	2578.39
662.45	2650.07
662.64	2994.13
662.83	2654.17
663.01	2449.37
663.20	2703.32
663.39	2979.79
663.58	2648.02
663.76	2605.02
663.95	2820.05
664.14	2611.16
664.32	2635.74
664.51	2627.54
664.70	2482.14
664.89	2754.52
665.07	2551.77
665.26	2775.00
665.45	2613.21
665.64	2871.25
665.82	2641.88
666.01	2727.89
666.20	2605.02
666.38	2869.20
666.57	2865.11
666.76	4396.99
666.95	10037.09
667.13	16885.50
667.32	20948.67
667.51	23836.31
667.69	24948.36
667.88	21370.55
668.07	15144.73
668.25	12914.49
668.44	10856.28
668.63	9305.97
668.81	8490.88
669.00	7176.08
669.19	6600.60
669.38	5932.97
669.56	4947.89
669.75	4218.82
669.94	3682.25
670.12	3248.08
670.31	2949.08
670.50	2981.84
670.68	2944.98
670.87	2834.39
671.06	2686.94
671.24	2713.56
671.43	2975.70
671.62	2797.53
671.80	2613.21
671.99	2736.09
672.18	2785.24
672.36	2883.54
672.55	2758.61
672.74	2729.94
672.92	2717.65
673.11	2852.82
673.29	2533.34
673.48	2770.90
673.67	2654.17
673.85	2826.20
674.04	2605.02
674.23	2719.70
674.41	2965.46
674.60	2582.49
674.79	2492.38
674.97	2488.28
675.16	2858.96
675.34	2801.62
675.53	2688.98
675.72	2693.08
675.90	3043.28
676.09	2641.88
676.28	2752.47
676.46	2467.80
676.65	2783.19
676.83	2621.40
677.02	2652.12
677.21	2695.13
677.39	2740.18
677.58	2625.50
677.77	2648.02
677.95	2547.67
678.14	2770.90
678.32	2670.55
678.51	2670.55
678.70	2942.93
678.88	2662.36
679.07	2711.51
679.25	2662.36
679.44	2719.70
679.63	2578.39
679.81	2740.18
680.00	2852.82
680.18	2777.05
680.37	2918.36
680.55	2734.04
680.74	2496.47
680.93	2488.28
681.11	2744.28
681.30	2699.22
681.48	2631.64
681.67	2697.17
681.85	2750.42
682.04	2596.82
682.23	2789.33
682.41	2731.99
682.60	2641.88
682.78	2648.02
682.97	2613.21
683.15	2688.98
683.34	2807.77
683.53	2953.17
683.71	2594.78
683.90	2705.37
684.08	2981.84
684.27	2662.36
684.45	2709.46
684.64	2781.14
684.82	2672.60
685.01	2832.34
685.19	2652.12
685.38	2926.55
685.57	2688.98
685.75	2582.49
685.94	2625.50
686.12	2580.44
686.31	2656.22
686.49	2936.79
686.68	2398.17
686.86	2680.79
687.05	2656.22
687.23	2873.30
687.42	2697.17
687.60	2502.62
687.79	2824.15
687.97	2899.92
688.16	2693.08
688.34	2813.91
688.53	2455.51
688.71	2818.00
688.90	2875.35
689.08	2707.41
689.27	2537.43
689.45	2854.87
689.64	2686.94
689.82	2758.61
690.01	2850.77
690.19	2746.33
690.38	2727.89
690.56	2891.73
690.75	2559.96
690.93	2629.59
691.12	2584.54
691.30	2752.47
691.49	2705.37
691.67	2723.80
691.86	2912.21
692.04	2672.60
692.23	2688.98
692.41	2664.41
692.60	2936.79
692.78	2768.85
692.97	2707.41
693.15	2772.95
693.34	2889.68
693.52	2867.16
693.71	2598.87
693.89	2625.50
694.08	2422.75
694.26	2711.51
694.44	2787.29
694.63	2809.81
694.81	2541.53
695.00	2523.10
695.18	2928.60
695.37	2977.75
695.55	2701.27
695.74	2686.94
695.92	2666.46
696.10	2947.03
696.29	2545.63
696.47	2645.98
696.66	2543.58
696.84	2545.63
697.03	2686.94
697.21	2949.08
697.40	4145.09
697.58	2852.82
697.76	2607.06
697.95	2654.17
698.13	2562.01
698.32	2547.67
698.50	2625.50
698.68	2594.78
698.87	2801.62
699.05	2967.51
699.24	2607.06
699.42	2516.95
699.61	2775.00
699.79	2760.66
699.97	2707.41
700.16	2594.78
700.34	2545.63
700.53	2746.33
700.71	2871.25
700.89	2791.38
701.08	2664.41
701.26	2678.74
701.45	3172.30
701.63	2557.91
701.81	2619.35
702.00	2617.30
702.18	2797.53
702.37	2678.74
702.55	2936.79
702.73	2793.43
702.92	2697.17
703.10	2908.12
703.28	2863.06
703.47	2682.84
703.65	2801.62
703.84	2818.00
704.02	2711.51
704.20	2889.68
704.39	2594.78
704.57	2678.74
704.75	2885.59
704.94	2809.81
705.12	2674.65
705.30	3071.95
705.49	5715.88
705.67	11788.11
705.86	17520.37
706.04	20014.80
706.22	22558.38
706.41	22490.79
706.59	17555.19
706.77	13158.20
706.96	11460.43
707.14	10399.59
707.32	8771.45
707.51	7880.58
707.69	6465.44
707.87	5326.77
708.06	4460.48
708.24	3880.90
708.42	3405.77
708.61	3379.15
708.79	2729.94
708.97	2754.52
709.16	2858.96
709.34	2686.94
709.52	2652.12
709.71	2707.41
709.89	2856.92
710.07	2682.84
710.26	2521.05
710.44	2707.41
710.62	2881.49
710.80	2727.89
710.99	2785.24
711.17	2797.53
711.35	2625.50
711.54	2695.13
711.72	2852.82
711.90	2797.53
712.09	2766.81
712.27	2588.63
712.45	2748.37
712.63	2598.87
712.82	2772.95
713.00	2727.89
713.18	2756.57
713.37	2764.76
713.55	2764.76
713.73	2783.19
713.91	2719.70
714.10	2641.88
714.28	2686.94
714.46	2705.37
714.65	2805.72
714.83	2691.03
715.01	2811.86
715.19	2691.03
715.38	2572.25
715.56	2701.27
715.74	2639.83
715.92	2631.64
716.11	2873.30
716.29	2463.71
716.47	2678.74
716.65	2727.89
716.84	2533.34
717.02	2772.95
717.20	2478.04
717.38	2572.25
717.57	2734.04
717.75	2709.46
717.93	2617.30
718.11	2842.58
718.30	2506.71
718.48	2686.94
718.66	2959.31
718.84	2850.77
719.03	2703.32
719.21	2492.38
719.39	2944.98
719.57	2758.61
719.75	2750.42
719.94	2619.35
720.12	2656.22
720.30	2723.80
720.48	2734.04
720.67	2478.04
720.85	2676.70
721.03	2559.96
721.21	2533.34
721.39	2744.28
721.58	2756.57
721.76	2598.87
721.94	2760.66
722.12	2760.66
722.30	2947.03
722.49	2607.06
722.67	2686.94
722.85	2676.70
723.03	2553.82
723.21	2643.93
723.40	2756.57
723.58	2822.10
723.76	2861.01
723.94	2918.36
724.12	2775.00
724.30	2871.25
724.49	2850.77
724.67	2621.40
724.85	2834.39
725.03	2492.38
725.21	2809.81
725.40	2899.92
725.58	2699.22
725.76	2824.15
725.94	2840.53
726.12	2574.30
726.30	2670.55
726.49	2641.88
726.67	2605.02
726.85	2766.81
727.03	3055.57
727.21	4132.80
727.39	5265.33
727.57	5564.33
727.76	5932.97
727.94	6119.33
728.12	5535.66
728.30	4638.65
728.48	4308.93
728.66	3960.77
728.84	3774.41
729.03	3254.22
729.21	3098.58
729.39	2961.36
729.57	2793.43
729.75	2791.38
729.93	2750.42
730.11	2670.55
730.30	2709.46
730.48	2678.74
730.66	2781.14
730.84	2742.23
731.02	2781.14
731.20	2590.68
731.38	2707.41
731.56	2490.33
731.74	2500.57
731.93	2756.57
732.11	2699.22
732.29	2639.83
732.47	2848.72
732.65	2686.94
732.83	2822.10
733.01	2787.29
733.19	2693.08
733.37	2748.37
733.56	2740.18
733.74	2602.97
733.92	2940.88
734.10	2721.75
734.28	2662.36
734.46	2445.27
734.64	2711.51
734.82	2643.93
735.00	2645.98
735.18	2574.30
735.36	2725.85
735.54	2654.17
735.73	2623.45
735.91	2715.61
736.09	2965.46
736.27	2652.12
736.45	2777.05
736.63	2449.37
736.81	2629.59
736.99	2865.11
737.17	2818.00
737.35	2682.84
737.53	2815.96
737.71	2729.94
737.89	2793.43
738.07	2615.26
738.25	2592.73
738.43	2521.05
738.61	2613.21
738.80	2557.91
738.98	2582.49
739.16	2596.82
739.34	2588.63
739.52	2840.53
739.70	2672.60
739.88	2824.15
740.06	2822.10
740.24	2430.94
740.42	2863.06
740.60	2527.19
740.78	2588.63
740.96	2488.28
741.14	2660.31
741.32	2723.80
741.50	2523.10
741.68	2844.63
741.86	2955.22
742.04	2613.21
742.22	2574.30
742.40	2637.78
742.58	2744.28
742.76	2623.45
742.94	2777.05
743.12	2488.28
743.30	2772.95
743.48	2734.04
743.66	2613.21
743.84	2768.85
744.02	2650.07
744.20	2654.17
744.38	2543.58
744.56	2537.43
744.74	3037.14
744.92	2772.95
745.10	2850.77
745.28	2775.00
745.46	2912.21
745.64	2723.80
745.82	2727.89
746.00	2635.74
746.18	2791.38
746.36	2598.87
746.54	2691.03
746.72	2695.13
746.90	2588.63
747.08	2967.51
747.26	2643.93
747.44	2754.52
747.62	2809.81
747.80	2707.41
747.98	2834.39
748.15	2635.74
748.33	2981.84
748.51	2629.59
748.69	2715.61
748.87	2566.10
749.05	2693.08
749.23	2635.74
749.41	2711.51
749.59	2688.98
749.77	2877.40
749.95	2666.46
750.13	2627.54
750.31	2832.34
750.49	2676.70
750.67	2863.06
750.85	2826.20
751.03	2674.65
751.20	2981.84
751.38	2791.38
751.56	2682.84
751.74	2658.26
751.92	2691.03
752.10	2596.82
752.28	2799.57
752.46	2629.59
752.64	2670.55
752.82	2723.80
753.00	2766.81
753.18	2562.01
753.35	2703.32
753.53	2793.43
753.71	2555.86
753.89	2746.33
754.07	2758.61
754.25	2787.29
754.43	2740.18
754.61	2574.30
754.79	2840.53
754.97	2670.55
755.14	2842.58
755.32	2516.95
755.50	2727.89
755.68	2691.03
755.86	2555.86
756.04	2621.40
756.22	2449.37
756.40	2846.68
756.57	2826.20
756.75	2594.78
756.93	2858.96
757.11	2828.24
757.29	2531.29
757.47	2627.54
757.65	2447.32
757.82	2365.40
758.00	2510.81
758.18	2539.48
758.36	2547.67
758.54	2996.18
758.72	2484.19
758.90	2766.81
759.07	2746.33
759.25	2609.11
759.43	2758.61
759.61	2502.62
759.79	3897.28
759.97	2885.59
760.15	2654.17
760.32	2670.55
760.50	2742.23
760.68	3030.99
760.86	2541.53
761.04	2877.40
761.22	2822.10
761.39	2645.98
761.57	2709.46
761.75	2660.31
761.93	2781.14
762.11	2748.37
762.28	2729.94
762.46	2617.30
762.64	2891.73
762.82	2525.15
763.00	2668.50
763.18	2805.72
763.35	2586.58
763.53	2760.66
763.71	2703.32
763.89	2641.88
764.07	2758.61
764.24	2744.28
764.42	2746.33
764.60	2629.59
764.78	2723.80
764.96	2871.25
765.13	2768.85
765.31	2551.77
765.49	2731.99
765.67	2531.29
765.84	2588.63
766.02	2596.82
766.20	2500.57
766.38	2752.47
766.56	2725.85
766.73	2713.56
766.91	2670.55
767.09	2742.23
767.27	2738.13
767.44	2486.23
767.62	2861.01
767.80	2766.81
767.98	2562.01
768.15	2598.87
768.33	2809.81
768.51	2893.78
768.69	2844.63
768.87	2658.26
769.04	2789.33
769.22	3123.15
769.40	2779.09
769.58	2813.91
769.75	2822.10
769.93	3014.61
770.11	2662.36
770.28	2564.06
770.46	2785.24
770.64	2752.47
770.82	2709.46
770.99	2602.97
771.17	2793.43
771.35	2662.36
771.53	2643.93
771.70	2535.39
771.88	2723.80
772.06	2744.28
772.23	2600.92
772.41	2670.55
772.59	2594.78
772.77	2549.72
772.94	2678.74
773.12	2803.67
773.30	2697.17
773.47	2719.70
773.65	2549.72
773.83	2783.19
774.01	2639.83
774.18	2435.03
774.36	2625.50
774.54	2500.57
774.71	2768.85
774.89	2506.71
775.07	2564.06
775.24	2607.06
775.42	2678.74
775.60	2934.74
775.78	2531.29
775.95	2445.27
776.13	2555.86
776.31	2406.36
776.48	2717.65
776.66	2813.91
776.84	2680.79
777.01	2645.98
777.19	2475.99
777.37	2600.92
777.54	2871.25
777.72	2987.99
777.90	2736.09
778.07	2559.96
778.25	3211.22
778.43	2863.06
778.60	2635.74
778.78	2740.18
778.96	2975.70
779.13	2586.58
779.31	2740.18
779.49	2742.23
779.66	2744.28
779.84	2666.46
780.01	2656.22
780.19	2521.05
780.37	2873.30
780.54	2799.57
780.72	2535.39
780.90	2611.16
781.07	2682.84
781.25	2586.58
781.43	2869.20
781.60	2615.26
781.78	2928.60
781.95	2717.65
782.13	2580.44
782.31	2633.69
782.48	2463.71
782.66	2777.05
782.83	2889.68
783.01	2705.37
783.19	2901.97
783.36	2744.28
783.54	2588.63
783.72	2764.76
783.89	2613.21
784.07	2748.37
784.24	2781.14
784.42	2852.82
784.60	2820.05
784.77	2791.38
784.95	2455.51
785.12	2674.65
785.30	2758.61
785.47	2506.71
785.65	2514.91
785.83	2668.50
786.00	2660.31
786.18	2666.46
786.35	2531.29
786.53	2576.34
786.71	2881.49
786.88	2764.76
787.06	2727.89
787.23	2701.27
787.41	2500.57
787.58	2756.57
787.76	2547.67
787.94	2611.16
788.11	2768.85
788.29	2553.82
788.46	2590.68
788.64	2621.40
788.81	2650.07
788.99	2621.40
789.16	2621.40
789.34	2625.50
789.52	2625.50
789.69	2607.06
789.87	2422.75
790.04	2592.73
790.22	2668.50
790.39	3094.48
790.57	2580.44
790.74	2557.91
790.92	2828.24
791.09	2469.85
791.27	2670.55
791.44	2748.37
791.62	2680.79
791.79	2809.81
791.97	2734.04
792.15	2977.75
792.32	2811.86
792.50	2770.90
792.67	2856.92
792.85	2879.44
793.02	2762.71
793.20	2684.89
793.37	2525.15
793.55	2588.63
793.72	2555.86
793.90	2734.04
794.07	2641.88
794.25	2559.96
794.42	2738.13
794.60	2594.78
794.77	2676.70
794.95	2699.22
795.12	2736.09
795.30	2742.23
795.47	2506.71
795.65	3061.71
795.82	2844.63
796.00	2674.65
796.17	2625.50
796.34	2584.54
796.52	2709.46
796.69	2758.61
796.87	2805.72
797.04	2744.28
797.22	2879.44
797.39	2836.44
797.57	2746.33
797.74	2695.13
797.92	2844.63
798.09	2678.74
798.27	2854.87
798.44	2602.97
798.62	2564.06
798.79	2736.09
798.96	2719.70
799.14	2643.93
799.31	3094.48
799.49	2660.31
799.66	2668.50
799.84	2729.94
800.01	2496.47
800.19	2791.38
800.36	2580.44
800.53	2721.75
800.71	2867.16
800.88	2895.83
801.06	2621.40
801.23	2627.54
801.41	2639.83
801.58	2617.30
801.75	2609.11
801.93	2666.46
802.10	2826.20
802.28	2641.88
802.45	2588.63
802.63	2736.09
802.80	2924.50
802.97	2582.49
803.15	2707.41
803.32	2695.13
803.50	2576.34
803.67	2580.44
803.84	2547.67
804.02	2719.70
804.19	2629.59
804.37	2387.93
804.54	2473.95
804.71	2590.68
804.89	2643.93
805.06	2543.58
805.24	2519.00
805.41	2506.71
805.58	2584.54
805.76	3057.62
805.93	2629.59
806.10	2844.63
806.28	2830.29
806.45	2777.05
806.63	2715.61
806.80	2723.80
806.97	2744.28
807.15	2813.91
807.32	2670.55
807.49	2701.27
807.67	2600.92
807.84	2748.37
808.01	2486.23
808.19	2838.48
808.36	3125.20
808.54	2662.36
808.71	2578.39
808.88	2801.62
809.06	2881.49
809.23	2969.55
809.40	2625.50
809.58	2668.50
809.75	2697.17
809.92	2551.77
810.10	2930.64
810.27	2729.94
810.44	2824.15
810.62	2766.81
810.79	2703.32
810.96	2617.30
811.14	2607.06
811.31	2783.19
811.48	2844.63
811.66	2750.42
811.83	2865.11
812.00	2805.72
812.18	2785.24
812.35	2822.10
812.52	2635.74
812.69	2662.36
812.87	2652.12
813.04	2568.15
813.21	2693.08
813.39	2566.10
813.56	2570.20
813.73	2836.44
813.91	2539.48
814.08	2701.27
814.25	2678.74
814.42	2463.71
814.60	2709.46
814.77	2648.02
814.94	2613.21
815.12	2688.98
815.29	2959.31
815.46	2666.46
815.63	2656.22
815.81	2662.36
815.98	2656.22
816.15	2660.31
816.33	2623.45
816.50	2635.74
816.67	2740.18
816.84	2697.17
817.02	2480.09
817.19	2586.58
817.36	2777.05
817.53	2703.32
817.71	2580.44
817.88	2682.84
818.05	2615.26
818.22	2648.02
818.40	2836.44
818.57	2602.97
818.74	2787.29
818.91	2621.40
819.09	2670.55
819.26	2836.44
819.43	2594.78
819.60	2607.06
819.78	2682.84
819.95	2744.28
820.12	2555.86
820.29	2947.03
820.47	2838.48
820.64	2596.82
820.81	2553.82
820.98	2529.24
821.15	2648.02
821.33	2772.95
821.50	2510.81
821.67	2834.39
821.84	2662.36
822.02	2674.65
822.19	2867.16
822.36	2654.17
822.53	2625.50
822.70	2488.28
822.88	2717.65
823.05	2865.11
823.22	2678.74
823.39	2674.65
823.56	2688.98
823.74	2967.51
823.91	2521.05
824.08	2510.81
824.25	2537.43
824.42	2906.07
824.60	2432.99
824.77	2824.15
824.94	2627.54
825.11	2795.48
825.28	2553.82
825.45	2736.09
825.63	2678.74
825.80	2670.55
825.97	2717.65
826.14	2721.75
826.31	2547.67
826.48	2809.81
826.66	2668.50
826.83	2654.17
827.00	2682.84
827.17	2656.22
827.34	2709.46
827.51	2529.24
827.69	2658.26
827.86	2514.91
828.03	2658.26
828.20	2645.98
828.37	2596.82
828.54	2758.61
828.71	2703.32
828.89	2721.75
829.06	2815.96
829.23	2992.08
829.40	2625.50
829.57	2543.58
829.74	2768.85
829.91	2580.44
830.09	2529.24
830.26	2734.04
830.43	3018.71
830.60	2637.78
830.77	2760.66
830.94	2826.20
831.11	2850.77
831.28	2682.84
831.46	2861.01
831.63	2637.78
831.80	2809.81
831.97	2641.88
832.14	2605.02
832.31	2688.98
832.48	2760.66
832.65	2856.92
832.82	2682.84
832.99	2760.66
833.17	2576.34
833.34	2883.54
833.51	2697.17
833.68	2404.32
833.85	2854.87
834.02	2514.91
834.19	2484.19
834.36	2609.11
834.53	2795.48
834.70	2830.29
834.87	2658.26
835.04	2596.82
835.22	2648.02
835.39	2609.11
835.56	2514.91
835.73	2592.73
835.90	2938.84
836.07	2605.02
836.24	2670.55
836.41	2514.91
836.58	2611.16
836.75	2885.59
836.92	2631.64
837.09	2504.67
837.26	2752.47
837.43	2832.34
837.60	2572.25
837.77	2572.25
837.94	2789.33
838.12	2815.96
838.29	2539.48
838.46	2432.99
838.63	2594.78
838.80	2916.31
838.97	2701.27
839.14	2613.21
839.31	2721.75
839.48	2734.04
839.65	2570.20
839.82	2633.69
839.99	2711.51
840.16	2738.13
840.33	2449.37
840.50	2494.43
840.67	2541.53
840.84	2349.02
841.01	2531.29
841.18	2523.10
841.35	2701.27
841.52	2754.52
841.69	2885.59
841.86	2498.52
842.03	2756.57
842.20	2852.82
842.37	2584.54
842.54	2586.58
842.71	2660.31
842.88	2396.12
843.05	2611.16
843.22	2519.00
843.39	2822.10
843.56	2674.65
843.73	2611.16
843.90	2654.17
844.07	2686.94
844.24	2805.72
844.41	2660.31
844.58	2580.44
844.75	2691.03
844.92	2846.68
845.09	2559.96
845.26	2586.58
845.43	2744.28
845.60	2637.78
845.77	2623.45
845.94	2605.02
846.10	2791.38
846.27	2516.95
846.44	2455.51
846.61	2447.32
846.78	2744.28
846.95	2865.11
847.12	2551.77
847.29	2580.44
847.46	2566.10
847.63	2828.24
847.80	2494.43
847.97	2602.97
848.14	2975.70
848.31	2695.13
848.48	2422.75
848.65	2617.30
848.82	2643.93
848.98	3028.95
849.15	2684.89
849.32	2705.37
849.49	2850.77
849.66	2652.12
849.83	2514.91
850.00	2467.80
850.17	2783.19
850.34	2627.54
850.51	2498.52
850.68	2523.10
850.85	3059.67
851.01	2764.76
851.18	2514.91
851.35	2549.72
851.52	2793.43
851.69	2953.17
851.86	2445.27
852.03	2541.53
852.20	2846.68
852.37	2650.07
852.53	2422.75
852.70	2447.32
852.87	2699.22
853.04	2785.24
853.21	2566.10
853.38	2768.85
853.55	2854.87
853.72	2926.55
853.89	2498.52
854.05	2555.86
854.22	2707.41
854.39	2746.33
854.56	2588.63
854.73	2709.46
854.90	2670.55
855.07	2705.37
855.23	2510.81
855.40	2494.43
855.57	2609.11
855.74	2381.79
855.91	2727.89
856.08	2355.16
856.25	2535.39
856.41	2596.82
856.58	2539.48
856.75	2605.02
856.92	2553.82
857.09	2830.29
857.26	2455.51
857.42	2609.11
857.59	2836.44
857.76	2682.84
857.93	2539.48
858.10	2609.11
858.27	2510.81
858.43	2822.10
858.60	2453.47
858.77	2441.18
858.94	2619.35
859.11	2863.06
859.27	2539.48
859.44	2490.33
859.61	2961.36
859.78	2781.14
859.95	2559.96
860.12	2588.63
860.28	3049.43
860.45	2996.18
860.62	2539.48
860.79	2592.73
860.95	2643.93
861.12	2586.58
861.29	2482.14
861.46	2551.77
861.63	2701.27
861.79	2697.17
861.96	2467.80
862.13	2553.82
862.30	2901.97
862.47	2619.35
862.63	2430.94
862.80	2658.26
862.97	2803.67
863.14	2709.46
863.30	2564.06
863.47	2437.08
863.64	2924.50
863.81	2729.94
863.97	2506.71
864.14	2557.91
864.31	2641.88
864.48	2664.41
864.65	2543.58
864.81	2703.32
864.98	2818.00
865.15	2779.09
865.32	2578.39
865.48	2662.36
865.65	3014.61
865.82	2648.02
865.98	2598.87
866.15	2627.54
866.32	2748.37
866.49	2725.85
866.65	2695.13
866.82	2475.99
866.99	2703.32
867.16	2639.83
867.32	2525.15
867.49	2516.95
867.66	2672.60
867.83	2666.46
867.99	2461.66
868.16	2619.35
868.33	2541.53
868.49	2703.32
868.66	2519.00
868.83	2605.02
868.99	2744.28
869.16	2684.89
869.33	2729.94
869.50	2680.79
869.66	2684.89
869.83	2596.82
870.00	2402.27
870.16	2588.63
870.33	2668.50
870.50	2879.44
870.66	2572.25
870.83	2635.74
871.00	2723.80
871.17	2715.61
871.33	2576.34
871.50	2586.58
871.67	2711.51
871.83	2562.01
872.00	2635.74
872.17	2494.43
872.33	2987.99
872.50	2885.59
872.67	2564.06
872.83	2576.34
873.00	2736.09
873.17	2727.89
873.33	2615.26
873.50	2680.79
873.67	2576.34
873.83	2547.67
874.00	2559.96
874.16	2682.84
874.33	2723.80
874.50	2541.53
874.66	2588.63
874.83	2594.78
875.00	2832.34
875.16	2885.59
875.33	2672.60
875.50	2428.89
875.66	2633.69
875.83	2662.36
875.99	2666.46
876.16	2572.25
876.33	2643.93
876.49	2717.65
876.66	2596.82
876.83	2584.54
876.99	2430.94
877.16	2727.89
877.32	2502.62
877.49	2572.25
877.66	2787.29
877.82	2899.92
877.99	2631.64
878.15	2711.51
878.32	2668.50
878.49	2770.90
878.65	2605.02
878.82	2779.09
878.98	2615.26
879.15	2834.39
879.32	2680.79
879.48	2629.59
879.65	2746.33
879.81	2719.70
879.98	2549.72
880.15	2584.54
880.31	2856.92
880.48	2557.91
880.64	2701.27
880.81	2688.98
880.97	2973.65
881.14	2901.97
881.31	2523.10
881.47	2777.05
881.64	2684.89
881.80	2469.85
881.97	2699.22
882.13	2629.59
882.30	2645.98
882.47	2564.06
882.63	2521.05
882.80	2459.61
882.96	2637.78
883.13	2879.44
883.29	2568.15
883.46	2547.67
883.62	3010.51
883.79	2670.55
883.95	2738.13
884.12	2506.71
884.29	2912.21
884.45	2682.84
884.62	2641.88
884.78	2537.43
884.95	2875.35
885.11	2643.93
885.28	2666.46
885.44	2543.58
885.61	2785.24
885.77	2848.72
885.94	2643.93
886.10	2627.54
886.27	2791.38
886.43	3008.47
886.60	2787.29
886.76	2486.23
886.93	2537.43
887.09	2805.72
887.26	2455.51
887.42	2635.74
887.59	2891.73
887.75	3061.71
887.92	2725.85
888.08	2682.84
888.25	2926.55
888.41	2840.53
888.58	2562.01
888.74	2484.19
888.91	2707.41
>>>>>End Processed Spectral Data<<<<<
