SpectraSuite Data File
++++++++++++++++++++++++++++++++++++
Date: Thu May 05 16:20:29 CEST 2016
User: root
Dark Spectrum Present: No
Reference Spectrum Present: No
Number of Sampled Component Spectra: 1
Spectrometers: USB4C02835
Integration Time (usec): 100000 (USB4C02835)
Spectra Averaged: 1 (USB4C02835)
Boxcar Smoothing: 0 (USB4C02835)
Correct for Electrical Dark: No (USB4C02835)
Strobe/Lamp Enabled: No (USB4C02835)
Correct for Detector Non-linearity: No (USB4C02835)
Correct for Stray Light: No (USB4C02835)
Number of Pixels in Processed Spectrum: 3648
>>>>>Begin Processed Spectral Data<<<<<
177.47	2015.20
177.69	2015.20
177.91	2015.20
178.13	1982.43
178.36	2004.96
178.58	2504.67
178.80	2672.60
179.02	2455.51
179.24	2562.01
179.46	2441.18
179.68	2588.63
179.90	2635.74
180.13	2707.41
180.35	2396.12
180.57	2525.15
180.79	2744.28
181.01	2674.65
181.23	2467.80
181.45	2590.68
181.67	2867.16
181.90	2850.77
182.12	2584.54
182.34	2428.89
182.56	2863.06
182.78	2701.27
183.00	2555.86
183.22	2523.10
183.44	2469.85
183.66	3190.74
183.89	2590.68
184.11	2463.71
184.33	2793.43
184.55	2840.53
184.77	2463.71
184.99	2496.47
185.21	2684.89
185.43	3055.57
185.65	2457.56
185.87	2516.95
186.10	3006.42
186.32	3028.95
186.54	2510.81
186.76	2658.26
186.98	2858.96
187.20	2637.78
187.42	2562.01
187.64	2535.39
187.86	2723.80
188.08	2904.02
188.30	2514.91
188.52	2519.00
188.75	2899.92
188.97	2957.27
189.19	2473.95
189.41	2512.86
189.63	2764.76
189.85	2664.41
190.07	2328.54
190.29	2361.31
190.51	2760.66
190.73	2525.15
190.95	2727.89
191.17	2531.29
191.39	2473.95
191.61	2686.94
191.84	2559.96
192.06	2570.20
192.28	2381.79
192.50	3092.43
192.72	2596.82
192.94	2537.43
193.16	2906.07
193.38	2822.10
193.60	2537.43
193.82	2584.54
194.04	2811.86
194.26	2777.05
194.48	2570.20
194.70	2486.23
194.92	2643.93
195.14	2809.81
195.36	2463.71
195.58	2494.43
195.80	2691.03
196.02	2625.50
196.24	2490.33
196.46	2602.97
196.69	2740.18
196.91	3088.34
197.13	2516.95
197.35	2539.48
197.57	2881.49
197.79	2869.20
198.01	2502.62
198.23	2584.54
198.45	2744.28
198.67	2576.34
198.89	2408.41
199.11	2566.10
199.33	2650.07
199.55	2351.07
199.77	2445.27
199.99	2688.98
200.21	2631.64
200.43	2707.41
200.65	2398.17
200.87	2361.31
201.09	2770.90
201.31	2662.36
201.53	2529.24
201.75	2574.30
201.97	2805.72
202.19	2721.75
202.41	2566.10
202.63	2699.22
202.85	2865.11
203.07	2748.37
203.29	2557.91
203.51	2414.56
203.73	2658.26
203.95	3080.14
204.17	2506.71
204.39	2629.59
204.61	2691.03
204.83	2717.65
205.05	2592.73
205.27	2576.34
205.49	3018.71
205.71	2713.56
205.93	2490.33
206.15	2449.37
206.37	2725.85
206.59	2756.57
206.81	2381.79
207.03	2461.66
207.25	2574.30
207.47	2820.05
207.69	2506.71
207.91	2625.50
208.13	2942.93
208.34	2629.59
208.56	2549.72
208.78	2510.81
209.00	2664.41
209.22	2625.50
209.44	2525.15
209.66	2482.14
209.88	2803.67
210.10	2660.31
210.32	2531.29
210.54	2590.68
210.76	2695.13
210.98	2828.24
211.20	2428.89
211.42	2543.58
211.64	2830.29
211.86	2797.53
212.08	2559.96
212.30	2490.33
212.52	2637.78
212.74	2815.96
212.96	2586.58
213.17	2564.06
213.39	2832.34
213.61	2899.92
213.83	2541.53
214.05	2344.92
214.27	2895.83
214.49	2578.39
214.71	2564.06
214.93	2586.58
215.15	2703.32
215.37	2889.68
215.59	2439.13
215.81	2572.25
216.03	2879.44
216.24	2711.51
216.46	2531.29
216.68	2613.21
216.90	2863.06
217.12	2840.53
217.34	2521.05
217.56	2650.07
217.78	2901.97
218.00	2863.06
218.22	2551.77
218.44	2596.82
218.66	2738.13
218.87	2944.98
219.09	2490.33
219.31	2600.92
219.53	2748.37
219.75	2627.54
219.97	2576.34
220.19	2471.90
220.41	2684.89
220.63	2922.45
220.85	2484.19
221.06	2566.10
221.28	2940.88
221.50	2885.59
221.72	2531.29
221.94	2430.94
222.16	2783.19
222.38	2858.96
222.60	2496.47
222.82	2605.02
223.03	2840.53
223.25	2553.82
223.47	2510.81
223.69	2670.55
223.91	2854.87
224.13	2717.65
224.35	2328.54
224.57	2738.13
224.78	2834.39
225.00	2594.78
225.22	2553.82
225.44	2551.77
225.66	2891.73
225.88	2631.64
226.10	2596.82
226.32	2605.02
226.53	2922.45
226.75	2629.59
226.97	2564.06
227.19	2572.25
227.41	2596.82
227.63	2611.16
227.85	2381.79
228.06	2478.04
228.28	2775.00
228.50	2832.34
228.72	2420.70
228.94	2475.99
229.16	2449.37
229.37	2588.63
229.59	2488.28
229.81	2729.94
230.03	2648.02
230.25	2584.54
230.47	2340.83
230.69	2512.86
230.90	2818.00
231.12	2611.16
231.34	2545.63
231.56	2625.50
231.78	2564.06
232.00	2709.46
232.21	2523.10
232.43	2551.77
232.65	2385.88
232.87	2842.58
233.09	2387.93
233.30	2494.43
233.52	2822.10
233.74	2648.02
233.96	2441.18
234.18	2564.06
234.40	2762.71
234.61	3010.51
234.83	2420.70
235.05	2430.94
235.27	3035.09
235.49	2871.25
235.70	2488.28
235.92	2570.20
236.14	2830.29
236.36	3084.24
236.58	2392.03
236.79	2617.30
237.01	2682.84
237.23	2789.33
237.45	2695.13
237.67	2531.29
237.88	2779.09
238.10	2934.74
238.32	2471.90
238.54	2506.71
238.76	2699.22
238.97	2596.82
239.19	2435.03
239.41	2627.54
239.63	2885.59
239.85	2670.55
240.06	2529.24
240.28	2473.95
240.50	2932.69
240.72	2680.79
240.93	2478.04
241.15	2613.21
241.37	2777.05
241.59	2871.25
241.81	2635.74
242.02	2574.30
242.24	2701.27
242.46	2772.95
242.68	2418.65
242.89	2562.01
243.11	2861.01
243.33	2766.81
243.55	2512.86
243.76	2469.85
243.98	2629.59
244.20	2674.65
244.42	2422.75
244.64	2453.47
244.85	2611.16
245.07	2574.30
245.29	2498.52
245.51	2549.72
245.72	2852.82
245.94	2879.44
246.16	2512.86
246.38	2516.95
246.59	2711.51
246.81	2586.58
247.03	2455.51
247.24	2340.83
247.46	2588.63
247.68	2760.66
247.90	2441.18
248.11	2482.14
248.33	2797.53
248.55	2613.21
248.77	2598.87
248.98	2664.41
249.20	2990.03
249.42	2729.94
249.64	2621.40
249.85	2506.71
250.07	2631.64
250.29	2875.35
250.50	2578.39
250.72	2486.23
250.94	2865.11
251.16	2998.23
251.37	2455.51
251.59	2643.93
251.81	2869.20
252.02	2951.12
252.24	2490.33
252.46	2660.31
252.68	2654.17
252.89	2637.78
253.11	2396.12
253.33	2684.89
253.54	2885.59
253.76	2549.72
253.98	2480.09
254.20	2437.08
254.41	2529.24
254.63	2637.78
254.85	2422.75
255.06	2619.35
255.28	2756.57
255.50	2676.70
255.71	2564.06
255.93	2451.42
256.15	2633.69
256.36	2744.28
256.58	2408.41
256.80	2504.67
257.02	2668.50
257.23	2611.16
257.45	2519.00
257.67	2600.92
257.88	2600.92
258.10	2834.39
258.32	2529.24
258.53	2590.68
258.75	2883.54
258.97	2592.73
259.18	2381.79
259.40	2496.47
259.62	2965.46
259.83	2928.60
260.05	2504.67
260.27	3184.59
260.48	2820.05
260.70	2574.30
260.92	2490.33
261.13	2559.96
261.35	2695.13
261.57	2801.62
261.78	2367.45
262.00	2420.70
262.22	2850.77
262.43	2635.74
262.65	2496.47
262.86	2512.86
263.08	3063.76
263.30	2738.13
263.51	2408.41
263.73	2469.85
263.95	2981.84
264.16	2559.96
264.38	2363.36
264.60	2498.52
264.81	2736.09
265.03	2826.20
265.25	2777.05
265.46	2500.57
265.68	2949.08
265.89	2861.01
266.11	2439.13
266.33	2488.28
266.54	2795.48
266.76	2805.72
266.98	2578.39
267.19	2695.13
267.41	2826.20
267.62	2697.17
267.84	2334.68
268.06	2629.59
268.27	2682.84
268.49	2744.28
268.70	2621.40
268.92	2506.71
269.14	2674.65
269.35	2490.33
269.57	2609.11
269.79	2633.69
270.00	2660.31
270.22	2936.79
270.43	2398.17
270.65	2379.74
270.87	2793.43
271.08	2852.82
271.30	2590.68
271.51	2465.75
271.73	2832.34
271.95	2916.31
272.16	2486.23
272.38	2615.26
272.59	2627.54
272.81	2838.48
273.02	2459.61
273.24	2576.34
273.46	2867.16
273.67	2555.86
273.89	2525.15
274.10	2437.08
274.32	2893.78
274.54	2742.23
274.75	2584.54
274.97	2535.39
275.18	2844.63
275.40	2838.48
275.61	2568.15
275.83	2619.35
276.05	2547.67
276.26	2719.70
276.48	2682.84
276.69	2637.78
276.91	2678.74
277.12	2973.65
277.34	2615.26
277.55	2703.32
277.77	2742.23
277.99	2717.65
278.20	2580.44
278.42	2514.91
278.63	2621.40
278.85	2592.73
279.06	2535.39
279.28	2731.99
279.49	2957.27
279.71	2777.05
279.93	2607.06
280.14	2695.13
280.36	2559.96
280.57	2791.38
280.79	2668.50
281.00	2543.58
281.22	2629.59
281.43	2906.07
281.65	2441.18
281.86	2492.38
282.08	2793.43
282.29	3049.43
282.51	2447.32
282.73	2475.99
282.94	2414.56
283.16	2815.96
283.37	2809.81
283.59	2592.73
283.80	2803.67
284.02	2731.99
284.23	2699.22
284.45	2566.10
284.66	2588.63
284.88	2584.54
285.09	2600.92
285.31	2662.36
285.52	2760.66
285.74	2473.95
285.95	2768.85
286.17	2670.55
286.38	2740.18
286.60	2607.06
286.81	2527.19
287.03	2600.92
287.24	2721.75
287.46	2856.92
287.67	2658.26
287.89	2813.91
288.10	2695.13
288.32	2772.95
288.53	2768.85
288.75	2641.88
288.96	2807.77
289.18	2641.88
289.39	2541.53
289.61	2713.56
289.82	3053.52
290.04	3008.47
290.25	2408.41
290.47	2645.98
290.68	2705.37
290.90	2832.34
291.11	2484.19
291.33	2793.43
291.54	2615.26
291.76	2605.02
291.97	2602.97
292.18	2680.79
292.40	2680.79
292.61	2506.71
292.83	2918.36
293.04	2648.02
293.26	2797.53
293.47	2676.70
293.69	2519.00
293.90	2586.58
294.12	2834.39
294.33	2596.82
294.55	2695.13
294.76	2779.09
294.97	2949.08
295.19	2973.65
295.40	2600.92
295.62	2691.03
295.83	2826.20
296.05	2547.67
296.26	2772.95
296.48	2590.68
296.69	2713.56
296.90	2670.55
297.12	2758.61
297.33	2832.34
297.55	2693.08
297.76	2758.61
297.98	2715.61
298.19	2676.70
298.41	2658.26
298.62	2566.10
298.83	2820.05
299.05	2631.64
299.26	2641.88
299.48	2605.02
299.69	2684.89
299.90	2621.40
300.12	2611.16
300.33	2756.57
300.55	2664.41
300.76	2660.31
300.98	2574.30
301.19	2850.77
301.40	2635.74
301.62	2570.20
301.83	2729.94
302.05	2715.61
302.26	2633.69
302.47	2674.65
302.69	2576.34
302.90	2727.89
303.12	2344.92
303.33	2805.72
303.54	3006.42
303.76	2717.65
303.97	2615.26
304.19	2762.71
304.40	2668.50
304.61	2830.29
304.83	2709.46
305.04	2740.18
305.26	2688.98
305.47	2635.74
305.68	2559.96
305.90	2480.09
306.11	2858.96
306.33	2656.22
306.54	2570.20
306.75	2584.54
306.97	2551.77
307.18	2543.58
307.39	2631.64
307.61	2615.26
307.82	2711.51
308.04	2746.33
308.25	2473.95
308.46	2703.32
308.68	2715.61
308.89	2752.47
309.10	2731.99
309.32	2703.32
309.53	2668.50
309.74	2883.54
309.96	2600.92
310.17	2781.14
310.39	2635.74
310.60	2867.16
310.81	2605.02
311.03	2527.19
311.24	2889.68
311.45	2707.41
311.67	2840.53
311.88	2748.37
312.09	2703.32
312.31	2662.36
312.52	2564.06
312.73	2531.29
312.95	2531.29
313.16	2662.36
313.37	2719.70
313.59	2754.52
313.80	2852.82
314.01	3008.47
314.23	2600.92
314.44	2523.10
314.65	2578.39
314.87	2512.86
315.08	2531.29
315.29	2590.68
315.51	2605.02
315.72	2469.85
315.93	2654.17
316.15	2680.79
316.36	2621.40
316.57	2701.27
316.79	2658.26
317.00	2578.39
317.21	2818.00
317.43	2605.02
317.64	2658.26
317.85	2484.19
318.07	2594.78
318.28	2686.94
318.49	2738.13
318.70	2914.26
318.92	2752.47
319.13	2807.77
319.34	2787.29
319.56	2652.12
319.77	2750.42
319.98	2869.20
320.20	2787.29
320.41	2723.80
320.62	2861.01
320.83	2592.73
321.05	2824.15
321.26	2619.35
321.47	2717.65
321.69	2818.00
321.90	2523.10
322.11	2512.86
322.32	2770.90
322.54	2942.93
322.75	2572.25
322.96	3266.51
323.18	2502.62
323.39	2461.66
323.60	2588.63
323.81	2674.65
324.03	2600.92
324.24	2695.13
324.45	2680.79
324.66	2580.44
324.88	2842.58
325.09	2910.16
325.30	2598.87
325.52	2625.50
325.73	2801.62
325.94	2592.73
326.15	2498.52
326.37	2400.22
326.58	2879.44
326.79	2979.79
327.00	2639.83
327.22	2705.37
327.43	2635.74
327.64	2512.86
327.85	2738.13
328.07	2645.98
328.28	3006.42
328.49	2674.65
328.70	2680.79
328.92	2635.74
329.13	2633.69
329.34	2746.33
329.55	2834.39
329.76	2748.37
329.98	2682.84
330.19	2904.02
330.40	2744.28
330.61	2645.98
330.83	2869.20
331.04	2566.10
331.25	2664.41
331.46	2615.26
331.68	2602.97
331.89	2883.54
332.10	2629.59
332.31	2543.58
332.52	2656.22
332.74	2895.83
332.95	2486.23
333.16	2512.86
333.37	2803.67
333.58	2621.40
333.80	2619.35
334.01	2455.51
334.22	2719.70
334.43	2605.02
334.64	2615.26
334.86	2482.14
335.07	2588.63
335.28	2930.64
335.49	2486.23
335.70	2666.46
335.92	2953.17
336.13	3080.14
336.34	2648.02
336.55	2613.21
336.76	2736.09
336.98	2445.27
337.19	2643.93
337.40	2768.85
337.61	3145.68
337.82	2615.26
338.04	2688.98
338.25	2416.60
338.46	2682.84
338.67	2711.51
338.88	2596.82
339.09	2535.39
339.31	2568.15
339.52	2582.49
339.73	2553.82
339.94	2617.30
340.15	2750.42
340.36	2643.93
340.58	2723.80
340.79	2588.63
341.00	2750.42
341.21	2535.39
341.42	2858.96
341.63	2580.44
341.85	2809.81
342.06	2838.48
342.27	2547.67
342.48	2768.85
342.69	2484.19
342.90	2779.09
343.12	2867.16
343.33	2539.48
343.54	2836.44
343.75	2967.51
343.96	2662.36
344.17	2494.43
344.38	2652.12
344.60	2580.44
344.81	2527.19
345.02	2623.45
345.23	2914.26
345.44	3104.72
345.65	2711.51
345.86	2639.83
346.07	2721.75
346.29	2611.16
346.50	2682.84
346.71	2707.41
346.92	2934.74
347.13	3084.24
347.34	2674.65
347.55	2547.67
347.76	2744.28
347.98	2482.14
348.19	2662.36
348.40	2801.62
348.61	2713.56
348.82	2992.08
349.03	2713.56
349.24	2523.10
349.45	3074.00
349.66	2424.80
349.88	2572.25
350.09	2500.57
350.30	2897.88
350.51	2926.55
350.72	2678.74
350.93	2652.12
351.14	2609.11
351.35	2729.94
351.56	2643.93
351.77	2615.26
351.99	2854.87
352.20	2901.97
352.41	2723.80
352.62	2461.66
352.83	2711.51
353.04	2725.85
353.25	2596.82
353.46	2674.65
353.67	2877.40
353.88	2519.00
354.09	2576.34
354.30	2645.98
354.52	2848.72
354.73	2680.79
354.94	2574.30
355.15	2648.02
355.36	3028.95
355.57	2629.59
355.78	2590.68
355.99	2576.34
356.20	2762.71
356.41	2871.25
356.62	2750.42
356.83	2627.54
357.04	2873.30
357.25	2514.91
357.46	2633.69
357.68	2496.47
357.89	2621.40
358.10	2633.69
358.31	2564.06
358.52	2596.82
358.73	2506.71
358.94	2572.25
359.15	2594.78
359.36	2691.03
359.57	2734.04
359.78	2711.51
359.99	2785.24
360.20	2553.82
360.41	2672.60
360.62	2813.91
360.83	2723.80
361.04	2684.89
361.25	2770.90
361.46	3033.04
361.67	2715.61
361.88	2607.06
362.09	2799.57
362.30	2789.33
362.51	2523.10
362.72	2639.83
362.93	2867.16
363.14	2805.72
363.35	2678.74
363.56	2498.52
363.78	2801.62
363.99	2736.09
364.20	2631.64
364.41	2715.61
364.62	3026.90
364.83	2787.29
365.04	2645.98
365.25	2635.74
365.46	3002.32
365.67	2592.73
365.88	2613.21
366.09	2582.49
366.30	2600.92
366.51	2721.75
366.72	2498.52
366.93	2562.01
367.14	2736.09
367.35	2916.31
367.56	2627.54
367.77	2719.70
367.98	2715.61
368.18	2779.09
368.39	2684.89
368.60	2590.68
368.81	2826.20
369.02	2803.67
369.23	2586.58
369.44	2416.60
369.65	2627.54
369.86	2699.22
370.07	2711.51
370.28	2494.43
370.49	2754.52
370.70	2793.43
370.91	2484.19
371.12	2465.75
371.33	2844.63
371.54	2611.16
371.75	2779.09
371.96	2281.44
372.17	2772.95
372.38	2695.13
372.59	2693.08
372.80	2590.68
373.01	2680.79
373.22	2643.93
373.43	2627.54
373.64	2498.52
373.85	2916.31
374.06	3039.19
374.26	2801.62
374.47	2592.73
374.68	3028.95
374.89	2731.99
375.10	2574.30
375.31	2715.61
375.52	2731.99
375.73	2781.14
375.94	2506.71
376.15	2719.70
376.36	2641.88
376.57	2662.36
376.78	2557.91
376.99	2686.94
377.20	2922.45
377.40	2748.37
377.61	2912.21
377.82	2510.81
378.03	2994.13
378.24	2850.77
378.45	2658.26
378.66	2670.55
378.87	2502.62
379.08	2519.00
379.29	2562.01
379.50	2709.46
379.71	2693.08
379.91	2824.15
380.12	2613.21
380.33	2711.51
380.54	2648.02
380.75	2723.80
380.96	2635.74
381.17	2637.78
381.38	2750.42
381.59	2658.26
381.80	2648.02
382.00	2805.72
382.21	2711.51
382.42	2973.65
382.63	2971.60
382.84	2752.47
383.05	2928.60
383.26	2920.40
383.47	2715.61
383.68	2768.85
383.88	2801.62
384.09	2772.95
384.30	2858.96
384.51	2727.89
384.72	2633.69
384.93	2574.30
385.14	2637.78
385.35	2779.09
385.55	2551.77
385.76	3041.23
385.97	2637.78
386.18	2490.33
386.39	2629.59
386.60	2658.26
386.81	2537.43
387.02	2502.62
387.22	2514.91
387.43	2844.63
387.64	2703.32
387.85	2803.67
388.06	2775.00
388.27	3913.67
388.48	7577.48
388.68	10878.81
388.89	13315.89
389.10	14649.12
389.31	13854.51
389.52	10794.84
389.73	9404.27
389.93	8585.08
390.14	8009.61
390.35	7036.82
390.56	6528.92
390.77	5267.38
390.98	4044.74
391.18	3375.05
391.39	3096.53
391.60	2818.00
391.81	2801.62
392.02	2598.87
392.23	3071.95
392.43	2709.46
392.64	2731.99
392.85	2648.02
393.06	2961.36
393.27	2686.94
393.47	2533.34
393.68	2711.51
393.89	2670.55
394.10	2879.44
394.31	2621.40
394.52	2564.06
394.72	2586.58
394.93	2934.74
395.14	2494.43
395.35	2680.79
395.56	2547.67
395.76	2750.42
395.97	2637.78
396.18	2768.85
396.39	2846.68
396.60	3291.09
396.80	2858.96
397.01	2742.23
397.22	2908.12
397.43	2965.46
397.64	2660.31
397.84	2779.09
398.05	3063.76
398.26	2750.42
398.47	2746.33
398.67	2879.44
398.88	2805.72
399.09	2828.24
399.30	2588.63
399.51	2670.55
399.71	2664.41
399.92	2639.83
400.13	2748.37
400.34	2676.70
400.54	2725.85
400.75	2983.89
400.96	2623.45
401.17	2912.21
401.37	2721.75
401.58	2779.09
401.79	2627.54
402.00	2744.28
402.21	3139.54
402.41	2854.87
402.62	2981.84
402.83	3028.95
403.04	3016.66
403.24	3291.09
403.45	2719.70
403.66	2910.16
403.87	2783.19
404.07	2955.22
404.28	2832.34
404.49	2971.60
404.70	2727.89
404.90	2779.09
405.11	2623.45
405.32	2686.94
405.52	2668.50
405.73	2545.63
405.94	2566.10
406.15	2715.61
406.35	2854.87
406.56	2815.96
406.77	2650.07
406.98	2711.51
407.18	2621.40
407.39	2971.60
407.60	2654.17
407.80	2766.81
408.01	2684.89
408.22	2766.81
408.43	2523.10
408.63	2615.26
408.84	2834.39
409.05	2783.19
409.25	2584.54
409.46	2639.83
409.67	2711.51
409.88	2588.63
410.08	2664.41
410.29	2703.32
410.50	2799.57
410.70	2760.66
410.91	2555.86
411.12	2695.13
411.32	2787.29
411.53	2645.98
411.74	2660.31
411.95	2713.56
412.15	2682.84
412.36	2801.62
412.57	2861.01
412.77	2746.33
412.98	2654.17
413.19	2553.82
413.39	2715.61
413.60	2680.79
413.81	2906.07
414.01	2605.02
414.22	2629.59
414.43	2764.76
414.63	2670.55
414.84	2877.40
415.05	2600.92
415.25	2523.10
415.46	2815.96
415.67	2648.02
415.87	2717.65
416.08	2660.31
416.29	2645.98
416.49	2785.24
416.70	2711.51
416.91	2633.69
417.11	2725.85
417.32	2815.96
417.53	2678.74
417.73	2766.81
417.94	2678.74
418.15	2793.43
418.35	2678.74
418.56	2588.63
418.77	3074.00
418.97	2752.47
419.18	2717.65
419.38	2342.88
419.59	2725.85
419.80	2879.44
420.00	2588.63
420.21	2615.26
420.42	2899.92
420.62	2703.32
420.83	2580.44
421.04	2650.07
421.24	2736.09
421.45	2854.87
421.65	2668.50
421.86	2600.92
422.07	2824.15
422.27	2766.81
422.48	2553.82
422.69	2553.82
422.89	2699.22
423.10	2645.98
423.30	2529.24
423.51	2670.55
423.72	2809.81
423.92	2889.68
424.13	2482.14
424.33	2645.98
424.54	2883.54
424.75	2809.81
424.95	2889.68
425.16	2770.90
425.36	2779.09
425.57	2846.68
425.78	2758.61
425.98	2762.71
426.19	2734.04
426.39	2611.16
426.60	2736.09
426.81	2805.72
427.01	2764.76
427.22	2598.87
427.42	2498.52
427.63	2645.98
427.83	2891.73
428.04	2975.70
428.25	2801.62
428.45	2793.43
428.66	2785.24
428.86	2754.52
429.07	2641.88
429.28	2662.36
429.48	2756.57
429.69	2697.17
429.89	2686.94
430.10	2584.54
430.30	2789.33
430.51	2836.44
430.71	2582.49
430.92	2602.97
431.13	2598.87
431.33	2795.48
431.54	2703.32
431.74	2889.68
431.95	3071.95
432.15	2615.26
432.36	2643.93
432.56	2740.18
432.77	3035.09
432.98	2930.64
433.18	2682.84
433.39	2572.25
433.59	2703.32
433.80	2990.03
434.00	2918.36
434.21	2670.55
434.41	2609.11
434.62	3069.91
434.82	2578.39
435.03	2584.54
435.23	2731.99
435.44	2519.00
435.64	2715.61
435.85	2674.65
436.06	2830.29
436.26	2858.96
436.47	2625.50
436.67	2553.82
436.88	2645.98
437.08	2889.68
437.29	2815.96
437.49	2768.85
437.70	2889.68
437.90	2695.13
438.11	2805.72
438.31	2756.57
438.52	2910.16
438.72	2881.49
438.93	2981.84
439.13	2711.51
439.34	2887.64
439.54	2754.52
439.75	2756.57
439.95	2736.09
440.16	2637.78
440.36	2652.12
440.57	2625.50
440.77	2645.98
440.98	2750.42
441.18	2738.13
441.39	2553.82
441.59	2473.95
441.80	3041.23
442.00	2736.09
442.21	2707.41
442.41	2523.10
442.62	2834.39
442.82	2594.78
443.02	2605.02
443.23	2625.50
443.43	2723.80
443.64	2815.96
443.84	2557.91
444.05	2686.94
444.25	2754.52
444.46	2693.08
444.66	2660.31
444.87	2820.05
445.07	2510.81
445.28	2715.61
445.48	2912.21
445.69	2791.38
445.89	3045.33
446.09	2686.94
446.30	3037.14
446.50	3160.02
446.71	4552.63
446.91	5607.34
447.12	6406.05
447.32	6801.30
447.53	6520.73
447.73	5355.44
447.93	4839.35
448.14	4517.82
448.34	4509.63
448.55	3862.47
448.75	3796.93
448.96	3745.73
449.16	3350.48
449.36	3284.94
449.57	2848.72
449.77	2717.65
449.98	2676.70
450.18	2795.48
450.39	2711.51
450.59	2783.19
450.79	2731.99
451.00	2654.17
451.20	2830.29
451.41	2691.03
451.61	2793.43
451.81	2662.36
452.02	2615.26
452.22	2725.85
452.43	2641.88
452.63	2688.98
452.84	2688.98
453.04	2584.54
453.24	2729.94
453.45	2609.11
453.65	2617.30
453.86	2557.91
454.06	2805.72
454.26	2731.99
454.47	2633.69
454.67	2889.68
454.87	2838.48
455.08	2684.89
455.28	2791.38
455.49	2752.47
455.69	2592.73
455.89	3104.72
456.10	2754.52
456.30	2564.06
456.51	2846.68
456.71	2789.33
456.91	2826.20
457.12	2609.11
457.32	2787.29
457.52	2572.25
457.73	2736.09
457.93	2809.81
458.14	2703.32
458.34	2471.90
458.54	2684.89
458.75	2566.10
458.95	2854.87
459.15	2766.81
459.36	2639.83
459.56	2645.98
459.76	3053.52
459.97	2688.98
460.17	2537.43
460.37	2830.29
460.58	2697.17
460.78	2832.34
460.99	2619.35
461.19	2729.94
461.39	2668.50
461.60	2635.74
461.80	2699.22
462.00	2478.04
462.21	2764.76
462.41	2684.89
462.61	2525.15
462.82	2500.57
463.02	2777.05
463.22	2734.04
463.43	2746.33
463.63	2627.54
463.83	3006.42
464.04	2779.09
464.24	2701.27
464.44	2506.71
464.64	2768.85
464.85	2869.20
465.05	2740.18
465.25	2619.35
465.46	2619.35
465.66	2856.92
465.86	2660.31
466.07	2738.13
466.27	2781.14
466.47	2512.86
466.68	2580.44
466.88	2830.29
467.08	2899.92
467.29	2822.10
467.49	2703.32
467.69	2727.89
467.89	2727.89
468.10	2697.17
468.30	2695.13
468.50	2717.65
468.71	2889.68
468.91	2613.21
469.11	2781.14
469.31	2750.42
469.52	2615.26
469.72	3028.95
469.92	2854.87
470.13	2664.41
470.33	2643.93
470.53	2740.18
470.73	3137.49
470.94	3428.30
471.14	3469.26
471.34	3776.45
471.54	3579.85
471.75	3381.20
471.95	3139.54
472.15	3014.61
472.36	3168.21
472.56	3008.47
472.76	3131.34
472.96	3030.99
473.17	2940.88
473.37	2858.96
473.57	2682.84
473.77	2875.35
473.98	2727.89
474.18	2570.20
474.38	3131.34
474.58	2641.88
474.79	2531.29
474.99	2775.00
475.19	2973.65
475.39	2588.63
475.60	2703.32
475.80	2703.32
476.00	2721.75
476.20	2590.68
476.41	2658.26
476.61	2740.18
476.81	2922.45
477.01	2594.78
477.21	2842.58
477.42	2772.95
477.62	2652.12
477.82	2914.26
478.02	2574.30
478.23	2703.32
478.43	2678.74
478.63	2705.37
478.83	2602.97
479.03	2676.70
479.24	2848.72
479.44	3082.19
479.64	2580.44
479.84	2346.97
480.04	2564.06
480.25	2818.00
480.45	2562.01
480.65	2590.68
480.85	2916.31
481.06	2672.60
481.26	2797.53
481.46	2672.60
481.66	2734.04
481.86	2623.45
482.06	2785.24
482.27	2650.07
482.47	2629.59
482.67	2834.39
482.87	2654.17
483.07	2723.80
483.28	2580.44
483.48	2650.07
483.68	2652.12
483.88	2609.11
484.08	2506.71
484.29	2535.39
484.49	2637.78
484.69	2557.91
484.89	3002.32
485.09	2865.11
485.29	2699.22
485.50	2686.94
485.70	2744.28
485.90	2920.40
486.10	2738.13
486.30	2631.64
486.50	2979.79
486.71	2693.08
486.91	2750.42
487.11	2754.52
487.31	2572.25
487.51	2777.05
487.71	2664.41
487.91	2564.06
488.12	2627.54
488.32	2377.69
488.52	2623.45
488.72	2400.22
488.92	2772.95
489.12	2871.25
489.32	2729.94
489.53	2684.89
489.73	2508.76
489.93	3006.42
490.13	2592.73
490.33	2562.01
490.53	2779.09
490.73	2914.26
490.94	2447.32
491.14	2805.72
491.34	2813.91
491.54	2918.36
491.74	3485.64
491.94	4069.31
492.14	4442.04
492.34	4351.93
492.54	4073.41
492.75	3612.62
492.95	3567.56
493.15	3434.44
493.35	3219.41
493.55	3266.51
493.75	3082.19
493.95	3211.22
494.15	2805.72
494.35	2815.96
494.56	2822.10
494.76	2652.12
494.96	2770.90
495.16	2609.11
495.36	2695.13
495.56	2715.61
495.76	2650.07
495.96	2547.67
496.16	2662.36
496.36	2979.79
496.56	2635.74
496.77	2734.04
496.97	2709.46
497.17	2938.84
497.37	2482.14
497.57	2670.55
497.77	2738.13
497.97	2441.18
498.17	2641.88
498.37	2633.69
498.57	2758.61
498.77	2695.13
498.97	2779.09
499.17	2953.17
499.38	2553.82
499.58	2818.00
499.78	2772.95
499.98	2715.61
500.18	2793.43
500.38	2596.82
500.58	2852.82
500.78	3223.50
500.98	5265.33
501.18	7120.79
501.38	8601.47
501.58	9701.23
501.78	9375.60
501.98	7776.14
502.18	6467.49
502.38	5658.54
502.58	5410.73
502.78	4792.25
502.98	4534.20
503.18	4353.98
503.38	4169.66
503.59	3626.95
503.79	3434.44
503.99	3217.36
504.19	3127.25
504.39	3219.41
504.59	3112.91
504.79	3051.47
504.99	3223.50
505.19	2973.65
505.39	2818.00
505.59	2990.03
505.79	3026.90
505.99	2861.01
506.19	2676.70
506.39	2955.22
506.59	2703.32
506.79	2631.64
506.99	2885.59
507.19	2617.30
507.39	2744.28
507.59	2496.47
507.79	2598.87
507.99	2590.68
508.19	2725.85
508.39	2613.21
508.59	2715.61
508.79	2738.13
508.99	3069.91
509.19	2719.70
509.39	2760.66
509.59	2533.34
509.79	2686.94
509.99	2785.24
510.19	2793.43
510.39	2703.32
510.59	2703.32
510.79	2674.65
510.99	2496.47
511.19	2607.06
511.39	2963.41
511.59	2807.77
511.79	2822.10
511.99	2715.61
512.19	3010.51
512.38	2691.03
512.58	2602.97
512.78	2652.12
512.98	2979.79
513.18	2955.22
513.38	2551.77
513.58	2738.13
513.78	2684.89
513.98	2746.33
514.18	2637.78
514.38	2631.64
514.58	2727.89
514.78	2582.49
514.98	2504.67
515.18	2635.74
515.38	2535.39
515.58	2975.70
515.78	2602.97
515.98	2693.08
516.18	2717.65
516.38	2740.18
516.57	2633.69
516.77	2596.82
516.97	2850.77
517.17	2707.41
517.37	2437.08
517.57	2766.81
517.77	2682.84
517.97	2701.27
518.17	2756.57
518.37	2578.39
518.57	2639.83
518.77	2697.17
518.97	2686.94
519.16	2662.36
519.36	2924.50
519.56	2629.59
519.76	2629.59
519.96	2629.59
520.16	2975.70
520.36	2586.58
520.56	2799.57
520.76	2617.30
520.96	2731.99
521.16	2858.96
521.35	2777.05
521.55	2840.53
521.75	2703.32
521.95	2654.17
522.15	2551.77
522.35	2428.89
522.55	2584.54
522.75	2867.16
522.95	2641.88
523.14	2615.26
523.34	2711.51
523.54	2625.50
523.74	2770.90
523.94	2715.61
524.14	2590.68
524.34	2832.34
524.54	2803.67
524.73	2682.84
524.93	2805.72
525.13	2729.94
525.33	2572.25
525.53	2875.35
525.73	2830.29
525.93	2795.48
526.13	2588.63
526.32	2639.83
526.52	2916.31
526.72	2834.39
526.92	2701.27
527.12	2596.82
527.32	2553.82
527.52	2764.76
527.71	2684.89
527.91	2619.35
528.11	2631.64
528.31	2645.98
528.51	2701.27
528.71	2813.91
528.90	2856.92
529.10	2869.20
529.30	2742.23
529.50	2428.89
529.70	2811.86
529.90	2627.54
530.09	2701.27
530.29	2506.71
530.49	2535.39
530.69	3076.05
530.89	2775.00
531.09	2795.48
531.28	2635.74
531.48	2875.35
531.68	2643.93
531.88	2693.08
532.08	2846.68
532.28	2635.74
532.47	2766.81
532.67	2793.43
532.87	2858.96
533.07	2645.98
533.27	2711.51
533.46	2731.99
533.66	2811.86
533.86	2680.79
534.06	2590.68
534.26	2654.17
534.45	2717.65
534.65	2842.58
534.85	2682.84
535.05	2600.92
535.25	2879.44
535.44	2490.33
535.64	2715.61
535.84	2697.17
536.04	2625.50
536.24	2662.36
536.43	2684.89
536.63	2633.69
536.83	2727.89
537.03	2697.17
537.22	2488.28
537.42	2516.95
537.62	2736.09
537.82	2670.55
538.02	2904.02
538.21	2824.15
538.41	3153.87
538.61	2846.68
538.81	2672.60
539.00	2711.51
539.20	2498.52
539.40	2734.04
539.60	2697.17
539.79	2803.67
539.99	2666.46
540.19	2572.25
540.39	2578.39
540.58	2652.12
540.78	2840.53
540.98	2793.43
541.18	2799.57
541.37	2695.13
541.57	2764.76
541.77	2793.43
541.97	2631.64
542.16	2519.00
542.36	2676.70
542.56	2721.75
542.76	2834.39
542.95	2781.14
543.15	2772.95
543.35	2824.15
543.54	2611.16
543.74	2654.17
543.94	3039.19
544.14	2682.84
544.33	2797.53
544.53	2656.22
544.73	2715.61
544.93	2744.28
545.12	2621.40
545.32	2691.03
545.52	2652.12
545.71	2521.05
545.91	2598.87
546.11	2596.82
546.30	2584.54
546.50	2709.46
546.70	2703.32
546.90	2691.03
547.09	2461.66
547.29	2727.89
547.49	2807.77
547.68	2670.55
547.88	2637.78
548.08	2832.34
548.27	3076.05
548.47	2680.79
548.67	2637.78
548.87	2861.01
549.06	2588.63
549.26	2656.22
549.46	2779.09
549.65	2625.50
549.85	2729.94
550.05	2623.45
550.24	2559.96
550.44	2697.17
550.64	2688.98
550.83	2713.56
551.03	2983.89
551.23	2875.35
551.42	2701.27
551.62	2629.59
551.82	2682.84
552.01	2707.41
552.21	2922.45
552.41	2662.36
552.60	2961.36
552.80	2736.09
553.00	2533.34
553.19	2699.22
553.39	3004.37
553.59	2611.16
553.78	2764.76
553.98	2680.79
554.17	2514.91
554.37	2740.18
554.57	2734.04
554.76	2527.19
554.96	2609.11
555.16	2729.94
555.35	2727.89
555.55	2707.41
555.75	2777.05
555.94	2811.86
556.14	2449.37
556.33	2734.04
556.53	2699.22
556.73	2734.04
556.92	2713.56
557.12	2648.02
557.32	3074.00
557.51	2928.60
557.71	2707.41
557.90	2801.62
558.10	2922.45
558.30	2654.17
558.49	2662.36
558.69	2672.60
558.88	2777.05
559.08	2742.23
559.28	2621.40
559.47	2695.13
559.67	2795.48
559.86	3016.66
560.06	2660.31
560.26	2582.49
560.45	2818.00
560.65	2588.63
560.84	2887.64
561.04	2688.98
561.24	2863.06
561.43	2537.43
561.63	2852.82
561.82	2713.56
562.02	2766.81
562.22	2627.54
562.41	2535.39
562.61	2525.15
562.80	2619.35
563.00	3086.29
563.19	2785.24
563.39	2766.81
563.59	2801.62
563.78	2611.16
563.98	2465.75
564.17	2650.07
564.37	2512.86
564.56	2703.32
564.76	2500.57
564.96	2723.80
565.15	2760.66
565.35	3086.29
565.54	2611.16
565.74	2697.17
565.93	2856.92
566.13	2736.09
566.32	2707.41
566.52	2744.28
566.71	2717.65
566.91	2877.40
567.11	2723.80
567.30	2596.82
567.50	2842.58
567.69	2824.15
567.89	2650.07
568.08	2543.58
568.28	2717.65
568.47	2473.95
568.67	2738.13
568.86	2605.02
569.06	2766.81
569.25	2707.41
569.45	2582.49
569.64	2672.60
569.84	2586.58
570.04	2777.05
570.23	2703.32
570.43	2652.12
570.62	2834.39
570.82	2996.18
571.01	2475.99
571.21	2592.73
571.40	2617.30
571.60	2846.68
571.79	2775.00
571.99	2742.23
572.18	2609.11
572.38	2781.14
572.57	2670.55
572.77	2762.71
572.96	3061.71
573.16	2871.25
573.35	2611.16
573.55	2828.24
573.74	2740.18
573.94	2768.85
574.13	2654.17
574.33	2832.34
574.52	2863.06
574.71	2725.85
574.91	2746.33
575.10	2551.77
575.30	2705.37
575.49	2553.82
575.69	2539.48
575.88	2680.79
576.08	2746.33
576.27	2881.49
576.47	2682.84
576.66	2867.16
576.86	2951.12
577.05	2824.15
577.25	2752.47
577.44	2850.77
577.64	2602.97
577.83	2889.68
578.02	2670.55
578.22	2795.48
578.41	2992.08
578.61	2703.32
578.80	2441.18
579.00	2697.17
579.19	2719.70
579.39	2803.67
579.58	2770.90
579.77	2643.93
579.97	2926.55
580.16	2871.25
580.36	2809.81
580.55	2793.43
580.75	2832.34
580.94	2772.95
581.13	2775.00
581.33	2828.24
581.52	2695.13
581.72	3086.29
581.91	2830.29
582.11	2635.74
582.30	2910.16
582.49	2715.61
582.69	2920.40
582.88	2731.99
583.08	2736.09
583.27	2858.96
583.47	2721.75
583.66	2570.20
583.85	2613.21
584.05	2721.75
584.24	2793.43
584.44	2760.66
584.63	2938.84
584.82	2930.64
585.02	2957.27
585.21	2834.39
585.41	2897.88
585.60	2799.57
585.79	2904.02
585.99	2998.23
586.18	2854.87
586.37	3547.08
586.57	5605.29
586.76	15918.86
586.96	35046.89
587.15	48168.22
587.34	56857.76
587.54	61183.07
587.73	54807.74
587.93	38567.35
588.12	29654.59
588.31	24043.15
588.51	20926.14
588.70	19341.02
588.89	16905.98
589.09	14579.49
589.28	12574.53
589.47	9738.09
589.67	7665.55
589.86	5932.97
590.06	4452.28
590.25	3936.20
590.44	3397.58
590.64	3080.14
590.83	3008.47
591.02	2998.23
591.22	2727.89
591.41	2752.47
591.60	2715.61
591.80	3065.81
591.99	2594.78
592.18	2734.04
592.38	2875.35
592.57	2629.59
592.76	2617.30
592.96	2736.09
593.15	2660.31
593.34	2861.01
593.54	2684.89
593.73	2822.10
593.92	2815.96
594.12	2754.52
594.31	2840.53
594.50	2922.45
594.70	2731.99
594.89	3172.30
595.08	2645.98
595.28	2785.24
595.47	3254.22
595.66	2801.62
595.86	2621.40
596.05	2678.74
596.24	2725.85
596.43	3059.67
596.63	2777.05
596.82	2772.95
597.01	2742.23
597.21	3018.71
597.40	2775.00
597.59	2707.41
597.79	2815.96
597.98	2797.53
598.17	2707.41
598.36	2676.70
598.56	2893.78
598.75	2662.36
598.94	2711.51
599.14	2764.76
599.33	2658.26
599.52	2805.72
599.71	2797.53
599.91	2674.65
600.10	2818.00
600.29	2719.70
600.48	2719.70
600.68	2715.61
600.87	2785.24
601.06	2682.84
601.26	2770.90
601.45	2785.24
601.64	2635.74
601.83	2998.23
602.03	2621.40
602.22	2510.81
602.41	2940.88
602.60	3096.53
602.80	2770.90
602.99	2779.09
603.18	2629.59
603.37	2666.46
603.57	2598.87
603.76	2719.70
603.95	2944.98
604.14	2707.41
604.34	2555.86
604.53	2666.46
604.72	2746.33
604.91	2828.24
605.10	2742.23
605.30	2506.71
605.49	3078.10
605.68	2818.00
605.87	2762.71
606.07	2633.69
606.26	2824.15
606.45	2809.81
606.64	2686.94
606.84	2625.50
607.03	2818.00
607.22	2906.07
607.41	2670.55
607.60	2617.30
607.80	2887.64
607.99	2748.37
608.18	2791.38
608.37	2723.80
608.56	2662.36
608.76	2881.49
608.95	2846.68
609.14	2703.32
609.33	2928.60
609.52	2967.51
609.72	2719.70
609.91	2850.77
610.10	2707.41
610.29	2951.12
610.48	2744.28
610.68	2775.00
610.87	2721.75
611.06	2809.81
611.25	2680.79
611.44	2781.14
611.63	2598.87
611.83	2914.26
612.02	2482.14
612.21	2772.95
612.40	2467.80
612.59	2525.15
612.79	2609.11
612.98	2777.05
613.17	3043.28
613.36	2836.44
613.55	2840.53
613.74	2637.78
613.93	2727.89
614.13	2908.12
614.32	2875.35
614.51	2643.93
614.70	2715.61
614.89	2703.32
615.08	2744.28
615.28	3141.58
615.47	2637.78
615.66	2746.33
615.85	2770.90
616.04	2803.67
616.23	2746.33
616.42	2701.27
616.62	2734.04
616.81	2752.47
617.00	2723.80
617.19	2734.04
617.38	2662.36
617.57	2731.99
617.76	2809.81
617.95	2783.19
618.15	2756.57
618.34	2881.49
618.53	2510.81
618.72	2854.87
618.91	2865.11
619.10	2760.66
619.29	2785.24
619.48	2795.48
619.68	2592.73
619.87	2609.11
620.06	2627.54
620.25	2854.87
620.44	2658.26
620.63	2621.40
620.82	2791.38
621.01	2838.48
621.20	2615.26
621.39	2768.85
621.59	2736.09
621.78	2748.37
621.97	2684.89
622.16	2775.00
622.35	2731.99
622.54	2809.81
622.73	2891.73
622.92	2523.10
623.11	2852.82
623.30	2676.70
623.49	2832.34
623.68	2609.11
623.88	2998.23
624.07	2770.90
624.26	2623.45
624.45	2707.41
624.64	2734.04
624.83	2826.20
625.02	2691.03
625.21	2625.50
625.40	2797.53
625.59	2883.54
625.78	2736.09
625.97	2738.13
626.16	2975.70
626.35	2828.24
626.54	2725.85
626.74	2901.97
626.93	2686.94
627.12	2709.46
627.31	2777.05
627.50	2650.07
627.69	2832.34
627.88	2635.74
628.07	2613.21
628.26	2482.14
628.45	2523.10
628.64	2654.17
628.83	2666.46
629.02	2506.71
629.21	2807.77
629.40	2775.00
629.59	2717.65
629.78	2668.50
629.97	2725.85
630.16	2791.38
630.35	2652.12
630.54	2682.84
630.73	2662.36
630.92	2725.85
631.11	2580.44
631.30	2682.84
631.49	2912.21
631.68	2652.12
631.87	2762.71
632.06	2539.48
632.25	3125.20
632.44	2742.23
632.63	2705.37
632.82	2645.98
633.01	2641.88
633.20	2709.46
633.39	2781.14
633.58	2559.96
633.77	2811.86
633.96	2731.99
634.15	2725.85
634.34	2727.89
634.53	2756.57
634.72	2656.22
634.91	2455.51
635.10	2629.59
635.29	2918.36
635.48	2691.03
635.67	2586.58
635.86	2486.23
636.05	2977.75
636.24	2725.85
636.43	2643.93
636.62	2695.13
636.81	2289.63
637.00	2754.52
637.19	2609.11
637.38	2711.51
637.57	2637.78
637.76	2652.12
637.95	2803.67
638.14	2719.70
638.33	2760.66
638.52	2752.47
638.71	2570.20
638.89	2539.48
639.08	3137.49
639.27	2871.25
639.46	2885.59
639.65	3164.11
639.84	3194.83
640.03	3370.96
640.22	3020.75
640.41	3166.16
640.60	2906.07
640.79	2973.65
640.98	2820.05
641.17	2809.81
641.36	2938.84
641.55	2906.07
641.74	2576.34
641.92	2680.79
642.11	2602.97
642.30	2705.37
642.49	2547.67
642.68	2582.49
642.87	2858.96
643.06	2805.72
643.25	2621.40
643.44	2678.74
643.63	2770.90
643.82	2815.96
644.00	2527.19
644.19	2605.02
644.38	2510.81
644.57	2815.96
644.76	2684.89
644.95	2699.22
645.14	2789.33
645.33	2633.69
645.52	2717.65
645.71	2533.34
645.89	2629.59
646.08	2691.03
646.27	2641.88
646.46	2883.54
646.65	2439.13
646.84	2770.90
647.03	2531.29
647.22	2838.48
647.40	2772.95
647.59	2697.17
647.78	2480.09
647.97	2641.88
648.16	2660.31
648.35	2944.98
648.54	2871.25
648.73	2688.98
648.91	2863.06
649.10	2768.85
649.29	2506.71
649.48	2664.41
649.67	2850.77
649.86	2707.41
650.05	2619.35
650.23	2858.96
650.42	2736.09
650.61	2912.21
650.80	2883.54
650.99	2944.98
651.18	2908.12
651.36	2904.02
651.55	2613.21
651.74	2781.14
651.93	2680.79
652.12	2729.94
652.31	2717.65
652.49	2641.88
652.68	2684.89
652.87	2926.55
653.06	2715.61
653.25	2932.69
653.44	2658.26
653.62	3061.71
653.81	2701.27
654.00	2674.65
654.19	2887.64
654.38	3098.58
654.56	2701.27
654.75	2650.07
654.94	2772.95
655.13	2807.77
655.32	2684.89
655.51	2787.29
655.69	2691.03
655.88	2916.31
656.07	2521.05
656.26	2691.03
656.45	2545.63
656.63	2742.23
656.82	2650.07
657.01	2850.77
657.20	2660.31
657.38	2871.25
657.57	2629.59
657.76	2574.30
657.95	2852.82
658.14	2668.50
658.32	2688.98
658.51	2549.72
658.70	2674.65
658.89	2789.33
659.08	2707.41
659.26	2863.06
659.45	2553.82
659.64	2803.67
659.83	2574.30
660.01	2975.70
660.20	2752.47
660.39	2969.55
660.58	2408.41
660.76	2723.80
660.95	2510.81
661.14	2785.24
661.33	2533.34
661.51	2633.69
661.70	2652.12
661.89	2744.28
662.08	2676.70
662.26	2516.95
662.45	2570.20
662.64	2990.03
662.83	2754.52
663.01	2492.38
663.20	2645.98
663.39	2936.79
663.58	2686.94
663.76	2580.44
663.95	2736.09
664.14	2580.44
664.32	2596.82
664.51	2586.58
664.70	2486.23
664.89	2731.99
665.07	2613.21
665.26	2758.61
665.45	2578.39
665.64	2783.19
665.82	2672.60
666.01	2809.81
666.20	2562.01
666.38	2865.11
666.57	2969.55
666.76	4241.34
666.95	9983.85
667.13	16977.66
667.32	20872.90
667.51	23811.73
667.69	25052.80
667.88	21393.08
668.07	15343.38
668.25	12803.90
668.44	11022.17
668.63	9533.29
668.81	8355.71
669.00	7315.34
669.19	6530.97
669.38	5722.02
669.56	4960.18
669.75	4333.50
669.94	3794.89
670.12	3317.71
670.31	3012.56
670.50	2977.75
670.68	2936.79
670.87	2846.68
671.06	2672.60
671.24	2682.84
671.43	3018.71
671.62	2822.10
671.80	2598.87
671.99	2748.37
672.18	2744.28
672.36	2846.68
672.55	2775.00
672.74	2631.64
672.92	2662.36
673.11	2811.86
673.29	2557.91
673.48	2748.37
673.67	2684.89
673.85	2850.77
674.04	2615.26
674.23	2736.09
674.41	2926.55
674.60	2570.20
674.79	2490.33
674.97	2559.96
675.16	2793.43
675.34	2865.11
675.53	2613.21
675.72	2713.56
675.90	2979.79
676.09	2656.22
676.28	2707.41
676.46	2467.80
676.65	2822.10
676.83	2572.25
677.02	2715.61
677.21	2750.42
677.39	2752.47
677.58	2652.12
677.77	2662.36
677.95	2512.86
678.14	2760.66
678.32	2691.03
678.51	2512.86
678.70	2959.31
678.88	2701.27
679.07	2744.28
679.25	2711.51
679.44	2691.03
679.63	2510.81
679.81	2744.28
680.00	2858.96
680.18	2768.85
680.37	2971.60
680.55	2713.56
680.74	2562.01
680.93	2435.03
681.11	2779.09
681.30	2703.32
681.48	2680.79
681.67	2701.27
681.85	2717.65
682.04	2611.16
682.23	2830.29
682.41	2752.47
682.60	2695.13
682.78	2740.18
682.97	2596.82
683.15	2654.17
683.34	2727.89
683.53	3035.09
683.71	2559.96
683.90	2793.43
684.08	2901.97
684.27	2666.46
684.45	2777.05
684.64	2818.00
684.82	2770.90
685.01	2789.33
685.19	2662.36
685.38	2922.45
685.57	2633.69
685.75	2586.58
685.94	2584.54
686.12	2611.16
686.31	2660.31
686.49	2975.70
686.68	2484.19
686.86	2785.24
687.05	2672.60
687.23	2803.67
687.42	2637.78
687.60	2408.41
687.79	2944.98
687.97	2922.45
688.16	2768.85
688.34	2805.72
688.53	2533.34
688.71	2734.04
688.90	2961.36
689.08	2584.54
689.27	2496.47
689.45	2797.53
689.64	2791.38
689.82	2691.03
690.01	2785.24
690.19	2742.23
690.38	2693.08
690.56	2803.67
690.75	2580.44
690.93	2627.54
691.12	2590.68
691.30	2680.79
691.49	2695.13
691.67	2795.48
691.86	2983.89
692.04	2602.97
692.23	2719.70
692.41	2674.65
692.60	3035.09
692.78	2820.05
692.97	2703.32
693.15	2836.44
693.34	2793.43
693.52	2824.15
693.71	2629.59
693.89	2625.50
694.08	2494.43
694.26	2731.99
694.44	2752.47
694.63	2850.77
694.81	2553.82
695.00	2684.89
695.18	2865.11
695.37	3096.53
695.55	2748.37
695.74	2631.64
695.92	2670.55
696.10	2938.84
696.29	2525.15
696.47	2623.45
696.66	2555.86
696.84	2559.96
697.03	2680.79
697.21	2850.77
697.40	4061.12
697.58	2822.10
697.76	2639.83
697.95	2600.92
698.13	2639.83
698.32	2684.89
698.50	2699.22
698.68	2666.46
698.87	2738.13
699.05	2930.64
699.24	2627.54
699.42	2545.63
699.61	2822.10
699.79	2670.55
699.97	2684.89
700.16	2527.19
700.34	2551.77
700.53	2703.32
700.71	2820.05
700.89	2795.48
701.08	2611.16
701.26	2756.57
701.45	3047.38
701.63	2580.44
701.81	2654.17
702.00	2584.54
702.18	2703.32
702.37	2658.26
702.55	2861.01
702.73	2838.48
702.92	2711.51
703.10	2920.40
703.28	2934.74
703.47	2639.83
703.65	2807.77
703.84	2797.53
704.02	2635.74
704.20	2975.70
704.39	2623.45
704.57	2580.44
704.75	2891.73
704.94	2865.11
705.12	2699.22
705.30	2985.94
705.49	5865.38
705.67	11816.78
705.86	17608.44
706.04	20459.21
706.22	22750.88
706.41	22398.63
706.59	17805.04
706.77	13346.61
706.96	11628.37
707.14	10245.99
707.32	8976.25
707.51	7841.67
707.69	6508.44
707.87	5287.86
708.06	4532.15
708.24	3825.61
708.42	3344.33
708.61	3547.08
708.79	2725.85
708.97	2758.61
709.16	2785.24
709.34	2854.87
709.52	2656.22
709.71	2629.59
709.89	2789.33
710.07	2678.74
710.26	2580.44
710.44	2578.39
710.62	2807.77
710.80	2641.88
710.99	2764.76
711.17	2731.99
711.35	2682.84
711.54	2676.70
711.72	2797.53
711.90	2723.80
712.09	2815.96
712.27	2633.69
712.45	2768.85
712.63	2635.74
712.82	2766.81
713.00	2734.04
713.18	2756.57
713.37	2746.33
713.55	2949.08
713.73	2889.68
713.91	2707.41
714.10	2645.98
714.28	2682.84
714.46	2799.57
714.65	2693.08
714.83	2613.21
715.01	2660.31
715.19	2678.74
715.38	2615.26
715.56	2785.24
715.74	2553.82
715.92	2533.34
716.11	2879.44
716.29	2449.37
716.47	2734.04
716.65	2688.98
716.84	2510.81
717.02	2807.77
717.20	2422.75
717.38	2611.16
717.57	2852.82
717.75	2654.17
717.93	2688.98
718.11	2818.00
718.30	2512.86
718.48	2707.41
718.66	2858.96
718.84	2897.88
719.03	2660.31
719.21	2543.58
719.39	2969.55
719.57	2820.05
719.75	2762.71
719.94	2596.82
720.12	2682.84
720.30	2770.90
720.48	2748.37
720.67	2600.92
720.85	2633.69
721.03	2570.20
721.21	2588.63
721.39	2779.09
721.58	2805.72
721.76	2709.46
721.94	2762.71
722.12	2682.84
722.30	2979.79
722.49	2631.64
722.67	2656.22
722.85	2691.03
723.03	2543.58
723.21	2645.98
723.40	2707.41
723.58	2768.85
723.76	2854.87
723.94	2818.00
724.12	2740.18
724.30	2809.81
724.49	2850.77
724.67	2631.64
724.85	2850.77
725.03	2519.00
725.21	2891.73
725.40	2879.44
725.58	2576.34
725.76	2805.72
725.94	2775.00
726.12	2598.87
726.30	2629.59
726.49	2600.92
726.67	2623.45
726.85	2717.65
727.03	3012.56
727.21	4069.31
727.39	5095.35
727.57	5593.00
727.76	6135.71
727.94	6096.80
728.12	5504.94
728.30	4560.83
728.48	4310.97
728.66	4026.31
728.84	3725.26
729.03	3385.29
729.21	3182.54
729.39	3043.28
729.57	2766.81
729.75	2883.54
729.93	2721.75
730.11	2539.48
730.30	2652.12
730.48	2688.98
730.66	2764.76
730.84	2742.23
731.02	2705.37
731.20	2641.88
731.38	2775.00
731.56	2551.77
731.74	2519.00
731.93	2795.48
732.11	2662.36
732.29	2711.51
732.47	2807.77
732.65	2762.71
732.83	2813.91
733.01	2701.27
733.19	2596.82
733.37	2783.19
733.56	2740.18
733.74	2594.78
733.92	2881.49
734.10	2695.13
734.28	2854.87
734.46	2519.00
734.64	2668.50
734.82	2557.91
735.00	2592.73
735.18	2613.21
735.36	2605.02
735.54	2688.98
735.73	2707.41
735.91	2684.89
736.09	2922.45
736.27	2635.74
736.45	2725.85
736.63	2484.19
736.81	2748.37
736.99	2848.72
737.17	2901.97
737.35	2596.82
737.53	2746.33
737.71	2666.46
737.89	2785.24
738.07	2576.34
738.25	2658.26
738.43	2498.52
738.61	2731.99
738.80	2611.16
738.98	2578.39
739.16	2652.12
739.34	2576.34
739.52	2842.58
739.70	2697.17
739.88	2881.49
740.06	2805.72
740.24	2469.85
740.42	2760.66
740.60	2504.67
740.78	2637.78
740.96	2473.95
741.14	2645.98
741.32	2678.74
741.50	2486.23
741.68	2957.27
741.86	2998.23
742.04	2564.06
742.22	2564.06
742.40	2650.07
742.58	2815.96
742.76	2635.74
742.94	2856.92
743.12	2449.37
743.30	2711.51
743.48	2807.77
743.66	2545.63
743.84	2650.07
744.02	2750.42
744.20	2707.41
744.38	2478.04
744.56	2590.68
744.74	2955.22
744.92	2727.89
745.10	2875.35
745.28	2713.56
745.46	2928.60
745.64	2748.37
745.82	2717.65
746.00	2664.41
746.18	2695.13
746.36	2525.15
746.54	2670.55
746.72	2652.12
746.90	2602.97
747.08	2828.24
747.26	2586.58
747.44	2846.68
747.62	2861.01
747.80	2762.71
747.98	2779.09
748.15	2570.20
748.33	2969.55
748.51	2721.75
748.69	2656.22
748.87	2566.10
749.05	2635.74
749.23	2670.55
749.41	2641.88
749.59	2668.50
749.77	2731.99
749.95	2660.31
750.13	2639.83
750.31	2713.56
750.49	2678.74
750.67	2832.34
750.85	2863.06
751.03	2623.45
751.20	3041.23
751.38	2717.65
751.56	2686.94
751.74	2662.36
751.92	2699.22
752.10	2510.81
752.28	2797.53
752.46	2574.30
752.64	2711.51
752.82	2756.57
753.00	2807.77
753.18	2617.30
753.35	2637.78
753.53	2635.74
753.71	2648.02
753.89	2723.80
754.07	2746.33
754.25	2867.16
754.43	2736.09
754.61	2564.06
754.79	2797.53
754.97	2699.22
755.14	2834.39
755.32	2525.15
755.50	2772.95
755.68	2717.65
755.86	2627.54
756.04	2590.68
756.22	2478.04
756.40	2760.66
756.57	2863.06
756.75	2615.26
756.93	2766.81
757.11	2846.68
757.29	2574.30
757.47	2547.67
757.65	2461.66
757.82	2422.75
758.00	2580.44
758.18	2557.91
758.36	2537.43
758.54	3026.90
758.72	2549.72
758.90	2783.19
759.07	2742.23
759.25	2594.78
759.43	2701.27
759.61	2473.95
759.79	3907.52
759.97	2836.44
760.15	2590.68
760.32	2578.39
760.50	2775.00
760.68	2920.40
760.86	2516.95
761.04	2879.44
761.22	2828.24
761.39	2787.29
761.57	2719.70
761.75	2641.88
761.93	2850.77
762.11	2703.32
762.28	2662.36
762.46	2555.86
762.64	2885.59
762.82	2584.54
763.00	2611.16
763.18	2897.88
763.35	2549.72
763.53	2775.00
763.71	2731.99
763.89	2621.40
764.07	2758.61
764.24	2719.70
764.42	2709.46
764.60	2590.68
764.78	2807.77
764.96	2852.82
765.13	2652.12
765.31	2602.97
765.49	2756.57
765.67	2559.96
765.84	2674.65
766.02	2590.68
766.20	2588.63
766.38	2785.24
766.56	2701.27
766.73	2736.09
766.91	2693.08
767.09	2697.17
767.27	2838.48
767.44	2576.34
767.62	2760.66
767.80	2760.66
767.98	2590.68
768.15	2629.59
768.33	2865.11
768.51	2854.87
768.69	2768.85
768.87	2680.79
769.04	2727.89
769.22	3039.19
769.40	2861.01
769.58	2842.58
769.75	2713.56
769.93	2906.07
770.11	2576.34
770.28	2566.10
770.46	2770.90
770.64	2760.66
770.82	2652.12
770.99	2592.73
771.17	2840.53
771.35	2693.08
771.53	2680.79
771.70	2564.06
771.88	2826.20
772.06	2731.99
772.23	2633.69
772.41	2707.41
772.59	2703.32
772.77	2600.92
772.94	2670.55
773.12	2719.70
773.30	2555.86
773.47	2781.14
773.65	2576.34
773.83	2834.39
774.01	2717.65
774.18	2494.43
774.36	2607.06
774.54	2432.99
774.71	2764.76
774.89	2467.80
775.07	2562.01
775.24	2648.02
775.42	2617.30
775.60	2971.60
775.78	2627.54
775.95	2570.20
776.13	2492.38
776.31	2490.33
776.48	2699.22
776.66	2863.06
776.84	2748.37
777.01	2607.06
777.19	2578.39
777.37	2590.68
777.54	2871.25
777.72	3035.09
777.90	2779.09
778.07	2547.67
778.25	3182.54
778.43	2879.44
778.60	2613.21
778.78	2789.33
778.96	3000.27
779.13	2525.15
779.31	2740.18
779.49	2566.10
779.66	2719.70
779.84	2725.85
780.01	2621.40
780.19	2543.58
780.37	2895.83
780.54	2756.57
780.72	2435.03
780.90	2705.37
781.07	2742.23
781.25	2641.88
781.43	2775.00
781.60	2656.22
781.78	2863.06
781.95	2832.34
782.13	2539.48
782.31	2609.11
782.48	2506.71
782.66	2607.06
782.83	2865.11
783.01	2744.28
783.19	2793.43
783.36	2607.06
783.54	2459.61
783.72	2729.94
783.89	2645.98
784.07	2777.05
784.24	2731.99
784.42	2744.28
784.60	2775.00
784.77	2838.48
784.95	2461.66
785.12	2688.98
785.30	2699.22
785.47	2658.26
785.65	2590.68
785.83	2656.22
786.00	2662.36
786.18	2703.32
786.35	2521.05
786.53	2562.01
786.71	2832.34
786.88	2797.53
787.06	2664.41
787.23	2709.46
787.41	2555.86
787.58	2697.17
787.76	2541.53
787.94	2707.41
788.11	2744.28
788.29	2529.24
788.46	2586.58
788.64	2498.52
788.81	2697.17
788.99	2494.43
789.16	2545.63
789.34	2670.55
789.52	2611.16
789.69	2637.78
789.87	2428.89
790.04	2691.03
790.22	2709.46
790.39	2996.18
790.57	2539.48
790.74	2559.96
790.92	2822.10
791.09	2521.05
791.27	2695.13
791.44	2772.95
791.62	2783.19
791.79	2809.81
791.97	2793.43
792.15	2930.64
792.32	2883.54
792.50	2736.09
792.67	2897.88
792.85	2861.01
793.02	2668.50
793.20	2668.50
793.37	2506.71
793.55	2598.87
793.72	2463.71
793.90	2877.40
794.07	2600.92
794.25	2623.45
794.42	2721.75
794.60	2660.31
794.77	2734.04
794.95	2826.20
795.12	2801.62
795.30	2656.22
795.47	2498.52
795.65	2932.69
795.82	2848.72
796.00	2519.00
796.17	2676.70
796.34	2592.73
796.52	2676.70
796.69	2848.72
796.87	2779.09
797.04	2736.09
797.22	2828.24
797.39	2797.53
797.57	2688.98
797.74	2738.13
797.92	2731.99
798.09	2678.74
798.27	2885.59
798.44	2654.17
798.62	2670.55
798.79	2760.66
798.96	2762.71
799.14	2658.26
799.31	2996.18
799.49	2666.46
799.66	2545.63
799.84	2670.55
800.01	2512.86
800.19	2746.33
800.36	2506.71
800.53	2660.31
800.71	2762.71
800.88	2971.60
801.06	2559.96
801.23	2572.25
801.41	2676.70
801.58	2621.40
801.75	2580.44
801.93	2734.04
802.10	2793.43
802.28	2658.26
802.45	2629.59
802.63	2754.52
802.80	2877.40
802.97	2693.08
803.15	2684.89
803.32	2602.97
803.50	2619.35
803.67	2596.82
803.84	2549.72
804.02	2684.89
804.19	2674.65
804.37	2330.59
804.54	2527.19
804.71	2602.97
804.89	2717.65
805.06	2668.50
805.24	2465.75
805.41	2496.47
805.58	2584.54
805.76	3014.61
805.93	2697.17
806.10	2820.05
806.28	2746.33
806.45	2713.56
806.63	2752.47
806.80	2711.51
806.97	2719.70
807.15	2723.80
807.32	2639.83
807.49	2637.78
807.67	2566.10
807.84	2840.53
808.01	2426.84
808.19	2891.73
808.36	3026.90
808.54	2674.65
808.71	2596.82
808.88	2629.59
809.06	2850.77
809.23	2813.91
809.40	2645.98
809.58	2631.64
809.75	2631.64
809.92	2643.93
810.10	2856.92
810.27	2631.64
810.44	2750.42
810.62	2768.85
810.79	2793.43
810.96	2551.77
811.14	2617.30
811.31	2764.76
811.48	2719.70
811.66	2715.61
811.83	2881.49
812.00	2842.58
812.18	2682.84
812.35	2932.69
812.52	2695.13
812.69	2615.26
812.87	2641.88
813.04	2586.58
813.21	2713.56
813.39	2557.91
813.56	2445.27
813.73	2809.81
813.91	2586.58
814.08	2721.75
814.25	2664.41
814.42	2482.14
814.60	2627.54
814.77	2705.37
814.94	2617.30
815.12	2703.32
815.29	3012.56
815.46	2666.46
815.63	2686.94
815.81	2658.26
815.98	2629.59
816.15	2697.17
816.33	2701.27
816.50	2611.16
816.67	2783.19
816.84	2723.80
817.02	2594.78
817.19	2658.26
817.36	2762.71
817.53	2811.86
817.71	2557.91
817.88	2742.23
818.05	2736.09
818.22	2729.94
818.40	2910.16
818.57	2568.15
818.74	2766.81
818.91	2725.85
819.09	2785.24
819.26	2725.85
819.43	2633.69
819.60	2633.69
819.78	2801.62
819.95	2834.39
820.12	2473.95
820.29	2850.77
820.47	2863.06
820.64	2570.20
820.81	2547.67
820.98	2676.70
821.15	2637.78
821.33	2738.13
821.50	2564.06
821.67	2805.72
821.84	2629.59
822.02	2658.26
822.19	2834.39
822.36	2650.07
822.53	2627.54
822.70	2516.95
822.88	2623.45
823.05	2813.91
823.22	2723.80
823.39	2725.85
823.56	2652.12
823.74	2971.60
823.91	2586.58
824.08	2582.49
824.25	2547.67
824.42	3055.57
824.60	2523.10
824.77	2754.52
824.94	2660.31
825.11	2809.81
825.28	2475.99
825.45	2654.17
825.63	2701.27
825.80	2484.19
825.97	2740.18
826.14	2643.93
826.31	2500.57
826.48	2793.43
826.66	2574.30
826.83	2676.70
827.00	2719.70
827.17	2586.58
827.34	2680.79
827.51	2555.86
827.69	2668.50
827.86	2510.81
828.03	2633.69
828.20	2654.17
828.37	2568.15
828.54	2830.29
828.71	2543.58
828.89	2754.52
829.06	2818.00
829.23	2871.25
829.40	2586.58
829.57	2592.73
829.74	2811.86
829.91	2650.07
830.09	2633.69
830.26	2680.79
830.43	2875.35
830.60	2672.60
830.77	2682.84
830.94	2856.92
831.11	2803.67
831.28	2641.88
831.46	2688.98
831.63	2643.93
831.80	2764.76
831.97	2596.82
832.14	2588.63
832.31	2650.07
832.48	2861.01
832.65	2785.24
832.82	2738.13
832.99	2645.98
833.17	2568.15
833.34	2914.26
833.51	2584.54
833.68	2363.36
833.85	2826.20
834.02	2514.91
834.19	2553.82
834.36	2596.82
834.53	2723.80
834.70	2789.33
834.87	2731.99
835.04	2484.19
835.22	2586.58
835.39	2643.93
835.56	2564.06
835.73	2480.09
835.90	2881.49
836.07	2602.97
836.24	2775.00
836.41	2496.47
836.58	2635.74
836.75	2875.35
836.92	2654.17
837.09	2519.00
837.26	2738.13
837.43	2779.09
837.60	2619.35
837.77	2504.67
837.94	2838.48
838.12	2904.02
838.29	2535.39
838.46	2420.70
838.63	2500.57
838.80	2920.40
838.97	2510.81
839.14	2566.10
839.31	2750.42
839.48	2836.44
839.65	2559.96
839.82	2572.25
839.99	2791.38
840.16	2627.54
840.33	2529.24
840.50	2613.21
840.67	2555.86
840.84	2383.84
841.01	2531.29
841.18	2506.71
841.35	2691.03
841.52	2869.20
841.69	2869.20
841.86	2502.62
842.03	2740.18
842.20	2820.05
842.37	2568.15
842.54	2584.54
842.71	2756.57
842.88	2475.99
843.05	2588.63
843.22	2598.87
843.39	2789.33
843.56	2551.77
843.73	2613.21
843.90	2564.06
844.07	2793.43
844.24	2826.20
844.41	2600.92
844.58	2639.83
844.75	2703.32
844.92	2752.47
845.09	2607.06
845.26	2549.72
845.43	2822.10
845.60	2629.59
845.77	2678.74
845.94	2574.30
846.10	2805.72
846.27	2568.15
846.44	2506.71
846.61	2486.23
846.78	2676.70
846.95	2842.58
847.12	2559.96
847.29	2580.44
847.46	2557.91
847.63	2848.72
847.80	2426.84
847.97	2543.58
848.14	3104.72
848.31	2666.46
848.48	2398.17
848.65	2633.69
848.82	2666.46
848.98	3012.56
849.15	2619.35
849.32	2717.65
849.49	2918.36
849.66	2654.17
849.83	2512.86
850.00	2482.14
850.17	2805.72
850.34	2580.44
850.51	2506.71
850.68	2568.15
850.85	3096.53
851.01	2758.61
851.18	2574.30
851.35	2539.48
851.52	2744.28
851.69	2869.20
851.86	2457.56
852.03	2572.25
852.20	2783.19
852.37	2707.41
852.53	2414.56
852.70	2523.10
852.87	2703.32
853.04	2856.92
853.21	2527.19
853.38	2734.04
853.55	2842.58
853.72	2846.68
853.89	2482.14
854.05	2473.95
854.22	2592.73
854.39	2670.55
854.56	2584.54
854.73	2711.51
854.90	2564.06
855.07	2662.36
855.23	2523.10
855.40	2510.81
855.57	2674.65
855.74	2389.98
855.91	2709.46
856.08	2441.18
856.25	2566.10
856.41	2629.59
856.58	2635.74
856.75	2582.49
856.92	2621.40
857.09	2818.00
857.26	2375.64
857.42	2650.07
857.59	2731.99
857.76	2660.31
857.93	2555.86
858.10	2621.40
858.27	2568.15
858.43	2793.43
858.60	2510.81
858.77	2398.17
858.94	2631.64
859.11	2867.16
859.27	2637.78
859.44	2519.00
859.61	2987.99
859.78	2775.00
859.95	2523.10
860.12	2473.95
860.28	3039.19
860.45	3055.57
860.62	2469.85
860.79	2693.08
860.95	2617.30
861.12	2572.25
861.29	2475.99
861.46	2547.67
861.63	2666.46
861.79	2805.72
861.96	2480.09
862.13	2609.11
862.30	2869.20
862.47	2623.45
862.63	2492.38
862.80	2627.54
862.97	2838.48
863.14	2777.05
863.30	2564.06
863.47	2498.52
863.64	2910.16
863.81	2729.94
863.97	2537.43
864.14	2631.64
864.31	2627.54
864.48	2719.70
864.65	2570.20
864.81	2621.40
864.98	2799.57
865.15	2787.29
865.32	2627.54
865.48	2650.07
865.65	2965.46
865.82	2629.59
865.98	2605.02
866.15	2742.23
866.32	2695.13
866.49	2656.22
866.65	2797.53
866.82	2478.04
866.99	2723.80
867.16	2535.39
867.32	2574.30
867.49	2527.19
867.66	2760.66
867.83	2588.63
867.99	2482.14
868.16	2555.86
868.33	2541.53
868.49	2668.50
868.66	2531.29
868.83	2623.45
868.99	2772.95
869.16	2707.41
869.33	2691.03
869.50	2602.97
869.66	2760.66
869.83	2691.03
870.00	2406.36
870.16	2686.94
870.33	2672.60
870.50	2725.85
870.66	2588.63
870.83	2633.69
871.00	2674.65
871.17	2744.28
871.33	2633.69
871.50	2486.23
871.67	2719.70
871.83	2564.06
872.00	2727.89
872.17	2531.29
872.33	2955.22
872.50	2838.48
872.67	2549.72
872.83	2588.63
873.00	2719.70
873.17	2801.62
873.33	2627.54
873.50	2590.68
873.67	2631.64
873.83	2615.26
874.00	2629.59
874.16	2723.80
874.33	2766.81
874.50	2482.14
874.66	2562.01
874.83	2668.50
875.00	2830.29
875.16	2830.29
875.33	2656.22
875.50	2303.96
875.66	2574.30
875.83	2674.65
875.99	2662.36
876.16	2506.71
876.33	2512.86
876.49	2637.78
876.66	2594.78
876.83	2523.10
876.99	2527.19
877.16	2703.32
877.32	2510.81
877.49	2613.21
877.66	2695.13
877.82	2871.25
877.99	2607.06
878.15	2703.32
878.32	2727.89
878.49	2830.29
878.65	2623.45
878.82	2834.39
878.98	2621.40
879.15	2865.11
879.32	2650.07
879.48	2645.98
879.65	2656.22
879.81	2744.28
879.98	2523.10
880.15	2572.25
880.31	2775.00
880.48	2551.77
880.64	2596.82
880.81	2635.74
880.97	2981.84
881.14	2789.33
881.31	2478.04
881.47	2736.09
881.64	2607.06
881.80	2547.67
881.97	2762.71
882.13	2588.63
882.30	2529.24
882.47	2633.69
882.63	2482.14
882.80	2492.38
882.96	2656.22
883.13	2944.98
883.29	2621.40
883.46	2541.53
883.62	2992.08
883.79	2709.46
883.95	2756.57
884.12	2529.24
884.29	2842.58
884.45	2719.70
884.62	2668.50
884.78	2553.82
884.95	2947.03
885.11	2607.06
885.28	2596.82
885.44	2533.34
885.61	2785.24
885.77	2863.06
885.94	2686.94
886.10	2576.34
886.27	2711.51
886.43	2957.27
886.60	2736.09
886.76	2617.30
886.93	2627.54
887.09	2752.47
887.26	2406.36
887.42	2592.73
887.59	2918.36
887.75	2951.12
887.92	2717.65
888.08	2752.47
888.25	2971.60
888.41	2856.92
888.58	2535.39
888.74	2451.42
888.91	2676.70
>>>>>End Processed Spectral Data<<<<<
