SpectraSuite Data File
++++++++++++++++++++++++++++++++++++
Date: Thu May 05 16:20:38 CEST 2016
User: root
Dark Spectrum Present: No
Reference Spectrum Present: No
Number of Sampled Component Spectra: 1
Spectrometers: USB4C02835
Integration Time (usec): 100000 (USB4C02835)
Spectra Averaged: 1 (USB4C02835)
Boxcar Smoothing: 0 (USB4C02835)
Correct for Electrical Dark: No (USB4C02835)
Strobe/Lamp Enabled: No (USB4C02835)
Correct for Detector Non-linearity: No (USB4C02835)
Correct for Stray Light: No (USB4C02835)
Number of Pixels in Processed Spectrum: 3648
>>>>>Begin Processed Spectral Data<<<<<
177.47	2009.06
177.69	2009.06
177.91	2009.06
178.13	2072.54
178.36	2064.35
178.58	2531.29
178.80	2701.27
179.02	2461.66
179.24	2527.19
179.46	2465.75
179.68	2555.86
179.90	2641.88
180.13	2695.13
180.35	2379.74
180.57	2484.19
180.79	2830.29
181.01	2727.89
181.23	2494.43
181.45	2619.35
181.67	2781.14
181.90	2879.44
182.12	2535.39
182.34	2383.84
182.56	2871.25
182.78	2736.09
183.00	2469.85
183.22	2602.97
183.44	2428.89
183.66	3207.12
183.89	2600.92
184.11	2506.71
184.33	2809.81
184.55	2904.02
184.77	2562.01
184.99	2512.86
185.21	2654.17
185.43	3071.95
185.65	2516.95
185.87	2441.18
186.10	3057.62
186.32	3084.24
186.54	2592.73
186.76	2562.01
186.98	2861.01
187.20	2652.12
187.42	2543.58
187.64	2531.29
187.86	2797.53
188.08	2879.44
188.30	2428.89
188.52	2594.78
188.75	2811.86
188.97	2930.64
189.19	2426.84
189.41	2461.66
189.63	2777.05
189.85	2688.98
190.07	2424.80
190.29	2334.68
190.51	2731.99
190.73	2537.43
190.95	2594.78
191.17	2543.58
191.39	2531.29
191.61	2670.55
191.84	2553.82
192.06	2637.78
192.28	2492.38
192.50	3239.89
192.72	2623.45
192.94	2547.67
193.16	2863.06
193.38	2783.19
193.60	2463.71
193.82	2607.06
194.04	2893.78
194.26	2787.29
194.48	2559.96
194.70	2510.81
194.92	2723.80
195.14	2822.10
195.36	2557.91
195.58	2555.86
195.80	2803.67
196.02	2586.58
196.24	2404.32
196.46	2605.02
196.69	2629.59
196.91	3071.95
197.13	2506.71
197.35	2461.66
197.57	2906.07
197.79	2781.14
198.01	2617.30
198.23	2557.91
198.45	2807.77
198.67	2506.71
198.89	2365.40
199.11	2553.82
199.33	2537.43
199.55	2416.60
199.77	2437.08
199.99	2645.98
200.21	2656.22
200.43	2809.81
200.65	2492.38
200.87	2422.75
201.09	2750.42
201.31	2693.08
201.53	2527.19
201.75	2580.44
201.97	2715.61
202.19	2643.93
202.41	2535.39
202.63	2693.08
202.85	2748.37
203.07	2723.80
203.29	2537.43
203.51	2453.47
203.73	2562.01
203.95	3071.95
204.17	2623.45
204.39	2584.54
204.61	2717.65
204.83	2615.26
205.05	2582.49
205.27	2531.29
205.49	3059.67
205.71	2779.09
205.93	2445.27
206.15	2441.18
206.37	2705.37
206.59	2717.65
206.81	2375.64
207.03	2428.89
207.25	2570.20
207.47	2807.77
207.69	2547.67
207.91	2756.57
208.13	2887.64
208.34	2531.29
208.56	2572.25
208.78	2502.62
209.00	2711.51
209.22	2678.74
209.44	2512.86
209.66	2506.71
209.88	2727.89
210.10	2758.61
210.32	2514.91
210.54	2578.39
210.76	2629.59
210.98	2873.30
211.20	2334.68
211.42	2662.36
211.64	2928.60
211.86	2758.61
212.08	2643.93
212.30	2467.80
212.52	2740.18
212.74	2748.37
212.96	2639.83
213.17	2564.06
213.39	2897.88
213.61	2963.41
213.83	2572.25
214.05	2379.74
214.27	2869.20
214.49	2602.97
214.71	2414.56
214.93	2559.96
215.15	2731.99
215.37	2789.33
215.59	2437.08
215.81	2510.81
216.03	2973.65
216.24	2725.85
216.46	2553.82
216.68	2639.83
216.90	2758.61
217.12	2897.88
217.34	2502.62
217.56	2686.94
217.78	2940.88
218.00	2824.15
218.22	2541.53
218.44	2701.27
218.66	2811.86
218.87	2942.93
219.09	2580.44
219.31	2531.29
219.53	2752.47
219.75	2703.32
219.97	2529.24
220.19	2551.77
220.41	2625.50
220.63	2961.36
220.85	2512.86
221.06	2547.67
221.28	2906.07
221.50	2895.83
221.72	2580.44
221.94	2449.37
222.16	2752.47
222.38	2813.91
222.60	2488.28
222.82	2551.77
223.03	2844.63
223.25	2613.21
223.47	2545.63
223.69	2682.84
223.91	2953.17
224.13	2744.28
224.35	2482.14
224.57	2781.14
224.78	2826.20
225.00	2557.91
225.22	2574.30
225.44	2508.76
225.66	2805.72
225.88	2650.07
226.10	2588.63
226.32	2586.58
226.53	2922.45
226.75	2627.54
226.97	2572.25
227.19	2527.19
227.41	2682.84
227.63	2756.57
227.85	2455.51
228.06	2525.15
228.28	2727.89
228.50	2832.34
228.72	2426.84
228.94	2467.80
229.16	2430.94
229.37	2588.63
229.59	2490.33
229.81	2789.33
230.03	2656.22
230.25	2525.15
230.47	2459.61
230.69	2432.99
230.90	2830.29
231.12	2621.40
231.34	2557.91
231.56	2658.26
231.78	2545.63
232.00	2678.74
232.21	2529.24
232.43	2525.15
232.65	2426.84
232.87	2727.89
233.09	2455.51
233.30	2461.66
233.52	2883.54
233.74	2756.57
233.96	2480.09
234.18	2580.44
234.40	2785.24
234.61	3065.81
234.83	2410.46
235.05	2408.41
235.27	3028.95
235.49	2881.49
235.70	2506.71
235.92	2641.88
236.14	2758.61
236.36	3078.10
236.58	2539.48
236.79	2523.10
237.01	2758.61
237.23	2717.65
237.45	2672.60
237.67	2459.61
237.88	2805.72
238.10	2955.22
238.32	2445.27
238.54	2498.52
238.76	2783.19
238.97	2621.40
239.19	2412.51
239.41	2605.02
239.63	2871.25
239.85	2658.26
240.06	2469.85
240.28	2494.43
240.50	2858.96
240.72	2731.99
240.93	2379.74
241.15	2584.54
241.37	2717.65
241.59	2906.07
241.81	2531.29
242.02	2541.53
242.24	2701.27
242.46	2830.29
242.68	2367.45
242.89	2484.19
243.11	2867.16
243.33	2592.73
243.55	2559.96
243.76	2510.81
243.98	2680.79
244.20	2717.65
244.42	2480.09
244.64	2545.63
244.85	2516.95
245.07	2541.53
245.29	2533.34
245.51	2527.19
245.72	2750.42
245.94	2887.64
246.16	2527.19
246.38	2545.63
246.59	2684.89
246.81	2629.59
247.03	2502.62
247.24	2371.55
247.46	2648.02
247.68	2752.47
247.90	2512.86
248.11	2512.86
248.33	2861.01
248.55	2715.61
248.77	2592.73
248.98	2613.21
249.20	2914.26
249.42	2740.18
249.64	2488.28
249.85	2480.09
250.07	2680.79
250.29	2824.15
250.50	2602.97
250.72	2484.19
250.94	2777.05
251.16	3078.10
251.37	2504.67
251.59	2576.34
251.81	2775.00
252.02	2891.73
252.24	2441.18
252.46	2568.15
252.68	2568.15
252.89	2711.51
253.11	2379.74
253.33	2705.37
253.54	2955.22
253.76	2566.10
253.98	2471.90
254.20	2488.28
254.41	2562.01
254.63	2711.51
254.85	2416.60
255.06	2637.78
255.28	2680.79
255.50	2682.84
255.71	2451.42
255.93	2439.13
256.15	2721.75
256.36	2838.48
256.58	2394.08
256.80	2547.67
257.02	2678.74
257.23	2672.60
257.45	2482.14
257.67	2607.06
257.88	2658.26
258.10	2811.86
258.32	2488.28
258.53	2607.06
258.75	2973.65
258.97	2609.11
259.18	2465.75
259.40	2551.77
259.62	2940.88
259.83	2891.73
260.05	2494.43
260.27	3145.68
260.48	2820.05
260.70	2625.50
260.92	2428.89
261.13	2533.34
261.35	2709.46
261.57	2895.83
261.78	2519.00
262.00	2441.18
262.22	2809.81
262.43	2547.67
262.65	2523.10
262.86	2584.54
263.08	3121.10
263.30	2770.90
263.51	2422.75
263.73	2441.18
263.95	2981.84
264.16	2592.73
264.38	2430.94
264.60	2449.37
264.81	2725.85
265.03	2850.77
265.25	2738.13
265.46	2447.32
265.68	2881.49
265.89	2854.87
266.11	2367.45
266.33	2500.57
266.54	2926.55
266.76	2760.66
266.98	2658.26
267.19	2695.13
267.41	2893.78
267.62	2648.02
267.84	2322.40
268.06	2574.30
268.27	2750.42
268.49	2899.92
268.70	2613.21
268.92	2574.30
269.14	2559.96
269.35	2527.19
269.57	2519.00
269.79	2629.59
270.00	2596.82
270.22	2961.36
270.43	2412.51
270.65	2349.02
270.87	2750.42
271.08	2766.81
271.30	2645.98
271.51	2559.96
271.73	2752.47
271.95	2932.69
272.16	2449.37
272.38	2559.96
272.59	2693.08
272.81	2768.85
273.02	2478.04
273.24	2617.30
273.46	2889.68
273.67	2588.63
273.89	2432.99
274.10	2461.66
274.32	2807.77
274.54	2785.24
274.75	2600.92
274.97	2584.54
275.18	2807.77
275.40	2740.18
275.61	2557.91
275.83	2639.83
276.05	2531.29
276.26	2760.66
276.48	2631.64
276.69	2627.54
276.91	2668.50
277.12	2889.68
277.34	2725.85
277.55	2658.26
277.77	2707.41
277.99	2664.41
278.20	2514.91
278.42	2480.09
278.63	2643.93
278.85	2605.02
279.06	2484.19
279.28	2711.51
279.49	2832.34
279.71	2783.19
279.93	2629.59
280.14	2631.64
280.36	2633.69
280.57	2809.81
280.79	2707.41
281.00	2514.91
281.22	2613.21
281.43	2885.59
281.65	2383.84
281.86	2512.86
282.08	2781.14
282.29	2990.03
282.51	2478.04
282.73	2480.09
282.94	2469.85
283.16	2836.44
283.37	2805.72
283.59	2666.46
283.80	2830.29
284.02	2719.70
284.23	2666.46
284.45	2664.41
284.66	2592.73
284.88	2650.07
285.09	2668.50
285.31	2770.90
285.52	2719.70
285.74	2490.33
285.95	2791.38
286.17	2586.58
286.38	2904.02
286.60	2695.13
286.81	2553.82
287.03	2543.58
287.24	2758.61
287.46	2838.48
287.67	2660.31
287.89	2848.72
288.10	2664.41
288.32	2789.33
288.53	2848.72
288.75	2594.78
288.96	2801.62
289.18	2678.74
289.39	2551.77
289.61	2713.56
289.82	2998.23
290.04	2918.36
290.25	2473.95
290.47	2605.02
290.68	2725.85
290.90	2883.54
291.11	2498.52
291.33	2766.81
291.54	2619.35
291.76	2621.40
291.97	2691.03
292.18	2662.36
292.40	2695.13
292.61	2559.96
292.83	2891.73
293.04	2605.02
293.26	2787.29
293.47	2686.94
293.69	2525.15
293.90	2531.29
294.12	2906.07
294.33	2701.27
294.55	2609.11
294.76	2686.94
294.97	2881.49
295.19	2998.23
295.40	2648.02
295.62	2670.55
295.83	2842.58
296.05	2621.40
296.26	2826.20
296.48	2588.63
296.69	2693.08
296.90	2699.22
297.12	2697.17
297.33	2688.98
297.55	2760.66
297.76	2813.91
297.98	2723.80
298.19	2688.98
298.41	2703.32
298.62	2598.87
298.83	2807.77
299.05	2703.32
299.26	2637.78
299.48	2602.97
299.69	2768.85
299.90	2607.06
300.12	2555.86
300.33	2850.77
300.55	2598.87
300.76	2629.59
300.98	2576.34
301.19	2822.10
301.40	2627.54
301.62	2562.01
301.83	2809.81
302.05	2711.51
302.26	2564.06
302.47	2625.50
302.69	2525.15
302.90	2754.52
303.12	2361.31
303.33	2770.90
303.54	3080.14
303.76	2750.42
303.97	2605.02
304.19	2746.33
304.40	2549.72
304.61	2805.72
304.83	2695.13
305.04	2744.28
305.26	2787.29
305.47	2674.65
305.68	2701.27
305.90	2490.33
306.11	2940.88
306.33	2717.65
306.54	2537.43
306.75	2551.77
306.97	2469.85
307.18	2596.82
307.39	2629.59
307.61	2611.16
307.82	2648.02
308.04	2715.61
308.25	2564.06
308.46	2750.42
308.68	2703.32
308.89	2744.28
309.10	2713.56
309.32	2736.09
309.53	2705.37
309.74	2760.66
309.96	2572.25
310.17	2756.57
310.39	2639.83
310.60	2840.53
310.81	2654.17
311.03	2553.82
311.24	2807.77
311.45	2703.32
311.67	2809.81
311.88	2594.78
312.09	2697.17
312.31	2674.65
312.52	2527.19
312.73	2576.34
312.95	2568.15
313.16	2570.20
313.37	2697.17
313.59	2721.75
313.80	2883.54
314.01	2906.07
314.23	2658.26
314.44	2559.96
314.65	2580.44
314.87	2533.34
315.08	2535.39
315.29	2555.86
315.51	2619.35
315.72	2541.53
315.93	2684.89
316.15	2625.50
316.36	2705.37
316.57	2711.51
316.79	2662.36
317.00	2627.54
317.21	2799.57
317.43	2607.06
317.64	2633.69
317.85	2549.72
318.07	2596.82
318.28	2656.22
318.49	2738.13
318.70	2854.87
318.92	2785.24
319.13	2871.25
319.34	2848.72
319.56	2633.69
319.77	2832.34
319.98	2797.53
320.20	2783.19
320.41	2676.70
320.62	2791.38
320.83	2572.25
321.05	2791.38
321.26	2658.26
321.47	2703.32
321.69	2897.88
321.90	2414.56
322.11	2594.78
322.32	2715.61
322.54	2906.07
322.75	2613.21
322.96	3168.21
323.18	2435.03
323.39	2484.19
323.60	2562.01
323.81	2719.70
324.03	2731.99
324.24	2715.61
324.45	2740.18
324.66	2602.97
324.88	2844.63
325.09	2934.74
325.30	2613.21
325.52	2594.78
325.73	2772.95
325.94	2553.82
326.15	2514.91
326.37	2533.34
326.58	2846.68
326.79	2916.31
327.00	2492.38
327.22	2605.02
327.43	2621.40
327.64	2543.58
327.85	2738.13
328.07	2607.06
328.28	3033.04
328.49	2703.32
328.70	2590.68
328.92	2660.31
329.13	2701.27
329.34	2727.89
329.55	2818.00
329.76	2775.00
329.98	2609.11
330.19	2922.45
330.40	2707.41
330.61	2635.74
330.83	2858.96
331.04	2510.81
331.25	2670.55
331.46	2590.68
331.68	2559.96
331.89	2852.82
332.10	2598.87
332.31	2482.14
332.52	2650.07
332.74	2936.79
332.95	2469.85
333.16	2547.67
333.37	2891.73
333.58	2588.63
333.80	2607.06
334.01	2449.37
334.22	2686.94
334.43	2623.45
334.64	2592.73
334.86	2555.86
335.07	2611.16
335.28	2865.11
335.49	2443.23
335.70	2652.12
335.92	2965.46
336.13	3043.28
336.34	2662.36
336.55	2648.02
336.76	2756.57
336.98	2447.32
337.19	2623.45
337.40	2727.89
337.61	3125.20
337.82	2637.78
338.04	2709.46
338.25	2435.03
338.46	2656.22
338.67	2746.33
338.88	2568.15
339.09	2525.15
339.31	2676.70
339.52	2586.58
339.73	2541.53
339.94	2678.74
340.15	2787.29
340.36	2621.40
340.58	2650.07
340.79	2596.82
341.00	2893.78
341.21	2637.78
341.42	2834.39
341.63	2639.83
341.85	2818.00
342.06	2693.08
342.27	2564.06
342.48	2715.61
342.69	2584.54
342.90	2805.72
343.12	2781.14
343.33	2580.44
343.54	2871.25
343.75	2908.12
343.96	2539.48
344.17	2471.90
344.38	2699.22
344.60	2623.45
344.81	2529.24
345.02	2547.67
345.23	2848.72
345.44	3135.44
345.65	2668.50
345.86	2711.51
346.07	2752.47
346.29	2654.17
346.50	2660.31
346.71	2731.99
346.92	2924.50
347.13	3047.38
347.34	2684.89
347.55	2504.67
347.76	2811.86
347.98	2430.94
348.19	2578.39
348.40	2748.37
348.61	2652.12
348.82	2969.55
349.03	2654.17
349.24	2574.30
349.45	3041.23
349.66	2371.55
349.88	2529.24
350.09	2512.86
350.30	2987.99
350.51	2969.55
350.72	2795.48
350.93	2635.74
351.14	2678.74
351.35	2711.51
351.56	2584.54
351.77	2676.70
351.99	2789.33
352.20	2973.65
352.41	2756.57
352.62	2447.32
352.83	2654.17
353.04	2781.14
353.25	2605.02
353.46	2676.70
353.67	2832.34
353.88	2435.03
354.09	2488.28
354.30	2639.83
354.52	2826.20
354.73	2695.13
354.94	2527.19
355.15	2654.17
355.36	3084.24
355.57	2654.17
355.78	2619.35
355.99	2555.86
356.20	2674.65
356.41	2861.01
356.62	2672.60
356.83	2623.45
357.04	2967.51
357.25	2519.00
357.46	2557.91
357.68	2488.28
357.89	2592.73
358.10	2731.99
358.31	2676.70
358.52	2559.96
358.73	2582.49
358.94	2629.59
359.15	2621.40
359.36	2691.03
359.57	2727.89
359.78	2600.92
359.99	2707.41
360.20	2500.57
360.41	2740.18
360.62	2772.95
360.83	2652.12
361.04	2584.54
361.25	2783.19
361.46	2912.21
361.67	2707.41
361.88	2740.18
362.09	2926.55
362.30	2852.82
362.51	2578.39
362.72	2676.70
362.93	2856.92
363.14	2772.95
363.35	2723.80
363.56	2547.67
363.78	2824.15
363.99	2832.34
364.20	2588.63
364.41	2729.94
364.62	3055.57
364.83	2748.37
365.04	2629.59
365.25	2578.39
365.46	3006.42
365.67	2570.20
365.88	2619.35
366.09	2543.58
366.30	2719.70
366.51	2711.51
366.72	2549.72
366.93	2600.92
367.14	2777.05
367.35	2932.69
367.56	2605.02
367.77	2752.47
367.98	2744.28
368.18	2801.62
368.39	2686.94
368.60	2498.52
368.81	2881.49
369.02	2713.56
369.23	2625.50
369.44	2371.55
369.65	2678.74
369.86	2850.77
370.07	2711.51
370.28	2525.15
370.49	2807.77
370.70	2783.19
370.91	2555.86
371.12	2465.75
371.33	2854.87
371.54	2615.26
371.75	2785.24
371.96	2432.99
372.17	2725.85
372.38	2680.79
372.59	2637.78
372.80	2617.30
373.01	2684.89
373.22	2721.75
373.43	2598.87
373.64	2484.19
373.85	2912.21
374.06	2932.69
374.26	2748.37
374.47	2707.41
374.68	2957.27
374.89	2807.77
375.10	2658.26
375.31	2652.12
375.52	2756.57
375.73	2729.94
375.94	2531.29
376.15	2791.38
376.36	2580.44
376.57	2639.83
376.78	2625.50
376.99	2691.03
377.20	2940.88
377.40	2676.70
377.61	2854.87
377.82	2566.10
378.03	2944.98
378.24	2838.48
378.45	2686.94
378.66	2670.55
378.87	2516.95
379.08	2494.43
379.29	2541.53
379.50	2781.14
379.71	2594.78
379.91	2901.97
380.12	2613.21
380.33	2639.83
380.54	2684.89
380.75	2611.16
380.96	2650.07
381.17	2719.70
381.38	2678.74
381.59	2707.41
381.80	2623.45
382.00	2846.68
382.21	2750.42
382.42	2944.98
382.63	3002.32
382.84	2789.33
383.05	2840.53
383.26	2924.50
383.47	2754.52
383.68	2594.78
383.88	2842.58
384.09	2789.33
384.30	2850.77
384.51	2629.59
384.72	2723.80
384.93	2463.71
385.14	2674.65
385.35	2813.91
385.55	2529.24
385.76	2807.77
385.97	2596.82
386.18	2484.19
386.39	2629.59
386.60	2656.22
386.81	2576.34
387.02	2535.39
387.22	2555.86
387.43	2842.58
387.64	2719.70
387.85	2856.92
388.06	2891.73
388.27	3917.76
388.48	7520.14
388.68	10925.91
388.89	13549.36
389.10	14352.16
389.31	13762.35
389.52	10964.82
389.73	9525.10
389.93	8607.61
390.14	7888.78
390.35	7051.16
390.56	6512.54
390.77	5294.00
390.98	4186.05
391.18	3379.15
391.39	3117.01
391.60	2783.19
391.81	2799.57
392.02	2611.16
392.23	3104.72
392.43	2736.09
392.64	2832.34
392.85	2703.32
393.06	2996.18
393.27	2662.36
393.47	2562.01
393.68	2688.98
393.89	2629.59
394.10	2856.92
394.31	2574.30
394.52	2590.68
394.72	2641.88
394.93	2934.74
395.14	2596.82
395.35	2723.80
395.56	2594.78
395.76	2674.65
395.97	2705.37
396.18	2742.23
396.39	2815.96
396.60	3248.08
396.80	2981.84
397.01	2789.33
397.22	2791.38
397.43	2867.16
397.64	2596.82
397.84	2678.74
398.05	2981.84
398.26	2701.27
398.47	2789.33
398.67	2793.43
398.88	2580.44
399.09	2887.64
399.30	2674.65
399.51	2762.71
399.71	2592.73
399.92	2783.19
400.13	2748.37
400.34	2648.02
400.54	2744.28
400.75	3018.71
400.96	2695.13
401.17	2875.35
401.37	2863.06
401.58	2713.56
401.79	2662.36
402.00	2795.48
402.21	3209.17
402.41	3098.58
402.62	2889.68
402.83	3030.99
403.04	3076.05
403.24	3301.33
403.45	2719.70
403.66	2838.48
403.87	2940.88
404.07	2938.84
404.28	2840.53
404.49	2914.26
404.70	2824.15
404.90	2891.73
405.11	2686.94
405.32	2752.47
405.52	2656.22
405.73	2631.64
405.94	2531.29
406.15	2666.46
406.35	2887.64
406.56	2840.53
406.77	2674.65
406.98	2709.46
407.18	2611.16
407.39	2942.93
407.60	2766.81
407.80	2742.23
408.01	2654.17
408.22	2715.61
408.43	2521.05
408.63	2674.65
408.84	2850.77
409.05	2779.09
409.25	2627.54
409.46	2537.43
409.67	2836.44
409.88	2654.17
410.08	2727.89
410.29	2680.79
410.50	2865.11
410.70	2789.33
410.91	2555.86
411.12	2596.82
411.32	2789.33
411.53	2596.82
411.74	2668.50
411.95	2707.41
412.15	2758.61
412.36	2848.72
412.57	2703.32
412.77	2793.43
412.98	2703.32
413.19	2719.70
413.39	2684.89
413.60	2746.33
413.81	2936.79
414.01	2543.58
414.22	2707.41
414.43	2789.33
414.63	2635.74
414.84	2940.88
415.05	2637.78
415.25	2508.76
415.46	2805.72
415.67	2670.55
415.87	2697.17
416.08	2674.65
416.29	2637.78
416.49	2754.52
416.70	2609.11
416.91	2635.74
417.11	2680.79
417.32	2768.85
417.53	2779.09
417.73	2772.95
417.94	2670.55
418.15	2729.94
418.35	2627.54
418.56	2731.99
418.77	3119.06
418.97	2721.75
419.18	2672.60
419.38	2357.21
419.59	2752.47
419.80	2996.18
420.00	2564.06
420.21	2625.50
420.42	2881.49
420.62	2760.66
420.83	2627.54
421.04	2605.02
421.24	2686.94
421.45	2727.89
421.65	2701.27
421.86	2645.98
422.07	2908.12
422.27	2830.29
422.48	2621.40
422.69	2508.76
422.89	2729.94
423.10	2772.95
423.30	2553.82
423.51	2750.42
423.72	2854.87
423.92	2904.02
424.13	2504.67
424.33	2686.94
424.54	2809.81
424.75	2742.23
424.95	2871.25
425.16	2682.84
425.36	2719.70
425.57	2820.05
425.78	2697.17
425.98	2731.99
426.19	2740.18
426.39	2570.20
426.60	2668.50
426.81	2785.24
427.01	2736.09
427.22	2576.34
427.42	2490.33
427.63	2594.78
427.83	2875.35
428.04	2924.50
428.25	2734.04
428.45	2858.96
428.66	2912.21
428.86	2691.03
429.07	2686.94
429.28	2682.84
429.48	2721.75
429.69	2699.22
429.89	2654.17
430.10	2494.43
430.30	2742.23
430.51	2977.75
430.71	2633.69
430.92	2586.58
431.13	2686.94
431.33	2846.68
431.54	2674.65
431.74	2801.62
431.95	3000.27
432.15	2580.44
432.36	2658.26
432.56	2809.81
432.77	2992.08
432.98	2971.60
433.18	2764.76
433.39	2574.30
433.59	2660.31
433.80	2975.70
434.00	2891.73
434.21	2623.45
434.41	2592.73
434.62	3065.81
434.82	2512.86
435.03	2576.34
435.23	2703.32
435.44	2527.19
435.64	2686.94
435.85	2668.50
436.06	2731.99
436.26	2828.24
436.47	2551.77
436.67	2637.78
436.88	2668.50
437.08	2971.60
437.29	2785.24
437.49	2748.37
437.70	2990.03
437.90	2736.09
438.11	2848.72
438.31	2686.94
438.52	2942.93
438.72	2877.40
438.93	2920.40
439.13	2703.32
439.34	2891.73
439.54	2691.03
439.75	2775.00
439.95	2775.00
440.16	2746.33
440.36	2697.17
440.57	2693.08
440.77	2699.22
440.98	2721.75
441.18	2772.95
441.39	2564.06
441.59	2590.68
441.80	3030.99
442.00	2707.41
442.21	2758.61
442.41	2549.72
442.62	2926.55
442.82	2588.63
443.02	2627.54
443.23	2701.27
443.43	2799.57
443.64	2975.70
443.84	2535.39
444.05	2805.72
444.25	2729.94
444.46	2717.65
444.66	2688.98
444.87	2822.10
445.07	2566.10
445.28	2670.55
445.48	2826.20
445.69	2736.09
445.89	3076.05
446.09	2725.85
446.30	2949.08
446.50	3160.02
446.71	4523.96
446.91	5730.22
447.12	6328.22
447.32	6807.45
447.53	6453.15
447.73	5484.46
447.93	4806.58
448.14	4509.63
448.34	4554.68
448.55	3825.61
448.75	3772.36
448.96	3641.29
449.16	3370.96
449.36	3207.12
449.57	2891.73
449.77	2615.26
449.98	2641.88
450.18	2811.86
450.39	2639.83
450.59	2811.86
450.79	2742.23
451.00	2684.89
451.20	2783.19
451.41	2713.56
451.61	2754.52
451.81	2668.50
452.02	2570.20
452.22	2666.46
452.43	2699.22
452.63	2650.07
452.84	2650.07
453.04	2596.82
453.24	2805.72
453.45	2627.54
453.65	2693.08
453.86	2635.74
454.06	2709.46
454.26	2684.89
454.47	2521.05
454.67	2805.72
454.87	2725.85
455.08	2736.09
455.28	2877.40
455.49	2699.22
455.69	2594.78
455.89	3049.43
456.10	2752.47
456.30	2586.58
456.51	2807.77
456.71	2719.70
456.91	2686.94
457.12	2734.04
457.32	2684.89
457.52	2592.73
457.73	2869.20
457.93	2811.86
458.14	2602.97
458.34	2439.13
458.54	2703.32
458.75	2529.24
458.95	2940.88
459.15	2744.28
459.36	2658.26
459.56	2688.98
459.76	3186.64
459.97	2711.51
460.17	2568.15
460.37	2729.94
460.58	2641.88
460.78	2785.24
460.99	2621.40
461.19	2648.02
461.39	2682.84
461.60	2746.33
461.80	2688.98
462.00	2652.12
462.21	2764.76
462.41	2582.49
462.61	2529.24
462.82	2471.90
463.02	2742.23
463.22	2758.61
463.43	2738.13
463.63	2662.36
463.83	2897.88
464.04	2797.53
464.24	2674.65
464.44	2580.44
464.64	2807.77
464.85	2772.95
465.05	2695.13
465.25	2645.98
465.46	2715.61
465.66	2799.57
465.86	2760.66
466.07	2697.17
466.27	2695.13
466.47	2525.15
466.68	2473.95
466.88	2766.81
467.08	2871.25
467.29	2842.58
467.49	2666.46
467.69	2727.89
467.89	2807.77
468.10	2758.61
468.30	2789.33
468.50	2789.33
468.71	2967.51
468.91	2527.19
469.11	2822.10
469.31	2729.94
469.52	2600.92
469.72	2928.60
469.92	2858.96
470.13	2611.16
470.33	2791.38
470.53	2801.62
470.73	3020.75
470.94	3358.67
471.14	3430.35
471.34	3784.65
471.54	3456.97
471.75	3313.61
471.95	3123.15
472.15	3028.95
472.36	3188.69
472.56	2985.94
472.76	3149.78
472.96	3057.62
473.17	2949.08
473.37	2787.29
473.57	2717.65
473.77	2740.18
473.98	2727.89
474.18	2521.05
474.38	3209.17
474.58	2662.36
474.79	2613.21
474.99	2762.71
475.19	2873.30
475.39	2496.47
475.60	2775.00
475.80	2668.50
476.00	2752.47
476.20	2752.47
476.41	2678.74
476.61	2760.66
476.81	2947.03
477.01	2590.68
477.21	2850.77
477.42	2793.43
477.62	2543.58
477.82	2901.97
478.02	2594.78
478.23	2768.85
478.43	2613.21
478.63	2668.50
478.83	2666.46
479.03	2684.89
479.24	2914.26
479.44	3039.19
479.64	2609.11
479.84	2445.27
480.04	2627.54
480.25	2897.88
480.45	2572.25
480.65	2607.06
480.85	2947.03
481.06	2602.97
481.26	2658.26
481.46	2643.93
481.66	2768.85
481.86	2656.22
482.06	2775.00
482.27	2684.89
482.47	2697.17
482.67	2746.33
482.87	2586.58
483.07	2762.71
483.28	2688.98
483.48	2566.10
483.68	2686.94
483.88	2600.92
484.08	2498.52
484.29	2541.53
484.49	2664.41
484.69	2549.72
484.89	2887.64
485.09	2867.16
485.29	2678.74
485.50	2789.33
485.70	2631.64
485.90	2990.03
486.10	2686.94
486.30	2676.70
486.50	2940.88
486.71	2840.53
486.91	2721.75
487.11	2781.14
487.31	2529.24
487.51	2801.62
487.71	2590.68
487.91	2523.10
488.12	2652.12
488.32	2377.69
488.52	2592.73
488.72	2428.89
488.92	2758.61
489.12	2889.68
489.32	2801.62
489.53	2598.87
489.73	2637.78
489.93	2961.36
490.13	2537.43
490.33	2439.13
490.53	2768.85
490.73	2834.39
490.94	2414.56
491.14	2711.51
491.34	2803.67
491.54	2885.59
491.74	3499.98
491.94	4034.50
492.14	4450.24
492.34	4427.71
492.54	4214.72
492.75	3459.02
492.95	3536.84
493.15	3452.88
493.35	3401.68
493.55	3227.60
493.75	3098.58
493.95	3200.98
494.15	2924.50
494.35	2781.14
494.56	2830.29
494.76	2656.22
494.96	2684.89
495.16	2703.32
495.36	2701.27
495.56	2762.71
495.76	2637.78
495.96	2605.02
496.16	2627.54
496.36	3045.33
496.56	2658.26
496.77	2760.66
496.97	2709.46
497.17	2977.75
497.37	2539.48
497.57	2744.28
497.77	2781.14
497.97	2584.54
498.17	2664.41
498.37	2668.50
498.57	2852.82
498.77	2672.60
498.97	2783.19
499.17	2910.16
499.38	2670.55
499.58	2863.06
499.78	2834.39
499.98	2809.81
500.18	2682.84
500.38	2553.82
500.58	2922.45
500.78	3229.65
500.98	5435.31
501.18	7290.77
501.38	8652.67
501.58	9551.73
501.78	9394.03
501.98	7853.96
502.18	6518.68
502.38	5525.42
502.58	5408.69
502.78	4782.01
502.98	4681.66
503.18	4476.86
503.38	4093.89
503.59	3510.22
503.79	3456.97
503.99	3248.08
504.19	3143.63
504.39	3217.36
504.59	3162.06
504.79	3035.09
504.99	3270.61
505.19	2901.97
505.39	2824.15
505.59	3022.80
505.79	3039.19
505.99	2924.50
506.19	2727.89
506.39	2891.73
506.59	2643.93
506.79	2746.33
506.99	2797.53
507.19	2629.59
507.39	2711.51
507.59	2500.57
507.79	2559.96
507.99	2574.30
508.19	2719.70
508.39	2645.98
508.59	2740.18
508.79	2807.77
508.99	2957.27
509.19	2729.94
509.39	2705.37
509.59	2572.25
509.79	2666.46
509.99	2822.10
510.19	2736.09
510.39	2793.43
510.59	2783.19
510.79	2695.13
510.99	2562.01
511.19	2629.59
511.39	3076.05
511.59	2942.93
511.79	2785.24
511.99	2721.75
512.19	3014.61
512.38	2793.43
512.58	2588.63
512.78	2607.06
512.98	2975.70
513.18	2932.69
513.38	2465.75
513.58	2709.46
513.78	2652.12
513.98	2729.94
514.18	2670.55
514.38	2627.54
514.58	2760.66
514.78	2662.36
514.98	2588.63
515.18	2594.78
515.38	2664.41
515.58	2895.83
515.78	2676.70
515.98	2625.50
516.18	2785.24
516.38	2791.38
516.57	2625.50
516.77	2635.74
516.97	2895.83
517.17	2662.36
517.37	2465.75
517.57	2799.57
517.77	2688.98
517.97	2684.89
518.17	2713.56
518.37	2590.68
518.57	2525.15
518.77	2568.15
518.97	2672.60
519.16	2648.02
519.36	2875.35
519.56	2641.88
519.76	2594.78
519.96	2668.50
520.16	2836.44
520.36	2559.96
520.56	2787.29
520.76	2621.40
520.96	2711.51
521.16	2895.83
521.35	2781.14
521.55	2801.62
521.75	2709.46
521.95	2703.32
522.15	2514.91
522.35	2584.54
522.55	2576.34
522.75	2815.96
522.95	2582.49
523.14	2527.19
523.34	2809.81
523.54	2686.94
523.74	2750.42
523.94	2701.27
524.14	2531.29
524.34	2744.28
524.54	2863.06
524.73	2607.06
524.93	2906.07
525.13	2750.42
525.33	2512.86
525.53	2885.59
525.73	2783.19
525.93	2820.05
526.13	2611.16
526.32	2584.54
526.52	2877.40
526.72	2844.63
526.92	2656.22
527.12	2627.54
527.32	2547.67
527.52	2811.86
527.71	2760.66
527.91	2717.65
528.11	2629.59
528.31	2715.61
528.51	2586.58
528.71	2822.10
528.90	2807.77
529.10	2961.36
529.30	2781.14
529.50	2453.47
529.70	2752.47
529.90	2723.80
530.09	2625.50
530.29	2531.29
530.49	2529.24
530.69	3151.82
530.89	2695.13
531.09	2682.84
531.28	2645.98
531.48	2936.79
531.68	2680.79
531.88	2686.94
532.08	2918.36
532.28	2727.89
532.47	2785.24
532.67	2785.24
532.87	2748.37
533.07	2602.97
533.27	2742.23
533.46	2723.80
533.66	2762.71
533.86	2664.41
534.06	2660.31
534.26	2676.70
534.45	2703.32
534.65	2924.50
534.85	2758.61
535.05	2615.26
535.25	2932.69
535.44	2482.14
535.64	2793.43
535.84	2633.69
536.04	2711.51
536.24	2703.32
536.43	2607.06
536.63	2625.50
536.83	2750.42
537.03	2693.08
537.22	2514.91
537.42	2521.05
537.62	2760.66
537.82	2582.49
538.02	2766.81
538.21	2803.67
538.41	3133.39
538.61	2867.16
538.81	2605.02
539.00	2717.65
539.20	2568.15
539.40	2654.17
539.60	2633.69
539.79	2803.67
539.99	2641.88
540.19	2553.82
540.39	2568.15
540.58	2680.79
540.78	2885.59
540.98	2799.57
541.18	2807.77
541.37	2643.93
541.57	2686.94
541.77	2707.41
541.97	2527.19
542.16	2488.28
542.36	2639.83
542.56	2664.41
542.76	2850.77
542.95	2818.00
543.15	2838.48
543.35	2799.57
543.54	2547.67
543.74	2531.29
543.94	2899.92
544.14	2625.50
544.33	2709.46
544.53	2572.25
544.73	2731.99
544.93	2631.64
545.12	2691.03
545.32	2697.17
545.52	2693.08
545.71	2516.95
545.91	2682.84
546.11	2643.93
546.30	2570.20
546.50	2727.89
546.70	2711.51
546.90	2709.46
547.09	2502.62
547.29	2695.13
547.49	2781.14
547.68	2625.50
547.88	2621.40
548.08	2822.10
548.27	3082.19
548.47	2648.02
548.67	2650.07
548.87	2815.96
549.06	2578.39
549.26	2691.03
549.46	2736.09
549.65	2668.50
549.85	2697.17
550.05	2711.51
550.24	2551.77
550.44	2731.99
550.64	2717.65
550.83	2598.87
551.03	2904.02
551.23	2906.07
551.42	2736.09
551.62	2627.54
551.82	2725.85
552.01	2705.37
552.21	2858.96
552.41	2619.35
552.60	2875.35
552.80	2762.71
553.00	2564.06
553.19	2742.23
553.39	3020.75
553.59	2602.97
553.78	2699.22
553.98	2629.59
554.17	2531.29
554.37	2760.66
554.57	2781.14
554.76	2566.10
554.96	2652.12
555.16	2643.93
555.35	2760.66
555.55	2760.66
555.75	2783.19
555.94	2852.82
556.14	2498.52
556.33	2680.79
556.53	2734.04
556.73	2709.46
556.92	2727.89
557.12	2758.61
557.32	3110.86
557.51	2867.16
557.71	2695.13
557.90	2885.59
558.10	2912.21
558.30	2635.74
558.49	2631.64
558.69	2688.98
558.88	2834.39
559.08	2693.08
559.28	2596.82
559.47	2635.74
559.67	2813.91
559.86	3020.75
560.06	2654.17
560.26	2652.12
560.45	2815.96
560.65	2750.42
560.84	2873.30
561.04	2562.01
561.24	2861.01
561.43	2605.02
561.63	2932.69
561.82	2670.55
562.02	2897.88
562.22	2559.96
562.41	2566.10
562.61	2594.78
562.80	2576.34
563.00	3129.30
563.19	2766.81
563.39	2674.65
563.59	2844.63
563.78	2525.15
563.98	2449.37
564.17	2584.54
564.37	2547.67
564.56	2738.13
564.76	2521.05
564.96	2752.47
565.15	2815.96
565.35	3074.00
565.54	2672.60
565.74	2789.33
565.93	2924.50
566.13	2727.89
566.32	2748.37
566.52	2770.90
566.71	2678.74
566.91	2811.86
567.11	2738.13
567.30	2514.91
567.50	2809.81
567.69	2736.09
567.89	2713.56
568.08	2559.96
568.28	2744.28
568.47	2519.00
568.67	2658.26
568.86	2611.16
569.06	2822.10
569.25	2686.94
569.45	2582.49
569.64	2615.26
569.84	2668.50
570.04	2791.38
570.23	2641.88
570.43	2645.98
570.62	2734.04
570.82	2875.35
571.01	2521.05
571.21	2633.69
571.40	2615.26
571.60	2858.96
571.79	2758.61
571.99	2600.92
572.18	2578.39
572.38	2887.64
572.57	2629.59
572.77	2748.37
572.96	3069.91
573.16	2686.94
573.35	2670.55
573.55	2809.81
573.74	2813.91
573.94	2762.71
574.13	2570.20
574.33	2858.96
574.52	2912.21
574.71	2775.00
574.91	2711.51
575.10	2557.91
575.30	2727.89
575.49	2582.49
575.69	2584.54
575.88	2697.17
576.08	2709.46
576.27	2922.45
576.47	2670.55
576.66	2820.05
576.86	2996.18
577.05	2693.08
577.25	2703.32
577.44	2916.31
577.64	2658.26
577.83	2875.35
578.02	2670.55
578.22	2811.86
578.41	2977.75
578.61	2686.94
578.80	2521.05
579.00	2686.94
579.19	2738.13
579.39	2770.90
579.58	2846.68
579.77	2576.34
579.97	2924.50
580.16	2944.98
580.36	2822.10
580.55	2752.47
580.75	2797.53
580.94	2723.80
581.13	2828.24
581.33	2932.69
581.52	2715.61
581.72	3039.19
581.91	2815.96
582.11	2645.98
582.30	2779.09
582.49	2789.33
582.69	2863.06
582.88	2779.09
583.08	2736.09
583.27	2910.16
583.47	2707.41
583.66	2637.78
583.85	2600.92
584.05	2693.08
584.24	2826.20
584.44	2713.56
584.63	2881.49
584.82	2944.98
585.02	2897.88
585.21	2791.38
585.41	2887.64
585.60	2815.96
585.79	2850.77
585.99	2953.17
586.18	2768.85
586.37	3547.08
586.57	5416.88
586.76	16033.55
586.96	35415.52
587.15	48520.48
587.34	56837.28
587.54	61000.80
587.73	54887.61
587.93	38780.34
588.12	29279.81
588.31	23869.08
588.51	21038.78
588.70	19347.16
588.89	17241.85
589.09	14749.47
589.28	12341.06
589.47	9809.77
589.67	7647.12
589.86	5840.81
590.06	4622.27
590.25	3923.91
590.44	3424.20
590.64	3065.81
590.83	3045.33
591.02	2936.79
591.22	2723.80
591.41	2699.22
591.60	2764.76
591.80	3117.01
591.99	2596.82
592.18	2695.13
592.38	2883.54
592.57	2609.11
592.76	2717.65
592.96	2772.95
593.15	2688.98
593.34	2953.17
593.54	2645.98
593.73	2775.00
593.92	2791.38
594.12	2856.92
594.31	2744.28
594.50	2838.48
594.70	2826.20
594.89	3166.16
595.08	2570.20
595.28	2793.43
595.47	3160.02
595.66	2838.48
595.86	2506.71
596.05	2605.02
596.24	2750.42
596.43	3006.42
596.63	2815.96
596.82	2781.14
597.01	2850.77
597.21	2981.84
597.40	2672.60
597.59	2648.02
597.79	2729.94
597.98	2863.06
598.17	2713.56
598.36	2738.13
598.56	2807.77
598.75	2629.59
598.94	2709.46
599.14	2707.41
599.33	2666.46
599.52	2858.96
599.71	2779.09
599.91	2746.33
600.10	2922.45
600.29	2688.98
600.48	2777.05
600.68	2766.81
600.87	2799.57
601.06	2703.32
601.26	2740.18
601.45	2775.00
601.64	2736.09
601.83	2963.41
602.03	2605.02
602.22	2621.40
602.41	2865.11
602.60	3119.06
602.80	2752.47
602.99	2832.34
603.18	2695.13
603.37	2828.24
603.57	2584.54
603.76	2772.95
603.95	2867.16
604.14	2725.85
604.34	2568.15
604.53	2688.98
604.72	2746.33
604.91	2897.88
605.10	2680.79
605.30	2533.34
605.49	3108.82
605.68	2805.72
605.87	2703.32
606.07	2613.21
606.26	2863.06
606.45	2768.85
606.64	2672.60
606.84	2643.93
607.03	2666.46
607.22	2899.92
607.41	2703.32
607.60	2570.20
607.80	2797.53
607.99	2740.18
608.18	2707.41
608.37	2660.31
608.56	2619.35
608.76	2891.73
608.95	2838.48
609.14	2693.08
609.33	2901.97
609.52	3016.66
609.72	2826.20
609.91	2789.33
610.10	2805.72
610.29	2883.54
610.48	2705.37
610.68	2832.34
610.87	2740.18
611.06	2877.40
611.25	2729.94
611.44	2828.24
611.63	2664.41
611.83	2963.41
612.02	2484.19
612.21	2918.36
612.40	2435.03
612.59	2555.86
612.79	2594.78
612.98	2789.33
613.17	2961.36
613.36	2713.56
613.55	2760.66
613.74	2668.50
613.93	2867.16
614.13	2906.07
614.32	2842.58
614.51	2813.91
614.70	2729.94
614.89	2746.33
615.08	2781.14
615.28	3143.63
615.47	2619.35
615.66	2844.63
615.85	2686.94
616.04	2881.49
616.23	2693.08
616.42	2686.94
616.62	2762.71
616.81	2703.32
617.00	2719.70
617.19	2779.09
617.38	2629.59
617.57	2699.22
617.76	2813.91
617.95	2805.72
618.15	2654.17
618.34	2801.62
618.53	2572.25
618.72	2875.35
618.91	2879.44
619.10	2865.11
619.29	2793.43
619.48	2760.66
619.68	2617.30
619.87	2641.88
620.06	2576.34
620.25	2760.66
620.44	2580.44
620.63	2623.45
620.82	2781.14
621.01	2713.56
621.20	2719.70
621.39	2754.52
621.59	2834.39
621.78	2705.37
621.97	2719.70
622.16	2736.09
622.35	2795.48
622.54	2867.16
622.73	2764.76
622.92	2412.51
623.11	2791.38
623.30	2727.89
623.49	2779.09
623.68	2519.00
623.88	2883.54
624.07	2699.22
624.26	2584.54
624.45	2748.37
624.64	2664.41
624.83	2846.68
625.02	2652.12
625.21	2682.84
625.40	2791.38
625.59	2865.11
625.78	2717.65
625.97	2723.80
626.16	2961.36
626.35	2848.72
626.54	2758.61
626.74	2830.29
626.93	2707.41
627.12	2707.41
627.31	2842.58
627.50	2713.56
627.69	2906.07
627.88	2611.16
628.07	2613.21
628.26	2451.42
628.45	2559.96
628.64	2588.63
628.83	2662.36
629.02	2596.82
629.21	2797.53
629.40	2744.28
629.59	2545.63
629.78	2596.82
629.97	2637.78
630.16	2742.23
630.35	2662.36
630.54	2578.39
630.73	2627.54
630.92	2742.23
631.11	2568.15
631.30	2676.70
631.49	2719.70
631.68	2668.50
631.87	2725.85
632.06	2576.34
632.25	3039.19
632.44	2801.62
632.63	2768.85
632.82	2617.30
633.01	2731.99
633.20	2762.71
633.39	2686.94
633.58	2494.43
633.77	2772.95
633.96	2846.68
634.15	2758.61
634.34	2695.13
634.53	2713.56
634.72	2629.59
634.91	2508.76
635.10	2707.41
635.29	2756.57
635.48	2715.61
635.67	2592.73
635.86	2504.67
636.05	2990.03
636.24	2723.80
636.43	2621.40
636.62	2674.65
636.81	2420.70
637.00	2734.04
637.19	2701.27
637.38	2693.08
637.57	2617.30
637.76	2717.65
637.95	2877.40
638.14	2703.32
638.33	2854.87
638.52	2740.18
638.71	2521.05
638.89	2557.91
639.08	3147.73
639.27	2869.20
639.46	2818.00
639.65	3102.67
639.84	3174.35
640.03	3299.28
640.22	3047.38
640.41	3149.78
640.60	2875.35
640.79	2916.31
640.98	2746.33
641.17	2924.50
641.36	2881.49
641.55	2887.64
641.74	2645.98
641.92	2633.69
642.11	2605.02
642.30	2707.41
642.49	2512.86
642.68	2629.59
642.87	2793.43
643.06	2928.60
643.25	2564.06
643.44	2551.77
643.63	2789.33
643.82	2795.48
644.00	2508.76
644.19	2654.17
644.38	2592.73
644.57	2768.85
644.76	2717.65
644.95	2717.65
645.14	2764.76
645.33	2762.71
645.52	2705.37
645.71	2484.19
645.89	2539.48
646.08	2611.16
646.27	2699.22
646.46	2844.63
646.65	2596.82
646.84	2662.36
647.03	2566.10
647.22	2772.95
647.40	2748.37
647.59	2695.13
647.78	2455.51
647.97	2553.82
648.16	2627.54
648.35	2934.74
648.54	2789.33
648.73	2639.83
648.91	2811.86
649.10	2748.37
649.29	2654.17
649.48	2553.82
649.67	2785.24
649.86	2734.04
650.05	2727.89
650.23	2828.24
650.42	2658.26
650.61	2947.03
650.80	2865.11
650.99	3035.09
651.18	2899.92
651.36	2840.53
651.55	2615.26
651.74	2746.33
651.93	2725.85
652.12	2762.71
652.31	2660.31
652.49	2654.17
652.68	2709.46
652.87	2940.88
653.06	2736.09
653.25	2879.44
653.44	2781.14
653.62	2987.99
653.81	2701.27
654.00	2672.60
654.19	2867.16
654.38	3119.06
654.56	2748.37
654.75	2672.60
654.94	2832.34
655.13	2664.41
655.32	2664.41
655.51	2723.80
655.69	2641.88
655.88	2740.18
656.07	2469.85
656.26	2705.37
656.45	2602.97
656.63	2731.99
656.82	2682.84
657.01	2789.33
657.20	2641.88
657.38	2899.92
657.57	2619.35
657.76	2551.77
657.95	2904.02
658.14	2602.97
658.32	2682.84
658.51	2490.33
658.70	2686.94
658.89	2680.79
659.08	2752.47
659.26	2846.68
659.45	2656.22
659.64	2867.16
659.83	2609.11
660.01	3090.38
660.20	2770.90
660.39	2934.74
660.58	2351.07
660.76	2779.09
660.95	2596.82
661.14	2725.85
661.33	2475.99
661.51	2566.10
661.70	2629.59
661.89	2721.75
662.08	2617.30
662.26	2559.96
662.45	2600.92
662.64	2944.98
662.83	2717.65
663.01	2598.87
663.20	2650.07
663.39	2897.88
663.58	2600.92
663.76	2637.78
663.95	2748.37
664.14	2539.48
664.32	2602.97
664.51	2480.09
664.70	2502.62
664.89	2754.52
665.07	2543.58
665.26	2793.43
665.45	2621.40
665.64	2799.57
665.82	2652.12
666.01	2701.27
666.20	2525.15
666.38	2801.62
666.57	2764.76
666.76	4272.06
666.95	10049.38
667.13	17039.10
667.32	21030.59
667.51	23748.25
667.69	25276.03
667.88	21698.23
668.07	15478.55
668.25	12953.40
668.44	10979.16
668.63	9518.96
668.81	8454.02
669.00	7247.76
669.19	6545.31
669.38	5685.16
669.56	4984.76
669.75	4259.78
669.94	3702.73
670.12	3184.59
670.31	3016.66
670.50	2899.92
670.68	2885.59
670.87	2783.19
671.06	2670.55
671.24	2715.61
671.43	2838.48
671.62	2748.37
671.80	2592.73
671.99	2758.61
672.18	2756.57
672.36	2842.58
672.55	2758.61
672.74	2703.32
672.92	2678.74
673.11	2805.72
673.29	2523.10
673.48	2721.75
673.67	2641.88
673.85	2873.30
674.04	2609.11
674.23	2791.38
674.41	3000.27
674.60	2441.18
674.79	2535.39
674.97	2568.15
675.16	2824.15
675.34	2908.12
675.53	2596.82
675.72	2670.55
675.90	2981.84
676.09	2680.79
676.28	2717.65
676.46	2523.10
676.65	2768.85
676.83	2613.21
677.02	2715.61
677.21	2703.32
677.39	2779.09
677.58	2572.25
677.77	2633.69
677.95	2506.71
678.14	2744.28
678.32	2693.08
678.51	2621.40
678.70	2969.55
678.88	2686.94
679.07	2770.90
679.25	2707.41
679.44	2701.27
679.63	2568.15
679.81	2715.61
680.00	2777.05
680.18	2731.99
680.37	2955.22
680.55	2756.57
680.74	2523.10
680.93	2471.90
681.11	2725.85
681.30	2742.23
681.48	2699.22
681.67	2643.93
681.85	2682.84
682.04	2564.06
682.23	2760.66
682.41	2723.80
682.60	2703.32
682.78	2717.65
682.97	2588.63
683.15	2656.22
683.34	2783.19
683.53	2957.27
683.71	2484.19
683.90	2809.81
684.08	2959.31
684.27	2629.59
684.45	2768.85
684.64	2779.09
684.82	2627.54
685.01	2731.99
685.19	2656.22
685.38	2850.77
685.57	2686.94
685.75	2607.06
685.94	2611.16
686.12	2553.82
686.31	2684.89
686.49	2934.74
686.68	2459.61
686.86	2695.13
687.05	2666.46
687.23	2832.34
687.42	2590.68
687.60	2498.52
687.79	2871.25
687.97	2967.51
688.16	2793.43
688.34	2789.33
688.53	2521.05
688.71	2772.95
688.90	2899.92
689.08	2666.46
689.27	2461.66
689.45	2838.48
689.64	2813.91
689.82	2740.18
690.01	2791.38
690.19	2813.91
690.38	2723.80
690.56	2787.29
690.75	2592.73
690.93	2629.59
691.12	2600.92
691.30	2625.50
691.49	2668.50
691.67	2678.74
691.86	2940.88
692.04	2588.63
692.23	2719.70
692.41	2715.61
692.60	2922.45
692.78	2832.34
692.97	2715.61
693.15	2697.17
693.34	2955.22
693.52	2797.53
693.71	2693.08
693.89	2607.06
694.08	2570.20
694.26	2793.43
694.44	2809.81
694.63	2856.92
694.81	2551.77
695.00	2570.20
695.18	2916.31
695.37	3067.86
695.55	2772.95
695.74	2723.80
695.92	2670.55
696.10	2938.84
696.29	2502.62
696.47	2502.62
696.66	2549.72
696.84	2553.82
697.03	2654.17
697.21	2930.64
697.40	4190.14
697.58	2897.88
697.76	2650.07
697.95	2543.58
698.13	2609.11
698.32	2705.37
698.50	2609.11
698.68	2697.17
698.87	2799.57
699.05	2926.55
699.24	2678.74
699.42	2586.58
699.61	2682.84
699.79	2701.27
699.97	2688.98
700.16	2541.53
700.34	2553.82
700.53	2779.09
700.71	2893.78
700.89	2746.33
701.08	2660.31
701.26	2715.61
701.45	3194.83
701.63	2580.44
701.81	2686.94
702.00	2645.98
702.18	2750.42
702.37	2629.59
702.55	2932.69
702.73	2805.72
702.92	2645.98
703.10	2951.12
703.28	2815.96
703.47	2652.12
703.65	2830.29
703.84	2822.10
704.02	2684.89
704.20	2951.12
704.39	2555.86
704.57	2594.78
704.75	2863.06
704.94	2770.90
705.12	2754.52
705.30	3088.34
705.49	5812.14
705.67	11886.41
705.86	17721.07
706.04	20516.55
706.22	22810.28
706.41	22539.94
706.59	17729.27
706.77	13305.65
706.96	11444.05
707.14	10243.94
707.32	8918.90
707.51	7862.15
707.69	6528.92
707.87	5375.92
708.06	4433.85
708.24	3819.46
708.42	3383.24
708.61	3426.25
708.79	2779.09
708.97	2805.72
709.16	2809.81
709.34	2777.05
709.52	2633.69
709.71	2705.37
709.89	2824.15
710.07	2602.97
710.26	2529.24
710.44	2676.70
710.62	2830.29
710.80	2746.33
710.99	2795.48
711.17	2723.80
711.35	2629.59
711.54	2578.39
711.72	2803.67
711.90	2719.70
712.09	2736.09
712.27	2602.97
712.45	2846.68
712.63	2529.24
712.82	2701.27
713.00	2738.13
713.18	2805.72
713.37	2856.92
713.55	2910.16
713.73	2742.23
713.91	2764.76
714.10	2656.22
714.28	2631.64
714.46	2809.81
714.65	2707.41
714.83	2650.07
715.01	2711.51
715.19	2727.89
715.38	2541.53
715.56	2752.47
715.74	2664.41
715.92	2586.58
716.11	2822.10
716.29	2482.14
716.47	2633.69
716.65	2592.73
716.84	2519.00
717.02	2787.29
717.20	2475.99
717.38	2605.02
717.57	2787.29
717.75	2680.79
717.93	2668.50
718.11	2727.89
718.30	2566.10
718.48	2701.27
718.66	2861.01
718.84	2885.59
719.03	2598.87
719.21	2506.71
719.39	2992.08
719.57	2717.65
719.75	2740.18
719.94	2547.67
720.12	2574.30
720.30	2629.59
720.48	2789.33
720.67	2605.02
720.85	2635.74
721.03	2641.88
721.21	2525.15
721.39	2758.61
721.58	2768.85
721.76	2613.21
721.94	2768.85
722.12	2777.05
722.30	2977.75
722.49	2660.31
722.67	2693.08
722.85	2723.80
723.03	2492.38
723.21	2607.06
723.40	2699.22
723.58	2781.14
723.76	2762.71
723.94	2844.63
724.12	2752.47
724.30	2838.48
724.49	2924.50
724.67	2512.86
724.85	2828.24
725.03	2525.15
725.21	2846.68
725.40	2897.88
725.58	2615.26
725.76	2889.68
725.94	2809.81
726.12	2568.15
726.30	2666.46
726.49	2578.39
726.67	2664.41
726.85	2709.46
727.03	3045.33
727.21	4138.94
727.39	5154.74
727.57	5652.39
727.76	6168.48
727.94	6182.82
728.12	5484.46
728.30	4667.32
728.48	4308.93
728.66	3932.10
728.84	3772.36
729.03	3254.22
729.21	3182.54
729.39	2926.55
729.57	2824.15
729.75	2801.62
729.93	2852.82
730.11	2551.77
730.30	2701.27
730.48	2744.28
730.66	2787.29
730.84	2854.87
731.02	2678.74
731.20	2645.98
731.38	2754.52
731.56	2598.87
731.74	2566.10
731.93	2828.24
732.11	2648.02
732.29	2729.94
732.47	2756.57
732.65	2746.33
732.83	2850.77
733.01	2764.76
733.19	2617.30
733.37	2793.43
733.56	2707.41
733.74	2600.92
733.92	2920.40
734.10	2707.41
734.28	2686.94
734.46	2562.01
734.64	2660.31
734.82	2658.26
735.00	2666.46
735.18	2668.50
735.36	2711.51
735.54	2645.98
735.73	2688.98
735.91	2772.95
736.09	2891.73
736.27	2701.27
736.45	2723.80
736.63	2437.08
736.81	2684.89
736.99	2799.57
737.17	2844.63
737.35	2590.68
737.53	2707.41
737.71	2688.98
737.89	2787.29
738.07	2625.50
738.25	2680.79
738.43	2512.86
738.61	2645.98
738.80	2590.68
738.98	2625.50
739.16	2660.31
739.34	2609.11
739.52	2910.16
739.70	2727.89
739.88	2752.47
740.06	2801.62
740.24	2398.17
740.42	2897.88
740.60	2420.70
740.78	2639.83
740.96	2349.02
741.14	2625.50
741.32	2809.81
741.50	2498.52
741.68	2879.44
741.86	2932.69
742.04	2586.58
742.22	2617.30
742.40	2623.45
742.58	2781.14
742.76	2594.78
742.94	2813.91
743.12	2531.29
743.30	2701.27
743.48	2785.24
743.66	2621.40
743.84	2713.56
744.02	2703.32
744.20	2793.43
744.38	2574.30
744.56	2625.50
744.74	2944.98
744.92	2856.92
745.10	2908.12
745.28	2738.13
745.46	2944.98
745.64	2723.80
745.82	2754.52
746.00	2650.07
746.18	2709.46
746.36	2652.12
746.54	2717.65
746.72	2621.40
746.90	2574.30
747.08	2908.12
747.26	2654.17
747.44	2873.30
747.62	2846.68
747.80	2789.33
747.98	2781.14
748.15	2615.26
748.33	2957.27
748.51	2697.17
748.69	2711.51
748.87	2514.91
749.05	2662.36
749.23	2656.22
749.41	2693.08
749.59	2656.22
749.77	2914.26
749.95	2525.15
750.13	2605.02
750.31	2738.13
750.49	2734.04
750.67	2815.96
750.85	2828.24
751.03	2723.80
751.20	3051.47
751.38	2723.80
751.56	2672.60
751.74	2723.80
751.92	2725.85
752.10	2607.06
752.28	2793.43
752.46	2545.63
752.64	2645.98
752.82	2654.17
753.00	2717.65
753.18	2580.44
753.35	2666.46
753.53	2676.70
753.71	2572.25
753.89	2842.58
754.07	2734.04
754.25	2842.58
754.43	2719.70
754.61	2531.29
754.79	2836.44
754.97	2682.84
755.14	2881.49
755.32	2531.29
755.50	2703.32
755.68	2752.47
755.86	2533.34
756.04	2564.06
756.22	2330.59
756.40	2844.63
756.57	2879.44
756.75	2525.15
756.93	2809.81
757.11	2781.14
757.29	2539.48
757.47	2545.63
757.65	2516.95
757.82	2375.64
758.00	2498.52
758.18	2615.26
758.36	2580.44
758.54	3033.04
758.72	2480.09
758.90	2678.74
759.07	2820.05
759.25	2596.82
759.43	2715.61
759.61	2508.76
759.79	3930.05
759.97	2815.96
760.15	2668.50
760.32	2607.06
760.50	2832.34
760.68	2957.27
760.86	2525.15
761.04	2836.44
761.22	2865.11
761.39	2631.64
761.57	2775.00
761.75	2684.89
761.93	2758.61
762.11	2693.08
762.28	2648.02
762.46	2541.53
762.64	2830.29
762.82	2525.15
763.00	2621.40
763.18	2805.72
763.35	2494.43
763.53	2834.39
763.71	2676.70
763.89	2693.08
764.07	2695.13
764.24	2734.04
764.42	2777.05
764.60	2627.54
764.78	2777.05
764.96	2744.28
765.13	2791.38
765.31	2566.10
765.49	2818.00
765.67	2584.54
765.84	2637.78
766.02	2570.20
766.20	2502.62
766.38	2727.89
766.56	2801.62
766.73	2736.09
766.91	2736.09
767.09	2729.94
767.27	2752.47
767.44	2562.01
767.62	2803.67
767.80	2688.98
767.98	2539.48
768.15	2543.58
768.33	2824.15
768.51	2801.62
768.69	2863.06
768.87	2650.07
769.04	2744.28
769.22	3100.62
769.40	2787.29
769.58	2844.63
769.75	2783.19
769.93	2901.97
770.11	2648.02
770.28	2484.19
770.46	2842.58
770.64	2805.72
770.82	2656.22
770.99	2596.82
771.17	2822.10
771.35	2643.93
771.53	2760.66
771.70	2570.20
771.88	2777.05
772.06	2656.22
772.23	2697.17
772.41	2707.41
772.59	2660.31
772.77	2570.20
772.94	2643.93
773.12	2705.37
773.30	2635.74
773.47	2805.72
773.65	2551.77
773.83	2820.05
774.01	2729.94
774.18	2455.51
774.36	2662.36
774.54	2533.34
774.71	2807.77
774.89	2502.62
775.07	2602.97
775.24	2555.86
775.42	2695.13
775.60	2998.23
775.78	2564.06
775.95	2500.57
776.13	2519.00
776.31	2506.71
776.48	2717.65
776.66	2785.24
776.84	2717.65
777.01	2590.68
777.19	2539.48
777.37	2559.96
777.54	2795.48
777.72	2959.31
777.90	2731.99
778.07	2605.02
778.25	3217.36
778.43	2768.85
778.60	2631.64
778.78	2758.61
778.96	2936.79
779.13	2564.06
779.31	2742.23
779.49	2635.74
779.66	2727.89
779.84	2656.22
780.01	2631.64
780.19	2529.24
780.37	2867.16
780.54	2795.48
780.72	2572.25
780.90	2613.21
781.07	2641.88
781.25	2648.02
781.43	2752.47
781.60	2584.54
781.78	2895.83
781.95	2764.76
782.13	2576.34
782.31	2736.09
782.48	2475.99
782.66	2756.57
782.83	2861.01
783.01	2729.94
783.19	2885.59
783.36	2678.74
783.54	2432.99
783.72	2748.37
783.89	2725.85
784.07	2752.47
784.24	2805.72
784.42	2824.15
784.60	2709.46
784.77	2777.05
784.95	2392.03
785.12	2621.40
785.30	2693.08
785.47	2602.97
785.65	2545.63
785.83	2623.45
786.00	2684.89
786.18	2748.37
786.35	2576.34
786.53	2478.04
786.71	2840.53
786.88	2723.80
787.06	2742.23
787.23	2645.98
787.41	2576.34
787.58	2637.78
787.76	2588.63
787.94	2693.08
788.11	2715.61
788.29	2529.24
788.46	2605.02
788.64	2490.33
788.81	2637.78
788.99	2656.22
789.16	2594.78
789.34	2711.51
789.52	2662.36
789.69	2625.50
789.87	2447.32
790.04	2580.44
790.22	2676.70
790.39	3014.61
790.57	2551.77
790.74	2535.39
790.92	2840.53
791.09	2447.32
791.27	2713.56
791.44	2809.81
791.62	2707.41
791.79	2813.91
791.97	2703.32
792.15	3014.61
792.32	2797.53
792.50	2764.76
792.67	2795.48
792.85	2836.44
793.02	2752.47
793.20	2602.97
793.37	2582.49
793.55	2691.03
793.72	2537.43
793.90	2719.70
794.07	2625.50
794.25	2580.44
794.42	2709.46
794.60	2719.70
794.77	2662.36
794.95	2811.86
795.12	2754.52
795.30	2613.21
795.47	2441.18
795.65	2959.31
795.82	2809.81
796.00	2572.25
796.17	2594.78
796.34	2455.51
796.52	2746.33
796.69	2926.55
796.87	2775.00
797.04	2746.33
797.22	2797.53
797.39	2729.94
797.57	2779.09
797.74	2693.08
797.92	2809.81
798.09	2598.87
798.27	2822.10
798.44	2633.69
798.62	2637.78
798.79	2750.42
798.96	2750.42
799.14	2654.17
799.31	2969.55
799.49	2678.74
799.66	2686.94
799.84	2736.09
800.01	2533.34
800.19	2734.04
800.36	2519.00
800.53	2635.74
800.71	2844.63
800.88	3002.32
801.06	2605.02
801.23	2650.07
801.41	2617.30
801.58	2588.63
801.75	2609.11
801.93	2752.47
802.10	2803.67
802.28	2666.46
802.45	2686.94
802.63	2750.42
802.80	2947.03
802.97	2686.94
803.15	2613.21
803.32	2633.69
803.50	2631.64
803.67	2580.44
803.84	2574.30
804.02	2658.26
804.19	2629.59
804.37	2471.90
804.54	2543.58
804.71	2617.30
804.89	2703.32
805.06	2584.54
805.24	2574.30
805.41	2555.86
805.58	2691.03
805.76	3067.86
805.93	2650.07
806.10	2766.81
806.28	2756.57
806.45	2721.75
806.63	2809.81
806.80	2750.42
806.97	2783.19
807.15	2734.04
807.32	2711.51
807.49	2672.60
807.67	2580.44
807.84	2801.62
808.01	2465.75
808.19	2932.69
808.36	3002.32
808.54	2707.41
808.71	2557.91
808.88	2527.19
809.06	2846.68
809.23	2916.31
809.40	2627.54
809.58	2613.21
809.75	2701.27
809.92	2609.11
810.10	2848.72
810.27	2672.60
810.44	2705.37
810.62	2807.77
810.79	2723.80
810.96	2611.16
811.14	2609.11
811.31	2791.38
811.48	2799.57
811.66	2627.54
811.83	2867.16
812.00	2822.10
812.18	2719.70
812.35	3043.28
812.52	2688.98
812.69	2680.79
812.87	2559.96
813.04	2627.54
813.21	2744.28
813.39	2609.11
813.56	2547.67
813.73	2840.53
813.91	2527.19
814.08	2727.89
814.25	2736.09
814.42	2473.95
814.60	2625.50
814.77	2772.95
814.94	2633.69
815.12	2682.84
815.29	2912.21
815.46	2572.25
815.63	2662.36
815.81	2625.50
815.98	2676.70
816.15	2682.84
816.33	2678.74
816.50	2627.54
816.67	2658.26
816.84	2736.09
817.02	2541.53
817.19	2654.17
817.36	2801.62
817.53	2758.61
817.71	2650.07
817.88	2688.98
818.05	2615.26
818.22	2672.60
818.40	2805.72
818.57	2639.83
818.74	2772.95
818.91	2813.91
819.09	2762.71
819.26	2746.33
819.43	2617.30
819.60	2594.78
819.78	2768.85
819.95	2748.37
820.12	2625.50
820.29	2879.44
820.47	2852.82
820.64	2584.54
820.81	2457.56
820.98	2580.44
821.15	2658.26
821.33	2727.89
821.50	2473.95
821.67	2826.20
821.84	2621.40
822.02	2742.23
822.19	2863.06
822.36	2711.51
822.53	2650.07
822.70	2523.10
822.88	2637.78
823.05	2947.03
823.22	2629.59
823.39	2691.03
823.56	2750.42
823.74	2944.98
823.91	2598.87
824.08	2586.58
824.25	2637.78
824.42	3037.14
824.60	2428.89
824.77	2727.89
824.94	2674.65
825.11	2785.24
825.28	2412.51
825.45	2682.84
825.63	2746.33
825.80	2629.59
825.97	2711.51
826.14	2719.70
826.31	2598.87
826.48	2811.86
826.66	2619.35
826.83	2594.78
827.00	2613.21
827.17	2527.19
827.34	2592.73
827.51	2623.45
827.69	2666.46
827.86	2539.48
828.03	2652.12
828.20	2758.61
828.37	2596.82
828.54	2795.48
828.71	2588.63
828.89	2779.09
829.06	2740.18
829.23	2932.69
829.40	2594.78
829.57	2625.50
829.74	2756.57
829.91	2686.94
830.09	2594.78
830.26	2785.24
830.43	3016.66
830.60	2697.17
830.77	2727.89
830.94	2830.29
831.11	2793.43
831.28	2635.74
831.46	2863.06
831.63	2570.20
831.80	2795.48
831.97	2645.98
832.14	2637.78
832.31	2625.50
832.48	2693.08
832.65	2889.68
832.82	2758.61
832.99	2764.76
833.17	2564.06
833.34	2969.55
833.51	2674.65
833.68	2404.32
833.85	2854.87
834.02	2635.74
834.19	2523.10
834.36	2559.96
834.53	2721.75
834.70	2785.24
834.87	2662.36
835.04	2508.76
835.22	2600.92
835.39	2707.41
835.56	2516.95
835.73	2631.64
835.90	2873.30
836.07	2578.39
836.24	2750.42
836.41	2465.75
836.58	2576.34
836.75	2887.64
836.92	2580.44
837.09	2506.71
837.26	2820.05
837.43	2781.14
837.60	2654.17
837.77	2635.74
837.94	2772.95
838.12	2850.77
838.29	2482.14
838.46	2394.08
838.63	2562.01
838.80	2932.69
838.97	2629.59
839.14	2607.06
839.31	2781.14
839.48	2865.11
839.65	2523.10
839.82	2705.37
839.99	2785.24
840.16	2709.46
840.33	2521.05
840.50	2596.82
840.67	2674.65
840.84	2293.72
841.01	2533.34
841.18	2506.71
841.35	2731.99
841.52	2818.00
841.69	2852.82
841.86	2611.16
842.03	2680.79
842.20	2783.19
842.37	2529.24
842.54	2600.92
842.71	2764.76
842.88	2506.71
843.05	2617.30
843.22	2547.67
843.39	2785.24
843.56	2615.26
843.73	2598.87
843.90	2605.02
844.07	2754.52
844.24	2854.87
844.41	2633.69
844.58	2641.88
844.75	2697.17
844.92	2787.29
845.09	2600.92
845.26	2576.34
845.43	2748.37
845.60	2686.94
845.77	2719.70
845.94	2619.35
846.10	2801.62
846.27	2437.08
846.44	2494.43
846.61	2445.27
846.78	2777.05
846.95	2832.34
847.12	2568.15
847.29	2559.96
847.46	2543.58
847.63	2797.53
847.80	2475.99
847.97	2566.10
848.14	3053.52
848.31	2748.37
848.48	2408.41
848.65	2547.67
848.82	2557.91
848.98	3119.06
849.15	2666.46
849.32	2682.84
849.49	2758.61
849.66	2703.32
849.83	2551.77
850.00	2475.99
850.17	2815.96
850.34	2674.65
850.51	2410.46
850.68	2531.29
850.85	3000.27
851.01	2707.41
851.18	2521.05
851.35	2572.25
851.52	2777.05
851.69	3002.32
851.86	2475.99
852.03	2471.90
852.20	2740.18
852.37	2674.65
852.53	2389.98
852.70	2523.10
852.87	2797.53
853.04	2809.81
853.21	2656.22
853.38	2688.98
853.55	2914.26
853.72	2832.34
853.89	2510.81
854.05	2568.15
854.22	2686.94
854.39	2736.09
854.56	2545.63
854.73	2729.94
854.90	2566.10
855.07	2568.15
855.23	2467.80
855.40	2537.43
855.57	2693.08
855.74	2471.90
855.91	2713.56
856.08	2453.47
856.25	2496.47
856.41	2619.35
856.58	2594.78
856.75	2586.58
856.92	2543.58
857.09	2801.62
857.26	2443.23
857.42	2531.29
857.59	2873.30
857.76	2619.35
857.93	2562.01
858.10	2725.85
858.27	2596.82
858.43	2721.75
858.60	2566.10
858.77	2471.90
858.94	2566.10
859.11	2832.34
859.27	2611.16
859.44	2516.95
859.61	2906.07
859.78	2805.72
859.95	2582.49
860.12	2500.57
860.28	3020.75
860.45	3043.28
860.62	2527.19
860.79	2588.63
860.95	2736.09
861.12	2586.58
861.29	2570.20
861.46	2523.10
861.63	2674.65
861.79	2756.57
861.96	2523.10
862.13	2582.49
862.30	2846.68
862.47	2553.82
862.63	2467.80
862.80	2648.02
862.97	2842.58
863.14	2830.29
863.30	2557.91
863.47	2564.06
863.64	2920.40
863.81	2766.81
863.97	2523.10
864.14	2576.34
864.31	2676.70
864.48	2688.98
864.65	2502.62
864.81	2723.80
864.98	2830.29
865.15	2824.15
865.32	2676.70
865.48	2660.31
865.65	2926.55
865.82	2654.17
865.98	2576.34
866.15	2641.88
866.32	2678.74
866.49	2602.97
866.65	2627.54
866.82	2543.58
866.99	2678.74
867.16	2596.82
867.32	2559.96
867.49	2533.34
867.66	2645.98
867.83	2490.33
867.99	2353.12
868.16	2564.06
868.33	2537.43
868.49	2742.23
868.66	2496.47
868.83	2715.61
868.99	2633.69
869.16	2736.09
869.33	2772.95
869.50	2623.45
869.66	2648.02
869.83	2654.17
870.00	2416.60
870.16	2674.65
870.33	2658.26
870.50	2797.53
870.66	2600.92
870.83	2650.07
871.00	2688.98
871.17	2740.18
871.33	2602.97
871.50	2504.67
871.67	2678.74
871.83	2568.15
872.00	2629.59
872.17	2492.38
872.33	2891.73
872.50	2906.07
872.67	2574.30
872.83	2551.77
873.00	2797.53
873.17	2676.70
873.33	2652.12
873.50	2664.41
873.67	2623.45
873.83	2594.78
874.00	2539.48
874.16	2762.71
874.33	2707.41
874.50	2539.48
874.66	2500.57
874.83	2668.50
875.00	2858.96
875.16	2879.44
875.33	2680.79
875.50	2363.36
875.66	2590.68
875.83	2768.85
875.99	2584.54
876.16	2658.26
876.33	2609.11
876.49	2713.56
876.66	2652.12
876.83	2635.74
876.99	2512.86
877.16	2711.51
877.32	2435.03
877.49	2605.02
877.66	2717.65
877.82	2959.31
877.99	2590.68
878.15	2691.03
878.32	2775.00
878.49	2682.84
878.65	2568.15
878.82	2709.46
878.98	2658.26
879.15	2824.15
879.32	2686.94
879.48	2666.46
879.65	2695.13
879.81	2645.98
879.98	2600.92
880.15	2586.58
880.31	2865.11
880.48	2547.67
880.64	2670.55
880.81	2680.79
880.97	2930.64
881.14	2820.05
881.31	2418.65
881.47	2789.33
881.64	2711.51
881.80	2406.36
881.97	2648.02
882.13	2568.15
882.30	2572.25
882.47	2605.02
882.63	2559.96
882.80	2549.72
882.96	2635.74
883.13	2936.79
883.29	2564.06
883.46	2549.72
883.62	3006.42
883.79	2748.37
883.95	2758.61
884.12	2576.34
884.29	2838.48
884.45	2785.24
884.62	2627.54
884.78	2516.95
884.95	2973.65
885.11	2572.25
885.28	2621.40
885.44	2590.68
885.61	2752.47
885.77	2912.21
885.94	2656.22
886.10	2555.86
886.27	2713.56
886.43	2994.13
886.60	2799.57
886.76	2521.05
886.93	2451.42
887.09	2756.57
887.26	2437.08
887.42	2658.26
887.59	2867.16
887.75	3033.04
887.92	2707.41
888.08	2658.26
888.25	2979.79
888.41	2865.11
888.58	2588.63
888.74	2463.71
888.91	2652.12
>>>>>End Processed Spectral Data<<<<<
