SpectraSuite Data File
++++++++++++++++++++++++++++++++++++
Date: Thu May 05 16:21:06 CEST 2016
User: root
Dark Spectrum Present: No
Reference Spectrum Present: No
Number of Sampled Component Spectra: 1
Spectrometers: USB4C02835
Integration Time (usec): 100000 (USB4C02835)
Spectra Averaged: 1 (USB4C02835)
Boxcar Smoothing: 0 (USB4C02835)
Correct for Electrical Dark: No (USB4C02835)
Strobe/Lamp Enabled: No (USB4C02835)
Correct for Detector Non-linearity: No (USB4C02835)
Correct for Stray Light: No (USB4C02835)
Number of Pixels in Processed Spectrum: 3648
>>>>>Begin Processed Spectral Data<<<<<
177.47	2097.12
177.69	2097.12
177.91	2097.12
178.13	2023.39
178.36	2035.68
178.58	2535.39
178.80	2705.37
179.02	2576.34
179.24	2592.73
179.46	2447.32
179.68	2580.44
179.90	2686.94
180.13	2738.13
180.35	2416.60
180.57	2500.57
180.79	2818.00
181.01	2746.33
181.23	2551.77
181.45	2615.26
181.67	2711.51
181.90	2922.45
182.12	2564.06
182.34	2443.23
182.56	2883.54
182.78	2717.65
183.00	2490.33
183.22	2519.00
183.44	2451.42
183.66	3131.34
183.89	2594.78
184.11	2469.85
184.33	2772.95
184.55	2930.64
184.77	2463.71
184.99	2572.25
185.21	2609.11
185.43	2992.08
185.65	2529.24
185.87	2439.13
186.10	3092.43
186.32	3098.58
186.54	2605.02
186.76	2623.45
186.98	2840.53
187.20	2752.47
187.42	2521.05
187.64	2553.82
187.86	2793.43
188.08	2899.92
188.30	2418.65
188.52	2553.82
188.75	2836.44
188.97	2963.41
189.19	2578.39
189.41	2486.23
189.63	2824.15
189.85	2660.31
190.07	2432.99
190.29	2459.61
190.51	2789.33
190.73	2510.81
190.95	2691.03
191.17	2557.91
191.39	2570.20
191.61	2666.46
191.84	2553.82
192.06	2578.39
192.28	2525.15
192.50	3205.07
192.72	2684.89
192.94	2588.63
193.16	2961.36
193.38	2789.33
193.60	2457.56
193.82	2519.00
194.04	2840.53
194.26	2752.47
194.48	2478.04
194.70	2512.86
194.92	2648.02
195.14	2783.19
195.36	2465.75
195.58	2519.00
195.80	2754.52
196.02	2670.55
196.24	2463.71
196.46	2596.82
196.69	2625.50
196.91	3074.00
197.13	2572.25
197.35	2498.52
197.57	2895.83
197.79	2834.39
198.01	2514.91
198.23	2564.06
198.45	2785.24
198.67	2562.01
198.89	2430.94
199.11	2602.97
199.33	2600.92
199.55	2461.66
199.77	2533.34
199.99	2617.30
200.21	2643.93
200.43	2705.37
200.65	2451.42
200.87	2316.25
201.09	2703.32
201.31	2674.65
201.53	2559.96
201.75	2639.83
201.97	2742.23
202.19	2721.75
202.41	2619.35
202.63	2666.46
202.85	2883.54
203.07	2727.89
203.29	2572.25
203.51	2430.94
203.73	2619.35
203.95	3074.00
204.17	2437.08
204.39	2697.17
204.61	2713.56
204.83	2631.64
205.05	2723.80
205.27	2504.67
205.49	3037.14
205.71	2729.94
205.93	2457.56
206.15	2426.84
206.37	2701.27
206.59	2742.23
206.81	2465.75
207.03	2410.46
207.25	2600.92
207.47	2826.20
207.69	2574.30
207.91	2748.37
208.13	2969.55
208.34	2551.77
208.56	2365.40
208.78	2588.63
209.00	2660.31
209.22	2701.27
209.44	2506.71
209.66	2506.71
209.88	2766.81
210.10	2650.07
210.32	2480.09
210.54	2578.39
210.76	2654.17
210.98	2789.33
211.20	2318.30
211.42	2607.06
211.64	2914.26
211.86	2760.66
212.08	2621.40
212.30	2529.24
212.52	2719.70
212.74	2930.64
212.96	2568.15
213.17	2570.20
213.39	2858.96
213.61	2924.50
213.83	2537.43
214.05	2428.89
214.27	2904.02
214.49	2703.32
214.71	2426.84
214.93	2598.87
215.15	2686.94
215.37	2846.68
215.59	2365.40
215.81	2543.58
216.03	2965.46
216.24	2766.81
216.46	2492.38
216.68	2586.58
216.90	2838.48
217.12	2955.22
217.34	2418.65
217.56	2656.22
217.78	2916.31
218.00	2764.76
218.22	2568.15
218.44	2611.16
218.66	2697.17
218.87	2924.50
219.09	2467.80
219.31	2592.73
219.53	2734.04
219.75	2639.83
219.97	2576.34
220.19	2539.48
220.41	2703.32
220.63	2942.93
220.85	2486.23
221.06	2531.29
221.28	2947.03
221.50	2793.43
221.72	2547.67
221.94	2449.37
222.16	2793.43
222.38	2781.14
222.60	2533.34
222.82	2572.25
223.03	2877.40
223.25	2547.67
223.47	2531.29
223.69	2725.85
223.91	2826.20
224.13	2744.28
224.35	2494.43
224.57	2588.63
224.78	2795.48
225.00	2566.10
225.22	2666.46
225.44	2498.52
225.66	2889.68
225.88	2670.55
226.10	2637.78
226.32	2527.19
226.53	2990.03
226.75	2672.60
226.97	2598.87
227.19	2459.61
227.41	2623.45
227.63	2676.70
227.85	2314.20
228.06	2564.06
228.28	2701.27
228.50	2846.68
228.72	2410.46
228.94	2455.51
229.16	2510.81
229.37	2578.39
229.59	2414.56
229.81	2736.09
230.03	2650.07
230.25	2572.25
230.47	2402.27
230.69	2420.70
230.90	2904.02
231.12	2648.02
231.34	2549.72
231.56	2607.06
231.78	2602.97
232.00	2723.80
232.21	2447.32
232.43	2580.44
232.65	2424.80
232.87	2809.81
233.09	2424.80
233.30	2512.86
233.52	2836.44
233.74	2760.66
233.96	2465.75
234.18	2609.11
234.40	2736.09
234.61	3061.71
234.83	2469.85
235.05	2469.85
235.27	3092.43
235.49	2867.16
235.70	2465.75
235.92	2576.34
236.14	2734.04
236.36	3078.10
236.58	2414.56
236.79	2607.06
237.01	2734.04
237.23	2641.88
237.45	2717.65
237.67	2435.03
237.88	2764.76
238.10	3026.90
238.32	2424.80
238.54	2584.54
238.76	2707.41
238.97	2621.40
239.19	2432.99
239.41	2617.30
239.63	2869.20
239.85	2648.02
240.06	2537.43
240.28	2545.63
240.50	2783.19
240.72	2684.89
240.93	2404.32
241.15	2598.87
241.37	2711.51
241.59	2916.31
241.81	2475.99
242.02	2594.78
242.24	2775.00
242.46	2799.57
242.68	2439.13
242.89	2553.82
243.11	2881.49
243.33	2635.74
243.55	2529.24
243.76	2582.49
243.98	2662.36
244.20	2777.05
244.42	2580.44
244.64	2590.68
244.85	2521.05
245.07	2586.58
245.29	2492.38
245.51	2531.29
245.72	2768.85
245.94	2893.78
246.16	2498.52
246.38	2512.86
246.59	2748.37
246.81	2639.83
247.03	2469.85
247.24	2371.55
247.46	2596.82
247.68	2727.89
247.90	2490.33
248.11	2543.58
248.33	2856.92
248.55	2779.09
248.77	2559.96
248.98	2531.29
249.20	2912.21
249.42	2750.42
249.64	2482.14
249.85	2492.38
250.07	2670.55
250.29	2809.81
250.50	2619.35
250.72	2418.65
250.94	2807.77
251.16	3041.23
251.37	2459.61
251.59	2557.91
251.81	2758.61
252.02	2875.35
252.24	2445.27
252.46	2652.12
252.68	2676.70
252.89	2629.59
253.11	2404.32
253.33	2668.50
253.54	2867.16
253.76	2557.91
253.98	2541.53
254.20	2494.43
254.41	2543.58
254.63	2666.46
254.85	2422.75
255.06	2543.58
255.28	2783.19
255.50	2680.79
255.71	2496.47
255.93	2363.36
256.15	2731.99
256.36	2799.57
256.58	2400.22
256.80	2496.47
257.02	2609.11
257.23	2768.85
257.45	2533.34
257.67	2629.59
257.88	2623.45
258.10	2719.70
258.32	2535.39
258.53	2645.98
258.75	3018.71
258.97	2672.60
259.18	2494.43
259.40	2506.71
259.62	2996.18
259.83	2914.26
260.05	2514.91
260.27	3139.54
260.48	2828.24
260.70	2551.77
260.92	2482.14
261.13	2510.81
261.35	2723.80
261.57	2719.70
261.78	2422.75
262.00	2512.86
262.22	2885.59
262.43	2574.30
262.65	2506.71
262.86	2572.25
263.08	3061.71
263.30	2723.80
263.51	2373.60
263.73	2478.04
263.95	2930.64
264.16	2590.68
264.38	2447.32
264.60	2504.67
264.81	2697.17
265.03	2959.31
265.25	2752.47
265.46	2533.34
265.68	2899.92
265.89	2801.62
266.11	2414.56
266.33	2535.39
266.54	2869.20
266.76	2715.61
266.98	2605.02
267.19	2764.76
267.41	2897.88
267.62	2758.61
267.84	2367.45
268.06	2635.74
268.27	2729.94
268.49	2914.26
268.70	2551.77
268.92	2533.34
269.14	2588.63
269.35	2533.34
269.57	2598.87
269.79	2645.98
270.00	2678.74
270.22	2979.79
270.43	2496.47
270.65	2295.77
270.87	2826.20
271.08	2824.15
271.30	2658.26
271.51	2578.39
271.73	2818.00
271.95	2881.49
272.16	2521.05
272.38	2617.30
272.59	2666.46
272.81	2811.86
273.02	2519.00
273.24	2588.63
273.46	2830.29
273.67	2562.01
273.89	2426.84
274.10	2508.76
274.32	2856.92
274.54	2770.90
274.75	2580.44
274.97	2545.63
275.18	2750.42
275.40	2875.35
275.61	2519.00
275.83	2672.60
276.05	2557.91
276.26	2795.48
276.48	2535.39
276.69	2619.35
276.91	2625.50
277.12	2863.06
277.34	2637.78
277.55	2766.81
277.77	2762.71
277.99	2674.65
278.20	2543.58
278.42	2537.43
278.63	2564.06
278.85	2580.44
279.06	2521.05
279.28	2621.40
279.49	2897.88
279.71	2783.19
279.93	2699.22
280.14	2672.60
280.36	2580.44
280.57	2856.92
280.79	2652.12
281.00	2541.53
281.22	2609.11
281.43	2944.98
281.65	2437.08
281.86	2537.43
282.08	2760.66
282.29	2936.79
282.51	2453.47
282.73	2514.91
282.94	2498.52
283.16	2772.95
283.37	2752.47
283.59	2555.86
283.80	2785.24
284.02	2758.61
284.23	2572.25
284.45	2564.06
284.66	2578.39
284.88	2637.78
285.09	2582.49
285.31	2699.22
285.52	2727.89
285.74	2531.29
285.95	2768.85
286.17	2611.16
286.38	2818.00
286.60	2703.32
286.81	2629.59
287.03	2609.11
287.24	2645.98
287.46	2760.66
287.67	2680.79
287.89	2846.68
288.10	2738.13
288.32	2715.61
288.53	2705.37
288.75	2619.35
288.96	2858.96
289.18	2551.77
289.39	2523.10
289.61	2662.36
289.82	3045.33
290.04	2977.75
290.25	2435.03
290.47	2639.83
290.68	2650.07
290.90	2858.96
291.11	2441.18
291.33	2686.94
291.54	2598.87
291.76	2680.79
291.97	2680.79
292.18	2645.98
292.40	2721.75
292.61	2598.87
292.83	2899.92
293.04	2650.07
293.26	2748.37
293.47	2617.30
293.69	2512.86
293.90	2584.54
294.12	2883.54
294.33	2742.23
294.55	2559.96
294.76	2742.23
294.97	2899.92
295.19	3041.23
295.40	2631.64
295.62	2611.16
295.83	2818.00
296.05	2590.68
296.26	2789.33
296.48	2537.43
296.69	2609.11
296.90	2680.79
297.12	2709.46
297.33	2797.53
297.55	2715.61
297.76	2793.43
297.98	2695.13
298.19	2721.75
298.41	2760.66
298.62	2523.10
298.83	2856.92
299.05	2623.45
299.26	2688.98
299.48	2635.74
299.69	2652.12
299.90	2600.92
300.12	2514.91
300.33	2785.24
300.55	2676.70
300.76	2664.41
300.98	2596.82
301.19	2783.19
301.40	2564.06
301.62	2562.01
301.83	2777.05
302.05	2756.57
302.26	2637.78
302.47	2607.06
302.69	2584.54
302.90	2772.95
303.12	2424.80
303.33	2731.99
303.54	3051.47
303.76	2672.60
303.97	2633.69
304.19	2785.24
304.40	2635.74
304.61	2766.81
304.83	2740.18
305.04	2740.18
305.26	2828.24
305.47	2662.36
305.68	2650.07
305.90	2488.28
306.11	2883.54
306.33	2695.13
306.54	2521.05
306.75	2602.97
306.97	2607.06
307.18	2572.25
307.39	2635.74
307.61	2715.61
307.82	2654.17
308.04	2879.44
308.25	2516.95
308.46	2676.70
308.68	2699.22
308.89	2705.37
309.10	2748.37
309.32	2709.46
309.53	2688.98
309.74	2752.47
309.96	2549.72
310.17	2707.41
310.39	2631.64
310.60	2828.24
310.81	2652.12
311.03	2451.42
311.24	2826.20
311.45	2668.50
311.67	2813.91
311.88	2619.35
312.09	2695.13
312.31	2645.98
312.52	2580.44
312.73	2512.86
312.95	2598.87
313.16	2635.74
313.37	2758.61
313.59	2717.65
313.80	2803.67
314.01	2938.84
314.23	2641.88
314.44	2490.33
314.65	2664.41
314.87	2572.25
315.08	2619.35
315.29	2580.44
315.51	2564.06
315.72	2465.75
315.93	2740.18
316.15	2621.40
316.36	2688.98
316.57	2750.42
316.79	2602.97
317.00	2519.00
317.21	2846.68
317.43	2605.02
317.64	2658.26
317.85	2512.86
318.07	2582.49
318.28	2676.70
318.49	2760.66
318.70	2842.58
318.92	2777.05
319.13	2756.57
319.34	2789.33
319.56	2617.30
319.77	2830.29
319.98	2901.97
320.20	2797.53
320.41	2723.80
320.62	2834.39
320.83	2549.72
321.05	2846.68
321.26	2658.26
321.47	2707.41
321.69	2877.40
321.90	2537.43
322.11	2625.50
322.32	2707.41
322.54	2885.59
322.75	2576.34
322.96	3235.79
323.18	2559.96
323.39	2527.19
323.60	2580.44
323.81	2645.98
324.03	2695.13
324.24	2746.33
324.45	2627.54
324.66	2562.01
324.88	2949.08
325.09	2953.17
325.30	2613.21
325.52	2557.91
325.73	2793.43
325.94	2475.99
326.15	2396.12
326.37	2519.00
326.58	2863.06
326.79	2998.23
327.00	2564.06
327.22	2553.82
327.43	2652.12
327.64	2594.78
327.85	2709.46
328.07	2625.50
328.28	2969.55
328.49	2613.21
328.70	2531.29
328.92	2621.40
329.13	2678.74
329.34	2834.39
329.55	2781.14
329.76	2703.32
329.98	2707.41
330.19	2920.40
330.40	2674.65
330.61	2670.55
330.83	2867.16
331.04	2670.55
331.25	2613.21
331.46	2574.30
331.68	2658.26
331.89	2973.65
332.10	2652.12
332.31	2490.33
332.52	2717.65
332.74	2861.01
332.95	2459.61
333.16	2486.23
333.37	2942.93
333.58	2668.50
333.80	2629.59
334.01	2373.60
334.22	2711.51
334.43	2578.39
334.64	2619.35
334.86	2617.30
335.07	2631.64
335.28	2910.16
335.49	2465.75
335.70	2650.07
335.92	2928.60
336.13	3059.67
336.34	2629.59
336.55	2639.83
336.76	2789.33
336.98	2445.27
337.19	2639.83
337.40	2662.36
337.61	3110.86
337.82	2695.13
338.04	2678.74
338.25	2492.38
338.46	2725.85
338.67	2715.61
338.88	2551.77
339.09	2473.95
339.31	2744.28
339.52	2533.34
339.73	2580.44
339.94	2619.35
340.15	2760.66
340.36	2637.78
340.58	2580.44
340.79	2549.72
341.00	2766.81
341.21	2631.64
341.42	2820.05
341.63	2650.07
341.85	2871.25
342.06	2736.09
342.27	2492.38
342.48	2766.81
342.69	2510.81
342.90	2828.24
343.12	2863.06
343.33	2557.91
343.54	2850.77
343.75	2885.59
343.96	2674.65
344.17	2605.02
344.38	2744.28
344.60	2512.86
344.81	2502.62
345.02	2619.35
345.23	2850.77
345.44	3160.02
345.65	2672.60
345.86	2674.65
346.07	2752.47
346.29	2643.93
346.50	2725.85
346.71	2748.37
346.92	2967.51
347.13	2979.79
347.34	2684.89
347.55	2496.47
347.76	2805.72
347.98	2449.37
348.19	2664.41
348.40	2746.33
348.61	2652.12
348.82	2998.23
349.03	2654.17
349.24	2566.10
349.45	2928.60
349.66	2414.56
349.88	2668.50
350.09	2478.04
350.30	2865.11
350.51	2928.60
350.72	2674.65
350.93	2590.68
351.14	2609.11
351.35	2844.63
351.56	2586.58
351.77	2658.26
351.99	2795.48
352.20	2975.70
352.41	2736.09
352.62	2471.90
352.83	2734.04
353.04	2699.22
353.25	2570.20
353.46	2674.65
353.67	2949.08
353.88	2580.44
354.09	2609.11
354.30	2627.54
354.52	2854.87
354.73	2701.27
354.94	2514.91
355.15	2584.54
355.36	3028.95
355.57	2648.02
355.78	2580.44
355.99	2615.26
356.20	2695.13
356.41	2887.64
356.62	2666.46
356.83	2707.41
357.04	2881.49
357.25	2480.09
357.46	2676.70
357.68	2435.03
357.89	2570.20
358.10	2785.24
358.31	2658.26
358.52	2605.02
358.73	2607.06
358.94	2564.06
359.15	2605.02
359.36	2674.65
359.57	2725.85
359.78	2615.26
359.99	2719.70
360.20	2582.49
360.41	2666.46
360.62	2766.81
360.83	2633.69
361.04	2607.06
361.25	2777.05
361.46	2887.64
361.67	2674.65
361.88	2654.17
362.09	2908.12
362.30	2731.99
362.51	2570.20
362.72	2711.51
362.93	2863.06
363.14	2797.53
363.35	2668.50
363.56	2555.86
363.78	2883.54
363.99	2854.87
364.20	2594.78
364.41	2707.41
364.62	2967.51
364.83	2836.44
365.04	2559.96
365.25	2637.78
365.46	3020.75
365.67	2592.73
365.88	2639.83
366.09	2641.88
366.30	2666.46
366.51	2699.22
366.72	2490.33
366.93	2650.07
367.14	2768.85
367.35	2981.84
367.56	2584.54
367.77	2760.66
367.98	2662.36
368.18	2785.24
368.39	2779.09
368.60	2533.34
368.81	2871.25
369.02	2711.51
369.23	2736.09
369.44	2486.23
369.65	2623.45
369.86	2840.53
370.07	2721.75
370.28	2508.76
370.49	2803.67
370.70	2824.15
370.91	2502.62
371.12	2449.37
371.33	2867.16
371.54	2652.12
371.75	2744.28
371.96	2410.46
372.17	2772.95
372.38	2682.84
372.59	2621.40
372.80	2613.21
373.01	2686.94
373.22	2791.38
373.43	2619.35
373.64	2539.48
373.85	2912.21
374.06	2875.35
374.26	2713.56
374.47	2799.57
374.68	2934.74
374.89	2688.98
375.10	2645.98
375.31	2723.80
375.52	2652.12
375.73	2746.33
375.94	2459.61
376.15	2760.66
376.36	2625.50
376.57	2727.89
376.78	2627.54
376.99	2641.88
377.20	2854.87
377.40	2762.71
377.61	2832.34
377.82	2539.48
378.03	2936.79
378.24	2832.34
378.45	2621.40
378.66	2617.30
378.87	2484.19
379.08	2521.05
379.29	2471.90
379.50	2783.19
379.71	2719.70
379.91	2848.72
380.12	2586.58
380.33	2703.32
380.54	2758.61
380.75	2645.98
380.96	2535.39
381.17	2682.84
381.38	2686.94
381.59	2662.36
381.80	2695.13
382.00	2818.00
382.21	2760.66
382.42	2893.78
382.63	2848.72
382.84	2684.89
383.05	2842.58
383.26	2957.27
383.47	2662.36
383.68	2584.54
383.88	2777.05
384.09	2746.33
384.30	2863.06
384.51	2746.33
384.72	2629.59
384.93	2553.82
385.14	2678.74
385.35	2834.39
385.55	2566.10
385.76	2848.72
385.97	2633.69
386.18	2435.03
386.39	2635.74
386.60	2631.64
386.81	2594.78
387.02	2557.91
387.22	2551.77
387.43	2809.81
387.64	2789.33
387.85	2850.77
388.06	2891.73
388.27	3946.44
388.48	7524.24
388.68	11034.46
388.89	13559.60
389.10	14337.83
389.31	13590.32
389.52	10786.65
389.73	9539.44
389.93	8566.65
390.14	7708.55
390.35	6967.19
390.56	6436.77
390.77	5267.38
390.98	3993.54
391.18	3469.26
391.39	3200.98
391.60	2793.43
391.81	2826.20
392.02	2652.12
392.23	3114.96
392.43	2756.57
392.64	2709.46
392.85	2617.30
393.06	3065.81
393.27	2672.60
393.47	2590.68
393.68	2695.13
393.89	2654.17
394.10	2928.60
394.31	2598.87
394.52	2568.15
394.72	2592.73
394.93	2912.21
395.14	2555.86
395.35	2799.57
395.56	2672.60
395.76	2756.57
395.97	2658.26
396.18	2768.85
396.39	2811.86
396.60	3243.98
396.80	3012.56
397.01	2789.33
397.22	2865.11
397.43	2830.29
397.64	2572.25
397.84	2744.28
398.05	2994.13
398.26	2727.89
398.47	2736.09
398.67	2742.23
398.88	2664.41
399.09	2781.14
399.30	2609.11
399.51	2682.84
399.71	2602.97
399.92	2746.33
400.13	2654.17
400.34	2645.98
400.54	2818.00
400.75	3014.61
400.96	2643.93
401.17	2869.20
401.37	2791.38
401.58	2668.50
401.79	2615.26
402.00	2760.66
402.21	3157.97
402.41	2883.54
402.62	2899.92
402.83	2987.99
403.04	3133.39
403.24	3235.79
403.45	2752.47
403.66	2840.53
403.87	2983.89
404.07	2944.98
404.28	2940.88
404.49	2922.45
404.70	2848.72
404.90	2848.72
405.11	2574.30
405.32	2672.60
405.52	2625.50
405.73	2545.63
405.94	2553.82
406.15	2672.60
406.35	2738.13
406.56	2797.53
406.77	2645.98
406.98	2615.26
407.18	2600.92
407.39	3026.90
407.60	2607.06
407.80	2656.22
408.01	2600.92
408.22	2789.33
408.43	2584.54
408.63	2748.37
408.84	2871.25
409.05	2861.01
409.25	2541.53
409.46	2461.66
409.67	2684.89
409.88	2684.89
410.08	2723.80
410.29	2596.82
410.50	2834.39
410.70	2783.19
410.91	2584.54
411.12	2693.08
411.32	2670.55
411.53	2668.50
411.74	2713.56
411.95	2699.22
412.15	2723.80
412.36	2901.97
412.57	2779.09
412.77	2838.48
412.98	2713.56
413.19	2645.98
413.39	2789.33
413.60	2691.03
413.81	2965.46
414.01	2547.67
414.22	2740.18
414.43	2760.66
414.63	2629.59
414.84	2846.68
415.05	2645.98
415.25	2475.99
415.46	2754.52
415.67	2617.30
415.87	2668.50
416.08	2592.73
416.29	2686.94
416.49	2799.57
416.70	2629.59
416.91	2650.07
417.11	2629.59
417.32	2846.68
417.53	2811.86
417.73	2691.03
417.94	2662.36
418.15	2813.91
418.35	2727.89
418.56	2672.60
418.77	3112.91
418.97	2705.37
419.18	2668.50
419.38	2449.37
419.59	2711.51
419.80	2930.64
420.00	2680.79
420.21	2703.32
420.42	2848.72
420.62	2738.13
420.83	2588.63
421.04	2635.74
421.24	2723.80
421.45	2875.35
421.65	2756.57
421.86	2643.93
422.07	2899.92
422.27	2785.24
422.48	2572.25
422.69	2496.47
422.89	2631.64
423.10	2691.03
423.30	2623.45
423.51	2682.84
423.72	2721.75
423.92	2822.10
424.13	2373.60
424.33	2707.41
424.54	2811.86
424.75	2731.99
424.95	2824.15
425.16	2623.45
425.36	2731.99
425.57	2916.31
425.78	2734.04
425.98	2762.71
426.19	2635.74
426.39	2586.58
426.60	2693.08
426.81	2818.00
427.01	2785.24
427.22	2592.73
427.42	2514.91
427.63	2621.40
427.83	2793.43
428.04	2889.68
428.25	2727.89
428.45	2781.14
428.66	2918.36
428.86	2676.70
429.07	2709.46
429.28	2674.65
429.48	2676.70
429.69	2641.88
429.89	2744.28
430.10	2576.34
430.30	2783.19
430.51	2897.88
430.71	2535.39
430.92	2699.22
431.13	2668.50
431.33	2783.19
431.54	2691.03
431.74	2883.54
431.95	3182.54
432.15	2637.78
432.36	2643.93
432.56	2697.17
432.77	3061.71
432.98	2994.13
433.18	2746.33
433.39	2547.67
433.59	2719.70
433.80	3004.37
434.00	2906.07
434.21	2725.85
434.41	2605.02
434.62	3080.14
434.82	2527.19
435.03	2641.88
435.23	2752.47
435.44	2494.43
435.64	2600.92
435.85	2707.41
436.06	2899.92
436.26	2891.73
436.47	2555.86
436.67	2529.24
436.88	2637.78
437.08	2887.64
437.29	2783.19
437.49	2736.09
437.70	2944.98
437.90	2672.60
438.11	2883.54
438.31	2711.51
438.52	2899.92
438.72	2940.88
438.93	2971.60
439.13	2762.71
439.34	2949.08
439.54	2672.60
439.75	2742.23
439.95	2676.70
440.16	2572.25
440.36	2742.23
440.57	2666.46
440.77	2684.89
440.98	2783.19
441.18	2760.66
441.39	2555.86
441.59	2553.82
441.80	3030.99
442.00	2738.13
442.21	2717.65
442.41	2514.91
442.62	2854.87
442.82	2639.83
443.02	2701.27
443.23	2678.74
443.43	2629.59
443.64	2920.40
443.84	2506.71
444.05	2785.24
444.25	2715.61
444.46	2611.16
444.66	2645.98
444.87	2844.63
445.07	2539.48
445.28	2703.32
445.48	2873.30
445.69	2727.89
445.89	3004.37
446.09	2695.13
446.30	3004.37
446.50	3043.28
446.71	4612.03
446.91	5640.11
447.12	6463.39
447.32	6905.75
447.53	6670.23
447.73	5371.82
447.93	4857.78
448.14	4501.44
448.34	4544.44
448.55	4003.78
448.75	3839.94
448.96	3571.66
449.16	3448.78
449.36	3282.89
449.57	2879.44
449.77	2707.41
449.98	2715.61
450.18	2875.35
450.39	2701.27
450.59	2748.37
450.79	2750.42
451.00	2734.04
451.20	2852.82
451.41	2625.50
451.61	2789.33
451.81	2719.70
452.02	2602.97
452.22	2674.65
452.43	2705.37
452.63	2621.40
452.84	2686.94
453.04	2588.63
453.24	2756.57
453.45	2631.64
453.65	2719.70
453.86	2674.65
454.06	2752.47
454.26	2736.09
454.47	2537.43
454.67	2865.11
454.87	2693.08
455.08	2693.08
455.28	2850.77
455.49	2670.55
455.69	2602.97
455.89	2985.94
456.10	2770.90
456.30	2602.97
456.51	2850.77
456.71	2764.76
456.91	2717.65
457.12	2643.93
457.32	2781.14
457.52	2564.06
457.73	2760.66
457.93	2850.77
458.14	2648.02
458.34	2527.19
458.54	2678.74
458.75	2588.63
458.95	2871.25
459.15	2803.67
459.36	2666.46
459.56	2619.35
459.76	3041.23
459.97	2785.24
460.17	2709.46
460.37	2766.81
460.58	2832.34
460.78	2842.58
460.99	2617.30
461.19	2570.20
461.39	2664.41
461.60	2754.52
461.80	2729.94
462.00	2559.96
462.21	2760.66
462.41	2551.77
462.61	2478.04
462.82	2490.33
463.02	2766.81
463.22	2766.81
463.43	2736.09
463.63	2641.88
463.83	2901.97
464.04	2783.19
464.24	2658.26
464.44	2582.49
464.64	2764.76
464.85	2781.14
465.05	2703.32
465.25	2672.60
465.46	2613.21
465.66	2809.81
465.86	2756.57
466.07	2652.12
466.27	2715.61
466.47	2553.82
466.68	2416.60
466.88	2725.85
467.08	2793.43
467.29	2932.69
467.49	2740.18
467.69	2719.70
467.89	2838.48
468.10	2670.55
468.30	2678.74
468.50	2725.85
468.71	2840.53
468.91	2514.91
469.11	2844.63
469.31	2693.08
469.52	2559.96
469.72	2996.18
469.92	2865.11
470.13	2707.41
470.33	2768.85
470.53	2830.29
470.73	3035.09
470.94	3276.75
471.14	3432.40
471.34	3837.89
471.54	3715.02
471.75	3342.28
471.95	3061.71
472.15	3114.96
472.36	3221.45
472.56	3008.47
472.76	3135.44
472.96	2983.89
473.17	2938.84
473.37	2783.19
473.57	2703.32
473.77	2785.24
473.98	2666.46
474.18	2566.10
474.38	3180.50
474.58	2742.23
474.79	2613.21
474.99	2852.82
475.19	2881.49
475.39	2572.25
475.60	2719.70
475.80	2635.74
476.00	2760.66
476.20	2621.40
476.41	2775.00
476.61	2770.90
476.81	2912.21
477.01	2641.88
477.21	2840.53
477.42	2777.05
477.62	2643.93
477.82	2910.16
478.02	2674.65
478.23	2701.27
478.43	2578.39
478.63	2670.55
478.83	2680.79
479.03	2650.07
479.24	2973.65
479.44	3022.80
479.64	2629.59
479.84	2506.71
480.04	2729.94
480.25	2811.86
480.45	2562.01
480.65	2672.60
480.85	2873.30
481.06	2686.94
481.26	2734.04
481.46	2639.83
481.66	2738.13
481.86	2639.83
482.06	2756.57
482.27	2607.06
482.47	2654.17
482.67	2789.33
482.87	2731.99
483.07	2766.81
483.28	2748.37
483.48	2553.82
483.68	2596.82
483.88	2572.25
484.08	2457.56
484.29	2535.39
484.49	2645.98
484.69	2535.39
484.89	2959.31
485.09	2811.86
485.29	2691.03
485.50	2738.13
485.70	2627.54
485.90	2955.22
486.10	2766.81
486.30	2654.17
486.50	2914.26
486.71	2738.13
486.91	2793.43
487.11	2783.19
487.31	2564.06
487.51	2785.24
487.71	2627.54
487.91	2568.15
488.12	2582.49
488.32	2437.08
488.52	2590.68
488.72	2322.40
488.92	2807.77
489.12	2887.64
489.32	2742.23
489.53	2703.32
489.73	2457.56
489.93	2944.98
490.13	2574.30
490.33	2469.85
490.53	2662.36
490.73	2924.50
490.94	2488.28
491.14	2766.81
491.34	2803.67
491.54	2912.21
491.74	3489.74
491.94	4005.83
492.14	4419.52
492.34	4450.24
492.54	4165.57
492.75	3555.27
492.95	3696.58
493.15	3352.52
493.35	3266.51
493.55	3153.87
493.75	3084.24
493.95	3205.07
494.15	2858.96
494.35	2717.65
494.56	2772.95
494.76	2670.55
494.96	2695.13
495.16	2619.35
495.36	2811.86
495.56	2762.71
495.76	2717.65
495.96	2568.15
496.16	2613.21
496.36	3037.14
496.56	2572.25
496.77	2713.56
496.97	2666.46
497.17	2899.92
497.37	2480.09
497.57	2697.17
497.77	2756.57
497.97	2574.30
498.17	2629.59
498.37	2588.63
498.57	2858.96
498.77	2660.31
498.97	2736.09
499.17	2875.35
499.38	2637.78
499.58	2770.90
499.78	2842.58
499.98	2740.18
500.18	2668.50
500.38	2596.82
500.58	2940.88
500.78	3184.59
500.98	5189.55
501.18	7126.93
501.38	8634.24
501.58	9641.84
501.78	9377.65
501.98	7610.25
502.18	6563.74
502.38	5625.77
502.58	5418.93
502.78	4779.96
502.98	4609.98
503.18	4419.52
503.38	4106.18
503.59	3547.08
503.79	3364.81
503.99	3196.88
504.19	3121.10
504.39	3110.86
504.59	3145.68
504.79	3166.16
504.99	3217.36
505.19	2983.89
505.39	2779.09
505.59	3014.61
505.79	3071.95
505.99	2893.78
506.19	2678.74
506.39	2947.03
506.59	2602.97
506.79	2731.99
506.99	2879.44
507.19	2621.40
507.39	2772.95
507.59	2574.30
507.79	2656.22
507.99	2615.26
508.19	2783.19
508.39	2645.98
508.59	2670.55
508.79	2879.44
508.99	2983.89
509.19	2676.70
509.39	2756.57
509.59	2549.72
509.79	2691.03
509.99	2861.01
510.19	2815.96
510.39	2734.04
510.59	2764.76
510.79	2611.16
510.99	2529.24
511.19	2721.75
511.39	2994.13
511.59	2912.21
511.79	2828.24
511.99	2578.39
512.19	2959.31
512.38	2680.79
512.58	2588.63
512.78	2564.06
512.98	3010.51
513.18	2955.22
513.38	2514.91
513.58	2686.94
513.78	2656.22
513.98	2770.90
514.18	2686.94
514.38	2678.74
514.58	2863.06
514.78	2590.68
514.98	2564.06
515.18	2697.17
515.38	2643.93
515.58	2992.08
515.78	2568.15
515.98	2652.12
516.18	2787.29
516.38	2760.66
516.57	2652.12
516.77	2566.10
516.97	2768.85
517.17	2637.78
517.37	2490.33
517.57	2727.89
517.77	2729.94
517.97	2547.67
518.17	2736.09
518.37	2504.67
518.57	2592.73
518.77	2635.74
518.97	2699.22
519.16	2738.13
519.36	2807.77
519.56	2629.59
519.76	2643.93
519.96	2641.88
520.16	2916.31
520.36	2668.50
520.56	2813.91
520.76	2650.07
520.96	2662.36
521.16	2758.61
521.35	2785.24
521.55	2748.37
521.75	2705.37
521.95	2574.30
522.15	2607.06
522.35	2586.58
522.55	2613.21
522.75	2752.47
522.95	2623.45
523.14	2508.76
523.34	2772.95
523.54	2682.84
523.74	2695.13
523.94	2623.45
524.14	2527.19
524.34	2799.57
524.54	2760.66
524.73	2695.13
524.93	2910.16
525.13	2719.70
525.33	2463.71
525.53	2854.87
525.73	2797.53
525.93	2752.47
526.13	2564.06
526.32	2551.77
526.52	2856.92
526.72	2807.77
526.92	2686.94
527.12	2664.41
527.32	2559.96
527.52	2785.24
527.71	2688.98
527.91	2580.44
528.11	2605.02
528.31	2775.00
528.51	2523.10
528.71	2731.99
528.90	2746.33
529.10	2832.34
529.30	2781.14
529.50	2439.13
529.70	2758.61
529.90	2699.22
530.09	2684.89
530.29	2535.39
530.49	2586.58
530.69	3119.06
530.89	2764.76
531.09	2793.43
531.28	2619.35
531.48	2942.93
531.68	2707.41
531.88	2686.94
532.08	2842.58
532.28	2629.59
532.47	2756.57
532.67	2787.29
532.87	2783.19
533.07	2605.02
533.27	2748.37
533.46	2701.27
533.66	2803.67
533.86	2746.33
534.06	2697.17
534.26	2641.88
534.45	2705.37
534.65	2842.58
534.85	2666.46
535.05	2643.93
535.25	2840.53
535.44	2473.95
535.64	2731.99
535.84	2633.69
536.04	2557.91
536.24	2688.98
536.43	2537.43
536.63	2670.55
536.83	2729.94
537.03	2715.61
537.22	2535.39
537.42	2547.67
537.62	2772.95
537.82	2629.59
538.02	2838.48
538.21	2742.23
538.41	3233.74
538.61	2791.38
538.81	2693.08
539.00	2807.77
539.20	2506.71
539.40	2633.69
539.60	2762.71
539.79	2740.18
539.99	2723.80
540.19	2678.74
540.39	2566.10
540.58	2713.56
540.78	2928.60
540.98	2762.71
541.18	2826.20
541.37	2707.41
541.57	2709.46
541.77	2717.65
541.97	2541.53
542.16	2465.75
542.36	2695.13
542.56	2676.70
542.76	2803.67
542.95	2772.95
543.15	2789.33
543.35	2834.39
543.54	2615.26
543.74	2582.49
543.94	2987.99
544.14	2545.63
544.33	2805.72
544.53	2637.78
544.73	2648.02
544.93	2656.22
545.12	2629.59
545.32	2641.88
545.52	2566.10
545.71	2562.01
545.91	2631.64
546.11	2654.17
546.30	2623.45
546.50	2703.32
546.70	2717.65
546.90	2650.07
547.09	2449.37
547.29	2766.81
547.49	2795.48
547.68	2635.74
547.88	2619.35
548.08	2842.58
548.27	3018.71
548.47	2613.21
548.67	2695.13
548.87	2799.57
549.06	2611.16
549.26	2654.17
549.46	2676.70
549.65	2607.06
549.85	2742.23
550.05	2703.32
550.24	2562.01
550.44	2688.98
550.64	2711.51
550.83	2699.22
551.03	2961.36
551.23	2879.44
551.42	2652.12
551.62	2656.22
551.82	2754.52
552.01	2648.02
552.21	2926.55
552.41	2596.82
552.60	2846.68
552.80	2727.89
553.00	2631.64
553.19	2686.94
553.39	3061.71
553.59	2562.01
553.78	2789.33
553.98	2656.22
554.17	2578.39
554.37	2811.86
554.57	2785.24
554.76	2494.43
554.96	2643.93
555.16	2789.33
555.35	2777.05
555.55	2785.24
555.75	2756.57
555.94	2813.91
556.14	2473.95
556.33	2693.08
556.53	2717.65
556.73	2758.61
556.92	2809.81
557.12	2764.76
557.32	3057.62
557.51	2944.98
557.71	2699.22
557.90	2840.53
558.10	2858.96
558.30	2654.17
558.49	2611.16
558.69	2570.20
558.88	2783.19
559.08	2811.86
559.28	2668.50
559.47	2645.98
559.67	2797.53
559.86	3026.90
560.06	2619.35
560.26	2695.13
560.45	2787.29
560.65	2584.54
560.84	2961.36
561.04	2568.15
561.24	2764.76
561.43	2564.06
561.63	2848.72
561.82	2832.34
562.02	2846.68
562.22	2670.55
562.41	2621.40
562.61	2578.39
562.80	2578.39
563.00	3071.95
563.19	2738.13
563.39	2699.22
563.59	2856.92
563.78	2582.49
563.98	2412.51
564.17	2527.19
564.37	2457.56
564.56	2787.29
564.76	2512.86
564.96	2777.05
565.15	2820.05
565.35	3047.38
565.54	2623.45
565.74	2725.85
565.93	2807.77
566.13	2721.75
566.32	2711.51
566.52	2772.95
566.71	2738.13
566.91	2811.86
567.11	2762.71
567.30	2516.95
567.50	2789.33
567.69	2783.19
567.89	2584.54
568.08	2543.58
568.28	2705.37
568.47	2588.63
568.67	2725.85
568.86	2621.40
569.06	2899.92
569.25	2719.70
569.45	2488.28
569.64	2648.02
569.84	2672.60
570.04	2811.86
570.23	2738.13
570.43	2639.83
570.62	2844.63
570.82	2965.46
571.01	2521.05
571.21	2637.78
571.40	2627.54
571.60	2834.39
571.79	2734.04
571.99	2664.41
572.18	2592.73
572.38	2748.37
572.57	2615.26
572.77	2756.57
572.96	3125.20
573.16	2742.23
573.35	2678.74
573.55	2760.66
573.74	2928.60
573.94	2650.07
574.13	2588.63
574.33	2844.63
574.52	2897.88
574.71	2705.37
574.91	2766.81
575.10	2465.75
575.30	2746.33
575.49	2635.74
575.69	2545.63
575.88	2680.79
576.08	2686.94
576.27	2854.87
576.47	2680.79
576.66	2820.05
576.86	2938.84
577.05	2783.19
577.25	2820.05
577.44	2852.82
577.64	2666.46
577.83	2930.64
578.02	2662.36
578.22	2844.63
578.41	3061.71
578.61	2670.55
578.80	2527.19
579.00	2605.02
579.19	2713.56
579.39	2736.09
579.58	2826.20
579.77	2635.74
579.97	2914.26
580.16	2942.93
580.36	2760.66
580.55	2717.65
580.75	2856.92
580.94	2754.52
581.13	2842.58
581.33	2928.60
581.52	2715.61
581.72	2990.03
581.91	2799.57
582.11	2605.02
582.30	2811.86
582.49	2756.57
582.69	2951.12
582.88	2637.78
583.08	2785.24
583.27	2885.59
583.47	2713.56
583.66	2584.54
583.85	2605.02
584.05	2793.43
584.24	2770.90
584.44	2727.89
584.63	2904.02
584.82	2895.83
585.02	2813.91
585.21	2934.74
585.41	2916.31
585.60	2791.38
585.79	3014.61
585.99	2983.89
586.18	2818.00
586.37	3516.36
586.57	5425.07
586.76	16054.03
586.96	34938.35
587.15	48303.39
587.34	56888.48
587.54	60972.13
587.73	54396.10
587.93	38796.72
588.12	29337.15
588.31	23619.22
588.51	21100.22
588.70	19214.04
588.89	17231.61
589.09	14722.85
589.28	12449.60
589.47	9750.38
589.67	7575.44
589.86	5881.77
590.06	4558.78
590.25	3809.22
590.44	3411.92
590.64	3094.48
590.83	2940.88
591.02	3006.42
591.22	2756.57
591.41	2809.81
591.60	2731.99
591.80	3139.54
591.99	2568.15
592.18	2729.94
592.38	2906.07
592.57	2715.61
592.76	2682.84
592.96	2697.17
593.15	2719.70
593.34	2914.26
593.54	2684.89
593.73	2693.08
593.92	2871.25
594.12	2856.92
594.31	2775.00
594.50	2803.67
594.70	2795.48
594.89	3151.82
595.08	2527.19
595.28	2795.48
595.47	3217.36
595.66	2930.64
595.86	2529.24
596.05	2568.15
596.24	2691.03
596.43	3063.76
596.63	2875.35
596.82	2781.14
597.01	2818.00
597.21	2932.69
597.40	2754.52
597.59	2680.79
597.79	2723.80
597.98	2805.72
598.17	2713.56
598.36	2699.22
598.56	2863.06
598.75	2676.70
598.94	2652.12
599.14	2775.00
599.33	2707.41
599.52	2889.68
599.71	2678.74
599.91	2791.38
600.10	2834.39
600.29	2811.86
600.48	2791.38
600.68	2748.37
600.87	2842.58
601.06	2670.55
601.26	2715.61
601.45	2818.00
601.64	2744.28
601.83	2965.46
602.03	2641.88
602.22	2533.34
602.41	2908.12
602.60	3112.91
602.80	2758.61
602.99	2760.66
603.18	2723.80
603.37	2795.48
603.57	2670.55
603.76	2777.05
603.95	2897.88
604.14	2713.56
604.34	2584.54
604.53	2664.41
604.72	2801.62
604.91	2875.35
605.10	2770.90
605.30	2514.91
605.49	3002.32
605.68	2863.06
605.87	2736.09
606.07	2592.73
606.26	2801.62
606.45	2820.05
606.64	2670.55
606.84	2635.74
607.03	2748.37
607.22	2912.21
607.41	2725.85
607.60	2580.44
607.80	2848.72
607.99	2666.46
608.18	2664.41
608.37	2701.27
608.56	2676.70
608.76	2848.72
608.95	2944.98
609.14	2715.61
609.33	2934.74
609.52	3018.71
609.72	2815.96
609.91	2762.71
610.10	2789.33
610.29	2947.03
610.48	2801.62
610.68	2725.85
610.87	2752.47
611.06	2832.34
611.25	2725.85
611.44	2740.18
611.63	2734.04
611.83	2889.68
612.02	2607.06
612.21	2811.86
612.40	2424.80
612.59	2539.48
612.79	2568.15
612.98	2672.60
613.17	2910.16
613.36	2717.65
613.55	2852.82
613.74	2693.08
613.93	2803.67
614.13	2848.72
614.32	2801.62
614.51	2768.85
614.70	2777.05
614.89	2691.03
615.08	2740.18
615.28	3112.91
615.47	2555.86
615.66	2818.00
615.85	2686.94
616.04	2830.29
616.23	2740.18
616.42	2918.36
616.62	2670.55
616.81	2711.51
617.00	2713.56
617.19	2813.91
617.38	2625.50
617.57	2688.98
617.76	2818.00
617.95	2756.57
618.15	2764.76
618.34	2867.16
618.53	2570.20
618.72	2850.77
618.91	2799.57
619.10	2824.15
619.29	2744.28
619.48	2766.81
619.68	2631.64
619.87	2637.78
620.06	2537.43
620.25	2772.95
620.44	2588.63
620.63	2613.21
620.82	2717.65
621.01	2707.41
621.20	2639.83
621.39	2760.66
621.59	2865.11
621.78	2654.17
621.97	2664.41
622.16	2723.80
622.35	2844.63
622.54	2828.24
622.73	2717.65
622.92	2504.67
623.11	2840.53
623.30	2697.17
623.49	2785.24
623.68	2555.86
623.88	2895.83
624.07	2725.85
624.26	2543.58
624.45	2648.02
624.64	2758.61
624.83	2846.68
625.02	2639.83
625.21	2635.74
625.40	2674.65
625.59	2881.49
625.78	2740.18
625.97	2746.33
626.16	2897.88
626.35	2830.29
626.54	2707.41
626.74	2922.45
626.93	2695.13
627.12	2803.67
627.31	2826.20
627.50	2678.74
627.69	2871.25
627.88	2582.49
628.07	2674.65
628.26	2555.86
628.45	2650.07
628.64	2580.44
628.83	2613.21
629.02	2512.86
629.21	2834.39
629.40	2777.05
629.59	2584.54
629.78	2566.10
629.97	2719.70
630.16	2760.66
630.35	2586.58
630.54	2674.65
630.73	2664.41
630.92	2729.94
631.11	2588.63
631.30	2602.97
631.49	2813.91
631.68	2707.41
631.87	2691.03
632.06	2531.29
632.25	2990.03
632.44	2777.05
632.63	2715.61
632.82	2699.22
633.01	2684.89
633.20	2815.96
633.39	2629.59
633.58	2537.43
633.77	2824.15
633.96	2793.43
634.15	2803.67
634.34	2734.04
634.53	2840.53
634.72	2631.64
634.91	2475.99
635.10	2664.41
635.29	2858.96
635.48	2770.90
635.67	2578.39
635.86	2484.19
636.05	2832.34
636.24	2607.06
636.43	2592.73
636.62	2707.41
636.81	2385.88
637.00	2764.76
637.19	2738.13
637.38	2744.28
637.57	2711.51
637.76	2691.03
637.95	2797.53
638.14	2711.51
638.33	2760.66
638.52	2824.15
638.71	2547.67
638.89	2568.15
639.08	3211.22
639.27	2912.21
639.46	2856.92
639.65	3168.21
639.84	3215.31
640.03	3434.44
640.22	3069.91
640.41	3114.96
640.60	2891.73
640.79	2858.96
640.98	2809.81
641.17	2926.55
641.36	2944.98
641.55	2924.50
641.74	2635.74
641.92	2688.98
642.11	2566.10
642.30	2691.03
642.49	2521.05
642.68	2576.34
642.87	2832.34
643.06	2830.29
643.25	2543.58
643.44	2525.15
643.63	2678.74
643.82	2762.71
644.00	2498.52
644.19	2643.93
644.38	2607.06
644.57	2805.72
644.76	2658.26
644.95	2703.32
645.14	2731.99
645.33	2703.32
645.52	2717.65
645.71	2523.10
645.89	2568.15
646.08	2695.13
646.27	2707.41
646.46	2863.06
646.65	2549.72
646.84	2760.66
647.03	2547.67
647.22	2740.18
647.40	2770.90
647.59	2703.32
647.78	2449.37
647.97	2590.68
648.16	2652.12
648.35	2848.72
648.54	2856.92
648.73	2693.08
648.91	2748.37
649.10	2795.48
649.29	2553.82
649.48	2717.65
649.67	2803.67
649.86	2719.70
650.05	2699.22
650.23	2854.87
650.42	2662.36
650.61	2873.30
650.80	2852.82
650.99	2947.03
651.18	2861.01
651.36	2838.48
651.55	2684.89
651.74	2848.72
651.93	2658.26
652.12	2727.89
652.31	2678.74
652.49	2598.87
652.68	2731.99
652.87	2922.45
653.06	2650.07
653.25	2875.35
653.44	2752.47
653.62	2992.08
653.81	2729.94
654.00	2658.26
654.19	2863.06
654.38	3119.06
654.56	2652.12
654.75	2682.84
654.94	2861.01
655.13	2758.61
655.32	2596.82
655.51	2754.52
655.69	2617.30
655.88	2830.29
656.07	2553.82
656.26	2654.17
656.45	2621.40
656.63	2725.85
656.82	2703.32
657.01	2877.40
657.20	2602.97
657.38	2969.55
657.57	2637.78
657.76	2426.84
657.95	2793.43
658.14	2590.68
658.32	2660.31
658.51	2572.25
658.70	2752.47
658.89	2805.72
659.08	2670.55
659.26	2797.53
659.45	2598.87
659.64	2777.05
659.83	2629.59
660.01	3108.82
660.20	2717.65
660.39	2914.26
660.58	2480.09
660.76	2729.94
660.95	2527.19
661.14	2734.04
661.33	2588.63
661.51	2609.11
661.70	2633.69
661.89	2852.82
662.08	2631.64
662.26	2510.81
662.45	2619.35
662.64	2981.84
662.83	2682.84
663.01	2539.48
663.20	2715.61
663.39	2928.60
663.58	2619.35
663.76	2549.72
663.95	2848.72
664.14	2611.16
664.32	2645.98
664.51	2574.30
664.70	2482.14
664.89	2748.37
665.07	2527.19
665.26	2752.47
665.45	2523.10
665.64	2797.53
665.82	2617.30
666.01	2785.24
666.20	2539.48
666.38	2867.16
666.57	2924.50
666.76	4206.53
666.95	9949.03
667.13	17012.48
667.32	21145.28
667.51	23996.05
667.69	24934.02
667.88	21565.11
668.07	15181.59
668.25	12818.24
668.44	10934.11
668.63	9480.05
668.81	8456.06
669.00	7225.23
669.19	6533.02
669.38	5793.70
669.56	4951.99
669.75	4243.39
669.94	3684.30
670.12	3209.17
670.31	3008.47
670.50	2949.08
670.68	2906.07
670.87	2801.62
671.06	2635.74
671.24	2666.46
671.43	2967.51
671.62	2799.57
671.80	2678.74
671.99	2691.03
672.18	2674.65
672.36	2844.63
672.55	2736.09
672.74	2676.70
672.92	2717.65
673.11	2865.11
673.29	2498.52
673.48	2729.94
673.67	2699.22
673.85	2912.21
674.04	2605.02
674.23	2660.31
674.41	3024.85
674.60	2502.62
674.79	2488.28
674.97	2602.97
675.16	2830.29
675.34	2834.39
675.53	2658.26
675.72	2729.94
675.90	2977.75
676.09	2758.61
676.28	2711.51
676.46	2516.95
676.65	2820.05
676.83	2547.67
677.02	2691.03
677.21	2744.28
677.39	2777.05
677.58	2592.73
677.77	2519.00
677.95	2680.79
678.14	2684.89
678.32	2609.11
678.51	2629.59
678.70	2928.60
678.88	2686.94
679.07	2746.33
679.25	2664.41
679.44	2770.90
679.63	2549.72
679.81	2705.37
680.00	2861.01
680.18	2746.33
680.37	3010.51
680.55	2693.08
680.74	2531.29
680.93	2500.57
681.11	2754.52
681.30	2656.22
681.48	2750.42
681.67	2619.35
681.85	2793.43
682.04	2559.96
682.23	2830.29
682.41	2707.41
682.60	2664.41
682.78	2686.94
682.97	2482.14
683.15	2688.98
683.34	2711.51
683.53	2899.92
683.71	2506.71
683.90	2797.53
684.08	3078.10
684.27	2662.36
684.45	2740.18
684.64	2877.40
684.82	2717.65
685.01	2791.38
685.19	2643.93
685.38	2885.59
685.57	2766.81
685.75	2682.84
685.94	2570.20
686.12	2578.39
686.31	2674.65
686.49	2942.93
686.68	2432.99
686.86	2703.32
687.05	2701.27
687.23	2883.54
687.42	2682.84
687.60	2467.80
687.79	2885.59
687.97	2906.07
688.16	2807.77
688.34	2836.44
688.53	2406.36
688.71	2891.73
688.90	2824.15
689.08	2596.82
689.27	2559.96
689.45	2813.91
689.64	2744.28
689.82	2678.74
690.01	2762.71
690.19	2834.39
690.38	2719.70
690.56	2818.00
690.75	2576.34
690.93	2578.39
691.12	2576.34
691.30	2707.41
691.49	2600.92
691.67	2770.90
691.86	2930.64
692.04	2668.50
692.23	2674.65
692.41	2686.94
692.60	3063.76
692.78	2793.43
692.97	2719.70
693.15	2863.06
693.34	2856.92
693.52	2736.09
693.71	2641.88
693.89	2662.36
694.08	2482.14
694.26	2781.14
694.44	2887.64
694.63	2848.72
694.81	2637.78
695.00	2596.82
695.18	2926.55
695.37	3112.91
695.55	2727.89
695.74	2699.22
695.92	2672.60
696.10	2899.92
696.29	2537.43
696.47	2670.55
696.66	2539.48
696.84	2600.92
697.03	2744.28
697.21	2891.73
697.40	4227.01
697.58	2863.06
697.76	2666.46
697.95	2629.59
698.13	2578.39
698.32	2695.13
698.50	2656.22
698.68	2729.94
698.87	2736.09
699.05	2990.03
699.24	2699.22
699.42	2592.73
699.61	2762.71
699.79	2740.18
699.97	2662.36
700.16	2486.23
700.34	2615.26
700.53	2736.09
700.71	2873.30
700.89	2811.86
701.08	2660.31
701.26	2715.61
701.45	3133.39
701.63	2539.48
701.81	2607.06
702.00	2623.45
702.18	2748.37
702.37	2643.93
702.55	3012.56
702.73	2777.05
702.92	2666.46
703.10	2936.79
703.28	2869.20
703.47	2605.02
703.65	2908.12
703.84	2793.43
704.02	2703.32
704.20	3022.80
704.39	2594.78
704.57	2670.55
704.75	2957.27
704.94	2858.96
705.12	2701.27
705.30	3090.38
705.49	5750.70
705.67	11851.60
705.86	17471.22
706.04	20403.91
706.22	22816.42
706.41	22486.70
706.59	17958.64
706.77	13365.04
706.96	11497.30
707.14	10407.78
707.32	8949.62
707.51	7907.21
707.69	6424.48
707.87	5271.47
708.06	4560.83
708.24	3940.29
708.42	3373.00
708.61	3469.26
708.79	2787.29
708.97	2883.54
709.16	2772.95
709.34	2734.04
709.52	2725.85
709.71	2719.70
709.89	2828.24
710.07	2600.92
710.26	2586.58
710.44	2729.94
710.62	2867.16
710.80	2693.08
710.99	2830.29
711.17	2734.04
711.35	2639.83
711.54	2629.59
711.72	2875.35
711.90	2711.51
712.09	2791.38
712.27	2654.17
712.45	2822.10
712.63	2668.50
712.82	2711.51
713.00	2701.27
713.18	2813.91
713.37	2838.48
713.55	2869.20
713.73	2770.90
713.91	2750.42
714.10	2660.31
714.28	2684.89
714.46	2832.34
714.65	2777.05
714.83	2693.08
715.01	2662.36
715.19	2756.57
715.38	2568.15
715.56	2777.05
715.74	2584.54
715.92	2596.82
716.11	2846.68
716.29	2381.79
716.47	2637.78
716.65	2680.79
716.84	2502.62
717.02	2691.03
717.20	2557.91
717.38	2648.02
717.57	2809.81
717.75	2725.85
717.93	2609.11
718.11	2775.00
718.30	2488.28
718.48	2699.22
718.66	2877.40
718.84	2838.48
719.03	2637.78
719.21	2566.10
719.39	2918.36
719.57	2867.16
719.75	2793.43
719.94	2615.26
720.12	2748.37
720.30	2719.70
720.48	2881.49
720.67	2559.96
720.85	2609.11
721.03	2645.98
721.21	2580.44
721.39	2756.57
721.58	2787.29
721.76	2672.60
721.94	2734.04
722.12	2680.79
722.30	2975.70
722.49	2668.50
722.67	2615.26
722.85	2719.70
723.03	2539.48
723.21	2678.74
723.40	2715.61
723.58	2854.87
723.76	2772.95
723.94	2850.77
724.12	2691.03
724.30	2940.88
724.49	2938.84
724.67	2639.83
724.85	2727.89
725.03	2523.10
725.21	2758.61
725.40	2881.49
725.58	2652.12
725.76	2848.72
725.94	2834.39
726.12	2576.34
726.30	2703.32
726.49	2623.45
726.67	2592.73
726.85	2750.42
727.03	3033.04
727.21	4106.18
727.39	5160.88
727.57	5633.96
727.76	6061.99
727.94	6199.20
728.12	5529.52
728.30	4515.77
728.48	4392.89
728.66	3928.00
728.84	3760.07
729.03	3252.17
729.21	3131.34
729.39	2994.13
729.57	2793.43
729.75	2830.29
729.93	2789.33
730.11	2676.70
730.30	2637.78
730.48	2668.50
730.66	2797.53
730.84	2777.05
731.02	2682.84
731.20	2662.36
731.38	2717.65
731.56	2521.05
731.74	2539.48
731.93	2770.90
732.11	2684.89
732.29	2635.74
732.47	2777.05
732.65	2752.47
732.83	2836.44
733.01	2691.03
733.19	2637.78
733.37	2772.95
733.56	2723.80
733.74	2592.73
733.92	2977.75
734.10	2627.54
734.28	2717.65
734.46	2506.71
734.64	2688.98
734.82	2670.55
735.00	2629.59
735.18	2645.98
735.36	2711.51
735.54	2662.36
735.73	2709.46
735.91	2756.57
736.09	2893.78
736.27	2693.08
736.45	2699.22
736.63	2502.62
736.81	2729.94
736.99	2893.78
737.17	2818.00
737.35	2592.73
737.53	2838.48
737.71	2703.32
737.89	2826.20
738.07	2555.86
738.25	2596.82
738.43	2506.71
738.61	2639.83
738.80	2549.72
738.98	2564.06
739.16	2766.81
739.34	2629.59
739.52	2873.30
739.70	2654.17
739.88	2797.53
740.06	2762.71
740.24	2467.80
740.42	2906.07
740.60	2484.19
740.78	2621.40
740.96	2392.03
741.14	2731.99
741.32	2723.80
741.50	2506.71
741.68	2926.55
741.86	2977.75
742.04	2602.97
742.22	2594.78
742.40	2674.65
742.58	2748.37
742.76	2676.70
742.94	2820.05
743.12	2465.75
743.30	2742.23
743.48	2754.52
743.66	2629.59
743.84	2676.70
744.02	2709.46
744.20	2666.46
744.38	2549.72
744.56	2658.26
744.74	2969.55
744.92	2727.89
745.10	2861.01
745.28	2703.32
745.46	3014.61
745.64	2645.98
745.82	2777.05
746.00	2645.98
746.18	2807.77
746.36	2590.68
746.54	2744.28
746.72	2602.97
746.90	2613.21
747.08	2899.92
747.26	2607.06
747.44	2815.96
747.62	2793.43
747.80	2768.85
747.98	2791.38
748.15	2625.50
748.33	2947.03
748.51	2674.65
748.69	2762.71
748.87	2625.50
749.05	2682.84
749.23	2629.59
749.41	2684.89
749.59	2695.13
749.77	2744.28
749.95	2596.82
750.13	2611.16
750.31	2856.92
750.49	2682.84
750.67	2785.24
750.85	2766.81
751.03	2688.98
751.20	3033.04
751.38	2670.55
751.56	2633.69
751.74	2641.88
751.92	2695.13
752.10	2598.87
752.28	2797.53
752.46	2611.16
752.64	2705.37
752.82	2678.74
753.00	2869.20
753.18	2625.50
753.35	2662.36
753.53	2785.24
753.71	2588.63
753.89	2691.03
754.07	2770.90
754.25	2885.59
754.43	2695.13
754.61	2506.71
754.79	2887.64
754.97	2742.23
755.14	2801.62
755.32	2564.06
755.50	2766.81
755.68	2699.22
755.86	2531.29
756.04	2545.63
756.22	2461.66
756.40	2879.44
756.57	2789.33
756.75	2643.93
756.93	2891.73
757.11	2918.36
757.29	2549.72
757.47	2580.44
757.65	2531.29
757.82	2435.03
758.00	2568.15
758.18	2580.44
758.36	2586.58
758.54	2977.75
758.72	2529.24
758.90	2818.00
759.07	2807.77
759.25	2582.49
759.43	2693.08
759.61	2531.29
759.79	3940.29
759.97	2904.02
760.15	2654.17
760.32	2629.59
760.50	2754.52
760.68	2930.64
760.86	2494.43
761.04	2865.11
761.22	2830.29
761.39	2750.42
761.57	2713.56
761.75	2637.78
761.93	2818.00
762.11	2645.98
762.28	2764.76
762.46	2600.92
762.64	2785.24
762.82	2521.05
763.00	2596.82
763.18	2811.86
763.35	2588.63
763.53	2811.86
763.71	2645.98
763.89	2668.50
764.07	2787.29
764.24	2645.98
764.42	2791.38
764.60	2686.94
764.78	2826.20
764.96	2826.20
765.13	2850.77
765.31	2602.97
765.49	2822.10
765.67	2609.11
765.84	2600.92
766.02	2543.58
766.20	2467.80
766.38	2740.18
766.56	2707.41
766.73	2676.70
766.91	2768.85
767.09	2674.65
767.27	2623.45
767.44	2584.54
767.62	2793.43
767.80	2746.33
767.98	2660.31
768.15	2645.98
768.33	2842.58
768.51	2838.48
768.69	2727.89
768.87	2662.36
769.04	2742.23
769.22	3061.71
769.40	2805.72
769.58	2887.64
769.75	2752.47
769.93	2875.35
770.11	2684.89
770.28	2619.35
770.46	2809.81
770.64	2783.19
770.82	2625.50
770.99	2564.06
771.17	2744.28
771.35	2676.70
771.53	2645.98
771.70	2592.73
771.88	2742.23
772.06	2723.80
772.23	2635.74
772.41	2777.05
772.59	2650.07
772.77	2572.25
772.94	2633.69
773.12	2664.41
773.30	2674.65
773.47	2768.85
773.65	2580.44
773.83	2891.73
774.01	2695.13
774.18	2416.60
774.36	2670.55
774.54	2570.20
774.71	2795.48
774.89	2506.71
775.07	2488.28
775.24	2535.39
775.42	2605.02
775.60	2922.45
775.78	2623.45
775.95	2490.33
776.13	2447.32
776.31	2441.18
776.48	2742.23
776.66	2775.00
776.84	2672.60
777.01	2574.30
777.19	2545.63
777.37	2523.10
777.54	2744.28
777.72	2965.46
777.90	2748.37
778.07	2545.63
778.25	3264.46
778.43	2803.67
778.60	2609.11
778.78	2820.05
778.96	2908.12
779.13	2494.43
779.31	2801.62
779.49	2664.41
779.66	2670.55
779.84	2678.74
780.01	2682.84
780.19	2645.98
780.37	2899.92
780.54	2836.44
780.72	2572.25
780.90	2582.49
781.07	2615.26
781.25	2717.65
781.43	2854.87
781.60	2695.13
781.78	2850.77
781.95	2717.65
782.13	2570.20
782.31	2635.74
782.48	2430.94
782.66	2729.94
782.83	2873.30
783.01	2719.70
783.19	2785.24
783.36	2676.70
783.54	2584.54
783.72	2748.37
783.89	2598.87
784.07	2680.79
784.24	2744.28
784.42	2822.10
784.60	2811.86
784.77	2711.51
784.95	2422.75
785.12	2611.16
785.30	2826.20
785.47	2578.39
785.65	2555.86
785.83	2648.02
786.00	2684.89
786.18	2789.33
786.35	2578.39
786.53	2504.67
786.71	2797.53
786.88	2842.58
787.06	2723.80
787.23	2699.22
787.41	2605.02
787.58	2686.94
787.76	2629.59
787.94	2672.60
788.11	2793.43
788.29	2531.29
788.46	2605.02
788.64	2402.27
788.81	2588.63
788.99	2615.26
789.16	2590.68
789.34	2713.56
789.52	2627.54
789.69	2686.94
789.87	2455.51
790.04	2680.79
790.22	2654.17
790.39	3000.27
790.57	2541.53
790.74	2572.25
790.92	2858.96
791.09	2504.67
791.27	2674.65
791.44	2760.66
791.62	2682.84
791.79	2832.34
791.97	2645.98
792.15	2955.22
792.32	2881.49
792.50	2764.76
792.67	2758.61
792.85	2842.58
793.02	2662.36
793.20	2670.55
793.37	2525.15
793.55	2598.87
793.72	2580.44
793.90	2830.29
794.07	2664.41
794.25	2553.82
794.42	2805.72
794.60	2731.99
794.77	2703.32
794.95	2695.13
795.12	2803.67
795.30	2711.51
795.47	2449.37
795.65	3082.19
795.82	2748.37
796.00	2545.63
796.17	2623.45
796.34	2617.30
796.52	2727.89
796.69	2805.72
796.87	2738.13
797.04	2764.76
797.22	2768.85
797.39	2754.52
797.57	2797.53
797.74	2768.85
797.92	2752.47
798.09	2697.17
798.27	2848.72
798.44	2570.20
798.62	2633.69
798.79	2703.32
798.96	2742.23
799.14	2695.13
799.31	3078.10
799.49	2678.74
799.66	2611.16
799.84	2717.65
800.01	2547.67
800.19	2736.09
800.36	2555.86
800.53	2750.42
800.71	2777.05
800.88	2861.01
801.06	2643.93
801.23	2629.59
801.41	2668.50
801.58	2676.70
801.75	2627.54
801.93	2723.80
802.10	2834.39
802.28	2711.51
802.45	2621.40
802.63	2635.74
802.80	2922.45
802.97	2598.87
803.15	2740.18
803.32	2629.59
803.50	2619.35
803.67	2697.17
803.84	2494.43
804.02	2701.27
804.19	2652.12
804.37	2478.04
804.54	2453.47
804.71	2574.30
804.89	2736.09
805.06	2645.98
805.24	2586.58
805.41	2594.78
805.58	2582.49
805.76	3104.72
805.93	2643.93
806.10	2883.54
806.28	2785.24
806.45	2744.28
806.63	2744.28
806.80	2787.29
806.97	2758.61
807.15	2775.00
807.32	2658.26
807.49	2686.94
807.67	2557.91
807.84	2744.28
808.01	2455.51
808.19	2883.54
808.36	3033.04
808.54	2635.74
808.71	2555.86
808.88	2637.78
809.06	2906.07
809.23	2944.98
809.40	2609.11
809.58	2727.89
809.75	2752.47
809.92	2621.40
810.10	2867.16
810.27	2643.93
810.44	2781.14
810.62	2856.92
810.79	2744.28
810.96	2568.15
811.14	2572.25
811.31	2742.23
811.48	2861.01
811.66	2731.99
811.83	2932.69
812.00	2746.33
812.18	2699.22
812.35	2961.36
812.52	2666.46
812.69	2621.40
812.87	2637.78
813.04	2539.48
813.21	2697.17
813.39	2582.49
813.56	2555.86
813.73	2754.52
813.91	2500.57
814.08	2719.70
814.25	2693.08
814.42	2529.24
814.60	2676.70
814.77	2783.19
814.94	2598.87
815.12	2654.17
815.29	3004.37
815.46	2652.12
815.63	2725.85
815.81	2539.48
815.98	2645.98
816.15	2742.23
816.33	2729.94
816.50	2629.59
816.67	2738.13
816.84	2723.80
817.02	2473.95
817.19	2662.36
817.36	2822.10
817.53	2793.43
817.71	2600.92
817.88	2717.65
818.05	2701.27
818.22	2656.22
818.40	2908.12
818.57	2617.30
818.74	2746.33
818.91	2729.94
819.09	2772.95
819.26	2793.43
819.43	2602.97
819.60	2596.82
819.78	2750.42
819.95	2760.66
820.12	2635.74
820.29	2951.12
820.47	2815.96
820.64	2543.58
820.81	2449.37
820.98	2611.16
821.15	2645.98
821.33	2748.37
821.50	2471.90
821.67	2752.47
821.84	2639.83
822.02	2668.50
822.19	2834.39
822.36	2625.50
822.53	2600.92
822.70	2500.57
822.88	2762.71
823.05	2873.30
823.22	2635.74
823.39	2740.18
823.56	2660.31
823.74	2994.13
823.91	2547.67
824.08	2541.53
824.25	2605.02
824.42	2967.51
824.60	2500.57
824.77	2727.89
824.94	2656.22
825.11	2760.66
825.28	2463.71
825.45	2738.13
825.63	2748.37
825.80	2562.01
825.97	2756.57
826.14	2678.74
826.31	2574.30
826.48	2811.86
826.66	2615.26
826.83	2615.26
827.00	2633.69
827.17	2576.34
827.34	2703.32
827.51	2547.67
827.69	2691.03
827.86	2510.81
828.03	2674.65
828.20	2639.83
828.37	2543.58
828.54	2775.00
828.71	2533.34
828.89	2762.71
829.06	2787.29
829.23	2959.31
829.40	2562.01
829.57	2617.30
829.74	2807.77
829.91	2607.06
830.09	2523.10
830.26	2731.99
830.43	2953.17
830.60	2709.46
830.77	2725.85
830.94	2736.09
831.11	2787.29
831.28	2738.13
831.46	2734.04
831.63	2627.54
831.80	2916.31
831.97	2553.82
832.14	2590.68
832.31	2723.80
832.48	2750.42
832.65	2871.25
832.82	2668.50
832.99	2721.75
833.17	2594.78
833.34	2918.36
833.51	2697.17
833.68	2441.18
833.85	2768.85
834.02	2631.64
834.19	2586.58
834.36	2461.66
834.53	2717.65
834.70	2895.83
834.87	2695.13
835.04	2457.56
835.22	2541.53
835.39	2662.36
835.56	2521.05
835.73	2568.15
835.90	2914.26
836.07	2512.86
836.24	2668.50
836.41	2521.05
836.58	2543.58
836.75	2877.40
836.92	2637.78
837.09	2482.14
837.26	2815.96
837.43	2768.85
837.60	2602.97
837.77	2629.59
837.94	2879.44
838.12	2805.72
838.29	2508.76
838.46	2504.67
838.63	2545.63
838.80	2926.55
838.97	2551.77
839.14	2613.21
839.31	2707.41
839.48	2805.72
839.65	2545.63
839.82	2586.58
839.99	2703.32
840.16	2750.42
840.33	2519.00
840.50	2605.02
840.67	2625.50
840.84	2398.17
841.01	2516.95
841.18	2576.34
841.35	2678.74
841.52	2807.77
841.69	2875.35
841.86	2574.30
842.03	2811.86
842.20	2818.00
842.37	2621.40
842.54	2602.97
842.71	2818.00
842.88	2545.63
843.05	2525.15
843.22	2572.25
843.39	2871.25
843.56	2662.36
843.73	2625.50
843.90	2586.58
844.07	2703.32
844.24	2840.53
844.41	2674.65
844.58	2531.29
844.75	2664.41
844.92	2807.77
845.09	2586.58
845.26	2559.96
845.43	2844.63
845.60	2619.35
845.77	2684.89
845.94	2607.06
846.10	2844.63
846.27	2533.34
846.44	2449.37
846.61	2439.13
846.78	2762.71
846.95	2848.72
847.12	2572.25
847.29	2559.96
847.46	2564.06
847.63	2824.15
847.80	2490.33
847.97	2564.06
848.14	3057.62
848.31	2711.51
848.48	2473.95
848.65	2594.78
848.82	2602.97
848.98	2967.51
849.15	2662.36
849.32	2666.46
849.49	2807.77
849.66	2734.04
849.83	2570.20
850.00	2437.08
850.17	2809.81
850.34	2658.26
850.51	2531.29
850.68	2529.24
850.85	3030.99
851.01	2785.24
851.18	2480.09
851.35	2506.71
851.52	2815.96
851.69	2983.89
851.86	2508.76
852.03	2523.10
852.20	2809.81
852.37	2727.89
852.53	2437.08
852.70	2521.05
852.87	2727.89
853.04	2807.77
853.21	2519.00
853.38	2719.70
853.55	2850.77
853.72	2889.68
853.89	2543.58
854.05	2506.71
854.22	2607.06
854.39	2658.26
854.56	2631.64
854.73	2723.80
854.90	2676.70
855.07	2664.41
855.23	2494.43
855.40	2508.76
855.57	2699.22
855.74	2473.95
855.91	2760.66
856.08	2471.90
856.25	2547.67
856.41	2645.98
856.58	2602.97
856.75	2562.01
856.92	2529.24
857.09	2824.15
857.26	2424.80
857.42	2627.54
857.59	2824.15
857.76	2666.46
857.93	2613.21
858.10	2613.21
858.27	2574.30
858.43	2723.80
858.60	2529.24
858.77	2449.37
858.94	2650.07
859.11	2818.00
859.27	2670.55
859.44	2562.01
859.61	3090.38
859.78	2805.72
859.95	2559.96
860.12	2568.15
860.28	3051.47
860.45	3053.52
860.62	2537.43
860.79	2625.50
860.95	2654.17
861.12	2658.26
861.29	2484.19
861.46	2555.86
861.63	2729.94
861.79	2697.17
861.96	2435.03
862.13	2566.10
862.30	2901.97
862.47	2611.16
862.63	2490.33
862.80	2582.49
862.97	2867.16
863.14	2750.42
863.30	2613.21
863.47	2506.71
863.64	2922.45
863.81	2838.48
863.97	2512.86
864.14	2615.26
864.31	2650.07
864.48	2762.71
864.65	2519.00
864.81	2668.50
864.98	2754.52
865.15	2891.73
865.32	2594.78
865.48	2650.07
865.65	2930.64
865.82	2629.59
865.98	2588.63
866.15	2705.37
866.32	2605.02
866.49	2664.41
866.65	2670.55
866.82	2453.47
866.99	2699.22
867.16	2623.45
867.32	2523.10
867.49	2490.33
867.66	2602.97
867.83	2652.12
867.99	2484.19
868.16	2592.73
868.33	2514.91
868.49	2709.46
868.66	2629.59
868.83	2658.26
868.99	2678.74
869.16	2736.09
869.33	2629.59
869.50	2654.17
869.66	2668.50
869.83	2619.35
870.00	2473.95
870.16	2717.65
870.33	2672.60
870.50	2889.68
870.66	2600.92
870.83	2619.35
871.00	2787.29
871.17	2820.05
871.33	2633.69
871.50	2547.67
871.67	2658.26
871.83	2605.02
872.00	2672.60
872.17	2568.15
872.33	3000.27
872.50	2873.30
872.67	2576.34
872.83	2596.82
873.00	2758.61
873.17	2742.23
873.33	2617.30
873.50	2660.31
873.67	2596.82
873.83	2580.44
874.00	2529.24
874.16	2654.17
874.33	2666.46
874.50	2535.39
874.66	2494.43
874.83	2557.91
875.00	2901.97
875.16	2916.31
875.33	2605.02
875.50	2396.12
875.66	2664.41
875.83	2789.33
875.99	2605.02
876.16	2633.69
876.33	2582.49
876.49	2674.65
876.66	2613.21
876.83	2557.91
876.99	2570.20
877.16	2701.27
877.32	2539.48
877.49	2611.16
877.66	2764.76
877.82	2906.07
877.99	2684.89
878.15	2744.28
878.32	2684.89
878.49	2809.81
878.65	2629.59
878.82	2801.62
878.98	2633.69
879.15	2832.34
879.32	2688.98
879.48	2727.89
879.65	2703.32
879.81	2699.22
879.98	2525.15
880.15	2623.45
880.31	2781.14
880.48	2535.39
880.64	2668.50
880.81	2625.50
880.97	2908.12
881.14	2840.53
881.31	2570.20
881.47	2760.66
881.64	2723.80
881.80	2555.86
881.97	2664.41
882.13	2551.77
882.30	2508.76
882.47	2615.26
882.63	2625.50
882.80	2572.25
882.96	2699.22
883.13	2910.16
883.29	2564.06
883.46	2658.26
883.62	2934.74
883.79	2688.98
883.95	2707.41
884.12	2545.63
884.29	2893.78
884.45	2738.13
884.62	2586.58
884.78	2490.33
884.95	2883.54
885.11	2656.22
885.28	2656.22
885.44	2586.58
885.61	2842.58
885.77	2910.16
885.94	2777.05
886.10	2641.88
886.27	2777.05
886.43	2965.46
886.60	2787.29
886.76	2549.72
886.93	2596.82
887.09	2799.57
887.26	2424.80
887.42	2641.88
887.59	2818.00
887.75	3010.51
887.92	2758.61
888.08	2611.16
888.25	2987.99
888.41	2818.00
888.58	2545.63
888.74	2484.19
888.91	2600.92
>>>>>End Processed Spectral Data<<<<<
