SpectraSuite Data File
++++++++++++++++++++++++++++++++++++
Date: Thu May 05 16:20:47 CEST 2016
User: root
Dark Spectrum Present: No
Reference Spectrum Present: No
Number of Sampled Component Spectra: 1
Spectrometers: USB4C02835
Integration Time (usec): 100000 (USB4C02835)
Spectra Averaged: 1 (USB4C02835)
Boxcar Smoothing: 0 (USB4C02835)
Correct for Electrical Dark: No (USB4C02835)
Strobe/Lamp Enabled: No (USB4C02835)
Correct for Detector Non-linearity: No (USB4C02835)
Correct for Stray Light: No (USB4C02835)
Number of Pixels in Processed Spectrum: 3648
>>>>>Begin Processed Spectral Data<<<<<
177.47	2074.59
177.69	2074.59
177.91	2074.59
178.13	2029.54
178.36	1961.95
178.58	2498.52
178.80	2693.08
179.02	2543.58
179.24	2607.06
179.46	2394.08
179.68	2504.67
179.90	2688.98
180.13	2742.23
180.35	2402.27
180.57	2500.57
180.79	2854.87
181.01	2643.93
181.23	2549.72
181.45	2643.93
181.67	2791.38
181.90	2828.24
182.12	2529.24
182.34	2379.74
182.56	2838.48
182.78	2760.66
183.00	2437.08
183.22	2555.86
183.44	2394.08
183.66	3092.43
183.89	2686.94
184.11	2527.19
184.33	2850.77
184.55	2883.54
184.77	2525.15
184.99	2498.52
185.21	2674.65
185.43	3057.62
185.65	2535.39
185.87	2523.10
186.10	3045.33
186.32	3018.71
186.54	2607.06
186.76	2627.54
186.98	2940.88
187.20	2748.37
187.42	2584.54
187.64	2482.14
187.86	2822.10
188.08	2846.68
188.30	2426.84
188.52	2588.63
188.75	2912.21
188.97	2899.92
189.19	2490.33
189.41	2490.33
189.63	2740.18
189.85	2619.35
190.07	2439.13
190.29	2449.37
190.51	2738.13
190.73	2486.23
190.95	2678.74
191.17	2574.30
191.39	2490.33
191.61	2707.41
191.84	2607.06
192.06	2625.50
192.28	2465.75
192.50	3215.31
192.72	2674.65
192.94	2568.15
193.16	2922.45
193.38	2758.61
193.60	2342.88
193.82	2570.20
194.04	2863.06
194.26	2766.81
194.48	2490.33
194.70	2478.04
194.92	2641.88
195.14	2781.14
195.36	2447.32
195.58	2549.72
195.80	2723.80
196.02	2639.83
196.24	2490.33
196.46	2564.06
196.69	2588.63
196.91	3059.67
197.13	2447.32
197.35	2557.91
197.57	2934.74
197.79	2787.29
198.01	2584.54
198.23	2525.15
198.45	2854.87
198.67	2568.15
198.89	2408.41
199.11	2557.91
199.33	2625.50
199.55	2441.18
199.77	2480.09
199.99	2701.27
200.21	2613.21
200.43	2877.40
200.65	2426.84
200.87	2426.84
201.09	2684.89
201.31	2682.84
201.53	2525.15
201.75	2580.44
201.97	2688.98
202.19	2648.02
202.41	2609.11
202.63	2621.40
202.85	2791.38
203.07	2805.72
203.29	2506.71
203.51	2408.41
203.73	2600.92
203.95	3178.45
204.17	2564.06
204.39	2578.39
204.61	2678.74
204.83	2705.37
205.05	2664.41
205.27	2488.28
205.49	3051.47
205.71	2727.89
205.93	2340.83
206.15	2428.89
206.37	2783.19
206.59	2662.36
206.81	2406.36
207.03	2432.99
207.25	2613.21
207.47	2791.38
207.69	2539.48
207.91	2711.51
208.13	2955.22
208.34	2709.46
208.56	2459.61
208.78	2521.05
209.00	2586.58
209.22	2631.64
209.44	2574.30
209.66	2461.66
209.88	2731.99
210.10	2664.41
210.32	2557.91
210.54	2643.93
210.76	2719.70
210.98	2856.92
211.20	2406.36
211.42	2568.15
211.64	2922.45
211.86	2744.28
212.08	2580.44
212.30	2543.58
212.52	2664.41
212.74	2762.71
212.96	2623.45
213.17	2541.53
213.39	2797.53
213.61	2930.64
213.83	2535.39
214.05	2381.79
214.27	2815.96
214.49	2605.02
214.71	2521.05
214.93	2609.11
215.15	2766.81
215.37	2854.87
215.59	2465.75
215.81	2510.81
216.03	2873.30
216.24	2752.47
216.46	2523.10
216.68	2605.02
216.90	2854.87
217.12	2875.35
217.34	2531.29
217.56	2650.07
217.78	2891.73
218.00	2824.15
218.22	2549.72
218.44	2664.41
218.66	2754.52
218.87	3039.19
219.09	2504.67
219.31	2592.73
219.53	2727.89
219.75	2697.17
219.97	2553.82
220.19	2539.48
220.41	2686.94
220.63	2963.41
220.85	2588.63
221.06	2580.44
221.28	2895.83
221.50	2822.10
221.72	2545.63
221.94	2398.17
222.16	2629.59
222.38	2838.48
222.60	2570.20
222.82	2576.34
223.03	2889.68
223.25	2537.43
223.47	2514.91
223.69	2705.37
223.91	2840.53
224.13	2777.05
224.35	2469.85
224.57	2666.46
224.78	2867.16
225.00	2549.72
225.22	2576.34
225.44	2531.29
225.66	2717.65
225.88	2725.85
226.10	2619.35
226.32	2572.25
226.53	2965.46
226.75	2621.40
226.97	2572.25
227.19	2562.01
227.41	2621.40
227.63	2654.17
227.85	2432.99
228.06	2527.19
228.28	2729.94
228.50	2850.77
228.72	2418.65
228.94	2463.71
229.16	2408.41
229.37	2629.59
229.59	2490.33
229.81	2709.46
230.03	2658.26
230.25	2506.71
230.47	2400.22
230.69	2469.85
230.90	2820.05
231.12	2672.60
231.34	2598.87
231.56	2621.40
231.78	2586.58
232.00	2670.55
232.21	2547.67
232.43	2580.44
232.65	2410.46
232.87	2758.61
233.09	2398.17
233.30	2445.27
233.52	2885.59
233.74	2658.26
233.96	2447.32
234.18	2635.74
234.40	2674.65
234.61	3022.80
234.83	2430.94
235.05	2482.14
235.27	3084.24
235.49	2992.08
235.70	2387.93
235.92	2645.98
236.14	2785.24
236.36	3053.52
236.58	2430.94
236.79	2580.44
237.01	2729.94
237.23	2717.65
237.45	2711.51
237.67	2545.63
237.88	2731.99
238.10	3002.32
238.32	2453.47
238.54	2494.43
238.76	2789.33
238.97	2527.19
239.19	2426.84
239.41	2566.10
239.63	2871.25
239.85	2697.17
240.06	2543.58
240.28	2502.62
240.50	2906.07
240.72	2674.65
240.93	2396.12
241.15	2584.54
241.37	2760.66
241.59	2881.49
241.81	2441.18
242.02	2574.30
242.24	2760.66
242.46	2813.91
242.68	2344.92
242.89	2478.04
243.11	2820.05
243.33	2705.37
243.55	2463.71
243.76	2500.57
243.98	2650.07
244.20	2777.05
244.42	2514.91
244.64	2529.24
244.85	2484.19
245.07	2580.44
245.29	2619.35
245.51	2543.58
245.72	2762.71
245.94	2938.84
246.16	2523.10
246.38	2500.57
246.59	2611.16
246.81	2596.82
247.03	2416.60
247.24	2408.41
247.46	2660.31
247.68	2746.33
247.90	2441.18
248.11	2533.34
248.33	2850.77
248.55	2768.85
248.77	2596.82
248.98	2609.11
249.20	3024.85
249.42	2723.80
249.64	2568.15
249.85	2531.29
250.07	2613.21
250.29	2854.87
250.50	2619.35
250.72	2353.12
250.94	2740.18
251.16	2992.08
251.37	2473.95
251.59	2631.64
251.81	2815.96
252.02	2916.31
252.24	2494.43
252.46	2643.93
252.68	2621.40
252.89	2678.74
253.11	2361.31
253.33	2664.41
253.54	3000.27
253.76	2506.71
253.98	2529.24
254.20	2506.71
254.41	2580.44
254.63	2703.32
254.85	2377.69
255.06	2623.45
255.28	2750.42
255.50	2684.89
255.71	2543.58
255.93	2357.21
256.15	2623.45
256.36	2736.09
256.58	2416.60
256.80	2494.43
257.02	2760.66
257.23	2715.61
257.45	2504.67
257.67	2598.87
257.88	2553.82
258.10	2775.00
258.32	2500.57
258.53	2543.58
258.75	2922.45
258.97	2686.94
259.18	2547.67
259.40	2500.57
259.62	2953.17
259.83	2856.92
260.05	2547.67
260.27	3227.60
260.48	2830.29
260.70	2594.78
260.92	2383.84
261.13	2506.71
261.35	2738.13
261.57	2801.62
261.78	2392.03
262.00	2492.38
262.22	2850.77
262.43	2613.21
262.65	2576.34
262.86	2502.62
263.08	3143.63
263.30	2820.05
263.51	2420.70
263.73	2471.90
263.95	2990.03
264.16	2664.41
264.38	2404.32
264.60	2469.85
264.81	2756.57
265.03	2838.48
265.25	2801.62
265.46	2508.76
265.68	2971.60
265.89	2762.71
266.11	2414.56
266.33	2500.57
266.54	2877.40
266.76	2785.24
266.98	2537.43
267.19	2731.99
267.41	2873.30
267.62	2654.17
267.84	2416.60
268.06	2576.34
268.27	2662.36
268.49	2926.55
268.70	2566.10
268.92	2531.29
269.14	2549.72
269.35	2547.67
269.57	2535.39
269.79	2602.97
270.00	2701.27
270.22	3022.80
270.43	2410.46
270.65	2377.69
270.87	2789.33
271.08	2764.76
271.30	2598.87
271.51	2537.43
271.73	2832.34
271.95	2877.40
272.16	2586.58
272.38	2639.83
272.59	2605.02
272.81	2822.10
273.02	2506.71
273.24	2512.86
273.46	2928.60
273.67	2600.92
273.89	2445.27
274.10	2471.90
274.32	2875.35
274.54	2746.33
274.75	2600.92
274.97	2564.06
275.18	2805.72
275.40	2811.86
275.61	2553.82
275.83	2666.46
276.05	2605.02
276.26	2688.98
276.48	2607.06
276.69	2512.86
276.91	2672.60
277.12	2889.68
277.34	2721.75
277.55	2740.18
277.77	2748.37
277.99	2660.31
278.20	2588.63
278.42	2473.95
278.63	2643.93
278.85	2602.97
279.06	2537.43
279.28	2607.06
279.49	2875.35
279.71	2820.05
279.93	2654.17
280.14	2600.92
280.36	2699.22
280.57	2834.39
280.79	2734.04
281.00	2555.86
281.22	2639.83
281.43	2875.35
281.65	2430.94
281.86	2402.27
282.08	2809.81
282.29	2998.23
282.51	2461.66
282.73	2377.69
282.94	2486.23
283.16	2858.96
283.37	2693.08
283.59	2629.59
283.80	2811.86
284.02	2678.74
284.23	2588.63
284.45	2580.44
284.66	2594.78
284.88	2645.98
285.09	2596.82
285.31	2725.85
285.52	2764.76
285.74	2537.43
285.95	2736.09
286.17	2609.11
286.38	2848.72
286.60	2582.49
286.81	2641.88
287.03	2564.06
287.24	2691.03
287.46	2811.86
287.67	2719.70
287.89	2822.10
288.10	2738.13
288.32	2752.47
288.53	2824.15
288.75	2736.09
288.96	2797.53
289.18	2598.87
289.39	2582.49
289.61	2662.36
289.82	3012.56
290.04	2990.03
290.25	2498.52
290.47	2691.03
290.68	2701.27
290.90	2828.24
291.11	2512.86
291.33	2775.00
291.54	2578.39
291.76	2598.87
291.97	2645.98
292.18	2709.46
292.40	2631.64
292.61	2637.78
292.83	2850.77
293.04	2643.93
293.26	2760.66
293.47	2658.26
293.69	2562.01
293.90	2484.19
294.12	2924.50
294.33	2693.08
294.55	2578.39
294.76	2719.70
294.97	2944.98
295.19	3016.66
295.40	2656.22
295.62	2682.84
295.83	2815.96
296.05	2637.78
296.26	2691.03
296.48	2615.26
296.69	2729.94
296.90	2635.74
297.12	2711.51
297.33	2775.00
297.55	2779.09
297.76	2854.87
297.98	2605.02
298.19	2717.65
298.41	2691.03
298.62	2627.54
298.83	2785.24
299.05	2680.79
299.26	2555.86
299.48	2637.78
299.69	2670.55
299.90	2564.06
300.12	2582.49
300.33	2793.43
300.55	2678.74
300.76	2686.94
300.98	2613.21
301.19	2832.34
301.40	2529.24
301.62	2625.50
301.83	2861.01
302.05	2650.07
302.26	2609.11
302.47	2627.54
302.69	2514.91
302.90	2748.37
303.12	2369.50
303.33	2684.89
303.54	3020.75
303.76	2600.92
303.97	2627.54
304.19	2756.57
304.40	2619.35
304.61	2789.33
304.83	2777.05
305.04	2643.93
305.26	2897.88
305.47	2731.99
305.68	2598.87
305.90	2494.43
306.11	2881.49
306.33	2707.41
306.54	2504.67
306.75	2551.77
306.97	2523.10
307.18	2562.01
307.39	2580.44
307.61	2691.03
307.82	2621.40
308.04	2799.57
308.25	2512.86
308.46	2721.75
308.68	2619.35
308.89	2781.14
309.10	2688.98
309.32	2684.89
309.53	2654.17
309.74	2811.86
309.96	2514.91
310.17	2731.99
310.39	2682.84
310.60	2764.76
310.81	2652.12
311.03	2406.36
311.24	2832.34
311.45	2707.41
311.67	2867.16
311.88	2670.55
312.09	2678.74
312.31	2576.34
312.52	2611.16
312.73	2566.10
312.95	2439.13
313.16	2553.82
313.37	2861.01
313.59	2723.80
313.80	2877.40
314.01	2863.06
314.23	2576.34
314.44	2588.63
314.65	2494.43
314.87	2619.35
315.08	2662.36
315.29	2568.15
315.51	2623.45
315.72	2551.77
315.93	2709.46
316.15	2658.26
316.36	2660.31
316.57	2707.41
316.79	2695.13
317.00	2562.01
317.21	2850.77
317.43	2607.06
317.64	2572.25
317.85	2506.71
318.07	2652.12
318.28	2613.21
318.49	2721.75
318.70	2912.21
318.92	2760.66
319.13	2766.81
319.34	2793.43
319.56	2621.40
319.77	2719.70
319.98	2869.20
320.20	2803.67
320.41	2713.56
320.62	2820.05
320.83	2586.58
321.05	2834.39
321.26	2582.49
321.47	2709.46
321.69	2977.75
321.90	2525.15
322.11	2539.48
322.32	2772.95
322.54	2981.84
322.75	2586.58
322.96	3194.83
323.18	2504.67
323.39	2498.52
323.60	2564.06
323.81	2688.98
324.03	2621.40
324.24	2654.17
324.45	2617.30
324.66	2607.06
324.88	2920.40
325.09	3004.37
325.30	2680.79
325.52	2580.44
325.73	2828.24
325.94	2527.19
326.15	2467.80
326.37	2465.75
326.58	2742.23
326.79	2949.08
327.00	2535.39
327.22	2588.63
327.43	2682.84
327.64	2633.69
327.85	2617.30
328.07	2637.78
328.28	2938.84
328.49	2654.17
328.70	2588.63
328.92	2678.74
329.13	2676.70
329.34	2746.33
329.55	2772.95
329.76	2770.90
329.98	2654.17
330.19	2908.12
330.40	2668.50
330.61	2676.70
330.83	2865.11
331.04	2605.02
331.25	2674.65
331.46	2611.16
331.68	2578.39
331.89	2920.40
332.10	2701.27
332.31	2441.18
332.52	2686.94
332.74	2897.88
332.95	2404.32
333.16	2562.01
333.37	2809.81
333.58	2621.40
333.80	2715.61
334.01	2404.32
334.22	2711.51
334.43	2598.87
334.64	2570.20
334.86	2625.50
335.07	2615.26
335.28	2852.82
335.49	2496.47
335.70	2758.61
335.92	2891.73
336.13	3026.90
336.34	2703.32
336.55	2695.13
336.76	2818.00
336.98	2418.65
337.19	2627.54
337.40	2785.24
337.61	3082.19
337.82	2781.14
338.04	2717.65
338.25	2492.38
338.46	2793.43
338.67	2666.46
338.88	2494.43
339.09	2475.99
339.31	2693.08
339.52	2578.39
339.73	2529.24
339.94	2627.54
340.15	2842.58
340.36	2631.64
340.58	2709.46
340.79	2537.43
341.00	2844.63
341.21	2596.82
341.42	2830.29
341.63	2570.20
341.85	2885.59
342.06	2799.57
342.27	2576.34
342.48	2662.36
342.69	2506.71
342.90	2734.04
343.12	2850.77
343.33	2490.33
343.54	2899.92
343.75	2830.29
343.96	2594.78
344.17	2512.86
344.38	2641.88
344.60	2562.01
344.81	2494.43
345.02	2576.34
345.23	2891.73
345.44	3004.37
345.65	2662.36
345.86	2731.99
346.07	2760.66
346.29	2594.78
346.50	2768.85
346.71	2711.51
346.92	2883.54
347.13	2969.55
347.34	2629.59
347.55	2529.24
347.76	2736.09
347.98	2445.27
348.19	2602.97
348.40	2764.76
348.61	2658.26
348.82	2920.40
349.03	2639.83
349.24	2519.00
349.45	3020.75
349.66	2457.56
349.88	2666.46
350.09	2570.20
350.30	2944.98
350.51	3006.42
350.72	2742.23
350.93	2566.10
351.14	2717.65
351.35	2832.34
351.56	2643.93
351.77	2641.88
351.99	2848.72
352.20	2953.17
352.41	2572.25
352.62	2422.75
352.83	2637.78
353.04	2674.65
353.25	2611.16
353.46	2705.37
353.67	2842.58
353.88	2461.66
354.09	2635.74
354.30	2582.49
354.52	2916.31
354.73	2697.17
354.94	2551.77
355.15	2627.54
355.36	3090.38
355.57	2592.73
355.78	2498.52
355.99	2611.16
356.20	2668.50
356.41	2977.75
356.62	2654.17
356.83	2580.44
357.04	2938.84
357.25	2443.23
357.46	2492.38
357.68	2437.08
357.89	2586.58
358.10	2766.81
358.31	2658.26
358.52	2602.97
358.73	2586.58
358.94	2557.91
359.15	2508.76
359.36	2641.88
359.57	2713.56
359.78	2637.78
359.99	2850.77
360.20	2559.96
360.41	2719.70
360.62	2793.43
360.83	2688.98
361.04	2676.70
361.25	2783.19
361.46	2922.45
361.67	2691.03
361.88	2658.26
362.09	2858.96
362.30	2799.57
362.51	2498.52
362.72	2715.61
362.93	2840.53
363.14	2856.92
363.35	2680.79
363.56	2541.53
363.78	2785.24
363.99	2910.16
364.20	2562.01
364.41	2740.18
364.62	3028.95
364.83	2742.23
365.04	2662.36
365.25	2662.36
365.46	3028.95
365.67	2566.10
365.88	2777.05
366.09	2670.55
366.30	2670.55
366.51	2723.80
366.72	2539.48
366.93	2623.45
367.14	2648.02
367.35	2949.08
367.56	2562.01
367.77	2760.66
367.98	2738.13
368.18	2799.57
368.39	2744.28
368.60	2527.19
368.81	2883.54
369.02	2738.13
369.23	2557.91
369.44	2453.47
369.65	2615.26
369.86	2783.19
370.07	2678.74
370.28	2625.50
370.49	2797.53
370.70	2887.64
370.91	2506.71
371.12	2408.41
371.33	2850.77
371.54	2637.78
371.75	2727.89
371.96	2422.75
372.17	2652.12
372.38	2684.89
372.59	2664.41
372.80	2531.29
373.01	2709.46
373.22	2725.85
373.43	2562.01
373.64	2543.58
373.85	2924.50
374.06	3000.27
374.26	2762.71
374.47	2709.46
374.68	2936.79
374.89	2756.57
375.10	2641.88
375.31	2713.56
375.52	2637.78
375.73	2787.29
375.94	2510.81
376.15	2785.24
376.36	2643.93
376.57	2643.93
376.78	2590.68
376.99	2695.13
377.20	2934.74
377.40	2688.98
377.61	2881.49
377.82	2617.30
378.03	2930.64
378.24	2836.44
378.45	2738.13
378.66	2686.94
378.87	2504.67
379.08	2531.29
379.29	2615.26
379.50	2770.90
379.71	2818.00
379.91	2789.33
380.12	2547.67
380.33	2650.07
380.54	2664.41
380.75	2777.05
380.96	2527.19
381.17	2731.99
381.38	2803.67
381.59	2666.46
381.80	2633.69
382.00	2797.53
382.21	2764.76
382.42	2932.69
382.63	2912.21
382.84	2760.66
383.05	2811.86
383.26	2979.79
383.47	2658.26
383.68	2664.41
383.88	2897.88
384.09	2707.41
384.30	2830.29
384.51	2727.89
384.72	2691.03
384.93	2547.67
385.14	2656.22
385.35	2895.83
385.55	2494.43
385.76	2969.55
385.97	2713.56
386.18	2478.04
386.39	2639.83
386.60	2623.45
386.81	2643.93
387.02	2480.09
387.22	2541.53
387.43	2768.85
387.64	2713.56
387.85	2854.87
388.06	2881.49
388.27	3962.82
388.48	7532.43
388.68	10911.58
388.89	13410.10
389.10	14464.80
389.31	13713.20
389.52	10927.96
389.73	9461.62
389.93	8552.32
390.14	7976.84
390.35	7112.60
390.56	6414.24
390.77	5259.18
390.98	4140.99
391.18	3407.82
391.39	3092.43
391.60	2717.65
391.81	2785.24
392.02	2641.88
392.23	2951.12
392.43	2705.37
392.64	2791.38
392.85	2645.98
393.06	2979.79
393.27	2830.29
393.47	2611.16
393.68	2617.30
393.89	2664.41
394.10	2875.35
394.31	2586.58
394.52	2613.21
394.72	2650.07
394.93	2963.41
395.14	2498.52
395.35	2707.41
395.56	2572.25
395.76	2736.09
395.97	2613.21
396.18	2803.67
396.39	2744.28
396.60	3252.17
396.80	2912.21
397.01	2795.48
397.22	2840.53
397.43	2861.01
397.64	2602.97
397.84	2678.74
398.05	3088.34
398.26	2742.23
398.47	2754.52
398.67	2836.44
398.88	2695.13
399.09	2865.11
399.30	2631.64
399.51	2697.17
399.71	2605.02
399.92	2719.70
400.13	2725.85
400.34	2676.70
400.54	2744.28
400.75	2920.40
400.96	2619.35
401.17	2897.88
401.37	2824.15
401.58	2715.61
401.79	2627.54
402.00	2850.77
402.21	3129.30
402.41	2979.79
402.62	2914.26
402.83	3035.09
403.04	3063.76
403.24	3307.47
403.45	2715.61
403.66	2944.98
403.87	2904.02
404.07	3010.51
404.28	2822.10
404.49	2918.36
404.70	2783.19
404.90	2830.29
405.11	2631.64
405.32	2779.09
405.52	2617.30
405.73	2635.74
405.94	2613.21
406.15	2637.78
406.35	2772.95
406.56	2883.54
406.77	2705.37
406.98	2723.80
407.18	2602.97
407.39	2971.60
407.60	2631.64
407.80	2713.56
408.01	2637.78
408.22	2707.41
408.43	2605.02
408.63	2691.03
408.84	2858.96
409.05	2844.63
409.25	2617.30
409.46	2602.97
409.67	2691.03
409.88	2596.82
410.08	2736.09
410.29	2588.63
410.50	2850.77
410.70	2783.19
410.91	2545.63
411.12	2682.84
411.32	2766.81
411.53	2635.74
411.74	2666.46
411.95	2719.70
412.15	2736.09
412.36	2762.71
412.57	2758.61
412.77	2764.76
412.98	2723.80
413.19	2641.88
413.39	2748.37
413.60	2695.13
413.81	2983.89
414.01	2547.67
414.22	2580.44
414.43	2721.75
414.63	2705.37
414.84	2799.57
415.05	2654.17
415.25	2576.34
415.46	2762.71
415.67	2613.21
415.87	2725.85
416.08	2666.46
416.29	2670.55
416.49	2834.39
416.70	2588.63
416.91	2629.59
417.11	2775.00
417.32	2893.78
417.53	2826.20
417.73	2731.99
417.94	2701.27
418.15	2785.24
418.35	2668.50
418.56	2703.32
418.77	3098.58
418.97	2818.00
419.18	2631.64
419.38	2402.27
419.59	2731.99
419.80	2953.17
420.00	2594.78
420.21	2680.79
420.42	2928.60
420.62	2793.43
420.83	2566.10
421.04	2572.25
421.24	2701.27
421.45	2861.01
421.65	2648.02
421.86	2570.20
422.07	2934.74
422.27	2828.24
422.48	2586.58
422.69	2492.38
422.89	2666.46
423.10	2701.27
423.30	2564.06
423.51	2688.98
423.72	2842.58
423.92	2811.86
424.13	2562.01
424.33	2682.84
424.54	2899.92
424.75	2756.57
424.95	2865.11
425.16	2662.36
425.36	2719.70
425.57	2731.99
425.78	2787.29
425.98	2775.00
426.19	2768.85
426.39	2564.06
426.60	2736.09
426.81	2777.05
427.01	2713.56
427.22	2629.59
427.42	2459.61
427.63	2584.54
427.83	2875.35
428.04	2985.94
428.25	2723.80
428.45	2723.80
428.66	2848.72
428.86	2758.61
429.07	2672.60
429.28	2590.68
429.48	2686.94
429.69	2650.07
429.89	2662.36
430.10	2568.15
430.30	2766.81
430.51	2879.44
430.71	2588.63
430.92	2664.41
431.13	2686.94
431.33	2863.06
431.54	2736.09
431.74	2873.30
431.95	3071.95
432.15	2586.58
432.36	2731.99
432.56	2691.03
432.77	3071.95
432.98	3028.95
433.18	2766.81
433.39	2572.25
433.59	2772.95
433.80	3012.56
434.00	2842.58
434.21	2682.84
434.41	2533.34
434.62	3071.95
434.82	2510.81
435.03	2553.82
435.23	2684.89
435.44	2514.91
435.64	2615.26
435.85	2736.09
436.06	2772.95
436.26	2920.40
436.47	2594.78
436.67	2613.21
436.88	2654.17
437.08	2895.83
437.29	2801.62
437.49	2715.61
437.70	2895.83
437.90	2670.55
438.11	2838.48
438.31	2783.19
438.52	2901.97
438.72	2848.72
438.93	2899.92
439.13	2707.41
439.34	2899.92
439.54	2682.84
439.75	2813.91
439.95	2750.42
440.16	2562.01
440.36	2631.64
440.57	2697.17
440.77	2686.94
440.98	2652.12
441.18	2777.05
441.39	2559.96
441.59	2596.82
441.80	3053.52
442.00	2799.57
442.21	2691.03
442.41	2576.34
442.62	2969.55
442.82	2588.63
443.02	2580.44
443.23	2703.32
443.43	2723.80
443.64	2895.83
443.84	2461.66
444.05	2731.99
444.25	2742.23
444.46	2717.65
444.66	2682.84
444.87	2842.58
445.07	2482.14
445.28	2686.94
445.48	2809.81
445.69	2801.62
445.89	3160.02
446.09	2777.05
446.30	3022.80
446.50	3065.81
446.71	4628.41
446.91	5664.68
447.12	6422.43
447.32	6803.35
447.53	6604.70
447.73	5435.31
447.93	4704.18
448.14	4528.06
448.34	4483.00
448.55	3934.15
448.75	3798.98
448.96	3618.76
449.16	3424.20
449.36	3370.96
449.57	2908.12
449.77	2742.23
449.98	2705.37
450.18	2777.05
450.39	2766.81
450.59	2760.66
450.79	2760.66
451.00	2637.78
451.20	2805.72
451.41	2621.40
451.61	2764.76
451.81	2658.26
452.02	2670.55
452.22	2695.13
452.43	2658.26
452.63	2566.10
452.84	2777.05
453.04	2596.82
453.24	2715.61
453.45	2578.39
453.65	2672.60
453.86	2709.46
454.06	2815.96
454.26	2670.55
454.47	2609.11
454.67	2889.68
454.87	2772.95
455.08	2801.62
455.28	2781.14
455.49	2754.52
455.69	2650.07
455.89	3078.10
456.10	2830.29
456.30	2629.59
456.51	2820.05
456.71	2799.57
456.91	2832.34
457.12	2637.78
457.32	2725.85
457.52	2639.83
457.73	2799.57
457.93	2791.38
458.14	2705.37
458.34	2437.08
458.54	2543.58
458.75	2572.25
458.95	2820.05
459.15	2734.04
459.36	2652.12
459.56	2691.03
459.76	3119.06
459.97	2684.89
460.17	2697.17
460.37	2723.80
460.58	2695.13
460.78	2789.33
460.99	2621.40
461.19	2703.32
461.39	2656.22
461.60	2688.98
461.80	2684.89
462.00	2652.12
462.21	2754.52
462.41	2615.26
462.61	2559.96
462.82	2414.56
463.02	2768.85
463.22	2723.80
463.43	2727.89
463.63	2584.54
463.83	2875.35
464.04	2756.57
464.24	2650.07
464.44	2609.11
464.64	2709.46
464.85	2852.82
465.05	2779.09
465.25	2592.73
465.46	2666.46
465.66	2746.33
465.86	2772.95
466.07	2613.21
466.27	2742.23
466.47	2482.14
466.68	2463.71
466.88	2842.58
467.08	2818.00
467.29	2914.26
467.49	2664.41
467.69	2709.46
467.89	2811.86
468.10	2639.83
468.30	2744.28
468.50	2707.41
468.71	2815.96
468.91	2611.16
469.11	2856.92
469.31	2756.57
469.52	2594.78
469.72	2930.64
469.92	2858.96
470.13	2676.70
470.33	2762.71
470.53	2766.81
470.73	2971.60
470.94	3352.52
471.14	3469.26
471.34	3790.79
471.54	3536.84
471.75	3397.58
471.95	3200.98
472.15	3047.38
472.36	3063.76
472.56	3067.86
472.76	3209.17
472.96	3006.42
473.17	2983.89
473.37	2885.59
473.57	2725.85
473.77	2887.64
473.98	2740.18
474.18	2537.43
474.38	3223.50
474.58	2592.73
474.79	2541.53
474.99	2783.19
475.19	2863.06
475.39	2586.58
475.60	2703.32
475.80	2697.17
476.00	2742.23
476.20	2719.70
476.41	2711.51
476.61	2742.23
476.81	2987.99
477.01	2559.96
477.21	2834.39
477.42	2852.82
477.62	2635.74
477.82	2850.77
478.02	2641.88
478.23	2668.50
478.43	2621.40
478.63	2578.39
478.83	2691.03
479.03	2609.11
479.24	2934.74
479.44	2990.03
479.64	2572.25
479.84	2463.71
480.04	2611.16
480.25	2863.06
480.45	2588.63
480.65	2682.84
480.85	2875.35
481.06	2633.69
481.26	2697.17
481.46	2664.41
481.66	2709.46
481.86	2582.49
482.06	2820.05
482.27	2660.31
482.47	2682.84
482.67	2811.86
482.87	2656.22
483.07	2744.28
483.28	2662.36
483.48	2594.78
483.68	2682.84
483.88	2523.10
484.08	2379.74
484.29	2555.86
484.49	2729.94
484.69	2516.95
484.89	2889.68
485.09	2922.45
485.29	2674.65
485.50	2826.20
485.70	2654.17
485.90	2940.88
486.10	2740.18
486.30	2691.03
486.50	2967.51
486.71	2742.23
486.91	2777.05
487.11	2736.09
487.31	2555.86
487.51	2775.00
487.71	2555.86
487.91	2586.58
488.12	2537.43
488.32	2453.47
488.52	2588.63
488.72	2398.17
488.92	2711.51
489.12	2815.96
489.32	2756.57
489.53	2723.80
489.73	2529.24
489.93	2957.27
490.13	2654.17
490.33	2482.14
490.53	2750.42
490.73	2918.36
490.94	2488.28
491.14	2799.57
491.34	2768.85
491.54	2918.36
491.74	3563.47
491.94	4048.83
492.14	4417.47
492.34	4476.86
492.54	4128.70
492.75	3551.18
492.95	3659.72
493.15	3366.86
493.35	3327.95
493.55	3301.33
493.75	3086.29
493.95	3268.56
494.15	2891.73
494.35	2705.37
494.56	2820.05
494.76	2578.39
494.96	2731.99
495.16	2676.70
495.36	2693.08
495.56	2715.61
495.76	2674.65
495.96	2613.21
496.16	2711.51
496.36	3022.80
496.56	2633.69
496.77	2756.57
496.97	2695.13
497.17	2936.79
497.37	2549.72
497.57	2729.94
497.77	2764.76
497.97	2631.64
498.17	2713.56
498.37	2592.73
498.57	2787.29
498.77	2678.74
498.97	2799.57
499.17	2965.46
499.38	2662.36
499.58	2897.88
499.78	2828.24
499.98	2750.42
500.18	2602.97
500.38	2570.20
500.58	2881.49
500.78	3260.37
500.98	5353.39
501.18	7274.38
501.38	8681.34
501.58	9545.58
501.78	9385.84
501.98	7745.42
502.18	6598.56
502.38	5590.95
502.58	5334.96
502.78	4827.06
502.98	4562.87
503.18	4384.70
503.38	4061.12
503.59	3600.33
503.79	3385.29
503.99	3223.50
504.19	3221.45
504.39	3145.68
504.59	3151.82
504.79	3117.01
504.99	3323.85
505.19	2951.12
505.39	2775.00
505.59	3037.14
505.79	2961.36
505.99	2912.21
506.19	2783.19
506.39	2901.97
506.59	2725.85
506.79	2635.74
506.99	2775.00
507.19	2727.89
507.39	2770.90
507.59	2482.14
507.79	2594.78
507.99	2619.35
508.19	2729.94
508.39	2619.35
508.59	2758.61
508.79	2760.66
508.99	2965.46
509.19	2684.89
509.39	2731.99
509.59	2551.77
509.79	2611.16
509.99	2695.13
510.19	2834.39
510.39	2738.13
510.59	2744.28
510.79	2701.27
510.99	2486.23
511.19	2586.58
511.39	2965.46
511.59	2875.35
511.79	2742.23
511.99	2678.74
512.19	3055.57
512.38	2738.13
512.58	2547.67
512.78	2572.25
512.98	2953.17
513.18	2965.46
513.38	2529.24
513.58	2727.89
513.78	2617.30
513.98	2676.70
514.18	2613.21
514.38	2670.55
514.58	2736.09
514.78	2691.03
514.98	2582.49
515.18	2584.54
515.38	2666.46
515.58	2990.03
515.78	2680.79
515.98	2605.02
516.18	2803.67
516.38	2785.24
516.57	2582.49
516.77	2617.30
516.97	2777.05
517.17	2670.55
517.37	2432.99
517.57	2711.51
517.77	2596.82
517.97	2562.01
518.17	2738.13
518.37	2629.59
518.57	2672.60
518.77	2738.13
518.97	2609.11
519.16	2707.41
519.36	2916.31
519.56	2639.83
519.76	2619.35
519.96	2664.41
520.16	2967.51
520.36	2574.30
520.56	2779.09
520.76	2670.55
520.96	2684.89
521.16	2815.96
521.35	2764.76
521.55	2744.28
521.75	2775.00
521.95	2660.31
522.15	2627.54
522.35	2420.70
522.55	2613.21
522.75	2766.81
522.95	2543.58
523.14	2535.39
523.34	2713.56
523.54	2695.13
523.74	2762.71
523.94	2654.17
524.14	2617.30
524.34	2838.48
524.54	2815.96
524.73	2654.17
524.93	2873.30
525.13	2723.80
525.33	2519.00
525.53	2924.50
525.73	2867.16
525.93	2736.09
526.13	2674.65
526.32	2588.63
526.52	2883.54
526.72	2813.91
526.92	2678.74
527.12	2590.68
527.32	2502.62
527.52	2781.14
527.71	2760.66
527.91	2617.30
528.11	2588.63
528.31	2731.99
528.51	2633.69
528.71	2684.89
528.90	2863.06
529.10	2852.82
529.30	2762.71
529.50	2478.04
529.70	2848.72
529.90	2750.42
530.09	2629.59
530.29	2578.39
530.49	2551.77
530.69	3145.68
530.89	2719.70
531.09	2752.47
531.28	2693.08
531.48	2887.64
531.68	2637.78
531.88	2742.23
532.08	2836.44
532.28	2682.84
532.47	2719.70
532.67	2746.33
532.87	2785.24
533.07	2586.58
533.27	2633.69
533.46	2797.53
533.66	2734.04
533.86	2731.99
534.06	2691.03
534.26	2633.69
534.45	2699.22
534.65	2879.44
534.85	2686.94
535.05	2650.07
535.25	2932.69
535.44	2519.00
535.64	2783.19
535.84	2693.08
536.04	2662.36
536.24	2664.41
536.43	2617.30
536.63	2670.55
536.83	2736.09
537.03	2719.70
537.22	2570.20
537.42	2502.62
537.62	2762.71
537.82	2523.10
538.02	2811.86
538.21	2748.37
538.41	3174.35
538.61	2783.19
538.81	2637.78
539.00	2760.66
539.20	2539.48
539.40	2639.83
539.60	2711.51
539.79	2787.29
539.99	2678.74
540.19	2650.07
540.39	2586.58
540.58	2803.67
540.78	2912.21
540.98	2748.37
541.18	2752.47
541.37	2695.13
541.57	2678.74
541.77	2779.09
541.97	2529.24
542.16	2533.34
542.36	2729.94
542.56	2625.50
542.76	2940.88
542.95	2742.23
543.15	2834.39
543.35	2828.24
543.54	2586.58
543.74	2529.24
543.94	3024.85
544.14	2637.78
544.33	2697.17
544.53	2637.78
544.73	2709.46
544.93	2688.98
545.12	2621.40
545.32	2643.93
545.52	2648.02
545.71	2555.86
545.91	2568.15
546.11	2650.07
546.30	2625.50
546.50	2772.95
546.70	2768.85
546.90	2660.31
547.09	2533.34
547.29	2744.28
547.49	2842.58
547.68	2576.34
547.88	2715.61
548.08	2754.52
548.27	3098.58
548.47	2562.01
548.67	2711.51
548.87	2742.23
549.06	2570.20
549.26	2703.32
549.46	2777.05
549.65	2695.13
549.85	2650.07
550.05	2725.85
550.24	2605.02
550.44	2750.42
550.64	2701.27
550.83	2637.78
551.03	2899.92
551.23	2867.16
551.42	2643.93
551.62	2678.74
551.82	2748.37
552.01	2695.13
552.21	2826.20
552.41	2629.59
552.60	2877.40
552.80	2676.70
553.00	2643.93
553.19	2664.41
553.39	3030.99
553.59	2570.20
553.78	2682.84
553.98	2654.17
554.17	2623.45
554.37	2748.37
554.57	2721.75
554.76	2568.15
554.96	2637.78
555.16	2793.43
555.35	2674.65
555.55	2779.09
555.75	2748.37
555.94	2891.73
556.14	2482.14
556.33	2713.56
556.53	2688.98
556.73	2768.85
556.92	2783.19
557.12	2740.18
557.32	2981.84
557.51	2967.51
557.71	2695.13
557.90	2861.01
558.10	2865.11
558.30	2668.50
558.49	2613.21
558.69	2617.30
558.88	2858.96
559.08	2760.66
559.28	2637.78
559.47	2666.46
559.67	2889.68
559.86	3026.90
560.06	2652.12
560.26	2656.22
560.45	2725.85
560.65	2707.41
560.84	2858.96
561.04	2531.29
561.24	2750.42
561.43	2568.15
561.63	2930.64
561.82	2721.75
562.02	2899.92
562.22	2613.21
562.41	2578.39
562.61	2635.74
562.80	2559.96
563.00	3067.86
563.19	2684.89
563.39	2719.70
563.59	2809.81
563.78	2555.86
563.98	2449.37
564.17	2641.88
564.37	2492.38
564.56	2762.71
564.76	2555.86
564.96	2779.09
565.15	2787.29
565.35	3153.87
565.54	2652.12
565.74	2736.09
565.93	2731.99
566.13	2701.27
566.32	2785.24
566.52	2758.61
566.71	2697.17
566.91	2885.59
567.11	2791.38
567.30	2609.11
567.50	2736.09
567.69	2875.35
567.89	2676.70
568.08	2555.86
568.28	2832.34
568.47	2549.72
568.67	2731.99
568.86	2617.30
569.06	2834.39
569.25	2680.79
569.45	2592.73
569.64	2611.16
569.84	2693.08
570.04	2707.41
570.23	2643.93
570.43	2619.35
570.62	2758.61
570.82	2940.88
571.01	2504.67
571.21	2564.06
571.40	2656.22
571.60	2834.39
571.79	2660.31
571.99	2656.22
572.18	2645.98
572.38	2699.22
572.57	2662.36
572.77	2736.09
572.96	3086.29
573.16	2832.34
573.35	2648.02
573.55	2828.24
573.74	2818.00
573.94	2711.51
574.13	2611.16
574.33	2834.39
574.52	2955.22
574.71	2676.70
574.91	2684.89
575.10	2482.14
575.30	2672.60
575.49	2596.82
575.69	2658.26
575.88	2760.66
576.08	2594.78
576.27	2856.92
576.47	2711.51
576.66	2875.35
576.86	2854.87
577.05	2758.61
577.25	2738.13
577.44	2848.72
577.64	2635.74
577.83	2826.20
578.02	2582.49
578.22	2840.53
578.41	2998.23
578.61	2605.02
578.80	2484.19
579.00	2723.80
579.19	2779.09
579.39	2717.65
579.58	2734.04
579.77	2727.89
579.97	2928.60
580.16	2865.11
580.36	2805.72
580.55	2844.63
580.75	2768.85
580.94	2717.65
581.13	2883.54
581.33	2908.12
581.52	2717.65
581.72	3047.38
581.91	2779.09
582.11	2629.59
582.30	2822.10
582.49	2725.85
582.69	2901.97
582.88	2803.67
583.08	2791.38
583.27	2879.44
583.47	2775.00
583.66	2643.93
583.85	2619.35
584.05	2625.50
584.24	2797.53
584.44	2731.99
584.63	2918.36
584.82	2918.36
585.02	2930.64
585.21	2852.82
585.41	2875.35
585.60	2846.68
585.79	2940.88
585.99	3071.95
586.18	2803.67
586.37	3450.83
586.57	5388.21
586.76	15875.85
586.96	34770.41
587.15	47967.52
587.34	56732.83
587.54	61305.94
587.73	54697.15
587.93	38725.04
588.12	29496.89
588.31	23772.82
588.51	21010.11
588.70	19291.87
588.89	16916.22
589.09	14739.23
589.28	12629.82
589.47	9867.11
589.67	7657.36
589.86	6066.08
590.06	4509.63
590.25	3887.04
590.44	3399.63
590.64	3080.14
590.83	3004.37
591.02	2940.88
591.22	2781.14
591.41	2719.70
591.60	2781.14
591.80	3151.82
591.99	2535.39
592.18	2682.84
592.38	2813.91
592.57	2666.46
592.76	2752.47
592.96	2744.28
593.15	2641.88
593.34	2854.87
593.54	2670.55
593.73	2754.52
593.92	2754.52
594.12	2842.58
594.31	2744.28
594.50	2934.74
594.70	2826.20
594.89	3135.44
595.08	2523.10
595.28	2830.29
595.47	3145.68
595.66	2922.45
595.86	2584.54
596.05	2594.78
596.24	2639.83
596.43	3037.14
596.63	2828.24
596.82	2680.79
597.01	2834.39
597.21	3047.38
597.40	2654.17
597.59	2795.48
597.79	2678.74
597.98	2920.40
598.17	2799.57
598.36	2699.22
598.56	2865.11
598.75	2562.01
598.94	2711.51
599.14	2703.32
599.33	2686.94
599.52	2783.19
599.71	2760.66
599.91	2717.65
600.10	2820.05
600.29	2760.66
600.48	2691.03
600.68	2818.00
600.87	2858.96
601.06	2629.59
601.26	2703.32
601.45	2736.09
601.64	2701.27
601.83	2973.65
602.03	2553.82
602.22	2568.15
602.41	2932.69
602.60	3117.01
602.80	2768.85
602.99	2758.61
603.18	2619.35
603.37	2729.94
603.57	2650.07
603.76	2641.88
603.95	2865.11
604.14	2633.69
604.34	2543.58
604.53	2686.94
604.72	2787.29
604.91	2818.00
605.10	2684.89
605.30	2555.86
605.49	3006.42
605.68	2852.82
605.87	2684.89
606.07	2586.58
606.26	2787.29
606.45	2805.72
606.64	2701.27
606.84	2643.93
607.03	2777.05
607.22	2924.50
607.41	2762.71
607.60	2654.17
607.80	2881.49
607.99	2719.70
608.18	2725.85
608.37	2623.45
608.56	2688.98
608.76	2842.58
608.95	2912.21
609.14	2674.65
609.33	2877.40
609.52	3020.75
609.72	2742.23
609.91	2865.11
610.10	2740.18
610.29	3000.27
610.48	2775.00
610.68	2818.00
610.87	2654.17
611.06	2873.30
611.25	2574.30
611.44	2846.68
611.63	2691.03
611.83	2963.41
612.02	2469.85
612.21	2826.20
612.40	2504.67
612.59	2615.26
612.79	2553.82
612.98	2684.89
613.17	2891.73
613.36	2775.00
613.55	2848.72
613.74	2650.07
613.93	2793.43
614.13	2918.36
614.32	2879.44
614.51	2779.09
614.70	2754.52
614.89	2744.28
615.08	2742.23
615.28	3071.95
615.47	2541.53
615.66	2781.14
615.85	2797.53
616.04	2785.24
616.23	2738.13
616.42	2756.57
616.62	2701.27
616.81	2609.11
617.00	2660.31
617.19	2850.77
617.38	2693.08
617.57	2785.24
617.76	2826.20
617.95	2910.16
618.15	2719.70
618.34	2883.54
618.53	2482.14
618.72	2852.82
618.91	2844.63
619.10	2793.43
619.29	2740.18
619.48	2682.84
619.68	2590.68
619.87	2613.21
620.06	2596.82
620.25	2777.05
620.44	2586.58
620.63	2605.02
620.82	2795.48
621.01	2678.74
621.20	2697.17
621.39	2674.65
621.59	2791.38
621.78	2641.88
621.97	2682.84
622.16	2828.24
622.35	2760.66
622.54	2838.48
622.73	2797.53
622.92	2553.82
623.11	2949.08
623.30	2652.12
623.49	2781.14
623.68	2621.40
623.88	2977.75
624.07	2680.79
624.26	2633.69
624.45	2680.79
624.64	2772.95
624.83	2754.52
625.02	2619.35
625.21	2594.78
625.40	2811.86
625.59	2848.72
625.78	2678.74
625.97	2801.62
626.16	2908.12
626.35	2781.14
626.54	2707.41
626.74	2955.22
626.93	2664.41
627.12	2684.89
627.31	2779.09
627.50	2746.33
627.69	2899.92
627.88	2629.59
628.07	2709.46
628.26	2449.37
628.45	2629.59
628.64	2566.10
628.83	2686.94
629.02	2463.71
629.21	2791.38
629.40	2668.50
629.59	2635.74
629.78	2602.97
629.97	2652.12
630.16	2781.14
630.35	2637.78
630.54	2652.12
630.73	2586.58
630.92	2744.28
631.11	2607.06
631.30	2676.70
631.49	2873.30
631.68	2744.28
631.87	2654.17
632.06	2461.66
632.25	3084.24
632.44	2711.51
632.63	2758.61
632.82	2711.51
633.01	2691.03
633.20	2734.04
633.39	2707.41
633.58	2519.00
633.77	2836.44
633.96	2832.34
634.15	2820.05
634.34	2822.10
634.53	2836.44
634.72	2666.46
634.91	2531.29
635.10	2766.81
635.29	2867.16
635.48	2727.89
635.67	2562.01
635.86	2506.71
636.05	2863.06
636.24	2688.98
636.43	2613.21
636.62	2756.57
636.81	2387.93
637.00	2729.94
637.19	2684.89
637.38	2678.74
637.57	2627.54
637.76	2674.65
637.95	2752.47
638.14	2643.93
638.33	2836.44
638.52	2854.87
638.71	2574.30
638.89	2516.95
639.08	3184.59
639.27	2811.86
639.46	2844.63
639.65	3168.21
639.84	3219.41
640.03	3231.69
640.22	3090.38
640.41	3078.10
640.60	2899.92
640.79	2918.36
640.98	2846.68
641.17	2813.91
641.36	2834.39
641.55	2918.36
641.74	2645.98
641.92	2562.01
642.11	2555.86
642.30	2684.89
642.49	2611.16
642.68	2613.21
642.87	2729.94
643.06	2777.05
643.25	2504.67
643.44	2625.50
643.63	2707.41
643.82	2822.10
644.00	2523.10
644.19	2670.55
644.38	2582.49
644.57	2789.33
644.76	2648.02
644.95	2678.74
645.14	2740.18
645.33	2703.32
645.52	2674.65
645.71	2449.37
645.89	2592.73
646.08	2725.85
646.27	2643.93
646.46	2873.30
646.65	2555.86
646.84	2775.00
647.03	2564.06
647.22	2787.29
647.40	2746.33
647.59	2678.74
647.78	2482.14
647.97	2609.11
648.16	2629.59
648.35	2920.40
648.54	2822.10
648.73	2711.51
648.91	2887.64
649.10	2813.91
649.29	2584.54
649.48	2580.44
649.67	2854.87
649.86	2711.51
650.05	2662.36
650.23	2844.63
650.42	2719.70
650.61	2926.55
650.80	2830.29
650.99	2947.03
651.18	2836.44
651.36	2908.12
651.55	2619.35
651.74	2840.53
651.93	2678.74
652.12	2727.89
652.31	2666.46
652.49	2736.09
652.68	2654.17
652.87	2883.54
653.06	2709.46
653.25	2881.49
653.44	2762.71
653.62	2926.55
653.81	2580.44
654.00	2592.73
654.19	2861.01
654.38	3174.35
654.56	2656.22
654.75	2670.55
654.94	2887.64
655.13	2688.98
655.32	2633.69
655.51	2772.95
655.69	2666.46
655.88	2858.96
656.07	2500.57
656.26	2697.17
656.45	2613.21
656.63	2793.43
656.82	2682.84
657.01	2865.11
657.20	2602.97
657.38	2901.97
657.57	2662.36
657.76	2533.34
657.95	2897.88
658.14	2621.40
658.32	2752.47
658.51	2562.01
658.70	2725.85
658.89	2840.53
659.08	2707.41
659.26	2893.78
659.45	2594.78
659.64	2789.33
659.83	2623.45
660.01	3067.86
660.20	2768.85
660.39	2955.22
660.58	2367.45
660.76	2777.05
660.95	2541.53
661.14	2686.94
661.33	2420.70
661.51	2611.16
661.70	2605.02
661.89	2840.53
662.08	2611.16
662.26	2480.09
662.45	2600.92
662.64	3057.62
662.83	2670.55
663.01	2545.63
663.20	2676.70
663.39	2938.84
663.58	2670.55
663.76	2607.06
663.95	2783.19
664.14	2586.58
664.32	2641.88
664.51	2564.06
664.70	2535.39
664.89	2820.05
665.07	2537.43
665.26	2779.09
665.45	2605.02
665.64	2787.29
665.82	2678.74
666.01	2736.09
666.20	2521.05
666.38	2822.10
666.57	2883.54
666.76	4382.65
666.95	10168.16
667.13	16838.40
667.32	21059.26
667.51	23723.67
667.69	25007.75
667.88	21491.38
668.07	15429.40
668.25	12861.24
668.44	10954.58
668.63	9422.70
668.81	8433.54
669.00	7258.00
669.19	6635.42
669.38	5740.46
669.56	5070.77
669.75	4247.49
669.94	3829.70
670.12	3229.65
670.31	3006.42
670.50	2998.23
670.68	3004.37
670.87	2844.63
671.06	2711.51
671.24	2688.98
671.43	2938.84
671.62	2760.66
671.80	2691.03
671.99	2746.33
672.18	2758.61
672.36	2840.53
672.55	2695.13
672.74	2711.51
672.92	2709.46
673.11	2813.91
673.29	2531.29
673.48	2738.13
673.67	2684.89
673.85	2883.54
674.04	2600.92
674.23	2772.95
674.41	3020.75
674.60	2584.54
674.79	2471.90
674.97	2551.77
675.16	2777.05
675.34	2895.83
675.53	2650.07
675.72	2754.52
675.90	2998.23
676.09	2731.99
676.28	2676.70
676.46	2475.99
676.65	2805.72
676.83	2611.16
677.02	2719.70
677.21	2754.52
677.39	2775.00
677.58	2543.58
677.77	2539.48
677.95	2605.02
678.14	2660.31
678.32	2645.98
678.51	2645.98
678.70	2981.84
678.88	2629.59
679.07	2701.27
679.25	2703.32
679.44	2594.78
679.63	2510.81
679.81	2768.85
680.00	2826.20
680.18	2748.37
680.37	2895.83
680.55	2717.65
680.74	2473.95
680.93	2467.80
681.11	2772.95
681.30	2703.32
681.48	2713.56
681.67	2652.12
681.85	2723.80
682.04	2594.78
682.23	2809.81
682.41	2607.06
682.60	2670.55
682.78	2676.70
682.97	2545.63
683.15	2621.40
683.34	2752.47
683.53	2897.88
683.71	2496.47
683.90	2781.14
684.08	2938.84
684.27	2719.70
684.45	2705.37
684.64	2856.92
684.82	2785.24
685.01	2809.81
685.19	2590.68
685.38	2895.83
685.57	2645.98
685.75	2654.17
685.94	2605.02
686.12	2613.21
686.31	2619.35
686.49	3002.32
686.68	2451.42
686.86	2711.51
687.05	2666.46
687.23	2975.70
687.42	2586.58
687.60	2412.51
687.79	2822.10
687.97	2830.29
688.16	2772.95
688.34	2836.44
688.53	2502.62
688.71	2797.53
688.90	2873.30
689.08	2574.30
689.27	2469.85
689.45	2807.77
689.64	2721.75
689.82	2734.04
690.01	2723.80
690.19	2691.03
690.38	2686.94
690.56	2791.38
690.75	2564.06
690.93	2723.80
691.12	2539.48
691.30	2676.70
691.49	2707.41
691.67	2697.17
691.86	3006.42
692.04	2650.07
692.23	2654.17
692.41	2670.55
692.60	2990.03
692.78	2889.68
692.97	2729.94
693.15	2916.31
693.34	2969.55
693.52	2863.06
693.71	2707.41
693.89	2596.82
694.08	2502.62
694.26	2697.17
694.44	2809.81
694.63	2791.38
694.81	2570.20
695.00	2605.02
695.18	2920.40
695.37	3123.15
695.55	2834.39
695.74	2637.78
695.92	2637.78
696.10	2865.11
696.29	2521.05
696.47	2611.16
696.66	2557.91
696.84	2551.77
697.03	2637.78
697.21	2879.44
697.40	4124.61
697.58	3006.42
697.76	2670.55
697.95	2570.20
698.13	2574.30
698.32	2645.98
698.50	2691.03
698.68	2750.42
698.87	2779.09
699.05	2899.92
699.24	2637.78
699.42	2506.71
699.61	2781.14
699.79	2682.84
699.97	2654.17
700.16	2533.34
700.34	2541.53
700.53	2674.65
700.71	2863.06
700.89	2799.57
701.08	2666.46
701.26	2744.28
701.45	3139.54
701.63	2605.02
701.81	2695.13
702.00	2635.74
702.18	2684.89
702.37	2678.74
702.55	2910.16
702.73	2811.86
702.92	2707.41
703.10	2916.31
703.28	2848.72
703.47	2605.02
703.65	2942.93
703.84	2768.85
704.02	2697.17
704.20	3004.37
704.39	2615.26
704.57	2609.11
704.75	2914.26
704.94	2820.05
705.12	2772.95
705.30	3137.49
705.49	5930.92
705.67	11894.60
705.86	17565.43
706.04	20451.02
706.22	22685.35
706.41	22539.94
706.59	17770.22
706.77	13305.65
706.96	11317.08
707.14	10352.48
707.32	9004.92
707.51	8064.90
707.69	6494.11
707.87	5312.43
708.06	4401.08
708.24	3891.14
708.42	3405.77
708.61	3393.48
708.79	2723.80
708.97	2725.85
709.16	2826.20
709.34	2791.38
709.52	2531.29
709.71	2684.89
709.89	2885.59
710.07	2580.44
710.26	2672.60
710.44	2719.70
710.62	2803.67
710.80	2707.41
710.99	2758.61
711.17	2787.29
711.35	2660.31
711.54	2641.88
711.72	2772.95
711.90	2727.89
712.09	2731.99
712.27	2605.02
712.45	2740.18
712.63	2654.17
712.82	2711.51
713.00	2633.69
713.18	2760.66
713.37	2719.70
713.55	2813.91
713.73	2770.90
713.91	2699.22
714.10	2643.93
714.28	2635.74
714.46	2676.70
714.65	2760.66
714.83	2744.28
715.01	2643.93
715.19	2748.37
715.38	2602.97
715.56	2754.52
715.74	2580.44
715.92	2605.02
716.11	2871.25
716.29	2408.41
716.47	2648.02
716.65	2682.84
716.84	2557.91
717.02	2803.67
717.20	2512.86
717.38	2633.69
717.57	2711.51
717.75	2693.08
717.93	2602.97
718.11	2805.72
718.30	2500.57
718.48	2725.85
718.66	2854.87
718.84	2803.67
719.03	2705.37
719.21	2555.86
719.39	2990.03
719.57	2756.57
719.75	2752.47
719.94	2631.64
720.12	2672.60
720.30	2738.13
720.48	2746.33
720.67	2568.15
720.85	2611.16
721.03	2594.78
721.21	2621.40
721.39	2787.29
721.58	2756.57
721.76	2662.36
721.94	2715.61
722.12	2777.05
722.30	2979.79
722.49	2662.36
722.67	2691.03
722.85	2695.13
723.03	2547.67
723.21	2594.78
723.40	2715.61
723.58	2826.20
723.76	2922.45
723.94	2893.78
724.12	2693.08
724.30	2910.16
724.49	2873.30
724.67	2580.44
724.85	2785.24
725.03	2570.20
725.21	2828.24
725.40	2858.96
725.58	2580.44
725.76	2836.44
725.94	2717.65
726.12	2473.95
726.30	2660.31
726.49	2582.49
726.67	2666.46
726.85	2805.72
727.03	3121.10
727.21	4097.99
727.39	5169.07
727.57	5607.34
727.76	6080.42
727.94	6272.93
728.12	5552.04
728.30	4673.46
728.48	4329.41
728.66	3973.06
728.84	3667.91
729.03	3270.61
729.21	3151.82
729.39	3092.43
729.57	2899.92
729.75	2811.86
729.93	2758.61
730.11	2594.78
730.30	2678.74
730.48	2748.37
730.66	2809.81
730.84	2828.24
731.02	2711.51
731.20	2662.36
731.38	2641.88
731.56	2504.67
731.74	2668.50
731.93	2695.13
732.11	2684.89
732.29	2566.10
732.47	2844.63
732.65	2736.09
732.83	2852.82
733.01	2826.20
733.19	2576.34
733.37	2826.20
733.56	2699.22
733.74	2570.20
733.92	2965.46
734.10	2678.74
734.28	2818.00
734.46	2441.18
734.64	2744.28
734.82	2695.13
735.00	2523.10
735.18	2566.10
735.36	2654.17
735.54	2674.65
735.73	2613.21
735.91	2785.24
736.09	2924.50
736.27	2703.32
736.45	2785.24
736.63	2373.60
736.81	2592.73
736.99	2918.36
737.17	2883.54
737.35	2555.86
737.53	2756.57
737.71	2691.03
737.89	2834.39
738.07	2545.63
738.25	2629.59
738.43	2506.71
738.61	2592.73
738.80	2527.19
738.98	2562.01
739.16	2621.40
739.34	2578.39
739.52	2799.57
739.70	2662.36
739.88	2848.72
740.06	2815.96
740.24	2402.27
740.42	2901.97
740.60	2527.19
740.78	2645.98
740.96	2473.95
741.14	2625.50
741.32	2703.32
741.50	2478.04
741.68	2881.49
741.86	2953.17
742.04	2576.34
742.22	2605.02
742.40	2684.89
742.58	2838.48
742.76	2539.48
742.94	2826.20
743.12	2439.13
743.30	2756.57
743.48	2830.29
743.66	2531.29
743.84	2678.74
744.02	2615.26
744.20	2695.13
744.38	2516.95
744.56	2623.45
744.74	2938.84
744.92	2797.53
745.10	2824.15
745.28	2748.37
745.46	2973.65
745.64	2697.17
745.82	2707.41
746.00	2652.12
746.18	2801.62
746.36	2514.91
746.54	2693.08
746.72	2666.46
746.90	2555.86
747.08	2885.59
747.26	2674.65
747.44	2838.48
747.62	2791.38
747.80	2826.20
747.98	2760.66
748.15	2688.98
748.33	2971.60
748.51	2713.56
748.69	2750.42
748.87	2519.00
749.05	2670.55
749.23	2674.65
749.41	2715.61
749.59	2674.65
749.77	2854.87
749.95	2635.74
750.13	2688.98
750.31	2711.51
750.49	2721.75
750.67	2793.43
750.85	2799.57
751.03	2619.35
751.20	3014.61
751.38	2734.04
751.56	2637.78
751.74	2656.22
751.92	2637.78
752.10	2521.05
752.28	2795.48
752.46	2670.55
752.64	2678.74
752.82	2703.32
753.00	2775.00
753.18	2701.27
753.35	2676.70
753.53	2637.78
753.71	2650.07
753.89	2770.90
754.07	2731.99
754.25	2834.39
754.43	2691.03
754.61	2527.19
754.79	2791.38
754.97	2756.57
755.14	2842.58
755.32	2480.09
755.50	2734.04
755.68	2809.81
755.86	2547.67
756.04	2641.88
756.22	2506.71
756.40	2854.87
756.57	2893.78
756.75	2721.75
756.93	2832.34
757.11	2826.20
757.29	2535.39
757.47	2492.38
757.65	2506.71
757.82	2387.93
758.00	2553.82
758.18	2615.26
758.36	2594.78
758.54	2936.79
758.72	2504.67
758.90	2772.95
759.07	2799.57
759.25	2586.58
759.43	2727.89
759.61	2594.78
759.79	3854.28
759.97	2801.62
760.15	2600.92
760.32	2580.44
760.50	2785.24
760.68	2936.79
760.86	2453.47
761.04	2789.33
761.22	2811.86
761.39	2744.28
761.57	2803.67
761.75	2637.78
761.93	2807.77
762.11	2674.65
762.28	2701.27
762.46	2607.06
762.64	2858.96
762.82	2570.20
763.00	2631.64
763.18	2703.32
763.35	2535.39
763.53	2748.37
763.71	2711.51
763.89	2637.78
764.07	2711.51
764.24	2707.41
764.42	2807.77
764.60	2658.26
764.78	2686.94
764.96	2867.16
765.13	2793.43
765.31	2629.59
765.49	2791.38
765.67	2613.21
765.84	2584.54
766.02	2656.22
766.20	2539.48
766.38	2783.19
766.56	2824.15
766.73	2840.53
766.91	2670.55
767.09	2682.84
767.27	2652.12
767.44	2545.63
767.62	2813.91
767.80	2682.84
767.98	2725.85
768.15	2645.98
768.33	2764.76
768.51	2799.57
768.69	2854.87
768.87	2711.51
769.04	2719.70
769.22	3135.44
769.40	2791.38
769.58	2818.00
769.75	2740.18
769.93	2877.40
770.11	2617.30
770.28	2596.82
770.46	2934.74
770.64	2645.98
770.82	2641.88
770.99	2611.16
771.17	2781.14
771.35	2660.31
771.53	2688.98
771.70	2703.32
771.88	2717.65
772.06	2674.65
772.23	2625.50
772.41	2723.80
772.59	2660.31
772.77	2639.83
772.94	2598.87
773.12	2764.76
773.30	2760.66
773.47	2760.66
773.65	2586.58
773.83	2826.20
774.01	2711.51
774.18	2473.95
774.36	2641.88
774.54	2437.08
774.71	2760.66
774.89	2543.58
775.07	2605.02
775.24	2650.07
775.42	2568.15
775.60	2949.08
775.78	2691.03
775.95	2596.82
776.13	2531.29
776.31	2467.80
776.48	2729.94
776.66	2830.29
776.84	2686.94
777.01	2584.54
777.19	2602.97
777.37	2619.35
777.54	2815.96
777.72	3012.56
777.90	2715.61
778.07	2600.92
778.25	3209.17
778.43	2803.67
778.60	2568.15
778.78	2684.89
778.96	2863.06
779.13	2529.24
779.31	2750.42
779.49	2676.70
779.66	2731.99
779.84	2729.94
780.01	2635.74
780.19	2553.82
780.37	2881.49
780.54	2822.10
780.72	2572.25
780.90	2725.85
781.07	2717.65
781.25	2641.88
781.43	2770.90
781.60	2697.17
781.78	2969.55
781.95	2801.62
782.13	2590.68
782.31	2613.21
782.48	2559.96
782.66	2766.81
782.83	2871.25
783.01	2744.28
783.19	2867.16
783.36	2691.03
783.54	2521.05
783.72	2766.81
783.89	2688.98
784.07	2815.96
784.24	2711.51
784.42	2795.48
784.60	2785.24
784.77	2809.81
784.95	2451.42
785.12	2564.06
785.30	2731.99
785.47	2572.25
785.65	2572.25
785.83	2637.78
786.00	2650.07
786.18	2748.37
786.35	2541.53
786.53	2639.83
786.71	2858.96
786.88	2760.66
787.06	2777.05
787.23	2709.46
787.41	2594.78
787.58	2711.51
787.76	2562.01
787.94	2656.22
788.11	2738.13
788.29	2639.83
788.46	2652.12
788.64	2543.58
788.81	2654.17
788.99	2637.78
789.16	2566.10
789.34	2660.31
789.52	2686.94
789.69	2576.34
789.87	2492.38
790.04	2492.38
790.22	2736.09
790.39	2987.99
790.57	2609.11
790.74	2566.10
790.92	2875.35
791.09	2496.47
791.27	2697.17
791.44	2777.05
791.62	2699.22
791.79	2793.43
791.97	2674.65
792.15	2981.84
792.32	2832.34
792.50	2805.72
792.67	2879.44
792.85	2904.02
793.02	2752.47
793.20	2650.07
793.37	2525.15
793.55	2609.11
793.72	2451.42
793.90	2842.58
794.07	2654.17
794.25	2574.30
794.42	2777.05
794.60	2670.55
794.77	2670.55
794.95	2764.76
795.12	2801.62
795.30	2678.74
795.47	2467.80
795.65	3047.38
795.82	2799.57
796.00	2619.35
796.17	2639.83
796.34	2605.02
796.52	2723.80
796.69	2772.95
796.87	2742.23
797.04	2807.77
797.22	2830.29
797.39	2781.14
797.57	2766.81
797.74	2707.41
797.92	2770.90
798.09	2633.69
798.27	2885.59
798.44	2641.88
798.62	2615.26
798.79	2740.18
798.96	2752.47
799.14	2701.27
799.31	3094.48
799.49	2656.22
799.66	2625.50
799.84	2682.84
800.01	2529.24
800.19	2762.71
800.36	2402.27
800.53	2668.50
800.71	2744.28
800.88	2944.98
801.06	2602.97
801.23	2566.10
801.41	2643.93
801.58	2660.31
801.75	2617.30
801.93	2715.61
802.10	2740.18
802.28	2705.37
802.45	2623.45
802.63	2643.93
802.80	2844.63
802.97	2662.36
803.15	2652.12
803.32	2584.54
803.50	2625.50
803.67	2617.30
803.84	2541.53
804.02	2654.17
804.19	2635.74
804.37	2441.18
804.54	2627.54
804.71	2598.87
804.89	2762.71
805.06	2490.33
805.24	2508.76
805.41	2535.39
805.58	2613.21
805.76	3035.09
805.93	2654.17
806.10	2805.72
806.28	2791.38
806.45	2787.29
806.63	2779.09
806.80	2645.98
806.97	2809.81
807.15	2756.57
807.32	2670.55
807.49	2570.20
807.67	2512.86
807.84	2707.41
808.01	2447.32
808.19	2826.20
808.36	3053.52
808.54	2678.74
808.71	2572.25
808.88	2795.48
809.06	2830.29
809.23	2895.83
809.40	2590.68
809.58	2701.27
809.75	2758.61
809.92	2576.34
810.10	2873.30
810.27	2707.41
810.44	2754.52
810.62	2850.77
810.79	2662.36
810.96	2545.63
811.14	2662.36
811.31	2811.86
811.48	2748.37
811.66	2650.07
811.83	2824.15
812.00	2764.76
812.18	2674.65
812.35	2908.12
812.52	2629.59
812.69	2641.88
812.87	2715.61
813.04	2619.35
813.21	2648.02
813.39	2639.83
813.56	2551.77
813.73	2809.81
813.91	2535.39
814.08	2717.65
814.25	2680.79
814.42	2447.32
814.60	2744.28
814.77	2697.17
814.94	2709.46
815.12	2725.85
815.29	2944.98
815.46	2605.02
815.63	2703.32
815.81	2621.40
815.98	2736.09
816.15	2609.11
816.33	2676.70
816.50	2641.88
816.67	2725.85
816.84	2766.81
817.02	2521.05
817.19	2684.89
817.36	2734.04
817.53	2736.09
817.71	2570.20
817.88	2750.42
818.05	2695.13
818.22	2652.12
818.40	2830.29
818.57	2660.31
818.74	2707.41
818.91	2738.13
819.09	2811.86
819.26	2754.52
819.43	2531.29
819.60	2633.69
819.78	2783.19
819.95	2815.96
820.12	2527.19
820.29	2932.69
820.47	2865.11
820.64	2686.94
820.81	2541.53
820.98	2533.34
821.15	2602.97
821.33	2785.24
821.50	2521.05
821.67	2762.71
821.84	2594.78
822.02	2682.84
822.19	2840.53
822.36	2652.12
822.53	2598.87
822.70	2486.23
822.88	2662.36
823.05	2951.12
823.22	2670.55
823.39	2723.80
823.56	2670.55
823.74	3028.95
823.91	2588.63
824.08	2566.10
824.25	2533.34
824.42	2955.22
824.60	2504.67
824.77	2709.46
824.94	2686.94
825.11	2916.31
825.28	2514.91
825.45	2654.17
825.63	2693.08
825.80	2576.34
825.97	2746.33
826.14	2656.22
826.31	2562.01
826.48	2775.00
826.66	2594.78
826.83	2537.43
827.00	2502.62
827.17	2584.54
827.34	2611.16
827.51	2621.40
827.69	2674.65
827.86	2551.77
828.03	2633.69
828.20	2682.84
828.37	2611.16
828.54	2795.48
828.71	2523.10
828.89	2863.06
829.06	2775.00
829.23	2973.65
829.40	2586.58
829.57	2576.34
829.74	2846.68
829.91	2607.06
830.09	2525.15
830.26	2748.37
830.43	3018.71
830.60	2801.62
830.77	2752.47
830.94	2891.73
831.11	2824.15
831.28	2645.98
831.46	2736.09
831.63	2633.69
831.80	2787.29
831.97	2627.54
832.14	2666.46
832.31	2668.50
832.48	2736.09
832.65	2881.49
832.82	2682.84
832.99	2725.85
833.17	2510.81
833.34	2940.88
833.51	2691.03
833.68	2408.41
833.85	2942.93
834.02	2572.25
834.19	2564.06
834.36	2582.49
834.53	2779.09
834.70	2795.48
834.87	2676.70
835.04	2480.09
835.22	2545.63
835.39	2570.20
835.56	2494.43
835.73	2609.11
835.90	2842.58
836.07	2611.16
836.24	2764.76
836.41	2537.43
836.58	2570.20
836.75	2805.72
836.92	2594.78
837.09	2475.99
837.26	2838.48
837.43	2809.81
837.60	2658.26
837.77	2553.82
837.94	2811.86
838.12	2828.24
838.29	2539.48
838.46	2396.12
838.63	2570.20
838.80	3000.27
838.97	2650.07
839.14	2584.54
839.31	2682.84
839.48	2838.48
839.65	2559.96
839.82	2676.70
839.99	2736.09
840.16	2699.22
840.33	2459.61
840.50	2568.15
840.67	2617.30
840.84	2326.49
841.01	2512.86
841.18	2484.19
841.35	2670.55
841.52	2818.00
841.69	2820.05
841.86	2605.02
842.03	2744.28
842.20	2793.43
842.37	2574.30
842.54	2516.95
842.71	2697.17
842.88	2572.25
843.05	2537.43
843.22	2539.48
843.39	2815.96
843.56	2619.35
843.73	2596.82
843.90	2670.55
844.07	2703.32
844.24	2727.89
844.41	2641.88
844.58	2588.63
844.75	2650.07
844.92	2854.87
845.09	2645.98
845.26	2578.39
845.43	2711.51
845.60	2678.74
845.77	2670.55
845.94	2613.21
846.10	2856.92
846.27	2531.29
846.44	2465.75
846.61	2508.76
846.78	2840.53
846.95	2807.77
847.12	2529.24
847.29	2582.49
847.46	2564.06
847.63	2824.15
847.80	2512.86
847.97	2576.34
848.14	3096.53
848.31	2678.74
848.48	2443.23
848.65	2602.97
848.82	2596.82
848.98	3008.47
849.15	2658.26
849.32	2670.55
849.49	2756.57
849.66	2752.47
849.83	2547.67
850.00	2514.91
850.17	2768.85
850.34	2731.99
850.51	2480.09
850.68	2605.02
850.85	3006.42
851.01	2766.81
851.18	2578.39
851.35	2555.86
851.52	2736.09
851.69	2906.07
851.86	2455.51
852.03	2570.20
852.20	2768.85
852.37	2746.33
852.53	2451.42
852.70	2549.72
852.87	2715.61
853.04	2748.37
853.21	2502.62
853.38	2795.48
853.55	2834.39
853.72	2867.16
853.89	2504.67
854.05	2457.56
854.22	2758.61
854.39	2621.40
854.56	2596.82
854.73	2736.09
854.90	2564.06
855.07	2578.39
855.23	2574.30
855.40	2510.81
855.57	2629.59
855.74	2373.60
855.91	2775.00
856.08	2465.75
856.25	2455.51
856.41	2609.11
856.58	2541.53
856.75	2541.53
856.92	2475.99
857.09	2834.39
857.26	2445.27
857.42	2623.45
857.59	2871.25
857.76	2625.50
857.93	2590.68
858.10	2682.84
858.27	2559.96
858.43	2744.28
858.60	2594.78
858.77	2402.27
858.94	2572.25
859.11	2863.06
859.27	2539.48
859.44	2529.24
859.61	2979.79
859.78	2805.72
859.95	2574.30
860.12	2482.14
860.28	3096.53
860.45	3012.56
860.62	2449.37
860.79	2672.60
860.95	2680.79
861.12	2564.06
861.29	2471.90
861.46	2533.34
861.63	2664.41
861.79	2762.71
861.96	2455.51
862.13	2557.91
862.30	2928.60
862.47	2588.63
862.63	2467.80
862.80	2664.41
862.97	2875.35
863.14	2744.28
863.30	2607.06
863.47	2504.67
863.64	2949.08
863.81	2652.12
863.97	2512.86
864.14	2596.82
864.31	2666.46
864.48	2693.08
864.65	2510.81
864.81	2703.32
864.98	2797.53
865.15	2842.58
865.32	2658.26
865.48	2660.31
865.65	2926.55
865.82	2576.34
865.98	2645.98
866.15	2576.34
866.32	2731.99
866.49	2672.60
866.65	2791.38
866.82	2490.33
866.99	2727.89
867.16	2510.81
867.32	2562.01
867.49	2488.28
867.66	2680.79
867.83	2592.73
867.99	2412.51
868.16	2492.38
868.33	2557.91
868.49	2668.50
868.66	2566.10
868.83	2605.02
868.99	2764.76
869.16	2703.32
869.33	2623.45
869.50	2621.40
869.66	2715.61
869.83	2666.46
870.00	2486.23
870.16	2656.22
870.33	2707.41
870.50	2850.77
870.66	2588.63
870.83	2629.59
871.00	2658.26
871.17	2801.62
871.33	2643.93
871.50	2578.39
871.67	2723.80
871.83	2625.50
872.00	2711.51
872.17	2652.12
872.33	2901.97
872.50	2840.53
872.67	2564.06
872.83	2570.20
873.00	2762.71
873.17	2693.08
873.33	2654.17
873.50	2643.93
873.67	2557.91
873.83	2521.05
874.00	2537.43
874.16	2672.60
874.33	2605.02
874.50	2537.43
874.66	2553.82
874.83	2631.64
875.00	2908.12
875.16	2822.10
875.33	2641.88
875.50	2369.50
875.66	2621.40
875.83	2760.66
875.99	2656.22
876.16	2617.30
876.33	2539.48
876.49	2613.21
876.66	2664.41
876.83	2570.20
876.99	2430.94
877.16	2676.70
877.32	2529.24
877.49	2531.29
877.66	2779.09
877.82	2844.63
877.99	2639.83
878.15	2734.04
878.32	2742.23
878.49	2715.61
878.65	2598.87
878.82	2762.71
878.98	2670.55
879.15	2893.78
879.32	2744.28
879.48	2584.54
879.65	2740.18
879.81	2623.45
879.98	2547.67
880.15	2594.78
880.31	2785.24
880.48	2564.06
880.64	2738.13
880.81	2572.25
880.97	2949.08
881.14	2932.69
881.31	2420.70
881.47	2699.22
881.64	2674.65
881.80	2525.15
881.97	2727.89
882.13	2580.44
882.30	2484.19
882.47	2607.06
882.63	2539.48
882.80	2551.77
882.96	2652.12
883.13	2891.73
883.29	2619.35
883.46	2553.82
883.62	3026.90
883.79	2721.75
883.95	2793.43
884.12	2590.68
884.29	2838.48
884.45	2699.22
884.62	2645.98
884.78	2459.61
884.95	2904.02
885.11	2645.98
885.28	2699.22
885.44	2566.10
885.61	2740.18
885.77	2826.20
885.94	2664.41
886.10	2529.24
886.27	2676.70
886.43	2955.22
886.60	2725.85
886.76	2621.40
886.93	2541.53
887.09	2748.37
887.26	2414.56
887.42	2641.88
887.59	2936.79
887.75	3057.62
887.92	2725.85
888.08	2627.54
888.25	2979.79
888.41	2895.83
888.58	2586.58
888.74	2453.47
888.91	2650.07
>>>>>End Processed Spectral Data<<<<<
