SpectraSuite Data File
++++++++++++++++++++++++++++++++++++
Date: Thu May 05 16:21:05 CEST 2016
User: root
Dark Spectrum Present: No
Reference Spectrum Present: No
Number of Sampled Component Spectra: 1
Spectrometers: USB4C02835
Integration Time (usec): 100000 (USB4C02835)
Spectra Averaged: 1 (USB4C02835)
Boxcar Smoothing: 0 (USB4C02835)
Correct for Electrical Dark: No (USB4C02835)
Strobe/Lamp Enabled: No (USB4C02835)
Correct for Detector Non-linearity: No (USB4C02835)
Correct for Stray Light: No (USB4C02835)
Number of Pixels in Processed Spectrum: 3648
>>>>>Begin Processed Spectral Data<<<<<
177.47	2068.45
177.69	2068.45
177.91	2068.45
178.13	2054.11
178.36	1990.63
178.58	2498.52
178.80	2703.32
179.02	2519.00
179.24	2605.02
179.46	2523.10
179.68	2502.62
179.90	2650.07
180.13	2731.99
180.35	2447.32
180.57	2504.67
180.79	2850.77
181.01	2658.26
181.23	2484.19
181.45	2686.94
181.67	2865.11
181.90	2893.78
182.12	2564.06
182.34	2381.79
182.56	2789.33
182.78	2758.61
183.00	2478.04
183.22	2531.29
183.44	2480.09
183.66	3123.15
183.89	2670.55
184.11	2500.57
184.33	2686.94
184.55	2920.40
184.77	2531.29
184.99	2529.24
185.21	2645.98
185.43	3112.91
185.65	2527.19
185.87	2482.14
186.10	3090.38
186.32	3084.24
186.54	2533.34
186.76	2473.95
186.98	2836.44
187.20	2703.32
187.42	2572.25
187.64	2527.19
187.86	2754.52
188.08	2979.79
188.30	2422.75
188.52	2488.28
188.75	2932.69
188.97	2918.36
189.19	2600.92
189.41	2449.37
189.63	2795.48
189.85	2645.98
190.07	2396.12
190.29	2430.94
190.51	2740.18
190.73	2531.29
190.95	2688.98
191.17	2551.77
191.39	2562.01
191.61	2742.23
191.84	2555.86
192.06	2623.45
192.28	2537.43
192.50	3190.74
192.72	2627.54
192.94	2531.29
193.16	2826.20
193.38	2748.37
193.60	2451.42
193.82	2566.10
194.04	2865.11
194.26	2664.41
194.48	2504.67
194.70	2492.38
194.92	2695.13
195.14	2799.57
195.36	2457.56
195.58	2611.16
195.80	2678.74
196.02	2617.30
196.24	2445.27
196.46	2516.95
196.69	2576.34
196.91	3098.58
197.13	2537.43
197.35	2613.21
197.57	2965.46
197.79	2861.01
198.01	2617.30
198.23	2625.50
198.45	2904.02
198.67	2566.10
198.89	2441.18
199.11	2557.91
199.33	2562.01
199.55	2416.60
199.77	2461.66
199.99	2592.73
200.21	2717.65
200.43	2746.33
200.65	2525.15
200.87	2353.12
201.09	2777.05
201.31	2652.12
201.53	2498.52
201.75	2568.15
201.97	2766.81
202.19	2693.08
202.41	2541.53
202.63	2635.74
202.85	2775.00
203.07	2676.70
203.29	2605.02
203.51	2342.88
203.73	2600.92
203.95	3026.90
204.17	2480.09
204.39	2627.54
204.61	2619.35
204.83	2656.22
205.05	2613.21
205.27	2551.77
205.49	3030.99
205.71	2699.22
205.93	2461.66
206.15	2459.61
206.37	2818.00
206.59	2719.70
206.81	2387.93
207.03	2394.08
207.25	2600.92
207.47	2836.44
207.69	2461.66
207.91	2664.41
208.13	2953.17
208.34	2639.83
208.56	2432.99
208.78	2564.06
209.00	2666.46
209.22	2594.78
209.44	2484.19
209.66	2457.56
209.88	2748.37
210.10	2672.60
210.32	2521.05
210.54	2629.59
210.76	2648.02
210.98	2850.77
211.20	2408.41
211.42	2629.59
211.64	2893.78
211.86	2836.44
212.08	2553.82
212.30	2375.64
212.52	2719.70
212.74	2715.61
212.96	2508.76
213.17	2541.53
213.39	2832.34
213.61	2940.88
213.83	2527.19
214.05	2377.69
214.27	2858.96
214.49	2545.63
214.71	2527.19
214.93	2654.17
215.15	2697.17
215.37	2775.00
215.59	2449.37
215.81	2498.52
216.03	2942.93
216.24	2721.75
216.46	2523.10
216.68	2615.26
216.90	2805.72
217.12	2777.05
217.34	2465.75
217.56	2648.02
217.78	2977.75
218.00	2822.10
218.22	2547.67
218.44	2582.49
218.66	2727.89
218.87	3045.33
219.09	2514.91
219.31	2564.06
219.53	2848.72
219.75	2717.65
219.97	2572.25
220.19	2576.34
220.41	2680.79
220.63	2969.55
220.85	2527.19
221.06	2463.71
221.28	2899.92
221.50	2727.89
221.72	2529.24
221.94	2449.37
222.16	2664.41
222.38	2889.68
222.60	2435.03
222.82	2496.47
223.03	2875.35
223.25	2525.15
223.47	2506.71
223.69	2695.13
223.91	2875.35
224.13	2701.27
224.35	2447.32
224.57	2688.98
224.78	2766.81
225.00	2662.36
225.22	2590.68
225.44	2435.03
225.66	2799.57
225.88	2648.02
226.10	2578.39
226.32	2609.11
226.53	2916.31
226.75	2664.41
226.97	2645.98
227.19	2525.15
227.41	2578.39
227.63	2637.78
227.85	2426.84
228.06	2572.25
228.28	2809.81
228.50	2818.00
228.72	2486.23
228.94	2469.85
229.16	2455.51
229.37	2527.19
229.59	2457.56
229.81	2742.23
230.03	2637.78
230.25	2572.25
230.47	2461.66
230.69	2398.17
230.90	2797.53
231.12	2625.50
231.34	2568.15
231.56	2648.02
231.78	2510.81
232.00	2791.38
232.21	2551.77
232.43	2607.06
232.65	2457.56
232.87	2781.14
233.09	2353.12
233.30	2484.19
233.52	2897.88
233.74	2680.79
233.96	2451.42
234.18	2613.21
234.40	2650.07
234.61	3045.33
234.83	2480.09
235.05	2471.90
235.27	3059.67
235.49	2881.49
235.70	2449.37
235.92	2562.01
236.14	2779.09
236.36	3071.95
236.58	2369.50
236.79	2600.92
237.01	2635.74
237.23	2691.03
237.45	2770.90
237.67	2572.25
237.88	2793.43
238.10	2990.03
238.32	2498.52
238.54	2551.77
238.76	2791.38
238.97	2631.64
239.19	2441.18
239.41	2598.87
239.63	2906.07
239.85	2721.75
240.06	2551.77
240.28	2420.70
240.50	2887.64
240.72	2721.75
240.93	2414.56
241.15	2570.20
241.37	2752.47
241.59	2969.55
241.81	2551.77
242.02	2529.24
242.24	2760.66
242.46	2818.00
242.68	2418.65
242.89	2500.57
243.11	2889.68
243.33	2629.59
243.55	2547.67
243.76	2519.00
243.98	2654.17
244.20	2756.57
244.42	2510.81
244.64	2541.53
244.85	2514.91
245.07	2617.30
245.29	2527.19
245.51	2496.47
245.72	2799.57
245.94	2871.25
246.16	2502.62
246.38	2533.34
246.59	2553.82
246.81	2643.93
247.03	2475.99
247.24	2422.75
247.46	2674.65
247.68	2672.60
247.90	2471.90
248.11	2512.86
248.33	2893.78
248.55	2666.46
248.77	2625.50
248.98	2625.50
249.20	2949.08
249.42	2781.14
249.64	2516.95
249.85	2506.71
250.07	2652.12
250.29	2840.53
250.50	2555.86
250.72	2441.18
250.94	2809.81
251.16	2957.27
251.37	2537.43
251.59	2566.10
251.81	2844.63
252.02	2897.88
252.24	2478.04
252.46	2652.12
252.68	2631.64
252.89	2574.30
253.11	2359.26
253.33	2711.51
253.54	2875.35
253.76	2596.82
253.98	2564.06
254.20	2584.54
254.41	2547.67
254.63	2688.98
254.85	2389.98
255.06	2564.06
255.28	2842.58
255.50	2664.41
255.71	2482.14
255.93	2342.88
256.15	2703.32
256.36	2746.33
256.58	2387.93
256.80	2465.75
257.02	2656.22
257.23	2602.97
257.45	2465.75
257.67	2609.11
257.88	2598.87
258.10	2783.19
258.32	2521.05
258.53	2537.43
258.75	2981.84
258.97	2648.02
259.18	2494.43
259.40	2482.14
259.62	2963.41
259.83	2889.68
260.05	2553.82
260.27	3104.72
260.48	2893.78
260.70	2564.06
260.92	2435.03
261.13	2461.66
261.35	2768.85
261.57	2744.28
261.78	2404.32
262.00	2488.28
262.22	2834.39
262.43	2629.59
262.65	2441.18
262.86	2570.20
263.08	3028.95
263.30	2731.99
263.51	2406.36
263.73	2424.80
263.95	2897.88
264.16	2588.63
264.38	2449.37
264.60	2447.32
264.81	2709.46
265.03	2893.78
265.25	2836.44
265.46	2543.58
265.68	2942.93
265.89	2912.21
266.11	2422.75
266.33	2482.14
266.54	2838.48
266.76	2766.81
266.98	2609.11
267.19	2658.26
267.41	2852.82
267.62	2734.04
267.84	2338.78
268.06	2699.22
268.27	2711.51
268.49	2875.35
268.70	2519.00
268.92	2553.82
269.14	2559.96
269.35	2510.81
269.57	2600.92
269.79	2605.02
270.00	2584.54
270.22	3008.47
270.43	2469.85
270.65	2301.92
270.87	2746.33
271.08	2719.70
271.30	2666.46
271.51	2570.20
271.73	2822.10
271.95	2940.88
272.16	2451.42
272.38	2682.84
272.59	2625.50
272.81	2799.57
273.02	2463.71
273.24	2564.06
273.46	2848.72
273.67	2605.02
273.89	2439.13
274.10	2498.52
274.32	2908.12
274.54	2756.57
274.75	2596.82
274.97	2611.16
275.18	2848.72
275.40	2766.81
275.61	2617.30
275.83	2711.51
276.05	2568.15
276.26	2666.46
276.48	2562.01
276.69	2670.55
276.91	2668.50
277.12	2906.07
277.34	2676.70
277.55	2740.18
277.77	2760.66
277.99	2711.51
278.20	2650.07
278.42	2539.48
278.63	2637.78
278.85	2586.58
279.06	2521.05
279.28	2703.32
279.49	2858.96
279.71	2906.07
279.93	2643.93
280.14	2693.08
280.36	2629.59
280.57	2811.86
280.79	2699.22
281.00	2549.72
281.22	2557.91
281.43	2850.77
281.65	2402.27
281.86	2539.48
282.08	2727.89
282.29	3035.09
282.51	2437.08
282.73	2545.63
282.94	2478.04
283.16	2836.44
283.37	2729.94
283.59	2613.21
283.80	2791.38
284.02	2707.41
284.23	2660.31
284.45	2549.72
284.66	2584.54
284.88	2627.54
285.09	2688.98
285.31	2670.55
285.52	2736.09
285.74	2574.30
285.95	2809.81
286.17	2619.35
286.38	2805.72
286.60	2611.16
286.81	2617.30
287.03	2605.02
287.24	2725.85
287.46	2813.91
287.67	2645.98
287.89	2807.77
288.10	2686.94
288.32	2754.52
288.53	2787.29
288.75	2668.50
288.96	2887.64
289.18	2574.30
289.39	2570.20
289.61	2650.07
289.82	2955.22
290.04	3010.51
290.25	2459.61
290.47	2629.59
290.68	2750.42
290.90	2834.39
291.11	2506.71
291.33	2701.27
291.54	2695.13
291.76	2605.02
291.97	2711.51
292.18	2711.51
292.40	2648.02
292.61	2682.84
292.83	2838.48
293.04	2637.78
293.26	2789.33
293.47	2713.56
293.69	2478.04
293.90	2584.54
294.12	2879.44
294.33	2670.55
294.55	2619.35
294.76	2777.05
294.97	2971.60
295.19	2955.22
295.40	2559.96
295.62	2625.50
295.83	2818.00
296.05	2572.25
296.26	2795.48
296.48	2568.15
296.69	2693.08
296.90	2727.89
297.12	2775.00
297.33	2744.28
297.55	2693.08
297.76	2818.00
297.98	2738.13
298.19	2707.41
298.41	2697.17
298.62	2576.34
298.83	2852.82
299.05	2705.37
299.26	2588.63
299.48	2557.91
299.69	2617.30
299.90	2600.92
300.12	2570.20
300.33	2789.33
300.55	2658.26
300.76	2668.50
300.98	2584.54
301.19	2828.24
301.40	2580.44
301.62	2580.44
301.83	2766.81
302.05	2697.17
302.26	2529.24
302.47	2621.40
302.69	2541.53
302.90	2752.47
303.12	2404.32
303.33	2736.09
303.54	3065.81
303.76	2621.40
303.97	2619.35
304.19	2813.91
304.40	2580.44
304.61	2772.95
304.83	2740.18
305.04	2705.37
305.26	2777.05
305.47	2668.50
305.68	2580.44
305.90	2461.66
306.11	2811.86
306.33	2707.41
306.54	2541.53
306.75	2529.24
306.97	2490.33
307.18	2547.67
307.39	2611.16
307.61	2629.59
307.82	2807.77
308.04	2729.94
308.25	2465.75
308.46	2666.46
308.68	2777.05
308.89	2731.99
309.10	2750.42
309.32	2709.46
309.53	2658.26
309.74	2877.40
309.96	2607.06
310.17	2736.09
310.39	2785.24
310.60	2813.91
310.81	2684.89
311.03	2428.89
311.24	2795.48
311.45	2686.94
311.67	2822.10
311.88	2777.05
312.09	2570.20
312.31	2654.17
312.52	2570.20
312.73	2547.67
312.95	2533.34
313.16	2607.06
313.37	2797.53
313.59	2768.85
313.80	2871.25
314.01	2877.40
314.23	2619.35
314.44	2471.90
314.65	2596.82
314.87	2564.06
315.08	2586.58
315.29	2523.10
315.51	2590.68
315.72	2482.14
315.93	2662.36
316.15	2600.92
316.36	2592.73
316.57	2697.17
316.79	2643.93
317.00	2635.74
317.21	2709.46
317.43	2588.63
317.64	2623.45
317.85	2529.24
318.07	2596.82
318.28	2666.46
318.49	2752.47
318.70	2842.58
318.92	2766.81
319.13	2803.67
319.34	2752.47
319.56	2654.17
319.77	2834.39
319.98	2830.29
320.20	2869.20
320.41	2805.72
320.62	2815.96
320.83	2564.06
321.05	2797.53
321.26	2664.41
321.47	2795.48
321.69	2934.74
321.90	2531.29
322.11	2559.96
322.32	2768.85
322.54	2932.69
322.75	2572.25
322.96	3194.83
323.18	2475.99
323.39	2510.81
323.60	2553.82
323.81	2709.46
324.03	2635.74
324.24	2736.09
324.45	2686.94
324.66	2568.15
324.88	2936.79
325.09	2895.83
325.30	2594.78
325.52	2590.68
325.73	2781.14
325.94	2580.44
326.15	2453.47
326.37	2430.94
326.58	2912.21
326.79	2889.68
327.00	2539.48
327.22	2578.39
327.43	2697.17
327.64	2576.34
327.85	2656.22
328.07	2652.12
328.28	3024.85
328.49	2637.78
328.70	2568.15
328.92	2602.97
329.13	2684.89
329.34	2824.15
329.55	2830.29
329.76	2758.61
329.98	2715.61
330.19	2906.07
330.40	2682.84
330.61	2693.08
330.83	2824.15
331.04	2662.36
331.25	2652.12
331.46	2650.07
331.68	2572.25
331.89	2891.73
332.10	2682.84
332.31	2523.10
332.52	2707.41
332.74	2947.03
332.95	2424.80
333.16	2545.63
333.37	2830.29
333.58	2686.94
333.80	2707.41
334.01	2482.14
334.22	2662.36
334.43	2666.46
334.64	2678.74
334.86	2519.00
335.07	2559.96
335.28	2891.73
335.49	2504.67
335.70	2752.47
335.92	2881.49
336.13	3057.62
336.34	2695.13
336.55	2641.88
336.76	2768.85
336.98	2424.80
337.19	2678.74
337.40	2701.27
337.61	3117.01
337.82	2631.64
338.04	2762.71
338.25	2480.09
338.46	2699.22
338.67	2680.79
338.88	2539.48
339.09	2609.11
339.31	2746.33
339.52	2564.06
339.73	2521.05
339.94	2656.22
340.15	2856.92
340.36	2631.64
340.58	2607.06
340.79	2617.30
341.00	2813.91
341.21	2514.91
341.42	2803.67
341.63	2547.67
341.85	2854.87
342.06	2686.94
342.27	2537.43
342.48	2637.78
342.69	2496.47
342.90	2725.85
343.12	2793.43
343.33	2566.10
343.54	2795.48
343.75	2990.03
343.96	2641.88
344.17	2514.91
344.38	2686.94
344.60	2613.21
344.81	2521.05
345.02	2623.45
345.23	2899.92
345.44	3069.91
345.65	2641.88
345.86	2643.93
346.07	2785.24
346.29	2596.82
346.50	2772.95
346.71	2650.07
346.92	2951.12
347.13	3037.14
347.34	2635.74
347.55	2568.15
347.76	2711.51
347.98	2516.95
348.19	2619.35
348.40	2856.92
348.61	2654.17
348.82	2944.98
349.03	2705.37
349.24	2605.02
349.45	2887.64
349.66	2441.18
349.88	2602.97
350.09	2475.99
350.30	2940.88
350.51	2906.07
350.72	2643.93
350.93	2688.98
351.14	2676.70
351.35	2822.10
351.56	2605.02
351.77	2623.45
351.99	2801.62
352.20	2940.88
352.41	2723.80
352.62	2400.22
352.83	2748.37
353.04	2656.22
353.25	2572.25
353.46	2643.93
353.67	2850.77
353.88	2385.88
354.09	2596.82
354.30	2631.64
354.52	2815.96
354.73	2717.65
354.94	2559.96
355.15	2596.82
355.36	2983.89
355.57	2631.64
355.78	2648.02
355.99	2545.63
356.20	2684.89
356.41	2861.01
356.62	2658.26
356.83	2637.78
357.04	2897.88
357.25	2469.85
357.46	2633.69
357.68	2453.47
357.89	2682.84
358.10	2744.28
358.31	2588.63
358.52	2555.86
358.73	2535.39
358.94	2527.19
359.15	2637.78
359.36	2709.46
359.57	2721.75
359.78	2678.74
359.99	2736.09
360.20	2568.15
360.41	2713.56
360.62	2787.29
360.83	2711.51
361.04	2678.74
361.25	2834.39
361.46	2869.20
361.67	2658.26
361.88	2699.22
362.09	2846.68
362.30	2768.85
362.51	2582.49
362.72	2676.70
362.93	2861.01
363.14	2830.29
363.35	2660.31
363.56	2572.25
363.78	2832.34
363.99	2906.07
364.20	2627.54
364.41	2596.82
364.62	2973.65
364.83	2738.13
365.04	2590.68
365.25	2650.07
365.46	3092.43
365.67	2623.45
365.88	2658.26
366.09	2617.30
366.30	2641.88
366.51	2762.71
366.72	2480.09
366.93	2607.06
367.14	2717.65
367.35	2932.69
367.56	2609.11
367.77	2734.04
367.98	2695.13
368.18	2762.71
368.39	2717.65
368.60	2580.44
368.81	2772.95
369.02	2723.80
369.23	2633.69
369.44	2449.37
369.65	2615.26
369.86	2715.61
370.07	2711.51
370.28	2480.09
370.49	2818.00
370.70	2826.20
370.91	2506.71
371.12	2584.54
371.33	2879.44
371.54	2619.35
371.75	2742.23
371.96	2402.27
372.17	2697.17
372.38	2828.24
372.59	2678.74
372.80	2570.20
373.01	2748.37
373.22	2789.33
373.43	2639.83
373.64	2512.86
373.85	2875.35
374.06	2998.23
374.26	2754.52
374.47	2697.17
374.68	2963.41
374.89	2846.68
375.10	2492.38
375.31	2713.56
375.52	2725.85
375.73	2695.13
375.94	2521.05
376.15	2658.26
376.36	2588.63
376.57	2607.06
376.78	2578.39
376.99	2668.50
377.20	2897.88
377.40	2799.57
377.61	2877.40
377.82	2594.78
378.03	2906.07
378.24	2756.57
378.45	2680.79
378.66	2731.99
378.87	2432.99
379.08	2576.34
379.29	2533.34
379.50	2768.85
379.71	2721.75
379.91	2768.85
380.12	2676.70
380.33	2641.88
380.54	2666.46
380.75	2711.51
380.96	2652.12
381.17	2686.94
381.38	2654.17
381.59	2744.28
381.80	2717.65
382.00	2799.57
382.21	2686.94
382.42	2981.84
382.63	2875.35
382.84	2740.18
383.05	2942.93
383.26	2912.21
383.47	2748.37
383.68	2605.02
383.88	2826.20
384.09	2705.37
384.30	2842.58
384.51	2668.50
384.72	2666.46
384.93	2514.91
385.14	2711.51
385.35	2729.94
385.55	2580.44
385.76	2934.74
385.97	2627.54
386.18	2496.47
386.39	2609.11
386.60	2645.98
386.81	2654.17
387.02	2490.33
387.22	2496.47
387.43	2834.39
387.64	2787.29
387.85	2801.62
388.06	2807.77
388.27	3897.28
388.48	7612.30
388.68	10954.58
388.89	13305.65
389.10	14458.66
389.31	13748.01
389.52	10868.57
389.73	9293.68
389.93	8513.41
390.14	7743.37
390.35	7063.44
390.56	6371.23
390.77	5296.05
390.98	4032.45
391.18	3426.25
391.39	3117.01
391.60	2832.34
391.81	2869.20
392.02	2643.93
392.23	3045.33
392.43	2688.98
392.64	2734.04
392.85	2633.69
393.06	3043.28
393.27	2789.33
393.47	2623.45
393.68	2637.78
393.89	2650.07
394.10	2797.53
394.31	2502.62
394.52	2586.58
394.72	2666.46
394.93	2908.12
395.14	2547.67
395.35	2707.41
395.56	2578.39
395.76	2676.70
395.97	2643.93
396.18	2832.34
396.39	2797.53
396.60	3243.98
396.80	2936.79
397.01	2846.68
397.22	2813.91
397.43	2842.58
397.64	2602.97
397.84	2789.33
398.05	2961.36
398.26	2676.70
398.47	2731.99
398.67	2809.81
398.88	2648.02
399.09	2777.05
399.30	2574.30
399.51	2711.51
399.71	2682.84
399.92	2668.50
400.13	2703.32
400.34	2650.07
400.54	2772.95
400.75	2987.99
400.96	2736.09
401.17	2865.11
401.37	2791.38
401.58	2676.70
401.79	2645.98
402.00	2777.05
402.21	3147.73
402.41	2926.55
402.62	2959.31
402.83	3014.61
403.04	3143.63
403.24	3350.48
403.45	2764.76
403.66	2914.26
403.87	2848.72
404.07	3012.56
404.28	2861.01
404.49	2881.49
404.70	2809.81
404.90	2867.16
405.11	2713.56
405.32	2707.41
405.52	2605.02
405.73	2648.02
405.94	2488.28
406.15	2623.45
406.35	2781.14
406.56	2779.09
406.77	2631.64
406.98	2645.98
407.18	2695.13
407.39	2953.17
407.60	2695.13
407.80	2734.04
408.01	2611.16
408.22	2809.81
408.43	2637.78
408.63	2693.08
408.84	2826.20
409.05	2875.35
409.25	2609.11
409.46	2588.63
409.67	2570.20
409.88	2658.26
410.08	2715.61
410.29	2658.26
410.50	2875.35
410.70	2856.92
410.91	2514.91
411.12	2727.89
411.32	2727.89
411.53	2529.24
411.74	2666.46
411.95	2781.14
412.15	2797.53
412.36	2867.16
412.57	2762.71
412.77	2809.81
412.98	2738.13
413.19	2688.98
413.39	2676.70
413.60	2645.98
413.81	2901.97
414.01	2621.40
414.22	2633.69
414.43	2695.13
414.63	2691.03
414.84	2858.96
415.05	2729.94
415.25	2453.47
415.46	2856.92
415.67	2662.36
415.87	2674.65
416.08	2621.40
416.29	2641.88
416.49	2912.21
416.70	2625.50
416.91	2695.13
417.11	2654.17
417.32	2879.44
417.53	2633.69
417.73	2656.22
417.94	2750.42
418.15	2729.94
418.35	2691.03
418.56	2627.54
418.77	3014.61
418.97	2731.99
419.18	2695.13
419.38	2422.75
419.59	2639.83
419.80	2879.44
420.00	2631.64
420.21	2691.03
420.42	2914.26
420.62	2768.85
420.83	2654.17
421.04	2611.16
421.24	2688.98
421.45	2861.01
421.65	2695.13
421.86	2592.73
422.07	2854.87
422.27	2818.00
422.48	2658.26
422.69	2519.00
422.89	2697.17
423.10	2607.06
423.30	2539.48
423.51	2648.02
423.72	2795.48
423.92	2830.29
424.13	2576.34
424.33	2621.40
424.54	2826.20
424.75	2744.28
424.95	2861.01
425.16	2717.65
425.36	2719.70
425.57	2832.34
425.78	2699.22
425.98	2666.46
426.19	2727.89
426.39	2666.46
426.60	2711.51
426.81	2760.66
427.01	2826.20
427.22	2703.32
427.42	2453.47
427.63	2641.88
427.83	2854.87
428.04	2963.41
428.25	2729.94
428.45	2838.48
428.66	2863.06
428.86	2643.93
429.07	2570.20
429.28	2686.94
429.48	2686.94
429.69	2572.25
429.89	2666.46
430.10	2549.72
430.30	2883.54
430.51	2840.53
430.71	2582.49
430.92	2619.35
431.13	2643.93
431.33	2854.87
431.54	2684.89
431.74	2770.90
431.95	3055.57
432.15	2650.07
432.36	2605.02
432.56	2752.47
432.77	2899.92
432.98	3002.32
433.18	2717.65
433.39	2605.02
433.59	2697.17
433.80	3055.57
434.00	2856.92
434.21	2697.17
434.41	2615.26
434.62	3037.14
434.82	2621.40
435.03	2535.39
435.23	2742.23
435.44	2531.29
435.64	2660.31
435.85	2670.55
436.06	2863.06
436.26	2826.20
436.47	2625.50
436.67	2621.40
436.88	2719.70
437.08	2922.45
437.29	2736.09
437.49	2713.56
437.70	2928.60
437.90	2643.93
438.11	2842.58
438.31	2674.65
438.52	2949.08
438.72	2940.88
438.93	2979.79
439.13	2693.08
439.34	2940.88
439.54	2645.98
439.75	2760.66
439.95	2676.70
440.16	2654.17
440.36	2703.32
440.57	2592.73
440.77	2695.13
440.98	2752.47
441.18	2867.16
441.39	2596.82
441.59	2543.58
441.80	3035.09
442.00	2734.04
442.21	2791.38
442.41	2504.67
442.62	2869.20
442.82	2625.50
443.02	2662.36
443.23	2615.26
443.43	2707.41
443.64	2973.65
443.84	2611.16
444.05	2734.04
444.25	2744.28
444.46	2701.27
444.66	2635.74
444.87	2901.97
445.07	2572.25
445.28	2602.97
445.48	2832.34
445.69	2703.32
445.89	3151.82
446.09	2760.66
446.30	2987.99
446.50	3117.01
446.71	4526.01
446.91	5805.99
447.12	6463.39
447.32	6756.25
447.53	6428.57
447.73	5445.55
447.93	4743.10
448.14	4526.01
448.34	4390.84
448.55	3872.71
448.75	3811.27
448.96	3729.35
449.16	3420.11
449.36	3305.42
449.57	2897.88
449.77	2729.94
449.98	2744.28
450.18	2772.95
450.39	2666.46
450.59	2840.53
450.79	2709.46
451.00	2598.87
451.20	2734.04
451.41	2672.60
451.61	2742.23
451.81	2738.13
452.02	2662.36
452.22	2678.74
452.43	2627.54
452.63	2699.22
452.84	2641.88
453.04	2559.96
453.24	2795.48
453.45	2605.02
453.65	2686.94
453.86	2686.94
454.06	2822.10
454.26	2729.94
454.47	2568.15
454.67	2822.10
454.87	2791.38
455.08	2688.98
455.28	2838.48
455.49	2760.66
455.69	2627.54
455.89	3051.47
456.10	2791.38
456.30	2547.67
456.51	2854.87
456.71	2795.48
456.91	2652.12
457.12	2668.50
457.32	2764.76
457.52	2598.87
457.73	2750.42
457.93	2742.23
458.14	2711.51
458.34	2514.91
458.54	2609.11
458.75	2600.92
458.95	2856.92
459.15	2734.04
459.36	2695.13
459.56	2701.27
459.76	3123.15
459.97	2787.29
460.17	2777.05
460.37	2682.84
460.58	2707.41
460.78	2775.00
460.99	2627.54
461.19	2656.22
461.39	2605.02
461.60	2691.03
461.80	2627.54
462.00	2549.72
462.21	2697.17
462.41	2529.24
462.61	2590.68
462.82	2486.23
463.02	2834.39
463.22	2699.22
463.43	2777.05
463.63	2578.39
463.83	2975.70
464.04	2848.72
464.24	2598.87
464.44	2576.34
464.64	2731.99
464.85	2871.25
465.05	2772.95
465.25	2605.02
465.46	2535.39
465.66	2883.54
465.86	2715.61
466.07	2641.88
466.27	2668.50
466.47	2486.23
466.68	2551.77
466.88	2822.10
467.08	2758.61
467.29	2824.15
467.49	2688.98
467.69	2695.13
467.89	2863.06
468.10	2633.69
468.30	2766.81
468.50	2779.09
468.71	2869.20
468.91	2547.67
469.11	2834.39
469.31	2631.64
469.52	2568.15
469.72	2928.60
469.92	2953.17
470.13	2691.03
470.33	2695.13
470.53	2727.89
470.73	2987.99
470.94	3313.61
471.14	3426.25
471.34	3841.99
471.54	3706.82
471.75	3377.10
471.95	3237.84
472.15	3069.91
472.36	3151.82
472.56	3059.67
472.76	3147.73
472.96	3067.86
473.17	2856.92
473.37	2830.29
473.57	2725.85
473.77	2848.72
473.98	2652.12
474.18	2547.67
474.38	3184.59
474.58	2615.26
474.79	2600.92
474.99	2818.00
475.19	2998.23
475.39	2570.20
475.60	2824.15
475.80	2615.26
476.00	2766.81
476.20	2672.60
476.41	2777.05
476.61	2660.31
476.81	2848.72
477.01	2609.11
477.21	2861.01
477.42	2789.33
477.62	2535.39
477.82	2844.63
478.02	2611.16
478.23	2680.79
478.43	2629.59
478.63	2736.09
478.83	2723.80
479.03	2641.88
479.24	2973.65
479.44	3035.09
479.64	2496.47
479.84	2369.50
480.04	2654.17
480.25	2838.48
480.45	2586.58
480.65	2572.25
480.85	2844.63
481.06	2621.40
481.26	2711.51
481.46	2672.60
481.66	2813.91
481.86	2543.58
482.06	2742.23
482.27	2691.03
482.47	2650.07
482.67	2783.19
482.87	2623.45
483.07	2768.85
483.28	2664.41
483.48	2613.21
483.68	2650.07
483.88	2578.39
484.08	2443.23
484.29	2553.82
484.49	2676.70
484.69	2539.48
484.89	2924.50
485.09	2965.46
485.29	2731.99
485.50	2779.09
485.70	2691.03
485.90	2836.44
486.10	2799.57
486.30	2668.50
486.50	2949.08
486.71	2791.38
486.91	2705.37
487.11	2764.76
487.31	2545.63
487.51	2813.91
487.71	2572.25
487.91	2596.82
488.12	2541.53
488.32	2392.03
488.52	2613.21
488.72	2506.71
488.92	2789.33
489.12	2906.07
489.32	2809.81
489.53	2768.85
489.73	2478.04
489.93	2998.23
490.13	2613.21
490.33	2535.39
490.53	2793.43
490.73	2858.96
490.94	2543.58
491.14	2779.09
491.34	2811.86
491.54	2883.54
491.74	3553.23
491.94	4046.79
492.14	4358.08
492.34	4540.35
492.54	4124.61
492.75	3534.79
492.95	3651.53
493.15	3370.96
493.35	3346.38
493.55	3174.35
493.75	3071.95
493.95	3166.16
494.15	2883.54
494.35	2627.54
494.56	2793.43
494.76	2664.41
494.96	2736.09
495.16	2553.82
495.36	2711.51
495.56	2736.09
495.76	2746.33
495.96	2686.94
496.16	2613.21
496.36	2949.08
496.56	2625.50
496.77	2758.61
496.97	2750.42
497.17	2928.60
497.37	2537.43
497.57	2760.66
497.77	2740.18
497.97	2664.41
498.17	2605.02
498.37	2574.30
498.57	2768.85
498.77	2615.26
498.97	2801.62
499.17	2953.17
499.38	2699.22
499.58	2795.48
499.78	2779.09
499.98	2725.85
500.18	2682.84
500.38	2588.63
500.58	2914.26
500.78	3170.26
500.98	5416.88
501.18	7233.43
501.38	8607.61
501.58	9684.84
501.78	9289.59
501.98	7823.24
502.18	6455.20
502.38	5660.59
502.58	5474.22
502.78	4890.55
502.98	4638.65
503.18	4382.65
503.38	4214.72
503.59	3579.85
503.79	3465.16
503.99	3276.75
504.19	3182.54
504.39	3194.83
504.59	3055.57
504.79	3123.15
504.99	3160.02
505.19	2936.79
505.39	2764.76
505.59	3104.72
505.79	2955.22
505.99	2840.53
506.19	2715.61
506.39	2885.59
506.59	2703.32
506.79	2727.89
506.99	2848.72
507.19	2639.83
507.39	2770.90
507.59	2574.30
507.79	2617.30
507.99	2580.44
508.19	2734.04
508.39	2664.41
508.59	2652.12
508.79	2752.47
508.99	2951.12
509.19	2627.54
509.39	2707.41
509.59	2564.06
509.79	2682.84
509.99	2731.99
510.19	2871.25
510.39	2768.85
510.59	2750.42
510.79	2674.65
510.99	2605.02
511.19	2752.47
511.39	3012.56
511.59	2893.78
511.79	2715.61
511.99	2637.78
512.19	2967.51
512.38	2686.94
512.58	2553.82
512.78	2512.86
512.98	2818.00
513.18	2912.21
513.38	2457.56
513.58	2742.23
513.78	2701.27
513.98	2740.18
514.18	2615.26
514.38	2633.69
514.58	2768.85
514.78	2684.89
514.98	2580.44
515.18	2654.17
515.38	2539.48
515.58	2971.60
515.78	2576.34
515.98	2678.74
516.18	2750.42
516.38	2744.28
516.57	2586.58
516.77	2660.31
516.97	2799.57
517.17	2637.78
517.37	2441.18
517.57	2729.94
517.77	2766.81
517.97	2664.41
518.17	2719.70
518.37	2564.06
518.57	2691.03
518.77	2734.04
518.97	2631.64
519.16	2725.85
519.36	2824.15
519.56	2588.63
519.76	2668.50
519.96	2607.06
520.16	2883.54
520.36	2629.59
520.56	2813.91
520.76	2658.26
520.96	2701.27
521.16	2918.36
521.35	2838.48
521.55	2830.29
521.75	2723.80
521.95	2656.22
522.15	2516.95
522.35	2453.47
522.55	2631.64
522.75	2871.25
522.95	2547.67
523.14	2547.67
523.34	2885.59
523.54	2705.37
523.74	2734.04
523.94	2709.46
524.14	2553.82
524.34	2738.13
524.54	2805.72
524.73	2605.02
524.93	2781.14
525.13	2752.47
525.33	2531.29
525.53	2861.01
525.73	2750.42
525.93	2668.50
526.13	2684.89
526.32	2678.74
526.52	3000.27
526.72	2783.19
526.92	2621.40
527.12	2619.35
527.32	2459.61
527.52	2824.15
527.71	2756.57
527.91	2719.70
528.11	2764.76
528.31	2729.94
528.51	2490.33
528.71	2748.37
528.90	2758.61
529.10	2830.29
529.30	2691.03
529.50	2455.51
529.70	2787.29
529.90	2727.89
530.09	2672.60
530.29	2480.09
530.49	2598.87
530.69	3076.05
530.89	2744.28
531.09	2766.81
531.28	2670.55
531.48	2912.21
531.68	2631.64
531.88	2676.70
532.08	2775.00
532.28	2693.08
532.47	2734.04
532.67	2758.61
532.87	2867.16
533.07	2582.49
533.27	2742.23
533.46	2680.79
533.66	2815.96
533.86	2670.55
534.06	2627.54
534.26	2707.41
534.45	2643.93
534.65	2820.05
534.85	2777.05
535.05	2598.87
535.25	2811.86
535.44	2537.43
535.64	2727.89
535.84	2678.74
536.04	2707.41
536.24	2598.87
536.43	2680.79
536.63	2623.45
536.83	2775.00
537.03	2721.75
537.22	2482.14
537.42	2504.67
537.62	2643.93
537.82	2541.53
538.02	2850.77
538.21	2799.57
538.41	3219.41
538.61	2828.24
538.81	2652.12
539.00	2770.90
539.20	2510.81
539.40	2621.40
539.60	2641.88
539.79	2777.05
539.99	2703.32
540.19	2564.06
540.39	2621.40
540.58	2768.85
540.78	2881.49
540.98	2629.59
541.18	2770.90
541.37	2801.62
541.57	2760.66
541.77	2842.58
541.97	2541.53
542.16	2461.66
542.36	2691.03
542.56	2623.45
542.76	2846.68
542.95	2719.70
543.15	2858.96
543.35	2828.24
543.54	2609.11
543.74	2592.73
543.94	2938.84
544.14	2654.17
544.33	2686.94
544.53	2537.43
544.73	2643.93
544.93	2676.70
545.12	2639.83
545.32	2648.02
545.52	2686.94
545.71	2607.06
545.91	2574.30
546.11	2584.54
546.30	2588.63
546.50	2711.51
546.70	2762.71
546.90	2705.37
547.09	2480.09
547.29	2643.93
547.49	2818.00
547.68	2637.78
547.88	2756.57
548.08	2861.01
548.27	3020.75
548.47	2643.93
548.67	2688.98
548.87	2830.29
549.06	2639.83
549.26	2611.16
549.46	2777.05
549.65	2670.55
549.85	2693.08
550.05	2727.89
550.24	2457.56
550.44	2764.76
550.64	2719.70
550.83	2682.84
551.03	2916.31
551.23	2842.58
551.42	2756.57
551.62	2656.22
551.82	2703.32
552.01	2742.23
552.21	2920.40
552.41	2568.15
552.60	2990.03
552.80	2762.71
553.00	2625.50
553.19	2783.19
553.39	3104.72
553.59	2611.16
553.78	2752.47
553.98	2629.59
554.17	2568.15
554.37	2701.27
554.57	2750.42
554.76	2521.05
554.96	2799.57
555.16	2660.31
555.35	2727.89
555.55	2781.14
555.75	2764.76
555.94	2883.54
556.14	2514.91
556.33	2641.88
556.53	2699.22
556.73	2697.17
556.92	2738.13
557.12	2621.40
557.32	3045.33
557.51	2959.31
557.71	2627.54
557.90	2852.82
558.10	2953.17
558.30	2609.11
558.49	2660.31
558.69	2607.06
558.88	2832.34
559.08	2729.94
559.28	2598.87
559.47	2639.83
559.67	2842.58
559.86	2965.46
560.06	2576.34
560.26	2709.46
560.45	2858.96
560.65	2697.17
560.84	2840.53
561.04	2521.05
561.24	2832.34
561.43	2670.55
561.63	2856.92
561.82	2703.32
562.02	2828.24
562.22	2576.34
562.41	2547.67
562.61	2686.94
562.80	2596.82
563.00	3043.28
563.19	2723.80
563.39	2719.70
563.59	2729.94
563.78	2590.68
563.98	2418.65
564.17	2654.17
564.37	2510.81
564.56	2693.08
564.76	2527.19
564.96	2832.34
565.15	2789.33
565.35	3080.14
565.54	2695.13
565.74	2693.08
565.93	2754.52
566.13	2779.09
566.32	2744.28
566.52	2744.28
566.71	2740.18
566.91	2813.91
567.11	2699.22
567.30	2572.25
567.50	2877.40
567.69	2772.95
567.89	2668.50
568.08	2576.34
568.28	2775.00
568.47	2549.72
568.67	2637.78
568.86	2582.49
569.06	2834.39
569.25	2723.80
569.45	2545.63
569.64	2721.75
569.84	2633.69
570.04	2744.28
570.23	2629.59
570.43	2592.73
570.62	2756.57
570.82	2932.69
571.01	2521.05
571.21	2572.25
571.40	2613.21
571.60	2883.54
571.79	2775.00
571.99	2775.00
572.18	2609.11
572.38	2822.10
572.57	2650.07
572.77	2695.13
572.96	3069.91
573.16	2750.42
573.35	2650.07
573.55	2799.57
573.74	2834.39
573.94	2676.70
574.13	2590.68
574.33	2844.63
574.52	2887.64
574.71	2717.65
574.91	2785.24
575.10	2498.52
575.30	2727.89
575.49	2684.89
575.69	2582.49
575.88	2736.09
576.08	2727.89
576.27	2926.55
576.47	2664.41
576.66	2840.53
576.86	2879.44
577.05	2820.05
577.25	2750.42
577.44	2883.54
577.64	2693.08
577.83	2885.59
578.02	2611.16
578.22	2899.92
578.41	3026.90
578.61	2617.30
578.80	2588.63
579.00	2602.97
579.19	2850.77
579.39	2750.42
579.58	2793.43
579.77	2654.17
579.97	3024.85
580.16	2887.64
580.36	2887.64
580.55	2775.00
580.75	2801.62
580.94	2777.05
581.13	2801.62
581.33	2861.01
581.52	2695.13
581.72	3016.66
581.91	2760.66
582.11	2662.36
582.30	2916.31
582.49	2795.48
582.69	2967.51
582.88	2711.51
583.08	2815.96
583.27	2879.44
583.47	2670.55
583.66	2598.87
583.85	2600.92
584.05	2793.43
584.24	2789.33
584.44	2656.22
584.63	2936.79
584.82	2867.16
585.02	2914.26
585.21	2801.62
585.41	2856.92
585.60	2818.00
585.79	2934.74
585.99	2875.35
586.18	2813.91
586.37	3626.95
586.57	5525.42
586.76	15855.37
586.96	35198.44
587.15	47936.80
587.34	56095.91
587.54	60879.97
587.73	54351.04
587.93	38446.52
588.12	29226.56
588.31	24153.74
588.51	21034.69
588.70	19171.04
588.89	16957.18
589.09	14692.13
589.28	12584.77
589.47	9799.53
589.67	7442.32
589.86	5832.62
590.06	4648.89
590.25	3858.37
590.44	3413.96
590.64	3039.19
590.83	3076.05
591.02	2990.03
591.22	2731.99
591.41	2781.14
591.60	2705.37
591.80	3155.92
591.99	2613.21
592.18	2686.94
592.38	2908.12
592.57	2674.65
592.76	2717.65
592.96	2777.05
593.15	2688.98
593.34	2901.97
593.54	2658.26
593.73	2758.61
593.92	2828.24
594.12	2820.05
594.31	2744.28
594.50	2879.44
594.70	2760.66
594.89	3143.63
595.08	2562.01
595.28	2760.66
595.47	3153.87
595.66	2854.87
595.86	2623.45
596.05	2629.59
596.24	2715.61
596.43	3043.28
596.63	2820.05
596.82	2772.95
597.01	2770.90
597.21	3039.19
597.40	2641.88
597.59	2723.80
597.79	2695.13
597.98	2789.33
598.17	2764.76
598.36	2699.22
598.56	2891.73
598.75	2668.50
598.94	2691.03
599.14	2705.37
599.33	2654.17
599.52	2871.25
599.71	2670.55
599.91	2746.33
600.10	2807.77
600.29	2762.71
600.48	2805.72
600.68	2760.66
600.87	2793.43
601.06	2717.65
601.26	2697.17
601.45	2717.65
601.64	2719.70
601.83	2947.03
602.03	2600.92
602.22	2545.63
602.41	2834.39
602.60	3137.49
602.80	2654.17
602.99	2686.94
603.18	2643.93
603.37	2760.66
603.57	2613.21
603.76	2703.32
603.95	2875.35
604.14	2731.99
604.34	2570.20
604.53	2590.68
604.72	2748.37
604.91	2805.72
605.10	2717.65
605.30	2521.05
605.49	3096.53
605.68	2846.68
605.87	2742.23
606.07	2584.54
606.26	2701.27
606.45	2820.05
606.64	2699.22
606.84	2578.39
607.03	2715.61
607.22	2844.63
607.41	2652.12
607.60	2574.30
607.80	2809.81
607.99	2637.78
608.18	2668.50
608.37	2721.75
608.56	2627.54
608.76	2834.39
608.95	2856.92
609.14	2691.03
609.33	2844.63
609.52	2893.78
609.72	2760.66
609.91	2844.63
610.10	2840.53
610.29	2977.75
610.48	2766.81
610.68	2744.28
610.87	2719.70
611.06	2815.96
611.25	2559.96
611.44	2799.57
611.63	2742.23
611.83	2979.79
612.02	2648.02
612.21	2758.61
612.40	2459.61
612.59	2580.44
612.79	2545.63
612.98	2666.46
613.17	2965.46
613.36	2736.09
613.55	2854.87
613.74	2717.65
613.93	2709.46
614.13	2863.06
614.32	2942.93
614.51	2756.57
614.70	2789.33
614.89	2678.74
615.08	2770.90
615.28	3125.20
615.47	2619.35
615.66	2867.16
615.85	2660.31
616.04	2826.20
616.23	2758.61
616.42	2768.85
616.62	2717.65
616.81	2713.56
617.00	2756.57
617.19	2813.91
617.38	2650.07
617.57	2717.65
617.76	2777.05
617.95	2889.68
618.15	2752.47
618.34	2844.63
618.53	2564.06
618.72	2850.77
618.91	2736.09
619.10	2805.72
619.29	2725.85
619.48	2682.84
619.68	2574.30
619.87	2670.55
620.06	2551.77
620.25	2768.85
620.44	2678.74
620.63	2658.26
620.82	2840.53
621.01	2787.29
621.20	2656.22
621.39	2652.12
621.59	2744.28
621.78	2664.41
621.97	2586.58
622.16	2703.32
622.35	2756.57
622.54	2863.06
622.73	2805.72
622.92	2414.56
623.11	2852.82
623.30	2670.55
623.49	2742.23
623.68	2568.15
623.88	2944.98
624.07	2664.41
624.26	2682.84
624.45	2686.94
624.64	2727.89
624.83	2828.24
625.02	2648.02
625.21	2658.26
625.40	2719.70
625.59	2844.63
625.78	2678.74
625.97	2850.77
626.16	2944.98
626.35	2834.39
626.54	2666.46
626.74	2881.49
626.93	2650.07
627.12	2639.83
627.31	2807.77
627.50	2713.56
627.69	2916.31
627.88	2635.74
628.07	2645.98
628.26	2441.18
628.45	2645.98
628.64	2572.25
628.83	2582.49
629.02	2586.58
629.21	2805.72
629.40	2801.62
629.59	2629.59
629.78	2697.17
629.97	2756.57
630.16	2723.80
630.35	2641.88
630.54	2645.98
630.73	2578.39
630.92	2721.75
631.11	2625.50
631.30	2711.51
631.49	2834.39
631.68	2723.80
631.87	2701.27
632.06	2500.57
632.25	3014.61
632.44	2734.04
632.63	2684.89
632.82	2672.60
633.01	2617.30
633.20	2803.67
633.39	2695.13
633.58	2527.19
633.77	2789.33
633.96	2789.33
634.15	2680.79
634.34	2686.94
634.53	2783.19
634.72	2568.15
634.91	2502.62
635.10	2777.05
635.29	2904.02
635.48	2791.38
635.67	2568.15
635.86	2555.86
636.05	2889.68
636.24	2697.17
636.43	2654.17
636.62	2721.75
636.81	2324.44
637.00	2715.61
637.19	2731.99
637.38	2627.54
637.57	2727.89
637.76	2693.08
637.95	2801.62
638.14	2758.61
638.33	2795.48
638.52	2797.53
638.71	2506.71
638.89	2541.53
639.08	3139.54
639.27	2901.97
639.46	2797.53
639.65	3221.45
639.84	3225.55
640.03	3248.08
640.22	3049.43
640.41	3117.01
640.60	2783.19
640.79	2914.26
640.98	2791.38
641.17	2863.06
641.36	2944.98
641.55	2904.02
641.74	2553.82
641.92	2629.59
642.11	2621.40
642.30	2670.55
642.49	2490.33
642.68	2660.31
642.87	2789.33
643.06	2852.82
643.25	2562.01
643.44	2551.77
643.63	2734.04
643.82	2832.34
644.00	2543.58
644.19	2691.03
644.38	2682.84
644.57	2785.24
644.76	2707.41
644.95	2691.03
645.14	2764.76
645.33	2674.65
645.52	2703.32
645.71	2480.09
645.89	2605.02
646.08	2650.07
646.27	2609.11
646.46	2813.91
646.65	2498.52
646.84	2707.41
647.03	2572.25
647.22	2904.02
647.40	2813.91
647.59	2666.46
647.78	2447.32
647.97	2600.92
648.16	2596.82
648.35	2883.54
648.54	2799.57
648.73	2613.21
648.91	2848.72
649.10	2760.66
649.29	2641.88
649.48	2566.10
649.67	2797.53
649.86	2711.51
650.05	2662.36
650.23	2858.96
650.42	2611.16
650.61	3002.32
650.80	2740.18
650.99	2998.23
651.18	2969.55
651.36	2850.77
651.55	2682.84
651.74	2770.90
651.93	2738.13
652.12	2637.78
652.31	2615.26
652.49	2668.50
652.68	2715.61
652.87	3030.99
653.06	2717.65
653.25	2922.45
653.44	2795.48
653.62	2990.03
653.81	2629.59
654.00	2641.88
654.19	2852.82
654.38	3198.93
654.56	2711.51
654.75	2674.65
654.94	2891.73
655.13	2750.42
655.32	2637.78
655.51	2725.85
655.69	2676.70
655.88	2844.63
656.07	2551.77
656.26	2660.31
656.45	2660.31
656.63	2725.85
656.82	2750.42
657.01	2928.60
657.20	2652.12
657.38	2889.68
657.57	2584.54
657.76	2555.86
657.95	2852.82
658.14	2670.55
658.32	2832.34
658.51	2547.67
658.70	2750.42
658.89	2842.58
659.08	2664.41
659.26	2820.05
659.45	2566.10
659.64	2846.68
659.83	2645.98
660.01	3071.95
660.20	2818.00
660.39	2920.40
660.58	2371.55
660.76	2727.89
660.95	2512.86
661.14	2750.42
661.33	2480.09
661.51	2635.74
661.70	2666.46
661.89	2828.24
662.08	2715.61
662.26	2529.24
662.45	2584.54
662.64	3053.52
662.83	2731.99
663.01	2523.10
663.20	2713.56
663.39	2848.72
663.58	2635.74
663.76	2645.98
663.95	2883.54
664.14	2625.50
664.32	2629.59
664.51	2609.11
664.70	2449.37
664.89	2871.25
665.07	2496.47
665.26	2699.22
665.45	2555.86
665.64	2756.57
665.82	2600.92
666.01	2756.57
666.20	2559.96
666.38	2811.86
666.57	2908.12
666.76	4224.96
666.95	10139.49
667.13	16965.37
667.32	21028.54
667.51	23801.49
667.69	24886.92
667.88	21507.77
668.07	15273.75
668.25	12891.96
668.44	10952.54
668.63	9424.75
668.81	8423.30
669.00	7219.09
669.19	6541.21
669.38	5705.64
669.56	4997.04
669.75	4265.92
669.94	3747.78
670.12	3196.88
670.31	2949.08
670.50	2826.20
670.68	2965.46
670.87	2904.02
671.06	2664.41
671.24	2811.86
671.43	2985.94
671.62	2809.81
671.80	2635.74
671.99	2781.14
672.18	2717.65
672.36	2775.00
672.55	2775.00
672.74	2670.55
672.92	2662.36
673.11	2924.50
673.29	2496.47
673.48	2695.13
673.67	2717.65
673.85	2871.25
674.04	2564.06
674.23	2709.46
674.41	2916.31
674.60	2564.06
674.79	2531.29
674.97	2600.92
675.16	2811.86
675.34	2879.44
675.53	2588.63
675.72	2727.89
675.90	3020.75
676.09	2709.46
676.28	2738.13
676.46	2461.66
676.65	2852.82
676.83	2576.34
677.02	2693.08
677.21	2717.65
677.39	2727.89
677.58	2580.44
677.77	2568.15
677.95	2576.34
678.14	2691.03
678.32	2662.36
678.51	2650.07
678.70	2969.55
678.88	2656.22
679.07	2754.52
679.25	2674.65
679.44	2664.41
679.63	2484.19
679.81	2715.61
680.00	2848.72
680.18	2709.46
680.37	2924.50
680.55	2840.53
680.74	2602.97
680.93	2508.76
681.11	2713.56
681.30	2678.74
681.48	2686.94
681.67	2660.31
681.85	2727.89
682.04	2596.82
682.23	2754.52
682.41	2740.18
682.60	2703.32
682.78	2742.23
682.97	2594.78
683.15	2715.61
683.34	2736.09
683.53	2938.84
683.71	2482.14
683.90	2840.53
684.08	3002.32
684.27	2631.64
684.45	2713.56
684.64	2826.20
684.82	2701.27
685.01	2914.26
685.19	2609.11
685.38	2951.12
685.57	2756.57
685.75	2574.30
685.94	2514.91
686.12	2506.71
686.31	2619.35
686.49	2891.73
686.68	2492.38
686.86	2723.80
687.05	2621.40
687.23	2854.87
687.42	2609.11
687.60	2535.39
687.79	2797.53
687.97	2961.36
688.16	2772.95
688.34	2797.53
688.53	2547.67
688.71	2717.65
688.90	2797.53
689.08	2701.27
689.27	2533.34
689.45	2889.68
689.64	2760.66
689.82	2734.04
690.01	2811.86
690.19	2711.51
690.38	2672.60
690.56	2877.40
690.75	2594.78
690.93	2695.13
691.12	2590.68
691.30	2658.26
691.49	2701.27
691.67	2768.85
691.86	2891.73
692.04	2615.26
692.23	2715.61
692.41	2703.32
692.60	2936.79
692.78	2838.48
692.97	2717.65
693.15	2848.72
693.34	2908.12
693.52	2828.24
693.71	2701.27
693.89	2617.30
694.08	2496.47
694.26	2731.99
694.44	2781.14
694.63	2832.34
694.81	2527.19
695.00	2666.46
695.18	2916.31
695.37	3026.90
695.55	2797.53
695.74	2627.54
695.92	2592.73
696.10	2975.70
696.29	2525.15
696.47	2600.92
696.66	2516.95
696.84	2490.33
697.03	2709.46
697.21	2936.79
697.40	4044.74
697.58	2863.06
697.76	2596.82
697.95	2576.34
698.13	2551.77
698.32	2658.26
698.50	2662.36
698.68	2627.54
698.87	2807.77
699.05	2953.17
699.24	2684.89
699.42	2555.86
699.61	2656.22
699.79	2678.74
699.97	2719.70
700.16	2578.39
700.34	2547.67
700.53	2799.57
700.71	2805.72
700.89	2820.05
701.08	2635.74
701.26	2668.50
701.45	3188.69
701.63	2525.15
701.81	2668.50
702.00	2602.97
702.18	2670.55
702.37	2615.26
702.55	2908.12
702.73	2744.28
702.92	2691.03
703.10	2908.12
703.28	2832.34
703.47	2631.64
703.65	2744.28
703.84	2822.10
704.02	2674.65
704.20	2963.41
704.39	2641.88
704.57	2521.05
704.75	2867.16
704.94	2803.67
705.12	2822.10
705.30	3176.40
705.49	5945.25
705.67	11665.23
705.86	17751.79
706.04	20272.84
706.22	22722.21
706.41	22687.40
706.59	17762.03
706.77	13233.97
706.96	11503.44
707.14	10463.07
707.32	8871.80
707.51	7985.03
707.69	6397.85
707.87	5416.88
708.06	4411.32
708.24	3897.28
708.42	3325.90
708.61	3393.48
708.79	2775.00
708.97	2805.72
709.16	2783.19
709.34	2791.38
709.52	2662.36
709.71	2703.32
709.89	2824.15
710.07	2672.60
710.26	2615.26
710.44	2650.07
710.62	2791.38
710.80	2738.13
710.99	2801.62
711.17	2695.13
711.35	2645.98
711.54	2574.30
711.72	2883.54
711.90	2648.02
712.09	2840.53
712.27	2729.94
712.45	2734.04
712.63	2656.22
712.82	2744.28
713.00	2717.65
713.18	2809.81
713.37	2789.33
713.55	2826.20
713.73	2779.09
713.91	2734.04
714.10	2715.61
714.28	2770.90
714.46	2867.16
714.65	2684.89
714.83	2680.79
715.01	2760.66
715.19	2752.47
715.38	2576.34
715.56	2742.23
715.74	2551.77
715.92	2654.17
716.11	2867.16
716.29	2426.84
716.47	2758.61
716.65	2678.74
716.84	2512.86
717.02	2740.18
717.20	2449.37
717.38	2666.46
717.57	2680.79
717.75	2775.00
717.93	2678.74
718.11	2840.53
718.30	2564.06
718.48	2613.21
718.66	2805.72
718.84	2914.26
719.03	2662.36
719.21	2535.39
719.39	2998.23
719.57	2822.10
719.75	2787.29
719.94	2645.98
720.12	2680.79
720.30	2750.42
720.48	2758.61
720.67	2594.78
720.85	2582.49
721.03	2662.36
721.21	2531.29
721.39	2813.91
721.58	2705.37
721.76	2748.37
721.94	2762.71
722.12	2777.05
722.30	2881.49
722.49	2680.79
722.67	2645.98
722.85	2707.41
723.03	2537.43
723.21	2648.02
723.40	2731.99
723.58	2766.81
723.76	2811.86
723.94	2932.69
724.12	2629.59
724.30	2922.45
724.49	2873.30
724.67	2600.92
724.85	2873.30
725.03	2519.00
725.21	2764.76
725.40	2861.01
725.58	2654.17
725.76	2826.20
725.94	2803.67
726.12	2551.77
726.30	2680.79
726.49	2605.02
726.67	2660.31
726.85	2756.57
727.03	3061.71
727.21	4085.70
727.39	5083.06
727.57	5660.59
727.76	6213.54
727.94	6281.12
728.12	5586.86
728.30	4587.45
728.48	4202.43
728.66	3928.00
728.84	3786.69
729.03	3405.77
729.21	3131.34
729.39	2906.07
729.57	2772.95
729.75	2772.95
729.93	2770.90
730.11	2678.74
730.30	2670.55
730.48	2695.13
730.66	2813.91
730.84	2828.24
731.02	2748.37
731.20	2619.35
731.38	2637.78
731.56	2551.77
731.74	2586.58
731.93	2772.95
732.11	2695.13
732.29	2637.78
732.47	2772.95
732.65	2723.80
732.83	2822.10
733.01	2811.86
733.19	2609.11
733.37	2840.53
733.56	2744.28
733.74	2582.49
733.92	2940.88
734.10	2686.94
734.28	2727.89
734.46	2500.57
734.64	2617.30
734.82	2672.60
735.00	2676.70
735.18	2627.54
735.36	2727.89
735.54	2711.51
735.73	2666.46
735.91	2754.52
736.09	2861.01
736.27	2742.23
736.45	2789.33
736.63	2422.75
736.81	2723.80
736.99	2787.29
737.17	2949.08
737.35	2639.83
737.53	2781.14
737.71	2650.07
737.89	2815.96
738.07	2541.53
738.25	2633.69
738.43	2519.00
738.61	2676.70
738.80	2432.99
738.98	2535.39
739.16	2650.07
739.34	2621.40
739.52	2875.35
739.70	2701.27
739.88	2785.24
740.06	2768.85
740.24	2445.27
740.42	2891.73
740.60	2508.76
740.78	2686.94
740.96	2406.36
741.14	2670.55
741.32	2707.41
741.50	2488.28
741.68	2979.79
741.86	2869.20
742.04	2512.86
742.22	2555.86
742.40	2660.31
742.58	2832.34
742.76	2547.67
742.94	2803.67
743.12	2447.32
743.30	2719.70
743.48	2826.20
743.66	2465.75
743.84	2709.46
744.02	2719.70
744.20	2643.93
744.38	2572.25
744.56	2570.20
744.74	2983.89
744.92	2801.62
745.10	2826.20
745.28	2787.29
745.46	2975.70
745.64	2731.99
745.82	2789.33
746.00	2668.50
746.18	2748.37
746.36	2492.38
746.54	2793.43
746.72	2625.50
746.90	2535.39
747.08	2922.45
747.26	2609.11
747.44	2805.72
747.62	2856.92
747.80	2787.29
747.98	2746.33
748.15	2674.65
748.33	3014.61
748.51	2758.61
748.69	2752.47
748.87	2629.59
749.05	2705.37
749.23	2756.57
749.41	2637.78
749.59	2678.74
749.77	2879.44
749.95	2705.37
750.13	2711.51
750.31	2813.91
750.49	2668.50
750.67	2758.61
750.85	2813.91
751.03	2621.40
751.20	2971.60
751.38	2686.94
751.56	2611.16
751.74	2715.61
751.92	2723.80
752.10	2584.54
752.28	2738.13
752.46	2633.69
752.64	2750.42
752.82	2691.03
753.00	2787.29
753.18	2564.06
753.35	2590.68
753.53	2709.46
753.71	2588.63
753.89	2758.61
754.07	2725.85
754.25	2869.20
754.43	2793.43
754.61	2523.10
754.79	2803.67
754.97	2686.94
755.14	2783.19
755.32	2494.43
755.50	2699.22
755.68	2699.22
755.86	2590.68
756.04	2580.44
756.22	2494.43
756.40	2799.57
756.57	2934.74
756.75	2562.01
756.93	2965.46
757.11	2861.01
757.29	2541.53
757.47	2564.06
757.65	2568.15
757.82	2383.84
758.00	2594.78
758.18	2619.35
758.36	2541.53
758.54	2904.02
758.72	2430.94
758.90	2842.58
759.07	2783.19
759.25	2510.81
759.43	2752.47
759.61	2475.99
759.79	3891.14
759.97	2832.34
760.15	2586.58
760.32	2582.49
760.50	2793.43
760.68	2957.27
760.86	2574.30
761.04	2815.96
761.22	2875.35
761.39	2682.84
761.57	2711.51
761.75	2627.54
761.93	2824.15
762.11	2725.85
762.28	2629.59
762.46	2590.68
762.64	2852.82
762.82	2578.39
763.00	2600.92
763.18	2873.30
763.35	2539.48
763.53	2787.29
763.71	2672.60
763.89	2693.08
764.07	2721.75
764.24	2734.04
764.42	2752.47
764.60	2629.59
764.78	2818.00
764.96	2801.62
765.13	2820.05
765.31	2531.29
765.49	2889.68
765.67	2584.54
765.84	2568.15
766.02	2635.74
766.20	2564.06
766.38	2785.24
766.56	2727.89
766.73	2828.24
766.91	2654.17
767.09	2725.85
767.27	2828.24
767.44	2590.68
767.62	2807.77
767.80	2664.41
767.98	2686.94
768.15	2621.40
768.33	2830.29
768.51	2832.34
768.69	2801.62
768.87	2713.56
769.04	2738.13
769.22	3106.77
769.40	2840.53
769.58	2838.48
769.75	2744.28
769.93	2875.35
770.11	2662.36
770.28	2570.20
770.46	2889.68
770.64	2758.61
770.82	2666.46
770.99	2631.64
771.17	2777.05
771.35	2621.40
771.53	2662.36
771.70	2639.83
771.88	2715.61
772.06	2664.41
772.23	2686.94
772.41	2713.56
772.59	2715.61
772.77	2549.72
772.94	2670.55
773.12	2707.41
773.30	2600.92
773.47	2725.85
773.65	2551.77
773.83	2834.39
774.01	2738.13
774.18	2455.51
774.36	2619.35
774.54	2564.06
774.71	2793.43
774.89	2510.81
775.07	2584.54
775.24	2564.06
775.42	2660.31
775.60	2944.98
775.78	2699.22
775.95	2478.04
776.13	2443.23
776.31	2465.75
776.48	2762.71
776.66	2869.20
776.84	2664.41
777.01	2650.07
777.19	2574.30
777.37	2570.20
777.54	2901.97
777.72	2893.78
777.90	2719.70
778.07	2650.07
778.25	3217.36
778.43	2850.77
778.60	2562.01
778.78	2750.42
778.96	2912.21
779.13	2584.54
779.31	2736.09
779.49	2699.22
779.66	2756.57
779.84	2660.31
780.01	2650.07
780.19	2555.86
780.37	2920.40
780.54	2830.29
780.72	2572.25
780.90	2645.98
781.07	2674.65
781.25	2637.78
781.43	2772.95
781.60	2668.50
781.78	2947.03
781.95	2828.24
782.13	2635.74
782.31	2598.87
782.48	2449.37
782.66	2729.94
782.83	2887.64
783.01	2723.80
783.19	2824.15
783.36	2699.22
783.54	2512.86
783.72	2785.24
783.89	2643.93
784.07	2766.81
784.24	2752.47
784.42	2797.53
784.60	2744.28
784.77	2762.71
784.95	2453.47
785.12	2607.06
785.30	2781.14
785.47	2570.20
785.65	2576.34
785.83	2639.83
786.00	2547.67
786.18	2777.05
786.35	2555.86
786.53	2535.39
786.71	2891.73
786.88	2731.99
787.06	2660.31
787.23	2686.94
787.41	2576.34
787.58	2695.13
787.76	2625.50
787.94	2678.74
788.11	2699.22
788.29	2564.06
788.46	2586.58
788.64	2531.29
788.81	2643.93
788.99	2656.22
789.16	2588.63
789.34	2723.80
789.52	2586.58
789.69	2684.89
789.87	2426.84
790.04	2627.54
790.22	2680.79
790.39	3006.42
790.57	2592.73
790.74	2486.23
790.92	2822.10
791.09	2547.67
791.27	2719.70
791.44	2748.37
791.62	2666.46
791.79	2803.67
791.97	2729.94
792.15	3043.28
792.32	2836.44
792.50	2785.24
792.67	2842.58
792.85	2807.77
793.02	2727.89
793.20	2605.02
793.37	2531.29
793.55	2678.74
793.72	2482.14
793.90	2836.44
794.07	2625.50
794.25	2506.71
794.42	2785.24
794.60	2654.17
794.77	2670.55
794.95	2775.00
795.12	2891.73
795.30	2672.60
795.47	2504.67
795.65	2994.13
795.82	2795.48
796.00	2557.91
796.17	2613.21
796.34	2568.15
796.52	2850.77
796.69	2836.44
796.87	2701.27
797.04	2652.12
797.22	2830.29
797.39	2729.94
797.57	2766.81
797.74	2717.65
797.92	2760.66
798.09	2543.58
798.27	2906.07
798.44	2566.10
798.62	2584.54
798.79	2693.08
798.96	2793.43
799.14	2576.34
799.31	3178.45
799.49	2656.22
799.66	2664.41
799.84	2713.56
800.01	2613.21
800.19	2699.22
800.36	2432.99
800.53	2568.15
800.71	2775.00
800.88	3022.80
801.06	2615.26
801.23	2580.44
801.41	2717.65
801.58	2621.40
801.75	2674.65
801.93	2688.98
802.10	2768.85
802.28	2678.74
802.45	2664.41
802.63	2674.65
802.80	2897.88
802.97	2621.40
803.15	2719.70
803.32	2607.06
803.50	2596.82
803.67	2637.78
803.84	2510.81
804.02	2645.98
804.19	2684.89
804.37	2381.79
804.54	2473.95
804.71	2576.34
804.89	2660.31
805.06	2619.35
805.24	2582.49
805.41	2484.19
805.58	2639.83
805.76	3043.28
805.93	2605.02
806.10	2807.77
806.28	2691.03
806.45	2723.80
806.63	2654.17
806.80	2691.03
806.97	2762.71
807.15	2848.72
807.32	2779.09
807.49	2697.17
807.67	2596.82
807.84	2822.10
808.01	2482.14
808.19	2877.40
808.36	3061.71
808.54	2629.59
808.71	2566.10
808.88	2723.80
809.06	2889.68
809.23	2867.16
809.40	2674.65
809.58	2768.85
809.75	2668.50
809.92	2521.05
810.10	2994.13
810.27	2678.74
810.44	2797.53
810.62	2785.24
810.79	2719.70
810.96	2633.69
811.14	2703.32
811.31	2770.90
811.48	2754.52
811.66	2697.17
811.83	2891.73
812.00	2748.37
812.18	2707.41
812.35	2944.98
812.52	2707.41
812.69	2742.23
812.87	2645.98
813.04	2559.96
813.21	2756.57
813.39	2697.17
813.56	2559.96
813.73	2797.53
813.91	2539.48
814.08	2727.89
814.25	2676.70
814.42	2498.52
814.60	2697.17
814.77	2809.81
814.94	2570.20
815.12	2701.27
815.29	2914.26
815.46	2580.44
815.63	2711.51
815.81	2635.74
815.98	2627.54
816.15	2680.79
816.33	2707.41
816.50	2596.82
816.67	2731.99
816.84	2768.85
817.02	2629.59
817.19	2629.59
817.36	2787.29
817.53	2633.69
817.71	2566.10
817.88	2748.37
818.05	2723.80
818.22	2699.22
818.40	2852.82
818.57	2572.25
818.74	2715.61
818.91	2654.17
819.09	2715.61
819.26	2750.42
819.43	2721.75
819.60	2535.39
819.78	2760.66
819.95	2756.57
820.12	2514.91
820.29	2930.64
820.47	2795.48
820.64	2580.44
820.81	2535.39
820.98	2637.78
821.15	2584.54
821.33	2852.82
821.50	2525.15
821.67	2807.77
821.84	2539.48
822.02	2691.03
822.19	2852.82
822.36	2684.89
822.53	2643.93
822.70	2545.63
822.88	2791.38
823.05	2953.17
823.22	2596.82
823.39	2738.13
823.56	2635.74
823.74	3020.75
823.91	2580.44
824.08	2625.50
824.25	2578.39
824.42	2981.84
824.60	2480.09
824.77	2731.99
824.94	2727.89
825.11	2865.11
825.28	2473.95
825.45	2697.17
825.63	2705.37
825.80	2572.25
825.97	2736.09
826.14	2770.90
826.31	2465.75
826.48	2789.33
826.66	2629.59
826.83	2580.44
827.00	2645.98
827.17	2605.02
827.34	2605.02
827.51	2596.82
827.69	2703.32
827.86	2516.95
828.03	2627.54
828.20	2654.17
828.37	2691.03
828.54	2924.50
828.71	2553.82
828.89	2758.61
829.06	2781.14
829.23	2940.88
829.40	2580.44
829.57	2535.39
829.74	2828.24
829.91	2564.06
830.09	2578.39
830.26	2768.85
830.43	2936.79
830.60	2703.32
830.77	2711.51
830.94	2867.16
831.11	2717.65
831.28	2695.13
831.46	2764.76
831.63	2588.63
831.80	2897.88
831.97	2584.54
832.14	2621.40
832.31	2684.89
832.48	2789.33
832.65	2840.53
832.82	2746.33
832.99	2713.56
833.17	2574.30
833.34	2975.70
833.51	2656.22
833.68	2355.16
833.85	2887.64
834.02	2596.82
834.19	2537.43
834.36	2602.97
834.53	2809.81
834.70	2891.73
834.87	2727.89
835.04	2551.77
835.22	2545.63
835.39	2621.40
835.56	2553.82
835.73	2582.49
835.90	2863.06
836.07	2580.44
836.24	2701.27
836.41	2508.76
836.58	2609.11
836.75	2842.58
836.92	2557.91
837.09	2523.10
837.26	2797.53
837.43	2789.33
837.60	2611.16
837.77	2555.86
837.94	2785.24
838.12	2869.20
838.29	2449.37
838.46	2418.65
838.63	2559.96
838.80	2940.88
838.97	2588.63
839.14	2539.48
839.31	2674.65
839.48	2791.38
839.65	2478.04
839.82	2637.78
839.99	2775.00
840.16	2729.94
840.33	2523.10
840.50	2586.58
840.67	2547.67
840.84	2373.60
841.01	2461.66
841.18	2572.25
841.35	2697.17
841.52	2775.00
841.69	2822.10
841.86	2590.68
842.03	2697.17
842.20	2801.62
842.37	2605.02
842.54	2523.10
842.71	2648.02
842.88	2486.23
843.05	2619.35
843.22	2531.29
843.39	2746.33
843.56	2635.74
843.73	2594.78
843.90	2590.68
844.07	2766.81
844.24	2820.05
844.41	2641.88
844.58	2621.40
844.75	2682.84
844.92	2797.53
845.09	2586.58
845.26	2543.58
845.43	2875.35
845.60	2586.58
845.77	2693.08
845.94	2637.78
846.10	2801.62
846.27	2553.82
846.44	2498.52
846.61	2471.90
846.78	2756.57
846.95	2760.66
847.12	2504.67
847.29	2519.00
847.46	2525.15
847.63	2809.81
847.80	2492.38
847.97	2498.52
848.14	3106.77
848.31	2637.78
848.48	2469.85
848.65	2688.98
848.82	2656.22
848.98	3141.58
849.15	2715.61
849.32	2731.99
849.49	2897.88
849.66	2713.56
849.83	2592.73
850.00	2473.95
850.17	2885.59
850.34	2627.54
850.51	2484.19
850.68	2580.44
850.85	3074.00
851.01	2775.00
851.18	2510.81
851.35	2631.64
851.52	2750.42
851.69	2940.88
851.86	2465.75
852.03	2494.43
852.20	2840.53
852.37	2686.94
852.53	2387.93
852.70	2557.91
852.87	2750.42
853.04	2801.62
853.21	2506.71
853.38	2742.23
853.55	2906.07
853.72	2826.20
853.89	2494.43
854.05	2519.00
854.22	2625.50
854.39	2656.22
854.56	2564.06
854.73	2654.17
854.90	2529.24
855.07	2635.74
855.23	2531.29
855.40	2529.24
855.57	2709.46
855.74	2424.80
855.91	2713.56
856.08	2439.13
856.25	2494.43
856.41	2600.92
856.58	2551.77
856.75	2652.12
856.92	2594.78
857.09	2775.00
857.26	2461.66
857.42	2605.02
857.59	2768.85
857.76	2688.98
857.93	2609.11
858.10	2615.26
858.27	2529.24
858.43	2799.57
858.60	2519.00
858.77	2471.90
858.94	2688.98
859.11	2873.30
859.27	2631.64
859.44	2527.19
859.61	3010.51
859.78	2779.09
859.95	2504.67
860.12	2519.00
860.28	3014.61
860.45	2961.36
860.62	2465.75
860.79	2586.58
860.95	2617.30
861.12	2582.49
861.29	2480.09
861.46	2594.78
861.63	2727.89
861.79	2731.99
861.96	2379.74
862.13	2519.00
862.30	2856.92
862.47	2586.58
862.63	2482.14
862.80	2580.44
862.97	2852.82
863.14	2772.95
863.30	2572.25
863.47	2486.23
863.64	2889.68
863.81	2758.61
863.97	2486.23
864.14	2637.78
864.31	2654.17
864.48	2752.47
864.65	2545.63
864.81	2713.56
864.98	2822.10
865.15	2789.33
865.32	2658.26
865.48	2672.60
865.65	2889.68
865.82	2592.73
865.98	2580.44
866.15	2586.58
866.32	2709.46
866.49	2623.45
866.65	2748.37
866.82	2500.57
866.99	2713.56
867.16	2598.87
867.32	2502.62
867.49	2508.76
867.66	2641.88
867.83	2660.31
867.99	2459.61
868.16	2574.30
868.33	2519.00
868.49	2625.50
868.66	2584.54
868.83	2660.31
868.99	2779.09
869.16	2691.03
869.33	2695.13
869.50	2605.02
869.66	2711.51
869.83	2639.83
870.00	2492.38
870.16	2650.07
870.33	2654.17
870.50	2785.24
870.66	2613.21
870.83	2633.69
871.00	2686.94
871.17	2770.90
871.33	2598.87
871.50	2582.49
871.67	2660.31
871.83	2633.69
872.00	2664.41
872.17	2566.10
872.33	2955.22
872.50	2852.82
872.67	2525.15
872.83	2570.20
873.00	2781.14
873.17	2709.46
873.33	2664.41
873.50	2605.02
873.67	2588.63
873.83	2584.54
874.00	2574.30
874.16	2674.65
874.33	2797.53
874.50	2512.86
874.66	2572.25
874.83	2666.46
875.00	2865.11
875.16	2783.19
875.33	2691.03
875.50	2410.46
875.66	2613.21
875.83	2699.22
875.99	2631.64
876.16	2580.44
876.33	2598.87
876.49	2629.59
876.66	2596.82
876.83	2584.54
876.99	2445.27
877.16	2674.65
877.32	2570.20
877.49	2570.20
877.66	2719.70
877.82	2906.07
877.99	2607.06
878.15	2791.38
878.32	2758.61
878.49	2787.29
878.65	2523.10
878.82	2824.15
878.98	2668.50
879.15	2846.68
879.32	2701.27
879.48	2695.13
879.65	2596.82
879.81	2617.30
879.98	2564.06
880.15	2600.92
880.31	2777.05
880.48	2611.16
880.64	2650.07
880.81	2609.11
880.97	2922.45
881.14	2881.49
881.31	2568.15
881.47	2641.88
881.64	2648.02
881.80	2420.70
881.97	2678.74
882.13	2570.20
882.30	2557.91
882.47	2588.63
882.63	2504.67
882.80	2525.15
882.96	2594.78
883.13	2918.36
883.29	2617.30
883.46	2570.20
883.62	2990.03
883.79	2736.09
883.95	2727.89
884.12	2545.63
884.29	2889.68
884.45	2668.50
884.62	2535.39
884.78	2539.48
884.95	2836.44
885.11	2619.35
885.28	2619.35
885.44	2555.86
885.61	2818.00
885.77	2990.03
885.94	2670.55
886.10	2580.44
886.27	2709.46
886.43	2887.64
886.60	2811.86
886.76	2527.19
886.93	2572.25
887.09	2746.33
887.26	2500.57
887.42	2611.16
887.59	2930.64
887.75	2971.60
887.92	2695.13
888.08	2662.36
888.25	2957.27
888.41	2838.48
888.58	2633.69
888.74	2578.39
888.91	2549.72
>>>>>End Processed Spectral Data<<<<<
