SpectraSuite Data File
++++++++++++++++++++++++++++++++++++
Date: Thu May 05 16:20:58 CEST 2016
User: root
Dark Spectrum Present: No
Reference Spectrum Present: No
Number of Sampled Component Spectra: 1
Spectrometers: USB4C02835
Integration Time (usec): 100000 (USB4C02835)
Spectra Averaged: 1 (USB4C02835)
Boxcar Smoothing: 0 (USB4C02835)
Correct for Electrical Dark: No (USB4C02835)
Strobe/Lamp Enabled: No (USB4C02835)
Correct for Detector Non-linearity: No (USB4C02835)
Correct for Stray Light: No (USB4C02835)
Number of Pixels in Processed Spectrum: 3648
>>>>>Begin Processed Spectral Data<<<<<
177.47	2027.49
177.69	2027.49
177.91	2027.49
178.13	2033.63
178.36	1992.67
178.58	2592.73
178.80	2703.32
179.02	2482.14
179.24	2473.95
179.46	2531.29
179.68	2578.39
179.90	2660.31
180.13	2701.27
180.35	2375.64
180.57	2525.15
180.79	2846.68
181.01	2766.81
181.23	2465.75
181.45	2654.17
181.67	2779.09
181.90	2820.05
182.12	2533.34
182.34	2404.32
182.56	2760.66
182.78	2742.23
183.00	2484.19
183.22	2475.99
183.44	2484.19
183.66	3074.00
183.89	2584.54
184.11	2533.34
184.33	2801.62
184.55	2848.72
184.77	2426.84
184.99	2598.87
185.21	2633.69
185.43	3024.85
185.65	2480.09
185.87	2449.37
186.10	3143.63
186.32	3033.04
186.54	2586.58
186.76	2592.73
186.98	2820.05
187.20	2680.79
187.42	2508.76
187.64	2441.18
187.86	2779.09
188.08	2889.68
188.30	2488.28
188.52	2607.06
188.75	2967.51
188.97	2861.01
189.19	2463.71
189.41	2514.91
189.63	2775.00
189.85	2664.41
190.07	2449.37
190.29	2402.27
190.51	2799.57
190.73	2566.10
190.95	2701.27
191.17	2576.34
191.39	2496.47
191.61	2684.89
191.84	2555.86
192.06	2602.97
192.28	2521.05
192.50	3229.65
192.72	2611.16
192.94	2596.82
193.16	2826.20
193.38	2748.37
193.60	2420.70
193.82	2555.86
194.04	2879.44
194.26	2772.95
194.48	2506.71
194.70	2537.43
194.92	2701.27
195.14	2869.20
195.36	2519.00
195.58	2539.48
195.80	2738.13
196.02	2559.96
196.24	2453.47
196.46	2607.06
196.69	2680.79
196.91	2992.08
197.13	2531.29
197.35	2535.39
197.57	2924.50
197.79	2822.10
198.01	2705.37
198.23	2570.20
198.45	2734.04
198.67	2607.06
198.89	2383.84
199.11	2588.63
199.33	2641.88
199.55	2457.56
199.77	2504.67
199.99	2639.83
200.21	2672.60
200.43	2783.19
200.65	2299.87
200.87	2293.72
201.09	2772.95
201.31	2709.46
201.53	2568.15
201.75	2607.06
201.97	2756.57
202.19	2756.57
202.41	2570.20
202.63	2633.69
202.85	2783.19
203.07	2775.00
203.29	2564.06
203.51	2318.30
203.73	2656.22
203.95	3041.23
204.17	2559.96
204.39	2588.63
204.61	2701.27
204.83	2637.78
205.05	2658.26
205.27	2547.67
205.49	3069.91
205.71	2693.08
205.93	2412.51
206.15	2400.22
206.37	2658.26
206.59	2691.03
206.81	2414.56
207.03	2496.47
207.25	2555.86
207.47	2828.24
207.69	2510.81
207.91	2717.65
208.13	2965.46
208.34	2705.37
208.56	2480.09
208.78	2613.21
209.00	2611.16
209.22	2723.80
209.44	2564.06
209.66	2463.71
209.88	2760.66
210.10	2703.32
210.32	2510.81
210.54	2668.50
210.76	2742.23
210.98	2850.77
211.20	2379.74
211.42	2539.48
211.64	2877.40
211.86	2826.20
212.08	2588.63
212.30	2547.67
212.52	2660.31
212.74	2721.75
212.96	2547.67
213.17	2639.83
213.39	2795.48
213.61	2977.75
213.83	2453.47
214.05	2385.88
214.27	2916.31
214.49	2562.01
214.71	2379.74
214.93	2557.91
215.15	2740.18
215.37	2899.92
215.59	2373.60
215.81	2582.49
216.03	2904.02
216.24	2795.48
216.46	2568.15
216.68	2564.06
216.90	2889.68
217.12	2891.73
217.34	2379.74
217.56	2711.51
217.78	2883.54
218.00	2750.42
218.22	2562.01
218.44	2615.26
218.66	2674.65
218.87	2938.84
219.09	2547.67
219.31	2572.25
219.53	2777.05
219.75	2621.40
219.97	2598.87
220.19	2555.86
220.41	2762.71
220.63	3030.99
220.85	2541.53
221.06	2594.78
221.28	2912.21
221.50	2813.91
221.72	2514.91
221.94	2441.18
222.16	2740.18
222.38	2750.42
222.60	2498.52
222.82	2584.54
223.03	2840.53
223.25	2504.67
223.47	2461.66
223.69	2725.85
223.91	2846.68
224.13	2752.47
224.35	2480.09
224.57	2688.98
224.78	2805.72
225.00	2576.34
225.22	2512.86
225.44	2447.32
225.66	2801.62
225.88	2674.65
226.10	2557.91
226.32	2539.48
226.53	2928.60
226.75	2648.02
226.97	2465.75
227.19	2510.81
227.41	2529.24
227.63	2615.26
227.85	2326.49
228.06	2502.62
228.28	2740.18
228.50	2775.00
228.72	2424.80
228.94	2469.85
229.16	2475.99
229.37	2582.49
229.59	2435.03
229.81	2648.02
230.03	2627.54
230.25	2562.01
230.47	2461.66
230.69	2473.95
230.90	2936.79
231.12	2600.92
231.34	2596.82
231.56	2613.21
231.78	2600.92
232.00	2840.53
232.21	2547.67
232.43	2502.62
232.65	2424.80
232.87	2770.90
233.09	2353.12
233.30	2482.14
233.52	2891.73
233.74	2676.70
233.96	2478.04
234.18	2695.13
234.40	2668.50
234.61	3082.19
234.83	2422.75
235.05	2449.37
235.27	3055.57
235.49	2856.92
235.70	2445.27
235.92	2658.26
236.14	2832.34
236.36	3090.38
236.58	2346.97
236.79	2609.11
237.01	2678.74
237.23	2740.18
237.45	2650.07
237.67	2547.67
237.88	2826.20
238.10	3014.61
238.32	2453.47
238.54	2494.43
238.76	2600.92
238.97	2574.30
239.19	2521.05
239.41	2590.68
239.63	2867.16
239.85	2635.74
240.06	2502.62
240.28	2564.06
240.50	2752.47
240.72	2748.37
240.93	2492.38
241.15	2543.58
241.37	2705.37
241.59	2889.68
241.81	2519.00
242.02	2580.44
242.24	2686.94
242.46	2799.57
242.68	2373.60
242.89	2490.33
243.11	2811.86
243.33	2721.75
243.55	2514.91
243.76	2580.44
243.98	2641.88
244.20	2764.76
244.42	2506.71
244.64	2559.96
244.85	2551.77
245.07	2582.49
245.29	2521.05
245.51	2484.19
245.72	2723.80
245.94	2904.02
246.16	2488.28
246.38	2555.86
246.59	2609.11
246.81	2656.22
247.03	2402.27
247.24	2439.13
247.46	2686.94
247.68	2729.94
247.90	2432.99
248.11	2473.95
248.33	2791.38
248.55	2748.37
248.77	2547.67
248.98	2619.35
249.20	2930.64
249.42	2754.52
249.64	2519.00
249.85	2478.04
250.07	2613.21
250.29	2744.28
250.50	2623.45
250.72	2482.14
250.94	2742.23
251.16	3047.38
251.37	2488.28
251.59	2559.96
251.81	2822.10
252.02	2922.45
252.24	2502.62
252.46	2586.58
252.68	2611.16
252.89	2625.50
253.11	2383.84
253.33	2668.50
253.54	2912.21
253.76	2553.82
253.98	2475.99
254.20	2523.10
254.41	2539.48
254.63	2678.74
254.85	2363.36
255.06	2584.54
255.28	2787.29
255.50	2637.78
255.71	2441.18
255.93	2377.69
256.15	2727.89
256.36	2807.77
256.58	2426.84
256.80	2465.75
257.02	2697.17
257.23	2650.07
257.45	2519.00
257.67	2662.36
257.88	2670.55
258.10	2775.00
258.32	2473.95
258.53	2596.82
258.75	2934.74
258.97	2656.22
259.18	2451.42
259.40	2555.86
259.62	2996.18
259.83	2914.26
260.05	2494.43
260.27	3153.87
260.48	2818.00
260.70	2457.56
260.92	2437.08
261.13	2492.38
261.35	2670.55
261.57	2846.68
261.78	2336.73
262.00	2441.18
262.22	2775.00
262.43	2631.64
262.65	2529.24
262.86	2555.86
263.08	3090.38
263.30	2768.85
263.51	2355.16
263.73	2494.43
263.95	3014.61
264.16	2621.40
264.38	2441.18
264.60	2482.14
264.81	2703.32
265.03	2885.59
265.25	2799.57
265.46	2502.62
265.68	2936.79
265.89	2813.91
266.11	2344.92
266.33	2445.27
266.54	2875.35
266.76	2793.43
266.98	2568.15
267.19	2660.31
267.41	2891.73
267.62	2797.53
267.84	2283.49
268.06	2598.87
268.27	2713.56
268.49	2901.97
268.70	2605.02
268.92	2559.96
269.14	2596.82
269.35	2543.58
269.57	2580.44
269.79	2570.20
270.00	2707.41
270.22	2924.50
270.43	2396.12
270.65	2359.26
270.87	2760.66
271.08	2875.35
271.30	2539.48
271.51	2492.38
271.73	2863.06
271.95	2861.01
272.16	2523.10
272.38	2637.78
272.59	2664.41
272.81	2838.48
273.02	2506.71
273.24	2543.58
273.46	2887.64
273.67	2547.67
273.89	2471.90
274.10	2486.23
274.32	2850.77
274.54	2758.61
274.75	2596.82
274.97	2623.45
275.18	2822.10
275.40	2783.19
275.61	2502.62
275.83	2553.82
276.05	2516.95
276.26	2699.22
276.48	2576.34
276.69	2631.64
276.91	2680.79
277.12	2856.92
277.34	2740.18
277.55	2795.48
277.77	2777.05
277.99	2607.06
278.20	2492.38
278.42	2547.67
278.63	2572.25
278.85	2519.00
279.06	2447.32
279.28	2688.98
279.49	2895.83
279.71	2887.64
279.93	2719.70
280.14	2672.60
280.36	2674.65
280.57	2875.35
280.79	2611.16
281.00	2500.57
281.22	2654.17
281.43	2897.88
281.65	2435.03
281.86	2506.71
282.08	2768.85
282.29	3002.32
282.51	2506.71
282.73	2494.43
282.94	2527.19
283.16	2783.19
283.37	2738.13
283.59	2656.22
283.80	2803.67
284.02	2717.65
284.23	2672.60
284.45	2625.50
284.66	2580.44
284.88	2617.30
285.09	2658.26
285.31	2609.11
285.52	2695.13
285.74	2504.67
285.95	2768.85
286.17	2703.32
286.38	2805.72
286.60	2652.12
286.81	2582.49
287.03	2574.30
287.24	2711.51
287.46	2809.81
287.67	2668.50
287.89	2836.44
288.10	2707.41
288.32	2684.89
288.53	2746.33
288.75	2629.59
288.96	2838.48
289.18	2645.98
289.39	2576.34
289.61	2709.46
289.82	2992.08
290.04	2973.65
290.25	2516.95
290.47	2654.17
290.68	2731.99
290.90	2822.10
291.11	2498.52
291.33	2701.27
291.54	2637.78
291.76	2670.55
291.97	2723.80
292.18	2688.98
292.40	2658.26
292.61	2596.82
292.83	2906.07
293.04	2707.41
293.26	2711.51
293.47	2711.51
293.69	2482.14
293.90	2619.35
294.12	2897.88
294.33	2742.23
294.55	2588.63
294.76	2723.80
294.97	2938.84
295.19	3057.62
295.40	2559.96
295.62	2717.65
295.83	2834.39
296.05	2609.11
296.26	2807.77
296.48	2500.57
296.69	2643.93
296.90	2623.45
297.12	2756.57
297.33	2805.72
297.55	2684.89
297.76	2801.62
297.98	2701.27
298.19	2711.51
298.41	2727.89
298.62	2609.11
298.83	2787.29
299.05	2637.78
299.26	2623.45
299.48	2682.84
299.69	2711.51
299.90	2664.41
300.12	2621.40
300.33	2842.58
300.55	2619.35
300.76	2641.88
300.98	2615.26
301.19	2834.39
301.40	2641.88
301.62	2545.63
301.83	2858.96
302.05	2801.62
302.26	2590.68
302.47	2748.37
302.69	2553.82
302.90	2717.65
303.12	2465.75
303.33	2754.52
303.54	2924.50
303.76	2637.78
303.97	2678.74
304.19	2762.71
304.40	2625.50
304.61	2760.66
304.83	2750.42
305.04	2768.85
305.26	2723.80
305.47	2680.79
305.68	2654.17
305.90	2498.52
306.11	2809.81
306.33	2754.52
306.54	2566.10
306.75	2539.48
306.97	2588.63
307.18	2652.12
307.39	2625.50
307.61	2619.35
307.82	2695.13
308.04	2846.68
308.25	2500.57
308.46	2719.70
308.68	2668.50
308.89	2736.09
309.10	2756.57
309.32	2664.41
309.53	2703.32
309.74	2727.89
309.96	2594.78
310.17	2740.18
310.39	2662.36
310.60	2850.77
310.81	2519.00
311.03	2496.47
311.24	2863.06
311.45	2686.94
311.67	2801.62
311.88	2682.84
312.09	2654.17
312.31	2639.83
312.52	2502.62
312.73	2469.85
312.95	2537.43
313.16	2539.48
313.37	2729.94
313.59	2686.94
313.80	2818.00
314.01	2916.31
314.23	2625.50
314.44	2504.67
314.65	2547.67
314.87	2586.58
315.08	2631.64
315.29	2582.49
315.51	2590.68
315.72	2461.66
315.93	2764.76
316.15	2729.94
316.36	2678.74
316.57	2707.41
316.79	2635.74
317.00	2539.48
317.21	2777.05
317.43	2572.25
317.64	2613.21
317.85	2541.53
318.07	2562.01
318.28	2629.59
318.49	2697.17
318.70	2805.72
318.92	2740.18
319.13	2844.63
319.34	2762.71
319.56	2664.41
319.77	2844.63
319.98	2897.88
320.20	2797.53
320.41	2652.12
320.62	2793.43
320.83	2607.06
321.05	2850.77
321.26	2592.73
321.47	2799.57
321.69	2912.21
321.90	2498.52
322.11	2549.72
322.32	2742.23
322.54	2934.74
322.75	2535.39
322.96	3209.17
323.18	2510.81
323.39	2512.86
323.60	2521.05
323.81	2787.29
324.03	2643.93
324.24	2727.89
324.45	2594.78
324.66	2568.15
324.88	2811.86
325.09	2994.13
325.30	2631.64
325.52	2564.06
325.73	2787.29
325.94	2607.06
326.15	2422.75
326.37	2539.48
326.58	2865.11
326.79	2936.79
327.00	2498.52
327.22	2633.69
327.43	2684.89
327.64	2570.20
327.85	2725.85
328.07	2697.17
328.28	2922.45
328.49	2639.83
328.70	2553.82
328.92	2641.88
329.13	2623.45
329.34	2822.10
329.55	2865.11
329.76	2721.75
329.98	2658.26
330.19	2944.98
330.40	2670.55
330.61	2721.75
330.83	2813.91
331.04	2629.59
331.25	2637.78
331.46	2648.02
331.68	2580.44
331.89	2848.72
332.10	2674.65
332.31	2426.84
332.52	2660.31
332.74	2908.12
332.95	2402.27
333.16	2559.96
333.37	2791.38
333.58	2658.26
333.80	2613.21
334.01	2420.70
334.22	2674.65
334.43	2580.44
334.64	2648.02
334.86	2465.75
335.07	2674.65
335.28	2910.16
335.49	2461.66
335.70	2641.88
335.92	3000.27
336.13	3022.80
336.34	2727.89
336.55	2572.25
336.76	2772.95
336.98	2428.89
337.19	2590.68
337.40	2725.85
337.61	3059.67
337.82	2586.58
338.04	2752.47
338.25	2496.47
338.46	2676.70
338.67	2658.26
338.88	2533.34
339.09	2611.16
339.31	2625.50
339.52	2664.41
339.73	2529.24
339.94	2623.45
340.15	2836.44
340.36	2625.50
340.58	2621.40
340.79	2584.54
341.00	2840.53
341.21	2514.91
341.42	2865.11
341.63	2623.45
341.85	2781.14
342.06	2725.85
342.27	2596.82
342.48	2756.57
342.69	2527.19
342.90	2723.80
343.12	2756.57
343.33	2584.54
343.54	2858.96
343.75	2887.64
343.96	2600.92
344.17	2596.82
344.38	2701.27
344.60	2590.68
344.81	2461.66
345.02	2588.63
345.23	2861.01
345.44	3088.34
345.65	2666.46
345.86	2670.55
346.07	2729.94
346.29	2564.06
346.50	2703.32
346.71	2711.51
346.92	2906.07
347.13	3069.91
347.34	2578.39
347.55	2510.81
347.76	2813.91
347.98	2543.58
348.19	2586.58
348.40	2883.54
348.61	2668.50
348.82	2951.12
349.03	2703.32
349.24	2504.67
349.45	3028.95
349.66	2480.09
349.88	2635.74
350.09	2559.96
350.30	2932.69
350.51	2852.82
350.72	2756.57
350.93	2572.25
351.14	2584.54
351.35	2869.20
351.56	2625.50
351.77	2611.16
351.99	2822.10
352.20	2990.03
352.41	2738.13
352.62	2412.51
352.83	2750.42
353.04	2719.70
353.25	2602.97
353.46	2643.93
353.67	2863.06
353.88	2449.37
354.09	2547.67
354.30	2645.98
354.52	2736.09
354.73	2670.55
354.94	2570.20
355.15	2592.73
355.36	3071.95
355.57	2656.22
355.78	2637.78
355.99	2609.11
356.20	2678.74
356.41	2879.44
356.62	2676.70
356.83	2686.94
357.04	2871.25
357.25	2553.82
357.46	2551.77
357.68	2484.19
357.89	2547.67
358.10	2621.40
358.31	2566.10
358.52	2672.60
358.73	2578.39
358.94	2549.72
359.15	2654.17
359.36	2678.74
359.57	2662.36
359.78	2545.63
359.99	2709.46
360.20	2592.73
360.41	2633.69
360.62	2807.77
360.83	2721.75
361.04	2609.11
361.25	2834.39
361.46	2916.31
361.67	2779.09
361.88	2707.41
362.09	2824.15
362.30	2777.05
362.51	2516.95
362.72	2658.26
362.93	2885.59
363.14	2756.57
363.35	2609.11
363.56	2492.38
363.78	2881.49
363.99	2893.78
364.20	2551.77
364.41	2672.60
364.62	2998.23
364.83	2799.57
365.04	2576.34
365.25	2607.06
365.46	3057.62
365.67	2645.98
365.88	2740.18
366.09	2572.25
366.30	2674.65
366.51	2682.84
366.72	2525.15
366.93	2629.59
367.14	2791.38
367.35	2920.40
367.56	2615.26
367.77	2725.85
367.98	2652.12
368.18	2795.48
368.39	2723.80
368.60	2492.38
368.81	2822.10
369.02	2740.18
369.23	2617.30
369.44	2430.94
369.65	2682.84
369.86	2787.29
370.07	2645.98
370.28	2533.34
370.49	2777.05
370.70	2818.00
370.91	2562.01
371.12	2504.67
371.33	2834.39
371.54	2705.37
371.75	2752.47
371.96	2414.56
372.17	2779.09
372.38	2666.46
372.59	2576.34
372.80	2666.46
373.01	2772.95
373.22	2756.57
373.43	2605.02
373.64	2473.95
373.85	2973.65
374.06	2891.73
374.26	2715.61
374.47	2756.57
374.68	2926.55
374.89	2746.33
375.10	2637.78
375.31	2682.84
375.52	2742.23
375.73	2709.46
375.94	2445.27
376.15	2682.84
376.36	2613.21
376.57	2652.12
376.78	2611.16
376.99	2705.37
377.20	2965.46
377.40	2598.87
377.61	2944.98
377.82	2551.77
378.03	2924.50
378.24	2760.66
378.45	2613.21
378.66	2721.75
378.87	2430.94
379.08	2543.58
379.29	2609.11
379.50	2756.57
379.71	2666.46
379.91	2803.67
380.12	2594.78
380.33	2713.56
380.54	2674.65
380.75	2691.03
380.96	2643.93
381.17	2721.75
381.38	2719.70
381.59	2729.94
381.80	2629.59
382.00	2867.16
382.21	2740.18
382.42	3002.32
382.63	2924.50
382.84	2713.56
383.05	2797.53
383.26	2996.18
383.47	2717.65
383.68	2664.41
383.88	2791.38
384.09	2746.33
384.30	2928.60
384.51	2717.65
384.72	2596.82
384.93	2574.30
385.14	2717.65
385.35	2781.14
385.55	2568.15
385.76	2869.20
385.97	2613.21
386.18	2521.05
386.39	2621.40
386.60	2643.93
386.81	2523.10
387.02	2488.28
387.22	2559.96
387.43	2881.49
387.64	2719.70
387.85	2906.07
388.06	2869.20
388.27	4018.11
388.48	7536.52
388.68	10862.43
388.89	13289.27
389.10	14300.97
389.31	13737.77
389.52	10927.96
389.73	9222.00
389.93	8568.70
390.14	7796.62
390.35	6963.09
390.56	6385.57
390.77	5240.75
390.98	4050.88
391.18	3452.88
391.39	3153.87
391.60	2844.63
391.81	2723.80
392.02	2641.88
392.23	3067.86
392.43	2721.75
392.64	2775.00
392.85	2691.03
393.06	2940.88
393.27	2736.09
393.47	2541.53
393.68	2678.74
393.89	2686.94
394.10	2949.08
394.31	2588.63
394.52	2527.19
394.72	2643.93
394.93	2987.99
395.14	2519.00
395.35	2715.61
395.56	2602.97
395.76	2740.18
395.97	2637.78
396.18	2809.81
396.39	2719.70
396.60	3248.08
396.80	2834.39
397.01	2785.24
397.22	2897.88
397.43	2893.78
397.64	2658.26
397.84	2783.19
398.05	2932.69
398.26	2760.66
398.47	2750.42
398.67	2807.77
398.88	2748.37
399.09	2826.20
399.30	2602.97
399.51	2711.51
399.71	2566.10
399.92	2783.19
400.13	2672.60
400.34	2643.93
400.54	2762.71
400.75	3035.09
400.96	2643.93
401.17	2865.11
401.37	2861.01
401.58	2715.61
401.79	2582.49
402.00	2748.37
402.21	3131.34
402.41	2871.25
402.62	2961.36
402.83	3108.82
403.04	3067.86
403.24	3373.00
403.45	2775.00
403.66	2897.88
403.87	2881.49
404.07	3014.61
404.28	2887.64
404.49	2842.58
404.70	2750.42
404.90	2799.57
405.11	2596.82
405.32	2686.94
405.52	2635.74
405.73	2641.88
405.94	2484.19
406.15	2598.87
406.35	2785.24
406.56	2779.09
406.77	2676.70
406.98	2684.89
407.18	2576.34
407.39	3010.51
407.60	2654.17
407.80	2717.65
408.01	2586.58
408.22	2777.05
408.43	2590.68
408.63	2668.50
408.84	2877.40
409.05	2858.96
409.25	2494.43
409.46	2551.77
409.67	2611.16
409.88	2635.74
410.08	2678.74
410.29	2686.94
410.50	2815.96
410.70	2799.57
410.91	2553.82
411.12	2668.50
411.32	2744.28
411.53	2619.35
411.74	2629.59
411.95	2721.75
412.15	2768.85
412.36	2904.02
412.57	2662.36
412.77	2791.38
412.98	2670.55
413.19	2693.08
413.39	2617.30
413.60	2727.89
413.81	2891.73
414.01	2484.19
414.22	2682.84
414.43	2818.00
414.63	2635.74
414.84	2879.44
415.05	2719.70
415.25	2475.99
415.46	2807.77
415.67	2578.39
415.87	2678.74
416.08	2633.69
416.29	2660.31
416.49	2785.24
416.70	2637.78
416.91	2664.41
417.11	2664.41
417.32	2967.51
417.53	2688.98
417.73	2656.22
417.94	2711.51
418.15	2789.33
418.35	2668.50
418.56	2674.65
418.77	3071.95
418.97	2699.22
419.18	2627.54
419.38	2437.08
419.59	2752.47
419.80	2932.69
420.00	2635.74
420.21	2650.07
420.42	2936.79
420.62	2785.24
420.83	2607.06
421.04	2549.72
421.24	2744.28
421.45	2818.00
421.65	2709.46
421.86	2631.64
422.07	2858.96
422.27	2795.48
422.48	2705.37
422.69	2510.81
422.89	2697.17
423.10	2678.74
423.30	2502.62
423.51	2709.46
423.72	2840.53
423.92	2842.58
424.13	2529.24
424.33	2678.74
424.54	2822.10
424.75	2781.14
424.95	2863.06
425.16	2693.08
425.36	2693.08
425.57	2861.01
425.78	2805.72
425.98	2691.03
426.19	2684.89
426.39	2639.83
426.60	2729.94
426.81	2746.33
427.01	2785.24
427.22	2613.21
427.42	2459.61
427.63	2605.02
427.83	2799.57
428.04	2930.64
428.25	2781.14
428.45	2775.00
428.66	2926.55
428.86	2660.31
429.07	2592.73
429.28	2660.31
429.48	2768.85
429.69	2658.26
429.89	2750.42
430.10	2506.71
430.30	2850.77
430.51	2877.40
430.71	2570.20
430.92	2691.03
431.13	2678.74
431.33	2846.68
431.54	2645.98
431.74	2887.64
431.95	3028.95
432.15	2600.92
432.36	2658.26
432.56	2678.74
432.77	3020.75
432.98	3061.71
433.18	2721.75
433.39	2557.91
433.59	2688.98
433.80	3076.05
434.00	2801.62
434.21	2584.54
434.41	2670.55
434.62	3067.86
434.82	2531.29
435.03	2576.34
435.23	2777.05
435.44	2473.95
435.64	2551.77
435.85	2734.04
436.06	2836.44
436.26	2863.06
436.47	2660.31
436.67	2543.58
436.88	2678.74
437.08	2916.31
437.29	2791.38
437.49	2703.32
437.70	2916.31
437.90	2805.72
438.11	2885.59
438.31	2703.32
438.52	2899.92
438.72	2977.75
438.93	2918.36
439.13	2772.95
439.34	2836.44
439.54	2717.65
439.75	2678.74
439.95	2783.19
440.16	2674.65
440.36	2699.22
440.57	2707.41
440.77	2656.22
440.98	2799.57
441.18	2781.14
441.39	2566.10
441.59	2623.45
441.80	3078.10
442.00	2795.48
442.21	2678.74
442.41	2523.10
442.62	2871.25
442.82	2668.50
443.02	2588.63
443.23	2707.41
443.43	2648.02
443.64	2938.84
443.84	2512.86
444.05	2791.38
444.25	2760.66
444.46	2666.46
444.66	2605.02
444.87	2779.09
445.07	2486.23
445.28	2734.04
445.48	2832.34
445.69	2658.26
445.89	3065.81
446.09	2695.13
446.30	2955.22
446.50	3061.71
446.71	4448.19
446.91	5521.32
447.12	6356.90
447.32	6789.02
447.53	6487.96
447.73	5349.29
447.93	4831.16
448.14	4595.64
448.34	4501.44
448.55	3938.24
448.75	3835.85
448.96	3624.90
449.16	3446.73
449.36	3178.45
449.57	2889.68
449.77	2764.76
449.98	2619.35
450.18	2795.48
450.39	2633.69
450.59	2840.53
450.79	2693.08
451.00	2590.68
451.20	2711.51
451.41	2721.75
451.61	2797.53
451.81	2707.41
452.02	2629.59
452.22	2682.84
452.43	2562.01
452.63	2584.54
452.84	2609.11
453.04	2586.58
453.24	2772.95
453.45	2637.78
453.65	2668.50
453.86	2736.09
454.06	2736.09
454.26	2803.67
454.47	2539.48
454.67	2885.59
454.87	2777.05
455.08	2633.69
455.28	2787.29
455.49	2756.57
455.69	2605.02
455.89	3035.09
456.10	2768.85
456.30	2639.83
456.51	2744.28
456.71	2746.33
456.91	2752.47
457.12	2660.31
457.32	2762.71
457.52	2543.58
457.73	2727.89
457.93	2848.72
458.14	2533.34
458.34	2475.99
458.54	2652.12
458.75	2658.26
458.95	2824.15
459.15	2828.24
459.36	2719.70
459.56	2697.17
459.76	3061.71
459.97	2772.95
460.17	2635.74
460.37	2750.42
460.58	2742.23
460.78	2809.81
460.99	2607.06
461.19	2678.74
461.39	2668.50
461.60	2746.33
461.80	2697.17
462.00	2519.00
462.21	2736.09
462.41	2670.55
462.61	2533.34
462.82	2457.56
463.02	2752.47
463.22	2731.99
463.43	2760.66
463.63	2658.26
463.83	2932.69
464.04	2791.38
464.24	2650.07
464.44	2545.63
464.64	2785.24
464.85	2822.10
465.05	2697.17
465.25	2674.65
465.46	2596.82
465.66	2801.62
465.86	2748.37
466.07	2613.21
466.27	2709.46
466.47	2564.06
466.68	2467.80
466.88	2891.73
467.08	2807.77
467.29	2863.06
467.49	2598.87
467.69	2662.36
467.89	2815.96
468.10	2719.70
468.30	2672.60
468.50	2750.42
468.71	2895.83
468.91	2629.59
469.11	2863.06
469.31	2711.51
469.52	2648.02
469.72	2908.12
469.92	2885.59
470.13	2768.85
470.33	2713.56
470.53	2832.34
470.73	2916.31
470.94	3360.72
471.14	3399.63
471.34	3737.54
471.54	3536.84
471.75	3246.03
471.95	3043.28
472.15	3137.49
472.36	3114.96
472.56	3061.71
472.76	3192.78
472.96	3076.05
473.17	2908.12
473.37	2818.00
473.57	2650.07
473.77	2799.57
473.98	2664.41
474.18	2609.11
474.38	3166.16
474.58	2635.74
474.79	2576.34
474.99	2758.61
475.19	2916.31
475.39	2572.25
475.60	2719.70
475.80	2635.74
476.00	2779.09
476.20	2678.74
476.41	2686.94
476.61	2682.84
476.81	2969.55
477.01	2547.67
477.21	2828.24
477.42	2758.61
477.62	2617.30
477.82	2990.03
478.02	2578.39
478.23	2654.17
478.43	2637.78
478.63	2705.37
478.83	2711.51
479.03	2666.46
479.24	2920.40
479.44	2973.65
479.64	2592.73
479.84	2475.99
480.04	2586.58
480.25	2828.24
480.45	2559.96
480.65	2629.59
480.85	2969.55
481.06	2607.06
481.26	2709.46
481.46	2754.52
481.66	2777.05
481.86	2555.86
482.06	2848.72
482.27	2617.30
482.47	2680.79
482.67	2834.39
482.87	2584.54
483.07	2756.57
483.28	2568.15
483.48	2682.84
483.68	2658.26
483.88	2492.38
484.08	2486.23
484.29	2572.25
484.49	2742.23
484.69	2441.18
484.89	2983.89
485.09	2891.73
485.29	2729.94
485.50	2803.67
485.70	2688.98
485.90	2940.88
486.10	2822.10
486.30	2623.45
486.50	2899.92
486.71	2777.05
486.91	2791.38
487.11	2785.24
487.31	2600.92
487.51	2832.34
487.71	2643.93
487.91	2547.67
488.12	2551.77
488.32	2310.11
488.52	2562.01
488.72	2494.43
488.92	2686.94
489.12	2912.21
489.32	2764.76
489.53	2674.65
489.73	2541.53
489.93	3030.99
490.13	2596.82
490.33	2494.43
490.53	2672.60
490.73	2895.83
490.94	2473.95
491.14	2838.48
491.34	2789.33
491.54	2961.36
491.74	3428.30
491.94	4044.74
492.14	4374.46
492.34	4472.76
492.54	4104.13
492.75	3604.42
492.95	3706.82
493.15	3375.05
493.35	3342.28
493.55	3276.75
493.75	2987.99
493.95	3203.02
494.15	2922.45
494.35	2762.71
494.56	2731.99
494.76	2629.59
494.96	2758.61
495.16	2627.54
495.36	2744.28
495.56	2744.28
495.76	2691.03
495.96	2666.46
496.16	2641.88
496.36	3008.47
496.56	2637.78
496.77	2731.99
496.97	2731.99
497.17	2920.40
497.37	2463.71
497.57	2789.33
497.77	2666.46
497.97	2621.40
498.17	2658.26
498.37	2547.67
498.57	2775.00
498.77	2709.46
498.97	2818.00
499.17	2879.44
499.38	2631.64
499.58	2832.34
499.78	2801.62
499.98	2818.00
500.18	2740.18
500.38	2637.78
500.58	2881.49
500.78	3282.89
500.98	5347.25
501.18	7210.90
501.38	8597.37
501.58	9490.29
501.78	9463.66
501.98	7579.53
502.18	6395.81
502.38	5597.10
502.58	5394.35
502.78	4849.59
502.98	4597.69
503.18	4478.91
503.38	4059.07
503.59	3583.95
503.79	3454.92
503.99	3258.32
504.19	3205.07
504.39	3215.31
504.59	3157.97
504.79	3117.01
504.99	3170.26
505.19	2920.40
505.39	2752.47
505.59	3057.62
505.79	3051.47
505.99	2813.91
506.19	2615.26
506.39	2922.45
506.59	2668.50
506.79	2562.01
506.99	2932.69
507.19	2691.03
507.39	2754.52
507.59	2533.34
507.79	2594.78
507.99	2623.45
508.19	2758.61
508.39	2691.03
508.59	2619.35
508.79	2856.92
508.99	3028.95
509.19	2627.54
509.39	2766.81
509.59	2648.02
509.79	2639.83
509.99	2826.20
510.19	2684.89
510.39	2828.24
510.59	2746.33
510.79	2590.68
510.99	2580.44
511.19	2637.78
511.39	3033.04
511.59	2850.77
511.79	2768.85
511.99	2775.00
512.19	3010.51
512.38	2734.04
512.58	2605.02
512.78	2541.53
512.98	2877.40
513.18	2863.06
513.38	2465.75
513.58	2686.94
513.78	2756.57
513.98	2742.23
514.18	2688.98
514.38	2576.34
514.58	2764.76
514.78	2637.78
514.98	2650.07
515.18	2629.59
515.38	2598.87
515.58	2916.31
515.78	2625.50
515.98	2678.74
516.18	2815.96
516.38	2789.33
516.57	2600.92
516.77	2672.60
516.97	2818.00
517.17	2631.64
517.37	2508.76
517.57	2719.70
517.77	2818.00
517.97	2637.78
518.17	2703.32
518.37	2523.10
518.57	2676.70
518.77	2678.74
518.97	2682.84
519.16	2731.99
519.36	2924.50
519.56	2684.89
519.76	2572.25
519.96	2709.46
520.16	2953.17
520.36	2619.35
520.56	2813.91
520.76	2588.63
520.96	2625.50
521.16	2875.35
521.35	2777.05
521.55	2848.72
521.75	2775.00
521.95	2658.26
522.15	2586.58
522.35	2400.22
522.55	2629.59
522.75	2861.01
522.95	2613.21
523.14	2498.52
523.34	2795.48
523.54	2656.22
523.74	2754.52
523.94	2672.60
524.14	2514.91
524.34	2805.72
524.54	2815.96
524.73	2621.40
524.93	2906.07
525.13	2693.08
525.33	2543.58
525.53	2906.07
525.73	2858.96
525.93	2783.19
526.13	2611.16
526.32	2592.73
526.52	2891.73
526.72	2858.96
526.92	2625.50
527.12	2592.73
527.32	2533.34
527.52	2789.33
527.71	2725.85
527.91	2633.69
528.11	2652.12
528.31	2609.11
528.51	2637.78
528.71	2770.90
528.90	2818.00
529.10	2918.36
529.30	2758.61
529.50	2430.94
529.70	2871.25
529.90	2715.61
530.09	2678.74
530.29	2486.23
530.49	2576.34
530.69	3139.54
530.89	2785.24
531.09	2748.37
531.28	2633.69
531.48	2942.93
531.68	2734.04
531.88	2607.06
532.08	2783.19
532.28	2633.69
532.47	2750.42
532.67	2754.52
532.87	2740.18
533.07	2510.81
533.27	2727.89
533.46	2746.33
533.66	2779.09
533.86	2674.65
534.06	2686.94
534.26	2672.60
534.45	2678.74
534.65	2750.42
534.85	2699.22
535.05	2609.11
535.25	2826.20
535.44	2490.33
535.64	2678.74
535.84	2705.37
536.04	2678.74
536.24	2588.63
536.43	2615.26
536.63	2717.65
536.83	2674.65
537.03	2746.33
537.22	2490.33
537.42	2469.85
537.62	2674.65
537.82	2584.54
538.02	2822.10
538.21	2811.86
538.41	3125.20
538.61	2801.62
538.81	2562.01
539.00	2813.91
539.20	2467.80
539.40	2680.79
539.60	2736.09
539.79	2746.33
539.99	2729.94
540.19	2635.74
540.39	2686.94
540.58	2697.17
540.78	2869.20
540.98	2756.57
541.18	2762.71
541.37	2760.66
541.57	2713.56
541.77	2754.52
541.97	2535.39
542.16	2535.39
542.36	2740.18
542.56	2662.36
542.76	2848.72
542.95	2742.23
543.15	2861.01
543.35	2815.96
543.54	2602.97
543.74	2611.16
543.94	2959.31
544.14	2629.59
544.33	2772.95
544.53	2605.02
544.73	2645.98
544.93	2727.89
545.12	2707.41
545.32	2682.84
545.52	2678.74
545.71	2478.04
545.91	2697.17
546.11	2635.74
546.30	2594.78
546.50	2717.65
546.70	2793.43
546.90	2762.71
547.09	2496.47
547.29	2717.65
547.49	2699.22
547.68	2686.94
547.88	2605.02
548.08	2869.20
548.27	3108.82
548.47	2594.78
548.67	2693.08
548.87	2832.34
549.06	2650.07
549.26	2719.70
549.46	2785.24
549.65	2598.87
549.85	2686.94
550.05	2742.23
550.24	2551.77
550.44	2793.43
550.64	2648.02
550.83	2641.88
551.03	2906.07
551.23	2836.44
551.42	2666.46
551.62	2676.70
551.82	2680.79
552.01	2686.94
552.21	2830.29
552.41	2684.89
552.60	2883.54
552.80	2789.33
553.00	2621.40
553.19	2736.09
553.39	2969.55
553.59	2500.57
553.78	2791.38
553.98	2688.98
554.17	2570.20
554.37	2758.61
554.57	2686.94
554.76	2582.49
554.96	2676.70
555.16	2789.33
555.35	2695.13
555.55	2766.81
555.75	2744.28
555.94	2791.38
556.14	2418.65
556.33	2693.08
556.53	2668.50
556.73	2709.46
556.92	2742.23
557.12	2705.37
557.32	2973.65
557.51	2940.88
557.71	2670.55
557.90	2861.01
558.10	2914.26
558.30	2719.70
558.49	2635.74
558.69	2633.69
558.88	2881.49
559.08	2760.66
559.28	2580.44
559.47	2693.08
559.67	2854.87
559.86	2985.94
560.06	2666.46
560.26	2658.26
560.45	2826.20
560.65	2705.37
560.84	2865.11
561.04	2635.74
561.24	2797.53
561.43	2557.91
561.63	2889.68
561.82	2738.13
562.02	2836.44
562.22	2596.82
562.41	2574.30
562.61	2572.25
562.80	2582.49
563.00	3117.01
563.19	2740.18
563.39	2760.66
563.59	2744.28
563.78	2588.63
563.98	2441.18
564.17	2572.25
564.37	2512.86
564.56	2688.98
564.76	2555.86
564.96	2869.20
565.15	2877.40
565.35	3133.39
565.54	2666.46
565.74	2777.05
565.93	2891.73
566.13	2727.89
566.32	2734.04
566.52	2762.71
566.71	2723.80
566.91	2854.87
567.11	2725.85
567.30	2566.10
567.50	2813.91
567.69	2844.63
567.89	2621.40
568.08	2553.82
568.28	2701.27
568.47	2633.69
568.67	2734.04
568.86	2664.41
569.06	2850.77
569.25	2707.41
569.45	2512.86
569.64	2529.24
569.84	2574.30
570.04	2703.32
570.23	2631.64
570.43	2645.98
570.62	2801.62
570.82	3016.66
571.01	2512.86
571.21	2613.21
571.40	2594.78
571.60	2805.72
571.79	2658.26
571.99	2707.41
572.18	2574.30
572.38	2715.61
572.57	2686.94
572.77	2731.99
572.96	3104.72
573.16	2795.48
573.35	2650.07
573.55	2863.06
573.74	2869.20
573.94	2674.65
574.13	2670.55
574.33	2752.47
574.52	2953.17
574.71	2672.60
574.91	2645.98
575.10	2580.44
575.30	2764.76
575.49	2590.68
575.69	2609.11
575.88	2703.32
576.08	2766.81
576.27	2924.50
576.47	2584.54
576.66	2846.68
576.86	2922.45
577.05	2723.80
577.25	2783.19
577.44	2826.20
577.64	2662.36
577.83	2848.72
578.02	2664.41
578.22	2820.05
578.41	2994.13
578.61	2750.42
578.80	2525.15
579.00	2621.40
579.19	2682.84
579.39	2809.81
579.58	2738.13
579.77	2631.64
579.97	2949.08
580.16	2912.21
580.36	2748.37
580.55	2854.87
580.75	2813.91
580.94	2781.14
581.13	2793.43
581.33	2875.35
581.52	2752.47
581.72	3090.38
581.91	2768.85
582.11	2658.26
582.30	2838.48
582.49	2783.19
582.69	2932.69
582.88	2717.65
583.08	2830.29
583.27	2863.06
583.47	2746.33
583.66	2654.17
583.85	2627.54
584.05	2678.74
584.24	2828.24
584.44	2709.46
584.63	2879.44
584.82	2934.74
585.02	2797.53
585.21	2770.90
585.41	2852.82
585.60	2727.89
585.79	2979.79
585.99	3047.38
586.18	2828.24
586.37	3510.22
586.57	5380.01
586.76	16051.98
586.96	34833.90
587.15	48217.38
587.34	56460.45
587.54	60681.31
587.73	54215.88
587.93	38669.75
588.12	29204.03
588.31	23754.39
588.51	20795.07
588.70	19275.48
588.89	16815.87
589.09	14622.50
589.28	12375.88
589.47	9846.63
589.67	7542.67
589.86	5828.52
590.06	4581.31
590.25	3825.61
590.44	3383.24
590.64	3088.34
590.83	2969.55
591.02	3000.27
591.22	2654.17
591.41	2781.14
591.60	2766.81
591.80	3090.38
591.99	2588.63
592.18	2639.83
592.38	2840.53
592.57	2711.51
592.76	2670.55
592.96	2789.33
593.15	2746.33
593.34	2961.36
593.54	2688.98
593.73	2766.81
593.92	2854.87
594.12	2758.61
594.31	2731.99
594.50	2830.29
594.70	2818.00
594.89	3117.01
595.08	2551.77
595.28	2731.99
595.47	3166.16
595.66	2822.10
595.86	2588.63
596.05	2525.15
596.24	2676.70
596.43	2981.84
596.63	2815.96
596.82	2772.95
597.01	2844.63
597.21	3022.80
597.40	2678.74
597.59	2752.47
597.79	2684.89
597.98	2832.34
598.17	2684.89
598.36	2711.51
598.56	2858.96
598.75	2631.64
598.94	2664.41
599.14	2666.46
599.33	2691.03
599.52	2793.43
599.71	2740.18
599.91	2711.51
600.10	2818.00
600.29	2707.41
600.48	2838.48
600.68	2766.81
600.87	2650.07
601.06	2752.47
601.26	2676.70
601.45	2711.51
601.64	2691.03
601.83	2928.60
602.03	2586.58
602.22	2553.82
602.41	2893.78
602.60	3098.58
602.80	2768.85
602.99	2818.00
603.18	2707.41
603.37	2809.81
603.57	2703.32
603.76	2801.62
603.95	2846.68
604.14	2662.36
604.34	2594.78
604.53	2598.87
604.72	2736.09
604.91	2826.20
605.10	2744.28
605.30	2506.71
605.49	3110.86
605.68	2899.92
605.87	2793.43
606.07	2609.11
606.26	2758.61
606.45	2789.33
606.64	2686.94
606.84	2641.88
607.03	2789.33
607.22	2858.96
607.41	2617.30
607.60	2629.59
607.80	2873.30
607.99	2775.00
608.18	2654.17
608.37	2744.28
608.56	2629.59
608.76	2953.17
608.95	2830.29
609.14	2639.83
609.33	2881.49
609.52	2924.50
609.72	2820.05
609.91	2760.66
610.10	2793.43
610.29	2971.60
610.48	2746.33
610.68	2719.70
610.87	2815.96
611.06	2865.11
611.25	2678.74
611.44	2832.34
611.63	2717.65
611.83	2934.74
612.02	2471.90
612.21	2703.32
612.40	2475.99
612.59	2523.10
612.79	2502.62
612.98	2670.55
613.17	3006.42
613.36	2703.32
613.55	2813.91
613.74	2707.41
613.93	2775.00
614.13	2809.81
614.32	2836.44
614.51	2785.24
614.70	2703.32
614.89	2686.94
615.08	2809.81
615.28	3178.45
615.47	2592.73
615.66	2822.10
615.85	2629.59
616.04	2799.57
616.23	2734.04
616.42	2666.46
616.62	2766.81
616.81	2750.42
617.00	2785.24
617.19	2789.33
617.38	2539.48
617.57	2725.85
617.76	2848.72
617.95	2785.24
618.15	2727.89
618.34	2897.88
618.53	2596.82
618.72	2949.08
618.91	2809.81
619.10	2844.63
619.29	2717.65
619.48	2723.80
619.68	2574.30
619.87	2643.93
620.06	2516.95
620.25	2818.00
620.44	2662.36
620.63	2605.02
620.82	2750.42
621.01	2740.18
621.20	2662.36
621.39	2725.85
621.59	2731.99
621.78	2621.40
621.97	2645.98
622.16	2736.09
622.35	2705.37
622.54	2846.68
622.73	2719.70
622.92	2521.05
623.11	2914.26
623.30	2656.22
623.49	2777.05
623.68	2592.73
623.88	2863.06
624.07	2746.33
624.26	2631.64
624.45	2652.12
624.64	2619.35
624.83	2826.20
625.02	2625.50
625.21	2588.63
625.40	2707.41
625.59	2918.36
625.78	2670.55
625.97	2729.94
626.16	2889.68
626.35	2904.02
626.54	2785.24
626.74	2863.06
626.93	2699.22
627.12	2736.09
627.31	2777.05
627.50	2707.41
627.69	2916.31
627.88	2662.36
628.07	2654.17
628.26	2381.79
628.45	2619.35
628.64	2594.78
628.83	2582.49
629.02	2455.51
629.21	2834.39
629.40	2729.94
629.59	2527.19
629.78	2619.35
629.97	2713.56
630.16	2756.57
630.35	2607.06
630.54	2719.70
630.73	2607.06
630.92	2717.65
631.11	2539.48
631.30	2662.36
631.49	2912.21
631.68	2787.29
631.87	2680.79
632.06	2514.91
632.25	3098.58
632.44	2688.98
632.63	2785.24
632.82	2584.54
633.01	2656.22
633.20	2748.37
633.39	2715.61
633.58	2502.62
633.77	2799.57
633.96	2813.91
634.15	2822.10
634.34	2684.89
634.53	2764.76
634.72	2650.07
634.91	2445.27
635.10	2703.32
635.29	2904.02
635.48	2674.65
635.67	2627.54
635.86	2428.89
636.05	2969.55
636.24	2777.05
636.43	2648.02
636.62	2721.75
636.81	2439.13
637.00	2752.47
637.19	2629.59
637.38	2680.79
637.57	2656.22
637.76	2787.29
637.95	2793.43
638.14	2729.94
638.33	2729.94
638.52	2785.24
638.71	2592.73
638.89	2539.48
639.08	3071.95
639.27	2875.35
639.46	2824.15
639.65	3117.01
639.84	3112.91
640.03	3375.05
640.22	3078.10
640.41	3125.20
640.60	2846.68
640.79	2879.44
640.98	2785.24
641.17	2883.54
641.36	2992.08
641.55	2961.36
641.74	2564.06
641.92	2594.78
642.11	2619.35
642.30	2713.56
642.49	2584.54
642.68	2619.35
642.87	2762.71
643.06	2826.20
643.25	2539.48
643.44	2650.07
643.63	2688.98
643.82	2832.34
644.00	2609.11
644.19	2674.65
644.38	2637.78
644.57	2779.09
644.76	2727.89
644.95	2660.31
645.14	2731.99
645.33	2670.55
645.52	2684.89
645.71	2594.78
645.89	2590.68
646.08	2682.84
646.27	2629.59
646.46	2871.25
646.65	2523.10
646.84	2668.50
647.03	2578.39
647.22	2797.53
647.40	2789.33
647.59	2727.89
647.78	2547.67
647.97	2670.55
648.16	2588.63
648.35	2893.78
648.54	2842.58
648.73	2586.58
648.91	2820.05
649.10	2705.37
649.29	2670.55
649.48	2607.06
649.67	2811.86
649.86	2770.90
650.05	2680.79
650.23	2869.20
650.42	2686.94
650.61	2990.03
650.80	2820.05
650.99	2942.93
651.18	2899.92
651.36	2977.75
651.55	2627.54
651.74	2799.57
651.93	2777.05
652.12	2750.42
652.31	2684.89
652.49	2686.94
652.68	2734.04
652.87	2992.08
653.06	2744.28
653.25	2871.25
653.44	2652.12
653.62	2916.31
653.81	2701.27
654.00	2697.17
654.19	2793.43
654.38	3176.40
654.56	2703.32
654.75	2617.30
654.94	2828.24
655.13	2744.28
655.32	2641.88
655.51	2731.99
655.69	2701.27
655.88	2840.53
656.07	2488.28
656.26	2637.78
656.45	2465.75
656.63	2795.48
656.82	2637.78
657.01	2793.43
657.20	2676.70
657.38	2897.88
657.57	2662.36
657.76	2525.15
657.95	2801.62
658.14	2615.26
658.32	2713.56
658.51	2594.78
658.70	2766.81
658.89	2752.47
659.08	2641.88
659.26	2813.91
659.45	2576.34
659.64	2752.47
659.83	2637.78
660.01	3104.72
660.20	2807.77
660.39	2944.98
660.58	2375.64
660.76	2707.41
660.95	2555.86
661.14	2682.84
661.33	2508.76
661.51	2660.31
661.70	2672.60
661.89	2756.57
662.08	2680.79
662.26	2541.53
662.45	2650.07
662.64	3000.27
662.83	2750.42
663.01	2467.80
663.20	2662.36
663.39	2992.08
663.58	2648.02
663.76	2602.97
663.95	2818.00
664.14	2570.20
664.32	2672.60
664.51	2512.86
664.70	2463.71
664.89	2768.85
665.07	2551.77
665.26	2738.13
665.45	2508.76
665.64	2734.04
665.82	2721.75
666.01	2775.00
666.20	2498.52
666.38	2795.48
666.57	2947.03
666.76	4335.55
666.95	9955.18
667.13	16731.90
667.32	20778.69
667.51	23594.65
667.69	24733.32
667.88	21401.27
668.07	15306.52
668.25	12928.83
668.44	10796.89
668.63	9576.30
668.81	8345.47
669.00	7251.86
669.19	6508.44
669.38	5719.98
669.56	4980.66
669.75	4261.82
669.94	3735.50
670.12	3176.40
670.31	3006.42
670.50	3020.75
670.68	2922.45
670.87	2793.43
671.06	2525.15
671.24	2758.61
671.43	2990.03
671.62	2754.52
671.80	2639.83
671.99	2815.96
672.18	2752.47
672.36	2910.16
672.55	2721.75
672.74	2641.88
672.92	2621.40
673.11	2826.20
673.29	2514.91
673.48	2754.52
673.67	2746.33
673.85	2832.34
674.04	2576.34
674.23	2705.37
674.41	2965.46
674.60	2543.58
674.79	2572.25
674.97	2553.82
675.16	2824.15
675.34	2922.45
675.53	2559.96
675.72	2715.61
675.90	3110.86
676.09	2691.03
676.28	2637.78
676.46	2500.57
676.65	2820.05
676.83	2586.58
677.02	2709.46
677.21	2678.74
677.39	2736.09
677.58	2568.15
677.77	2607.06
677.95	2582.49
678.14	2615.26
678.32	2684.89
678.51	2621.40
678.70	2975.70
678.88	2682.84
679.07	2793.43
679.25	2662.36
679.44	2656.22
679.63	2496.47
679.81	2785.24
680.00	2875.35
680.18	2750.42
680.37	2904.02
680.55	2707.41
680.74	2504.67
680.93	2457.56
681.11	2703.32
681.30	2668.50
681.48	2684.89
681.67	2572.25
681.85	2711.51
682.04	2611.16
682.23	2766.81
682.41	2678.74
682.60	2725.85
682.78	2658.26
682.97	2592.73
683.15	2637.78
683.34	2775.00
683.53	2981.84
683.71	2543.58
683.90	2760.66
684.08	3008.47
684.27	2703.32
684.45	2744.28
684.64	2818.00
684.82	2684.89
685.01	2789.33
685.19	2678.74
685.38	2928.60
685.57	2785.24
685.75	2641.88
685.94	2662.36
686.12	2607.06
686.31	2641.88
686.49	3008.47
686.68	2488.28
686.86	2697.17
687.05	2719.70
687.23	2969.55
687.42	2572.25
687.60	2580.44
687.79	2867.16
687.97	2922.45
688.16	2777.05
688.34	2840.53
688.53	2533.34
688.71	2883.54
688.90	2805.72
689.08	2748.37
689.27	2449.37
689.45	2744.28
689.64	2736.09
689.82	2709.46
690.01	2766.81
690.19	2793.43
690.38	2752.47
690.56	2824.15
690.75	2596.82
690.93	2631.64
691.12	2594.78
691.30	2637.78
691.49	2686.94
691.67	2658.26
691.86	2979.79
692.04	2740.18
692.23	2623.45
692.41	2744.28
692.60	2930.64
692.78	2836.44
692.97	2815.96
693.15	2912.21
693.34	2832.34
693.52	2881.49
693.71	2674.65
693.89	2619.35
694.08	2492.38
694.26	2670.55
694.44	2840.53
694.63	2824.15
694.81	2594.78
695.00	2557.91
695.18	2846.68
695.37	3117.01
695.55	2709.46
695.74	2643.93
695.92	2613.21
696.10	2973.65
696.29	2502.62
696.47	2613.21
696.66	2549.72
696.84	2576.34
697.03	2678.74
697.21	2815.96
697.40	4149.18
697.58	2994.13
697.76	2570.20
697.95	2584.54
698.13	2637.78
698.32	2697.17
698.50	2701.27
698.68	2678.74
698.87	2791.38
699.05	2928.60
699.24	2564.06
699.42	2486.23
699.61	2811.86
699.79	2740.18
699.97	2678.74
700.16	2496.47
700.34	2541.53
700.53	2754.52
700.71	2887.64
700.89	2799.57
701.08	2693.08
701.26	2719.70
701.45	3080.14
701.63	2605.02
701.81	2697.17
702.00	2613.21
702.18	2709.46
702.37	2648.02
702.55	2893.78
702.73	2820.05
702.92	2598.87
703.10	2994.13
703.28	2815.96
703.47	2568.15
703.65	2844.63
703.84	2766.81
704.02	2656.22
704.20	3051.47
704.39	2598.87
704.57	2658.26
704.75	2906.07
704.94	2852.82
705.12	2695.13
705.30	3129.30
705.49	5914.53
705.67	11700.05
705.86	17776.37
706.04	20313.80
706.22	22734.50
706.41	22056.62
706.59	17549.04
706.77	13422.39
706.96	11423.57
707.14	10368.87
707.32	9052.02
707.51	7774.09
707.69	6281.12
707.87	5250.99
708.06	4366.27
708.24	3796.93
708.42	3405.77
708.61	3401.68
708.79	2787.29
708.97	2717.65
709.16	2811.86
709.34	2783.19
709.52	2699.22
709.71	2723.80
709.89	2783.19
710.07	2592.73
710.26	2580.44
710.44	2738.13
710.62	2789.33
710.80	2709.46
710.99	2709.46
711.17	2770.90
711.35	2641.88
711.54	2564.06
711.72	2785.24
711.90	2758.61
712.09	2791.38
712.27	2654.17
712.45	2725.85
712.63	2631.64
712.82	2838.48
713.00	2678.74
713.18	2813.91
713.37	2742.23
713.55	2840.53
713.73	2764.76
713.91	2719.70
714.10	2602.97
714.28	2691.03
714.46	2740.18
714.65	2719.70
714.83	2717.65
715.01	2709.46
715.19	2744.28
715.38	2564.06
715.56	2844.63
715.74	2660.31
715.92	2617.30
716.11	2940.88
716.29	2459.61
716.47	2625.50
716.65	2701.27
716.84	2512.86
717.02	2750.42
717.20	2510.81
717.38	2627.54
717.57	2770.90
717.75	2713.56
717.93	2627.54
718.11	2770.90
718.30	2514.91
718.48	2695.13
718.66	2865.11
718.84	2858.96
719.03	2611.16
719.21	2543.58
719.39	3008.47
719.57	2756.57
719.75	2752.47
719.94	2609.11
720.12	2678.74
720.30	2693.08
720.48	2738.13
720.67	2695.13
720.85	2562.01
721.03	2600.92
721.21	2666.46
721.39	2731.99
721.58	2875.35
721.76	2678.74
721.94	2746.33
722.12	2707.41
722.30	2996.18
722.49	2623.45
722.67	2676.70
722.85	2688.98
723.03	2547.67
723.21	2664.41
723.40	2709.46
723.58	2758.61
723.76	2842.58
723.94	2934.74
724.12	2703.32
724.30	2893.78
724.49	2871.25
724.67	2594.78
724.85	2846.68
725.03	2502.62
725.21	2897.88
725.40	2848.72
725.58	2662.36
725.76	2811.86
725.94	2820.05
726.12	2584.54
726.30	2705.37
726.49	2627.54
726.67	2658.26
726.85	2742.23
727.03	3166.16
727.21	4071.36
727.39	5124.02
727.57	5631.91
727.76	5957.54
727.94	6223.78
728.12	5468.08
728.30	4593.59
728.48	4208.58
728.66	3987.40
728.84	3760.07
729.03	3350.48
729.21	3176.40
729.39	2971.60
729.57	2838.48
729.75	2850.77
729.93	2752.47
730.11	2541.53
730.30	2592.73
730.48	2691.03
730.66	2785.24
730.84	2818.00
731.02	2719.70
731.20	2611.16
731.38	2594.78
731.56	2594.78
731.74	2547.67
731.93	2813.91
732.11	2699.22
732.29	2639.83
732.47	2822.10
732.65	2815.96
732.83	2836.44
733.01	2750.42
733.19	2660.31
733.37	2861.01
733.56	2682.84
733.74	2584.54
733.92	2867.16
734.10	2629.59
734.28	2738.13
734.46	2478.04
734.64	2695.13
734.82	2658.26
735.00	2635.74
735.18	2627.54
735.36	2695.13
735.54	2760.66
735.73	2697.17
735.91	2734.04
736.09	2928.60
736.27	2678.74
736.45	2787.29
736.63	2469.85
736.81	2725.85
736.99	2811.86
737.17	2887.64
737.35	2531.29
737.53	2818.00
737.71	2684.89
737.89	2799.57
738.07	2641.88
738.25	2670.55
738.43	2519.00
738.61	2672.60
738.80	2494.43
738.98	2555.86
739.16	2629.59
739.34	2590.68
739.52	2973.65
739.70	2682.84
739.88	2799.57
740.06	2826.20
740.24	2408.41
740.42	2967.51
740.60	2447.32
740.78	2619.35
740.96	2496.47
741.14	2666.46
741.32	2797.53
741.50	2555.86
741.68	2840.53
741.86	2863.06
742.04	2656.22
742.22	2519.00
742.40	2691.03
742.58	2785.24
742.76	2623.45
742.94	2830.29
743.12	2475.99
743.30	2705.37
743.48	2715.61
743.66	2498.52
743.84	2719.70
744.02	2719.70
744.20	2777.05
744.38	2637.78
744.56	2586.58
744.74	3016.66
744.92	2826.20
745.10	2873.30
745.28	2760.66
745.46	2971.60
745.64	2682.84
745.82	2854.87
746.00	2607.06
746.18	2801.62
746.36	2584.54
746.54	2719.70
746.72	2668.50
746.90	2484.19
747.08	2899.92
747.26	2631.64
747.44	2832.34
747.62	2760.66
747.80	2787.29
747.98	2766.81
748.15	2609.11
748.33	2963.41
748.51	2760.66
748.69	2766.81
748.87	2568.15
749.05	2568.15
749.23	2684.89
749.41	2629.59
749.59	2664.41
749.77	2822.10
749.95	2668.50
750.13	2586.58
750.31	2779.09
750.49	2691.03
750.67	2861.01
750.85	2809.81
751.03	2643.93
751.20	2998.23
751.38	2744.28
751.56	2688.98
751.74	2752.47
751.92	2777.05
752.10	2586.58
752.28	2795.48
752.46	2736.09
752.64	2703.32
752.82	2695.13
753.00	2725.85
753.18	2586.58
753.35	2688.98
753.53	2695.13
753.71	2594.78
753.89	2748.37
754.07	2719.70
754.25	2852.82
754.43	2699.22
754.61	2525.15
754.79	2754.52
754.97	2684.89
755.14	2863.06
755.32	2508.76
755.50	2838.48
755.68	2656.22
755.86	2486.23
756.04	2580.44
756.22	2416.60
756.40	2811.86
756.57	2895.83
756.75	2664.41
756.93	2799.57
757.11	2891.73
757.29	2539.48
757.47	2504.67
757.65	2492.38
757.82	2453.47
758.00	2598.87
758.18	2660.31
758.36	2607.06
758.54	2922.45
758.72	2492.38
758.90	2754.52
759.07	2723.80
759.25	2609.11
759.43	2764.76
759.61	2480.09
759.79	3962.82
759.97	2830.29
760.15	2586.58
760.32	2514.91
760.50	2744.28
760.68	2938.84
760.86	2551.77
761.04	2791.38
761.22	2848.72
761.39	2709.46
761.57	2719.70
761.75	2678.74
761.93	2791.38
762.11	2713.56
762.28	2707.41
762.46	2619.35
762.64	2783.19
762.82	2553.82
763.00	2633.69
763.18	2875.35
763.35	2596.82
763.53	2850.77
763.71	2740.18
763.89	2648.02
764.07	2830.29
764.24	2662.36
764.42	2707.41
764.60	2627.54
764.78	2750.42
764.96	2828.24
765.13	2752.47
765.31	2586.58
765.49	2801.62
765.67	2594.78
765.84	2555.86
766.02	2633.69
766.20	2512.86
766.38	2752.47
766.56	2768.85
766.73	2736.09
766.91	2725.85
767.09	2719.70
767.27	2721.75
767.44	2555.86
767.62	2807.77
767.80	2766.81
767.98	2625.50
768.15	2621.40
768.33	2793.43
768.51	2865.11
768.69	2756.57
768.87	2660.31
769.04	2762.71
769.22	3129.30
769.40	2850.77
769.58	2834.39
769.75	2807.77
769.93	2840.53
770.11	2615.26
770.28	2590.68
770.46	2781.14
770.64	2656.22
770.82	2607.06
770.99	2664.41
771.17	2822.10
771.35	2637.78
771.53	2625.50
771.70	2660.31
771.88	2824.15
772.06	2713.56
772.23	2684.89
772.41	2701.27
772.59	2725.85
772.77	2594.78
772.94	2691.03
773.12	2693.08
773.30	2660.31
773.47	2738.13
773.65	2582.49
773.83	2854.87
774.01	2703.32
774.18	2490.33
774.36	2602.97
774.54	2543.58
774.71	2742.23
774.89	2463.71
775.07	2500.57
775.24	2629.59
775.42	2641.88
775.60	2938.84
775.78	2621.40
775.95	2490.33
776.13	2482.14
776.31	2506.71
776.48	2750.42
776.66	2901.97
776.84	2670.55
777.01	2621.40
777.19	2562.01
777.37	2555.86
777.54	2826.20
777.72	2965.46
777.90	2707.41
778.07	2555.86
778.25	3192.78
778.43	2850.77
778.60	2576.34
778.78	2701.27
778.96	2850.77
779.13	2572.25
779.31	2766.81
779.49	2691.03
779.66	2717.65
779.84	2680.79
780.01	2629.59
780.19	2586.58
780.37	2940.88
780.54	2809.81
780.72	2578.39
780.90	2652.12
781.07	2627.54
781.25	2611.16
781.43	2750.42
781.60	2658.26
781.78	2895.83
781.95	2779.09
782.13	2568.15
782.31	2691.03
782.48	2537.43
782.66	2705.37
782.83	2947.03
783.01	2756.57
783.19	2770.90
783.36	2766.81
783.54	2510.81
783.72	2734.04
783.89	2658.26
784.07	2754.52
784.24	2721.75
784.42	2762.71
784.60	2756.57
784.77	2777.05
784.95	2437.08
785.12	2592.73
785.30	2668.50
785.47	2594.78
785.65	2605.02
785.83	2596.82
786.00	2572.25
786.18	2695.13
786.35	2539.48
786.53	2576.34
786.71	2805.72
786.88	2850.77
787.06	2783.19
787.23	2686.94
787.41	2467.80
787.58	2686.94
787.76	2527.19
787.94	2650.07
788.11	2787.29
788.29	2570.20
788.46	2572.25
788.64	2516.95
788.81	2643.93
788.99	2633.69
789.16	2559.96
789.34	2629.59
789.52	2668.50
789.69	2613.21
789.87	2482.14
790.04	2605.02
790.22	2680.79
790.39	3024.85
790.57	2506.71
790.74	2510.81
790.92	2830.29
791.09	2564.06
791.27	2701.27
791.44	2693.08
791.62	2674.65
791.79	2875.35
791.97	2750.42
792.15	3004.37
792.32	2867.16
792.50	2811.86
792.67	2848.72
792.85	2938.84
793.02	2701.27
793.20	2643.93
793.37	2494.43
793.55	2605.02
793.72	2566.10
793.90	2723.80
794.07	2623.45
794.25	2605.02
794.42	2695.13
794.60	2709.46
794.77	2736.09
794.95	2752.47
795.12	2781.14
795.30	2754.52
795.47	2461.66
795.65	2996.18
795.82	2775.00
796.00	2578.39
796.17	2635.74
796.34	2617.30
796.52	2783.19
796.69	2824.15
796.87	2781.14
797.04	2738.13
797.22	2924.50
797.39	2744.28
797.57	2818.00
797.74	2744.28
797.92	2772.95
798.09	2625.50
798.27	2873.30
798.44	2635.74
798.62	2602.97
798.79	2752.47
798.96	2762.71
799.14	2652.12
799.31	3100.62
799.49	2658.26
799.66	2695.13
799.84	2643.93
800.01	2502.62
800.19	2813.91
800.36	2437.08
800.53	2711.51
800.71	2869.20
800.88	2949.08
801.06	2588.63
801.23	2656.22
801.41	2688.98
801.58	2617.30
801.75	2590.68
801.93	2707.41
802.10	2818.00
802.28	2686.94
802.45	2617.30
802.63	2701.27
802.80	2858.96
802.97	2684.89
803.15	2592.73
803.32	2686.94
803.50	2592.73
803.67	2598.87
803.84	2574.30
804.02	2676.70
804.19	2676.70
804.37	2512.86
804.54	2465.75
804.71	2572.25
804.89	2715.61
805.06	2582.49
805.24	2566.10
805.41	2459.61
805.58	2621.40
805.76	3010.51
805.93	2744.28
806.10	2828.24
806.28	2807.77
806.45	2764.76
806.63	2766.81
806.80	2680.79
806.97	2742.23
807.15	2691.03
807.32	2711.51
807.49	2633.69
807.67	2523.10
807.84	2691.03
808.01	2492.38
808.19	2850.77
808.36	3006.42
808.54	2662.36
808.71	2576.34
808.88	2555.86
809.06	2861.01
809.23	2899.92
809.40	2613.21
809.58	2746.33
809.75	2740.18
809.92	2586.58
810.10	2879.44
810.27	2672.60
810.44	2799.57
810.62	2764.76
810.79	2664.41
810.96	2613.21
811.14	2678.74
811.31	2756.57
811.48	2734.04
811.66	2725.85
811.83	2922.45
812.00	2748.37
812.18	2719.70
812.35	2871.25
812.52	2635.74
812.69	2635.74
812.87	2521.05
813.04	2574.30
813.21	2654.17
813.39	2625.50
813.56	2564.06
813.73	2820.05
813.91	2527.19
814.08	2695.13
814.25	2688.98
814.42	2486.23
814.60	2627.54
814.77	2639.83
814.94	2605.02
815.12	2674.65
815.29	2990.03
815.46	2625.50
815.63	2736.09
815.81	2584.54
815.98	2619.35
816.15	2766.81
816.33	2709.46
816.50	2625.50
816.67	2803.67
816.84	2650.07
817.02	2553.82
817.19	2629.59
817.36	2807.77
817.53	2856.92
817.71	2588.63
817.88	2754.52
818.05	2686.94
818.22	2652.12
818.40	2885.59
818.57	2719.70
818.74	2736.09
818.91	2717.65
819.09	2670.55
819.26	2775.00
819.43	2564.06
819.60	2641.88
819.78	2711.51
819.95	2785.24
820.12	2527.19
820.29	2918.36
820.47	2910.16
820.64	2629.59
820.81	2506.71
820.98	2580.44
821.15	2707.41
821.33	2662.36
821.50	2498.52
821.67	2795.48
821.84	2672.60
822.02	2709.46
822.19	2818.00
822.36	2682.84
822.53	2670.55
822.70	2564.06
822.88	2609.11
823.05	2865.11
823.22	2703.32
823.39	2756.57
823.56	2668.50
823.74	3014.61
823.91	2588.63
824.08	2504.67
824.25	2523.10
824.42	2965.46
824.60	2590.68
824.77	2686.94
824.94	2695.13
825.11	2772.95
825.28	2537.43
825.45	2676.70
825.63	2738.13
825.80	2555.86
825.97	2742.23
826.14	2701.27
826.31	2492.38
826.48	2801.62
826.66	2564.06
826.83	2574.30
827.00	2674.65
827.17	2621.40
827.34	2605.02
827.51	2543.58
827.69	2670.55
827.86	2551.77
828.03	2609.11
828.20	2686.94
828.37	2586.58
828.54	2754.52
828.71	2625.50
828.89	2760.66
829.06	2742.23
829.23	2910.16
829.40	2594.78
829.57	2680.79
829.74	2775.00
829.91	2701.27
830.09	2580.44
830.26	2768.85
830.43	2961.36
830.60	2674.65
830.77	2731.99
830.94	2754.52
831.11	2899.92
831.28	2670.55
831.46	2760.66
831.63	2654.17
831.80	2916.31
831.97	2639.83
832.14	2559.96
832.31	2715.61
832.48	2709.46
832.65	2846.68
832.82	2715.61
832.99	2731.99
833.17	2539.48
833.34	2906.07
833.51	2668.50
833.68	2418.65
833.85	2920.40
834.02	2549.72
834.19	2611.16
834.36	2641.88
834.53	2801.62
834.70	2799.57
834.87	2768.85
835.04	2512.86
835.22	2688.98
835.39	2666.46
835.56	2478.04
835.73	2531.29
835.90	2803.67
836.07	2557.91
836.24	2617.30
836.41	2508.76
836.58	2619.35
836.75	2807.77
836.92	2594.78
837.09	2432.99
837.26	2863.06
837.43	2758.61
837.60	2621.40
837.77	2555.86
837.94	2750.42
838.12	2963.41
838.29	2564.06
838.46	2506.71
838.63	2549.72
838.80	2944.98
838.97	2617.30
839.14	2547.67
839.31	2799.57
839.48	2797.53
839.65	2521.05
839.82	2658.26
839.99	2746.33
840.16	2758.61
840.33	2486.23
840.50	2594.78
840.67	2670.55
840.84	2353.12
841.01	2541.53
841.18	2492.38
841.35	2691.03
841.52	2801.62
841.69	2844.63
841.86	2645.98
842.03	2752.47
842.20	2854.87
842.37	2633.69
842.54	2639.83
842.71	2695.13
842.88	2535.39
843.05	2508.76
843.22	2564.06
843.39	2916.31
843.56	2615.26
843.73	2654.17
843.90	2576.34
844.07	2731.99
844.24	2854.87
844.41	2623.45
844.58	2615.26
844.75	2725.85
844.92	2725.85
845.09	2660.31
845.26	2428.89
845.43	2772.95
845.60	2664.41
845.77	2633.69
845.94	2721.75
846.10	2779.09
846.27	2500.57
846.44	2383.84
846.61	2521.05
846.78	2713.56
846.95	2836.44
847.12	2580.44
847.29	2609.11
847.46	2652.12
847.63	2836.44
847.80	2514.91
847.97	2523.10
848.14	3114.96
848.31	2672.60
848.48	2418.65
848.65	2570.20
848.82	2592.73
848.98	3061.71
849.15	2664.41
849.32	2652.12
849.49	2895.83
849.66	2721.75
849.83	2508.76
850.00	2420.70
850.17	2758.61
850.34	2613.21
850.51	2502.62
850.68	2537.43
850.85	3059.67
851.01	2731.99
851.18	2531.29
851.35	2580.44
851.52	2834.39
851.69	2908.12
851.86	2527.19
852.03	2527.19
852.20	2760.66
852.37	2691.03
852.53	2422.75
852.70	2514.91
852.87	2758.61
853.04	2850.77
853.21	2512.86
853.38	2815.96
853.55	2850.77
853.72	2930.64
853.89	2510.81
854.05	2559.96
854.22	2627.54
854.39	2707.41
854.56	2596.82
854.73	2691.03
854.90	2625.50
855.07	2705.37
855.23	2486.23
855.40	2467.80
855.57	2656.22
855.74	2375.64
855.91	2701.27
856.08	2451.42
856.25	2521.05
856.41	2551.77
856.58	2568.15
856.75	2643.93
856.92	2584.54
857.09	2803.67
857.26	2426.84
857.42	2605.02
857.59	2793.43
857.76	2627.54
857.93	2621.40
858.10	2551.77
858.27	2574.30
858.43	2699.22
858.60	2572.25
858.77	2422.75
858.94	2602.97
859.11	2897.88
859.27	2557.91
859.44	2478.04
859.61	2998.23
859.78	2742.23
859.95	2578.39
860.12	2510.81
860.28	2944.98
860.45	3020.75
860.62	2525.15
860.79	2643.93
860.95	2635.74
861.12	2580.44
861.29	2533.34
861.46	2506.71
861.63	2674.65
861.79	2719.70
861.96	2510.81
862.13	2568.15
862.30	2914.26
862.47	2650.07
862.63	2404.32
862.80	2676.70
862.97	2883.54
863.14	2744.28
863.30	2586.58
863.47	2453.47
863.64	2928.60
863.81	2703.32
863.97	2488.28
864.14	2568.15
864.31	2641.88
864.48	2639.83
864.65	2566.10
864.81	2781.14
864.98	2840.53
865.15	2793.43
865.32	2623.45
865.48	2691.03
865.65	2973.65
865.82	2586.58
865.98	2627.54
866.15	2662.36
866.32	2602.97
866.49	2717.65
866.65	2680.79
866.82	2541.53
866.99	2686.94
867.16	2637.78
867.32	2531.29
867.49	2490.33
867.66	2639.83
867.83	2662.36
867.99	2392.03
868.16	2559.96
868.33	2553.82
868.49	2711.51
868.66	2568.15
868.83	2607.06
868.99	2701.27
869.16	2658.26
869.33	2662.36
869.50	2645.98
869.66	2729.94
869.83	2697.17
870.00	2496.47
870.16	2676.70
870.33	2652.12
870.50	2834.39
870.66	2578.39
870.83	2703.32
871.00	2680.79
871.17	2811.86
871.33	2658.26
871.50	2545.63
871.67	2703.32
871.83	2699.22
872.00	2764.76
872.17	2516.95
872.33	3035.09
872.50	2861.01
872.67	2609.11
872.83	2508.76
873.00	2742.23
873.17	2674.65
873.33	2668.50
873.50	2680.79
873.67	2584.54
873.83	2658.26
874.00	2543.58
874.16	2709.46
874.33	2752.47
874.50	2510.81
874.66	2547.67
874.83	2516.95
875.00	2930.64
875.16	2885.59
875.33	2686.94
875.50	2396.12
875.66	2650.07
875.83	2783.19
875.99	2607.06
876.16	2596.82
876.33	2625.50
876.49	2664.41
876.66	2621.40
876.83	2596.82
876.99	2457.56
877.16	2717.65
877.32	2514.91
877.49	2623.45
877.66	2717.65
877.82	2822.10
877.99	2682.84
878.15	2799.57
878.32	2736.09
878.49	2781.14
878.65	2559.96
878.82	2813.91
878.98	2510.81
879.15	2822.10
879.32	2594.78
879.48	2695.13
879.65	2686.94
879.81	2670.55
879.98	2486.23
880.15	2674.65
880.31	2801.62
880.48	2664.41
880.64	2711.51
880.81	2625.50
880.97	2961.36
881.14	2953.17
881.31	2469.85
881.47	2654.17
881.64	2664.41
881.80	2516.95
881.97	2678.74
882.13	2584.54
882.30	2533.34
882.47	2613.21
882.63	2539.48
882.80	2535.39
882.96	2662.36
883.13	2936.79
883.29	2557.91
883.46	2592.73
883.62	3069.91
883.79	2725.85
883.95	2717.65
884.12	2531.29
884.29	2850.77
884.45	2801.62
884.62	2594.78
884.78	2494.43
884.95	2908.12
885.11	2609.11
885.28	2621.40
885.44	2527.19
885.61	2820.05
885.77	2924.50
885.94	2703.32
886.10	2525.15
886.27	2775.00
886.43	2973.65
886.60	2715.61
886.76	2570.20
886.93	2553.82
887.09	2799.57
887.26	2480.09
887.42	2605.02
887.59	2770.90
887.75	3057.62
887.92	2772.95
888.08	2670.55
888.25	2942.93
888.41	2832.34
888.58	2643.93
888.74	2457.56
888.91	2580.44
>>>>>End Processed Spectral Data<<<<<
