SpectraSuite Data File
++++++++++++++++++++++++++++++++++++
Date: Thu May 05 16:20:35 CEST 2016
User: root
Dark Spectrum Present: No
Reference Spectrum Present: No
Number of Sampled Component Spectra: 1
Spectrometers: USB4C02835
Integration Time (usec): 100000 (USB4C02835)
Spectra Averaged: 1 (USB4C02835)
Boxcar Smoothing: 0 (USB4C02835)
Correct for Electrical Dark: No (USB4C02835)
Strobe/Lamp Enabled: No (USB4C02835)
Correct for Detector Non-linearity: No (USB4C02835)
Correct for Stray Light: No (USB4C02835)
Number of Pixels in Processed Spectrum: 3648
>>>>>Begin Processed Spectral Data<<<<<
177.47	2052.06
177.69	2052.06
177.91	2052.06
178.13	2029.54
178.36	1972.19
178.58	2537.43
178.80	2766.81
179.02	2531.29
179.24	2615.26
179.46	2398.17
179.68	2584.54
179.90	2662.36
180.13	2703.32
180.35	2400.22
180.57	2469.85
180.79	2889.68
181.01	2707.41
181.23	2572.25
181.45	2627.54
181.67	2858.96
181.90	2891.73
182.12	2504.67
182.34	2353.12
182.56	2805.72
182.78	2768.85
183.00	2428.89
183.22	2521.05
183.44	2488.28
183.66	3162.06
183.89	2633.69
184.11	2553.82
184.33	2807.77
184.55	2772.95
184.77	2508.76
184.99	2605.02
185.21	2629.59
185.43	3061.71
185.65	2529.24
185.87	2500.57
186.10	3016.66
186.32	3053.52
186.54	2557.91
186.76	2566.10
186.98	2818.00
187.20	2621.40
187.42	2541.53
187.64	2471.90
187.86	2824.15
188.08	2799.57
188.30	2437.08
188.52	2545.63
188.75	2985.94
188.97	2863.06
189.19	2492.38
189.41	2484.19
189.63	2799.57
189.85	2637.78
190.07	2385.88
190.29	2392.03
190.51	2740.18
190.73	2551.77
190.95	2680.79
191.17	2576.34
191.39	2562.01
191.61	2701.27
191.84	2586.58
192.06	2609.11
192.28	2488.28
192.50	3172.30
192.72	2592.73
192.94	2490.33
193.16	2820.05
193.38	2787.29
193.60	2486.23
193.82	2592.73
194.04	2848.72
194.26	2750.42
194.48	2508.76
194.70	2488.28
194.92	2670.55
195.14	2717.65
195.36	2465.75
195.58	2605.02
195.80	2729.94
196.02	2715.61
196.24	2430.94
196.46	2596.82
196.69	2629.59
196.91	3162.06
197.13	2512.86
197.35	2504.67
197.57	2979.79
197.79	2838.48
198.01	2609.11
198.23	2594.78
198.45	2813.91
198.67	2602.97
198.89	2336.73
199.11	2609.11
199.33	2625.50
199.55	2457.56
199.77	2539.48
199.99	2615.26
200.21	2668.50
200.43	2777.05
200.65	2414.56
200.87	2375.64
201.09	2768.85
201.31	2693.08
201.53	2602.97
201.75	2543.58
201.97	2840.53
202.19	2725.85
202.41	2570.20
202.63	2678.74
202.85	2811.86
203.07	2787.29
203.29	2586.58
203.51	2420.70
203.73	2594.78
203.95	3129.30
204.17	2482.14
204.39	2582.49
204.61	2652.12
204.83	2656.22
205.05	2676.70
205.27	2658.26
205.49	2987.99
205.71	2684.89
205.93	2447.32
206.15	2445.27
206.37	2740.18
206.59	2602.97
206.81	2402.27
207.03	2459.61
207.25	2580.44
207.47	2803.67
207.69	2525.15
207.91	2670.55
208.13	2969.55
208.34	2652.12
208.56	2494.43
208.78	2572.25
209.00	2725.85
209.22	2619.35
209.44	2516.95
209.66	2516.95
209.88	2801.62
210.10	2666.46
210.32	2490.33
210.54	2519.00
210.76	2697.17
210.98	2793.43
211.20	2365.40
211.42	2600.92
211.64	2883.54
211.86	2807.77
212.08	2580.44
212.30	2574.30
212.52	2713.56
212.74	2848.72
212.96	2621.40
213.17	2635.74
213.39	2797.53
213.61	3049.43
213.83	2510.81
214.05	2338.78
214.27	2883.54
214.49	2541.53
214.71	2445.27
214.93	2586.58
215.15	2711.51
215.37	2793.43
215.59	2428.89
215.81	2582.49
216.03	2916.31
216.24	2736.09
216.46	2553.82
216.68	2613.21
216.90	2832.34
217.12	2871.25
217.34	2574.30
217.56	2654.17
217.78	2867.16
218.00	2811.86
218.22	2523.10
218.44	2631.64
218.66	2777.05
218.87	3004.37
219.09	2504.67
219.31	2529.24
219.53	2701.27
219.75	2641.88
219.97	2572.25
220.19	2578.39
220.41	2744.28
220.63	3004.37
220.85	2533.34
221.06	2539.48
221.28	3020.75
221.50	2729.94
221.72	2527.19
221.94	2439.13
222.16	2738.13
222.38	2832.34
222.60	2496.47
222.82	2504.67
223.03	2844.63
223.25	2523.10
223.47	2473.95
223.69	2725.85
223.91	2828.24
224.13	2742.23
224.35	2435.03
224.57	2758.61
224.78	2828.24
225.00	2625.50
225.22	2539.48
225.44	2418.65
225.66	2858.96
225.88	2572.25
226.10	2576.34
226.32	2605.02
226.53	2883.54
226.75	2672.60
226.97	2521.05
227.19	2508.76
227.41	2613.21
227.63	2643.93
227.85	2351.07
228.06	2543.58
228.28	2731.99
228.50	2781.14
228.72	2445.27
228.94	2455.51
229.16	2467.80
229.37	2580.44
229.59	2478.04
229.81	2734.04
230.03	2740.18
230.25	2453.47
230.47	2342.88
230.69	2510.81
230.90	2858.96
231.12	2645.98
231.34	2564.06
231.56	2643.93
231.78	2504.67
232.00	2736.09
232.21	2455.51
232.43	2555.86
232.65	2457.56
232.87	2852.82
233.09	2439.13
233.30	2514.91
233.52	2856.92
233.74	2766.81
233.96	2525.15
234.18	2584.54
234.40	2650.07
234.61	3000.27
234.83	2482.14
235.05	2418.65
235.27	3069.91
235.49	2834.39
235.70	2451.42
235.92	2576.34
236.14	2738.13
236.36	3100.62
236.58	2373.60
236.79	2564.06
237.01	2666.46
237.23	2719.70
237.45	2697.17
237.67	2494.43
237.88	2815.96
238.10	3002.32
238.32	2428.89
238.54	2494.43
238.76	2676.70
238.97	2527.19
239.19	2463.71
239.41	2629.59
239.63	2893.78
239.85	2652.12
240.06	2439.13
240.28	2441.18
240.50	2934.74
240.72	2768.85
240.93	2457.56
241.15	2613.21
241.37	2772.95
241.59	2932.69
241.81	2586.58
242.02	2547.67
242.24	2809.81
242.46	2801.62
242.68	2375.64
242.89	2527.19
243.11	2875.35
243.33	2744.28
243.55	2529.24
243.76	2648.02
243.98	2670.55
244.20	2754.52
244.42	2502.62
244.64	2549.72
244.85	2435.03
245.07	2586.58
245.29	2480.09
245.51	2602.97
245.72	2832.34
245.94	2797.53
246.16	2500.57
246.38	2596.82
246.59	2662.36
246.81	2654.17
247.03	2457.56
247.24	2383.84
247.46	2572.25
247.68	2791.38
247.90	2469.85
248.11	2537.43
248.33	2807.77
248.55	2699.22
248.77	2576.34
248.98	2547.67
249.20	2983.89
249.42	2695.13
249.64	2555.86
249.85	2453.47
250.07	2586.58
250.29	2789.33
250.50	2607.06
250.72	2437.08
250.94	2736.09
251.16	3030.99
251.37	2473.95
251.59	2553.82
251.81	2867.16
252.02	2908.12
252.24	2500.57
252.46	2596.82
252.68	2629.59
252.89	2633.69
253.11	2375.64
253.33	2650.07
253.54	2877.40
253.76	2594.78
253.98	2482.14
254.20	2535.39
254.41	2627.54
254.63	2717.65
254.85	2363.36
255.06	2623.45
255.28	2756.57
255.50	2688.98
255.71	2465.75
255.93	2402.27
256.15	2676.70
256.36	2805.72
256.58	2355.16
256.80	2457.56
257.02	2619.35
257.23	2707.41
257.45	2541.53
257.67	2580.44
257.88	2639.83
258.10	2832.34
258.32	2580.44
258.53	2521.05
258.75	2992.08
258.97	2676.70
259.18	2447.32
259.40	2533.34
259.62	3043.28
259.83	2895.83
260.05	2469.85
260.27	3174.35
260.48	2807.77
260.70	2566.10
260.92	2490.33
261.13	2504.67
261.35	2754.52
261.57	2830.29
261.78	2361.31
262.00	2424.80
262.22	2797.53
262.43	2645.98
262.65	2523.10
262.86	2615.26
263.08	3069.91
263.30	2793.43
263.51	2392.03
263.73	2506.71
263.95	2963.41
264.16	2613.21
264.38	2484.19
264.60	2441.18
264.81	2756.57
265.03	2906.07
265.25	2850.77
265.46	2519.00
265.68	3000.27
265.89	2856.92
266.11	2430.94
266.33	2605.02
266.54	2820.05
266.76	2781.14
266.98	2613.21
267.19	2711.51
267.41	2916.31
267.62	2686.94
267.84	2398.17
268.06	2660.31
268.27	2801.62
268.49	2883.54
268.70	2627.54
268.92	2586.58
269.14	2557.91
269.35	2506.71
269.57	2674.65
269.79	2607.06
270.00	2654.17
270.22	3016.66
270.43	2424.80
270.65	2357.21
270.87	2768.85
271.08	2863.06
271.30	2631.64
271.51	2514.91
271.73	2803.67
271.95	2994.13
272.16	2478.04
272.38	2605.02
272.59	2699.22
272.81	2736.09
273.02	2500.57
273.24	2559.96
273.46	2846.68
273.67	2543.58
273.89	2385.88
274.10	2525.15
274.32	2877.40
274.54	2750.42
274.75	2576.34
274.97	2559.96
275.18	2873.30
275.40	2789.33
275.61	2537.43
275.83	2670.55
276.05	2545.63
276.26	2744.28
276.48	2629.59
276.69	2613.21
276.91	2600.92
277.12	2944.98
277.34	2674.65
277.55	2734.04
277.77	2736.09
277.99	2684.89
278.20	2494.43
278.42	2494.43
278.63	2631.64
278.85	2596.82
279.06	2533.34
279.28	2621.40
279.49	2824.15
279.71	2785.24
279.93	2641.88
280.14	2637.78
280.36	2633.69
280.57	2834.39
280.79	2645.98
281.00	2498.52
281.22	2619.35
281.43	2850.77
281.65	2400.22
281.86	2486.23
282.08	2758.61
282.29	3002.32
282.51	2486.23
282.73	2572.25
282.94	2455.51
283.16	2818.00
283.37	2719.70
283.59	2623.45
283.80	2658.26
284.02	2725.85
284.23	2617.30
284.45	2615.26
284.66	2545.63
284.88	2549.72
285.09	2621.40
285.31	2703.32
285.52	2783.19
285.74	2475.99
285.95	2668.50
286.17	2668.50
286.38	2944.98
286.60	2592.73
286.81	2516.95
287.03	2535.39
287.24	2695.13
287.46	2721.75
287.67	2652.12
287.89	2822.10
288.10	2725.85
288.32	2799.57
288.53	2789.33
288.75	2596.82
288.96	2858.96
289.18	2549.72
289.39	2553.82
289.61	2650.07
289.82	3047.38
290.04	3016.66
290.25	2475.99
290.47	2621.40
290.68	2713.56
290.90	2891.73
291.11	2531.29
291.33	2715.61
291.54	2650.07
291.76	2619.35
291.97	2605.02
292.18	2676.70
292.40	2619.35
292.61	2635.74
292.83	2818.00
293.04	2670.55
293.26	2750.42
293.47	2615.26
293.69	2488.28
293.90	2592.73
294.12	2932.69
294.33	2648.02
294.55	2674.65
294.76	2707.41
294.97	2897.88
295.19	3016.66
295.40	2572.25
295.62	2654.17
295.83	2830.29
296.05	2625.50
296.26	2731.99
296.48	2582.49
296.69	2684.89
296.90	2664.41
297.12	2723.80
297.33	2813.91
297.55	2805.72
297.76	2813.91
297.98	2650.07
298.19	2762.71
298.41	2758.61
298.62	2611.16
298.83	2813.91
299.05	2600.92
299.26	2674.65
299.48	2611.16
299.69	2623.45
299.90	2678.74
300.12	2731.99
300.33	2906.07
300.55	2670.55
300.76	2643.93
300.98	2621.40
301.19	2893.78
301.40	2629.59
301.62	2594.78
301.83	2828.24
302.05	2725.85
302.26	2629.59
302.47	2652.12
302.69	2566.10
302.90	2805.72
303.12	2357.21
303.33	2633.69
303.54	3047.38
303.76	2691.03
303.97	2555.86
304.19	2748.37
304.40	2562.01
304.61	2754.52
304.83	2881.49
305.04	2738.13
305.26	2795.48
305.47	2650.07
305.68	2623.45
305.90	2484.19
306.11	2901.97
306.33	2691.03
306.54	2553.82
306.75	2555.86
306.97	2553.82
307.18	2555.86
307.39	2611.16
307.61	2643.93
307.82	2744.28
308.04	2822.10
308.25	2506.71
308.46	2676.70
308.68	2750.42
308.89	2717.65
309.10	2725.85
309.32	2641.88
309.53	2666.46
309.74	2754.52
309.96	2543.58
310.17	2688.98
310.39	2693.08
310.60	2828.24
310.81	2645.98
311.03	2564.06
311.24	2791.38
311.45	2695.13
311.67	2834.39
311.88	2654.17
312.09	2686.94
312.31	2670.55
312.52	2539.48
312.73	2519.00
312.95	2533.34
313.16	2641.88
313.37	2760.66
313.59	2672.60
313.80	2883.54
314.01	2930.64
314.23	2613.21
314.44	2527.19
314.65	2484.19
314.87	2662.36
315.08	2525.15
315.29	2637.78
315.51	2547.67
315.72	2457.56
315.93	2815.96
316.15	2652.12
316.36	2711.51
316.57	2701.27
316.79	2596.82
317.00	2602.97
317.21	2801.62
317.43	2650.07
317.64	2605.02
317.85	2541.53
318.07	2607.06
318.28	2779.09
318.49	2729.94
318.70	2947.03
318.92	2834.39
319.13	2807.77
319.34	2803.67
319.56	2662.36
319.77	2877.40
319.98	2840.53
320.20	2742.23
320.41	2758.61
320.62	2852.82
320.83	2510.81
321.05	2947.03
321.26	2621.40
321.47	2785.24
321.69	2906.07
321.90	2469.85
322.11	2572.25
322.32	2752.47
322.54	2840.53
322.75	2596.82
322.96	3149.78
323.18	2555.86
323.39	2453.47
323.60	2559.96
323.81	2744.28
324.03	2633.69
324.24	2725.85
324.45	2703.32
324.66	2592.73
324.88	2832.34
325.09	2879.44
325.30	2559.96
325.52	2625.50
325.73	2791.38
325.94	2570.20
326.15	2488.28
326.37	2533.34
326.58	2856.92
326.79	2938.84
327.00	2605.02
327.22	2652.12
327.43	2578.39
327.64	2570.20
327.85	2731.99
328.07	2645.98
328.28	2895.83
328.49	2686.94
328.70	2586.58
328.92	2668.50
329.13	2719.70
329.34	2815.96
329.55	2883.54
329.76	2715.61
329.98	2740.18
330.19	2875.35
330.40	2695.13
330.61	2631.64
330.83	2887.64
331.04	2592.73
331.25	2705.37
331.46	2635.74
331.68	2488.28
331.89	2932.69
332.10	2652.12
332.31	2471.90
332.52	2711.51
332.74	2861.01
332.95	2473.95
333.16	2635.74
333.37	2881.49
333.58	2654.17
333.80	2686.94
334.01	2416.60
334.22	2731.99
334.43	2648.02
334.64	2547.67
334.86	2555.86
335.07	2531.29
335.28	2977.75
335.49	2439.13
335.70	2664.41
335.92	2918.36
336.13	2994.13
336.34	2707.41
336.55	2643.93
336.76	2834.39
336.98	2453.47
337.19	2686.94
337.40	2719.70
337.61	3053.52
337.82	2723.80
338.04	2691.03
338.25	2451.42
338.46	2742.23
338.67	2686.94
338.88	2539.48
339.09	2469.85
339.31	2682.84
339.52	2482.14
339.73	2514.91
339.94	2654.17
340.15	2854.87
340.36	2734.04
340.58	2678.74
340.79	2592.73
341.00	2811.86
341.21	2547.67
341.42	2883.54
341.63	2551.77
341.85	2809.81
342.06	2691.03
342.27	2527.19
342.48	2779.09
342.69	2473.95
342.90	2822.10
343.12	2752.47
343.33	2557.91
343.54	2873.30
343.75	2965.46
343.96	2609.11
344.17	2506.71
344.38	2740.18
344.60	2586.58
344.81	2594.78
345.02	2609.11
345.23	2785.24
345.44	3080.14
345.65	2691.03
345.86	2609.11
346.07	2768.85
346.29	2609.11
346.50	2740.18
346.71	2619.35
346.92	2938.84
347.13	2969.55
347.34	2609.11
347.55	2510.81
347.76	2762.71
347.98	2506.71
348.19	2662.36
348.40	2674.65
348.61	2674.65
348.82	2942.93
349.03	2750.42
349.24	2514.91
349.45	3004.37
349.66	2457.56
349.88	2547.67
350.09	2533.34
350.30	2961.36
350.51	2908.12
350.72	2648.02
350.93	2580.44
351.14	2627.54
351.35	2832.34
351.56	2637.78
351.77	2641.88
351.99	2834.39
352.20	2916.31
352.41	2803.67
352.62	2461.66
352.83	2662.36
353.04	2736.09
353.25	2564.06
353.46	2625.50
353.67	2838.48
353.88	2461.66
354.09	2619.35
354.30	2574.30
354.52	2838.48
354.73	2676.70
354.94	2580.44
355.15	2633.69
355.36	2987.99
355.57	2670.55
355.78	2611.16
355.99	2549.72
356.20	2695.13
356.41	2832.34
356.62	2738.13
356.83	2605.02
357.04	2973.65
357.25	2543.58
357.46	2508.76
357.68	2494.43
357.89	2547.67
358.10	2699.22
358.31	2637.78
358.52	2652.12
358.73	2576.34
358.94	2588.63
359.15	2623.45
359.36	2641.88
359.57	2711.51
359.78	2748.37
359.99	2723.80
360.20	2527.19
360.41	2652.12
360.62	2826.20
360.83	2613.21
361.04	2564.06
361.25	2838.48
361.46	2910.16
361.67	2686.94
361.88	2611.16
362.09	2850.77
362.30	2809.81
362.51	2570.20
362.72	2734.04
362.93	2826.20
363.14	2846.68
363.35	2641.88
363.56	2521.05
363.78	2879.44
363.99	2832.34
364.20	2527.19
364.41	2709.46
364.62	2924.50
364.83	2856.92
365.04	2688.98
365.25	2615.26
365.46	3016.66
365.67	2654.17
365.88	2656.22
366.09	2615.26
366.30	2590.68
366.51	2652.12
366.72	2555.86
366.93	2625.50
367.14	2772.95
367.35	2906.07
367.56	2553.82
367.77	2740.18
367.98	2691.03
368.18	2727.89
368.39	2754.52
368.60	2564.06
368.81	2818.00
369.02	2705.37
369.23	2578.39
369.44	2504.67
369.65	2660.31
369.86	2760.66
370.07	2688.98
370.28	2480.09
370.49	2764.76
370.70	2715.61
370.91	2523.10
371.12	2506.71
371.33	2865.11
371.54	2629.59
371.75	2703.32
371.96	2363.36
372.17	2660.31
372.38	2678.74
372.59	2635.74
372.80	2607.06
373.01	2738.13
373.22	2858.96
373.43	2703.32
373.64	2519.00
373.85	2920.40
374.06	3039.19
374.26	2760.66
374.47	2752.47
374.68	2961.36
374.89	2682.84
375.10	2576.34
375.31	2699.22
375.52	2764.76
375.73	2680.79
375.94	2523.10
376.15	2775.00
376.36	2578.39
376.57	2670.55
376.78	2637.78
376.99	2641.88
377.20	2867.16
377.40	2768.85
377.61	2889.68
377.82	2580.44
378.03	2942.93
378.24	2820.05
378.45	2707.41
378.66	2711.51
378.87	2492.38
379.08	2559.96
379.29	2559.96
379.50	2777.05
379.71	2729.94
379.91	2895.83
380.12	2605.02
380.33	2725.85
380.54	2742.23
380.75	2648.02
380.96	2637.78
381.17	2752.47
381.38	2699.22
381.59	2801.62
381.80	2635.74
382.00	2842.58
382.21	2699.22
382.42	2928.60
382.63	2904.02
382.84	2713.56
383.05	2885.59
383.26	2965.46
383.47	2760.66
383.68	2664.41
383.88	2781.14
384.09	2772.95
384.30	2793.43
384.51	2633.69
384.72	2668.50
384.93	2566.10
385.14	2686.94
385.35	2830.29
385.55	2512.86
385.76	2951.12
385.97	2633.69
386.18	2498.52
386.39	2580.44
386.60	2705.37
386.81	2617.30
387.02	2514.91
387.22	2498.52
387.43	2811.86
387.64	2656.22
387.85	2875.35
388.06	2822.10
388.27	3909.57
388.48	7532.43
388.68	11073.37
388.89	13700.91
389.10	14436.13
389.31	14155.56
389.52	11040.60
389.73	9473.90
389.93	8642.43
390.14	7939.97
390.35	6971.29
390.56	6414.24
390.77	5345.20
390.98	4149.18
391.18	3383.24
391.39	3153.87
391.60	2770.90
391.81	2873.30
392.02	2578.39
392.23	3026.90
392.43	2805.72
392.64	2703.32
392.85	2668.50
393.06	2969.55
393.27	2709.46
393.47	2602.97
393.68	2691.03
393.89	2662.36
394.10	2942.93
394.31	2596.82
394.52	2609.11
394.72	2650.07
394.93	2922.45
395.14	2568.15
395.35	2731.99
395.56	2545.63
395.76	2654.17
395.97	2764.76
396.18	2723.80
396.39	2797.53
396.60	3284.94
396.80	2955.22
397.01	2908.12
397.22	2826.20
397.43	2873.30
397.64	2629.59
397.84	2750.42
398.05	3022.80
398.26	2678.74
398.47	2768.85
398.67	2830.29
398.88	2799.57
399.09	2838.48
399.30	2535.39
399.51	2775.00
399.71	2662.36
399.92	2717.65
400.13	2680.79
400.34	2643.93
400.54	2721.75
400.75	2949.08
400.96	2664.41
401.17	2895.83
401.37	2836.44
401.58	2744.28
401.79	2625.50
402.00	2805.72
402.21	3119.06
402.41	2871.25
402.62	2805.72
402.83	2897.88
403.04	3139.54
403.24	3393.48
403.45	2693.08
403.66	2836.44
403.87	2887.64
404.07	2996.18
404.28	2861.01
404.49	2836.44
404.70	2738.13
404.90	2811.86
405.11	2654.17
405.32	2797.53
405.52	2709.46
405.73	2596.82
405.94	2633.69
406.15	2650.07
406.35	2824.15
406.56	2775.00
406.77	2746.33
406.98	2674.65
407.18	2568.15
407.39	2959.31
407.60	2668.50
407.80	2662.36
408.01	2568.15
408.22	2691.03
408.43	2566.10
408.63	2760.66
408.84	2762.71
409.05	2805.72
409.25	2506.71
409.46	2619.35
409.67	2654.17
409.88	2566.10
410.08	2607.06
410.29	2535.39
410.50	2875.35
410.70	2791.38
410.91	2545.63
411.12	2742.23
411.32	2744.28
411.53	2553.82
411.74	2740.18
411.95	2793.43
412.15	2711.51
412.36	2793.43
412.57	2844.63
412.77	2811.86
412.98	2701.27
413.19	2652.12
413.39	2742.23
413.60	2641.88
413.81	2996.18
414.01	2514.91
414.22	2652.12
414.43	2746.33
414.63	2705.37
414.84	2822.10
415.05	2656.22
415.25	2459.61
415.46	2838.48
415.67	2623.45
415.87	2658.26
416.08	2625.50
416.29	2695.13
416.49	2754.52
416.70	2643.93
416.91	2564.06
417.11	2721.75
417.32	2891.73
417.53	2777.05
417.73	2713.56
417.94	2650.07
418.15	2844.63
418.35	2684.89
418.56	2701.27
418.77	3121.10
418.97	2764.76
419.18	2662.36
419.38	2330.59
419.59	2740.18
419.80	2936.79
420.00	2607.06
420.21	2666.46
420.42	2889.68
420.62	2768.85
420.83	2621.40
421.04	2580.44
421.24	2674.65
421.45	2799.57
421.65	2621.40
421.86	2678.74
422.07	2842.58
422.27	2768.85
422.48	2588.63
422.69	2490.33
422.89	2770.90
423.10	2605.02
423.30	2623.45
423.51	2666.46
423.72	2760.66
423.92	2895.83
424.13	2469.85
424.33	2676.70
424.54	2797.53
424.75	2744.28
424.95	2797.53
425.16	2686.94
425.36	2600.92
425.57	2850.77
425.78	2695.13
425.98	2760.66
426.19	2748.37
426.39	2586.58
426.60	2697.17
426.81	2777.05
427.01	2818.00
427.22	2619.35
427.42	2539.48
427.63	2607.06
427.83	2879.44
428.04	3045.33
428.25	2762.71
428.45	2785.24
428.66	2848.72
428.86	2662.36
429.07	2643.93
429.28	2684.89
429.48	2715.61
429.69	2625.50
429.89	2744.28
430.10	2537.43
430.30	2750.42
430.51	2942.93
430.71	2621.40
430.92	2713.56
431.13	2641.88
431.33	2813.91
431.54	2676.70
431.74	2844.63
431.95	3110.86
432.15	2574.30
432.36	2596.82
432.56	2738.13
432.77	3037.14
432.98	3004.37
433.18	2736.09
433.39	2648.02
433.59	2648.02
433.80	2994.13
434.00	2863.06
434.21	2637.78
434.41	2621.40
434.62	3106.77
434.82	2613.21
435.03	2537.43
435.23	2734.04
435.44	2389.98
435.64	2639.83
435.85	2717.65
436.06	2801.62
436.26	2858.96
436.47	2600.92
436.67	2547.67
436.88	2629.59
437.08	2918.36
437.29	2789.33
437.49	2768.85
437.70	2861.01
437.90	2772.95
438.11	2840.53
438.31	2691.03
438.52	2922.45
438.72	2906.07
438.93	3004.37
439.13	2723.80
439.34	2881.49
439.54	2707.41
439.75	2752.47
439.95	2781.14
440.16	2580.44
440.36	2742.23
440.57	2658.26
440.77	2668.50
440.98	2764.76
441.18	2748.37
441.39	2605.02
441.59	2498.52
441.80	2998.23
442.00	2719.70
442.21	2834.39
442.41	2529.24
442.62	2940.88
442.82	2590.68
443.02	2605.02
443.23	2666.46
443.43	2648.02
443.64	2901.97
443.84	2523.10
444.05	2736.09
444.25	2785.24
444.46	2652.12
444.66	2666.46
444.87	2899.92
445.07	2490.33
445.28	2701.27
445.48	2824.15
445.69	2707.41
445.89	3080.14
446.09	2695.13
446.30	2916.31
446.50	3188.69
446.71	4462.52
446.91	5607.34
447.12	6422.43
447.32	6829.98
447.53	6487.96
447.73	5396.40
447.93	4757.43
448.14	4489.15
448.34	4530.11
448.55	3932.10
448.75	3819.46
448.96	3669.96
449.16	3411.92
449.36	3303.37
449.57	2949.08
449.77	2805.72
449.98	2686.94
450.18	2836.44
450.39	2623.45
450.59	2686.94
450.79	2760.66
451.00	2629.59
451.20	2729.94
451.41	2670.55
451.61	2766.81
451.81	2717.65
452.02	2598.87
452.22	2635.74
452.43	2623.45
452.63	2580.44
452.84	2648.02
453.04	2695.13
453.24	2752.47
453.45	2598.87
453.65	2686.94
453.86	2701.27
454.06	2772.95
454.26	2795.48
454.47	2572.25
454.67	2762.71
454.87	2834.39
455.08	2668.50
455.28	2834.39
455.49	2748.37
455.69	2613.21
455.89	3016.66
456.10	2803.67
456.30	2531.29
456.51	2834.39
456.71	2811.86
456.91	2674.65
457.12	2707.41
457.32	2797.53
457.52	2635.74
457.73	2725.85
457.93	2744.28
458.14	2699.22
458.34	2473.95
458.54	2691.03
458.75	2592.73
458.95	2936.79
459.15	2740.18
459.36	2676.70
459.56	2748.37
459.76	3033.04
459.97	2779.09
460.17	2572.25
460.37	2719.70
460.58	2729.94
460.78	2791.38
460.99	2645.98
461.19	2674.65
461.39	2703.32
461.60	2672.60
461.80	2734.04
462.00	2516.95
462.21	2748.37
462.41	2652.12
462.61	2586.58
462.82	2453.47
463.02	2830.29
463.22	2672.60
463.43	2781.14
463.63	2670.55
463.83	2891.73
464.04	2766.81
464.24	2688.98
464.44	2535.39
464.64	2772.95
464.85	2850.77
465.05	2727.89
465.25	2736.09
465.46	2656.22
465.66	2807.77
465.86	2756.57
466.07	2688.98
466.27	2727.89
466.47	2566.10
466.68	2527.19
466.88	2760.66
467.08	2846.68
467.29	2820.05
467.49	2721.75
467.69	2637.78
467.89	2863.06
468.10	2693.08
468.30	2711.51
468.50	2813.91
468.71	2852.82
468.91	2611.16
469.11	2799.57
469.31	2660.31
469.52	2674.65
469.72	3006.42
469.92	2916.31
470.13	2695.13
470.33	2734.04
470.53	2781.14
470.73	2985.94
470.94	3311.57
471.14	3448.78
471.34	3870.66
471.54	3616.71
471.75	3356.62
471.95	3102.67
472.15	3057.62
472.36	3200.98
472.56	2983.89
472.76	3117.01
472.96	3010.51
473.17	2916.31
473.37	2856.92
473.57	2754.52
473.77	2832.34
473.98	2705.37
474.18	2615.26
474.38	3137.49
474.58	2674.65
474.79	2648.02
474.99	2742.23
475.19	2826.20
475.39	2576.34
475.60	2645.98
475.80	2650.07
476.00	2703.32
476.20	2668.50
476.41	2672.60
476.61	2656.22
476.81	2889.68
477.01	2629.59
477.21	2824.15
477.42	2863.06
477.62	2559.96
477.82	2805.72
478.02	2594.78
478.23	2750.42
478.43	2578.39
478.63	2748.37
478.83	2627.54
479.03	2680.79
479.24	2973.65
479.44	3014.61
479.64	2555.86
479.84	2510.81
480.04	2641.88
480.25	2846.68
480.45	2590.68
480.65	2645.98
480.85	2922.45
481.06	2625.50
481.26	2701.27
481.46	2682.84
481.66	2834.39
481.86	2670.55
482.06	2766.81
482.27	2731.99
482.47	2629.59
482.67	2838.48
482.87	2639.83
483.07	2658.26
483.28	2650.07
483.48	2498.52
483.68	2652.12
483.88	2631.64
484.08	2426.84
484.29	2506.71
484.49	2688.98
484.69	2525.15
484.89	2985.94
485.09	2838.48
485.29	2691.03
485.50	2729.94
485.70	2727.89
485.90	2994.13
486.10	2758.61
486.30	2744.28
486.50	2811.86
486.71	2795.48
486.91	2785.24
487.11	2803.67
487.31	2500.57
487.51	2801.62
487.71	2570.20
487.91	2506.71
488.12	2639.83
488.32	2443.23
488.52	2609.11
488.72	2394.08
488.92	2719.70
489.12	2881.49
489.32	2760.66
489.53	2699.22
489.73	2559.96
489.93	2967.51
490.13	2547.67
490.33	2504.67
490.53	2725.85
490.73	2846.68
490.94	2424.80
491.14	2740.18
491.34	2891.73
491.54	2793.43
491.74	3495.88
491.94	4140.99
492.14	4431.80
492.34	4526.01
492.54	4145.09
492.75	3631.05
492.95	3657.67
493.15	3450.83
493.35	3297.23
493.55	3180.50
493.75	3119.06
493.95	3200.98
494.15	2936.79
494.35	2713.56
494.56	2695.13
494.76	2664.41
494.96	2734.04
495.16	2607.06
495.36	2766.81
495.56	2721.75
495.76	2719.70
495.96	2633.69
496.16	2562.01
496.36	3051.47
496.56	2734.04
496.77	2699.22
496.97	2705.37
497.17	2936.79
497.37	2512.86
497.57	2744.28
497.77	2744.28
497.97	2621.40
498.17	2674.65
498.37	2650.07
498.57	2867.16
498.77	2607.06
498.97	2785.24
499.17	2959.31
499.38	2775.00
499.58	2781.14
499.78	2807.77
499.98	2824.15
500.18	2668.50
500.38	2674.65
500.58	2836.44
500.78	3280.85
500.98	5242.80
501.18	7348.11
501.38	8869.75
501.58	9621.36
501.78	9504.62
501.98	7993.22
502.18	6571.93
502.38	5699.50
502.58	5423.02
502.78	4845.49
502.98	4564.92
503.18	4493.24
503.38	4032.45
503.59	3510.22
503.79	3497.93
503.99	3295.18
504.19	3096.53
504.39	3170.26
504.59	3082.19
504.79	3084.24
504.99	3219.41
505.19	2914.26
505.39	2797.53
505.59	3037.14
505.79	3059.67
505.99	2981.84
506.19	2768.85
506.39	2875.35
506.59	2709.46
506.79	2637.78
506.99	2760.66
507.19	2639.83
507.39	2779.09
507.59	2605.02
507.79	2541.53
507.99	2566.10
508.19	2709.46
508.39	2650.07
508.59	2592.73
508.79	2777.05
508.99	3022.80
509.19	2621.40
509.39	2684.89
509.59	2568.15
509.79	2607.06
509.99	2738.13
510.19	2820.05
510.39	2772.95
510.59	2709.46
510.79	2693.08
510.99	2519.00
511.19	2740.18
511.39	3039.19
511.59	2865.11
511.79	2811.86
511.99	2615.26
512.19	3047.38
512.38	2772.95
512.58	2596.82
512.78	2629.59
512.98	2920.40
513.18	2834.39
513.38	2521.05
513.58	2779.09
513.78	2674.65
513.98	2758.61
514.18	2580.44
514.38	2660.31
514.58	2756.57
514.78	2570.20
514.98	2557.91
515.18	2709.46
515.38	2590.68
515.58	2936.79
515.78	2629.59
515.98	2674.65
516.18	2758.61
516.38	2815.96
516.57	2623.45
516.77	2592.73
516.97	2834.39
517.17	2586.58
517.37	2439.13
517.57	2605.02
517.77	2682.84
517.97	2668.50
518.17	2703.32
518.37	2594.78
518.57	2662.36
518.77	2709.46
518.97	2674.65
519.16	2670.55
519.36	2944.98
519.56	2648.02
519.76	2607.06
519.96	2633.69
520.16	2994.13
520.36	2625.50
520.56	2887.64
520.76	2625.50
520.96	2643.93
521.16	2856.92
521.35	2838.48
521.55	2754.52
521.75	2750.42
521.95	2662.36
522.15	2568.15
522.35	2500.57
522.55	2619.35
522.75	2809.81
522.95	2496.47
523.14	2588.63
523.34	2740.18
523.54	2688.98
523.74	2711.51
523.94	2678.74
524.14	2482.14
524.34	2770.90
524.54	2828.24
524.73	2695.13
524.93	2869.20
525.13	2742.23
525.33	2471.90
525.53	2983.89
525.73	2795.48
525.93	2697.17
526.13	2611.16
526.32	2639.83
526.52	2889.68
526.72	2789.33
526.92	2756.57
527.12	2658.26
527.32	2529.24
527.52	2861.01
527.71	2731.99
527.91	2619.35
528.11	2619.35
528.31	2711.51
528.51	2645.98
528.71	2783.19
528.90	2801.62
529.10	2852.82
529.30	2703.32
529.50	2445.27
529.70	2725.85
529.90	2609.11
530.09	2613.21
530.29	2537.43
530.49	2596.82
530.69	3084.24
530.89	2764.76
531.09	2742.23
531.28	2656.22
531.48	2826.20
531.68	2684.89
531.88	2662.36
532.08	2756.57
532.28	2701.27
532.47	2697.17
532.67	2791.38
532.87	2699.22
533.07	2605.02
533.27	2750.42
533.46	2676.70
533.66	2684.89
533.86	2682.84
534.06	2697.17
534.26	2656.22
534.45	2703.32
534.65	2828.24
534.85	2676.70
535.05	2613.21
535.25	2885.59
535.44	2473.95
535.64	2734.04
535.84	2619.35
536.04	2701.27
536.24	2555.86
536.43	2619.35
536.63	2637.78
536.83	2703.32
537.03	2662.36
537.22	2547.67
537.42	2408.41
537.62	2781.14
537.82	2539.48
538.02	2840.53
538.21	2760.66
538.41	3127.25
538.61	2775.00
538.81	2605.02
539.00	2807.77
539.20	2514.91
539.40	2668.50
539.60	2725.85
539.79	2826.20
539.99	2615.26
540.19	2588.63
540.39	2627.54
540.58	2742.23
540.78	2871.25
540.98	2723.80
541.18	2766.81
541.37	2699.22
541.57	2750.42
541.77	2768.85
541.97	2519.00
542.16	2564.06
542.36	2695.13
542.56	2586.58
542.76	2893.78
542.95	2748.37
543.15	2764.76
543.35	2787.29
543.54	2555.86
543.74	2566.10
543.94	2922.45
544.14	2707.41
544.33	2727.89
544.53	2588.63
544.73	2637.78
544.93	2691.03
545.12	2643.93
545.32	2736.09
545.52	2635.74
545.71	2607.06
545.91	2623.45
546.11	2658.26
546.30	2594.78
546.50	2711.51
546.70	2772.95
546.90	2648.02
547.09	2449.37
547.29	2717.65
547.49	2822.10
547.68	2641.88
547.88	2662.36
548.08	2809.81
548.27	3051.47
548.47	2643.93
548.67	2715.61
548.87	2793.43
549.06	2668.50
549.26	2662.36
549.46	2818.00
549.65	2637.78
549.85	2695.13
550.05	2713.56
550.24	2600.92
550.44	2719.70
550.64	2691.03
550.83	2633.69
551.03	2891.73
551.23	2844.63
551.42	2701.27
551.62	2613.21
551.82	2682.84
552.01	2645.98
552.21	2863.06
552.41	2662.36
552.60	2928.60
552.80	2744.28
553.00	2580.44
553.19	2615.26
553.39	2944.98
553.59	2584.54
553.78	2727.89
553.98	2703.32
554.17	2549.72
554.37	2740.18
554.57	2748.37
554.76	2510.81
554.96	2615.26
555.16	2736.09
555.35	2703.32
555.55	2686.94
555.75	2783.19
555.94	2854.87
556.14	2514.91
556.33	2637.78
556.53	2742.23
556.73	2715.61
556.92	2799.57
557.12	2707.41
557.32	3053.52
557.51	2908.12
557.71	2760.66
557.90	2799.57
558.10	2912.21
558.30	2740.18
558.49	2605.02
558.69	2600.92
558.88	2801.62
559.08	2760.66
559.28	2607.06
559.47	2633.69
559.67	2834.39
559.86	3067.86
560.06	2613.21
560.26	2592.73
560.45	2811.86
560.65	2699.22
560.84	2926.55
561.04	2568.15
561.24	2760.66
561.43	2650.07
561.63	2930.64
561.82	2707.41
562.02	2822.10
562.22	2564.06
562.41	2611.16
562.61	2551.77
562.80	2594.78
563.00	3176.40
563.19	2660.31
563.39	2777.05
563.59	2840.53
563.78	2502.62
563.98	2439.13
564.17	2594.78
564.37	2506.71
564.56	2697.17
564.76	2543.58
564.96	2793.43
565.15	2791.38
565.35	3039.19
565.54	2660.31
565.74	2676.70
565.93	2717.65
566.13	2703.32
566.32	2713.56
566.52	2752.47
566.71	2707.41
566.91	2858.96
567.11	2713.56
567.30	2543.58
567.50	2783.19
567.69	2734.04
567.89	2654.17
568.08	2521.05
568.28	2758.61
568.47	2617.30
568.67	2668.50
568.86	2666.46
569.06	2785.24
569.25	2682.84
569.45	2482.14
569.64	2666.46
569.84	2709.46
570.04	2801.62
570.23	2637.78
570.43	2672.60
570.62	2824.15
570.82	2895.83
571.01	2574.30
571.21	2668.50
571.40	2564.06
571.60	2881.49
571.79	2789.33
571.99	2717.65
572.18	2600.92
572.38	2680.79
572.57	2711.51
572.77	2686.94
572.96	3188.69
573.16	2770.90
573.35	2662.36
573.55	2785.24
573.74	2834.39
573.94	2664.41
574.13	2625.50
574.33	2801.62
574.52	2883.54
574.71	2781.14
574.91	2709.46
575.10	2609.11
575.30	2650.07
575.49	2502.62
575.69	2557.91
575.88	2662.36
576.08	2709.46
576.27	2834.39
576.47	2693.08
576.66	2846.68
576.86	2957.27
577.05	2838.48
577.25	2750.42
577.44	2891.73
577.64	2641.88
577.83	2895.83
578.02	2699.22
578.22	2850.77
578.41	3010.51
578.61	2768.85
578.80	2482.14
579.00	2742.23
579.19	2731.99
579.39	2787.29
579.58	2842.58
579.77	2695.13
579.97	2928.60
580.16	2916.31
580.36	2775.00
580.55	2824.15
580.75	2828.24
580.94	2789.33
581.13	2752.47
581.33	2938.84
581.52	2770.90
581.72	3037.14
581.91	2826.20
582.11	2684.89
582.30	2844.63
582.49	2779.09
582.69	2942.93
582.88	2727.89
583.08	2756.57
583.27	2959.31
583.47	2793.43
583.66	2672.60
583.85	2617.30
584.05	2768.85
584.24	2809.81
584.44	2797.53
584.63	2799.57
584.82	2936.79
585.02	2858.96
585.21	2785.24
585.41	2904.02
585.60	2824.15
585.79	2973.65
585.99	3041.23
586.18	2838.48
586.37	3637.19
586.57	5396.40
586.76	16140.04
586.96	35186.15
587.15	48829.72
587.34	57502.87
587.54	61473.88
587.73	55469.23
587.93	39269.80
588.12	29646.40
588.31	24045.20
588.51	21536.44
588.70	19504.85
588.89	17438.45
589.09	14925.60
589.28	12652.35
589.47	9858.92
589.67	7710.60
589.86	6156.19
590.06	4638.65
590.25	4014.02
590.44	3428.30
590.64	3049.43
590.83	2938.84
591.02	2947.03
591.22	2768.85
591.41	2754.52
591.60	2740.18
591.80	3131.34
591.99	2564.06
592.18	2686.94
592.38	2940.88
592.57	2619.35
592.76	2754.52
592.96	2721.75
593.15	2746.33
593.34	2932.69
593.54	2676.70
593.73	2818.00
593.92	2856.92
594.12	2863.06
594.31	2793.43
594.50	2762.71
594.70	2768.85
594.89	3186.64
595.08	2600.92
595.28	2777.05
595.47	3100.62
595.66	2918.36
595.86	2623.45
596.05	2637.78
596.24	2691.03
596.43	3028.95
596.63	2789.33
596.82	2850.77
597.01	2828.24
597.21	2949.08
597.40	2715.61
597.59	2678.74
597.79	2711.51
597.98	2848.72
598.17	2709.46
598.36	2645.98
598.56	2809.81
598.75	2611.16
598.94	2695.13
599.14	2678.74
599.33	2742.23
599.52	2881.49
599.71	2688.98
599.91	2717.65
600.10	2955.22
600.29	2818.00
600.48	2770.90
600.68	2766.81
600.87	2861.01
601.06	2656.22
601.26	2703.32
601.45	2764.76
601.64	2725.85
601.83	2908.12
602.03	2670.55
602.22	2617.30
602.41	2869.20
602.60	3098.58
602.80	2703.32
602.99	2736.09
603.18	2703.32
603.37	2807.77
603.57	2686.94
603.76	2750.42
603.95	2957.27
604.14	2688.98
604.34	2611.16
604.53	2650.07
604.72	2746.33
604.91	2832.34
605.10	2631.64
605.30	2516.95
605.49	3092.43
605.68	2838.48
605.87	2715.61
606.07	2643.93
606.26	2809.81
606.45	2861.01
606.64	2750.42
606.84	2594.78
607.03	2750.42
607.22	2822.10
607.41	2688.98
607.60	2637.78
607.80	2936.79
607.99	2717.65
608.18	2746.33
608.37	2621.40
608.56	2711.51
608.76	2916.31
608.95	2871.25
609.14	2723.80
609.33	2861.01
609.52	2863.06
609.72	2828.24
609.91	2869.20
610.10	2731.99
610.29	3012.56
610.48	2820.05
610.68	2768.85
610.87	2650.07
611.06	2842.58
611.25	2701.27
611.44	2779.09
611.63	2709.46
611.83	2899.92
612.02	2535.39
612.21	2813.91
612.40	2496.47
612.59	2512.86
612.79	2562.01
612.98	2676.70
613.17	2961.36
613.36	2764.76
613.55	2848.72
613.74	2590.68
613.93	2752.47
614.13	2863.06
614.32	2807.77
614.51	2801.62
614.70	2772.95
614.89	2686.94
615.08	2725.85
615.28	3117.01
615.47	2523.10
615.66	2746.33
615.85	2678.74
616.04	2766.81
616.23	2727.89
616.42	2676.70
616.62	2723.80
616.81	2674.65
617.00	2750.42
617.19	2822.10
617.38	2676.70
617.57	2756.57
617.76	2850.77
617.95	2785.24
618.15	2719.70
618.34	2887.64
618.53	2564.06
618.72	2854.87
618.91	2834.39
619.10	2721.75
619.29	2637.78
619.48	2705.37
619.68	2629.59
619.87	2709.46
620.06	2562.01
620.25	2775.00
620.44	2621.40
620.63	2660.31
620.82	2729.94
621.01	2791.38
621.20	2691.03
621.39	2748.37
621.59	2764.76
621.78	2764.76
621.97	2660.31
622.16	2752.47
622.35	2762.71
622.54	2840.53
622.73	2770.90
622.92	2439.13
623.11	2813.91
623.30	2656.22
623.49	2668.50
623.68	2502.62
623.88	2949.08
624.07	2658.26
624.26	2621.40
624.45	2660.31
624.64	2627.54
624.83	2721.75
625.02	2596.82
625.21	2643.93
625.40	2629.59
625.59	2953.17
625.78	2783.19
625.97	2807.77
626.16	2930.64
626.35	2787.29
626.54	2656.22
626.74	2908.12
626.93	2686.94
627.12	2707.41
627.31	2758.61
627.50	2668.50
627.69	2826.20
627.88	2670.55
628.07	2580.44
628.26	2467.80
628.45	2598.87
628.64	2549.72
628.83	2719.70
629.02	2523.10
629.21	2742.23
629.40	2789.33
629.59	2676.70
629.78	2588.63
629.97	2674.65
630.16	2793.43
630.35	2570.20
630.54	2727.89
630.73	2605.02
630.92	2725.85
631.11	2619.35
631.30	2705.37
631.49	2865.11
631.68	2709.46
631.87	2699.22
632.06	2621.40
632.25	3125.20
632.44	2787.29
632.63	2686.94
632.82	2684.89
633.01	2713.56
633.20	2740.18
633.39	2746.33
633.58	2533.34
633.77	2772.95
633.96	2828.24
634.15	2717.65
634.34	2752.47
634.53	2744.28
634.72	2678.74
634.91	2521.05
635.10	2680.79
635.29	2842.58
635.48	2734.04
635.67	2553.82
635.86	2473.95
636.05	2938.84
636.24	2635.74
636.43	2682.84
636.62	2721.75
636.81	2387.93
637.00	2695.13
637.19	2662.36
637.38	2664.41
637.57	2787.29
637.76	2717.65
637.95	2799.57
638.14	2654.17
638.33	2779.09
638.52	2615.26
638.71	2670.55
638.89	2553.82
639.08	3112.91
639.27	2895.83
639.46	2861.01
639.65	3164.11
639.84	3184.59
640.03	3252.17
640.22	3110.86
640.41	3137.49
640.60	2934.74
640.79	3008.47
640.98	2777.05
641.17	2906.07
641.36	2828.24
641.55	2906.07
641.74	2611.16
641.92	2598.87
642.11	2670.55
642.30	2688.98
642.49	2543.58
642.68	2656.22
642.87	2766.81
643.06	2758.61
643.25	2557.91
643.44	2545.63
643.63	2713.56
643.82	2750.42
644.00	2510.81
644.19	2660.31
644.38	2656.22
644.57	2861.01
644.76	2672.60
644.95	2670.55
645.14	2842.58
645.33	2643.93
645.52	2736.09
645.71	2586.58
645.89	2660.31
646.08	2750.42
646.27	2670.55
646.46	2809.81
646.65	2588.63
646.84	2723.80
647.03	2527.19
647.22	2760.66
647.40	2783.19
647.59	2766.81
647.78	2428.89
647.97	2582.49
648.16	2617.30
648.35	2883.54
648.54	2801.62
648.73	2674.65
648.91	2832.34
649.10	2695.13
649.29	2605.02
649.48	2574.30
649.67	2744.28
649.86	2789.33
650.05	2693.08
650.23	2846.68
650.42	2666.46
650.61	2934.74
650.80	2885.59
650.99	2938.84
651.18	2926.55
651.36	2912.21
651.55	2594.78
651.74	2869.20
651.93	2746.33
652.12	2731.99
652.31	2662.36
652.49	2678.74
652.68	2693.08
652.87	2973.65
653.06	2715.61
653.25	2871.25
653.44	2783.19
653.62	2944.98
653.81	2666.46
654.00	2693.08
654.19	2875.35
654.38	3098.58
654.56	2678.74
654.75	2605.02
654.94	2797.53
655.13	2713.56
655.32	2678.74
655.51	2729.94
655.69	2676.70
655.88	2830.29
656.07	2465.75
656.26	2727.89
656.45	2621.40
656.63	2686.94
656.82	2615.26
657.01	2836.44
657.20	2602.97
657.38	2996.18
657.57	2582.49
657.76	2496.47
657.95	2826.20
658.14	2656.22
658.32	2756.57
658.51	2580.44
658.70	2703.32
658.89	2715.61
659.08	2662.36
659.26	2944.98
659.45	2535.39
659.64	2863.06
659.83	2543.58
660.01	3018.71
660.20	2764.76
660.39	2967.51
660.58	2443.23
660.76	2668.50
660.95	2580.44
661.14	2707.41
661.33	2539.48
661.51	2588.63
661.70	2582.49
661.89	2734.04
662.08	2693.08
662.26	2510.81
662.45	2582.49
662.64	2983.89
662.83	2701.27
663.01	2502.62
663.20	2664.41
663.39	2918.36
663.58	2711.51
663.76	2562.01
663.95	2840.53
664.14	2537.43
664.32	2684.89
664.51	2551.77
664.70	2512.86
664.89	2818.00
665.07	2531.29
665.26	2858.96
665.45	2523.10
665.64	2762.71
665.82	2660.31
666.01	2764.76
666.20	2590.68
666.38	2863.06
666.57	2895.83
666.76	4317.12
666.95	10166.12
667.13	16899.84
667.32	21350.07
667.51	24075.92
667.69	25265.79
667.88	21923.51
668.07	15337.24
668.25	13184.82
668.44	11034.46
668.63	9709.42
668.81	8648.57
669.00	7538.57
669.19	6588.32
669.38	5838.76
669.56	4958.13
669.75	4247.49
669.94	3715.02
670.12	3211.22
670.31	3006.42
670.50	2994.13
670.68	2889.68
670.87	2826.20
671.06	2680.79
671.24	2695.13
671.43	2992.08
671.62	2785.24
671.80	2637.78
671.99	2693.08
672.18	2789.33
672.36	2787.29
672.55	2666.46
672.74	2613.21
672.92	2670.55
673.11	2822.10
673.29	2564.06
673.48	2738.13
673.67	2701.27
673.85	2901.97
674.04	2523.10
674.23	2682.84
674.41	2990.03
674.60	2576.34
674.79	2496.47
674.97	2508.76
675.16	2856.92
675.34	2867.16
675.53	2594.78
675.72	2715.61
675.90	2938.84
676.09	2701.27
676.28	2752.47
676.46	2506.71
676.65	2846.68
676.83	2631.64
677.02	2725.85
677.21	2678.74
677.39	2787.29
677.58	2588.63
677.77	2607.06
677.95	2588.63
678.14	2682.84
678.32	2715.61
678.51	2605.02
678.70	2885.59
678.88	2711.51
679.07	2752.47
679.25	2695.13
679.44	2584.54
679.63	2521.05
679.81	2656.22
680.00	2852.82
680.18	2738.13
680.37	2916.31
680.55	2752.47
680.74	2519.00
680.93	2455.51
681.11	2805.72
681.30	2684.89
681.48	2725.85
681.67	2594.78
681.85	2676.70
682.04	2564.06
682.23	2789.33
682.41	2758.61
682.60	2617.30
682.78	2699.22
682.97	2564.06
683.15	2664.41
683.34	2736.09
683.53	2889.68
683.71	2473.95
683.90	2793.43
684.08	2981.84
684.27	2629.59
684.45	2688.98
684.64	2842.58
684.82	2783.19
685.01	2791.38
685.19	2594.78
685.38	2807.77
685.57	2785.24
685.75	2615.26
685.94	2672.60
686.12	2566.10
686.31	2686.94
686.49	2944.98
686.68	2527.19
686.86	2674.65
687.05	2670.55
687.23	2899.92
687.42	2676.70
687.60	2447.32
687.79	2869.20
687.97	2916.31
688.16	2834.39
688.34	2828.24
688.53	2486.23
688.71	2793.43
688.90	2965.46
689.08	2680.79
689.27	2519.00
689.45	2824.15
689.64	2824.15
689.82	2793.43
690.01	2793.43
690.19	2815.96
690.38	2652.12
690.56	2838.48
690.75	2639.83
690.93	2686.94
691.12	2576.34
691.30	2734.04
691.49	2596.82
691.67	2736.09
691.86	2916.31
692.04	2607.06
692.23	2656.22
692.41	2711.51
692.60	2920.40
692.78	2824.15
692.97	2715.61
693.15	2877.40
693.34	2865.11
693.52	2777.05
693.71	2686.94
693.89	2627.54
694.08	2449.37
694.26	2709.46
694.44	2822.10
694.63	2801.62
694.81	2547.67
695.00	2688.98
695.18	2805.72
695.37	3055.57
695.55	2688.98
695.74	2736.09
695.92	2662.36
696.10	2871.25
696.29	2516.95
696.47	2676.70
696.66	2572.25
696.84	2629.59
697.03	2611.16
697.21	2895.83
697.40	4079.55
697.58	2983.89
697.76	2555.86
697.95	2566.10
698.13	2508.76
698.32	2648.02
698.50	2686.94
698.68	2750.42
698.87	2754.52
699.05	2885.59
699.24	2676.70
699.42	2539.48
699.61	2734.04
699.79	2672.60
699.97	2652.12
700.16	2484.19
700.34	2539.48
700.53	2801.62
700.71	2910.16
700.89	2844.63
701.08	2701.27
701.26	2764.76
701.45	3114.96
701.63	2568.15
701.81	2645.98
702.00	2617.30
702.18	2656.22
702.37	2672.60
702.55	2914.26
702.73	2824.15
702.92	2623.45
703.10	2979.79
703.28	2893.78
703.47	2582.49
703.65	2836.44
703.84	2785.24
704.02	2586.58
704.20	2942.93
704.39	2512.86
704.57	2625.50
704.75	2897.88
704.94	2797.53
705.12	2754.52
705.30	3090.38
705.49	5816.23
705.67	11970.38
705.86	18085.61
706.04	20571.85
706.22	23013.02
706.41	22636.20
706.59	17866.48
706.77	13557.55
706.96	11585.36
707.14	10348.39
707.32	9092.98
707.51	7921.54
707.69	6412.19
707.87	5349.29
708.06	4460.48
708.24	3852.23
708.42	3323.85
708.61	3450.83
708.79	2691.03
708.97	2785.24
709.16	2785.24
709.34	2785.24
709.52	2660.31
709.71	2744.28
709.89	2861.01
710.07	2621.40
710.26	2547.67
710.44	2748.37
710.62	2838.48
710.80	2781.14
710.99	2748.37
711.17	2770.90
711.35	2621.40
711.54	2686.94
711.72	2809.81
711.90	2781.14
712.09	2793.43
712.27	2678.74
712.45	2717.65
712.63	2641.88
712.82	2715.61
713.00	2684.89
713.18	2752.47
713.37	2758.61
713.55	2856.92
713.73	2824.15
713.91	2799.57
714.10	2564.06
714.28	2758.61
714.46	2738.13
714.65	2688.98
714.83	2672.60
715.01	2719.70
715.19	2721.75
715.38	2631.64
715.56	2744.28
715.74	2637.78
715.92	2654.17
716.11	2959.31
716.29	2410.46
716.47	2658.26
716.65	2768.85
716.84	2465.75
717.02	2727.89
717.20	2498.52
717.38	2580.44
717.57	2754.52
717.75	2727.89
717.93	2684.89
718.11	2846.68
718.30	2564.06
718.48	2699.22
718.66	2887.64
718.84	2899.92
719.03	2781.14
719.21	2535.39
719.39	3002.32
719.57	2781.14
719.75	2809.81
719.94	2531.29
720.12	2744.28
720.30	2772.95
720.48	2748.37
720.67	2574.30
720.85	2531.29
721.03	2686.94
721.21	2545.63
721.39	2682.84
721.58	2791.38
721.76	2715.61
721.94	2656.22
722.12	2699.22
722.30	2963.41
722.49	2701.27
722.67	2748.37
722.85	2709.46
723.03	2572.25
723.21	2621.40
723.40	2709.46
723.58	2854.87
723.76	2813.91
723.94	2910.16
724.12	2660.31
724.30	2873.30
724.49	2895.83
724.67	2586.58
724.85	2785.24
725.03	2527.19
725.21	2781.14
725.40	2863.06
725.58	2648.02
725.76	2775.00
725.94	2867.16
726.12	2557.91
726.30	2736.09
726.49	2668.50
726.67	2660.31
726.85	2748.37
727.03	3074.00
727.21	4110.27
727.39	5300.14
727.57	5736.36
727.76	6107.04
727.94	6305.70
728.12	5562.28
728.30	4630.46
728.48	4417.47
728.66	4026.31
728.84	3725.26
729.03	3399.63
729.21	3153.87
729.39	2967.51
729.57	2785.24
729.75	2869.20
729.93	2785.24
730.11	2656.22
730.30	2654.17
730.48	2654.17
730.66	2752.47
730.84	2779.09
731.02	2850.77
731.20	2666.46
731.38	2713.56
731.56	2478.04
731.74	2586.58
731.93	2660.31
732.11	2672.60
732.29	2602.97
732.47	2758.61
732.65	2838.48
732.83	2871.25
733.01	2760.66
733.19	2676.70
733.37	2834.39
733.56	2725.85
733.74	2600.92
733.92	2854.87
734.10	2709.46
734.28	2801.62
734.46	2516.95
734.64	2736.09
734.82	2688.98
735.00	2688.98
735.18	2648.02
735.36	2754.52
735.54	2727.89
735.73	2688.98
735.91	2764.76
736.09	2910.16
736.27	2762.71
736.45	2707.41
736.63	2490.33
736.81	2676.70
736.99	2834.39
737.17	2873.30
737.35	2592.73
737.53	2760.66
737.71	2625.50
737.89	2813.91
738.07	2686.94
738.25	2654.17
738.43	2496.47
738.61	2662.36
738.80	2572.25
738.98	2611.16
739.16	2676.70
739.34	2580.44
739.52	2949.08
739.70	2701.27
739.88	2885.59
740.06	2768.85
740.24	2465.75
740.42	2901.97
740.60	2445.27
740.78	2701.27
740.96	2432.99
741.14	2682.84
741.32	2779.09
741.50	2498.52
741.68	2975.70
741.86	2871.25
742.04	2596.82
742.22	2533.34
742.40	2621.40
742.58	2754.52
742.76	2543.58
742.94	2772.95
743.12	2545.63
743.30	2697.17
743.48	2709.46
743.66	2529.24
743.84	2752.47
744.02	2719.70
744.20	2746.33
744.38	2527.19
744.56	2559.96
744.74	2967.51
744.92	2775.00
745.10	2904.02
745.28	2742.23
745.46	2932.69
745.64	2691.03
745.82	2805.72
746.00	2553.82
746.18	2758.61
746.36	2650.07
746.54	2666.46
746.72	2736.09
746.90	2570.20
747.08	2930.64
747.26	2627.54
747.44	2795.48
747.62	2807.77
747.80	2736.09
747.98	2719.70
748.15	2619.35
748.33	2994.13
748.51	2707.41
748.69	2783.19
748.87	2562.01
749.05	2602.97
749.23	2629.59
749.41	2676.70
749.59	2605.02
749.77	2885.59
749.95	2648.02
750.13	2645.98
750.31	2744.28
750.49	2701.27
750.67	2803.67
750.85	2815.96
751.03	2662.36
751.20	3041.23
751.38	2721.75
751.56	2639.83
751.74	2633.69
751.92	2619.35
752.10	2564.06
752.28	2783.19
752.46	2652.12
752.64	2705.37
752.82	2668.50
753.00	2775.00
753.18	2590.68
753.35	2701.27
753.53	2641.88
753.71	2533.34
753.89	2789.33
754.07	2758.61
754.25	2830.29
754.43	2785.24
754.61	2492.38
754.79	2848.72
754.97	2592.73
755.14	2832.34
755.32	2494.43
755.50	2715.61
755.68	2721.75
755.86	2588.63
756.04	2660.31
756.22	2500.57
756.40	2865.11
756.57	2883.54
756.75	2611.16
756.93	2863.06
757.11	2899.92
757.29	2566.10
757.47	2568.15
757.65	2486.23
757.82	2488.28
758.00	2637.78
758.18	2615.26
758.36	2627.54
758.54	3002.32
758.72	2533.34
758.90	2838.48
759.07	2783.19
759.25	2600.92
759.43	2727.89
759.61	2480.09
759.79	3962.82
759.97	2889.68
760.15	2656.22
760.32	2645.98
760.50	2815.96
760.68	3026.90
760.86	2533.34
761.04	2893.78
761.22	2805.72
761.39	2781.14
761.57	2656.22
761.75	2588.63
761.93	2893.78
762.11	2766.81
762.28	2711.51
762.46	2537.43
762.64	2883.54
762.82	2523.10
763.00	2674.65
763.18	2832.34
763.35	2533.34
763.53	2826.20
763.71	2691.03
763.89	2627.54
764.07	2748.37
764.24	2645.98
764.42	2807.77
764.60	2643.93
764.78	2809.81
764.96	2840.53
765.13	2758.61
765.31	2576.34
765.49	2828.24
765.67	2557.91
765.84	2545.63
766.02	2531.29
766.20	2568.15
766.38	2691.03
766.56	2707.41
766.73	2717.65
766.91	2707.41
767.09	2781.14
767.27	2711.51
767.44	2656.22
767.62	2836.44
767.80	2658.26
767.98	2553.82
768.15	2631.64
768.33	2834.39
768.51	2856.92
768.69	2725.85
768.87	2723.80
769.04	2705.37
769.22	3092.43
769.40	2883.54
769.58	2824.15
769.75	2756.57
769.93	2895.83
770.11	2645.98
770.28	2473.95
770.46	2863.06
770.64	2777.05
770.82	2686.94
770.99	2545.63
771.17	2787.29
771.35	2670.55
771.53	2613.21
771.70	2605.02
771.88	2768.85
772.06	2750.42
772.23	2715.61
772.41	2713.56
772.59	2635.74
772.77	2578.39
772.94	2662.36
773.12	2691.03
773.30	2664.41
773.47	2752.47
773.65	2555.86
773.83	2854.87
774.01	2676.70
774.18	2457.56
774.36	2662.36
774.54	2557.91
774.71	2772.95
774.89	2535.39
775.07	2529.24
775.24	2623.45
775.42	2625.50
775.60	2996.18
775.78	2648.02
775.95	2525.15
776.13	2453.47
776.31	2451.42
776.48	2721.75
776.66	2842.58
776.84	2674.65
777.01	2627.54
777.19	2592.73
777.37	2580.44
777.54	2828.24
777.72	3010.51
777.90	2701.27
778.07	2584.54
778.25	3147.73
778.43	2813.91
778.60	2676.70
778.78	2779.09
778.96	2953.17
779.13	2572.25
779.31	2711.51
779.49	2621.40
779.66	2693.08
779.84	2744.28
780.01	2652.12
780.19	2619.35
780.37	2889.68
780.54	2863.06
780.72	2570.20
780.90	2598.87
781.07	2699.22
781.25	2645.98
781.43	2807.77
781.60	2611.16
781.78	2848.72
781.95	2791.38
782.13	2592.73
782.31	2617.30
782.48	2457.56
782.66	2721.75
782.83	2846.68
783.01	2703.32
783.19	2842.58
783.36	2693.08
783.54	2637.78
783.72	2770.90
783.89	2682.84
784.07	2799.57
784.24	2715.61
784.42	2809.81
784.60	2785.24
784.77	2709.46
784.95	2428.89
785.12	2629.59
785.30	2799.57
785.47	2602.97
785.65	2551.77
785.83	2695.13
786.00	2633.69
786.18	2691.03
786.35	2555.86
786.53	2514.91
786.71	2793.43
786.88	2803.67
787.06	2717.65
787.23	2637.78
787.41	2547.67
787.58	2725.85
787.76	2531.29
787.94	2775.00
788.11	2731.99
788.29	2547.67
788.46	2662.36
788.64	2428.89
788.81	2637.78
788.99	2576.34
789.16	2514.91
789.34	2582.49
789.52	2709.46
789.69	2566.10
789.87	2428.89
790.04	2602.97
790.22	2805.72
790.39	3012.56
790.57	2531.29
790.74	2543.58
790.92	2830.29
791.09	2500.57
791.27	2723.80
791.44	2844.63
791.62	2662.36
791.79	2869.20
791.97	2744.28
792.15	2949.08
792.32	2775.00
792.50	2877.40
792.67	2793.43
792.85	2887.64
793.02	2746.33
793.20	2674.65
793.37	2463.71
793.55	2566.10
793.72	2453.47
793.90	2719.70
794.07	2613.21
794.25	2529.24
794.42	2756.57
794.60	2682.84
794.77	2688.98
794.95	2781.14
795.12	2889.68
795.30	2668.50
795.47	2410.46
795.65	3037.14
795.82	2795.48
796.00	2602.97
796.17	2615.26
796.34	2590.68
796.52	2719.70
796.69	2848.72
796.87	2758.61
797.04	2795.48
797.22	2764.76
797.39	2731.99
797.57	2740.18
797.74	2742.23
797.92	2783.19
798.09	2643.93
798.27	2826.20
798.44	2607.06
798.62	2637.78
798.79	2693.08
798.96	2772.95
799.14	2744.28
799.31	3112.91
799.49	2666.46
799.66	2623.45
799.84	2760.66
800.01	2432.99
800.19	2795.48
800.36	2457.56
800.53	2639.83
800.71	2844.63
800.88	3030.99
801.06	2566.10
801.23	2535.39
801.41	2664.41
801.58	2654.17
801.75	2621.40
801.93	2705.37
802.10	2807.77
802.28	2693.08
802.45	2570.20
802.63	2697.17
802.80	2906.07
802.97	2682.84
803.15	2707.41
803.32	2676.70
803.50	2562.01
803.67	2590.68
803.84	2496.47
804.02	2674.65
804.19	2633.69
804.37	2387.93
804.54	2519.00
804.71	2602.97
804.89	2717.65
805.06	2594.78
805.24	2645.98
805.41	2486.23
805.58	2572.25
805.76	3055.57
805.93	2707.41
806.10	2822.10
806.28	2887.64
806.45	2785.24
806.63	2727.89
806.80	2723.80
806.97	2676.70
807.15	2713.56
807.32	2621.40
807.49	2719.70
807.67	2553.82
807.84	2744.28
808.01	2445.27
808.19	2908.12
808.36	3035.09
808.54	2648.02
808.71	2547.67
808.88	2674.65
809.06	2869.20
809.23	2885.59
809.40	2631.64
809.58	2729.94
809.75	2740.18
809.92	2574.30
810.10	2906.07
810.27	2637.78
810.44	2770.90
810.62	2842.58
810.79	2736.09
810.96	2693.08
811.14	2703.32
811.31	2777.05
811.48	2752.47
811.66	2703.32
811.83	2858.96
812.00	2783.19
812.18	2748.37
812.35	2854.87
812.52	2668.50
812.69	2619.35
812.87	2643.93
813.04	2625.50
813.21	2658.26
813.39	2602.97
813.56	2605.02
813.73	2754.52
813.91	2527.19
814.08	2684.89
814.25	2654.17
814.42	2486.23
814.60	2652.12
814.77	2768.85
814.94	2666.46
815.12	2658.26
815.29	2895.83
815.46	2600.92
815.63	2652.12
815.81	2605.02
815.98	2697.17
816.15	2678.74
816.33	2680.79
816.50	2680.79
816.67	2709.46
816.84	2641.88
817.02	2562.01
817.19	2672.60
817.36	2772.95
817.53	2752.47
817.71	2557.91
817.88	2752.47
818.05	2693.08
818.22	2756.57
818.40	2877.40
818.57	2668.50
818.74	2791.38
818.91	2707.41
819.09	2752.47
819.26	2803.67
819.43	2637.78
819.60	2574.30
819.78	2707.41
819.95	2744.28
820.12	2635.74
820.29	2908.12
820.47	2826.20
820.64	2566.10
820.81	2445.27
820.98	2529.24
821.15	2641.88
821.33	2754.52
821.50	2523.10
821.67	2799.57
821.84	2633.69
822.02	2703.32
822.19	2838.48
822.36	2633.69
822.53	2621.40
822.70	2512.86
822.88	2645.98
823.05	2936.79
823.22	2674.65
823.39	2746.33
823.56	2725.85
823.74	2992.08
823.91	2551.77
824.08	2568.15
824.25	2537.43
824.42	2891.73
824.60	2521.05
824.77	2713.56
824.94	2654.17
825.11	2789.33
825.28	2514.91
825.45	2729.94
825.63	2787.29
825.80	2564.06
825.97	2775.00
826.14	2695.13
826.31	2443.23
826.48	2807.77
826.66	2619.35
826.83	2637.78
827.00	2652.12
827.17	2645.98
827.34	2609.11
827.51	2617.30
827.69	2641.88
827.86	2469.85
828.03	2693.08
828.20	2674.65
828.37	2531.29
828.54	2717.65
828.71	2643.93
828.89	2750.42
829.06	2807.77
829.23	2914.26
829.40	2625.50
829.57	2584.54
829.74	2834.39
829.91	2525.15
830.09	2564.06
830.26	2656.22
830.43	2914.26
830.60	2635.74
830.77	2715.61
830.94	2801.62
831.11	2836.44
831.28	2643.93
831.46	2858.96
831.63	2570.20
831.80	2813.91
831.97	2508.76
832.14	2607.06
832.31	2748.37
832.48	2699.22
832.65	2820.05
832.82	2650.07
832.99	2668.50
833.17	2660.31
833.34	2965.46
833.51	2662.36
833.68	2430.94
833.85	2883.54
834.02	2582.49
834.19	2645.98
834.36	2645.98
834.53	2723.80
834.70	2867.16
834.87	2727.89
835.04	2449.37
835.22	2562.01
835.39	2670.55
835.56	2486.23
835.73	2609.11
835.90	2861.01
836.07	2631.64
836.24	2674.65
836.41	2514.91
836.58	2562.01
836.75	2844.63
836.92	2609.11
837.09	2547.67
837.26	2832.34
837.43	2754.52
837.60	2555.86
837.77	2588.63
837.94	2789.33
838.12	2893.78
838.29	2609.11
838.46	2519.00
838.63	2562.01
838.80	2961.36
838.97	2631.64
839.14	2566.10
839.31	2676.70
839.48	2865.11
839.65	2490.33
839.82	2641.88
839.99	2750.42
840.16	2842.58
840.33	2441.18
840.50	2623.45
840.67	2557.91
840.84	2377.69
841.01	2602.97
841.18	2480.09
841.35	2693.08
841.52	2775.00
841.69	2869.20
841.86	2566.10
842.03	2813.91
842.20	2869.20
842.37	2592.73
842.54	2590.68
842.71	2697.17
842.88	2514.91
843.05	2564.06
843.22	2545.63
843.39	2848.72
843.56	2605.02
843.73	2553.82
843.90	2643.93
844.07	2734.04
844.24	2756.57
844.41	2686.94
844.58	2559.96
844.75	2729.94
844.92	2791.38
845.09	2611.16
845.26	2555.86
845.43	2826.20
845.60	2635.74
845.77	2723.80
845.94	2576.34
846.10	2889.68
846.27	2545.63
846.44	2457.56
846.61	2392.03
846.78	2758.61
846.95	2813.91
847.12	2551.77
847.29	2551.77
847.46	2641.88
847.63	2754.52
847.80	2506.71
847.97	2551.77
848.14	3076.05
848.31	2602.97
848.48	2496.47
848.65	2658.26
848.82	2598.87
848.98	3026.90
849.15	2637.78
849.32	2707.41
849.49	2836.44
849.66	2742.23
849.83	2586.58
850.00	2465.75
850.17	2781.14
850.34	2637.78
850.51	2473.95
850.68	2512.86
850.85	3053.52
851.01	2756.57
851.18	2543.58
851.35	2664.41
851.52	2797.53
851.69	2953.17
851.86	2435.03
852.03	2512.86
852.20	2727.89
852.37	2688.98
852.53	2424.80
852.70	2559.96
852.87	2795.48
853.04	2863.06
853.21	2605.02
853.38	2775.00
853.55	2820.05
853.72	2895.83
853.89	2514.91
854.05	2471.90
854.22	2701.27
854.39	2680.79
854.56	2543.58
854.73	2772.95
854.90	2580.44
855.07	2658.26
855.23	2514.91
855.40	2502.62
855.57	2668.50
855.74	2439.13
855.91	2758.61
856.08	2420.70
856.25	2519.00
856.41	2672.60
856.58	2547.67
856.75	2547.67
856.92	2502.62
857.09	2820.05
857.26	2387.93
857.42	2648.02
857.59	2781.14
857.76	2676.70
857.93	2570.20
858.10	2578.39
858.27	2549.72
858.43	2709.46
858.60	2586.58
858.77	2447.32
858.94	2676.70
859.11	2869.20
859.27	2627.54
859.44	2545.63
859.61	2908.12
859.78	2760.66
859.95	2447.32
860.12	2437.08
860.28	3020.75
860.45	2957.27
860.62	2494.43
860.79	2590.68
860.95	2607.06
861.12	2564.06
861.29	2465.75
861.46	2523.10
861.63	2691.03
861.79	2738.13
861.96	2465.75
862.13	2547.67
862.30	2951.12
862.47	2596.82
862.63	2432.99
862.80	2609.11
862.97	2818.00
863.14	2715.61
863.30	2545.63
863.47	2533.34
863.64	3014.61
863.81	2775.00
863.97	2471.90
864.14	2637.78
864.31	2691.03
864.48	2719.70
864.65	2576.34
864.81	2617.30
864.98	2783.19
865.15	2863.06
865.32	2629.59
865.48	2572.25
865.65	3018.71
865.82	2670.55
865.98	2572.25
866.15	2654.17
866.32	2619.35
866.49	2666.46
866.65	2719.70
866.82	2545.63
866.99	2793.43
867.16	2662.36
867.32	2580.44
867.49	2555.86
867.66	2713.56
867.83	2705.37
867.99	2416.60
868.16	2541.53
868.33	2490.33
868.49	2686.94
868.66	2551.77
868.83	2756.57
868.99	2781.14
869.16	2652.12
869.33	2662.36
869.50	2664.41
869.66	2717.65
869.83	2654.17
870.00	2478.04
870.16	2615.26
870.33	2670.55
870.50	2809.81
870.66	2609.11
870.83	2598.87
871.00	2645.98
871.17	2813.91
871.33	2594.78
871.50	2484.19
871.67	2707.41
871.83	2498.52
872.00	2701.27
872.17	2590.68
872.33	3030.99
872.50	2797.53
872.67	2611.16
872.83	2555.86
873.00	2818.00
873.17	2740.18
873.33	2645.98
873.50	2670.55
873.67	2643.93
873.83	2576.34
874.00	2537.43
874.16	2676.70
874.33	2740.18
874.50	2580.44
874.66	2514.91
874.83	2635.74
875.00	2873.30
875.16	2807.77
875.33	2684.89
875.50	2303.96
875.66	2633.69
875.83	2768.85
875.99	2625.50
876.16	2580.44
876.33	2654.17
876.49	2701.27
876.66	2611.16
876.83	2541.53
876.99	2451.42
877.16	2756.57
877.32	2574.30
877.49	2600.92
877.66	2752.47
877.82	2891.73
877.99	2658.26
878.15	2768.85
878.32	2693.08
878.49	2734.04
878.65	2488.28
878.82	2770.90
878.98	2629.59
879.15	2836.44
879.32	2701.27
879.48	2723.80
879.65	2607.06
879.81	2535.39
879.98	2596.82
880.15	2568.15
880.31	2818.00
880.48	2652.12
880.64	2691.03
880.81	2631.64
880.97	3030.99
881.14	2963.41
881.31	2539.48
881.47	2734.04
881.64	2684.89
881.80	2496.47
881.97	2666.46
882.13	2588.63
882.30	2498.52
882.47	2607.06
882.63	2607.06
882.80	2617.30
882.96	2736.09
883.13	2893.78
883.29	2537.43
883.46	2527.19
883.62	3020.75
883.79	2731.99
883.95	2650.07
884.12	2576.34
884.29	2932.69
884.45	2772.95
884.62	2660.31
884.78	2564.06
884.95	3010.51
885.11	2615.26
885.28	2674.65
885.44	2504.67
885.61	2777.05
885.77	2908.12
885.94	2645.98
886.10	2670.55
886.27	2723.80
886.43	2926.55
886.60	2785.24
886.76	2529.24
886.93	2592.73
887.09	2793.43
887.26	2441.18
887.42	2590.68
887.59	2875.35
887.75	3047.38
887.92	2752.47
888.08	2639.83
888.25	3035.09
888.41	2818.00
888.58	2654.17
888.74	2465.75
888.91	2596.82
>>>>>End Processed Spectral Data<<<<<
