SpectraSuite Data File
++++++++++++++++++++++++++++++++++++
Date: Thu May 05 16:20:11 CEST 2016
User: root
Dark Spectrum Present: No
Reference Spectrum Present: No
Number of Sampled Component Spectra: 1
Spectrometers: USB4C02835
Integration Time (usec): 100000 (USB4C02835)
Spectra Averaged: 1 (USB4C02835)
Boxcar Smoothing: 0 (USB4C02835)
Correct for Electrical Dark: No (USB4C02835)
Strobe/Lamp Enabled: No (USB4C02835)
Correct for Detector Non-linearity: No (USB4C02835)
Correct for Stray Light: No (USB4C02835)
Number of Pixels in Processed Spectrum: 3648
>>>>>Begin Processed Spectral Data<<<<<
177.47	1980.39
177.69	1980.39
177.91	1980.39
178.13	2041.82
178.36	2070.50
178.58	2510.81
178.80	2684.89
179.02	2432.99
179.24	2584.54
179.46	2342.88
179.68	2539.48
179.90	2746.33
180.13	2805.72
180.35	2459.61
180.57	2504.67
180.79	2848.72
181.01	2709.46
181.23	2531.29
181.45	2635.74
181.67	2826.20
181.90	2838.48
182.12	2535.39
182.34	2392.03
182.56	2910.16
182.78	2813.91
183.00	2480.09
183.22	2588.63
183.44	2471.90
183.66	3117.01
183.89	2662.36
184.11	2559.96
184.33	2783.19
184.55	2858.96
184.77	2516.95
184.99	2635.74
185.21	2691.03
185.43	3041.23
185.65	2525.15
185.87	2482.14
186.10	3100.62
186.32	3090.38
186.54	2621.40
186.76	2609.11
186.98	2813.91
187.20	2674.65
187.42	2510.81
187.64	2508.76
187.86	2760.66
188.08	2863.06
188.30	2506.71
188.52	2541.53
188.75	2983.89
188.97	2906.07
189.19	2559.96
189.41	2531.29
189.63	2807.77
189.85	2715.61
190.07	2402.27
190.29	2359.26
190.51	2736.09
190.73	2400.22
190.95	2693.08
191.17	2514.91
191.39	2506.71
191.61	2740.18
191.84	2480.09
192.06	2617.30
192.28	2459.61
192.50	3274.70
192.72	2613.21
192.94	2562.01
193.16	2901.97
193.38	2752.47
193.60	2490.33
193.82	2590.68
194.04	2836.44
194.26	2752.47
194.48	2543.58
194.70	2514.91
194.92	2635.74
195.14	2848.72
195.36	2543.58
195.58	2564.06
195.80	2711.51
196.02	2676.70
196.24	2494.43
196.46	2543.58
196.69	2674.65
196.91	3147.73
197.13	2504.67
197.35	2523.10
197.57	2920.40
197.79	2824.15
198.01	2570.20
198.23	2637.78
198.45	2789.33
198.67	2590.68
198.89	2387.93
199.11	2545.63
199.33	2664.41
199.55	2469.85
199.77	2545.63
199.99	2695.13
200.21	2662.36
200.43	2801.62
200.65	2375.64
200.87	2310.11
201.09	2676.70
201.31	2709.46
201.53	2502.62
201.75	2629.59
201.97	2791.38
202.19	2656.22
202.41	2512.86
202.63	2676.70
202.85	2725.85
203.07	2752.47
203.29	2537.43
203.51	2418.65
203.73	2580.44
203.95	3141.58
204.17	2549.72
204.39	2652.12
204.61	2719.70
204.83	2674.65
205.05	2594.78
205.27	2592.73
205.49	2992.08
205.71	2693.08
205.93	2453.47
206.15	2451.42
206.37	2693.08
206.59	2686.94
206.81	2371.55
207.03	2398.17
207.25	2592.73
207.47	2768.85
207.69	2506.71
207.91	2688.98
208.13	2949.08
208.34	2619.35
208.56	2482.14
208.78	2473.95
209.00	2635.74
209.22	2639.83
209.44	2473.95
209.66	2473.95
209.88	2717.65
210.10	2619.35
210.32	2486.23
210.54	2633.69
210.76	2662.36
210.98	2908.12
211.20	2349.02
211.42	2615.26
211.64	2895.83
211.86	2842.58
212.08	2629.59
212.30	2527.19
212.52	2584.54
212.74	2756.57
212.96	2615.26
213.17	2584.54
213.39	2830.29
213.61	2998.23
213.83	2555.86
214.05	2355.16
214.27	2904.02
214.49	2496.47
214.71	2445.27
214.93	2586.58
215.15	2693.08
215.37	2815.96
215.59	2432.99
215.81	2715.61
216.03	2955.22
216.24	2744.28
216.46	2529.24
216.68	2553.82
216.90	2811.86
217.12	2926.55
217.34	2529.24
217.56	2643.93
217.78	2938.84
218.00	2772.95
218.22	2609.11
218.44	2586.58
218.66	2695.13
218.87	3002.32
219.09	2572.25
219.31	2510.81
219.53	2826.20
219.75	2666.46
219.97	2453.47
220.19	2588.63
220.41	2709.46
220.63	2990.03
220.85	2555.86
221.06	2514.91
221.28	2840.53
221.50	2852.82
221.72	2537.43
221.94	2402.27
222.16	2779.09
222.38	2887.64
222.60	2504.67
222.82	2498.52
223.03	2795.48
223.25	2629.59
223.47	2576.34
223.69	2678.74
223.91	2901.97
224.13	2731.99
224.35	2469.85
224.57	2717.65
224.78	2772.95
225.00	2584.54
225.22	2570.20
225.44	2490.33
225.66	2783.19
225.88	2676.70
226.10	2611.16
226.32	2584.54
226.53	2936.79
226.75	2652.12
226.97	2435.03
227.19	2478.04
227.41	2686.94
227.63	2598.87
227.85	2338.78
228.06	2555.86
228.28	2709.46
228.50	2846.68
228.72	2371.55
228.94	2484.19
229.16	2506.71
229.37	2551.77
229.59	2447.32
229.81	2715.61
230.03	2725.85
230.25	2594.78
230.47	2424.80
230.69	2469.85
230.90	2914.26
231.12	2658.26
231.34	2588.63
231.56	2566.10
231.78	2525.15
232.00	2691.03
232.21	2441.18
232.43	2551.77
232.65	2412.51
232.87	2838.48
233.09	2428.89
233.30	2488.28
233.52	2828.24
233.74	2695.13
233.96	2521.05
234.18	2553.82
234.40	2815.96
234.61	3033.04
234.83	2488.28
235.05	2480.09
235.27	3112.91
235.49	2990.03
235.70	2392.03
235.92	2631.64
236.14	2818.00
236.36	3069.91
236.58	2381.79
236.79	2586.58
237.01	2750.42
237.23	2734.04
237.45	2711.51
237.67	2510.81
237.88	2764.76
238.10	3022.80
238.32	2488.28
238.54	2559.96
238.76	2725.85
238.97	2578.39
239.19	2367.45
239.41	2547.67
239.63	2858.96
239.85	2645.98
240.06	2539.48
240.28	2553.82
240.50	2858.96
240.72	2764.76
240.93	2457.56
241.15	2627.54
241.37	2684.89
241.59	2875.35
241.81	2537.43
242.02	2584.54
242.24	2758.61
242.46	2801.62
242.68	2365.40
242.89	2461.66
243.11	2840.53
243.33	2680.79
243.55	2594.78
243.76	2613.21
243.98	2654.17
244.20	2711.51
244.42	2527.19
244.64	2566.10
244.85	2602.97
245.07	2602.97
245.29	2420.70
245.51	2514.91
245.72	2772.95
245.94	2838.48
246.16	2529.24
246.38	2529.24
246.59	2588.63
246.81	2617.30
247.03	2498.52
247.24	2404.32
247.46	2666.46
247.68	2699.22
247.90	2469.85
248.11	2527.19
248.33	2809.81
248.55	2680.79
248.77	2543.58
248.98	2545.63
249.20	2957.27
249.42	2719.70
249.64	2551.77
249.85	2451.42
250.07	2668.50
250.29	2914.26
250.50	2555.86
250.72	2490.33
250.94	2856.92
251.16	3030.99
251.37	2500.57
251.59	2539.48
251.81	2744.28
252.02	2914.26
252.24	2523.10
252.46	2633.69
252.68	2643.93
252.89	2574.30
253.11	2428.89
253.33	2701.27
253.54	2947.03
253.76	2580.44
253.98	2490.33
254.20	2498.52
254.41	2547.67
254.63	2701.27
254.85	2375.64
255.06	2543.58
255.28	2854.87
255.50	2678.74
255.71	2486.23
255.93	2334.68
256.15	2760.66
256.36	2805.72
256.58	2502.62
256.80	2480.09
257.02	2660.31
257.23	2615.26
257.45	2574.30
257.67	2609.11
257.88	2670.55
258.10	2701.27
258.32	2506.71
258.53	2506.71
258.75	3012.56
258.97	2631.64
259.18	2539.48
259.40	2492.38
259.62	3022.80
259.83	2936.79
260.05	2582.49
260.27	3211.22
260.48	2887.64
260.70	2611.16
260.92	2461.66
261.13	2512.86
261.35	2760.66
261.57	2826.20
261.78	2428.89
262.00	2490.33
262.22	2760.66
262.43	2588.63
262.65	2498.52
262.86	2555.86
263.08	3057.62
263.30	2695.13
263.51	2369.50
263.73	2449.37
263.95	2914.26
264.16	2555.86
264.38	2424.80
264.60	2502.62
264.81	2699.22
265.03	2840.53
265.25	2805.72
265.46	2437.08
265.68	2924.50
265.89	2828.24
266.11	2422.75
266.33	2504.67
266.54	2885.59
266.76	2830.29
266.98	2584.54
267.19	2664.41
267.41	2873.30
267.62	2772.95
267.84	2340.83
268.06	2580.44
268.27	2713.56
268.49	2947.03
268.70	2570.20
268.92	2478.04
269.14	2611.16
269.35	2451.42
269.57	2510.81
269.79	2629.59
270.00	2666.46
270.22	2947.03
270.43	2410.46
270.65	2322.40
270.87	2764.76
271.08	2828.24
271.30	2572.25
271.51	2578.39
271.73	2801.62
271.95	2904.02
272.16	2541.53
272.38	2514.91
272.59	2701.27
272.81	2686.94
273.02	2492.38
273.24	2529.24
273.46	2877.40
273.67	2584.54
273.89	2406.36
274.10	2430.94
274.32	2914.26
274.54	2734.04
274.75	2684.89
274.97	2594.78
275.18	2740.18
275.40	2777.05
275.61	2525.15
275.83	2598.87
276.05	2519.00
276.26	2707.41
276.48	2674.65
276.69	2592.73
276.91	2656.22
277.12	2922.45
277.34	2680.79
277.55	2740.18
277.77	2731.99
277.99	2645.98
278.20	2562.01
278.42	2486.23
278.63	2623.45
278.85	2617.30
279.06	2549.72
279.28	2613.21
279.49	2875.35
279.71	2736.09
279.93	2652.12
280.14	2615.26
280.36	2557.91
280.57	2809.81
280.79	2715.61
281.00	2555.86
281.22	2678.74
281.43	2881.49
281.65	2381.79
281.86	2463.71
282.08	2731.99
282.29	2973.65
282.51	2478.04
282.73	2535.39
282.94	2555.86
283.16	2834.39
283.37	2770.90
283.59	2551.77
283.80	2727.89
284.02	2666.46
284.23	2680.79
284.45	2584.54
284.66	2631.64
284.88	2627.54
285.09	2605.02
285.31	2660.31
285.52	2697.17
285.74	2463.71
285.95	2717.65
286.17	2633.69
286.38	2844.63
286.60	2568.15
286.81	2598.87
287.03	2596.82
287.24	2668.50
287.46	2789.33
287.67	2645.98
287.89	2828.24
288.10	2623.45
288.32	2652.12
288.53	2752.47
288.75	2729.94
288.96	2899.92
289.18	2691.03
289.39	2570.20
289.61	2643.93
289.82	3098.58
290.04	2953.17
290.25	2510.81
290.47	2629.59
290.68	2670.55
290.90	2883.54
291.11	2394.08
291.33	2736.09
291.54	2629.59
291.76	2656.22
291.97	2660.31
292.18	2678.74
292.40	2658.26
292.61	2494.43
292.83	2830.29
293.04	2678.74
293.26	2777.05
293.47	2645.98
293.69	2531.29
293.90	2492.38
294.12	2871.25
294.33	2709.46
294.55	2596.82
294.76	2738.13
294.97	3039.19
295.19	3045.33
295.40	2568.15
295.62	2676.70
295.83	2789.33
296.05	2637.78
296.26	2731.99
296.48	2519.00
296.69	2703.32
296.90	2762.71
297.12	2764.76
297.33	2777.05
297.55	2709.46
297.76	2826.20
297.98	2752.47
298.19	2629.59
298.41	2668.50
298.62	2662.36
298.83	2760.66
299.05	2627.54
299.26	2734.04
299.48	2617.30
299.69	2645.98
299.90	2625.50
300.12	2619.35
300.33	2805.72
300.55	2627.54
300.76	2668.50
300.98	2570.20
301.19	2838.48
301.40	2576.34
301.62	2623.45
301.83	2805.72
302.05	2783.19
302.26	2576.34
302.47	2652.12
302.69	2576.34
302.90	2660.31
303.12	2402.27
303.33	2652.12
303.54	2947.03
303.76	2709.46
303.97	2543.58
304.19	2758.61
304.40	2562.01
304.61	2764.76
304.83	2752.47
305.04	2617.30
305.26	2779.09
305.47	2707.41
305.68	2658.26
305.90	2490.33
306.11	2887.64
306.33	2703.32
306.54	2576.34
306.75	2590.68
306.97	2414.56
307.18	2643.93
307.39	2658.26
307.61	2725.85
307.82	2678.74
308.04	2809.81
308.25	2482.14
308.46	2738.13
308.68	2703.32
308.89	2695.13
309.10	2637.78
309.32	2654.17
309.53	2719.70
309.74	2852.82
309.96	2592.73
310.17	2777.05
310.39	2648.02
310.60	2801.62
310.81	2668.50
311.03	2437.08
311.24	2772.95
311.45	2629.59
311.67	2973.65
311.88	2670.55
312.09	2654.17
312.31	2562.01
312.52	2578.39
312.73	2543.58
312.95	2578.39
313.16	2545.63
313.37	2764.76
313.59	2695.13
313.80	2818.00
314.01	3010.51
314.23	2621.40
314.44	2568.15
314.65	2588.63
314.87	2564.06
315.08	2586.58
315.29	2602.97
315.51	2572.25
315.72	2549.72
315.93	2703.32
316.15	2713.56
316.36	2656.22
316.57	2723.80
316.79	2695.13
317.00	2572.25
317.21	2863.06
317.43	2641.88
317.64	2666.46
317.85	2570.20
318.07	2596.82
318.28	2662.36
318.49	2791.38
318.70	2922.45
318.92	2772.95
319.13	2881.49
319.34	2818.00
319.56	2676.70
319.77	2871.25
319.98	2820.05
320.20	2865.11
320.41	2727.89
320.62	2787.29
320.83	2631.64
321.05	2815.96
321.26	2723.80
321.47	2719.70
321.69	2961.36
321.90	2437.08
322.11	2568.15
322.32	2697.17
322.54	2922.45
322.75	2621.40
322.96	3176.40
323.18	2463.71
323.39	2451.42
323.60	2559.96
323.81	2734.04
324.03	2590.68
324.24	2779.09
324.45	2752.47
324.66	2523.10
324.88	2856.92
325.09	2930.64
325.30	2631.64
325.52	2580.44
325.73	2772.95
325.94	2576.34
326.15	2404.32
326.37	2482.14
326.58	2883.54
326.79	2897.88
327.00	2506.71
327.22	2582.49
327.43	2615.26
327.64	2525.15
327.85	2740.18
328.07	2611.16
328.28	3051.47
328.49	2623.45
328.70	2605.02
328.92	2639.83
329.13	2652.12
329.34	2719.70
329.55	2756.57
329.76	2672.60
329.98	2676.70
330.19	2944.98
330.40	2672.60
330.61	2639.83
330.83	2883.54
331.04	2547.67
331.25	2668.50
331.46	2639.83
331.68	2592.73
331.89	2969.55
332.10	2602.97
332.31	2482.14
332.52	2668.50
332.74	2828.24
332.95	2400.22
333.16	2602.97
333.37	2881.49
333.58	2707.41
333.80	2625.50
334.01	2359.26
334.22	2715.61
334.43	2664.41
334.64	2486.23
334.86	2414.56
335.07	2674.65
335.28	2912.21
335.49	2500.57
335.70	2643.93
335.92	2873.30
336.13	2979.79
336.34	2748.37
336.55	2656.22
336.76	2818.00
336.98	2494.43
337.19	2639.83
337.40	2705.37
337.61	3108.82
337.82	2707.41
338.04	2701.27
338.25	2475.99
338.46	2731.99
338.67	2684.89
338.88	2488.28
339.09	2473.95
339.31	2617.30
339.52	2572.25
339.73	2564.06
339.94	2609.11
340.15	2826.20
340.36	2602.97
340.58	2680.79
340.79	2516.95
341.00	2836.44
341.21	2553.82
341.42	2846.68
341.63	2650.07
341.85	2824.15
342.06	2818.00
342.27	2623.45
342.48	2686.94
342.69	2508.76
342.90	2820.05
343.12	2858.96
343.33	2566.10
343.54	2766.81
343.75	2953.17
343.96	2643.93
344.17	2559.96
344.38	2705.37
344.60	2519.00
344.81	2519.00
345.02	2662.36
345.23	2928.60
345.44	3098.58
345.65	2709.46
345.86	2678.74
346.07	2791.38
346.29	2600.92
346.50	2670.55
346.71	2695.13
346.92	2918.36
347.13	3074.00
347.34	2656.22
347.55	2510.81
347.76	2760.66
347.98	2512.86
348.19	2664.41
348.40	2795.48
348.61	2699.22
348.82	2932.69
349.03	2684.89
349.24	2467.80
349.45	3098.58
349.66	2453.47
349.88	2639.83
350.09	2535.39
350.30	2953.17
350.51	2873.30
350.72	2684.89
350.93	2650.07
351.14	2684.89
351.35	2828.24
351.56	2711.51
351.77	2635.74
351.99	2815.96
352.20	2963.41
352.41	2760.66
352.62	2447.32
352.83	2707.41
353.04	2750.42
353.25	2549.72
353.46	2729.94
353.67	2850.77
353.88	2506.71
354.09	2686.94
354.30	2625.50
354.52	2891.73
354.73	2738.13
354.94	2512.86
355.15	2637.78
355.36	3086.29
355.57	2662.36
355.78	2512.86
355.99	2580.44
356.20	2682.84
356.41	2858.96
356.62	2652.12
356.83	2668.50
357.04	2924.50
357.25	2486.23
357.46	2578.39
357.68	2414.56
357.89	2478.04
358.10	2703.32
358.31	2607.06
358.52	2590.68
358.73	2514.91
358.94	2551.77
359.15	2537.43
359.36	2670.55
359.57	2725.85
359.78	2686.94
359.99	2731.99
360.20	2508.76
360.41	2693.08
360.62	2826.20
360.83	2727.89
361.04	2699.22
361.25	2803.67
361.46	2947.03
361.67	2754.52
361.88	2654.17
362.09	2940.88
362.30	2744.28
362.51	2523.10
362.72	2652.12
362.93	2818.00
363.14	2809.81
363.35	2684.89
363.56	2576.34
363.78	2846.68
363.99	2854.87
364.20	2598.87
364.41	2682.84
364.62	3039.19
364.83	2701.27
365.04	2607.06
365.25	2596.82
365.46	3088.34
365.67	2617.30
365.88	2609.11
366.09	2574.30
366.30	2598.87
366.51	2723.80
366.72	2547.67
366.93	2598.87
367.14	2758.61
367.35	2944.98
367.56	2539.48
367.77	2717.65
367.98	2715.61
368.18	2775.00
368.39	2727.89
368.60	2533.34
368.81	2830.29
369.02	2709.46
369.23	2596.82
369.44	2508.76
369.65	2684.89
369.86	2803.67
370.07	2643.93
370.28	2500.57
370.49	2715.61
370.70	2725.85
370.91	2471.90
371.12	2533.34
371.33	2934.74
371.54	2623.45
371.75	2731.99
371.96	2375.64
372.17	2766.81
372.38	2727.89
372.59	2672.60
372.80	2574.30
373.01	2662.36
373.22	2678.74
373.43	2580.44
373.64	2482.14
373.85	2963.41
374.06	2858.96
374.26	2742.23
374.47	2725.85
374.68	2940.88
374.89	2731.99
375.10	2562.01
375.31	2713.56
375.52	2734.04
375.73	2693.08
375.94	2533.34
376.15	2775.00
376.36	2592.73
376.57	2605.02
376.78	2547.67
376.99	2684.89
377.20	2873.30
377.40	2664.41
377.61	2854.87
377.82	2572.25
378.03	2963.41
378.24	2832.34
378.45	2609.11
378.66	2693.08
378.87	2488.28
379.08	2486.23
379.29	2625.50
379.50	2740.18
379.71	2734.04
379.91	2867.16
380.12	2627.54
380.33	2637.78
380.54	2744.28
380.75	2723.80
380.96	2523.10
381.17	2727.89
381.38	2686.94
381.59	2834.39
381.80	2537.43
382.00	2824.15
382.21	2750.42
382.42	2920.40
382.63	2942.93
382.84	2676.70
383.05	2834.39
383.26	2863.06
383.47	2713.56
383.68	2580.44
383.88	2813.91
384.09	2695.13
384.30	2799.57
384.51	2701.27
384.72	2557.91
384.93	2596.82
385.14	2643.93
385.35	2756.57
385.55	2512.86
385.76	2897.88
385.97	2654.17
386.18	2467.80
386.39	2635.74
386.60	2725.85
386.81	2600.92
387.02	2600.92
387.22	2553.82
387.43	2801.62
387.64	2744.28
387.85	2844.63
388.06	2863.06
388.27	3993.54
388.48	7618.44
388.68	10956.63
388.89	13545.27
389.10	14376.74
389.31	13840.17
389.52	10866.52
389.73	9277.30
389.93	8587.13
390.14	7702.41
390.35	7008.15
390.56	6440.86
390.77	5302.19
390.98	4011.97
391.18	3481.55
391.39	3076.05
391.60	2705.37
391.81	2879.44
392.02	2525.15
392.23	3121.10
392.43	2803.67
392.64	2777.05
392.85	2676.70
393.06	2994.13
393.27	2668.50
393.47	2568.15
393.68	2775.00
393.89	2654.17
394.10	2889.68
394.31	2637.78
394.52	2580.44
394.72	2580.44
394.93	2975.70
395.14	2609.11
395.35	2783.19
395.56	2670.55
395.76	2740.18
395.97	2623.45
396.18	2781.14
396.39	2768.85
396.60	3198.93
396.80	3026.90
397.01	2863.06
397.22	2879.44
397.43	2805.72
397.64	2539.48
397.84	2762.71
398.05	3030.99
398.26	2762.71
398.47	2705.37
398.67	2793.43
398.88	2754.52
399.09	2807.77
399.30	2621.40
399.51	2711.51
399.71	2625.50
399.92	2633.69
400.13	2688.98
400.34	2633.69
400.54	2686.94
400.75	2961.36
400.96	2621.40
401.17	2846.68
401.37	2801.62
401.58	2662.36
401.79	2650.07
402.00	2844.63
402.21	3137.49
402.41	2967.51
402.62	2940.88
402.83	3041.23
403.04	3145.68
403.24	3330.00
403.45	2750.42
403.66	2949.08
403.87	2912.21
404.07	2985.94
404.28	2916.31
404.49	2854.87
404.70	2768.85
404.90	2752.47
405.11	2645.98
405.32	2703.32
405.52	2584.54
405.73	2623.45
405.94	2588.63
406.15	2697.17
406.35	2785.24
406.56	2768.85
406.77	2748.37
406.98	2662.36
407.18	2586.58
407.39	2969.55
407.60	2584.54
407.80	2703.32
408.01	2672.60
408.22	2729.94
408.43	2535.39
408.63	2746.33
408.84	2775.00
409.05	2828.24
409.25	2576.34
409.46	2576.34
409.67	2650.07
409.88	2656.22
410.08	2668.50
410.29	2633.69
410.50	2832.34
410.70	2775.00
410.91	2510.81
411.12	2678.74
411.32	2775.00
411.53	2607.06
411.74	2652.12
411.95	2701.27
412.15	2703.32
412.36	2789.33
412.57	2731.99
412.77	2815.96
412.98	2740.18
413.19	2668.50
413.39	2662.36
413.60	2617.30
413.81	2881.49
414.01	2580.44
414.22	2682.84
414.43	2736.09
414.63	2637.78
414.84	2824.15
415.05	2680.79
415.25	2541.53
415.46	2744.28
415.67	2586.58
415.87	2588.63
416.08	2576.34
416.29	2570.20
416.49	2832.34
416.70	2676.70
416.91	2619.35
417.11	2684.89
417.32	2846.68
417.53	2734.04
417.73	2729.94
417.94	2740.18
418.15	2795.48
418.35	2613.21
418.56	2629.59
418.77	3041.23
418.97	2775.00
419.18	2643.93
419.38	2404.32
419.59	2697.17
419.80	2949.08
420.00	2645.98
420.21	2617.30
420.42	2861.01
420.62	2795.48
420.83	2703.32
421.04	2570.20
421.24	2744.28
421.45	2801.62
421.65	2695.13
421.86	2574.30
422.07	2895.83
422.27	2830.29
422.48	2596.82
422.69	2484.19
422.89	2699.22
423.10	2674.65
423.30	2547.67
423.51	2805.72
423.72	2793.43
423.92	2850.77
424.13	2508.76
424.33	2682.84
424.54	2846.68
424.75	2715.61
424.95	2869.20
425.16	2666.46
425.36	2668.50
425.57	2930.64
425.78	2660.31
425.98	2793.43
426.19	2699.22
426.39	2613.21
426.60	2648.02
426.81	2744.28
427.01	2795.48
427.22	2576.34
427.42	2484.19
427.63	2623.45
427.83	2809.81
428.04	2951.12
428.25	2777.05
428.45	2799.57
428.66	2758.61
428.86	2637.78
429.07	2615.26
429.28	2691.03
429.48	2772.95
429.69	2648.02
429.89	2699.22
430.10	2549.72
430.30	2793.43
430.51	2863.06
430.71	2531.29
430.92	2684.89
431.13	2668.50
431.33	2779.09
431.54	2662.36
431.74	2824.15
431.95	3086.29
432.15	2512.86
432.36	2633.69
432.56	2713.56
432.77	3037.14
432.98	2949.08
433.18	2654.17
433.39	2639.83
433.59	2668.50
433.80	3028.95
434.00	2879.44
434.21	2650.07
434.41	2580.44
434.62	3100.62
434.82	2562.01
435.03	2500.57
435.23	2729.94
435.44	2484.19
435.64	2660.31
435.85	2611.16
436.06	2893.78
436.26	2914.26
436.47	2631.64
436.67	2686.94
436.88	2766.81
437.08	2922.45
437.29	2818.00
437.49	2695.13
437.70	2908.12
437.90	2637.78
438.11	2897.88
438.31	2654.17
438.52	2940.88
438.72	2944.98
438.93	2953.17
439.13	2742.23
439.34	2791.38
439.54	2707.41
439.75	2777.05
439.95	2643.93
440.16	2580.44
440.36	2717.65
440.57	2699.22
440.77	2670.55
440.98	2772.95
441.18	2701.27
441.39	2529.24
441.59	2416.60
441.80	3045.33
442.00	2740.18
442.21	2824.15
442.41	2586.58
442.62	2846.68
442.82	2666.46
443.02	2553.82
443.23	2656.22
443.43	2713.56
443.64	2805.72
443.84	2516.95
444.05	2787.29
444.25	2834.39
444.46	2627.54
444.66	2670.55
444.87	2832.34
445.07	2465.75
445.28	2756.57
445.48	2815.96
445.69	2701.27
445.89	3067.86
446.09	2641.88
446.30	2930.64
446.50	3080.14
446.71	4595.64
446.91	5820.33
447.12	6369.18
447.32	6700.95
447.53	6637.47
447.73	5400.49
447.93	4759.48
448.14	4573.11
448.34	4538.30
448.55	3774.41
448.75	3944.39
448.96	3538.89
449.16	3411.92
449.36	3317.71
449.57	2932.69
449.77	2752.47
449.98	2699.22
450.18	2828.24
450.39	2693.08
450.59	2686.94
450.79	2803.67
451.00	2668.50
451.20	2754.52
451.41	2639.83
451.61	2670.55
451.81	2697.17
452.02	2607.06
452.22	2631.64
452.43	2643.93
452.63	2666.46
452.84	2695.13
453.04	2641.88
453.24	2797.53
453.45	2623.45
453.65	2668.50
453.86	2682.84
454.06	2811.86
454.26	2762.71
454.47	2568.15
454.67	2940.88
454.87	2762.71
455.08	2660.31
455.28	2791.38
455.49	2699.22
455.69	2658.26
455.89	3002.32
456.10	2744.28
456.30	2693.08
456.51	2838.48
456.71	2740.18
456.91	2756.57
457.12	2682.84
457.32	2666.46
457.52	2519.00
457.73	2744.28
457.93	2766.81
458.14	2639.83
458.34	2457.56
458.54	2654.17
458.75	2611.16
458.95	2867.16
459.15	2742.23
459.36	2699.22
459.56	2652.12
459.76	3092.43
459.97	2678.74
460.17	2564.06
460.37	2766.81
460.58	2777.05
460.78	2863.06
460.99	2648.02
461.19	2635.74
461.39	2654.17
461.60	2734.04
461.80	2699.22
462.00	2494.43
462.21	2643.93
462.41	2613.21
462.61	2559.96
462.82	2506.71
463.02	2760.66
463.22	2695.13
463.43	2744.28
463.63	2639.83
463.83	2979.79
464.04	2871.25
464.24	2590.68
464.44	2605.02
464.64	2815.96
464.85	2746.33
465.05	2666.46
465.25	2664.41
465.46	2617.30
465.66	2805.72
465.86	2721.75
466.07	2609.11
466.27	2699.22
466.47	2582.49
466.68	2492.38
466.88	2799.57
467.08	2793.43
467.29	2834.39
467.49	2783.19
467.69	2746.33
467.89	2832.34
468.10	2664.41
468.30	2625.50
468.50	2848.72
468.71	2957.27
468.91	2490.33
469.11	2830.29
469.31	2686.94
469.52	2578.39
469.72	2951.12
469.92	2920.40
470.13	2682.84
470.33	2742.23
470.53	2834.39
470.73	3037.14
470.94	3321.81
471.14	3416.01
471.34	3841.99
471.54	3577.80
471.75	3381.20
471.95	3123.15
472.15	3028.95
472.36	3090.38
472.56	3020.75
472.76	3321.81
472.96	3002.32
473.17	2922.45
473.37	2811.86
473.57	2666.46
473.77	2838.48
473.98	2691.03
474.18	2480.09
474.38	3131.34
474.58	2701.27
474.79	2588.63
474.99	2799.57
475.19	2932.69
475.39	2580.44
475.60	2693.08
475.80	2656.22
476.00	2711.51
476.20	2652.12
476.41	2639.83
476.61	2727.89
476.81	2867.16
477.01	2650.07
477.21	2879.44
477.42	2717.65
477.62	2564.06
477.82	2881.49
478.02	2596.82
478.23	2691.03
478.43	2594.78
478.63	2666.46
478.83	2619.35
479.03	2613.21
479.24	2965.46
479.44	3018.71
479.64	2570.20
479.84	2402.27
480.04	2695.13
480.25	2852.82
480.45	2543.58
480.65	2654.17
480.85	2947.03
481.06	2639.83
481.26	2734.04
481.46	2650.07
481.66	2744.28
481.86	2574.30
482.06	2768.85
482.27	2740.18
482.47	2664.41
482.67	2756.57
482.87	2623.45
483.07	2678.74
483.28	2572.25
483.48	2545.63
483.68	2633.69
483.88	2555.86
484.08	2400.22
484.29	2584.54
484.49	2731.99
484.69	2557.91
484.89	2955.22
485.09	2850.77
485.29	2719.70
485.50	2838.48
485.70	2635.74
485.90	2936.79
486.10	2725.85
486.30	2625.50
486.50	2889.68
486.71	2820.05
486.91	2744.28
487.11	2828.24
487.31	2557.91
487.51	2805.72
487.71	2586.58
487.91	2584.54
488.12	2570.20
488.32	2435.03
488.52	2598.87
488.72	2426.84
488.92	2736.09
489.12	2867.16
489.32	2766.81
489.53	2686.94
489.73	2521.05
489.93	2953.17
490.13	2609.11
490.33	2457.56
490.53	2734.04
490.73	2893.78
490.94	2623.45
491.14	2744.28
491.34	2920.40
491.54	2856.92
491.74	3452.88
491.94	4028.35
492.14	4431.80
492.34	4421.56
492.54	4130.75
492.75	3475.40
492.95	3581.90
493.15	3424.20
493.35	3330.00
493.55	3248.08
493.75	3041.23
493.95	3147.73
494.15	2875.35
494.35	2772.95
494.56	2686.94
494.76	2645.98
494.96	2783.19
495.16	2699.22
495.36	2697.17
495.56	2754.52
495.76	2703.32
495.96	2748.37
496.16	2605.02
496.36	3057.62
496.56	2754.52
496.77	2686.94
496.97	2766.81
497.17	2867.16
497.37	2478.04
497.57	2793.43
497.77	2766.81
497.97	2656.22
498.17	2693.08
498.37	2682.84
498.57	2752.47
498.77	2633.69
498.97	2801.62
499.17	2940.88
499.38	2686.94
499.58	2797.53
499.78	2811.86
499.98	2856.92
500.18	2695.13
500.38	2664.41
500.58	2783.19
500.78	3196.88
500.98	5410.73
501.18	7217.04
501.38	8642.43
501.58	9428.85
501.78	9469.81
501.98	7718.79
502.18	6455.20
502.38	5529.52
502.58	5390.25
502.78	4796.34
502.98	4685.75
503.18	4382.65
503.38	4198.34
503.59	3545.03
503.79	3522.51
503.99	3262.41
504.19	3129.30
504.39	3137.49
504.59	3174.35
504.79	3084.24
504.99	3229.65
505.19	3030.99
505.39	2834.39
505.59	2990.03
505.79	2920.40
505.99	2897.88
506.19	2691.03
506.39	2922.45
506.59	2672.60
506.79	2758.61
506.99	2725.85
507.19	2635.74
507.39	2809.81
507.59	2594.78
507.79	2588.63
507.99	2564.06
508.19	2658.26
508.39	2637.78
508.59	2686.94
508.79	2820.05
508.99	3055.57
509.19	2658.26
509.39	2633.69
509.59	2607.06
509.79	2613.21
509.99	2746.33
510.19	2803.67
510.39	2697.17
510.59	2711.51
510.79	2588.63
510.99	2496.47
511.19	2707.41
511.39	3018.71
511.59	2830.29
511.79	2820.05
511.99	2584.54
512.19	2846.68
512.38	2713.56
512.58	2541.53
512.78	2572.25
512.98	2912.21
513.18	2955.22
513.38	2502.62
513.58	2729.94
513.78	2703.32
513.98	2707.41
514.18	2629.59
514.38	2648.02
514.58	2834.39
514.78	2662.36
514.98	2580.44
515.18	2617.30
515.38	2678.74
515.58	2955.22
515.78	2637.78
515.98	2615.26
516.18	2805.72
516.38	2754.52
516.57	2576.34
516.77	2654.17
516.97	2820.05
517.17	2670.55
517.37	2461.66
517.57	2729.94
517.77	2764.76
517.97	2639.83
518.17	2762.71
518.37	2506.71
518.57	2674.65
518.77	2711.51
518.97	2609.11
519.16	2680.79
519.36	2867.16
519.56	2703.32
519.76	2586.58
519.96	2750.42
520.16	2871.25
520.36	2555.86
520.56	2770.90
520.76	2545.63
520.96	2709.46
521.16	2883.54
521.35	2775.00
521.55	2787.29
521.75	2693.08
521.95	2596.82
522.15	2617.30
522.35	2498.52
522.55	2613.21
522.75	2775.00
522.95	2545.63
523.14	2519.00
523.34	2865.11
523.54	2652.12
523.74	2758.61
523.94	2797.53
524.14	2527.19
524.34	2813.91
524.54	2799.57
524.73	2607.06
524.93	2809.81
525.13	2748.37
525.33	2478.04
525.53	2881.49
525.73	2852.82
525.93	2740.18
526.13	2574.30
526.32	2541.53
526.52	2875.35
526.72	2832.34
526.92	2656.22
527.12	2670.55
527.32	2498.52
527.52	2842.58
527.71	2717.65
527.91	2660.31
528.11	2643.93
528.31	2674.65
528.51	2572.25
528.71	2693.08
528.90	2711.51
529.10	2928.60
529.30	2744.28
529.50	2467.80
529.70	2719.70
529.90	2760.66
530.09	2674.65
530.29	2494.43
530.49	2596.82
530.69	3188.69
530.89	2678.74
531.09	2799.57
531.28	2672.60
531.48	3012.56
531.68	2625.50
531.88	2637.78
532.08	2904.02
532.28	2736.09
532.47	2727.89
532.67	2758.61
532.87	2801.62
533.07	2607.06
533.27	2752.47
533.46	2752.47
533.66	2801.62
533.86	2746.33
534.06	2641.88
534.26	2691.03
534.45	2752.47
534.65	2865.11
534.85	2717.65
535.05	2641.88
535.25	2873.30
535.44	2516.95
535.64	2705.37
535.84	2594.78
536.04	2621.40
536.24	2625.50
536.43	2596.82
536.63	2623.45
536.83	2686.94
537.03	2738.13
537.22	2473.95
537.42	2432.99
537.62	2779.09
537.82	2641.88
538.02	2815.96
538.21	2793.43
538.41	3162.06
538.61	2832.34
538.81	2662.36
539.00	2731.99
539.20	2510.81
539.40	2686.94
539.60	2654.17
539.79	2787.29
539.99	2721.75
540.19	2645.98
540.39	2650.07
540.58	2670.55
540.78	2854.87
540.98	2762.71
541.18	2775.00
541.37	2768.85
541.57	2768.85
541.77	2787.29
541.97	2568.15
542.16	2512.86
542.36	2631.64
542.56	2731.99
542.76	2856.92
542.95	2799.57
543.15	2770.90
543.35	2813.91
543.54	2596.82
543.74	2641.88
543.94	2879.44
544.14	2731.99
544.33	2861.01
544.53	2631.64
544.73	2775.00
544.93	2629.59
545.12	2545.63
545.32	2596.82
545.52	2650.07
545.71	2521.05
545.91	2613.21
546.11	2637.78
546.30	2586.58
546.50	2705.37
546.70	2785.24
546.90	2654.17
547.09	2441.18
547.29	2688.98
547.49	2734.04
547.68	2633.69
547.88	2641.88
548.08	2834.39
548.27	3129.30
548.47	2600.92
548.67	2650.07
548.87	2783.19
549.06	2627.54
549.26	2635.74
549.46	2811.86
549.65	2688.98
549.85	2707.41
550.05	2764.76
550.24	2547.67
550.44	2719.70
550.64	2670.55
550.83	2629.59
551.03	2924.50
551.23	2834.39
551.42	2662.36
551.62	2672.60
551.82	2744.28
552.01	2648.02
552.21	2852.82
552.41	2684.89
552.60	2869.20
552.80	2723.80
553.00	2600.92
553.19	2727.89
553.39	3000.27
553.59	2496.47
553.78	2779.09
553.98	2674.65
554.17	2512.86
554.37	2752.47
554.57	2715.61
554.76	2498.52
554.96	2586.58
555.16	2785.24
555.35	2803.67
555.55	2793.43
555.75	2723.80
555.94	2736.09
556.14	2475.99
556.33	2660.31
556.53	2660.31
556.73	2707.41
556.92	2742.23
557.12	2670.55
557.32	3049.43
557.51	2992.08
557.71	2731.99
557.90	2914.26
558.10	2912.21
558.30	2664.41
558.49	2656.22
558.69	2650.07
558.88	2838.48
559.08	2822.10
559.28	2654.17
559.47	2684.89
559.67	2703.32
559.86	3000.27
560.06	2666.46
560.26	2619.35
560.45	2805.72
560.65	2668.50
560.84	2815.96
561.04	2605.02
561.24	2901.97
561.43	2523.10
561.63	2807.77
561.82	2711.51
562.02	2768.85
562.22	2654.17
562.41	2549.72
562.61	2676.70
562.80	2609.11
563.00	3125.20
563.19	2676.70
563.39	2652.12
563.59	2858.96
563.78	2609.11
563.98	2432.99
564.17	2650.07
564.37	2514.91
564.56	2746.33
564.76	2465.75
564.96	2834.39
565.15	2789.33
565.35	2994.13
565.54	2676.70
565.74	2736.09
565.93	2699.22
566.13	2750.42
566.32	2725.85
566.52	2748.37
566.71	2766.81
566.91	2834.39
567.11	2723.80
567.30	2619.35
567.50	2783.19
567.69	2756.57
567.89	2619.35
568.08	2613.21
568.28	2738.13
568.47	2586.58
568.67	2695.13
568.86	2635.74
569.06	2858.96
569.25	2729.94
569.45	2508.76
569.64	2637.78
569.84	2662.36
570.04	2793.43
570.23	2602.97
570.43	2588.63
570.62	2838.48
570.82	2901.97
571.01	2557.91
571.21	2598.87
571.40	2568.15
571.60	2758.61
571.79	2723.80
571.99	2701.27
572.18	2605.02
572.38	2775.00
572.57	2641.88
572.77	2691.03
572.96	3137.49
573.16	2752.47
573.35	2664.41
573.55	2791.38
573.74	2867.16
573.94	2701.27
574.13	2666.46
574.33	2781.14
574.52	2938.84
574.71	2666.46
574.91	2658.26
575.10	2504.67
575.30	2691.03
575.49	2623.45
575.69	2627.54
575.88	2697.17
576.08	2744.28
576.27	2910.16
576.47	2637.78
576.66	2781.14
576.86	2856.92
577.05	2805.72
577.25	2686.94
577.44	2973.65
577.64	2678.74
577.83	2863.06
578.02	2648.02
578.22	2809.81
578.41	3030.99
578.61	2600.92
578.80	2527.19
579.00	2688.98
579.19	2723.80
579.39	2734.04
579.58	2779.09
579.77	2682.84
579.97	2981.84
580.16	2869.20
580.36	2793.43
580.55	2828.24
580.75	2760.66
580.94	2801.62
581.13	2895.83
581.33	2815.96
581.52	2717.65
581.72	2981.84
581.91	2818.00
582.11	2678.74
582.30	2834.39
582.49	2830.29
582.69	2867.16
582.88	2746.33
583.08	2725.85
583.27	2947.03
583.47	2652.12
583.66	2596.82
583.85	2582.49
584.05	2721.75
584.24	2848.72
584.44	2754.52
584.63	2869.20
584.82	2949.08
585.02	2928.60
585.21	2783.19
585.41	2840.53
585.60	2756.57
585.79	3020.75
585.99	2934.74
586.18	2830.29
586.37	3508.17
586.57	5390.25
586.76	15978.25
586.96	35323.36
587.15	48395.55
587.34	57375.89
587.54	60820.58
587.73	54486.21
587.93	38731.18
588.12	29556.28
588.31	24137.36
588.51	21251.77
588.70	19285.72
588.89	17190.65
589.09	14696.22
589.28	12476.23
589.47	9721.71
589.67	7577.48
589.86	5873.57
590.06	4571.07
590.25	3919.81
590.44	3399.63
590.64	3071.95
590.83	2983.89
591.02	3030.99
591.22	2760.66
591.41	2762.71
591.60	2758.61
591.80	3108.82
591.99	2551.77
592.18	2684.89
592.38	2844.63
592.57	2662.36
592.76	2650.07
592.96	2783.19
593.15	2648.02
593.34	2856.92
593.54	2674.65
593.73	2674.65
593.92	2838.48
594.12	2850.77
594.31	2713.56
594.50	2785.24
594.70	2809.81
594.89	3127.25
595.08	2500.57
595.28	2766.81
595.47	3233.74
595.66	2852.82
595.86	2547.67
596.05	2596.82
596.24	2717.65
596.43	2928.60
596.63	2797.53
596.82	2793.43
597.01	2734.04
597.21	2979.79
597.40	2770.90
597.59	2729.94
597.79	2715.61
597.98	2844.63
598.17	2678.74
598.36	2629.59
598.56	2818.00
598.75	2588.63
598.94	2729.94
599.14	2652.12
599.33	2695.13
599.52	2805.72
599.71	2688.98
599.91	2703.32
600.10	2754.52
600.29	2783.19
600.48	2820.05
600.68	2736.09
600.87	2842.58
601.06	2545.63
601.26	2668.50
601.45	2746.33
601.64	2725.85
601.83	2981.84
602.03	2605.02
602.22	2586.58
602.41	2924.50
602.60	3102.67
602.80	2772.95
602.99	2764.76
603.18	2713.56
603.37	2701.27
603.57	2711.51
603.76	2723.80
603.95	2987.99
604.14	2627.54
604.34	2637.78
604.53	2621.40
604.72	2725.85
604.91	2850.77
605.10	2682.84
605.30	2492.38
605.49	3082.19
605.68	2768.85
605.87	2654.17
606.07	2584.54
606.26	2779.09
606.45	2828.24
606.64	2654.17
606.84	2637.78
607.03	2707.41
607.22	2914.26
607.41	2678.74
607.60	2633.69
607.80	2914.26
607.99	2740.18
608.18	2695.13
608.37	2670.55
608.56	2615.26
608.76	2924.50
608.95	2858.96
609.14	2695.13
609.33	2867.16
609.52	2940.88
609.72	2793.43
609.91	2754.52
610.10	2727.89
610.29	2947.03
610.48	2760.66
610.68	2793.43
610.87	2719.70
611.06	2809.81
611.25	2658.26
611.44	2781.14
611.63	2637.78
611.83	2963.41
612.02	2519.00
612.21	2727.89
612.40	2531.29
612.59	2508.76
612.79	2588.63
612.98	2709.46
613.17	2985.94
613.36	2713.56
613.55	2858.96
613.74	2686.94
613.93	2799.57
614.13	2848.72
614.32	2840.53
614.51	2822.10
614.70	2717.65
614.89	2764.76
615.08	2781.14
615.28	3117.01
615.47	2588.63
615.66	2824.15
615.85	2691.03
616.04	2803.67
616.23	2740.18
616.42	2762.71
616.62	2764.76
616.81	2779.09
617.00	2705.37
617.19	2801.62
617.38	2615.26
617.57	2703.32
617.76	2807.77
617.95	2826.20
618.15	2734.04
618.34	2877.40
618.53	2523.10
618.72	2904.02
618.91	2764.76
619.10	2779.09
619.29	2713.56
619.48	2766.81
619.68	2537.43
619.87	2611.16
620.06	2580.44
620.25	2822.10
620.44	2576.34
620.63	2627.54
620.82	2760.66
621.01	2826.20
621.20	2682.84
621.39	2715.61
621.59	2674.65
621.78	2691.03
621.97	2699.22
622.16	2791.38
622.35	2834.39
622.54	2828.24
622.73	2768.85
622.92	2510.81
623.11	2957.27
623.30	2725.85
623.49	2764.76
623.68	2566.10
623.88	2947.03
624.07	2703.32
624.26	2533.34
624.45	2662.36
624.64	2742.23
624.83	2660.31
625.02	2697.17
625.21	2717.65
625.40	2672.60
625.59	2944.98
625.78	2691.03
625.97	2840.53
626.16	2971.60
626.35	2875.35
626.54	2703.32
626.74	2897.88
626.93	2734.04
627.12	2748.37
627.31	2742.23
627.50	2729.94
627.69	2869.20
627.88	2650.07
628.07	2660.31
628.26	2510.81
628.45	2586.58
628.64	2670.55
628.83	2678.74
629.02	2582.49
629.21	2899.92
629.40	2815.96
629.59	2611.16
629.78	2641.88
629.97	2752.47
630.16	2746.33
630.35	2650.07
630.54	2664.41
630.73	2650.07
630.92	2693.08
631.11	2549.72
631.30	2650.07
631.49	2799.57
631.68	2793.43
631.87	2731.99
632.06	2551.77
632.25	3008.47
632.44	2674.65
632.63	2699.22
632.82	2709.46
633.01	2664.41
633.20	2799.57
633.39	2578.39
633.58	2549.72
633.77	2770.90
633.96	2809.81
634.15	2768.85
634.34	2734.04
634.53	2824.15
634.72	2680.79
634.91	2514.91
635.10	2754.52
635.29	2811.86
635.48	2799.57
635.67	2588.63
635.86	2482.14
636.05	2998.23
636.24	2746.33
636.43	2727.89
636.62	2748.37
636.81	2379.74
637.00	2795.48
637.19	2672.60
637.38	2631.64
637.57	2621.40
637.76	2711.51
637.95	2883.54
638.14	2652.12
638.33	2785.24
638.52	2738.13
638.71	2586.58
638.89	2525.15
639.08	3092.43
639.27	2895.83
639.46	2772.95
639.65	3182.54
639.84	3129.30
640.03	3352.52
640.22	3164.11
640.41	3143.63
640.60	2811.86
640.79	2922.45
640.98	2772.95
641.17	2791.38
641.36	2920.40
641.55	2871.25
641.74	2627.54
641.92	2519.00
642.11	2627.54
642.30	2719.70
642.49	2623.45
642.68	2648.02
642.87	2811.86
643.06	2779.09
643.25	2578.39
643.44	2539.48
643.63	2676.70
643.82	2820.05
644.00	2519.00
644.19	2695.13
644.38	2553.82
644.57	2797.53
644.76	2648.02
644.95	2633.69
645.14	2736.09
645.33	2684.89
645.52	2670.55
645.71	2492.38
645.89	2570.20
646.08	2742.23
646.27	2627.54
646.46	2987.99
646.65	2516.95
646.84	2801.62
647.03	2592.73
647.22	2822.10
647.40	2793.43
647.59	2744.28
647.78	2400.22
647.97	2611.16
648.16	2605.02
648.35	2916.31
648.54	2883.54
648.73	2602.97
648.91	2787.29
649.10	2717.65
649.29	2584.54
649.48	2598.87
649.67	2787.29
649.86	2711.51
650.05	2623.45
650.23	2856.92
650.42	2678.74
650.61	2963.41
650.80	2889.68
650.99	2832.34
651.18	2867.16
651.36	2797.53
651.55	2566.10
651.74	2793.43
651.93	2682.84
652.12	2645.98
652.31	2631.64
652.49	2684.89
652.68	2590.68
652.87	2883.54
653.06	2680.79
653.25	2940.88
653.44	2762.71
653.62	2947.03
653.81	2590.68
654.00	2701.27
654.19	2818.00
654.38	3096.53
654.56	2693.08
654.75	2629.59
654.94	2924.50
655.13	2770.90
655.32	2623.45
655.51	2752.47
655.69	2600.92
655.88	2856.92
656.07	2529.24
656.26	2729.94
656.45	2504.67
656.63	2772.95
656.82	2660.31
657.01	2813.91
657.20	2709.46
657.38	2910.16
657.57	2629.59
657.76	2475.99
657.95	2869.20
658.14	2711.51
658.32	2656.22
658.51	2525.15
658.70	2758.61
658.89	2813.91
659.08	2731.99
659.26	2824.15
659.45	2586.58
659.64	2826.20
659.83	2623.45
660.01	3008.47
660.20	2764.76
660.39	2953.17
660.58	2424.80
660.76	2723.80
660.95	2596.82
661.14	2695.13
661.33	2494.43
661.51	2613.21
661.70	2631.64
661.89	2805.72
662.08	2691.03
662.26	2543.58
662.45	2514.91
662.64	3041.23
662.83	2717.65
663.01	2506.71
663.20	2658.26
663.39	2893.78
663.58	2645.98
663.76	2637.78
663.95	2934.74
664.14	2572.25
664.32	2660.31
664.51	2504.67
664.70	2494.43
664.89	2691.03
665.07	2490.33
665.26	2840.53
665.45	2586.58
665.64	2807.77
665.82	2537.43
666.01	2766.81
666.20	2609.11
666.38	2805.72
666.57	2777.05
666.76	4366.27
666.95	10149.73
667.13	16846.59
667.32	21003.97
667.51	23846.55
667.69	24864.39
667.88	21583.54
668.07	15314.71
668.25	13004.60
668.44	11114.33
668.63	9645.93
668.81	8517.50
669.00	7360.40
669.19	6690.71
669.38	5810.09
669.56	4960.18
669.75	4263.87
669.94	3641.29
670.12	3309.52
670.31	2996.18
670.50	2969.55
670.68	2863.06
670.87	2787.29
671.06	2738.13
671.24	2791.38
671.43	3010.51
671.62	2805.72
671.80	2600.92
671.99	2727.89
672.18	2746.33
672.36	2879.44
672.55	2746.33
672.74	2670.55
672.92	2645.98
673.11	2748.37
673.29	2596.82
673.48	2775.00
673.67	2645.98
673.85	2871.25
674.04	2611.16
674.23	2688.98
674.41	3033.04
674.60	2605.02
674.79	2488.28
674.97	2607.06
675.16	2799.57
675.34	2875.35
675.53	2613.21
675.72	2664.41
675.90	3016.66
676.09	2650.07
676.28	2768.85
676.46	2512.86
676.65	2809.81
676.83	2580.44
677.02	2740.18
677.21	2691.03
677.39	2772.95
677.58	2564.06
677.77	2654.17
677.95	2562.01
678.14	2691.03
678.32	2613.21
678.51	2605.02
678.70	2977.75
678.88	2688.98
679.07	2803.67
679.25	2629.59
679.44	2678.74
679.63	2498.52
679.81	2709.46
680.00	2766.81
680.18	2742.23
680.37	2922.45
680.55	2738.13
680.74	2398.17
680.93	2428.89
681.11	2695.13
681.30	2754.52
681.48	2725.85
681.67	2715.61
681.85	2850.77
682.04	2596.82
682.23	2807.77
682.41	2717.65
682.60	2688.98
682.78	2711.51
682.97	2498.52
683.15	2727.89
683.34	2779.09
683.53	2922.45
683.71	2428.89
683.90	2858.96
684.08	2906.07
684.27	2705.37
684.45	2713.56
684.64	2869.20
684.82	2738.13
685.01	2725.85
685.19	2715.61
685.38	2850.77
685.57	2768.85
685.75	2615.26
685.94	2637.78
686.12	2609.11
686.31	2678.74
686.49	2944.98
686.68	2459.61
686.86	2662.36
687.05	2682.84
687.23	2881.49
687.42	2652.12
687.60	2420.70
687.79	2865.11
687.97	2951.12
688.16	2791.38
688.34	2805.72
688.53	2531.29
688.71	2736.09
688.90	2785.24
689.08	2699.22
689.27	2455.51
689.45	2791.38
689.64	2711.51
689.82	2748.37
690.01	2858.96
690.19	2813.91
690.38	2709.46
690.56	2783.19
690.75	2574.30
690.93	2693.08
691.12	2639.83
691.30	2707.41
691.49	2676.70
691.67	2707.41
691.86	2942.93
692.04	2592.73
692.23	2637.78
692.41	2680.79
692.60	2990.03
692.78	2754.52
692.97	2803.67
693.15	2846.68
693.34	2906.07
693.52	2828.24
693.71	2635.74
693.89	2658.26
694.08	2500.57
694.26	2727.89
694.44	2799.57
694.63	2824.15
694.81	2545.63
695.00	2639.83
695.18	2842.58
695.37	3135.44
695.55	2772.95
695.74	2645.98
695.92	2672.60
696.10	2887.64
696.29	2537.43
696.47	2611.16
696.66	2553.82
696.84	2629.59
697.03	2629.59
697.21	2967.51
697.40	4110.27
697.58	2914.26
697.76	2633.69
697.95	2572.25
698.13	2519.00
698.32	2695.13
698.50	2684.89
698.68	2684.89
698.87	2729.94
699.05	2951.12
699.24	2641.88
699.42	2533.34
699.61	2818.00
699.79	2666.46
699.97	2680.79
700.16	2545.63
700.34	2537.43
700.53	2711.51
700.71	2818.00
700.89	2801.62
701.08	2711.51
701.26	2740.18
701.45	3166.16
701.63	2586.58
701.81	2613.21
702.00	2590.68
702.18	2684.89
702.37	2668.50
702.55	3024.85
702.73	2801.62
702.92	2664.41
703.10	2957.27
703.28	2836.44
703.47	2645.98
703.65	2856.92
703.84	2770.90
704.02	2660.31
704.20	2996.18
704.39	2568.15
704.57	2611.16
704.75	2895.83
704.94	2813.91
705.12	2742.23
705.30	3051.47
705.49	5889.96
705.67	11929.42
705.86	17479.41
706.04	20254.41
706.22	23072.42
706.41	22707.88
706.59	17661.68
706.77	13150.01
706.96	11517.78
707.14	10346.34
707.32	9027.45
707.51	7839.62
707.69	6492.06
707.87	5367.73
708.06	4472.76
708.24	3909.57
708.42	3383.24
708.61	3432.40
708.79	2777.05
708.97	2766.81
709.16	2891.73
709.34	2705.37
709.52	2678.74
709.71	2625.50
709.89	2863.06
710.07	2609.11
710.26	2512.86
710.44	2641.88
710.62	2834.39
710.80	2711.51
710.99	2748.37
711.17	2805.72
711.35	2568.15
711.54	2611.16
711.72	2865.11
711.90	2711.51
712.09	2813.91
712.27	2674.65
712.45	2750.42
712.63	2670.55
712.82	2731.99
713.00	2736.09
713.18	2678.74
713.37	2729.94
713.55	2830.29
713.73	2781.14
713.91	2797.53
714.10	2625.50
714.28	2742.23
714.46	2799.57
714.65	2738.13
714.83	2715.61
715.01	2746.33
715.19	2803.67
715.38	2598.87
715.56	2727.89
715.74	2539.48
715.92	2639.83
716.11	2858.96
716.29	2424.80
716.47	2744.28
716.65	2709.46
716.84	2533.34
717.02	2777.05
717.20	2441.18
717.38	2658.26
717.57	2713.56
717.75	2660.31
717.93	2648.02
718.11	2824.15
718.30	2547.67
718.48	2648.02
718.66	2811.86
718.84	2906.07
719.03	2662.36
719.21	2478.04
719.39	3012.56
719.57	2715.61
719.75	2809.81
719.94	2529.24
720.12	2684.89
720.30	2740.18
720.48	2809.81
720.67	2598.87
720.85	2557.91
721.03	2631.64
721.21	2574.30
721.39	2715.61
721.58	2832.34
721.76	2772.95
721.94	2658.26
722.12	2699.22
722.30	3014.61
722.49	2635.74
722.67	2701.27
722.85	2623.45
723.03	2596.82
723.21	2602.97
723.40	2709.46
723.58	2844.63
723.76	2832.34
723.94	2854.87
724.12	2768.85
724.30	2869.20
724.49	2883.54
724.67	2715.61
724.85	2770.90
725.03	2516.95
725.21	2793.43
725.40	2901.97
725.58	2598.87
725.76	2822.10
725.94	2873.30
726.12	2553.82
726.30	2609.11
726.49	2654.17
726.67	2697.17
726.85	2791.38
727.03	3012.56
727.21	4128.70
727.39	5169.07
727.57	5693.35
727.76	6102.95
727.94	6115.23
728.12	5652.39
728.30	4599.74
728.48	4362.17
728.66	4005.83
728.84	3758.02
729.03	3338.19
729.21	3123.15
729.39	3055.57
729.57	2834.39
729.75	2822.10
729.93	2721.75
730.11	2584.54
730.30	2734.04
730.48	2613.21
730.66	2856.92
730.84	2715.61
731.02	2791.38
731.20	2559.96
731.38	2754.52
731.56	2564.06
731.74	2484.19
731.93	2701.27
732.11	2674.65
732.29	2668.50
732.47	2815.96
732.65	2818.00
732.83	2787.29
733.01	2707.41
733.19	2676.70
733.37	2795.48
733.56	2695.13
733.74	2437.08
733.92	2910.16
734.10	2584.54
734.28	2815.96
734.46	2451.42
734.64	2686.94
734.82	2557.91
735.00	2615.26
735.18	2521.05
735.36	2731.99
735.54	2641.88
735.73	2625.50
735.91	2719.70
736.09	2873.30
736.27	2629.59
736.45	2697.17
736.63	2410.46
736.81	2752.47
736.99	2867.16
737.17	2832.34
737.35	2568.15
737.53	2799.57
737.71	2719.70
737.89	2840.53
738.07	2602.97
738.25	2564.06
738.43	2547.67
738.61	2637.78
738.80	2551.77
738.98	2562.01
739.16	2654.17
739.34	2641.88
739.52	2875.35
739.70	2639.83
739.88	2850.77
740.06	2760.66
740.24	2441.18
740.42	2865.11
740.60	2525.15
740.78	2660.31
740.96	2379.74
741.14	2650.07
741.32	2656.22
741.50	2502.62
741.68	2895.83
741.86	2897.88
742.04	2592.73
742.22	2480.09
742.40	2727.89
742.58	2805.72
742.76	2656.22
742.94	2908.12
743.12	2408.41
743.30	2676.70
743.48	2832.34
743.66	2512.86
743.84	2731.99
744.02	2770.90
744.20	2734.04
744.38	2607.06
744.56	2510.81
744.74	2961.36
744.92	2758.61
745.10	2832.34
745.28	2789.33
745.46	2961.36
745.64	2670.55
745.82	2727.89
746.00	2615.26
746.18	2824.15
746.36	2559.96
746.54	2705.37
746.72	2652.12
746.90	2527.19
747.08	2908.12
747.26	2621.40
747.44	2734.04
747.62	2801.62
747.80	2725.85
747.98	2748.37
748.15	2699.22
748.33	2934.74
748.51	2697.17
748.69	2703.32
748.87	2463.71
749.05	2717.65
749.23	2701.27
749.41	2684.89
749.59	2631.64
749.77	2830.29
749.95	2758.61
750.13	2566.10
750.31	2738.13
750.49	2629.59
750.67	2879.44
750.85	2809.81
751.03	2715.61
751.20	2994.13
751.38	2660.31
751.56	2633.69
751.74	2676.70
751.92	2609.11
752.10	2486.23
752.28	2822.10
752.46	2596.82
752.64	2770.90
752.82	2703.32
753.00	2795.48
753.18	2609.11
753.35	2643.93
753.53	2688.98
753.71	2602.97
753.89	2691.03
754.07	2766.81
754.25	2871.25
754.43	2729.94
754.61	2535.39
754.79	2785.24
754.97	2547.67
755.14	2906.07
755.32	2525.15
755.50	2697.17
755.68	2738.13
755.86	2562.01
756.04	2621.40
756.22	2465.75
756.40	2818.00
756.57	2861.01
756.75	2650.07
756.93	2828.24
757.11	2869.20
757.29	2574.30
757.47	2582.49
757.65	2383.84
757.82	2414.56
758.00	2576.34
758.18	2627.54
758.36	2521.05
758.54	2981.84
758.72	2516.95
758.90	2852.82
759.07	2799.57
759.25	2596.82
759.43	2713.56
759.61	2516.95
759.79	3921.86
759.97	2840.53
760.15	2615.26
760.32	2617.30
760.50	2695.13
760.68	2942.93
760.86	2469.85
761.04	2813.91
761.22	2791.38
761.39	2709.46
761.57	2727.89
761.75	2598.87
761.93	2846.68
762.11	2674.65
762.28	2672.60
762.46	2576.34
762.64	2740.18
762.82	2525.15
763.00	2572.25
763.18	2846.68
763.35	2547.67
763.53	2756.57
763.71	2674.65
763.89	2678.74
764.07	2758.61
764.24	2752.47
764.42	2738.13
764.60	2656.22
764.78	2727.89
764.96	2834.39
765.13	2824.15
765.31	2592.73
765.49	2885.59
765.67	2588.63
765.84	2605.02
766.02	2596.82
766.20	2486.23
766.38	2826.20
766.56	2705.37
766.73	2764.76
766.91	2645.98
767.09	2793.43
767.27	2709.46
767.44	2562.01
767.62	2799.57
767.80	2693.08
767.98	2670.55
768.15	2637.78
768.33	2863.06
768.51	2883.54
768.69	2703.32
768.87	2680.79
769.04	2748.37
769.22	3096.53
769.40	2799.57
769.58	2861.01
769.75	2707.41
769.93	2875.35
770.11	2635.74
770.28	2510.81
770.46	2809.81
770.64	2797.53
770.82	2697.17
770.99	2615.26
771.17	2803.67
771.35	2682.84
771.53	2656.22
771.70	2637.78
771.88	2799.57
772.06	2682.84
772.23	2592.73
772.41	2703.32
772.59	2691.03
772.77	2605.02
772.94	2654.17
773.12	2715.61
773.30	2619.35
773.47	2678.74
773.65	2623.45
773.83	2811.86
774.01	2621.40
774.18	2482.14
774.36	2613.21
774.54	2596.82
774.71	2809.81
774.89	2488.28
775.07	2527.19
775.24	2635.74
775.42	2633.69
775.60	3012.56
775.78	2555.86
775.95	2447.32
776.13	2439.13
776.31	2525.15
776.48	2727.89
776.66	2824.15
776.84	2705.37
777.01	2582.49
777.19	2553.82
777.37	2613.21
777.54	2772.95
777.72	2947.03
777.90	2777.05
778.07	2650.07
778.25	3276.75
778.43	2867.16
778.60	2631.64
778.78	2703.32
778.96	2901.97
779.13	2586.58
779.31	2684.89
779.49	2674.65
779.66	2725.85
779.84	2723.80
780.01	2670.55
780.19	2545.63
780.37	2850.77
780.54	2813.91
780.72	2566.10
780.90	2592.73
781.07	2615.26
781.25	2637.78
781.43	2781.14
781.60	2664.41
781.78	2906.07
781.95	2746.33
782.13	2660.31
782.31	2627.54
782.48	2516.95
782.66	2711.51
782.83	2918.36
783.01	2643.93
783.19	2820.05
783.36	2629.59
783.54	2535.39
783.72	2715.61
783.89	2752.47
784.07	2752.47
784.24	2764.76
784.42	2834.39
784.60	2707.41
784.77	2809.81
784.95	2418.65
785.12	2576.34
785.30	2695.13
785.47	2609.11
785.65	2545.63
785.83	2666.46
786.00	2652.12
786.18	2807.77
786.35	2484.19
786.53	2516.95
786.71	2873.30
786.88	2801.62
787.06	2705.37
787.23	2633.69
787.41	2566.10
787.58	2664.41
787.76	2637.78
787.94	2643.93
788.11	2813.91
788.29	2547.67
788.46	2662.36
788.64	2426.84
788.81	2682.84
788.99	2574.30
789.16	2523.10
789.34	2635.74
789.52	2631.64
789.69	2703.32
789.87	2361.31
790.04	2643.93
790.22	2678.74
790.39	2965.46
790.57	2539.48
790.74	2570.20
790.92	2893.78
791.09	2435.03
791.27	2723.80
791.44	2779.09
791.62	2584.54
791.79	2740.18
791.97	2762.71
792.15	2985.94
792.32	2807.77
792.50	2793.43
792.67	2813.91
792.85	2869.20
793.02	2762.71
793.20	2613.21
793.37	2504.67
793.55	2635.74
793.72	2535.39
793.90	2828.24
794.07	2613.21
794.25	2531.29
794.42	2775.00
794.60	2727.89
794.77	2791.38
794.95	2707.41
795.12	2836.44
795.30	2711.51
795.47	2414.56
795.65	3006.42
795.82	2731.99
796.00	2600.92
796.17	2693.08
796.34	2543.58
796.52	2742.23
796.69	2783.19
796.87	2719.70
797.04	2744.28
797.22	2861.01
797.39	2754.52
797.57	2803.67
797.74	2766.81
797.92	2820.05
798.09	2617.30
798.27	2869.20
798.44	2662.36
798.62	2705.37
798.79	2648.02
798.96	2775.00
799.14	2658.26
799.31	3096.53
799.49	2721.75
799.66	2576.34
799.84	2656.22
800.01	2553.82
800.19	2760.66
800.36	2453.47
800.53	2674.65
800.71	2811.86
800.88	2908.12
801.06	2582.49
801.23	2555.86
801.41	2686.94
801.58	2598.87
801.75	2625.50
801.93	2691.03
802.10	2844.63
802.28	2684.89
802.45	2654.17
802.63	2791.38
802.80	2932.69
802.97	2672.60
803.15	2672.60
803.32	2611.16
803.50	2658.26
803.67	2578.39
803.84	2465.75
804.02	2740.18
804.19	2611.16
804.37	2369.50
804.54	2465.75
804.71	2576.34
804.89	2682.84
805.06	2662.36
805.24	2598.87
805.41	2537.43
805.58	2602.97
805.76	3098.58
805.93	2615.26
806.10	2758.61
806.28	2760.66
806.45	2713.56
806.63	2660.31
806.80	2727.89
806.97	2822.10
807.15	2772.95
807.32	2701.27
807.49	2592.73
807.67	2516.95
807.84	2760.66
808.01	2455.51
808.19	2863.06
808.36	3041.23
808.54	2631.64
808.71	2586.58
808.88	2676.70
809.06	2932.69
809.23	2893.78
809.40	2578.39
809.58	2666.46
809.75	2654.17
809.92	2506.71
810.10	2869.20
810.27	2707.41
810.44	2731.99
810.62	2861.01
810.79	2629.59
810.96	2582.49
811.14	2625.50
811.31	2756.57
811.48	2731.99
811.66	2676.70
811.83	2885.59
812.00	2801.62
812.18	2654.17
812.35	2973.65
812.52	2617.30
812.69	2676.70
812.87	2586.58
813.04	2650.07
813.21	2738.13
813.39	2605.02
813.56	2570.20
813.73	2777.05
813.91	2490.33
814.08	2752.47
814.25	2750.42
814.42	2478.04
814.60	2699.22
814.77	2686.94
814.94	2553.82
815.12	2729.94
815.29	2951.12
815.46	2613.21
815.63	2627.54
815.81	2678.74
815.98	2725.85
816.15	2652.12
816.33	2613.21
816.50	2605.02
816.67	2695.13
816.84	2746.33
817.02	2576.34
817.19	2658.26
817.36	2666.46
817.53	2738.13
817.71	2590.68
817.88	2750.42
818.05	2670.55
818.22	2721.75
818.40	2885.59
818.57	2564.06
818.74	2826.20
818.91	2715.61
819.09	2756.57
819.26	2869.20
819.43	2592.73
819.60	2605.02
819.78	2760.66
819.95	2729.94
820.12	2582.49
820.29	2910.16
820.47	2842.58
820.64	2574.30
820.81	2523.10
820.98	2568.15
821.15	2596.82
821.33	2725.85
821.50	2478.04
821.67	2793.43
821.84	2609.11
822.02	2658.26
822.19	2852.82
822.36	2697.17
822.53	2596.82
822.70	2510.81
822.88	2695.13
823.05	2869.20
823.22	2666.46
823.39	2650.07
823.56	2676.70
823.74	2981.84
823.91	2521.05
824.08	2494.43
824.25	2551.77
824.42	2877.40
824.60	2508.76
824.77	2752.47
824.94	2611.16
825.11	2830.29
825.28	2437.08
825.45	2701.27
825.63	2756.57
825.80	2539.48
825.97	2645.98
826.14	2668.50
826.31	2465.75
826.48	2752.47
826.66	2611.16
826.83	2654.17
827.00	2674.65
827.17	2596.82
827.34	2678.74
827.51	2592.73
827.69	2668.50
827.86	2549.72
828.03	2678.74
828.20	2660.31
828.37	2613.21
828.54	2842.58
828.71	2648.02
828.89	2869.20
829.06	2764.76
829.23	2899.92
829.40	2662.36
829.57	2629.59
829.74	2768.85
829.91	2693.08
830.09	2535.39
830.26	2719.70
830.43	2936.79
830.60	2650.07
830.77	2731.99
830.94	2826.20
831.11	2871.25
831.28	2662.36
831.46	2785.24
831.63	2613.21
831.80	2811.86
831.97	2553.82
832.14	2674.65
832.31	2707.41
832.48	2781.14
832.65	2805.72
832.82	2707.41
832.99	2691.03
833.17	2588.63
833.34	2928.60
833.51	2686.94
833.68	2439.13
833.85	2863.06
834.02	2519.00
834.19	2588.63
834.36	2527.19
834.53	2648.02
834.70	2846.68
834.87	2660.31
835.04	2510.81
835.22	2619.35
835.39	2709.46
835.56	2471.90
835.73	2609.11
835.90	2815.96
836.07	2566.10
836.24	2680.79
836.41	2512.86
836.58	2566.10
836.75	2844.63
836.92	2531.29
837.09	2580.44
837.26	2824.15
837.43	2768.85
837.60	2539.48
837.77	2480.09
837.94	2795.48
838.12	2803.67
838.29	2564.06
838.46	2459.61
838.63	2562.01
838.80	2936.79
838.97	2588.63
839.14	2529.24
839.31	2779.09
839.48	2834.39
839.65	2478.04
839.82	2652.12
839.99	2705.37
840.16	2697.17
840.33	2541.53
840.50	2609.11
840.67	2674.65
840.84	2357.21
841.01	2553.82
841.18	2564.06
841.35	2715.61
841.52	2830.29
841.69	2832.34
841.86	2582.49
842.03	2715.61
842.20	2797.53
842.37	2529.24
842.54	2621.40
842.71	2678.74
842.88	2506.71
843.05	2643.93
843.22	2568.15
843.39	2873.30
843.56	2596.82
843.73	2512.86
843.90	2570.20
844.07	2711.51
844.24	2770.90
844.41	2643.93
844.58	2605.02
844.75	2701.27
844.92	2701.27
845.09	2596.82
845.26	2525.15
845.43	2799.57
845.60	2684.89
845.77	2680.79
845.94	2598.87
846.10	2899.92
846.27	2547.67
846.44	2445.27
846.61	2457.56
846.78	2797.53
846.95	2848.72
847.12	2531.29
847.29	2607.06
847.46	2678.74
847.63	2736.09
847.80	2457.56
847.97	2498.52
848.14	2949.08
848.31	2691.03
848.48	2422.75
848.65	2568.15
848.82	2668.50
848.98	3102.67
849.15	2652.12
849.32	2625.50
849.49	2893.78
849.66	2727.89
849.83	2539.48
850.00	2459.61
850.17	2830.29
850.34	2648.02
850.51	2502.62
850.68	2598.87
850.85	3065.81
851.01	2742.23
851.18	2574.30
851.35	2555.86
851.52	2766.81
851.69	2920.40
851.86	2514.91
852.03	2502.62
852.20	2834.39
852.37	2756.57
852.53	2457.56
852.70	2461.66
852.87	2699.22
853.04	2901.97
853.21	2551.77
853.38	2740.18
853.55	2844.63
853.72	2924.50
853.89	2465.75
854.05	2539.48
854.22	2609.11
854.39	2703.32
854.56	2559.96
854.73	2701.27
854.90	2641.88
855.07	2674.65
855.23	2432.99
855.40	2557.91
855.57	2645.98
855.74	2432.99
855.91	2768.85
856.08	2381.79
856.25	2459.61
856.41	2619.35
856.58	2582.49
856.75	2584.54
856.92	2559.96
857.09	2842.58
857.26	2494.43
857.42	2521.05
857.59	2822.10
857.76	2625.50
857.93	2670.55
858.10	2633.69
858.27	2568.15
858.43	2734.04
858.60	2502.62
858.77	2377.69
858.94	2654.17
859.11	2795.48
859.27	2564.06
859.44	2512.86
859.61	3063.76
859.78	2723.80
859.95	2498.52
860.12	2535.39
860.28	3106.77
860.45	3010.51
860.62	2572.25
860.79	2578.39
860.95	2596.82
861.12	2615.26
861.29	2482.14
861.46	2441.18
861.63	2725.85
861.79	2777.05
861.96	2547.67
862.13	2531.29
862.30	2938.84
862.47	2617.30
862.63	2516.95
862.80	2631.64
862.97	2832.34
863.14	2756.57
863.30	2643.93
863.47	2584.54
863.64	2887.64
863.81	2762.71
863.97	2514.91
864.14	2637.78
864.31	2611.16
864.48	2719.70
864.65	2564.06
864.81	2670.55
864.98	2777.05
865.15	2856.92
865.32	2629.59
865.48	2684.89
865.65	2861.01
865.82	2623.45
865.98	2592.73
866.15	2635.74
866.32	2621.40
866.49	2586.58
866.65	2758.61
866.82	2605.02
866.99	2727.89
867.16	2549.72
867.32	2549.72
867.49	2527.19
867.66	2641.88
867.83	2645.98
867.99	2480.09
868.16	2533.34
868.33	2580.44
868.49	2729.94
868.66	2559.96
868.83	2639.83
868.99	2699.22
869.16	2662.36
869.33	2688.98
869.50	2666.46
869.66	2719.70
869.83	2691.03
870.00	2443.23
870.16	2727.89
870.33	2652.12
870.50	2918.36
870.66	2582.49
870.83	2568.15
871.00	2703.32
871.17	2785.24
871.33	2670.55
871.50	2492.38
871.67	2660.31
871.83	2537.43
872.00	2697.17
872.17	2594.78
872.33	2990.03
872.50	2867.16
872.67	2613.21
872.83	2527.19
873.00	2764.76
873.17	2668.50
873.33	2557.91
873.50	2584.54
873.67	2639.83
873.83	2592.73
874.00	2549.72
874.16	2682.84
874.33	2652.12
874.50	2533.34
874.66	2539.48
874.83	2678.74
875.00	2869.20
875.16	2908.12
875.33	2652.12
875.50	2340.83
875.66	2465.75
875.83	2736.09
875.99	2731.99
876.16	2629.59
876.33	2547.67
876.49	2680.79
876.66	2568.15
876.83	2654.17
876.99	2471.90
877.16	2631.64
877.32	2478.04
877.49	2635.74
877.66	2766.81
877.82	2981.84
877.99	2652.12
878.15	2682.84
878.32	2705.37
878.49	2811.86
878.65	2566.10
878.82	2785.24
878.98	2580.44
879.15	2867.16
879.32	2650.07
879.48	2662.36
879.65	2703.32
879.81	2660.31
879.98	2607.06
880.15	2557.91
880.31	2856.92
880.48	2566.10
880.64	2711.51
880.81	2645.98
880.97	2924.50
881.14	2850.77
881.31	2469.85
881.47	2629.59
881.64	2648.02
881.80	2486.23
881.97	2674.65
882.13	2568.15
882.30	2594.78
882.47	2615.26
882.63	2529.24
882.80	2535.39
882.96	2617.30
883.13	2916.31
883.29	2559.96
883.46	2533.34
883.62	3022.80
883.79	2760.66
883.95	2676.70
884.12	2478.04
884.29	2818.00
884.45	2752.47
884.62	2637.78
884.78	2457.56
884.95	2867.16
885.11	2629.59
885.28	2596.82
885.44	2609.11
885.61	2715.61
885.77	2940.88
885.94	2662.36
886.10	2539.48
886.27	2768.85
886.43	2961.36
886.60	2715.61
886.76	2514.91
886.93	2666.46
887.09	2777.05
887.26	2461.66
887.42	2605.02
887.59	2865.11
887.75	2996.18
887.92	2818.00
888.08	2680.79
888.25	2918.36
888.41	2811.86
888.58	2629.59
888.74	2525.15
888.91	2641.88
>>>>>End Processed Spectral Data<<<<<
