SpectraSuite Data File
++++++++++++++++++++++++++++++++++++
Date: Thu May 05 16:21:01 CEST 2016
User: root
Dark Spectrum Present: No
Reference Spectrum Present: No
Number of Sampled Component Spectra: 1
Spectrometers: USB4C02835
Integration Time (usec): 100000 (USB4C02835)
Spectra Averaged: 1 (USB4C02835)
Boxcar Smoothing: 0 (USB4C02835)
Correct for Electrical Dark: No (USB4C02835)
Strobe/Lamp Enabled: No (USB4C02835)
Correct for Detector Non-linearity: No (USB4C02835)
Correct for Stray Light: No (USB4C02835)
Number of Pixels in Processed Spectrum: 3648
>>>>>Begin Processed Spectral Data<<<<<
177.47	2027.49
177.69	2027.49
177.91	2027.49
178.13	2074.59
178.36	2115.55
178.58	2596.82
178.80	2727.89
179.02	2525.15
179.24	2553.82
179.46	2475.99
179.68	2478.04
179.90	2623.45
180.13	2721.75
180.35	2437.08
180.57	2478.04
180.79	2908.12
181.01	2652.12
181.23	2541.53
181.45	2645.98
181.67	2777.05
181.90	2867.16
182.12	2490.33
182.34	2357.21
182.56	2781.14
182.78	2828.24
183.00	2519.00
183.22	2527.19
183.44	2426.84
183.66	3141.58
183.89	2602.97
184.11	2541.53
184.33	2838.48
184.55	2928.60
184.77	2445.27
184.99	2508.76
185.21	2641.88
185.43	3168.21
185.65	2506.71
185.87	2424.80
186.10	3016.66
186.32	3059.67
186.54	2580.44
186.76	2643.93
186.98	2840.53
187.20	2709.46
187.42	2516.95
187.64	2475.99
187.86	2768.85
188.08	2883.54
188.30	2469.85
188.52	2500.57
188.75	2920.40
188.97	2934.74
189.19	2514.91
189.41	2471.90
189.63	2731.99
189.85	2701.27
190.07	2439.13
190.29	2383.84
190.51	2775.00
190.73	2551.77
190.95	2588.63
191.17	2553.82
191.39	2547.67
191.61	2684.89
191.84	2475.99
192.06	2605.02
192.28	2502.62
192.50	3192.78
192.72	2549.72
192.94	2531.29
193.16	2906.07
193.38	2764.76
193.60	2400.22
193.82	2572.25
194.04	2953.17
194.26	2670.55
194.48	2469.85
194.70	2478.04
194.92	2742.23
195.14	2844.63
195.36	2418.65
195.58	2508.76
195.80	2686.94
196.02	2639.83
196.24	2480.09
196.46	2531.29
196.69	2670.55
196.91	3092.43
197.13	2451.42
197.35	2463.71
197.57	2981.84
197.79	2693.08
198.01	2492.38
198.23	2586.58
198.45	2758.61
198.67	2512.86
198.89	2375.64
199.11	2586.58
199.33	2611.16
199.55	2441.18
199.77	2523.10
199.99	2697.17
200.21	2652.12
200.43	2754.52
200.65	2432.99
200.87	2435.03
201.09	2807.77
201.31	2758.61
201.53	2549.72
201.75	2562.01
201.97	2770.90
202.19	2688.98
202.41	2523.10
202.63	2682.84
202.85	2846.68
203.07	2750.42
203.29	2553.82
203.51	2455.51
203.73	2570.20
203.95	3153.87
204.17	2473.95
204.39	2650.07
204.61	2727.89
204.83	2662.36
205.05	2568.15
205.27	2564.06
205.49	3084.24
205.71	2756.57
205.93	2469.85
206.15	2457.56
206.37	2723.80
206.59	2615.26
206.81	2422.75
207.03	2422.75
207.25	2578.39
207.47	2822.10
207.69	2498.52
207.91	2717.65
208.13	2918.36
208.34	2707.41
208.56	2416.60
208.78	2465.75
209.00	2662.36
209.22	2695.13
209.44	2529.24
209.66	2445.27
209.88	2717.65
210.10	2652.12
210.32	2523.10
210.54	2607.06
210.76	2652.12
210.98	2852.82
211.20	2418.65
211.42	2596.82
211.64	2922.45
211.86	2811.86
212.08	2578.39
212.30	2529.24
212.52	2615.26
212.74	2781.14
212.96	2531.29
213.17	2592.73
213.39	2879.44
213.61	2967.51
213.83	2527.19
214.05	2428.89
214.27	2916.31
214.49	2627.54
214.71	2414.56
214.93	2703.32
215.15	2744.28
215.37	2830.29
215.59	2387.93
215.81	2600.92
216.03	2914.26
216.24	2731.99
216.46	2500.57
216.68	2535.39
216.90	2785.24
217.12	2828.24
217.34	2488.28
217.56	2654.17
217.78	2877.40
218.00	2809.81
218.22	2582.49
218.44	2633.69
218.66	2684.89
218.87	2998.23
219.09	2469.85
219.31	2607.06
219.53	2793.43
219.75	2623.45
219.97	2549.72
220.19	2459.61
220.41	2691.03
220.63	2961.36
220.85	2555.86
221.06	2564.06
221.28	2930.64
221.50	2756.57
221.72	2451.42
221.94	2398.17
222.16	2707.41
222.38	2891.73
222.60	2512.86
222.82	2541.53
223.03	2822.10
223.25	2615.26
223.47	2467.80
223.69	2787.29
223.91	2828.24
224.13	2766.81
224.35	2441.18
224.57	2717.65
224.78	2848.72
225.00	2592.73
225.22	2584.54
225.44	2449.37
225.66	2858.96
225.88	2680.79
226.10	2654.17
226.32	2555.86
226.53	2990.03
226.75	2648.02
226.97	2555.86
227.19	2580.44
227.41	2625.50
227.63	2584.54
227.85	2396.12
228.06	2521.05
228.28	2707.41
228.50	2889.68
228.72	2346.97
228.94	2482.14
229.16	2465.75
229.37	2527.19
229.59	2482.14
229.81	2785.24
230.03	2613.21
230.25	2588.63
230.47	2416.60
230.69	2447.32
230.90	2805.72
231.12	2639.83
231.34	2486.23
231.56	2633.69
231.78	2547.67
232.00	2729.94
232.21	2596.82
232.43	2525.15
232.65	2463.71
232.87	2725.85
233.09	2422.75
233.30	2420.70
233.52	2775.00
233.74	2717.65
233.96	2469.85
234.18	2633.69
234.40	2748.37
234.61	3061.71
234.83	2398.17
235.05	2416.60
235.27	2985.94
235.49	2904.02
235.70	2482.14
235.92	2555.86
236.14	2840.53
236.36	3026.90
236.58	2416.60
236.79	2666.46
237.01	2750.42
237.23	2731.99
237.45	2775.00
237.67	2584.54
237.88	2848.72
238.10	3043.28
238.32	2449.37
238.54	2490.33
238.76	2721.75
238.97	2596.82
239.19	2461.66
239.41	2568.15
239.63	2815.96
239.85	2719.70
240.06	2578.39
240.28	2482.14
240.50	2850.77
240.72	2707.41
240.93	2389.98
241.15	2701.27
241.37	2717.65
241.59	2879.44
241.81	2516.95
242.02	2559.96
242.24	2734.04
242.46	2891.73
242.68	2387.93
242.89	2475.99
243.11	2940.88
243.33	2678.74
243.55	2519.00
243.76	2486.23
243.98	2590.68
244.20	2668.50
244.42	2482.14
244.64	2527.19
244.85	2527.19
245.07	2631.64
245.29	2533.34
245.51	2514.91
245.72	2729.94
245.94	2813.91
246.16	2547.67
246.38	2623.45
246.59	2627.54
246.81	2570.20
247.03	2428.89
247.24	2377.69
247.46	2629.59
247.68	2787.29
247.90	2465.75
248.11	2482.14
248.33	2867.16
248.55	2740.18
248.77	2619.35
248.98	2580.44
249.20	2971.60
249.42	2783.19
249.64	2498.52
249.85	2480.09
250.07	2609.11
250.29	2895.83
250.50	2545.63
250.72	2451.42
250.94	2791.38
251.16	3123.15
251.37	2494.43
251.59	2596.82
251.81	2779.09
252.02	2912.21
252.24	2502.62
252.46	2684.89
252.68	2600.92
252.89	2641.88
253.11	2340.83
253.33	2664.41
253.54	3008.47
253.76	2562.01
253.98	2455.51
254.20	2596.82
254.41	2574.30
254.63	2705.37
254.85	2406.36
255.06	2533.34
255.28	2785.24
255.50	2658.26
255.71	2541.53
255.93	2314.20
256.15	2654.17
256.36	2795.48
256.58	2449.37
256.80	2514.91
257.02	2668.50
257.23	2686.94
257.45	2506.71
257.67	2537.43
257.88	2635.74
258.10	2824.15
258.32	2582.49
258.53	2631.64
258.75	2869.20
258.97	2506.71
259.18	2437.08
259.40	2506.71
259.62	2977.75
259.83	2906.07
260.05	2555.86
260.27	3192.78
260.48	2869.20
260.70	2549.72
260.92	2408.41
261.13	2570.20
261.35	2820.05
261.57	2754.52
261.78	2385.88
262.00	2447.32
262.22	2783.19
262.43	2641.88
262.65	2533.34
262.86	2494.43
263.08	3080.14
263.30	2717.65
263.51	2344.92
263.73	2439.13
263.95	2990.03
264.16	2578.39
264.38	2424.80
264.60	2519.00
264.81	2674.65
265.03	2815.96
265.25	2789.33
265.46	2443.23
265.68	2938.84
265.89	2787.29
266.11	2447.32
266.33	2539.48
266.54	2877.40
266.76	2760.66
266.98	2574.30
267.19	2664.41
267.41	2785.24
267.62	2660.31
267.84	2342.88
268.06	2643.93
268.27	2740.18
268.49	2916.31
268.70	2596.82
268.92	2519.00
269.14	2586.58
269.35	2568.15
269.57	2580.44
269.79	2572.25
270.00	2613.21
270.22	2987.99
270.43	2392.03
270.65	2379.74
270.87	2731.99
271.08	2856.92
271.30	2676.70
271.51	2553.82
271.73	2803.67
271.95	2955.22
272.16	2486.23
272.38	2623.45
272.59	2639.83
272.81	2842.58
273.02	2475.99
273.24	2566.10
273.46	2906.07
273.67	2570.20
273.89	2373.60
274.10	2490.33
274.32	2883.54
274.54	2695.13
274.75	2605.02
274.97	2523.10
275.18	2850.77
275.40	2762.71
275.61	2547.67
275.83	2699.22
276.05	2600.92
276.26	2705.37
276.48	2617.30
276.69	2615.26
276.91	2609.11
277.12	2897.88
277.34	2684.89
277.55	2672.60
277.77	2695.13
277.99	2660.31
278.20	2594.78
278.42	2502.62
278.63	2602.97
278.85	2535.39
279.06	2482.14
279.28	2635.74
279.49	2842.58
279.71	2858.96
279.93	2658.26
280.14	2623.45
280.36	2582.49
280.57	2791.38
280.79	2701.27
281.00	2523.10
281.22	2588.63
281.43	2895.83
281.65	2346.97
281.86	2559.96
282.08	2824.15
282.29	3035.09
282.51	2432.99
282.73	2531.29
282.94	2469.85
283.16	2815.96
283.37	2740.18
283.59	2662.36
283.80	2852.82
284.02	2752.47
284.23	2686.94
284.45	2619.35
284.66	2611.16
284.88	2555.86
285.09	2637.78
285.31	2668.50
285.52	2752.47
285.74	2482.14
285.95	2693.08
286.17	2645.98
286.38	2875.35
286.60	2654.17
286.81	2588.63
287.03	2596.82
287.24	2600.92
287.46	2865.11
287.67	2703.32
287.89	2738.13
288.10	2785.24
288.32	2723.80
288.53	2809.81
288.75	2635.74
288.96	2822.10
289.18	2586.58
289.39	2494.43
289.61	2707.41
289.82	3129.30
290.04	2981.84
290.25	2500.57
290.47	2693.08
290.68	2725.85
290.90	2928.60
291.11	2422.75
291.33	2742.23
291.54	2582.49
291.76	2615.26
291.97	2699.22
292.18	2691.03
292.40	2670.55
292.61	2537.43
292.83	2912.21
293.04	2680.79
293.26	2785.24
293.47	2654.17
293.69	2512.86
293.90	2568.15
294.12	2947.03
294.33	2695.13
294.55	2682.84
294.76	2731.99
294.97	2947.03
295.19	3063.76
295.40	2588.63
295.62	2631.64
295.83	2906.07
296.05	2586.58
296.26	2729.94
296.48	2619.35
296.69	2736.09
296.90	2695.13
297.12	2779.09
297.33	2777.05
297.55	2789.33
297.76	2793.43
297.98	2635.74
298.19	2662.36
298.41	2740.18
298.62	2570.20
298.83	2795.48
299.05	2654.17
299.26	2645.98
299.48	2578.39
299.69	2678.74
299.90	2633.69
300.12	2637.78
300.33	2760.66
300.55	2570.20
300.76	2629.59
300.98	2572.25
301.19	2863.06
301.40	2535.39
301.62	2557.91
301.83	2830.29
302.05	2777.05
302.26	2508.76
302.47	2611.16
302.69	2559.96
302.90	2703.32
303.12	2371.55
303.33	2596.82
303.54	3045.33
303.76	2684.89
303.97	2641.88
304.19	2826.20
304.40	2572.25
304.61	2838.48
304.83	2779.09
305.04	2695.13
305.26	2791.38
305.47	2625.50
305.68	2519.00
305.90	2484.19
306.11	2926.55
306.33	2658.26
306.54	2510.81
306.75	2533.34
306.97	2504.67
307.18	2680.79
307.39	2523.10
307.61	2670.55
307.82	2676.70
308.04	2809.81
308.25	2549.72
308.46	2738.13
308.68	2709.46
308.89	2691.03
309.10	2752.47
309.32	2660.31
309.53	2686.94
309.74	2789.33
309.96	2588.63
310.17	2762.71
310.39	2592.73
310.60	2893.78
310.81	2674.65
311.03	2455.51
311.24	2854.87
311.45	2787.29
311.67	2787.29
311.88	2740.18
312.09	2633.69
312.31	2703.32
312.52	2590.68
312.73	2555.86
312.95	2521.05
313.16	2680.79
313.37	2727.89
313.59	2709.46
313.80	2861.01
314.01	2942.93
314.23	2562.01
314.44	2582.49
314.65	2473.95
314.87	2580.44
315.08	2568.15
315.29	2516.95
315.51	2553.82
315.72	2516.95
315.93	2752.47
316.15	2662.36
316.36	2652.12
316.57	2746.33
316.79	2588.63
317.00	2607.06
317.21	2791.38
317.43	2629.59
317.64	2559.96
317.85	2578.39
318.07	2676.70
318.28	2645.98
318.49	2719.70
318.70	2883.54
318.92	2727.89
319.13	2809.81
319.34	2879.44
319.56	2660.31
319.77	2820.05
319.98	2811.86
320.20	2772.95
320.41	2766.81
320.62	2750.42
320.83	2504.67
321.05	2842.58
321.26	2625.50
321.47	2643.93
321.69	2836.44
321.90	2539.48
322.11	2586.58
322.32	2742.23
322.54	2969.55
322.75	2578.39
322.96	3155.92
323.18	2559.96
323.39	2461.66
323.60	2523.10
323.81	2715.61
324.03	2693.08
324.24	2609.11
324.45	2791.38
324.66	2572.25
324.88	2940.88
325.09	2985.94
325.30	2553.82
325.52	2613.21
325.73	2762.71
325.94	2590.68
326.15	2480.09
326.37	2484.19
326.58	2916.31
326.79	2996.18
327.00	2482.14
327.22	2584.54
327.43	2596.82
327.64	2621.40
327.85	2744.28
328.07	2699.22
328.28	2998.23
328.49	2531.29
328.70	2523.10
328.92	2631.64
329.13	2709.46
329.34	2848.72
329.55	2805.72
329.76	2607.06
329.98	2627.54
330.19	2963.41
330.40	2664.41
330.61	2668.50
330.83	2789.33
331.04	2576.34
331.25	2695.13
331.46	2580.44
331.68	2488.28
331.89	2848.72
332.10	2682.84
332.31	2498.52
332.52	2633.69
332.74	2844.63
332.95	2439.13
333.16	2625.50
333.37	2779.09
333.58	2625.50
333.80	2674.65
334.01	2471.90
334.22	2727.89
334.43	2580.44
334.64	2582.49
334.86	2537.43
335.07	2609.11
335.28	2912.21
335.49	2498.52
335.70	2684.89
335.92	2932.69
336.13	2990.03
336.34	2703.32
336.55	2643.93
336.76	2777.05
336.98	2455.51
337.19	2643.93
337.40	2785.24
337.61	3092.43
337.82	2658.26
338.04	2650.07
338.25	2441.18
338.46	2695.13
338.67	2641.88
338.88	2441.18
339.09	2521.05
339.31	2686.94
339.52	2471.90
339.73	2510.81
339.94	2637.78
340.15	2805.72
340.36	2705.37
340.58	2613.21
340.79	2453.47
341.00	2783.19
341.21	2545.63
341.42	2906.07
341.63	2625.50
341.85	2873.30
342.06	2734.04
342.27	2564.06
342.48	2744.28
342.69	2574.30
342.90	2809.81
343.12	2850.77
343.33	2588.63
343.54	2953.17
343.75	2891.73
343.96	2654.17
344.17	2473.95
344.38	2697.17
344.60	2584.54
344.81	2553.82
345.02	2629.59
345.23	2873.30
345.44	3084.24
345.65	2707.41
345.86	2701.27
346.07	2818.00
346.29	2637.78
346.50	2715.61
346.71	2727.89
346.92	2897.88
347.13	2973.65
347.34	2660.31
347.55	2537.43
347.76	2811.86
347.98	2496.47
348.19	2596.82
348.40	2779.09
348.61	2650.07
348.82	2992.08
349.03	2631.64
349.24	2521.05
349.45	3059.67
349.66	2451.42
349.88	2621.40
350.09	2590.68
350.30	2920.40
350.51	2885.59
350.72	2768.85
350.93	2637.78
351.14	2656.22
351.35	2783.19
351.56	2713.56
351.77	2621.40
351.99	2834.39
352.20	2924.50
352.41	2731.99
352.62	2396.12
352.83	2695.13
353.04	2674.65
353.25	2557.91
353.46	2742.23
353.67	2875.35
353.88	2488.28
354.09	2607.06
354.30	2648.02
354.52	2836.44
354.73	2695.13
354.94	2600.92
355.15	2680.79
355.36	2969.55
355.57	2627.54
355.78	2559.96
355.99	2609.11
356.20	2682.84
356.41	2996.18
356.62	2674.65
356.83	2584.54
357.04	2957.27
357.25	2457.56
357.46	2598.87
357.68	2514.91
357.89	2568.15
358.10	2639.83
358.31	2605.02
358.52	2609.11
358.73	2568.15
358.94	2615.26
359.15	2582.49
359.36	2750.42
359.57	2717.65
359.78	2713.56
359.99	2731.99
360.20	2527.19
360.41	2668.50
360.62	2785.24
360.83	2686.94
361.04	2688.98
361.25	2828.24
361.46	2885.59
361.67	2768.85
361.88	2666.46
362.09	2879.44
362.30	2744.28
362.51	2547.67
362.72	2648.02
362.93	2891.73
363.14	2744.28
363.35	2652.12
363.56	2559.96
363.78	2971.60
363.99	2936.79
364.20	2580.44
364.41	2725.85
364.62	2971.60
364.83	2744.28
365.04	2578.39
365.25	2619.35
365.46	3022.80
365.67	2617.30
365.88	2717.65
366.09	2584.54
366.30	2744.28
366.51	2781.14
366.72	2582.49
366.93	2498.52
367.14	2725.85
367.35	2942.93
367.56	2572.25
367.77	2768.85
367.98	2731.99
368.18	2789.33
368.39	2789.33
368.60	2512.86
368.81	2828.24
369.02	2779.09
369.23	2592.73
369.44	2371.55
369.65	2629.59
369.86	2772.95
370.07	2658.26
370.28	2578.39
370.49	2836.44
370.70	2664.41
370.91	2566.10
371.12	2478.04
371.33	2846.68
371.54	2641.88
371.75	2731.99
371.96	2357.21
372.17	2764.76
372.38	2766.81
372.59	2607.06
372.80	2553.82
373.01	2695.13
373.22	2768.85
373.43	2555.86
373.64	2478.04
373.85	2957.27
374.06	2930.64
374.26	2744.28
374.47	2635.74
374.68	2875.35
374.89	2822.10
375.10	2592.73
375.31	2680.79
375.52	2760.66
375.73	2801.62
375.94	2496.47
376.15	2768.85
376.36	2574.30
376.57	2656.22
376.78	2568.15
376.99	2697.17
377.20	2916.31
377.40	2764.76
377.61	2944.98
377.82	2465.75
378.03	2930.64
378.24	2854.87
378.45	2682.84
378.66	2695.13
378.87	2506.71
379.08	2525.15
379.29	2586.58
379.50	2742.23
379.71	2791.38
379.91	2904.02
380.12	2559.96
380.33	2641.88
380.54	2750.42
380.75	2721.75
380.96	2607.06
381.17	2768.85
381.38	2719.70
381.59	2695.13
381.80	2609.11
382.00	2883.54
382.21	2815.96
382.42	2938.84
382.63	2914.26
382.84	2691.03
383.05	2846.68
383.26	2854.87
383.47	2670.55
383.68	2629.59
383.88	2775.00
384.09	2756.57
384.30	2834.39
384.51	2703.32
384.72	2607.06
384.93	2580.44
385.14	2688.98
385.35	2799.57
385.55	2582.49
385.76	2904.02
385.97	2609.11
386.18	2455.51
386.39	2629.59
386.60	2615.26
386.81	2600.92
387.02	2527.19
387.22	2555.86
387.43	2781.14
387.64	2811.86
387.85	2828.24
388.06	2877.40
388.27	4032.45
388.48	7569.29
388.68	10897.24
388.89	13305.65
389.10	14477.09
389.31	13786.93
389.52	10930.01
389.73	9369.46
389.93	8693.63
390.14	7884.68
390.35	7284.62
390.56	6234.02
390.77	5218.22
390.98	4069.31
391.18	3448.78
391.39	3135.44
391.60	2731.99
391.81	2850.77
392.02	2619.35
392.23	3082.19
392.43	2834.39
392.64	2828.24
392.85	2723.80
393.06	3018.71
393.27	2760.66
393.47	2547.67
393.68	2705.37
393.89	2686.94
394.10	2951.12
394.31	2611.16
394.52	2529.24
394.72	2695.13
394.93	2969.55
395.14	2527.19
395.35	2707.41
395.56	2613.21
395.76	2701.27
395.97	2723.80
396.18	2695.13
396.39	2848.72
396.60	3176.40
396.80	2881.49
397.01	2783.19
397.22	2834.39
397.43	2826.20
397.64	2607.06
397.84	2795.48
398.05	3043.28
398.26	2715.61
398.47	2709.46
398.67	2824.15
398.88	2680.79
399.09	2887.64
399.30	2574.30
399.51	2670.55
399.71	2639.83
399.92	2797.53
400.13	2691.03
400.34	2670.55
400.54	2731.99
400.75	2951.12
400.96	2727.89
401.17	2897.88
401.37	2822.10
401.58	2723.80
401.79	2654.17
402.00	2742.23
402.21	3147.73
402.41	2967.51
402.62	2977.75
402.83	3055.57
403.04	3049.43
403.24	3291.09
403.45	2725.85
403.66	2889.68
403.87	2977.75
404.07	3086.29
404.28	2893.78
404.49	2901.97
404.70	2764.76
404.90	2795.48
405.11	2543.58
405.32	2736.09
405.52	2662.36
405.73	2605.02
405.94	2549.72
406.15	2676.70
406.35	2781.14
406.56	2885.59
406.77	2668.50
406.98	2738.13
407.18	2631.64
407.39	2957.27
407.60	2688.98
407.80	2703.32
408.01	2686.94
408.22	2818.00
408.43	2586.58
408.63	2748.37
408.84	2893.78
409.05	2830.29
409.25	2623.45
409.46	2580.44
409.67	2695.13
409.88	2662.36
410.08	2701.27
410.29	2578.39
410.50	2871.25
410.70	2766.81
410.91	2537.43
411.12	2666.46
411.32	2727.89
411.53	2562.01
411.74	2592.73
411.95	2768.85
412.15	2826.20
412.36	2793.43
412.57	2789.33
412.77	2822.10
412.98	2701.27
413.19	2662.36
413.39	2705.37
413.60	2691.03
413.81	2916.31
414.01	2600.92
414.22	2701.27
414.43	2709.46
414.63	2691.03
414.84	2885.59
415.05	2629.59
415.25	2478.04
415.46	2881.49
415.67	2684.89
415.87	2668.50
416.08	2635.74
416.29	2613.21
416.49	2865.11
416.70	2662.36
416.91	2648.02
417.11	2727.89
417.32	2826.20
417.53	2717.65
417.73	2650.07
417.94	2756.57
418.15	2734.04
418.35	2729.94
418.56	2621.40
418.77	3145.68
418.97	2701.27
419.18	2596.82
419.38	2365.40
419.59	2660.31
419.80	2963.41
420.00	2652.12
420.21	2676.70
420.42	2908.12
420.62	2832.34
420.83	2629.59
421.04	2605.02
421.24	2674.65
421.45	2891.73
421.65	2633.69
421.86	2629.59
422.07	2830.29
422.27	2838.48
422.48	2566.10
422.69	2525.15
422.89	2686.94
423.10	2637.78
423.30	2557.91
423.51	2652.12
423.72	2815.96
423.92	2848.72
424.13	2473.95
424.33	2639.83
424.54	2807.77
424.75	2707.41
424.95	2766.81
425.16	2600.92
425.36	2727.89
425.57	2850.77
425.78	2715.61
425.98	2740.18
426.19	2664.41
426.39	2512.86
426.60	2777.05
426.81	2740.18
427.01	2818.00
427.22	2613.21
427.42	2426.84
427.63	2584.54
427.83	2842.58
428.04	2914.26
428.25	2750.42
428.45	2787.29
428.66	2885.59
428.86	2768.85
429.07	2664.41
429.28	2650.07
429.48	2672.60
429.69	2635.74
429.89	2707.41
430.10	2590.68
430.30	2838.48
430.51	2889.68
430.71	2605.02
430.92	2691.03
431.13	2699.22
431.33	2801.62
431.54	2705.37
431.74	2809.81
431.95	3018.71
432.15	2602.97
432.36	2715.61
432.56	2631.64
432.77	3020.75
432.98	2922.45
433.18	2672.60
433.39	2557.91
433.59	2654.17
433.80	3059.67
434.00	2944.98
434.21	2637.78
434.41	2729.94
434.62	3088.34
434.82	2637.78
435.03	2670.55
435.23	2785.24
435.44	2510.81
435.64	2652.12
435.85	2738.13
436.06	2822.10
436.26	2934.74
436.47	2672.60
436.67	2629.59
436.88	2684.89
437.08	2799.57
437.29	2758.61
437.49	2791.38
437.70	2910.16
437.90	2725.85
438.11	2787.29
438.31	2725.85
438.52	2840.53
438.72	2949.08
438.93	2912.21
439.13	2787.29
439.34	2811.86
439.54	2633.69
439.75	2768.85
439.95	2752.47
440.16	2514.91
440.36	2758.61
440.57	2676.70
440.77	2664.41
440.98	2766.81
441.18	2820.05
441.39	2543.58
441.59	2496.47
441.80	3039.19
442.00	2748.37
442.21	2764.76
442.41	2516.95
442.62	2838.48
442.82	2592.73
443.02	2627.54
443.23	2688.98
443.43	2641.88
443.64	2944.98
443.84	2613.21
444.05	2772.95
444.25	2783.19
444.46	2674.65
444.66	2652.12
444.87	2830.29
445.07	2531.29
445.28	2678.74
445.48	2914.26
445.69	2734.04
445.89	3067.86
446.09	2701.27
446.30	2940.88
446.50	3043.28
446.71	4612.03
446.91	5662.63
447.12	6422.43
447.32	6795.16
447.53	6502.30
447.73	5435.31
447.93	4755.38
448.14	4564.92
448.34	4431.80
448.55	3760.07
448.75	3919.81
448.96	3561.42
449.16	3418.06
449.36	3235.79
449.57	2922.45
449.77	2703.32
449.98	2672.60
450.18	2809.81
450.39	2701.27
450.59	2869.20
450.79	2721.75
451.00	2678.74
451.20	2793.43
451.41	2631.64
451.61	2791.38
451.81	2740.18
452.02	2623.45
452.22	2691.03
452.43	2617.30
452.63	2607.06
452.84	2688.98
453.04	2607.06
453.24	2768.85
453.45	2652.12
453.65	2695.13
453.86	2695.13
454.06	2826.20
454.26	2699.22
454.47	2650.07
454.67	2777.05
454.87	2799.57
455.08	2670.55
455.28	2858.96
455.49	2721.75
455.69	2572.25
455.89	3061.71
456.10	2777.05
456.30	2611.16
456.51	2836.44
456.71	2789.33
456.91	2717.65
457.12	2664.41
457.32	2770.90
457.52	2572.25
457.73	2731.99
457.93	2828.24
458.14	2670.55
458.34	2512.86
458.54	2654.17
458.75	2590.68
458.95	2760.66
459.15	2713.56
459.36	2711.51
459.56	2668.50
459.76	3080.14
459.97	2672.60
460.17	2727.89
460.37	2785.24
460.58	2723.80
460.78	2826.20
460.99	2641.88
461.19	2654.17
461.39	2701.27
461.60	2645.98
461.80	2748.37
462.00	2611.16
462.21	2668.50
462.41	2650.07
462.61	2566.10
462.82	2449.37
463.02	2785.24
463.22	2781.14
463.43	2717.65
463.63	2676.70
463.83	2856.92
464.04	2848.72
464.24	2576.34
464.44	2586.58
464.64	2766.81
464.85	2762.71
465.05	2717.65
465.25	2611.16
465.46	2709.46
465.66	2775.00
465.86	2766.81
466.07	2629.59
466.27	2760.66
466.47	2574.30
466.68	2463.71
466.88	2795.48
467.08	2775.00
467.29	2891.73
467.49	2668.50
467.69	2682.84
467.89	2789.33
468.10	2748.37
468.30	2719.70
468.50	2744.28
468.71	2924.50
468.91	2514.91
469.11	2852.82
469.31	2664.41
469.52	2566.10
469.72	2967.51
469.92	2883.54
470.13	2645.98
470.33	2723.80
470.53	2818.00
470.73	3000.27
470.94	3276.75
471.14	3368.91
471.34	3817.41
471.54	3645.38
471.75	3340.24
471.95	3110.86
472.15	3026.90
472.36	3137.49
472.56	3041.23
472.76	3135.44
472.96	3117.01
473.17	2922.45
473.37	2783.19
473.57	2705.37
473.77	2791.38
473.98	2785.24
474.18	2553.82
474.38	3186.64
474.58	2719.70
474.79	2582.49
474.99	2693.08
475.19	2928.60
475.39	2586.58
475.60	2715.61
475.80	2678.74
476.00	2856.92
476.20	2754.52
476.41	2637.78
476.61	2721.75
476.81	2897.88
477.01	2613.21
477.21	2809.81
477.42	2822.10
477.62	2566.10
477.82	2906.07
478.02	2660.31
478.23	2713.56
478.43	2559.96
478.63	2711.51
478.83	2641.88
479.03	2650.07
479.24	2885.59
479.44	3026.90
479.64	2555.86
479.84	2445.27
480.04	2615.26
480.25	2842.58
480.45	2619.35
480.65	2656.22
480.85	3030.99
481.06	2623.45
481.26	2750.42
481.46	2670.55
481.66	2820.05
481.86	2570.20
482.06	2754.52
482.27	2668.50
482.47	2746.33
482.67	2701.27
482.87	2652.12
483.07	2705.37
483.28	2652.12
483.48	2496.47
483.68	2588.63
483.88	2570.20
484.08	2506.71
484.29	2600.92
484.49	2693.08
484.69	2441.18
484.89	2908.12
485.09	2893.78
485.29	2736.09
485.50	2842.58
485.70	2770.90
485.90	2936.79
486.10	2760.66
486.30	2639.83
486.50	2924.50
486.71	2775.00
486.91	2717.65
487.11	2777.05
487.31	2576.34
487.51	2764.76
487.71	2545.63
487.91	2613.21
488.12	2654.17
488.32	2344.92
488.52	2525.15
488.72	2416.60
488.92	2736.09
489.12	2832.34
489.32	2797.53
489.53	2676.70
489.73	2465.75
489.93	2979.79
490.13	2654.17
490.33	2521.05
490.53	2779.09
490.73	2936.79
490.94	2406.36
491.14	2791.38
491.34	2848.72
491.54	2963.41
491.74	3530.70
491.94	3973.06
492.14	4462.52
492.34	4444.09
492.54	4093.89
492.75	3420.11
492.95	3676.10
493.15	3370.96
493.35	3332.05
493.55	3219.41
493.75	3170.26
493.95	3157.97
494.15	2924.50
494.35	2727.89
494.56	2695.13
494.76	2621.40
494.96	2779.09
495.16	2664.41
495.36	2785.24
495.56	2727.89
495.76	2711.51
495.96	2695.13
496.16	2564.06
496.36	2930.64
496.56	2727.89
496.77	2709.46
496.97	2691.03
497.17	2977.75
497.37	2486.23
497.57	2682.84
497.77	2787.29
497.97	2588.63
498.17	2678.74
498.37	2670.55
498.57	2738.13
498.77	2631.64
498.97	2799.57
499.17	2971.60
499.38	2725.85
499.58	2850.77
499.78	2836.44
499.98	2785.24
500.18	2731.99
500.38	2670.55
500.58	2801.62
500.78	3260.37
500.98	5373.87
501.18	7243.67
501.38	8714.11
501.58	9498.48
501.78	9498.48
501.98	7690.12
502.18	6516.64
502.38	5656.49
502.58	5439.40
502.78	4769.72
502.98	4685.75
503.18	4511.68
503.38	4003.78
503.59	3585.99
503.79	3475.40
503.99	3270.61
504.19	3176.40
504.39	3182.54
504.59	3157.97
504.79	3170.26
504.99	3243.98
505.19	2957.27
505.39	2830.29
505.59	2969.55
505.79	2949.08
505.99	2934.74
506.19	2660.31
506.39	2818.00
506.59	2686.94
506.79	2619.35
506.99	2848.72
507.19	2686.94
507.39	2721.75
507.59	2574.30
507.79	2590.68
507.99	2541.53
508.19	2615.26
508.39	2660.31
508.59	2734.04
508.79	2760.66
508.99	3051.47
509.19	2662.36
509.39	2785.24
509.59	2602.97
509.79	2633.69
509.99	2793.43
510.19	2826.20
510.39	2740.18
510.59	2740.18
510.79	2670.55
510.99	2535.39
511.19	2639.83
511.39	2908.12
511.59	2906.07
511.79	2801.62
511.99	2688.98
512.19	2944.98
512.38	2785.24
512.58	2588.63
512.78	2582.49
512.98	2955.22
513.18	2942.93
513.38	2512.86
513.58	2772.95
513.78	2791.38
513.98	2709.46
514.18	2613.21
514.38	2637.78
514.58	2781.14
514.78	2623.45
514.98	2529.24
515.18	2680.79
515.38	2504.67
515.58	2985.94
515.78	2629.59
515.98	2719.70
516.18	2848.72
516.38	2691.03
516.57	2627.54
516.77	2582.49
516.97	2795.48
517.17	2592.73
517.37	2471.90
517.57	2748.37
517.77	2764.76
517.97	2582.49
518.17	2734.04
518.37	2523.10
518.57	2588.63
518.77	2688.98
518.97	2645.98
519.16	2652.12
519.36	2938.84
519.56	2682.84
519.76	2662.36
519.96	2645.98
520.16	2957.27
520.36	2549.72
520.56	2815.96
520.76	2574.30
520.96	2635.74
521.16	2840.53
521.35	2848.72
521.55	2824.15
521.75	2703.32
521.95	2664.41
522.15	2572.25
522.35	2545.63
522.55	2652.12
522.75	2750.42
522.95	2588.63
523.14	2510.81
523.34	2766.81
523.54	2639.83
523.74	2801.62
523.94	2678.74
524.14	2547.67
524.34	2777.05
524.54	2756.57
524.73	2682.84
524.93	2746.33
525.13	2738.13
525.33	2492.38
525.53	2863.06
525.73	2801.62
525.93	2695.13
526.13	2600.92
526.32	2596.82
526.52	2879.44
526.72	2861.01
526.92	2662.36
527.12	2609.11
527.32	2496.47
527.52	2744.28
527.71	2723.80
527.91	2615.26
528.11	2672.60
528.31	2607.06
528.51	2562.01
528.71	2875.35
528.90	2850.77
529.10	2858.96
529.30	2736.09
529.50	2402.27
529.70	2684.89
529.90	2768.85
530.09	2750.42
530.29	2621.40
530.49	2598.87
530.69	3176.40
530.89	2754.52
531.09	2756.57
531.28	2578.39
531.48	3004.37
531.68	2736.09
531.88	2676.70
532.08	2865.11
532.28	2600.92
532.47	2783.19
532.67	2736.09
532.87	2799.57
533.07	2617.30
533.27	2781.14
533.46	2770.90
533.66	2768.85
533.86	2719.70
534.06	2701.27
534.26	2719.70
534.45	2617.30
534.65	2795.48
534.85	2777.05
535.05	2613.21
535.25	2871.25
535.44	2449.37
535.64	2719.70
535.84	2639.83
536.04	2731.99
536.24	2699.22
536.43	2650.07
536.63	2705.37
536.83	2658.26
537.03	2678.74
537.22	2467.80
537.42	2461.66
537.62	2717.65
537.82	2594.78
538.02	2807.77
538.21	2764.76
538.41	3227.60
538.61	2822.10
538.81	2674.65
539.00	2789.33
539.20	2471.90
539.40	2691.03
539.60	2670.55
539.79	2803.67
539.99	2676.70
540.19	2574.30
540.39	2625.50
540.58	2725.85
540.78	2914.26
540.98	2801.62
541.18	2742.23
541.37	2734.04
541.57	2752.47
541.77	2678.74
541.97	2545.63
542.16	2519.00
542.36	2658.26
542.56	2691.03
542.76	2867.16
542.95	2758.61
543.15	2795.48
543.35	2842.58
543.54	2564.06
543.74	2572.25
543.94	2934.74
544.14	2637.78
544.33	2746.33
544.53	2559.96
544.73	2768.85
544.93	2721.75
545.12	2650.07
545.32	2617.30
545.52	2654.17
545.71	2629.59
545.91	2596.82
546.11	2625.50
546.30	2635.74
546.50	2813.91
546.70	2709.46
546.90	2680.79
547.09	2342.88
547.29	2740.18
547.49	2781.14
547.68	2600.92
547.88	2699.22
548.08	2875.35
548.27	3074.00
548.47	2625.50
548.67	2701.27
548.87	2781.14
549.06	2635.74
549.26	2656.22
549.46	2756.57
549.65	2666.46
549.85	2721.75
550.05	2770.90
550.24	2490.33
550.44	2656.22
550.64	2617.30
550.83	2740.18
551.03	2985.94
551.23	2881.49
551.42	2752.47
551.62	2691.03
551.82	2684.89
552.01	2725.85
552.21	2842.58
552.41	2688.98
552.60	2856.92
552.80	2789.33
553.00	2621.40
553.19	2623.45
553.39	3022.80
553.59	2514.91
553.78	2725.85
553.98	2586.58
554.17	2559.96
554.37	2742.23
554.57	2752.47
554.76	2490.33
554.96	2697.17
555.16	2738.13
555.35	2652.12
555.55	2729.94
555.75	2731.99
555.94	2885.59
556.14	2566.10
556.33	2693.08
556.53	2699.22
556.73	2789.33
556.92	2752.47
557.12	2670.55
557.32	3028.95
557.51	2891.73
557.71	2697.17
557.90	2916.31
558.10	2858.96
558.30	2668.50
558.49	2709.46
558.69	2594.78
558.88	2711.51
559.08	2699.22
559.28	2658.26
559.47	2650.07
559.67	2865.11
559.86	3041.23
560.06	2654.17
560.26	2678.74
560.45	2826.20
560.65	2721.75
560.84	2895.83
561.04	2547.67
561.24	2750.42
561.43	2506.71
561.63	2863.06
561.82	2727.89
562.02	2844.63
562.22	2605.02
562.41	2553.82
562.61	2648.02
562.80	2596.82
563.00	3016.66
563.19	2701.27
563.39	2762.71
563.59	2858.96
563.78	2533.34
563.98	2465.75
564.17	2516.95
564.37	2488.28
564.56	2762.71
564.76	2492.38
564.96	2822.10
565.15	2768.85
565.35	3127.25
565.54	2688.98
565.74	2721.75
565.93	2779.09
566.13	2721.75
566.32	2615.26
566.52	2766.81
566.71	2729.94
566.91	2938.84
567.11	2715.61
567.30	2619.35
567.50	2852.82
567.69	2764.76
567.89	2666.46
568.08	2531.29
568.28	2707.41
568.47	2576.34
568.67	2758.61
568.86	2635.74
569.06	2809.81
569.25	2668.50
569.45	2537.43
569.64	2607.06
569.84	2725.85
570.04	2752.47
570.23	2605.02
570.43	2660.31
570.62	2787.29
570.82	2953.17
571.01	2590.68
571.21	2627.54
571.40	2719.70
571.60	2850.77
571.79	2670.55
571.99	2721.75
572.18	2547.67
572.38	2744.28
572.57	2676.70
572.77	2731.99
572.96	3186.64
573.16	2793.43
573.35	2711.51
573.55	2854.87
573.74	2861.01
573.94	2703.32
574.13	2676.70
574.33	2740.18
574.52	2813.91
574.71	2688.98
574.91	2668.50
575.10	2482.14
575.30	2635.74
575.49	2633.69
575.69	2629.59
575.88	2678.74
576.08	2688.98
576.27	2967.51
576.47	2572.25
576.66	2848.72
576.86	2926.55
577.05	2818.00
577.25	2725.85
577.44	2940.88
577.64	2645.98
577.83	2818.00
578.02	2699.22
578.22	2875.35
578.41	3014.61
578.61	2717.65
578.80	2535.39
579.00	2693.08
579.19	2701.27
579.39	2850.77
579.58	2725.85
579.77	2701.27
579.97	2834.39
580.16	2949.08
580.36	2844.63
580.55	2832.34
580.75	2768.85
580.94	2756.57
581.13	2801.62
581.33	2861.01
581.52	2768.85
581.72	3022.80
581.91	2820.05
582.11	2617.30
582.30	2926.55
582.49	2777.05
582.69	2897.88
582.88	2793.43
583.08	2756.57
583.27	2990.03
583.47	2725.85
583.66	2514.91
583.85	2611.16
584.05	2693.08
584.24	2824.15
584.44	2801.62
584.63	2811.86
584.82	2916.31
585.02	2877.40
585.21	2785.24
585.41	2908.12
585.60	2838.48
585.79	2846.68
585.99	2893.78
586.18	2828.24
586.37	3604.42
586.57	5541.80
586.76	15808.27
586.96	35155.43
587.15	47990.05
587.34	57173.14
587.54	61105.24
587.73	55004.34
587.93	38802.86
588.12	29509.18
588.31	23744.15
588.51	20938.43
588.70	19472.09
588.89	17071.87
589.09	14839.58
589.28	12490.56
589.47	9949.03
589.67	7550.86
589.86	5947.30
590.06	4595.64
590.25	3839.94
590.44	3471.31
590.64	3084.24
590.83	2979.79
591.02	2932.69
591.22	2766.81
591.41	2721.75
591.60	2736.09
591.80	3106.77
591.99	2586.58
592.18	2652.12
592.38	2912.21
592.57	2731.99
592.76	2701.27
592.96	2711.51
593.15	2662.36
593.34	2961.36
593.54	2637.78
593.73	2820.05
593.92	2799.57
594.12	2916.31
594.31	2754.52
594.50	2793.43
594.70	2928.60
594.89	3162.06
595.08	2590.68
595.28	2883.54
595.47	3194.83
595.66	2906.07
595.86	2605.02
596.05	2641.88
596.24	2684.89
596.43	2987.99
596.63	2791.38
596.82	2815.96
597.01	2848.72
597.21	2957.27
597.40	2760.66
597.59	2750.42
597.79	2775.00
597.98	2809.81
598.17	2744.28
598.36	2705.37
598.56	2754.52
598.75	2721.75
598.94	2705.37
599.14	2707.41
599.33	2662.36
599.52	2809.81
599.71	2750.42
599.91	2711.51
600.10	2834.39
600.29	2820.05
600.48	2793.43
600.68	2713.56
600.87	2775.00
601.06	2709.46
601.26	2734.04
601.45	2699.22
601.64	2740.18
601.83	2934.74
602.03	2592.73
602.22	2545.63
602.41	2932.69
602.60	3061.71
602.80	2740.18
602.99	2680.79
603.18	2709.46
603.37	2736.09
603.57	2662.36
603.76	2736.09
603.95	2914.26
604.14	2670.55
604.34	2572.25
604.53	2619.35
604.72	2777.05
604.91	2893.78
605.10	2715.61
605.30	2457.56
605.49	3020.75
605.68	2783.19
605.87	2707.41
606.07	2605.02
606.26	2764.76
606.45	2772.95
606.64	2736.09
606.84	2682.84
607.03	2791.38
607.22	2965.46
607.41	2748.37
607.60	2578.39
607.80	2846.68
607.99	2711.51
608.18	2721.75
608.37	2709.46
608.56	2547.67
608.76	2990.03
608.95	2746.33
609.14	2652.12
609.33	2940.88
609.52	3008.47
609.72	2807.77
609.91	2770.90
610.10	2723.80
610.29	2899.92
610.48	2834.39
610.68	2734.04
610.87	2715.61
611.06	2820.05
611.25	2543.58
611.44	2832.34
611.63	2686.94
611.83	2944.98
612.02	2533.34
612.21	2764.76
612.40	2512.86
612.59	2670.55
612.79	2592.73
612.98	2684.89
613.17	2987.99
613.36	2734.04
613.55	2887.64
613.74	2750.42
613.93	2775.00
614.13	2785.24
614.32	2912.21
614.51	2815.96
614.70	2711.51
614.89	2721.75
615.08	2775.00
615.28	3137.49
615.47	2519.00
615.66	2838.48
615.85	2719.70
616.04	2858.96
616.23	2787.29
616.42	2688.98
616.62	2721.75
616.81	2719.70
617.00	2703.32
617.19	2777.05
617.38	2611.16
617.57	2752.47
617.76	2818.00
617.95	2906.07
618.15	2789.33
618.34	2944.98
618.53	2529.24
618.72	2916.31
618.91	2813.91
619.10	2785.24
619.29	2768.85
619.48	2768.85
619.68	2564.06
619.87	2633.69
620.06	2543.58
620.25	2811.86
620.44	2688.98
620.63	2613.21
620.82	2789.33
621.01	2721.75
621.20	2725.85
621.39	2693.08
621.59	2822.10
621.78	2758.61
621.97	2631.64
622.16	2807.77
622.35	2750.42
622.54	2846.68
622.73	2775.00
622.92	2424.80
623.11	2818.00
623.30	2703.32
623.49	2766.81
623.68	2566.10
623.88	2885.59
624.07	2686.94
624.26	2600.92
624.45	2715.61
624.64	2639.83
624.83	2752.47
625.02	2676.70
625.21	2668.50
625.40	2684.89
625.59	2949.08
625.78	2691.03
625.97	2836.44
626.16	2899.92
626.35	2912.21
626.54	2736.09
626.74	2834.39
626.93	2734.04
627.12	2715.61
627.31	2742.23
627.50	2650.07
627.69	2881.49
627.88	2650.07
628.07	2598.87
628.26	2478.04
628.45	2584.54
628.64	2611.16
628.83	2695.13
629.02	2541.53
629.21	2844.63
629.40	2758.61
629.59	2645.98
629.78	2572.25
629.97	2709.46
630.16	2799.57
630.35	2629.59
630.54	2680.79
630.73	2670.55
630.92	2734.04
631.11	2559.96
631.30	2652.12
631.49	2805.72
631.68	2791.38
631.87	2760.66
632.06	2621.40
632.25	3092.43
632.44	2643.93
632.63	2652.12
632.82	2666.46
633.01	2666.46
633.20	2766.81
633.39	2684.89
633.58	2512.86
633.77	2813.91
633.96	2838.48
634.15	2768.85
634.34	2742.23
634.53	2754.52
634.72	2684.89
634.91	2539.48
635.10	2754.52
635.29	2820.05
635.48	2684.89
635.67	2617.30
635.86	2529.24
636.05	2914.26
636.24	2736.09
636.43	2633.69
636.62	2803.67
636.81	2428.89
637.00	2676.70
637.19	2697.17
637.38	2670.55
637.57	2666.46
637.76	2766.81
637.95	2799.57
638.14	2641.88
638.33	2803.67
638.52	2736.09
638.71	2596.82
638.89	2510.81
639.08	3059.67
639.27	2824.15
639.46	2867.16
639.65	3125.20
639.84	3215.31
640.03	3309.52
640.22	3047.38
640.41	3178.45
640.60	2789.33
640.79	2840.53
640.98	2766.81
641.17	2803.67
641.36	2906.07
641.55	2912.21
641.74	2596.82
641.92	2570.20
642.11	2578.39
642.30	2701.27
642.49	2566.10
642.68	2670.55
642.87	2709.46
643.06	2865.11
643.25	2623.45
643.44	2602.97
643.63	2752.47
643.82	2789.33
644.00	2607.06
644.19	2641.88
644.38	2609.11
644.57	2764.76
644.76	2695.13
644.95	2719.70
645.14	2791.38
645.33	2686.94
645.52	2703.32
645.71	2461.66
645.89	2510.81
646.08	2688.98
646.27	2645.98
646.46	2838.48
646.65	2523.10
646.84	2742.23
647.03	2525.15
647.22	2752.47
647.40	2750.42
647.59	2678.74
647.78	2484.19
647.97	2574.30
648.16	2529.24
648.35	3012.56
648.54	2875.35
648.73	2633.69
648.91	2897.88
649.10	2729.94
649.29	2605.02
649.48	2578.39
649.67	2811.86
649.86	2818.00
650.05	2611.16
650.23	2944.98
650.42	2746.33
650.61	3033.04
650.80	2824.15
650.99	2940.88
651.18	2828.24
651.36	2828.24
651.55	2652.12
651.74	2793.43
651.93	2719.70
652.12	2637.78
652.31	2668.50
652.49	2650.07
652.68	2623.45
652.87	2922.45
653.06	2693.08
653.25	2899.92
653.44	2731.99
653.62	2953.17
653.81	2660.31
654.00	2637.78
654.19	2805.72
654.38	3131.34
654.56	2801.62
654.75	2613.21
654.94	2840.53
655.13	2770.90
655.32	2553.82
655.51	2797.53
655.69	2652.12
655.88	2820.05
656.07	2547.67
656.26	2731.99
656.45	2555.86
656.63	2779.09
656.82	2605.02
657.01	2850.77
657.20	2633.69
657.38	2869.20
657.57	2584.54
657.76	2519.00
657.95	2873.30
658.14	2711.51
658.32	2758.61
658.51	2523.10
658.70	2654.17
658.89	2736.09
659.08	2676.70
659.26	2861.01
659.45	2645.98
659.64	2791.38
659.83	2666.46
660.01	3049.43
660.20	2707.41
660.39	2856.92
660.58	2463.71
660.76	2744.28
660.95	2531.29
661.14	2711.51
661.33	2549.72
661.51	2703.32
661.70	2742.23
661.89	2746.33
662.08	2725.85
662.26	2570.20
662.45	2523.10
662.64	2977.75
662.83	2793.43
663.01	2514.91
663.20	2658.26
663.39	2928.60
663.58	2568.15
663.76	2662.36
663.95	2832.34
664.14	2605.02
664.32	2686.94
664.51	2602.97
664.70	2418.65
664.89	2824.15
665.07	2586.58
665.26	2754.52
665.45	2617.30
665.64	2848.72
665.82	2633.69
666.01	2701.27
666.20	2596.82
666.38	2822.10
666.57	2910.16
666.76	4282.30
666.95	9961.32
667.13	17161.98
667.32	21038.78
667.51	24133.26
667.69	25153.15
667.88	21520.06
668.07	15447.83
668.25	12826.43
668.44	11034.46
668.63	9629.55
668.81	8533.89
669.00	7305.10
669.19	6471.58
669.38	5791.66
669.56	5087.15
669.75	4237.25
669.94	3774.41
670.12	3209.17
670.31	2955.22
670.50	2949.08
670.68	2953.17
670.87	2797.53
671.06	2703.32
671.24	2760.66
671.43	2904.02
671.62	2715.61
671.80	2617.30
671.99	2793.43
672.18	2746.33
672.36	2830.29
672.55	2811.86
672.74	2662.36
672.92	2701.27
673.11	2777.05
673.29	2547.67
673.48	2777.05
673.67	2621.40
673.85	2901.97
674.04	2641.88
674.23	2768.85
674.41	3004.37
674.60	2580.44
674.79	2510.81
674.97	2607.06
675.16	2785.24
675.34	2877.40
675.53	2562.01
675.72	2627.54
675.90	2949.08
676.09	2668.50
676.28	2645.98
676.46	2473.95
676.65	2777.05
676.83	2617.30
677.02	2717.65
677.21	2719.70
677.39	2770.90
677.58	2594.78
677.77	2639.83
677.95	2586.58
678.14	2709.46
678.32	2611.16
678.51	2666.46
678.70	3012.56
678.88	2695.13
679.07	2777.05
679.25	2719.70
679.44	2691.03
679.63	2619.35
679.81	2766.81
680.00	2854.87
680.18	2783.19
680.37	2856.92
680.55	2772.95
680.74	2439.13
680.93	2410.46
681.11	2760.66
681.30	2699.22
681.48	2582.49
681.67	2654.17
681.85	2775.00
682.04	2594.78
682.23	2777.05
682.41	2682.84
682.60	2621.40
682.78	2738.13
682.97	2537.43
683.15	2680.79
683.34	2727.89
683.53	2967.51
683.71	2559.96
683.90	2758.61
684.08	2983.89
684.27	2672.60
684.45	2731.99
684.64	2772.95
684.82	2695.13
685.01	2748.37
685.19	2742.23
685.38	2916.31
685.57	2662.36
685.75	2553.82
685.94	2549.72
686.12	2602.97
686.31	2627.54
686.49	2967.51
686.68	2416.60
686.86	2711.51
687.05	2719.70
687.23	2955.22
687.42	2623.45
687.60	2475.99
687.79	2912.21
687.97	2924.50
688.16	2863.06
688.34	2838.48
688.53	2523.10
688.71	2748.37
688.90	2815.96
689.08	2629.59
689.27	2535.39
689.45	2830.29
689.64	2758.61
689.82	2672.60
690.01	2727.89
690.19	2744.28
690.38	2643.93
690.56	2820.05
690.75	2600.92
690.93	2674.65
691.12	2619.35
691.30	2682.84
691.49	2631.64
691.67	2658.26
691.86	2951.12
692.04	2594.78
692.23	2695.13
692.41	2713.56
692.60	2971.60
692.78	2887.64
692.97	2818.00
693.15	2785.24
693.34	2922.45
693.52	2916.31
693.71	2586.58
693.89	2637.78
694.08	2539.48
694.26	2727.89
694.44	2867.16
694.63	2842.58
694.81	2568.15
695.00	2598.87
695.18	2912.21
695.37	3121.10
695.55	2721.75
695.74	2744.28
695.92	2547.67
696.10	2961.36
696.29	2535.39
696.47	2582.49
696.66	2535.39
696.84	2635.74
697.03	2781.14
697.21	2883.54
697.40	4145.09
697.58	2854.87
697.76	2598.87
697.95	2586.58
698.13	2457.56
698.32	2637.78
698.50	2609.11
698.68	2744.28
698.87	2756.57
699.05	3000.27
699.24	2676.70
699.42	2527.19
699.61	2793.43
699.79	2768.85
699.97	2703.32
700.16	2525.15
700.34	2594.78
700.53	2738.13
700.71	2822.10
700.89	2785.24
701.08	2672.60
701.26	2754.52
701.45	3127.25
701.63	2529.24
701.81	2635.74
702.00	2643.93
702.18	2688.98
702.37	2670.55
702.55	2910.16
702.73	2852.82
702.92	2670.55
703.10	2959.31
703.28	2822.10
703.47	2637.78
703.65	2858.96
703.84	2856.92
704.02	2725.85
704.20	2936.79
704.39	2670.55
704.57	2619.35
704.75	2865.11
704.94	2881.49
705.12	2756.57
705.30	3102.67
705.49	5853.09
705.67	11849.55
705.86	17614.58
706.04	20260.55
706.22	22853.28
706.41	22541.99
706.59	17571.57
706.77	13346.61
706.96	11507.54
707.14	10477.41
707.32	8961.91
707.51	7899.02
707.69	6510.49
707.87	5328.81
708.06	4476.86
708.24	3940.29
708.42	3416.01
708.61	3436.49
708.79	2754.52
708.97	2750.42
709.16	2785.24
709.34	2723.80
709.52	2627.54
709.71	2707.41
709.89	2736.09
710.07	2488.28
710.26	2490.33
710.44	2691.03
710.62	2934.74
710.80	2729.94
710.99	2719.70
711.17	2795.48
711.35	2576.34
711.54	2643.93
711.72	2820.05
711.90	2754.52
712.09	2750.42
712.27	2609.11
712.45	2754.52
712.63	2633.69
712.82	2754.52
713.00	2650.07
713.18	2682.84
713.37	2785.24
713.55	2813.91
713.73	2772.95
713.91	2734.04
714.10	2615.26
714.28	2697.17
714.46	2766.81
714.65	2772.95
714.83	2678.74
715.01	2762.71
715.19	2664.41
715.38	2682.84
715.56	2768.85
715.74	2559.96
715.92	2623.45
716.11	2912.21
716.29	2500.57
716.47	2643.93
716.65	2713.56
716.84	2432.99
717.02	2768.85
717.20	2516.95
717.38	2600.92
717.57	2705.37
717.75	2740.18
717.93	2578.39
718.11	2740.18
718.30	2568.15
718.48	2719.70
718.66	2908.12
718.84	2901.97
719.03	2631.64
719.21	2504.67
719.39	2965.46
719.57	2736.09
719.75	2713.56
719.94	2607.06
720.12	2695.13
720.30	2758.61
720.48	2781.14
720.67	2676.70
720.85	2643.93
721.03	2609.11
721.21	2596.82
721.39	2731.99
721.58	2877.40
721.76	2760.66
721.94	2731.99
722.12	2775.00
722.30	2891.73
722.49	2559.96
722.67	2676.70
722.85	2727.89
723.03	2580.44
723.21	2580.44
723.40	2777.05
723.58	2830.29
723.76	2875.35
723.94	2883.54
724.12	2727.89
724.30	2865.11
724.49	2793.43
724.67	2486.23
724.85	2752.47
725.03	2541.53
725.21	2846.68
725.40	2863.06
725.58	2588.63
725.76	2830.29
725.94	2861.01
726.12	2590.68
726.30	2729.94
726.49	2654.17
726.67	2664.41
726.85	2793.43
727.03	3067.86
727.21	3925.96
727.39	5171.12
727.57	5595.05
727.76	6121.38
727.94	6252.45
728.12	5566.38
728.30	4691.90
728.48	4206.53
728.66	3989.44
728.84	3835.85
729.03	3325.90
729.21	3213.26
729.39	2998.23
729.57	2826.20
729.75	2775.00
729.93	2731.99
730.11	2666.46
730.30	2650.07
730.48	2650.07
730.66	2883.54
730.84	2815.96
731.02	2750.42
731.20	2633.69
731.38	2758.61
731.56	2588.63
731.74	2553.82
731.93	2795.48
732.11	2666.46
732.29	2633.69
732.47	2830.29
732.65	2723.80
732.83	2834.39
733.01	2731.99
733.19	2688.98
733.37	2738.13
733.56	2711.51
733.74	2592.73
733.92	2918.36
734.10	2715.61
734.28	2777.05
734.46	2365.40
734.64	2627.54
734.82	2617.30
735.00	2576.34
735.18	2695.13
735.36	2703.32
735.54	2715.61
735.73	2727.89
735.91	2703.32
736.09	2895.83
736.27	2672.60
736.45	2752.47
736.63	2488.28
736.81	2729.94
736.99	2801.62
737.17	2842.58
737.35	2562.01
737.53	2695.13
737.71	2750.42
737.89	2922.45
738.07	2633.69
738.25	2564.06
738.43	2471.90
738.61	2625.50
738.80	2584.54
738.98	2621.40
739.16	2682.84
739.34	2674.65
739.52	2879.44
739.70	2664.41
739.88	2832.34
740.06	2856.92
740.24	2361.31
740.42	2918.36
740.60	2482.14
740.78	2648.02
740.96	2455.51
741.14	2727.89
741.32	2738.13
741.50	2516.95
741.68	2918.36
741.86	2863.06
742.04	2627.54
742.22	2576.34
742.40	2697.17
742.58	2840.53
742.76	2533.34
742.94	2807.77
743.12	2492.38
743.30	2711.51
743.48	2805.72
743.66	2633.69
743.84	2686.94
744.02	2656.22
744.20	2650.07
744.38	2502.62
744.56	2635.74
744.74	3000.27
744.92	2834.39
745.10	2928.60
745.28	2717.65
745.46	3037.14
745.64	2643.93
745.82	2762.71
746.00	2615.26
746.18	2799.57
746.36	2619.35
746.54	2711.51
746.72	2602.97
746.90	2643.93
747.08	2949.08
747.26	2678.74
747.44	2801.62
747.62	2854.87
747.80	2815.96
747.98	2793.43
748.15	2660.31
748.33	2959.31
748.51	2760.66
748.69	2809.81
748.87	2598.87
749.05	2676.70
749.23	2602.97
749.41	2707.41
749.59	2555.86
749.77	2818.00
749.95	2590.68
750.13	2621.40
750.31	2678.74
750.49	2799.57
750.67	2801.62
750.85	2834.39
751.03	2660.31
751.20	2994.13
751.38	2813.91
751.56	2602.97
751.74	2652.12
751.92	2664.41
752.10	2539.48
752.28	2861.01
752.46	2639.83
752.64	2748.37
752.82	2725.85
753.00	2758.61
753.18	2621.40
753.35	2670.55
753.53	2713.56
753.71	2627.54
753.89	2766.81
754.07	2779.09
754.25	2826.20
754.43	2738.13
754.61	2555.86
754.79	2752.47
754.97	2699.22
755.14	2828.24
755.32	2611.16
755.50	2676.70
755.68	2785.24
755.86	2510.81
756.04	2650.07
756.22	2463.71
756.40	2854.87
756.57	2930.64
756.75	2643.93
756.93	2883.54
757.11	2824.15
757.29	2633.69
757.47	2531.29
757.65	2482.14
757.82	2414.56
758.00	2473.95
758.18	2617.30
758.36	2564.06
758.54	2981.84
758.72	2498.52
758.90	2865.11
759.07	2703.32
759.25	2627.54
759.43	2760.66
759.61	2480.09
759.79	3878.85
759.97	2873.30
760.15	2625.50
760.32	2658.26
760.50	2768.85
760.68	2922.45
760.86	2510.81
761.04	2834.39
761.22	2736.09
761.39	2670.55
761.57	2734.04
761.75	2660.31
761.93	2789.33
762.11	2695.13
762.28	2707.41
762.46	2531.29
762.64	2865.11
762.82	2570.20
763.00	2637.78
763.18	2895.83
763.35	2568.15
763.53	2887.64
763.71	2645.98
763.89	2623.45
764.07	2656.22
764.24	2719.70
764.42	2758.61
764.60	2691.03
764.78	2815.96
764.96	2783.19
765.13	2818.00
765.31	2668.50
765.49	2797.53
765.67	2617.30
765.84	2588.63
766.02	2633.69
766.20	2582.49
766.38	2688.98
766.56	2723.80
766.73	2713.56
766.91	2680.79
767.09	2758.61
767.27	2701.27
767.44	2523.10
767.62	2850.77
767.80	2715.61
767.98	2682.84
768.15	2645.98
768.33	2832.34
768.51	2904.02
768.69	2783.19
768.87	2684.89
769.04	2703.32
769.22	3092.43
769.40	2789.33
769.58	2852.82
769.75	2697.17
769.93	2858.96
770.11	2588.63
770.28	2482.14
770.46	2748.37
770.64	2785.24
770.82	2678.74
770.99	2609.11
771.17	2752.47
771.35	2672.60
771.53	2596.82
771.70	2592.73
771.88	2789.33
772.06	2680.79
772.23	2611.16
772.41	2703.32
772.59	2613.21
772.77	2562.01
772.94	2629.59
773.12	2723.80
773.30	2631.64
773.47	2674.65
773.65	2541.53
773.83	2820.05
774.01	2768.85
774.18	2387.93
774.36	2615.26
774.54	2588.63
774.71	2734.04
774.89	2506.71
775.07	2590.68
775.24	2545.63
775.42	2654.17
775.60	2930.64
775.78	2584.54
775.95	2533.34
776.13	2443.23
776.31	2482.14
776.48	2703.32
776.66	2803.67
776.84	2670.55
777.01	2570.20
777.19	2553.82
777.37	2572.25
777.54	2854.87
777.72	3004.37
777.90	2725.85
778.07	2564.06
778.25	3160.02
778.43	2789.33
778.60	2547.67
778.78	2736.09
778.96	2858.96
779.13	2557.91
779.31	2758.61
779.49	2672.60
779.66	2740.18
779.84	2740.18
780.01	2668.50
780.19	2613.21
780.37	2897.88
780.54	2783.19
780.72	2580.44
780.90	2574.30
781.07	2736.09
781.25	2559.96
781.43	2807.77
781.60	2623.45
781.78	2938.84
781.95	2717.65
782.13	2590.68
782.31	2662.36
782.48	2465.75
782.66	2650.07
782.83	2856.92
783.01	2781.14
783.19	2858.96
783.36	2719.70
783.54	2547.67
783.72	2682.84
783.89	2594.78
784.07	2746.33
784.24	2674.65
784.42	2811.86
784.60	2752.47
784.77	2838.48
784.95	2408.41
785.12	2648.02
785.30	2736.09
785.47	2539.48
785.65	2535.39
785.83	2617.30
786.00	2688.98
786.18	2648.02
786.35	2613.21
786.53	2537.43
786.71	2897.88
786.88	2883.54
787.06	2736.09
787.23	2631.64
787.41	2564.06
787.58	2703.32
787.76	2613.21
787.94	2621.40
788.11	2740.18
788.29	2576.34
788.46	2586.58
788.64	2461.66
788.81	2684.89
788.99	2582.49
789.16	2576.34
789.34	2635.74
789.52	2637.78
789.69	2691.03
789.87	2443.23
790.04	2629.59
790.22	2713.56
790.39	2957.27
790.57	2617.30
790.74	2529.24
790.92	2856.92
791.09	2459.61
791.27	2799.57
791.44	2781.14
791.62	2738.13
791.79	2867.16
791.97	2643.93
792.15	3055.57
792.32	2801.62
792.50	2809.81
792.67	2834.39
792.85	2916.31
793.02	2754.52
793.20	2656.22
793.37	2482.14
793.55	2570.20
793.72	2543.58
793.90	2738.13
794.07	2539.48
794.25	2547.67
794.42	2820.05
794.60	2699.22
794.77	2645.98
794.95	2740.18
795.12	2895.83
795.30	2691.03
795.47	2523.10
795.65	3057.62
795.82	2736.09
796.00	2568.15
796.17	2717.65
796.34	2602.97
796.52	2799.57
796.69	2783.19
796.87	2721.75
797.04	2781.14
797.22	2863.06
797.39	2742.23
797.57	2789.33
797.74	2736.09
797.92	2670.55
798.09	2666.46
798.27	2881.49
798.44	2609.11
798.62	2570.20
798.79	2686.94
798.96	2775.00
799.14	2660.31
799.31	3153.87
799.49	2557.91
799.66	2592.73
799.84	2598.87
800.01	2512.86
800.19	2746.33
800.36	2465.75
800.53	2742.23
800.71	2801.62
800.88	3004.37
801.06	2537.43
801.23	2527.19
801.41	2682.84
801.58	2654.17
801.75	2512.86
801.93	2693.08
802.10	2777.05
802.28	2662.36
802.45	2652.12
802.63	2705.37
802.80	2928.60
802.97	2725.85
803.15	2691.03
803.32	2541.53
803.50	2402.27
803.67	2652.12
803.84	2617.30
804.02	2723.80
804.19	2656.22
804.37	2385.88
804.54	2566.10
804.71	2596.82
804.89	2707.41
805.06	2635.74
805.24	2586.58
805.41	2486.23
805.58	2641.88
805.76	2992.08
805.93	2672.60
806.10	2830.29
806.28	2822.10
806.45	2727.89
806.63	2758.61
806.80	2711.51
806.97	2711.51
807.15	2731.99
807.32	2627.54
807.49	2617.30
807.67	2566.10
807.84	2715.61
808.01	2570.20
808.19	2881.49
808.36	3071.95
808.54	2637.78
808.71	2615.26
808.88	2717.65
809.06	2883.54
809.23	2975.70
809.40	2592.73
809.58	2744.28
809.75	2750.42
809.92	2422.75
810.10	2869.20
810.27	2709.46
810.44	2785.24
810.62	2811.86
810.79	2727.89
810.96	2572.25
811.14	2695.13
811.31	2768.85
811.48	2766.81
811.66	2707.41
811.83	2877.40
812.00	2818.00
812.18	2738.13
812.35	3047.38
812.52	2662.36
812.69	2650.07
812.87	2559.96
813.04	2588.63
813.21	2658.26
813.39	2609.11
813.56	2516.95
813.73	2850.77
813.91	2523.10
814.08	2727.89
814.25	2734.04
814.42	2400.22
814.60	2709.46
814.77	2756.57
814.94	2676.70
815.12	2691.03
815.29	2973.65
815.46	2607.06
815.63	2699.22
815.81	2658.26
815.98	2717.65
816.15	2670.55
816.33	2650.07
816.50	2609.11
816.67	2713.56
816.84	2760.66
817.02	2471.90
817.19	2625.50
817.36	2760.66
817.53	2834.39
817.71	2508.76
817.88	2697.17
818.05	2742.23
818.22	2691.03
818.40	2871.25
818.57	2641.88
818.74	2754.52
818.91	2697.17
819.09	2785.24
819.26	2754.52
819.43	2562.01
819.60	2594.78
819.78	2699.22
819.95	2768.85
820.12	2557.91
820.29	2879.44
820.47	2801.62
820.64	2508.76
820.81	2559.96
820.98	2525.15
821.15	2602.97
821.33	2666.46
821.50	2570.20
821.67	2846.68
821.84	2607.06
822.02	2744.28
822.19	2832.34
822.36	2633.69
822.53	2592.73
822.70	2498.52
822.88	2586.58
823.05	2867.16
823.22	2670.55
823.39	2770.90
823.56	2719.70
823.74	2971.60
823.91	2512.86
824.08	2529.24
824.25	2580.44
824.42	2957.27
824.60	2471.90
824.77	2674.65
824.94	2691.03
825.11	2813.91
825.28	2519.00
825.45	2736.09
825.63	2699.22
825.80	2545.63
825.97	2762.71
826.14	2721.75
826.31	2508.76
826.48	2809.81
826.66	2592.73
826.83	2592.73
827.00	2658.26
827.17	2553.82
827.34	2629.59
827.51	2580.44
827.69	2697.17
827.86	2488.28
828.03	2641.88
828.20	2676.70
828.37	2652.12
828.54	2762.71
828.71	2521.05
828.89	2783.19
829.06	2779.09
829.23	2957.27
829.40	2531.29
829.57	2613.21
829.74	2791.38
829.91	2592.73
830.09	2613.21
830.26	2711.51
830.43	2979.79
830.60	2680.79
830.77	2748.37
830.94	2893.78
831.11	2867.16
831.28	2641.88
831.46	2762.71
831.63	2615.26
831.80	2719.70
831.97	2543.58
832.14	2539.48
832.31	2605.02
832.48	2738.13
832.65	2766.81
832.82	2600.92
832.99	2766.81
833.17	2572.25
833.34	2904.02
833.51	2674.65
833.68	2471.90
833.85	2826.20
834.02	2631.64
834.19	2482.14
834.36	2570.20
834.53	2783.19
834.70	2834.39
834.87	2738.13
835.04	2488.28
835.22	2672.60
835.39	2623.45
835.56	2490.33
835.73	2545.63
835.90	2818.00
836.07	2496.47
836.24	2723.80
836.41	2537.43
836.58	2693.08
836.75	2899.92
836.92	2605.02
837.09	2510.81
837.26	2801.62
837.43	2713.56
837.60	2658.26
837.77	2605.02
837.94	2918.36
838.12	2936.79
838.29	2469.85
838.46	2420.70
838.63	2600.92
838.80	2901.97
838.97	2607.06
839.14	2543.58
839.31	2705.37
839.48	2834.39
839.65	2519.00
839.82	2596.82
839.99	2711.51
840.16	2707.41
840.33	2574.30
840.50	2570.20
840.67	2584.54
840.84	2322.40
841.01	2549.72
841.18	2506.71
841.35	2605.02
841.52	2752.47
841.69	2863.06
841.86	2582.49
842.03	2660.31
842.20	2848.72
842.37	2521.05
842.54	2570.20
842.71	2768.85
842.88	2496.47
843.05	2545.63
843.22	2549.72
843.39	2793.43
843.56	2594.78
843.73	2602.97
843.90	2598.87
844.07	2691.03
844.24	2805.72
844.41	2674.65
844.58	2553.82
844.75	2705.37
844.92	2826.20
845.09	2506.71
845.26	2461.66
845.43	2781.14
845.60	2684.89
845.77	2701.27
845.94	2635.74
846.10	2854.87
846.27	2543.58
846.44	2527.19
846.61	2500.57
846.78	2809.81
846.95	2893.78
847.12	2545.63
847.29	2617.30
847.46	2588.63
847.63	2818.00
847.80	2506.71
847.97	2580.44
848.14	3063.76
848.31	2719.70
848.48	2537.43
848.65	2637.78
848.82	2588.63
848.98	3061.71
849.15	2664.41
849.32	2701.27
849.49	2844.63
849.66	2744.28
849.83	2488.28
850.00	2512.86
850.17	2793.43
850.34	2680.79
850.51	2504.67
850.68	2580.44
850.85	3002.32
851.01	2703.32
851.18	2602.97
851.35	2570.20
851.52	2852.82
851.69	2994.13
851.86	2475.99
852.03	2562.01
852.20	2793.43
852.37	2697.17
852.53	2457.56
852.70	2543.58
852.87	2709.46
853.04	2844.63
853.21	2553.82
853.38	2719.70
853.55	2916.31
853.72	2912.21
853.89	2469.85
854.05	2500.57
854.22	2682.84
854.39	2781.14
854.56	2486.23
854.73	2670.55
854.90	2668.50
855.07	2684.89
855.23	2482.14
855.40	2494.43
855.57	2641.88
855.74	2373.60
855.91	2715.61
856.08	2504.67
856.25	2523.10
856.41	2594.78
856.58	2531.29
856.75	2602.97
856.92	2539.48
857.09	2793.43
857.26	2480.09
857.42	2570.20
857.59	2793.43
857.76	2605.02
857.93	2576.34
858.10	2543.58
858.27	2549.72
858.43	2736.09
858.60	2602.97
858.77	2381.79
858.94	2680.79
859.11	2856.92
859.27	2568.15
859.44	2498.52
859.61	3022.80
859.78	2731.99
859.95	2508.76
860.12	2486.23
860.28	3088.34
860.45	2955.22
860.62	2543.58
860.79	2639.83
860.95	2594.78
861.12	2619.35
861.29	2482.14
861.46	2539.48
861.63	2662.36
861.79	2822.10
861.96	2441.18
862.13	2584.54
862.30	2928.60
862.47	2590.68
862.63	2428.89
862.80	2645.98
862.97	2809.81
863.14	2699.22
863.30	2596.82
863.47	2512.86
863.64	2897.88
863.81	2768.85
863.97	2514.91
864.14	2617.30
864.31	2684.89
864.48	2703.32
864.65	2547.67
864.81	2547.67
864.98	2897.88
865.15	2846.68
865.32	2578.39
865.48	2682.84
865.65	2977.75
865.82	2588.63
865.98	2607.06
866.15	2619.35
866.32	2688.98
866.49	2752.47
866.65	2772.95
866.82	2529.24
866.99	2670.55
867.16	2506.71
867.32	2617.30
867.49	2445.27
867.66	2613.21
867.83	2592.73
867.99	2496.47
868.16	2574.30
868.33	2566.10
868.49	2715.61
868.66	2498.52
868.83	2609.11
868.99	2695.13
869.16	2707.41
869.33	2688.98
869.50	2688.98
869.66	2709.46
869.83	2656.22
870.00	2473.95
870.16	2682.84
870.33	2645.98
870.50	2846.68
870.66	2578.39
870.83	2629.59
871.00	2711.51
871.17	2715.61
871.33	2596.82
871.50	2523.10
871.67	2596.82
871.83	2463.71
872.00	2750.42
872.17	2588.63
872.33	3041.23
872.50	2928.60
872.67	2568.15
872.83	2580.44
873.00	2758.61
873.17	2729.94
873.33	2672.60
873.50	2539.48
873.67	2553.82
873.83	2594.78
874.00	2617.30
874.16	2664.41
874.33	2719.70
874.50	2555.86
874.66	2584.54
874.83	2564.06
875.00	2881.49
875.16	2889.68
875.33	2639.83
875.50	2353.12
875.66	2584.54
875.83	2793.43
875.99	2660.31
876.16	2631.64
876.33	2623.45
876.49	2691.03
876.66	2613.21
876.83	2639.83
876.99	2488.28
877.16	2662.36
877.32	2564.06
877.49	2645.98
877.66	2799.57
877.82	2920.40
877.99	2660.31
878.15	2711.51
878.32	2760.66
878.49	2760.66
878.65	2598.87
878.82	2815.96
878.98	2584.54
879.15	2803.67
879.32	2705.37
879.48	2623.45
879.65	2637.78
879.81	2699.22
879.98	2566.10
880.15	2570.20
880.31	2822.10
880.48	2619.35
880.64	2682.84
880.81	2674.65
880.97	2897.88
881.14	2912.21
881.31	2543.58
881.47	2744.28
881.64	2674.65
881.80	2500.57
881.97	2662.36
882.13	2594.78
882.30	2609.11
882.47	2631.64
882.63	2484.19
882.80	2555.86
882.96	2648.02
883.13	2932.69
883.29	2537.43
883.46	2547.67
883.62	3035.09
883.79	2748.37
883.95	2664.41
884.12	2609.11
884.29	2873.30
884.45	2695.13
884.62	2596.82
884.78	2545.63
884.95	2918.36
885.11	2594.78
885.28	2676.70
885.44	2516.95
885.61	2764.76
885.77	2961.36
885.94	2621.40
886.10	2641.88
886.27	2758.61
886.43	3018.71
886.60	2736.09
886.76	2635.74
886.93	2598.87
887.09	2824.15
887.26	2484.19
887.42	2551.77
887.59	2895.83
887.75	3028.95
887.92	2815.96
888.08	2605.02
888.25	2985.94
888.41	2791.38
888.58	2613.21
888.74	2455.51
888.91	2621.40
>>>>>End Processed Spectral Data<<<<<
