SpectraSuite Data File
++++++++++++++++++++++++++++++++++++
Date: Thu May 05 16:20:50 CEST 2016
User: root
Dark Spectrum Present: No
Reference Spectrum Present: No
Number of Sampled Component Spectra: 1
Spectrometers: USB4C02835
Integration Time (usec): 100000 (USB4C02835)
Spectra Averaged: 1 (USB4C02835)
Boxcar Smoothing: 0 (USB4C02835)
Correct for Electrical Dark: No (USB4C02835)
Strobe/Lamp Enabled: No (USB4C02835)
Correct for Detector Non-linearity: No (USB4C02835)
Correct for Stray Light: No (USB4C02835)
Number of Pixels in Processed Spectrum: 3648
>>>>>Begin Processed Spectral Data<<<<<
177.47	2029.54
177.69	2029.54
177.91	2029.54
178.13	1986.53
178.36	2056.16
178.58	2529.24
178.80	2678.74
179.02	2539.48
179.24	2574.30
179.46	2463.71
179.68	2490.33
179.90	2736.09
180.13	2703.32
180.35	2308.06
180.57	2457.56
180.79	2877.40
181.01	2658.26
181.23	2586.58
181.45	2639.83
181.67	2842.58
181.90	2803.67
182.12	2488.28
182.34	2394.08
182.56	2826.20
182.78	2834.39
183.00	2537.43
183.22	2572.25
183.44	2469.85
183.66	3133.39
183.89	2576.34
184.11	2582.49
184.33	2777.05
184.55	2818.00
184.77	2537.43
184.99	2463.71
185.21	2609.11
185.43	3067.86
185.65	2607.06
185.87	2516.95
186.10	3051.47
186.32	3104.72
186.54	2592.73
186.76	2637.78
186.98	2877.40
187.20	2738.13
187.42	2594.78
187.64	2537.43
187.86	2789.33
188.08	2824.15
188.30	2457.56
188.52	2527.19
188.75	2787.29
188.97	2891.73
189.19	2519.00
189.41	2547.67
189.63	2785.24
189.85	2686.94
190.07	2416.60
190.29	2334.68
190.51	2744.28
190.73	2547.67
190.95	2670.55
191.17	2498.52
191.39	2502.62
191.61	2752.47
191.84	2496.47
192.06	2621.40
192.28	2494.43
192.50	3217.36
192.72	2654.17
192.94	2600.92
193.16	2912.21
193.38	2803.67
193.60	2506.71
193.82	2627.54
194.04	2846.68
194.26	2781.14
194.48	2531.29
194.70	2498.52
194.92	2711.51
195.14	2877.40
195.36	2564.06
195.58	2609.11
195.80	2703.32
196.02	2639.83
196.24	2478.04
196.46	2596.82
196.69	2652.12
196.91	3067.86
197.13	2516.95
197.35	2572.25
197.57	2973.65
197.79	2842.58
198.01	2516.95
198.23	2496.47
198.45	2760.66
198.67	2588.63
198.89	2381.79
199.11	2566.10
199.33	2557.91
199.55	2428.89
199.77	2494.43
199.99	2666.46
200.21	2684.89
200.43	2820.05
200.65	2394.08
200.87	2318.30
201.09	2717.65
201.31	2668.50
201.53	2564.06
201.75	2549.72
201.97	2822.10
202.19	2729.94
202.41	2494.43
202.63	2625.50
202.85	2848.72
203.07	2738.13
203.29	2541.53
203.51	2437.08
203.73	2621.40
203.95	3188.69
204.17	2543.58
204.39	2615.26
204.61	2746.33
204.83	2736.09
205.05	2654.17
205.27	2568.15
205.49	3055.57
205.71	2709.46
205.93	2416.60
206.15	2414.56
206.37	2707.41
206.59	2695.13
206.81	2486.23
207.03	2385.88
207.25	2588.63
207.47	2779.09
207.69	2535.39
207.91	2717.65
208.13	2893.78
208.34	2609.11
208.56	2441.18
208.78	2588.63
209.00	2727.89
209.22	2688.98
209.44	2441.18
209.66	2430.94
209.88	2731.99
210.10	2705.37
210.32	2525.15
210.54	2576.34
210.76	2678.74
210.98	2879.44
211.20	2377.69
211.42	2580.44
211.64	2947.03
211.86	2818.00
212.08	2576.34
212.30	2562.01
212.52	2627.54
212.74	2785.24
212.96	2580.44
213.17	2551.77
213.39	2772.95
213.61	2889.68
213.83	2469.85
214.05	2428.89
214.27	2832.34
214.49	2574.30
214.71	2428.89
214.93	2602.97
215.15	2777.05
215.37	2863.06
215.59	2455.51
215.81	2605.02
216.03	2940.88
216.24	2699.22
216.46	2521.05
216.68	2641.88
216.90	2818.00
217.12	2873.30
217.34	2457.56
217.56	2637.78
217.78	2985.94
218.00	2787.29
218.22	2494.43
218.44	2596.82
218.66	2717.65
218.87	2897.88
219.09	2461.66
219.31	2543.58
219.53	2836.44
219.75	2668.50
219.97	2494.43
220.19	2478.04
220.41	2678.74
220.63	2961.36
220.85	2510.81
221.06	2562.01
221.28	2990.03
221.50	2844.63
221.72	2475.99
221.94	2432.99
222.16	2795.48
222.38	2848.72
222.60	2512.86
222.82	2492.38
223.03	2789.33
223.25	2631.64
223.47	2475.99
223.69	2731.99
223.91	2865.11
224.13	2719.70
224.35	2453.47
224.57	2621.40
224.78	2869.20
225.00	2611.16
225.22	2625.50
225.44	2510.81
225.66	2818.00
225.88	2633.69
226.10	2627.54
226.32	2576.34
226.53	2985.94
226.75	2660.31
226.97	2596.82
227.19	2557.91
227.41	2578.39
227.63	2607.06
227.85	2377.69
228.06	2607.06
228.28	2775.00
228.50	2865.11
228.72	2441.18
228.94	2441.18
229.16	2543.58
229.37	2568.15
229.59	2428.89
229.81	2791.38
230.03	2676.70
230.25	2564.06
230.47	2336.73
230.69	2430.94
230.90	2846.68
231.12	2639.83
231.34	2596.82
231.56	2600.92
231.78	2580.44
232.00	2744.28
232.21	2506.71
232.43	2512.86
232.65	2412.51
232.87	2731.99
233.09	2392.03
233.30	2525.15
233.52	2926.55
233.74	2736.09
233.96	2510.81
234.18	2660.31
234.40	2688.98
234.61	3004.37
234.83	2447.32
235.05	2469.85
235.27	3098.58
235.49	2871.25
235.70	2529.24
235.92	2570.20
236.14	2789.33
236.36	3078.10
236.58	2451.42
236.79	2564.06
237.01	2691.03
237.23	2723.80
237.45	2639.83
237.67	2500.57
237.88	2883.54
238.10	2990.03
238.32	2428.89
238.54	2502.62
238.76	2711.51
238.97	2580.44
239.19	2514.91
239.41	2506.71
239.63	2906.07
239.85	2654.17
240.06	2594.78
240.28	2441.18
240.50	2885.59
240.72	2680.79
240.93	2463.71
241.15	2629.59
241.37	2705.37
241.59	3018.71
241.81	2453.47
242.02	2551.77
242.24	2795.48
242.46	2789.33
242.68	2392.03
242.89	2465.75
243.11	2858.96
243.33	2678.74
243.55	2564.06
243.76	2551.77
243.98	2703.32
244.20	2658.26
244.42	2553.82
244.64	2564.06
244.85	2398.17
245.07	2637.78
245.29	2508.76
245.51	2531.29
245.72	2803.67
245.94	2852.82
246.16	2605.02
246.38	2629.59
246.59	2566.10
246.81	2547.67
247.03	2432.99
247.24	2453.47
247.46	2633.69
247.68	2703.32
247.90	2469.85
248.11	2590.68
248.33	2865.11
248.55	2686.94
248.77	2531.29
248.98	2525.15
249.20	2990.03
249.42	2785.24
249.64	2500.57
249.85	2426.84
250.07	2713.56
250.29	2770.90
250.50	2570.20
250.72	2437.08
250.94	2799.57
251.16	3043.28
251.37	2555.86
251.59	2629.59
251.81	2840.53
252.02	2897.88
252.24	2400.22
252.46	2672.60
252.68	2598.87
252.89	2719.70
253.11	2351.07
253.33	2605.02
253.54	2951.12
253.76	2521.05
253.98	2512.86
254.20	2482.14
254.41	2537.43
254.63	2703.32
254.85	2338.78
255.06	2588.63
255.28	2813.91
255.50	2623.45
255.71	2471.90
255.93	2408.41
256.15	2748.37
256.36	2799.57
256.58	2398.17
256.80	2488.28
257.02	2678.74
257.23	2629.59
257.45	2531.29
257.67	2668.50
257.88	2621.40
258.10	2738.13
258.32	2480.09
258.53	2645.98
258.75	2990.03
258.97	2607.06
259.18	2441.18
259.40	2484.19
259.62	2912.21
259.83	2920.40
260.05	2545.63
260.27	3217.36
260.48	2908.12
260.70	2566.10
260.92	2432.99
261.13	2480.09
261.35	2754.52
261.57	2725.85
261.78	2330.59
262.00	2469.85
262.22	2818.00
262.43	2539.48
262.65	2562.01
262.86	2631.64
263.08	3065.81
263.30	2713.56
263.51	2361.31
263.73	2439.13
263.95	2875.35
264.16	2578.39
264.38	2424.80
264.60	2531.29
264.81	2643.93
265.03	2881.49
265.25	2842.58
265.46	2506.71
265.68	2973.65
265.89	2826.20
266.11	2387.93
266.33	2539.48
266.54	2918.36
266.76	2736.09
266.98	2600.92
267.19	2633.69
267.41	2858.96
267.62	2713.56
267.84	2371.55
268.06	2713.56
268.27	2715.61
268.49	2793.43
268.70	2510.81
268.92	2508.76
269.14	2578.39
269.35	2475.99
269.57	2551.77
269.79	2617.30
270.00	2617.30
270.22	3006.42
270.43	2387.93
270.65	2406.36
270.87	2744.28
271.08	2836.44
271.30	2613.21
271.51	2506.71
271.73	2785.24
271.95	2949.08
272.16	2494.43
272.38	2613.21
272.59	2566.10
272.81	2838.48
273.02	2568.15
273.24	2564.06
273.46	2850.77
273.67	2557.91
273.89	2375.64
274.10	2498.52
274.32	2858.96
274.54	2723.80
274.75	2617.30
274.97	2609.11
275.18	2770.90
275.40	2815.96
275.61	2535.39
275.83	2707.41
276.05	2607.06
276.26	2645.98
276.48	2523.10
276.69	2613.21
276.91	2547.67
277.12	2883.54
277.34	2715.61
277.55	2719.70
277.77	2815.96
277.99	2680.79
278.20	2580.44
278.42	2508.76
278.63	2609.11
278.85	2541.53
279.06	2490.33
279.28	2701.27
279.49	2828.24
279.71	2750.42
279.93	2695.13
280.14	2637.78
280.36	2686.94
280.57	2844.63
280.79	2676.70
281.00	2549.72
281.22	2678.74
281.43	2897.88
281.65	2416.60
281.86	2533.34
282.08	2746.33
282.29	3014.61
282.51	2551.77
282.73	2469.85
282.94	2521.05
283.16	2738.13
283.37	2740.18
283.59	2621.40
283.80	2789.33
284.02	2664.41
284.23	2652.12
284.45	2615.26
284.66	2629.59
284.88	2596.82
285.09	2621.40
285.31	2785.24
285.52	2734.04
285.74	2529.24
285.95	2727.89
286.17	2676.70
286.38	2838.48
286.60	2623.45
286.81	2576.34
287.03	2549.72
287.24	2643.93
287.46	2772.95
287.67	2701.27
287.89	2756.57
288.10	2754.52
288.32	2779.09
288.53	2719.70
288.75	2697.17
288.96	2750.42
289.18	2652.12
289.39	2613.21
289.61	2645.98
289.82	3020.75
290.04	2947.03
290.25	2514.91
290.47	2629.59
290.68	2662.36
290.90	2877.40
291.11	2471.90
291.33	2756.57
291.54	2594.78
291.76	2541.53
291.97	2658.26
292.18	2719.70
292.40	2639.83
292.61	2635.74
292.83	2840.53
293.04	2664.41
293.26	2785.24
293.47	2668.50
293.69	2543.58
293.90	2533.34
294.12	2822.10
294.33	2680.79
294.55	2660.31
294.76	2797.53
294.97	2949.08
295.19	3008.47
295.40	2607.06
295.62	2709.46
295.83	2871.25
296.05	2654.17
296.26	2738.13
296.48	2559.96
296.69	2668.50
296.90	2766.81
297.12	2793.43
297.33	2772.95
297.55	2695.13
297.76	2803.67
297.98	2744.28
298.19	2691.03
298.41	2686.94
298.62	2635.74
298.83	2727.89
299.05	2703.32
299.26	2619.35
299.48	2621.40
299.69	2801.62
299.90	2574.30
300.12	2586.58
300.33	2879.44
300.55	2664.41
300.76	2729.94
300.98	2617.30
301.19	2826.20
301.40	2617.30
301.62	2666.46
301.83	2785.24
302.05	2744.28
302.26	2695.13
302.47	2631.64
302.69	2549.72
302.90	2703.32
303.12	2342.88
303.33	2729.94
303.54	2973.65
303.76	2648.02
303.97	2625.50
304.19	2740.18
304.40	2566.10
304.61	2811.86
304.83	2727.89
305.04	2670.55
305.26	2815.96
305.47	2654.17
305.68	2582.49
305.90	2506.71
306.11	2906.07
306.33	2605.02
306.54	2553.82
306.75	2600.92
306.97	2488.28
307.18	2596.82
307.39	2545.63
307.61	2695.13
307.82	2727.89
308.04	2828.24
308.25	2516.95
308.46	2650.07
308.68	2709.46
308.89	2723.80
309.10	2697.17
309.32	2631.64
309.53	2711.51
309.74	2815.96
309.96	2523.10
310.17	2693.08
310.39	2619.35
310.60	2783.19
310.81	2613.21
311.03	2535.39
311.24	2828.24
311.45	2760.66
311.67	2768.85
311.88	2658.26
312.09	2635.74
312.31	2590.68
312.52	2555.86
312.73	2629.59
312.95	2541.53
313.16	2549.72
313.37	2707.41
313.59	2723.80
313.80	2815.96
314.01	2969.55
314.23	2645.98
314.44	2543.58
314.65	2600.92
314.87	2684.89
315.08	2545.63
315.29	2650.07
315.51	2611.16
315.72	2508.76
315.93	2619.35
316.15	2637.78
316.36	2613.21
316.57	2678.74
316.79	2682.84
317.00	2551.77
317.21	2848.72
317.43	2584.54
317.64	2664.41
317.85	2494.43
318.07	2645.98
318.28	2680.79
318.49	2688.98
318.70	2838.48
318.92	2785.24
319.13	2748.37
319.34	2815.96
319.56	2566.10
319.77	2807.77
319.98	2822.10
320.20	2801.62
320.41	2729.94
320.62	2877.40
320.83	2605.02
321.05	2754.52
321.26	2658.26
321.47	2783.19
321.69	2881.49
321.90	2525.15
322.11	2545.63
322.32	2793.43
322.54	2918.36
322.75	2607.06
322.96	3229.65
323.18	2504.67
323.39	2443.23
323.60	2512.86
323.81	2652.12
324.03	2547.67
324.24	2764.76
324.45	2664.41
324.66	2600.92
324.88	2856.92
325.09	2965.46
325.30	2652.12
325.52	2590.68
325.73	2854.87
325.94	2631.64
326.15	2482.14
326.37	2514.91
326.58	2811.86
326.79	2949.08
327.00	2594.78
327.22	2572.25
327.43	2619.35
327.64	2568.15
327.85	2703.32
328.07	2637.78
328.28	3022.80
328.49	2617.30
328.70	2551.77
328.92	2584.54
329.13	2748.37
329.34	2777.05
329.55	2832.34
329.76	2678.74
329.98	2699.22
330.19	3004.37
330.40	2660.31
330.61	2693.08
330.83	2879.44
331.04	2639.83
331.25	2768.85
331.46	2611.16
331.68	2605.02
331.89	2818.00
332.10	2711.51
332.31	2400.22
332.52	2670.55
332.74	2850.77
332.95	2451.42
333.16	2613.21
333.37	2867.16
333.58	2635.74
333.80	2701.27
334.01	2424.80
334.22	2750.42
334.43	2650.07
334.64	2570.20
334.86	2635.74
335.07	2557.91
335.28	2899.92
335.49	2486.23
335.70	2664.41
335.92	2957.27
336.13	2932.69
336.34	2668.50
336.55	2625.50
336.76	2797.53
336.98	2439.13
337.19	2639.83
337.40	2764.76
337.61	3045.33
337.82	2557.91
338.04	2703.32
338.25	2500.57
338.46	2770.90
338.67	2650.07
338.88	2490.33
339.09	2529.24
339.31	2613.21
339.52	2562.01
339.73	2439.13
339.94	2617.30
340.15	2883.54
340.36	2600.92
340.58	2701.27
340.79	2570.20
341.00	2770.90
341.21	2627.54
341.42	2809.81
341.63	2600.92
341.85	2893.78
342.06	2789.33
342.27	2473.95
342.48	2744.28
342.69	2576.34
342.90	2785.24
343.12	2842.58
343.33	2555.86
343.54	2910.16
343.75	2947.03
343.96	2641.88
344.17	2574.30
344.38	2752.47
344.60	2494.43
344.81	2580.44
345.02	2557.91
345.23	2885.59
345.44	3096.53
345.65	2672.60
345.86	2676.70
346.07	2758.61
346.29	2734.04
346.50	2758.61
346.71	2703.32
346.92	2949.08
347.13	2965.46
347.34	2703.32
347.55	2572.25
347.76	2777.05
347.98	2516.95
348.19	2637.78
348.40	2752.47
348.61	2736.09
348.82	2963.41
349.03	2744.28
349.24	2531.29
349.45	2979.79
349.66	2469.85
349.88	2578.39
350.09	2465.75
350.30	2924.50
350.51	2944.98
350.72	2703.32
350.93	2705.37
351.14	2652.12
351.35	2832.34
351.56	2674.65
351.77	2598.87
351.99	2803.67
352.20	2904.02
352.41	2682.84
352.62	2430.94
352.83	2686.94
353.04	2699.22
353.25	2564.06
353.46	2658.26
353.67	2830.29
353.88	2457.56
354.09	2564.06
354.30	2650.07
354.52	2873.30
354.73	2688.98
354.94	2547.67
355.15	2596.82
355.36	2992.08
355.57	2666.46
355.78	2596.82
355.99	2498.52
356.20	2623.45
356.41	2920.40
356.62	2693.08
356.83	2668.50
357.04	2928.60
357.25	2457.56
357.46	2625.50
357.68	2486.23
357.89	2564.06
358.10	2719.70
358.31	2605.02
358.52	2631.64
358.73	2564.06
358.94	2551.77
359.15	2570.20
359.36	2682.84
359.57	2711.51
359.78	2688.98
359.99	2707.41
360.20	2543.58
360.41	2709.46
360.62	2787.29
360.83	2660.31
361.04	2664.41
361.25	2852.82
361.46	2895.83
361.67	2832.34
361.88	2670.55
362.09	2908.12
362.30	2762.71
362.51	2553.82
362.72	2697.17
362.93	2877.40
363.14	2729.94
363.35	2686.94
363.56	2574.30
363.78	2893.78
363.99	2865.11
364.20	2648.02
364.41	2668.50
364.62	2985.94
364.83	2842.58
365.04	2654.17
365.25	2637.78
365.46	3024.85
365.67	2541.53
365.88	2650.07
366.09	2641.88
366.30	2617.30
366.51	2729.94
366.72	2625.50
366.93	2635.74
367.14	2762.71
367.35	2858.96
367.56	2617.30
367.77	2717.65
367.98	2793.43
368.18	2793.43
368.39	2686.94
368.60	2555.86
368.81	2838.48
369.02	2746.33
369.23	2617.30
369.44	2482.14
369.65	2672.60
369.86	2738.13
370.07	2686.94
370.28	2488.28
370.49	2754.52
370.70	2793.43
370.91	2529.24
371.12	2473.95
371.33	2867.16
371.54	2576.34
371.75	2758.61
371.96	2410.46
372.17	2789.33
372.38	2721.75
372.59	2756.57
372.80	2572.25
373.01	2645.98
373.22	2635.74
373.43	2662.36
373.64	2508.76
373.85	2869.20
374.06	2990.03
374.26	2740.18
374.47	2740.18
374.68	2887.64
374.89	2856.92
375.10	2553.82
375.31	2721.75
375.52	2785.24
375.73	2762.71
375.94	2482.14
376.15	2768.85
376.36	2645.98
376.57	2533.34
376.78	2752.47
376.99	2703.32
377.20	3000.27
377.40	2666.46
377.61	2848.72
377.82	2543.58
378.03	2951.12
378.24	2838.48
378.45	2703.32
378.66	2721.75
378.87	2506.71
379.08	2527.19
379.29	2584.54
379.50	2703.32
379.71	2605.02
379.91	2854.87
380.12	2613.21
380.33	2662.36
380.54	2682.84
380.75	2736.09
380.96	2578.39
381.17	2537.43
381.38	2664.41
381.59	2742.23
381.80	2600.92
382.00	2803.67
382.21	2762.71
382.42	2979.79
382.63	2934.74
382.84	2752.47
383.05	2906.07
383.26	2926.55
383.47	2680.79
383.68	2635.74
383.88	2820.05
384.09	2785.24
384.30	2854.87
384.51	2672.60
384.72	2656.22
384.93	2588.63
385.14	2666.46
385.35	2838.48
385.55	2590.68
385.76	2951.12
385.97	2648.02
386.18	2602.97
386.39	2592.73
386.60	2688.98
386.81	2664.41
387.02	2533.34
387.22	2519.00
387.43	2881.49
387.64	2766.81
387.85	2901.97
388.06	2785.24
388.27	4079.55
388.48	7464.85
388.68	11054.94
388.89	13322.04
389.10	14661.41
389.31	13844.27
389.52	10827.61
389.73	9408.37
389.93	8732.54
390.14	7788.43
390.35	7155.60
390.56	6440.86
390.77	5257.14
390.98	4042.69
391.18	3514.31
391.39	3137.49
391.60	2783.19
391.81	2877.40
392.02	2543.58
392.23	3100.62
392.43	2729.94
392.64	2758.61
392.85	2713.56
393.06	2914.26
393.27	2652.12
393.47	2523.10
393.68	2691.03
393.89	2703.32
394.10	2942.93
394.31	2559.96
394.52	2557.91
394.72	2691.03
394.93	2891.73
395.14	2551.77
395.35	2641.88
395.56	2639.83
395.76	2729.94
395.97	2625.50
396.18	2766.81
396.39	2850.77
396.60	3237.84
396.80	2899.92
397.01	2723.80
397.22	2871.25
397.43	2899.92
397.64	2588.63
397.84	2746.33
398.05	3090.38
398.26	2680.79
398.47	2756.57
398.67	2867.16
398.88	2719.70
399.09	2844.63
399.30	2570.20
399.51	2725.85
399.71	2605.02
399.92	2750.42
400.13	2711.51
400.34	2621.40
400.54	2686.94
400.75	2990.03
400.96	2660.31
401.17	2930.64
401.37	2867.16
401.58	2688.98
401.79	2588.63
402.00	2752.47
402.21	3135.44
402.41	2955.22
402.62	2924.50
402.83	3061.71
403.04	3133.39
403.24	3293.13
403.45	2818.00
403.66	2959.31
403.87	2949.08
404.07	3057.62
404.28	2875.35
404.49	2840.53
404.70	2830.29
404.90	2854.87
405.11	2746.33
405.32	2717.65
405.52	2752.47
405.73	2668.50
405.94	2559.96
406.15	2670.55
406.35	2879.44
406.56	2795.48
406.77	2748.37
406.98	2650.07
407.18	2564.06
407.39	2963.41
407.60	2672.60
407.80	2746.33
408.01	2686.94
408.22	2822.10
408.43	2555.86
408.63	2707.41
408.84	2867.16
409.05	2813.91
409.25	2596.82
409.46	2498.52
409.67	2682.84
409.88	2627.54
410.08	2719.70
410.29	2617.30
410.50	2723.80
410.70	2695.13
410.91	2582.49
411.12	2723.80
411.32	2711.51
411.53	2617.30
411.74	2717.65
411.95	2713.56
412.15	2686.94
412.36	2820.05
412.57	2748.37
412.77	2801.62
412.98	2779.09
413.19	2637.78
413.39	2758.61
413.60	2629.59
413.81	2922.45
414.01	2586.58
414.22	2676.70
414.43	2709.46
414.63	2648.02
414.84	2863.06
415.05	2676.70
415.25	2478.04
415.46	2801.62
415.67	2623.45
415.87	2637.78
416.08	2607.06
416.29	2670.55
416.49	2838.48
416.70	2633.69
416.91	2621.40
417.11	2736.09
417.32	2897.88
417.53	2701.27
417.73	2727.89
417.94	2637.78
418.15	2744.28
418.35	2678.74
418.56	2623.45
418.77	3080.14
418.97	2738.13
419.18	2678.74
419.38	2398.17
419.59	2699.22
419.80	2967.51
420.00	2512.86
420.21	2668.50
420.42	2947.03
420.62	2791.38
420.83	2607.06
421.04	2607.06
421.24	2703.32
421.45	2828.24
421.65	2742.23
421.86	2607.06
422.07	2844.63
422.27	2740.18
422.48	2662.36
422.69	2596.82
422.89	2699.22
423.10	2764.76
423.30	2510.81
423.51	2723.80
423.72	2815.96
423.92	2809.81
424.13	2510.81
424.33	2766.81
424.54	2856.92
424.75	2740.18
424.95	2750.42
425.16	2602.97
425.36	2615.26
425.57	2879.44
425.78	2709.46
425.98	2766.81
426.19	2697.17
426.39	2562.01
426.60	2686.94
426.81	2785.24
427.01	2805.72
427.22	2590.68
427.42	2430.94
427.63	2594.78
427.83	2777.05
428.04	3018.71
428.25	2760.66
428.45	2715.61
428.66	2834.39
428.86	2717.65
429.07	2701.27
429.28	2576.34
429.48	2742.23
429.69	2592.73
429.89	2707.41
430.10	2516.95
430.30	2785.24
430.51	2811.86
430.71	2586.58
430.92	2641.88
431.13	2578.39
431.33	2809.81
431.54	2742.23
431.74	2858.96
431.95	3137.49
432.15	2545.63
432.36	2670.55
432.56	2727.89
432.77	3045.33
432.98	2949.08
433.18	2713.56
433.39	2588.63
433.59	2762.71
433.80	2975.70
434.00	2863.06
434.21	2682.84
434.41	2605.02
434.62	3051.47
434.82	2514.91
435.03	2617.30
435.23	2805.72
435.44	2418.65
435.64	2594.78
435.85	2754.52
436.06	2820.05
436.26	2940.88
436.47	2617.30
436.67	2609.11
436.88	2752.47
437.08	2867.16
437.29	2840.53
437.49	2736.09
437.70	2887.64
437.90	2711.51
438.11	2797.53
438.31	2645.98
438.52	2932.69
438.72	2928.60
438.93	2998.23
439.13	2772.95
439.34	2830.29
439.54	2744.28
439.75	2736.09
439.95	2742.23
440.16	2557.91
440.36	2686.94
440.57	2748.37
440.77	2695.13
440.98	2820.05
441.18	2813.91
441.39	2674.65
441.59	2465.75
441.80	2973.65
442.00	2721.75
442.21	2713.56
442.41	2521.05
442.62	2922.45
442.82	2617.30
443.02	2684.89
443.23	2748.37
443.43	2658.26
443.64	2924.50
443.84	2506.71
444.05	2744.28
444.25	2799.57
444.46	2648.02
444.66	2662.36
444.87	2897.88
445.07	2512.86
445.28	2617.30
445.48	2791.38
445.69	2725.85
445.89	3137.49
446.09	2758.61
446.30	2940.88
446.50	3143.63
446.71	4593.59
446.91	5691.31
447.12	6584.22
447.32	6741.91
447.53	6584.22
447.73	5380.01
447.93	4751.29
448.14	4599.74
448.34	4472.76
448.55	3821.51
448.75	3780.55
448.96	3764.17
449.16	3323.85
449.36	3215.31
449.57	2807.77
449.77	2797.53
449.98	2664.41
450.18	2846.68
450.39	2652.12
450.59	2781.14
450.79	2670.55
451.00	2596.82
451.20	2856.92
451.41	2684.89
451.61	2809.81
451.81	2686.94
452.02	2691.03
452.22	2549.72
452.43	2619.35
452.63	2637.78
452.84	2725.85
453.04	2592.73
453.24	2768.85
453.45	2588.63
453.65	2645.98
453.86	2631.64
454.06	2734.04
454.26	2709.46
454.47	2592.73
454.67	2781.14
454.87	2736.09
455.08	2719.70
455.28	2756.57
455.49	2736.09
455.69	2695.13
455.89	3047.38
456.10	2701.27
456.30	2557.91
456.51	2760.66
456.71	2783.19
456.91	2744.28
457.12	2672.60
457.32	2723.80
457.52	2553.82
457.73	2742.23
457.93	2818.00
458.14	2621.40
458.34	2500.57
458.54	2662.36
458.75	2635.74
458.95	2967.51
459.15	2719.70
459.36	2752.47
459.56	2764.76
459.76	3131.34
459.97	2752.47
460.17	2699.22
460.37	2768.85
460.58	2736.09
460.78	2723.80
460.99	2619.35
461.19	2637.78
461.39	2699.22
461.60	2789.33
461.80	2703.32
462.00	2557.91
462.21	2719.70
462.41	2586.58
462.61	2535.39
462.82	2455.51
463.02	2822.10
463.22	2775.00
463.43	2752.47
463.63	2633.69
463.83	2842.58
464.04	2805.72
464.24	2645.98
464.44	2564.06
464.64	2684.89
464.85	2848.72
465.05	2691.03
465.25	2643.93
465.46	2586.58
465.66	2826.20
465.86	2754.52
466.07	2697.17
466.27	2682.84
466.47	2613.21
466.68	2482.14
466.88	2793.43
467.08	2858.96
467.29	2844.63
467.49	2676.70
467.69	2758.61
467.89	2756.57
468.10	2707.41
468.30	2752.47
468.50	2752.47
468.71	2987.99
468.91	2557.91
469.11	2805.72
469.31	2635.74
469.52	2559.96
469.72	2928.60
469.92	2858.96
470.13	2631.64
470.33	2762.71
470.53	2760.66
470.73	2920.40
470.94	3401.68
471.14	3327.95
471.34	3862.47
471.54	3612.62
471.75	3270.61
471.95	3198.93
472.15	3074.00
472.36	3168.21
472.56	3026.90
472.76	3196.88
472.96	3106.77
473.17	2885.59
473.37	2748.37
473.57	2648.02
473.77	2791.38
473.98	2766.81
474.18	2527.19
474.38	3127.25
474.58	2693.08
474.79	2615.26
474.99	2764.76
475.19	2889.68
475.39	2617.30
475.60	2752.47
475.80	2668.50
476.00	2805.72
476.20	2652.12
476.41	2686.94
476.61	2772.95
476.81	2955.22
477.01	2699.22
477.21	2830.29
477.42	2748.37
477.62	2635.74
477.82	2928.60
478.02	2619.35
478.23	2674.65
478.43	2607.06
478.63	2725.85
478.83	2660.31
479.03	2684.89
479.24	2887.64
479.44	2910.16
479.64	2545.63
479.84	2404.32
480.04	2564.06
480.25	2820.05
480.45	2596.82
480.65	2629.59
480.85	2949.08
481.06	2662.36
481.26	2795.48
481.46	2699.22
481.66	2832.34
481.86	2584.54
482.06	2711.51
482.27	2629.59
482.47	2684.89
482.67	2865.11
482.87	2670.55
483.07	2768.85
483.28	2719.70
483.48	2658.26
483.68	2674.65
483.88	2473.95
484.08	2404.32
484.29	2510.81
484.49	2736.09
484.69	2506.71
484.89	2893.78
485.09	2871.25
485.29	2740.18
485.50	2756.57
485.70	2572.25
485.90	2940.88
486.10	2750.42
486.30	2555.86
486.50	2881.49
486.71	2822.10
486.91	2775.00
487.11	2746.33
487.31	2541.53
487.51	2846.68
487.71	2609.11
487.91	2559.96
488.12	2557.91
488.32	2437.08
488.52	2613.21
488.72	2473.95
488.92	2738.13
489.12	2856.92
489.32	2777.05
489.53	2688.98
489.73	2467.80
489.93	3022.80
490.13	2576.34
490.33	2508.76
490.53	2738.13
490.73	2916.31
490.94	2473.95
491.14	2715.61
491.34	2787.29
491.54	2908.12
491.74	3504.07
491.94	4079.55
492.14	4497.34
492.34	4474.81
492.54	4054.98
492.75	3575.75
492.95	3555.27
493.15	3442.64
493.35	3260.37
493.55	3338.19
493.75	3063.76
493.95	3155.92
494.15	2854.87
494.35	2711.51
494.56	2725.85
494.76	2717.65
494.96	2783.19
495.16	2643.93
495.36	2709.46
495.56	2764.76
495.76	2654.17
495.96	2568.15
496.16	2633.69
496.36	2990.03
496.56	2654.17
496.77	2723.80
496.97	2764.76
497.17	2944.98
497.37	2486.23
497.57	2754.52
497.77	2768.85
497.97	2654.17
498.17	2623.45
498.37	2676.70
498.57	2822.10
498.77	2645.98
498.97	2719.70
499.17	2863.06
499.38	2662.36
499.58	2801.62
499.78	2772.95
499.98	2756.57
500.18	2680.79
500.38	2684.89
500.58	2854.87
500.78	3252.17
500.98	5447.60
501.18	7157.65
501.38	8589.18
501.58	9424.75
501.78	9402.22
501.98	7659.40
502.18	6483.87
502.38	5625.77
502.58	5320.62
502.78	4718.52
502.98	4659.13
503.18	4462.52
503.38	4028.35
503.59	3622.86
503.79	3424.20
503.99	3217.36
504.19	3256.27
504.39	3084.24
504.59	3088.34
504.79	3094.48
504.99	3272.65
505.19	2953.17
505.39	2795.48
505.59	2963.41
505.79	3035.09
505.99	2803.67
506.19	2680.79
506.39	2893.78
506.59	2662.36
506.79	2674.65
506.99	2830.29
507.19	2600.92
507.39	2758.61
507.59	2547.67
507.79	2705.37
507.99	2602.97
508.19	2680.79
508.39	2701.27
508.59	2678.74
508.79	2795.48
508.99	3024.85
509.19	2629.59
509.39	2725.85
509.59	2572.25
509.79	2648.02
509.99	2791.38
510.19	2781.14
510.39	2752.47
510.59	2779.09
510.79	2666.46
510.99	2478.04
511.19	2668.50
511.39	2934.74
511.59	2791.38
511.79	2818.00
511.99	2658.26
512.19	3041.23
512.38	2793.43
512.58	2652.12
512.78	2635.74
512.98	2875.35
513.18	2965.46
513.38	2496.47
513.58	2744.28
513.78	2756.57
513.98	2711.51
514.18	2598.87
514.38	2578.39
514.58	2752.47
514.78	2607.06
514.98	2531.29
515.18	2643.93
515.38	2549.72
515.58	2996.18
515.78	2605.02
515.98	2568.15
516.18	2779.09
516.38	2772.95
516.57	2582.49
516.77	2564.06
516.97	2893.78
517.17	2703.32
517.37	2465.75
517.57	2779.09
517.77	2666.46
517.97	2652.12
518.17	2703.32
518.37	2529.24
518.57	2717.65
518.77	2711.51
518.97	2639.83
519.16	2662.36
519.36	2893.78
519.56	2615.26
519.76	2656.22
519.96	2668.50
520.16	2922.45
520.36	2643.93
520.56	2850.77
520.76	2611.16
520.96	2688.98
521.16	2850.77
521.35	2822.10
521.55	2742.23
521.75	2768.85
521.95	2641.88
522.15	2553.82
522.35	2555.86
522.55	2547.67
522.75	2895.83
522.95	2615.26
523.14	2559.96
523.34	2781.14
523.54	2650.07
523.74	2719.70
523.94	2631.64
524.14	2521.05
524.34	2818.00
524.54	2867.16
524.73	2664.41
524.93	2793.43
525.13	2697.17
525.33	2494.43
525.53	2887.64
525.73	2848.72
525.93	2707.41
526.13	2621.40
526.32	2570.20
526.52	2916.31
526.72	2832.34
526.92	2693.08
527.12	2584.54
527.32	2566.10
527.52	2711.51
527.71	2637.78
527.91	2680.79
528.11	2600.92
528.31	2709.46
528.51	2619.35
528.71	2793.43
528.90	2791.38
529.10	2863.06
529.30	2746.33
529.50	2426.84
529.70	2736.09
529.90	2645.98
530.09	2627.54
530.29	2510.81
530.49	2582.49
530.69	3076.05
530.89	2699.22
531.09	2748.37
531.28	2641.88
531.48	2871.25
531.68	2594.78
531.88	2711.51
532.08	2805.72
532.28	2670.55
532.47	2795.48
532.67	2756.57
532.87	2809.81
533.07	2514.91
533.27	2742.23
533.46	2615.26
533.66	2752.47
533.86	2731.99
534.06	2668.50
534.26	2662.36
534.45	2648.02
534.65	2901.97
534.85	2731.99
535.05	2580.44
535.25	2887.64
535.44	2506.71
535.64	2709.46
535.84	2680.79
536.04	2670.55
536.24	2736.09
536.43	2684.89
536.63	2674.65
536.83	2691.03
537.03	2686.94
537.22	2482.14
537.42	2467.80
537.62	2793.43
537.82	2596.82
538.02	2846.68
538.21	2760.66
538.41	3237.84
538.61	2785.24
538.81	2678.74
539.00	2758.61
539.20	2498.52
539.40	2635.74
539.60	2619.35
539.79	2836.44
539.99	2666.46
540.19	2617.30
540.39	2582.49
540.58	2686.94
540.78	2871.25
540.98	2725.85
541.18	2748.37
541.37	2758.61
541.57	2748.37
541.77	2770.90
541.97	2568.15
542.16	2408.41
542.36	2701.27
542.56	2639.83
542.76	2809.81
542.95	2705.37
543.15	2813.91
543.35	2842.58
543.54	2633.69
543.74	2600.92
543.94	2897.88
544.14	2650.07
544.33	2727.89
544.53	2631.64
544.73	2703.32
544.93	2664.41
545.12	2656.22
545.32	2746.33
545.52	2740.18
545.71	2580.44
545.91	2557.91
546.11	2645.98
546.30	2625.50
546.50	2682.84
546.70	2793.43
546.90	2666.46
547.09	2543.58
547.29	2658.26
547.49	2750.42
547.68	2680.79
547.88	2645.98
548.08	2736.09
548.27	3102.67
548.47	2508.76
548.67	2586.58
548.87	2719.70
549.06	2645.98
549.26	2553.82
549.46	2764.76
549.65	2678.74
549.85	2676.70
550.05	2676.70
550.24	2596.82
550.44	2801.62
550.64	2699.22
550.83	2631.64
551.03	2924.50
551.23	2854.87
551.42	2691.03
551.62	2619.35
551.82	2707.41
552.01	2777.05
552.21	2899.92
552.41	2656.22
552.60	2899.92
552.80	2744.28
553.00	2641.88
553.19	2709.46
553.39	2891.73
553.59	2529.24
553.78	2750.42
553.98	2670.55
554.17	2588.63
554.37	2916.31
554.57	2705.37
554.76	2596.82
554.96	2688.98
555.16	2738.13
555.35	2758.61
555.55	2815.96
555.75	2775.00
555.94	2858.96
556.14	2506.71
556.33	2789.33
556.53	2772.95
556.73	2746.33
556.92	2709.46
557.12	2723.80
557.32	3028.95
557.51	2981.84
557.71	2707.41
557.90	2807.77
558.10	2938.84
558.30	2727.89
558.49	2691.03
558.69	2621.40
558.88	2758.61
559.08	2793.43
559.28	2629.59
559.47	2645.98
559.67	2828.24
559.86	2992.08
560.06	2693.08
560.26	2645.98
560.45	2766.81
560.65	2736.09
560.84	2891.73
561.04	2592.73
561.24	2822.10
561.43	2566.10
561.63	2801.62
561.82	2715.61
562.02	2813.91
562.22	2596.82
562.41	2580.44
562.61	2605.02
562.80	2605.02
563.00	2990.03
563.19	2711.51
563.39	2760.66
563.59	2789.33
563.78	2594.78
563.98	2400.22
564.17	2537.43
564.37	2437.08
564.56	2678.74
564.76	2564.06
564.96	2789.33
565.15	2789.33
565.35	3069.91
565.54	2631.64
565.74	2748.37
565.93	2777.05
566.13	2736.09
566.32	2637.78
566.52	2760.66
566.71	2688.98
566.91	2836.44
567.11	2738.13
567.30	2590.68
567.50	2818.00
567.69	2815.96
567.89	2594.78
568.08	2523.10
568.28	2795.48
568.47	2506.71
568.67	2701.27
568.86	2613.21
569.06	2805.72
569.25	2703.32
569.45	2619.35
569.64	2703.32
569.84	2570.20
570.04	2738.13
570.23	2598.87
570.43	2654.17
570.62	2766.81
570.82	2912.21
571.01	2527.19
571.21	2590.68
571.40	2586.58
571.60	2822.10
571.79	2723.80
571.99	2754.52
572.18	2582.49
572.38	2725.85
572.57	2727.89
572.77	2686.94
572.96	3145.68
573.16	2764.76
573.35	2645.98
573.55	2856.92
573.74	2842.58
573.94	2713.56
574.13	2621.40
574.33	2801.62
574.52	2863.06
574.71	2691.03
574.91	2760.66
575.10	2551.77
575.30	2645.98
575.49	2664.41
575.69	2623.45
575.88	2637.78
576.08	2660.31
576.27	2961.36
576.47	2648.02
576.66	2850.77
576.86	2951.12
577.05	2670.55
577.25	2750.42
577.44	2916.31
577.64	2602.97
577.83	2908.12
578.02	2682.84
578.22	2746.33
578.41	2908.12
578.61	2727.89
578.80	2523.10
579.00	2684.89
579.19	2670.55
579.39	2789.33
579.58	2770.90
579.77	2703.32
579.97	2926.55
580.16	2895.83
580.36	2756.57
580.55	2758.61
580.75	2752.47
580.94	2834.39
581.13	2836.44
581.33	2883.54
581.52	2748.37
581.72	3024.85
581.91	2779.09
582.11	2680.79
582.30	2834.39
582.49	2777.05
582.69	2875.35
582.88	2752.47
583.08	2744.28
583.27	2963.41
583.47	2856.92
583.66	2617.30
583.85	2658.26
584.05	2736.09
584.24	2789.33
584.44	2686.94
584.63	2906.07
584.82	2895.83
585.02	2871.25
585.21	2889.68
585.41	2842.58
585.60	2717.65
585.79	2949.08
585.99	2914.26
586.18	2869.20
586.37	3532.75
586.57	5453.74
586.76	16039.69
586.96	35237.35
587.15	48110.88
587.34	57007.26
587.54	61269.08
587.73	54727.87
587.93	38946.22
588.12	29687.36
588.31	23963.28
588.51	20788.93
588.70	19422.94
588.89	17127.16
589.09	14542.63
589.28	12564.29
589.47	9998.18
589.67	7593.87
589.86	5840.81
590.06	4595.64
590.25	3899.33
590.44	3366.86
590.64	3102.67
590.83	3010.51
591.02	2959.31
591.22	2699.22
591.41	2781.14
591.60	2811.86
591.80	3104.72
591.99	2619.35
592.18	2654.17
592.38	2867.16
592.57	2658.26
592.76	2711.51
592.96	2691.03
593.15	2752.47
593.34	2895.83
593.54	2723.80
593.73	2785.24
593.92	2799.57
594.12	2793.43
594.31	2729.94
594.50	2867.16
594.70	2842.58
594.89	3125.20
595.08	2539.48
595.28	2818.00
595.47	3162.06
595.66	2932.69
595.86	2582.49
596.05	2623.45
596.24	2727.89
596.43	2965.46
596.63	2865.11
596.82	2674.65
597.01	2934.74
597.21	2990.03
597.40	2736.09
597.59	2686.94
597.79	2807.77
597.98	2811.86
598.17	2703.32
598.36	2721.75
598.56	2777.05
598.75	2703.32
598.94	2703.32
599.14	2639.83
599.33	2652.12
599.52	2758.61
599.71	2734.04
599.91	2699.22
600.10	2828.24
600.29	2688.98
600.48	2756.57
600.68	2760.66
600.87	2701.27
601.06	2584.54
601.26	2711.51
601.45	2838.48
601.64	2670.55
601.83	2955.22
602.03	2584.54
602.22	2596.82
602.41	2924.50
602.60	3114.96
602.80	2727.89
602.99	2727.89
603.18	2629.59
603.37	2727.89
603.57	2678.74
603.76	2697.17
603.95	2920.40
604.14	2686.94
604.34	2609.11
604.53	2711.51
604.72	2711.51
604.91	2766.81
605.10	2650.07
605.30	2488.28
605.49	2981.84
605.68	2856.92
605.87	2801.62
606.07	2637.78
606.26	2844.63
606.45	2805.72
606.64	2740.18
606.84	2572.25
607.03	2799.57
607.22	2729.94
607.41	2711.51
607.60	2664.41
607.80	2916.31
607.99	2688.98
608.18	2717.65
608.37	2652.12
608.56	2570.20
608.76	2951.12
608.95	2840.53
609.14	2723.80
609.33	2957.27
609.52	2949.08
609.72	2715.61
609.91	2787.29
610.10	2787.29
610.29	3033.04
610.48	2799.57
610.68	2758.61
610.87	2719.70
611.06	2875.35
611.25	2623.45
611.44	2840.53
611.63	2627.54
611.83	2891.73
612.02	2502.62
612.21	2770.90
612.40	2502.62
612.59	2475.99
612.79	2508.76
612.98	2709.46
613.17	2944.98
613.36	2709.46
613.55	2818.00
613.74	2654.17
613.93	2762.71
614.13	2854.87
614.32	2838.48
614.51	2881.49
614.70	2686.94
614.89	2686.94
615.08	2832.34
615.28	3160.02
615.47	2592.73
615.66	2967.51
615.85	2703.32
616.04	2793.43
616.23	2744.28
616.42	2729.94
616.62	2668.50
616.81	2637.78
617.00	2801.62
617.19	2846.68
617.38	2592.73
617.57	2684.89
617.76	2844.63
617.95	2867.16
618.15	2787.29
618.34	2863.06
618.53	2498.52
618.72	2877.40
618.91	2807.77
619.10	2754.52
619.29	2725.85
619.48	2729.94
619.68	2580.44
619.87	2611.16
620.06	2496.47
620.25	2826.20
620.44	2645.98
620.63	2559.96
620.82	2717.65
621.01	2764.76
621.20	2594.78
621.39	2674.65
621.59	2826.20
621.78	2711.51
621.97	2641.88
622.16	2711.51
622.35	2795.48
622.54	2807.77
622.73	2719.70
622.92	2437.08
623.11	2901.97
623.30	2740.18
623.49	2748.37
623.68	2621.40
623.88	3028.95
624.07	2705.37
624.26	2594.78
624.45	2670.55
624.64	2676.70
624.83	2803.67
625.02	2582.49
625.21	2658.26
625.40	2750.42
625.59	2850.77
625.78	2637.78
625.97	2818.00
626.16	2928.60
626.35	2830.29
626.54	2695.13
626.74	2887.64
626.93	2744.28
627.12	2596.82
627.31	2695.13
627.50	2731.99
627.69	2922.45
627.88	2719.70
628.07	2678.74
628.26	2545.63
628.45	2584.54
628.64	2697.17
628.83	2594.78
629.02	2465.75
629.21	2832.34
629.40	2758.61
629.59	2658.26
629.78	2650.07
629.97	2736.09
630.16	2734.04
630.35	2693.08
630.54	2727.89
630.73	2625.50
630.92	2740.18
631.11	2521.05
631.30	2658.26
631.49	2844.63
631.68	2707.41
631.87	2723.80
632.06	2512.86
632.25	3076.05
632.44	2680.79
632.63	2711.51
632.82	2607.06
633.01	2658.26
633.20	2797.53
633.39	2645.98
633.58	2588.63
633.77	2795.48
633.96	2858.96
634.15	2795.48
634.34	2795.48
634.53	2772.95
634.72	2699.22
634.91	2527.19
635.10	2740.18
635.29	2844.63
635.48	2695.13
635.67	2566.10
635.86	2551.77
636.05	2969.55
636.24	2742.23
636.43	2707.41
636.62	2760.66
636.81	2375.64
637.00	2723.80
637.19	2627.54
637.38	2719.70
637.57	2672.60
637.76	2807.77
637.95	2748.37
638.14	2686.94
638.33	2740.18
638.52	2758.61
638.71	2635.74
638.89	2551.77
639.08	3145.68
639.27	2795.48
639.46	2901.97
639.65	3114.96
639.84	3260.37
640.03	3313.61
640.22	3135.44
640.41	3125.20
640.60	2901.97
640.79	2912.21
640.98	2801.62
641.17	2883.54
641.36	2932.69
641.55	2967.51
641.74	2553.82
641.92	2521.05
642.11	2637.78
642.30	2643.93
642.49	2578.39
642.68	2629.59
642.87	2766.81
643.06	2789.33
643.25	2613.21
643.44	2549.72
643.63	2637.78
643.82	2848.72
644.00	2498.52
644.19	2709.46
644.38	2592.73
644.57	2791.38
644.76	2711.51
644.95	2648.02
645.14	2772.95
645.33	2789.33
645.52	2691.03
645.71	2482.14
645.89	2584.54
646.08	2760.66
646.27	2721.75
646.46	2846.68
646.65	2555.86
646.84	2744.28
647.03	2580.44
647.22	2760.66
647.40	2818.00
647.59	2545.63
647.78	2447.32
647.97	2475.99
648.16	2539.48
648.35	2910.16
648.54	2885.59
648.73	2633.69
648.91	2871.25
649.10	2713.56
649.29	2590.68
649.48	2564.06
649.67	2805.72
649.86	2762.71
650.05	2611.16
650.23	2858.96
650.42	2715.61
650.61	2899.92
650.80	2883.54
650.99	2922.45
651.18	2899.92
651.36	2936.79
651.55	2615.26
651.74	2824.15
651.93	2684.89
652.12	2676.70
652.31	2758.61
652.49	2641.88
652.68	2652.12
652.87	2973.65
653.06	2758.61
653.25	2875.35
653.44	2668.50
653.62	3037.14
653.81	2588.63
654.00	2693.08
654.19	2895.83
654.38	3098.58
654.56	2750.42
654.75	2627.54
654.94	2815.96
655.13	2777.05
655.32	2635.74
655.51	2813.91
655.69	2592.73
655.88	2764.76
656.07	2541.53
656.26	2740.18
656.45	2562.01
656.63	2762.71
656.82	2695.13
657.01	2914.26
657.20	2615.26
657.38	2932.69
657.57	2719.70
657.76	2525.15
657.95	2848.72
658.14	2639.83
658.32	2758.61
658.51	2539.48
658.70	2674.65
658.89	2742.23
659.08	2684.89
659.26	2889.68
659.45	2625.50
659.64	2760.66
659.83	2676.70
660.01	3123.15
660.20	2758.61
660.39	2942.93
660.58	2471.90
660.76	2764.76
660.95	2584.54
661.14	2764.76
661.33	2533.34
661.51	2621.40
661.70	2609.11
661.89	2772.95
662.08	2652.12
662.26	2545.63
662.45	2496.47
662.64	3086.29
662.83	2658.26
663.01	2484.19
663.20	2633.69
663.39	2949.08
663.58	2682.84
663.76	2635.74
663.95	2783.19
664.14	2519.00
664.32	2631.64
664.51	2576.34
664.70	2553.82
664.89	2830.29
665.07	2529.24
665.26	2777.05
665.45	2486.23
665.64	2779.09
665.82	2637.78
666.01	2770.90
666.20	2559.96
666.38	2863.06
666.57	2858.96
666.76	4306.88
666.95	10125.16
667.13	17084.16
667.32	20999.87
667.51	23983.76
667.69	25140.86
667.88	21569.21
668.07	15472.40
668.25	12867.39
668.44	11040.60
668.63	9455.47
668.81	8408.96
669.00	7354.26
669.19	6602.65
669.38	5775.27
669.56	4927.41
669.75	4114.37
669.94	3768.26
670.12	3184.59
670.31	2985.94
670.50	2985.94
670.68	2904.02
670.87	2803.67
671.06	2658.26
671.24	2789.33
671.43	2920.40
671.62	2795.48
671.80	2652.12
671.99	2787.29
672.18	2758.61
672.36	2762.71
672.55	2736.09
672.74	2643.93
672.92	2666.46
673.11	2793.43
673.29	2562.01
673.48	2801.62
673.67	2691.03
673.85	2897.88
674.04	2529.24
674.23	2731.99
674.41	3090.38
674.60	2566.10
674.79	2461.66
674.97	2568.15
675.16	2828.24
675.34	2934.74
675.53	2611.16
675.72	2701.27
675.90	3004.37
676.09	2711.51
676.28	2713.56
676.46	2502.62
676.65	2881.49
676.83	2586.58
677.02	2662.36
677.21	2707.41
677.39	2729.94
677.58	2658.26
677.77	2562.01
677.95	2633.69
678.14	2695.13
678.32	2678.74
678.51	2629.59
678.70	2975.70
678.88	2723.80
679.07	2785.24
679.25	2744.28
679.44	2666.46
679.63	2648.02
679.81	2709.46
680.00	2899.92
680.18	2742.23
680.37	2959.31
680.55	2734.04
680.74	2439.13
680.93	2488.28
681.11	2754.52
681.30	2725.85
681.48	2787.29
681.67	2590.68
681.85	2703.32
682.04	2559.96
682.23	2848.72
682.41	2840.53
682.60	2594.78
682.78	2639.83
682.97	2580.44
683.15	2686.94
683.34	2752.47
683.53	2887.64
683.71	2533.34
683.90	2793.43
684.08	3006.42
684.27	2633.69
684.45	2676.70
684.64	2815.96
684.82	2654.17
685.01	2801.62
685.19	2648.02
685.38	2858.96
685.57	2731.99
685.75	2590.68
685.94	2553.82
686.12	2531.29
686.31	2678.74
686.49	2938.84
686.68	2482.14
686.86	2660.31
687.05	2742.23
687.23	2881.49
687.42	2660.31
687.60	2549.72
687.79	2781.14
687.97	3004.37
688.16	2793.43
688.34	2842.58
688.53	2494.43
688.71	2705.37
688.90	2838.48
689.08	2629.59
689.27	2435.03
689.45	2842.58
689.64	2707.41
689.82	2703.32
690.01	2826.20
690.19	2781.14
690.38	2637.78
690.56	2779.09
690.75	2627.54
690.93	2617.30
691.12	2619.35
691.30	2764.76
691.49	2736.09
691.67	2672.60
691.86	2934.74
692.04	2617.30
692.23	2725.85
692.41	2750.42
692.60	3026.90
692.78	2897.88
692.97	2785.24
693.15	2830.29
693.34	2830.29
693.52	2850.77
693.71	2717.65
693.89	2623.45
694.08	2521.05
694.26	2762.71
694.44	2828.24
694.63	2840.53
694.81	2549.72
695.00	2533.34
695.18	2858.96
695.37	3157.97
695.55	2729.94
695.74	2703.32
695.92	2680.79
696.10	2934.74
696.29	2523.10
696.47	2582.49
696.66	2555.86
696.84	2588.63
697.03	2654.17
697.21	2920.40
697.40	3977.16
697.58	2852.82
697.76	2611.16
697.95	2592.73
698.13	2633.69
698.32	2633.69
698.50	2592.73
698.68	2725.85
698.87	2832.34
699.05	2928.60
699.24	2656.22
699.42	2539.48
699.61	2781.14
699.79	2799.57
699.97	2598.87
700.16	2545.63
700.34	2588.63
700.53	2756.57
700.71	2818.00
700.89	2789.33
701.08	2678.74
701.26	2719.70
701.45	3192.78
701.63	2594.78
701.81	2672.60
702.00	2607.06
702.18	2666.46
702.37	2666.46
702.55	2942.93
702.73	2826.20
702.92	2633.69
703.10	2932.69
703.28	2842.58
703.47	2686.94
703.65	2891.73
703.84	2748.37
704.02	2637.78
704.20	2942.93
704.39	2516.95
704.57	2590.68
704.75	2877.40
704.94	2844.63
705.12	2670.55
705.30	3155.92
705.49	5801.90
705.67	11870.03
705.86	17909.49
706.04	20336.33
706.22	22513.32
706.41	22523.56
706.59	17696.50
706.77	13338.42
706.96	11437.91
707.14	10274.66
707.32	8976.25
707.51	7804.81
707.69	6555.55
707.87	5392.30
708.06	4526.01
708.24	3776.45
708.42	3334.09
708.61	3442.64
708.79	2779.09
708.97	2809.81
709.16	2865.11
709.34	2707.41
709.52	2705.37
709.71	2662.36
709.89	2824.15
710.07	2621.40
710.26	2519.00
710.44	2691.03
710.62	2858.96
710.80	2713.56
710.99	2787.29
711.17	2731.99
711.35	2756.57
711.54	2568.15
711.72	2795.48
711.90	2758.61
712.09	2742.23
712.27	2697.17
712.45	2734.04
712.63	2621.40
712.82	2748.37
713.00	2826.20
713.18	2748.37
713.37	2672.60
713.55	2781.14
713.73	2799.57
713.91	2756.57
714.10	2590.68
714.28	2643.93
714.46	2691.03
714.65	2715.61
714.83	2742.23
715.01	2744.28
715.19	2723.80
715.38	2572.25
715.56	2740.18
715.74	2645.98
715.92	2701.27
716.11	2908.12
716.29	2453.47
716.47	2684.89
716.65	2721.75
716.84	2519.00
717.02	2740.18
717.20	2516.95
717.38	2596.82
717.57	2756.57
717.75	2633.69
717.93	2686.94
718.11	2844.63
718.30	2502.62
718.48	2686.94
718.66	2793.43
718.84	2854.87
719.03	2631.64
719.21	2512.86
719.39	2953.17
719.57	2789.33
719.75	2764.76
719.94	2537.43
720.12	2742.23
720.30	2723.80
720.48	2783.19
720.67	2641.88
720.85	2625.50
721.03	2574.30
721.21	2566.10
721.39	2826.20
721.58	2785.24
721.76	2744.28
721.94	2701.27
722.12	2723.80
722.30	2936.79
722.49	2703.32
722.67	2666.46
722.85	2707.41
723.03	2424.80
723.21	2670.55
723.40	2717.65
723.58	2844.63
723.76	2772.95
723.94	2906.07
724.12	2762.71
724.30	2861.01
724.49	2926.55
724.67	2623.45
724.85	2887.64
725.03	2512.86
725.21	2840.53
725.40	2799.57
725.58	2619.35
725.76	2842.58
725.94	2729.94
726.12	2637.78
726.30	2662.36
726.49	2668.50
726.67	2641.88
726.85	2760.66
727.03	3051.47
727.21	4104.13
727.39	5130.16
727.57	5574.57
727.76	6133.67
727.94	6127.52
728.12	5621.67
728.30	4538.30
728.48	4247.49
728.66	3993.54
728.84	3694.54
729.03	3418.06
729.21	3188.69
729.39	3010.51
729.57	2791.38
729.75	2879.44
729.93	2846.68
730.11	2607.06
730.30	2684.89
730.48	2688.98
730.66	2840.53
730.84	2754.52
731.02	2650.07
731.20	2658.26
731.38	2676.70
731.56	2541.53
731.74	2623.45
731.93	2807.77
732.11	2752.47
732.29	2738.13
732.47	2785.24
732.65	2680.79
732.83	2797.53
733.01	2758.61
733.19	2658.26
733.37	2779.09
733.56	2744.28
733.74	2580.44
733.92	2881.49
734.10	2637.78
734.28	2729.94
734.46	2461.66
734.64	2643.93
734.82	2670.55
735.00	2621.40
735.18	2594.78
735.36	2658.26
735.54	2631.64
735.73	2697.17
735.91	2723.80
736.09	2947.03
736.27	2695.13
736.45	2775.00
736.63	2486.23
736.81	2693.08
736.99	2861.01
737.17	2842.58
737.35	2619.35
737.53	2721.75
737.71	2701.27
737.89	2840.53
738.07	2582.49
738.25	2605.02
738.43	2467.80
738.61	2629.59
738.80	2506.71
738.98	2629.59
739.16	2652.12
739.34	2625.50
739.52	2871.25
739.70	2752.47
739.88	2893.78
740.06	2797.53
740.24	2420.70
740.42	2897.88
740.60	2486.23
740.78	2611.16
740.96	2537.43
741.14	2627.54
741.32	2713.56
741.50	2555.86
741.68	2990.03
741.86	2947.03
742.04	2498.52
742.22	2590.68
742.40	2691.03
742.58	2744.28
742.76	2617.30
742.94	2783.19
743.12	2523.10
743.30	2775.00
743.48	2809.81
743.66	2527.19
743.84	2682.84
744.02	2691.03
744.20	2760.66
744.38	2572.25
744.56	2609.11
744.74	2922.45
744.92	2756.57
745.10	2881.49
745.28	2748.37
745.46	2981.84
745.64	2748.37
745.82	2797.53
746.00	2658.26
746.18	2871.25
746.36	2578.39
746.54	2719.70
746.72	2631.64
746.90	2555.86
747.08	2879.44
747.26	2613.21
747.44	2885.59
747.62	2815.96
747.80	2725.85
747.98	2772.95
748.15	2629.59
748.33	2906.07
748.51	2791.38
748.69	2738.13
748.87	2592.73
749.05	2662.36
749.23	2627.54
749.41	2637.78
749.59	2633.69
749.77	2793.43
749.95	2678.74
750.13	2570.20
750.31	2746.33
750.49	2684.89
750.67	2772.95
750.85	2691.03
751.03	2654.17
751.20	2981.84
751.38	2805.72
751.56	2688.98
751.74	2615.26
751.92	2615.26
752.10	2527.19
752.28	2879.44
752.46	2594.78
752.64	2789.33
752.82	2721.75
753.00	2781.14
753.18	2645.98
753.35	2674.65
753.53	2674.65
753.71	2619.35
753.89	2727.89
754.07	2764.76
754.25	2901.97
754.43	2752.47
754.61	2498.52
754.79	2826.20
754.97	2596.82
755.14	2828.24
755.32	2475.99
755.50	2715.61
755.68	2725.85
755.86	2535.39
756.04	2648.02
756.22	2471.90
756.40	2787.29
756.57	2957.27
756.75	2580.44
756.93	2867.16
757.11	2799.57
757.29	2527.19
757.47	2535.39
757.65	2576.34
757.82	2478.04
758.00	2625.50
758.18	2531.29
758.36	2594.78
758.54	2910.16
758.72	2529.24
758.90	2789.33
759.07	2770.90
759.25	2629.59
759.43	2738.13
759.61	2521.05
759.79	3987.40
759.97	2885.59
760.15	2611.16
760.32	2643.93
760.50	2781.14
760.68	2916.31
760.86	2484.19
761.04	2795.48
761.22	2832.34
761.39	2762.71
761.57	2652.12
761.75	2703.32
761.93	2777.05
762.11	2684.89
762.28	2731.99
762.46	2670.55
762.64	2930.64
762.82	2490.33
763.00	2643.93
763.18	2824.15
763.35	2586.58
763.53	2760.66
763.71	2670.55
763.89	2627.54
764.07	2783.19
764.24	2674.65
764.42	2752.47
764.60	2662.36
764.78	2777.05
764.96	2838.48
765.13	2723.80
765.31	2572.25
765.49	2754.52
765.67	2602.97
765.84	2656.22
766.02	2598.87
766.20	2492.38
766.38	2699.22
766.56	2717.65
766.73	2791.38
766.91	2736.09
767.09	2682.84
767.27	2629.59
767.44	2629.59
767.62	2840.53
767.80	2731.99
767.98	2600.92
768.15	2605.02
768.33	2901.97
768.51	2805.72
768.69	2785.24
768.87	2650.07
769.04	2760.66
769.22	3157.97
769.40	2717.65
769.58	2834.39
769.75	2777.05
769.93	2973.65
770.11	2631.64
770.28	2521.05
770.46	2869.20
770.64	2760.66
770.82	2619.35
770.99	2688.98
771.17	2885.59
771.35	2674.65
771.53	2621.40
771.70	2582.49
771.88	2746.33
772.06	2703.32
772.23	2615.26
772.41	2744.28
772.59	2707.41
772.77	2543.58
772.94	2654.17
773.12	2686.94
773.30	2635.74
773.47	2760.66
773.65	2572.25
773.83	2783.19
774.01	2666.46
774.18	2496.47
774.36	2633.69
774.54	2455.51
774.71	2785.24
774.89	2478.04
775.07	2559.96
775.24	2619.35
775.42	2566.10
775.60	2881.49
775.78	2660.31
775.95	2559.96
776.13	2553.82
776.31	2482.14
776.48	2709.46
776.66	2840.53
776.84	2697.17
777.01	2564.06
777.19	2484.19
777.37	2594.78
777.54	2779.09
777.72	2985.94
777.90	2752.47
778.07	2607.06
778.25	3241.93
778.43	2889.68
778.60	2643.93
778.78	2727.89
778.96	2885.59
779.13	2543.58
779.31	2762.71
779.49	2645.98
779.66	2668.50
779.84	2682.84
780.01	2605.02
780.19	2633.69
780.37	2901.97
780.54	2813.91
780.72	2588.63
780.90	2660.31
781.07	2793.43
781.25	2613.21
781.43	2748.37
781.60	2676.70
781.78	2887.64
781.95	2766.81
782.13	2572.25
782.31	2639.83
782.48	2432.99
782.66	2719.70
782.83	2852.82
783.01	2736.09
783.19	2781.14
783.36	2648.02
783.54	2535.39
783.72	2760.66
783.89	2613.21
784.07	2768.85
784.24	2701.27
784.42	2875.35
784.60	2756.57
784.77	2717.65
784.95	2465.75
785.12	2570.20
785.30	2731.99
785.47	2570.20
785.65	2486.23
785.83	2686.94
786.00	2682.84
786.18	2756.57
786.35	2527.19
786.53	2527.19
786.71	2871.25
786.88	2740.18
787.06	2662.36
787.23	2693.08
787.41	2523.10
787.58	2793.43
787.76	2592.73
787.94	2715.61
788.11	2791.38
788.29	2516.95
788.46	2592.73
788.64	2496.47
788.81	2641.88
788.99	2553.82
789.16	2637.78
789.34	2660.31
789.52	2594.78
789.69	2639.83
789.87	2490.33
790.04	2592.73
790.22	2723.80
790.39	2942.93
790.57	2596.82
790.74	2592.73
790.92	2846.68
791.09	2473.95
791.27	2660.31
791.44	2748.37
791.62	2678.74
791.79	2785.24
791.97	2621.40
792.15	3026.90
792.32	2801.62
792.50	2863.06
792.67	2865.11
792.85	2867.16
793.02	2750.42
793.20	2643.93
793.37	2455.51
793.55	2570.20
793.72	2547.67
793.90	2775.00
794.07	2637.78
794.25	2545.63
794.42	2758.61
794.60	2678.74
794.77	2775.00
794.95	2725.85
795.12	2803.67
795.30	2697.17
795.47	2457.56
795.65	2918.36
795.82	2805.72
796.00	2564.06
796.17	2670.55
796.34	2576.34
796.52	2787.29
796.69	2873.30
796.87	2783.19
797.04	2701.27
797.22	2803.67
797.39	2783.19
797.57	2826.20
797.74	2752.47
797.92	2670.55
798.09	2580.44
798.27	2895.83
798.44	2555.86
798.62	2631.64
798.79	2772.95
798.96	2658.26
799.14	2734.04
799.31	3041.23
799.49	2639.83
799.66	2672.60
799.84	2699.22
800.01	2463.71
800.19	2791.38
800.36	2445.27
800.53	2717.65
800.71	2758.61
800.88	2895.83
801.06	2611.16
801.23	2607.06
801.41	2693.08
801.58	2637.78
801.75	2717.65
801.93	2736.09
802.10	2834.39
802.28	2670.55
802.45	2643.93
802.63	2711.51
802.80	2928.60
802.97	2645.98
803.15	2596.82
803.32	2664.41
803.50	2498.52
803.67	2672.60
803.84	2609.11
804.02	2713.56
804.19	2664.41
804.37	2418.65
804.54	2512.86
804.71	2580.44
804.89	2707.41
805.06	2576.34
805.24	2545.63
805.41	2500.57
805.58	2635.74
805.76	2979.79
805.93	2662.36
806.10	2781.14
806.28	2793.43
806.45	2666.46
806.63	2703.32
806.80	2787.29
806.97	2758.61
807.15	2731.99
807.32	2695.13
807.49	2691.03
807.67	2576.34
807.84	2715.61
808.01	2475.99
808.19	2873.30
808.36	3035.09
808.54	2721.75
808.71	2611.16
808.88	2717.65
809.06	2754.52
809.23	2965.46
809.40	2609.11
809.58	2721.75
809.75	2652.12
809.92	2613.21
810.10	2893.78
810.27	2619.35
810.44	2768.85
810.62	2803.67
810.79	2752.47
810.96	2654.17
811.14	2641.88
811.31	2791.38
811.48	2723.80
811.66	2678.74
811.83	2785.24
812.00	2807.77
812.18	2775.00
812.35	2934.74
812.52	2639.83
812.69	2637.78
812.87	2592.73
813.04	2535.39
813.21	2684.89
813.39	2576.34
813.56	2512.86
813.73	2858.96
813.91	2598.87
814.08	2617.30
814.25	2740.18
814.42	2523.10
814.60	2691.03
814.77	2729.94
814.94	2662.36
815.12	2752.47
815.29	2987.99
815.46	2670.55
815.63	2731.99
815.81	2697.17
815.98	2621.40
816.15	2691.03
816.33	2715.61
816.50	2621.40
816.67	2695.13
816.84	2789.33
817.02	2596.82
817.19	2609.11
817.36	2717.65
817.53	2758.61
817.71	2521.05
817.88	2750.42
818.05	2748.37
818.22	2568.15
818.40	2904.02
818.57	2662.36
818.74	2754.52
818.91	2691.03
819.09	2772.95
819.26	2760.66
819.43	2666.46
819.60	2600.92
819.78	2734.04
819.95	2856.92
820.12	2658.26
820.29	2887.64
820.47	2920.40
820.64	2564.06
820.81	2564.06
820.98	2605.02
821.15	2686.94
821.33	2772.95
821.50	2471.90
821.67	2770.90
821.84	2605.02
822.02	2717.65
822.19	2904.02
822.36	2705.37
822.53	2572.25
822.70	2510.81
822.88	2750.42
823.05	2867.16
823.22	2684.89
823.39	2691.03
823.56	2650.07
823.74	2871.25
823.91	2545.63
824.08	2430.94
824.25	2627.54
824.42	2944.98
824.60	2506.71
824.77	2711.51
824.94	2590.68
825.11	2758.61
825.28	2566.10
825.45	2674.65
825.63	2711.51
825.80	2527.19
825.97	2754.52
826.14	2656.22
826.31	2432.99
826.48	2740.18
826.66	2576.34
826.83	2607.06
827.00	2668.50
827.17	2549.72
827.34	2676.70
827.51	2605.02
827.69	2738.13
827.86	2590.68
828.03	2662.36
828.20	2693.08
828.37	2660.31
828.54	2758.61
828.71	2521.05
828.89	2844.63
829.06	2680.79
829.23	2895.83
829.40	2551.77
829.57	2643.93
829.74	2791.38
829.91	2629.59
830.09	2596.82
830.26	2813.91
830.43	2938.84
830.60	2678.74
830.77	2695.13
830.94	2850.77
831.11	2830.29
831.28	2703.32
831.46	2736.09
831.63	2631.64
831.80	2809.81
831.97	2633.69
832.14	2627.54
832.31	2641.88
832.48	2752.47
832.65	2781.14
832.82	2699.22
832.99	2715.61
833.17	2553.82
833.34	2893.78
833.51	2641.88
833.68	2408.41
833.85	2826.20
834.02	2617.30
834.19	2545.63
834.36	2582.49
834.53	2703.32
834.70	2801.62
834.87	2660.31
835.04	2500.57
835.22	2633.69
835.39	2709.46
835.56	2525.15
835.73	2547.67
835.90	2875.35
836.07	2650.07
836.24	2684.89
836.41	2545.63
836.58	2600.92
836.75	2830.29
836.92	2619.35
837.09	2533.34
837.26	2871.25
837.43	2709.46
837.60	2664.41
837.77	2529.24
837.94	2803.67
838.12	2895.83
838.29	2541.53
838.46	2435.03
838.63	2605.02
838.80	2944.98
838.97	2547.67
839.14	2508.76
839.31	2682.84
839.48	2850.77
839.65	2506.71
839.82	2602.97
839.99	2775.00
840.16	2740.18
840.33	2455.51
840.50	2564.06
840.67	2543.58
840.84	2351.07
841.01	2635.74
841.18	2463.71
841.35	2736.09
841.52	2754.52
841.69	2824.15
841.86	2580.44
842.03	2664.41
842.20	2805.72
842.37	2590.68
842.54	2539.48
842.71	2686.94
842.88	2523.10
843.05	2588.63
843.22	2564.06
843.39	2795.48
843.56	2648.02
843.73	2557.91
843.90	2594.78
844.07	2705.37
844.24	2781.14
844.41	2670.55
844.58	2678.74
844.75	2715.61
844.92	2834.39
845.09	2578.39
845.26	2510.81
845.43	2856.92
845.60	2686.94
845.77	2629.59
845.94	2680.79
846.10	2777.05
846.27	2480.09
846.44	2492.38
846.61	2488.28
846.78	2764.76
846.95	2799.57
847.12	2607.06
847.29	2621.40
847.46	2688.98
847.63	2916.31
847.80	2418.65
847.97	2564.06
848.14	2973.65
848.31	2670.55
848.48	2416.60
848.65	2619.35
848.82	2607.06
848.98	3063.76
849.15	2580.44
849.32	2602.97
849.49	2861.01
849.66	2752.47
849.83	2547.67
850.00	2410.46
850.17	2834.39
850.34	2627.54
850.51	2426.84
850.68	2551.77
850.85	3088.34
851.01	2779.09
851.18	2529.24
851.35	2594.78
851.52	2736.09
851.69	2910.16
851.86	2480.09
852.03	2523.10
852.20	2813.91
852.37	2676.70
852.53	2486.23
852.70	2535.39
852.87	2734.04
853.04	2826.20
853.21	2607.06
853.38	2818.00
853.55	2881.49
853.72	2828.24
853.89	2539.48
854.05	2541.53
854.22	2650.07
854.39	2654.17
854.56	2566.10
854.73	2717.65
854.90	2637.78
855.07	2738.13
855.23	2478.04
855.40	2504.67
855.57	2568.15
855.74	2404.32
855.91	2709.46
856.08	2357.21
856.25	2553.82
856.41	2600.92
856.58	2613.21
856.75	2615.26
856.92	2584.54
857.09	2811.86
857.26	2402.27
857.42	2645.98
857.59	2856.92
857.76	2598.87
857.93	2586.58
858.10	2617.30
858.27	2578.39
858.43	2770.90
858.60	2545.63
858.77	2455.51
858.94	2744.28
859.11	2830.29
859.27	2555.86
859.44	2535.39
859.61	3014.61
859.78	2740.18
859.95	2494.43
860.12	2512.86
860.28	2998.23
860.45	2963.41
860.62	2430.94
860.79	2621.40
860.95	2684.89
861.12	2596.82
861.29	2494.43
861.46	2498.52
861.63	2693.08
861.79	2813.91
861.96	2461.66
862.13	2562.01
862.30	2955.22
862.47	2570.20
862.63	2512.86
862.80	2623.45
862.97	2793.43
863.14	2723.80
863.30	2549.72
863.47	2494.43
863.64	2906.07
863.81	2734.04
863.97	2514.91
864.14	2621.40
864.31	2699.22
864.48	2621.40
864.65	2537.43
864.81	2617.30
864.98	2807.77
865.15	2899.92
865.32	2627.54
865.48	2688.98
865.65	2914.26
865.82	2641.88
865.98	2525.15
866.15	2768.85
866.32	2725.85
866.49	2584.54
866.65	2695.13
866.82	2496.47
866.99	2764.76
867.16	2627.54
867.32	2555.86
867.49	2535.39
867.66	2639.83
867.83	2654.17
867.99	2461.66
868.16	2547.67
868.33	2469.85
868.49	2656.22
868.66	2570.20
868.83	2670.55
868.99	2686.94
869.16	2678.74
869.33	2680.79
869.50	2662.36
869.66	2750.42
869.83	2682.84
870.00	2492.38
870.16	2619.35
870.33	2652.12
870.50	2750.42
870.66	2578.39
870.83	2731.99
871.00	2691.03
871.17	2703.32
871.33	2629.59
871.50	2480.09
871.67	2639.83
871.83	2615.26
872.00	2652.12
872.17	2572.25
872.33	2947.03
872.50	2873.30
872.67	2512.86
872.83	2529.24
873.00	2764.76
873.17	2736.09
873.33	2635.74
873.50	2574.30
873.67	2584.54
873.83	2605.02
874.00	2482.14
874.16	2668.50
874.33	2611.16
874.50	2519.00
874.66	2562.01
874.83	2633.69
875.00	2828.24
875.16	2856.92
875.33	2709.46
875.50	2375.64
875.66	2668.50
875.83	2746.33
875.99	2596.82
876.16	2645.98
876.33	2590.68
876.49	2637.78
876.66	2684.89
876.83	2566.10
876.99	2404.32
877.16	2697.17
877.32	2559.96
877.49	2668.50
877.66	2752.47
877.82	2883.54
877.99	2594.78
878.15	2674.65
878.32	2746.33
878.49	2721.75
878.65	2539.48
878.82	2891.73
878.98	2525.15
879.15	2912.21
879.32	2772.95
879.48	2705.37
879.65	2705.37
879.81	2535.39
879.98	2551.77
880.15	2586.58
880.31	2797.53
880.48	2512.86
880.64	2676.70
880.81	2746.33
880.97	2889.68
881.14	2885.59
881.31	2514.91
881.47	2766.81
881.64	2693.08
881.80	2496.47
881.97	2701.27
882.13	2553.82
882.30	2566.10
882.47	2637.78
882.63	2570.20
882.80	2508.76
882.96	2684.89
883.13	2891.73
883.29	2570.20
883.46	2535.39
883.62	3055.57
883.79	2643.93
883.95	2775.00
884.12	2537.43
884.29	2807.77
884.45	2791.38
884.62	2602.97
884.78	2557.91
884.95	2951.12
885.11	2498.52
885.28	2598.87
885.44	2578.39
885.61	2830.29
885.77	2889.68
885.94	2695.13
886.10	2637.78
886.27	2680.79
886.43	2990.03
886.60	2672.60
886.76	2594.78
886.93	2643.93
887.09	2803.67
887.26	2432.99
887.42	2602.97
887.59	2981.84
887.75	2977.75
887.92	2785.24
888.08	2660.31
888.25	2965.46
888.41	2852.82
888.58	2549.72
888.74	2457.56
888.91	2668.50
>>>>>End Processed Spectral Data<<<<<
