SpectraSuite Data File
++++++++++++++++++++++++++++++++++++
Date: Thu May 05 16:20:43 CEST 2016
User: root
Dark Spectrum Present: No
Reference Spectrum Present: No
Number of Sampled Component Spectra: 1
Spectrometers: USB4C02835
Integration Time (usec): 100000 (USB4C02835)
Spectra Averaged: 1 (USB4C02835)
Boxcar Smoothing: 0 (USB4C02835)
Correct for Electrical Dark: No (USB4C02835)
Strobe/Lamp Enabled: No (USB4C02835)
Correct for Detector Non-linearity: No (USB4C02835)
Correct for Stray Light: No (USB4C02835)
Number of Pixels in Processed Spectrum: 3648
>>>>>Begin Processed Spectral Data<<<<<
177.47	2054.11
177.69	2054.11
177.91	2054.11
178.13	2015.20
178.36	2037.73
178.58	2535.39
178.80	2709.46
179.02	2547.67
179.24	2613.21
179.46	2486.23
179.68	2576.34
179.90	2691.03
180.13	2727.89
180.35	2398.17
180.57	2500.57
180.79	2795.48
181.01	2801.62
181.23	2543.58
181.45	2639.83
181.67	2703.32
181.90	2811.86
182.12	2559.96
182.34	2328.54
182.56	2805.72
182.78	2779.09
183.00	2473.95
183.22	2519.00
183.44	2398.17
183.66	3129.30
183.89	2598.87
184.11	2469.85
184.33	2756.57
184.55	2901.97
184.77	2506.71
184.99	2564.06
185.21	2602.97
185.43	3121.10
185.65	2473.95
185.87	2504.67
186.10	3030.99
186.32	3012.56
186.54	2584.54
186.76	2576.34
186.98	2811.86
187.20	2703.32
187.42	2523.10
187.64	2543.58
187.86	2824.15
188.08	2818.00
188.30	2457.56
188.52	2607.06
188.75	2977.75
188.97	2867.16
189.19	2422.75
189.41	2502.62
189.63	2791.38
189.85	2621.40
190.07	2389.98
190.29	2310.11
190.51	2766.81
190.73	2435.03
190.95	2688.98
191.17	2455.51
191.39	2469.85
191.61	2793.43
191.84	2488.28
192.06	2607.06
192.28	2498.52
192.50	3241.93
192.72	2559.96
192.94	2549.72
193.16	2899.92
193.38	2785.24
193.60	2457.56
193.82	2631.64
194.04	2891.73
194.26	2729.94
194.48	2424.80
194.70	2527.19
194.92	2643.93
195.14	2869.20
195.36	2568.15
195.58	2600.92
195.80	2734.04
196.02	2609.11
196.24	2502.62
196.46	2564.06
196.69	2562.01
196.91	3047.38
197.13	2572.25
197.35	2467.80
197.57	2992.08
197.79	2824.15
198.01	2645.98
198.23	2459.61
198.45	2881.49
198.67	2510.81
198.89	2414.56
199.11	2629.59
199.33	2672.60
199.55	2420.70
199.77	2506.71
199.99	2623.45
200.21	2691.03
200.43	2770.90
200.65	2392.03
200.87	2404.32
201.09	2652.12
201.31	2731.99
201.53	2490.33
201.75	2637.78
201.97	2850.77
202.19	2738.13
202.41	2547.67
202.63	2643.93
202.85	2811.86
203.07	2672.60
203.29	2555.86
203.51	2441.18
203.73	2670.55
203.95	3123.15
204.17	2535.39
204.39	2656.22
204.61	2664.41
204.83	2559.96
205.05	2572.25
205.27	2564.06
205.49	3067.86
205.71	2738.13
205.93	2406.36
206.15	2463.71
206.37	2762.71
206.59	2727.89
206.81	2422.75
207.03	2488.28
207.25	2580.44
207.47	2754.52
207.69	2465.75
207.91	2807.77
208.13	2957.27
208.34	2619.35
208.56	2478.04
208.78	2570.20
209.00	2693.08
209.22	2623.45
209.44	2570.20
209.66	2508.76
209.88	2760.66
210.10	2719.70
210.32	2512.86
210.54	2598.87
210.76	2637.78
210.98	2899.92
211.20	2361.31
211.42	2564.06
211.64	2928.60
211.86	2729.94
212.08	2602.97
212.30	2549.72
212.52	2596.82
212.74	2711.51
212.96	2617.30
213.17	2656.22
213.39	2789.33
213.61	2916.31
213.83	2539.48
214.05	2385.88
214.27	2924.50
214.49	2635.74
214.71	2473.95
214.93	2594.78
215.15	2760.66
215.37	2824.15
215.59	2369.50
215.81	2531.29
216.03	2924.50
216.24	2725.85
216.46	2553.82
216.68	2596.82
216.90	2834.39
217.12	2926.55
217.34	2422.75
217.56	2590.68
217.78	2906.07
218.00	2813.91
218.22	2588.63
218.44	2586.58
218.66	2758.61
218.87	3045.33
219.09	2543.58
219.31	2576.34
219.53	2785.24
219.75	2711.51
219.97	2543.58
220.19	2547.67
220.41	2666.46
220.63	2901.97
220.85	2559.96
221.06	2533.34
221.28	2936.79
221.50	2842.58
221.72	2551.77
221.94	2404.32
222.16	2824.15
222.38	2887.64
222.60	2498.52
222.82	2588.63
223.03	2891.73
223.25	2611.16
223.47	2580.44
223.69	2721.75
223.91	2848.72
224.13	2766.81
224.35	2449.37
224.57	2707.41
224.78	2830.29
225.00	2566.10
225.22	2600.92
225.44	2404.32
225.66	2826.20
225.88	2619.35
226.10	2596.82
226.32	2570.20
226.53	3030.99
226.75	2695.13
226.97	2654.17
227.19	2539.48
227.41	2607.06
227.63	2686.94
227.85	2365.40
228.06	2539.48
228.28	2727.89
228.50	2889.68
228.72	2406.36
228.94	2519.00
229.16	2523.10
229.37	2559.96
229.59	2463.71
229.81	2752.47
230.03	2623.45
230.25	2572.25
230.47	2363.36
230.69	2482.14
230.90	2828.24
231.12	2670.55
231.34	2586.58
231.56	2625.50
231.78	2621.40
232.00	2713.56
232.21	2535.39
232.43	2553.82
232.65	2396.12
232.87	2822.10
233.09	2414.56
233.30	2504.67
233.52	2830.29
233.74	2701.27
233.96	2502.62
234.18	2654.17
234.40	2740.18
234.61	3071.95
234.83	2465.75
235.05	2469.85
235.27	3114.96
235.49	3010.51
235.70	2506.71
235.92	2584.54
236.14	2854.87
236.36	3080.14
236.58	2463.71
236.79	2584.54
237.01	2748.37
237.23	2709.46
237.45	2701.27
237.67	2510.81
237.88	2756.57
238.10	3061.71
238.32	2420.70
238.54	2482.14
238.76	2729.94
238.97	2592.73
239.19	2441.18
239.41	2570.20
239.63	2865.11
239.85	2756.57
240.06	2625.50
240.28	2570.20
240.50	2783.19
240.72	2711.51
240.93	2469.85
241.15	2588.63
241.37	2695.13
241.59	2910.16
241.81	2504.67
242.02	2555.86
242.24	2758.61
242.46	2832.34
242.68	2381.79
242.89	2484.19
243.11	2830.29
243.33	2721.75
243.55	2480.09
243.76	2555.86
243.98	2643.93
244.20	2703.32
244.42	2488.28
244.64	2568.15
244.85	2533.34
245.07	2559.96
245.29	2500.57
245.51	2484.19
245.72	2789.33
245.94	2914.26
246.16	2543.58
246.38	2607.06
246.59	2631.64
246.81	2607.06
247.03	2467.80
247.24	2381.79
247.46	2658.26
247.68	2791.38
247.90	2449.37
248.11	2539.48
248.33	2877.40
248.55	2727.89
248.77	2586.58
248.98	2621.40
249.20	3053.52
249.42	2754.52
249.64	2545.63
249.85	2494.43
250.07	2652.12
250.29	2818.00
250.50	2607.06
250.72	2430.94
250.94	2736.09
251.16	3096.53
251.37	2564.06
251.59	2609.11
251.81	2852.82
252.02	3055.57
252.24	2482.14
252.46	2621.40
252.68	2631.64
252.89	2686.94
253.11	2424.80
253.33	2676.70
253.54	2906.07
253.76	2508.76
253.98	2531.29
254.20	2535.39
254.41	2557.91
254.63	2703.32
254.85	2412.51
255.06	2617.30
255.28	2820.05
255.50	2701.27
255.71	2521.05
255.93	2432.99
256.15	2738.13
256.36	2834.39
256.58	2332.64
256.80	2514.91
257.02	2623.45
257.23	2729.94
257.45	2576.34
257.67	2602.97
257.88	2625.50
258.10	2865.11
258.32	2490.33
258.53	2602.97
258.75	2912.21
258.97	2627.54
259.18	2441.18
259.40	2461.66
259.62	3014.61
259.83	2971.60
260.05	2543.58
260.27	3178.45
260.48	2801.62
260.70	2543.58
260.92	2480.09
261.13	2588.63
261.35	2742.23
261.57	2799.57
261.78	2484.19
262.00	2459.61
262.22	2768.85
262.43	2588.63
262.65	2527.19
262.86	2547.67
263.08	3092.43
263.30	2662.36
263.51	2375.64
263.73	2519.00
263.95	2918.36
264.16	2623.45
264.38	2457.56
264.60	2519.00
264.81	2746.33
265.03	2858.96
265.25	2795.48
265.46	2527.19
265.68	2895.83
265.89	2777.05
266.11	2426.84
266.33	2445.27
266.54	2844.63
266.76	2799.57
266.98	2629.59
267.19	2586.58
267.41	2877.40
267.62	2678.74
267.84	2367.45
268.06	2596.82
268.27	2723.80
268.49	2856.92
268.70	2633.69
268.92	2547.67
269.14	2607.06
269.35	2566.10
269.57	2562.01
269.79	2574.30
270.00	2654.17
270.22	2990.03
270.43	2414.56
270.65	2420.70
270.87	2781.14
271.08	2883.54
271.30	2586.58
271.51	2527.19
271.73	2850.77
271.95	2924.50
272.16	2578.39
272.38	2617.30
272.59	2576.34
272.81	2854.87
273.02	2449.37
273.24	2525.15
273.46	2875.35
273.67	2584.54
273.89	2385.88
274.10	2459.61
274.32	2863.06
274.54	2770.90
274.75	2621.40
274.97	2519.00
275.18	2891.73
275.40	2748.37
275.61	2586.58
275.83	2588.63
276.05	2545.63
276.26	2672.60
276.48	2668.50
276.69	2551.77
276.91	2629.59
277.12	2959.31
277.34	2731.99
277.55	2680.79
277.77	2744.28
277.99	2709.46
278.20	2502.62
278.42	2574.30
278.63	2615.26
278.85	2570.20
279.06	2545.63
279.28	2709.46
279.49	2830.29
279.71	2807.77
279.93	2676.70
280.14	2582.49
280.36	2648.02
280.57	2852.82
280.79	2709.46
281.00	2445.27
281.22	2672.60
281.43	2746.33
281.65	2398.17
281.86	2531.29
282.08	2719.70
282.29	2963.41
282.51	2555.86
282.73	2502.62
282.94	2494.43
283.16	2820.05
283.37	2744.28
283.59	2631.64
283.80	2803.67
284.02	2607.06
284.23	2670.55
284.45	2627.54
284.66	2592.73
284.88	2588.63
285.09	2596.82
285.31	2680.79
285.52	2711.51
285.74	2435.03
285.95	2748.37
286.17	2715.61
286.38	2924.50
286.60	2578.39
286.81	2568.15
287.03	2541.53
287.24	2660.31
287.46	2832.34
287.67	2695.13
287.89	2836.44
288.10	2705.37
288.32	2658.26
288.53	2736.09
288.75	2674.65
288.96	2840.53
289.18	2629.59
289.39	2502.62
289.61	2725.85
289.82	2983.89
290.04	2971.60
290.25	2449.37
290.47	2605.02
290.68	2693.08
290.90	2826.20
291.11	2449.37
291.33	2734.04
291.54	2613.21
291.76	2670.55
291.97	2670.55
292.18	2594.78
292.40	2672.60
292.61	2596.82
292.83	2897.88
293.04	2664.41
293.26	2801.62
293.47	2707.41
293.69	2523.10
293.90	2539.48
294.12	2930.64
294.33	2703.32
294.55	2568.15
294.76	2678.74
294.97	2973.65
295.19	3010.51
295.40	2686.94
295.62	2652.12
295.83	2832.34
296.05	2641.88
296.26	2793.43
296.48	2605.02
296.69	2711.51
296.90	2777.05
297.12	2764.76
297.33	2709.46
297.55	2729.94
297.76	2639.83
297.98	2672.60
298.19	2670.55
298.41	2729.94
298.62	2574.30
298.83	2801.62
299.05	2680.79
299.26	2629.59
299.48	2617.30
299.69	2760.66
299.90	2600.92
300.12	2535.39
300.33	2838.48
300.55	2633.69
300.76	2629.59
300.98	2580.44
301.19	2795.48
301.40	2576.34
301.62	2621.40
301.83	2799.57
302.05	2707.41
302.26	2592.73
302.47	2709.46
302.69	2523.10
302.90	2832.34
303.12	2396.12
303.33	2756.57
303.54	3016.66
303.76	2654.17
303.97	2539.48
304.19	2818.00
304.40	2602.97
304.61	2762.71
304.83	2811.86
305.04	2672.60
305.26	2752.47
305.47	2666.46
305.68	2637.78
305.90	2478.04
306.11	2875.35
306.33	2703.32
306.54	2568.15
306.75	2516.95
306.97	2492.38
307.18	2574.30
307.39	2553.82
307.61	2715.61
307.82	2684.89
308.04	2867.16
308.25	2551.77
308.46	2682.84
308.68	2709.46
308.89	2793.43
309.10	2791.38
309.32	2600.92
309.53	2754.52
309.74	2858.96
309.96	2590.68
310.17	2772.95
310.39	2703.32
310.60	2777.05
310.81	2574.30
311.03	2521.05
311.24	2856.92
311.45	2654.17
311.67	2758.61
311.88	2676.70
312.09	2686.94
312.31	2607.06
312.52	2580.44
312.73	2566.10
312.95	2564.06
313.16	2572.25
313.37	2725.85
313.59	2664.41
313.80	2842.58
314.01	3006.42
314.23	2588.63
314.44	2478.04
314.65	2580.44
314.87	2602.97
315.08	2580.44
315.29	2600.92
315.51	2639.83
315.72	2512.86
315.93	2738.13
316.15	2627.54
316.36	2660.31
316.57	2637.78
316.79	2652.12
317.00	2582.49
317.21	2768.85
317.43	2617.30
317.64	2660.31
317.85	2590.68
318.07	2662.36
318.28	2555.86
318.49	2711.51
318.70	2873.30
318.92	2777.05
319.13	2813.91
319.34	2785.24
319.56	2641.88
319.77	2762.71
319.98	2842.58
320.20	2770.90
320.41	2684.89
320.62	2789.33
320.83	2549.72
321.05	2793.43
321.26	2666.46
321.47	2686.94
321.69	2971.60
321.90	2492.38
322.11	2631.64
322.32	2768.85
322.54	2926.55
322.75	2662.36
322.96	3203.02
323.18	2504.67
323.39	2512.86
323.60	2516.95
323.81	2734.04
324.03	2660.31
324.24	2705.37
324.45	2637.78
324.66	2555.86
324.88	2830.29
325.09	2904.02
325.30	2609.11
325.52	2588.63
325.73	2772.95
325.94	2529.24
326.15	2422.75
326.37	2541.53
326.58	2949.08
326.79	2899.92
327.00	2432.99
327.22	2609.11
327.43	2678.74
327.64	2596.82
327.85	2666.46
328.07	2635.74
328.28	3014.61
328.49	2598.87
328.70	2600.92
328.92	2641.88
329.13	2660.31
329.34	2748.37
329.55	2863.06
329.76	2668.50
329.98	2723.80
330.19	2842.58
330.40	2650.07
330.61	2701.27
330.83	2754.52
331.04	2611.16
331.25	2686.94
331.46	2592.73
331.68	2519.00
331.89	2895.83
332.10	2580.44
332.31	2494.43
332.52	2744.28
332.74	2834.39
332.95	2412.51
333.16	2596.82
333.37	2770.90
333.58	2633.69
333.80	2613.21
334.01	2379.74
334.22	2736.09
334.43	2627.54
334.64	2578.39
334.86	2461.66
335.07	2611.16
335.28	2926.55
335.49	2525.15
335.70	2705.37
335.92	2908.12
336.13	3018.71
336.34	2680.79
336.55	2635.74
336.76	2826.20
336.98	2406.36
337.19	2656.22
337.40	2734.04
337.61	3010.51
337.82	2631.64
338.04	2641.88
338.25	2428.89
338.46	2703.32
338.67	2758.61
338.88	2414.56
339.09	2482.14
339.31	2639.83
339.52	2537.43
339.73	2600.92
339.94	2602.97
340.15	2760.66
340.36	2615.26
340.58	2637.78
340.79	2605.02
341.00	2867.16
341.21	2598.87
341.42	2840.53
341.63	2654.17
341.85	2809.81
342.06	2785.24
342.27	2514.91
342.48	2695.13
342.69	2572.25
342.90	2756.57
343.12	2791.38
343.33	2590.68
343.54	2873.30
343.75	2856.92
343.96	2652.12
344.17	2486.23
344.38	2709.46
344.60	2594.78
344.81	2465.75
345.02	2658.26
345.23	2838.48
345.44	3037.14
345.65	2693.08
345.86	2664.41
346.07	2678.74
346.29	2566.10
346.50	2711.51
346.71	2658.26
346.92	2840.53
347.13	3055.57
347.34	2580.44
347.55	2527.19
347.76	2754.52
347.98	2510.81
348.19	2682.84
348.40	2719.70
348.61	2703.32
348.82	2957.27
349.03	2721.75
349.24	2543.58
349.45	3024.85
349.66	2418.65
349.88	2596.82
350.09	2480.09
350.30	2895.83
350.51	2901.97
350.72	2744.28
350.93	2615.26
351.14	2662.36
351.35	2762.71
351.56	2615.26
351.77	2549.72
351.99	2727.89
352.20	2918.36
352.41	2729.94
352.62	2467.80
352.83	2711.51
353.04	2705.37
353.25	2609.11
353.46	2680.79
353.67	2895.83
353.88	2529.24
354.09	2605.02
354.30	2596.82
354.52	2850.77
354.73	2721.75
354.94	2504.67
355.15	2668.50
355.36	2942.93
355.57	2607.06
355.78	2625.50
355.99	2629.59
356.20	2748.37
356.41	2873.30
356.62	2695.13
356.83	2645.98
357.04	2969.55
357.25	2547.67
357.46	2564.06
357.68	2441.18
357.89	2582.49
358.10	2832.34
358.31	2629.59
358.52	2588.63
358.73	2553.82
358.94	2568.15
359.15	2543.58
359.36	2719.70
359.57	2768.85
359.78	2717.65
359.99	2826.20
360.20	2572.25
360.41	2625.50
360.62	2809.81
360.83	2693.08
361.04	2602.97
361.25	2801.62
361.46	2959.31
361.67	2707.41
361.88	2615.26
362.09	2830.29
362.30	2707.41
362.51	2553.82
362.72	2713.56
362.93	2809.81
363.14	2813.91
363.35	2645.98
363.56	2494.43
363.78	2869.20
363.99	2861.01
364.20	2566.10
364.41	2684.89
364.62	2924.50
364.83	2777.05
365.04	2648.02
365.25	2625.50
365.46	3065.81
365.67	2590.68
365.88	2697.17
366.09	2674.65
366.30	2727.89
366.51	2709.46
366.72	2506.71
366.93	2559.96
367.14	2684.89
367.35	2893.78
367.56	2572.25
367.77	2758.61
367.98	2627.54
368.18	2754.52
368.39	2629.59
368.60	2537.43
368.81	2912.21
369.02	2719.70
369.23	2580.44
369.44	2414.56
369.65	2695.13
369.86	2811.86
370.07	2758.61
370.28	2572.25
370.49	2791.38
370.70	2766.81
370.91	2514.91
371.12	2418.65
371.33	2834.39
371.54	2621.40
371.75	2822.10
371.96	2385.88
372.17	2830.29
372.38	2770.90
372.59	2709.46
372.80	2598.87
373.01	2670.55
373.22	2715.61
373.43	2688.98
373.64	2412.51
373.85	2873.30
374.06	2985.94
374.26	2785.24
374.47	2740.18
374.68	2944.98
374.89	2744.28
375.10	2498.52
375.31	2727.89
375.52	2691.03
375.73	2711.51
375.94	2545.63
376.15	2725.85
376.36	2613.21
376.57	2598.87
376.78	2684.89
376.99	2637.78
377.20	2932.69
377.40	2668.50
377.61	2799.57
377.82	2613.21
378.03	2979.79
378.24	2807.77
378.45	2637.78
378.66	2688.98
378.87	2539.48
379.08	2482.14
379.29	2574.30
379.50	2734.04
379.71	2656.22
379.91	2844.63
380.12	2613.21
380.33	2654.17
380.54	2691.03
380.75	2756.57
380.96	2641.88
381.17	2664.41
381.38	2662.36
381.59	2686.94
381.80	2613.21
382.00	2840.53
382.21	2789.33
382.42	3014.61
382.63	2871.25
382.84	2727.89
383.05	2832.34
383.26	2881.49
383.47	2762.71
383.68	2578.39
383.88	2717.65
384.09	2736.09
384.30	2736.09
384.51	2734.04
384.72	2645.98
384.93	2525.15
385.14	2725.85
385.35	2797.53
385.55	2539.48
385.76	2932.69
385.97	2641.88
386.18	2484.19
386.39	2631.64
386.60	2543.58
386.81	2572.25
387.02	2494.43
387.22	2572.25
387.43	2891.73
387.64	2723.80
387.85	2850.77
388.06	2850.77
388.27	4061.12
388.48	7509.90
388.68	11022.17
388.89	13354.80
389.10	14481.19
389.31	13909.80
389.52	11009.88
389.73	9289.59
389.93	8523.65
390.14	8005.51
390.35	7241.62
390.56	6354.85
390.77	5316.53
390.98	4102.08
391.18	3471.31
391.39	3147.73
391.60	2891.73
391.81	2908.12
392.02	2621.40
392.23	3059.67
392.43	2738.13
392.64	2828.24
392.85	2652.12
393.06	2908.12
393.27	2719.70
393.47	2602.97
393.68	2611.16
393.89	2621.40
394.10	2828.24
394.31	2572.25
394.52	2586.58
394.72	2613.21
394.93	2959.31
395.14	2475.99
395.35	2693.08
395.56	2588.63
395.76	2719.70
395.97	2729.94
396.18	2760.66
396.39	2756.57
396.60	3233.74
396.80	2979.79
397.01	2904.02
397.22	2889.68
397.43	2899.92
397.64	2605.02
397.84	2711.51
398.05	3022.80
398.26	2760.66
398.47	2701.27
398.67	2787.29
398.88	2791.38
399.09	2848.72
399.30	2609.11
399.51	2670.55
399.71	2660.31
399.92	2691.03
400.13	2711.51
400.34	2588.63
400.54	2697.17
400.75	3014.61
400.96	2682.84
401.17	2877.40
401.37	2809.81
401.58	2699.22
401.79	2553.82
402.00	2795.48
402.21	3127.25
402.41	2889.68
402.62	2889.68
402.83	3020.75
403.04	3127.25
403.24	3358.67
403.45	2715.61
403.66	2899.92
403.87	2994.13
404.07	2944.98
404.28	2867.16
404.49	2912.21
404.70	2764.76
404.90	2922.45
405.11	2703.32
405.32	2697.17
405.52	2629.59
405.73	2645.98
405.94	2545.63
406.15	2650.07
406.35	2838.48
406.56	2783.19
406.77	2699.22
406.98	2650.07
407.18	2553.82
407.39	2928.60
407.60	2598.87
407.80	2701.27
408.01	2564.06
408.22	2736.09
408.43	2535.39
408.63	2734.04
408.84	2877.40
409.05	2811.86
409.25	2570.20
409.46	2564.06
409.67	2643.93
409.88	2664.41
410.08	2660.31
410.29	2654.17
410.50	2803.67
410.70	2781.14
410.91	2572.25
411.12	2707.41
411.32	2725.85
411.53	2516.95
411.74	2707.41
411.95	2676.70
412.15	2811.86
412.36	2867.16
412.57	2772.95
412.77	2793.43
412.98	2840.53
413.19	2662.36
413.39	2686.94
413.60	2650.07
413.81	2881.49
414.01	2545.63
414.22	2691.03
414.43	2740.18
414.63	2686.94
414.84	2949.08
415.05	2674.65
415.25	2457.56
415.46	2766.81
415.67	2607.06
415.87	2691.03
416.08	2609.11
416.29	2742.23
416.49	2824.15
416.70	2572.25
416.91	2596.82
417.11	2703.32
417.32	2846.68
417.53	2746.33
417.73	2764.76
417.94	2715.61
418.15	2781.14
418.35	2670.55
418.56	2637.78
418.77	3069.91
418.97	2711.51
419.18	2721.75
419.38	2430.94
419.59	2684.89
419.80	2926.55
420.00	2588.63
420.21	2680.79
420.42	2934.74
420.62	2842.58
420.83	2566.10
421.04	2631.64
421.24	2783.19
421.45	2809.81
421.65	2631.64
421.86	2572.25
422.07	2844.63
422.27	2815.96
422.48	2645.98
422.69	2492.38
422.89	2650.07
423.10	2674.65
423.30	2525.15
423.51	2639.83
423.72	2801.62
423.92	2801.62
424.13	2492.38
424.33	2635.74
424.54	2838.48
424.75	2797.53
424.95	2818.00
425.16	2643.93
425.36	2680.79
425.57	2889.68
425.78	2725.85
425.98	2805.72
426.19	2635.74
426.39	2574.30
426.60	2727.89
426.81	2785.24
427.01	2824.15
427.22	2568.15
427.42	2547.67
427.63	2584.54
427.83	2789.33
428.04	2936.79
428.25	2768.85
428.45	2762.71
428.66	2858.96
428.86	2719.70
429.07	2654.17
429.28	2654.17
429.48	2703.32
429.69	2574.30
429.89	2627.54
430.10	2521.05
430.30	2867.16
430.51	2809.81
430.71	2578.39
430.92	2627.54
431.13	2539.48
431.33	2828.24
431.54	2652.12
431.74	2877.40
431.95	3065.81
432.15	2594.78
432.36	2658.26
432.56	2658.26
432.77	2930.64
432.98	2992.08
433.18	2731.99
433.39	2572.25
433.59	2678.74
433.80	3033.04
434.00	2869.20
434.21	2594.78
434.41	2529.24
434.62	3078.10
434.82	2580.44
435.03	2609.11
435.23	2764.76
435.44	2408.41
435.64	2566.10
435.85	2705.37
436.06	2777.05
436.26	2885.59
436.47	2633.69
436.67	2662.36
436.88	2660.31
437.08	2871.25
437.29	2744.28
437.49	2719.70
437.70	2938.84
437.90	2754.52
438.11	2834.39
438.31	2635.74
438.52	2899.92
438.72	2930.64
438.93	2985.94
439.13	2713.56
439.34	2813.91
439.54	2723.80
439.75	2756.57
439.95	2736.09
440.16	2664.41
440.36	2682.84
440.57	2731.99
440.77	2623.45
440.98	2750.42
441.18	2809.81
441.39	2539.48
441.59	2574.30
441.80	3010.51
442.00	2691.03
442.21	2707.41
442.41	2523.10
442.62	2953.17
442.82	2670.55
443.02	2660.31
443.23	2662.36
443.43	2680.79
443.64	2842.58
443.84	2535.39
444.05	2760.66
444.25	2725.85
444.46	2625.50
444.66	2619.35
444.87	2897.88
445.07	2512.86
445.28	2721.75
445.48	2879.44
445.69	2748.37
445.89	3100.62
446.09	2734.04
446.30	2990.03
446.50	3024.85
446.71	4552.63
446.91	5709.74
447.12	6326.18
447.32	6840.22
447.53	6602.65
447.73	5377.97
447.93	4825.01
448.14	4548.54
448.34	4544.44
448.55	3903.43
448.75	3811.27
448.96	3712.97
449.16	3452.88
449.36	3327.95
449.57	2865.11
449.77	2627.54
449.98	2699.22
450.18	2873.30
450.39	2584.54
450.59	2744.28
450.79	2740.18
451.00	2629.59
451.20	2723.80
451.41	2676.70
451.61	2727.89
451.81	2699.22
452.02	2592.73
452.22	2678.74
452.43	2670.55
452.63	2611.16
452.84	2686.94
453.04	2605.02
453.24	2760.66
453.45	2691.03
453.65	2521.05
453.86	2695.13
454.06	2826.20
454.26	2744.28
454.47	2607.06
454.67	2807.77
454.87	2822.10
455.08	2729.94
455.28	2918.36
455.49	2809.81
455.69	2617.30
455.89	3151.82
456.10	2736.09
456.30	2631.64
456.51	2793.43
456.71	2748.37
456.91	2666.46
457.12	2674.65
457.32	2777.05
457.52	2510.81
457.73	2748.37
457.93	2785.24
458.14	2639.83
458.34	2435.03
458.54	2621.40
458.75	2578.39
458.95	2842.58
459.15	2693.08
459.36	2750.42
459.56	2670.55
459.76	3033.04
459.97	2758.61
460.17	2617.30
460.37	2731.99
460.58	2746.33
460.78	2904.02
460.99	2637.78
461.19	2652.12
461.39	2590.68
461.60	2781.14
461.80	2775.00
462.00	2459.61
462.21	2762.71
462.41	2629.59
462.61	2549.72
462.82	2543.58
463.02	2824.15
463.22	2779.09
463.43	2752.47
463.63	2670.55
463.83	2893.78
464.04	2752.47
464.24	2637.78
464.44	2570.20
464.64	2648.02
464.85	2832.34
465.05	2746.33
465.25	2592.73
465.46	2625.50
465.66	2842.58
465.86	2729.94
466.07	2680.79
466.27	2703.32
466.47	2568.15
466.68	2559.96
466.88	2801.62
467.08	2930.64
467.29	2832.34
467.49	2756.57
467.69	2688.98
467.89	2840.53
468.10	2742.23
468.30	2631.64
468.50	2791.38
468.71	2906.07
468.91	2562.01
469.11	2883.54
469.31	2672.60
469.52	2588.63
469.72	2887.64
469.92	2856.92
470.13	2625.50
470.33	2705.37
470.53	2777.05
470.73	3057.62
470.94	3350.48
471.14	3334.09
471.34	3833.80
471.54	3721.16
471.75	3323.85
471.95	3215.31
472.15	3055.57
472.36	3184.59
472.56	3078.10
472.76	3186.64
472.96	3012.56
473.17	2906.07
473.37	2867.16
473.57	2701.27
473.77	2815.96
473.98	2621.40
474.18	2525.15
474.38	3178.45
474.58	2609.11
474.79	2582.49
474.99	2772.95
475.19	2916.31
475.39	2666.46
475.60	2777.05
475.80	2627.54
476.00	2758.61
476.20	2695.13
476.41	2738.13
476.61	2711.51
476.81	2918.36
477.01	2668.50
477.21	2848.72
477.42	2863.06
477.62	2586.58
477.82	2848.72
478.02	2607.06
478.23	2713.56
478.43	2564.06
478.63	2695.13
478.83	2699.22
479.03	2650.07
479.24	2891.73
479.44	3074.00
479.64	2562.01
479.84	2414.56
480.04	2613.21
480.25	2854.87
480.45	2625.50
480.65	2615.26
480.85	2953.17
481.06	2731.99
481.26	2785.24
481.46	2709.46
481.66	2738.13
481.86	2625.50
482.06	2801.62
482.27	2670.55
482.47	2691.03
482.67	2789.33
482.87	2617.30
483.07	2725.85
483.28	2691.03
483.48	2547.67
483.68	2621.40
483.88	2488.28
484.08	2420.70
484.29	2658.26
484.49	2723.80
484.69	2559.96
484.89	2887.64
485.09	2883.54
485.29	2617.30
485.50	2727.89
485.70	2684.89
485.90	2955.22
486.10	2691.03
486.30	2625.50
486.50	2947.03
486.71	2748.37
486.91	2777.05
487.11	2777.05
487.31	2584.54
487.51	2828.24
487.71	2588.63
487.91	2650.07
488.12	2635.74
488.32	2359.26
488.52	2629.59
488.72	2422.75
488.92	2783.19
489.12	2893.78
489.32	2797.53
489.53	2682.84
489.73	2486.23
489.93	2910.16
490.13	2519.00
490.33	2535.39
490.53	2809.81
490.73	2920.40
490.94	2435.03
491.14	2832.34
491.34	2881.49
491.54	2914.26
491.74	3504.07
491.94	4069.31
492.14	4468.67
492.34	4415.42
492.54	4247.49
492.75	3530.70
492.95	3653.58
493.15	3350.48
493.35	3248.08
493.55	3272.65
493.75	3096.53
493.95	3260.37
494.15	2844.63
494.35	2695.13
494.56	2754.52
494.76	2641.88
494.96	2736.09
495.16	2688.98
495.36	2746.33
495.56	2766.81
495.76	2633.69
495.96	2629.59
496.16	2654.17
496.36	2992.08
496.56	2707.41
496.77	2701.27
496.97	2639.83
497.17	2992.08
497.37	2519.00
497.57	2744.28
497.77	2758.61
497.97	2582.49
498.17	2772.95
498.37	2588.63
498.57	2883.54
498.77	2674.65
498.97	2777.05
499.17	2893.78
499.38	2729.94
499.58	2793.43
499.78	2850.77
499.98	2815.96
500.18	2758.61
500.38	2596.82
500.58	2830.29
500.78	3174.35
500.98	5384.11
501.18	7169.94
501.38	8775.55
501.58	9529.20
501.78	9344.88
501.98	7714.70
502.18	6627.23
502.38	5636.01
502.58	5461.93
502.78	4802.49
502.98	4730.81
503.18	4478.91
503.38	4104.13
503.59	3659.72
503.79	3473.36
503.99	3284.94
504.19	3256.27
504.39	3174.35
504.59	3223.50
504.79	3125.20
504.99	3190.74
505.19	2928.60
505.39	2775.00
505.59	2973.65
505.79	2947.03
505.99	2897.88
506.19	2711.51
506.39	2879.44
506.59	2668.50
506.79	2707.41
506.99	2813.91
507.19	2621.40
507.39	2740.18
507.59	2543.58
507.79	2602.97
507.99	2512.86
508.19	2789.33
508.39	2605.02
508.59	2670.55
508.79	2801.62
508.99	3022.80
509.19	2588.63
509.39	2815.96
509.59	2555.86
509.79	2676.70
509.99	2750.42
510.19	2762.71
510.39	2836.44
510.59	2797.53
510.79	2752.47
510.99	2553.82
511.19	2566.10
511.39	2906.07
511.59	2854.87
511.79	2820.05
511.99	2627.54
512.19	3000.27
512.38	2678.74
512.58	2605.02
512.78	2562.01
512.98	2867.16
513.18	2965.46
513.38	2553.82
513.58	2656.22
513.78	2670.55
513.98	2637.78
514.18	2645.98
514.38	2627.54
514.58	2807.77
514.78	2586.58
514.98	2535.39
515.18	2674.65
515.38	2547.67
515.58	2971.60
515.78	2592.73
515.98	2719.70
516.18	2736.09
516.38	2695.13
516.57	2648.02
516.77	2658.26
516.97	2783.19
517.17	2635.74
517.37	2490.33
517.57	2734.04
517.77	2801.62
517.97	2580.44
518.17	2789.33
518.37	2488.28
518.57	2637.78
518.77	2648.02
518.97	2652.12
519.16	2635.74
519.36	2975.70
519.56	2658.26
519.76	2678.74
519.96	2660.31
520.16	2871.25
520.36	2598.87
520.56	2815.96
520.76	2662.36
520.96	2688.98
521.16	2949.08
521.35	2875.35
521.55	2842.58
521.75	2725.85
521.95	2629.59
522.15	2557.91
522.35	2451.42
522.55	2602.97
522.75	2834.39
522.95	2543.58
523.14	2553.82
523.34	2861.01
523.54	2639.83
523.74	2758.61
523.94	2699.22
524.14	2574.30
524.34	2758.61
524.54	2844.63
524.73	2621.40
524.93	2875.35
525.13	2707.41
525.33	2551.77
525.53	2906.07
525.73	2856.92
525.93	2723.80
526.13	2598.87
526.32	2639.83
526.52	2891.73
526.72	2807.77
526.92	2643.93
527.12	2627.54
527.32	2547.67
527.52	2768.85
527.71	2734.04
527.91	2625.50
528.11	2635.74
528.31	2625.50
528.51	2562.01
528.71	2766.81
528.90	2752.47
529.10	2887.64
529.30	2813.91
529.50	2451.42
529.70	2783.19
529.90	2740.18
530.09	2619.35
530.29	2537.43
530.49	2621.40
530.69	3104.72
530.89	2803.67
531.09	2809.81
531.28	2650.07
531.48	2928.60
531.68	2740.18
531.88	2658.26
532.08	2828.24
532.28	2736.09
532.47	2725.85
532.67	2772.95
532.87	2791.38
533.07	2658.26
533.27	2629.59
533.46	2791.38
533.66	2764.76
533.86	2705.37
534.06	2654.17
534.26	2709.46
534.45	2725.85
534.65	2940.88
534.85	2645.98
535.05	2635.74
535.25	2858.96
535.44	2555.86
535.64	2758.61
535.84	2633.69
536.04	2703.32
536.24	2725.85
536.43	2551.77
536.63	2697.17
536.83	2725.85
537.03	2635.74
537.22	2523.10
537.42	2494.43
537.62	2762.71
537.82	2609.11
538.02	2809.81
538.21	2828.24
538.41	3145.68
538.61	2719.70
538.81	2645.98
539.00	2818.00
539.20	2510.81
539.40	2654.17
539.60	2611.16
539.79	2777.05
539.99	2703.32
540.19	2648.02
540.39	2596.82
540.58	2664.41
540.78	2846.68
540.98	2779.09
541.18	2738.13
541.37	2734.04
541.57	2793.43
541.77	2744.28
541.97	2615.26
542.16	2494.43
542.36	2695.13
542.56	2607.06
542.76	2897.88
542.95	2715.61
543.15	2781.14
543.35	2818.00
543.54	2600.92
543.74	2621.40
543.94	2930.64
544.14	2693.08
544.33	2781.14
544.53	2512.86
544.73	2701.27
544.93	2691.03
545.12	2627.54
545.32	2613.21
545.52	2670.55
545.71	2525.15
545.91	2691.03
546.11	2613.21
546.30	2574.30
546.50	2715.61
546.70	2707.41
546.90	2658.26
547.09	2437.08
547.29	2772.95
547.49	2748.37
547.68	2627.54
547.88	2547.67
548.08	2797.53
548.27	3080.14
548.47	2627.54
548.67	2611.16
548.87	2783.19
549.06	2670.55
549.26	2693.08
549.46	2697.17
549.65	2684.89
549.85	2738.13
550.05	2695.13
550.24	2525.15
550.44	2725.85
550.64	2711.51
550.83	2633.69
551.03	3002.32
551.23	2838.48
551.42	2813.91
551.62	2680.79
551.82	2775.00
552.01	2594.78
552.21	2873.30
552.41	2645.98
552.60	2965.46
552.80	2725.85
553.00	2672.60
553.19	2693.08
553.39	3018.71
553.59	2564.06
553.78	2744.28
553.98	2762.71
554.17	2582.49
554.37	2789.33
554.57	2740.18
554.76	2504.67
554.96	2738.13
555.16	2693.08
555.35	2648.02
555.55	2768.85
555.75	2768.85
555.94	2736.09
556.14	2498.52
556.33	2668.50
556.53	2699.22
556.73	2631.64
556.92	2670.55
557.12	2652.12
557.32	3012.56
557.51	2973.65
557.71	2688.98
557.90	2772.95
558.10	2932.69
558.30	2664.41
558.49	2639.83
558.69	2590.68
558.88	2803.67
559.08	2748.37
559.28	2631.64
559.47	2658.26
559.67	2826.20
559.86	2942.93
560.06	2549.72
560.26	2645.98
560.45	2781.14
560.65	2652.12
560.84	2906.07
561.04	2535.39
561.24	2752.47
561.43	2607.06
561.63	2897.88
561.82	2688.98
562.02	2830.29
562.22	2605.02
562.41	2590.68
562.61	2586.58
562.80	2582.49
563.00	3086.29
563.19	2729.94
563.39	2666.46
563.59	2850.77
563.78	2611.16
563.98	2439.13
564.17	2588.63
564.37	2494.43
564.56	2691.03
564.76	2504.67
564.96	2793.43
565.15	2807.77
565.35	3033.04
565.54	2641.88
565.74	2727.89
565.93	2852.82
566.13	2734.04
566.32	2695.13
566.52	2731.99
566.71	2680.79
566.91	2848.72
567.11	2691.03
567.30	2580.44
567.50	2803.67
567.69	2746.33
567.89	2582.49
568.08	2527.19
568.28	2818.00
568.47	2572.25
568.67	2648.02
568.86	2623.45
569.06	2809.81
569.25	2654.17
569.45	2631.64
569.64	2691.03
569.84	2664.41
570.04	2746.33
570.23	2498.52
570.43	2652.12
570.62	2744.28
570.82	2985.94
571.01	2502.62
571.21	2695.13
571.40	2539.48
571.60	2863.06
571.79	2748.37
571.99	2727.89
572.18	2637.78
572.38	2787.29
572.57	2662.36
572.77	2709.46
572.96	3164.11
573.16	2693.08
573.35	2688.98
573.55	2877.40
573.74	2760.66
573.94	2658.26
574.13	2650.07
574.33	2811.86
574.52	2949.08
574.71	2678.74
574.91	2734.04
575.10	2545.63
575.30	2699.22
575.49	2512.86
575.69	2658.26
575.88	2772.95
576.08	2680.79
576.27	2893.78
576.47	2670.55
576.66	2861.01
576.86	2996.18
577.05	2756.57
577.25	2740.18
577.44	2924.50
577.64	2707.41
577.83	2914.26
578.02	2605.02
578.22	2826.20
578.41	2904.02
578.61	2721.75
578.80	2572.25
579.00	2668.50
579.19	2768.85
579.39	2809.81
579.58	2840.53
579.77	2629.59
579.97	2930.64
580.16	2875.35
580.36	2869.20
580.55	2672.60
580.75	2813.91
580.94	2734.04
581.13	2873.30
581.33	2852.82
581.52	2789.33
581.72	3053.52
581.91	2861.01
582.11	2654.17
582.30	2854.87
582.49	2791.38
582.69	2969.55
582.88	2725.85
583.08	2793.43
583.27	2977.75
583.47	2826.20
583.66	2555.86
583.85	2576.34
584.05	2662.36
584.24	2785.24
584.44	2758.61
584.63	2877.40
584.82	2944.98
585.02	2818.00
585.21	2877.40
585.41	2756.57
585.60	2711.51
585.79	2947.03
585.99	2940.88
586.18	2801.62
586.37	3596.23
586.57	5466.03
586.76	16105.23
586.96	35020.27
587.15	48276.77
587.34	57314.45
587.54	61273.18
587.73	55067.83
587.93	38788.53
588.12	29423.17
588.31	23934.61
588.51	21290.68
588.70	19472.09
588.89	17317.62
589.09	14372.64
589.28	12767.04
589.47	9963.37
589.67	7733.13
589.86	6000.55
590.06	4540.35
590.25	3889.09
590.44	3473.36
590.64	2987.99
590.83	3045.33
591.02	2877.40
591.22	2793.43
591.41	2682.84
591.60	2676.70
591.80	3164.11
591.99	2555.86
592.18	2635.74
592.38	2897.88
592.57	2619.35
592.76	2709.46
592.96	2775.00
593.15	2721.75
593.34	2912.21
593.54	2658.26
593.73	2760.66
593.92	2731.99
594.12	2918.36
594.31	2734.04
594.50	2861.01
594.70	2803.67
594.89	3110.86
595.08	2502.62
595.28	2785.24
595.47	3182.54
595.66	2861.01
595.86	2568.15
596.05	2562.01
596.24	2807.77
596.43	2983.89
596.63	2777.05
596.82	2680.79
597.01	2858.96
597.21	2934.74
597.40	2645.98
597.59	2693.08
597.79	2740.18
597.98	2846.68
598.17	2654.17
598.36	2697.17
598.56	2914.26
598.75	2723.80
598.94	2756.57
599.14	2719.70
599.33	2752.47
599.52	2852.82
599.71	2715.61
599.91	2818.00
600.10	2764.76
600.29	2746.33
600.48	2731.99
600.68	2828.24
600.87	2760.66
601.06	2703.32
601.26	2781.14
601.45	2805.72
601.64	2703.32
601.83	2914.26
602.03	2654.17
602.22	2525.15
602.41	2891.73
602.60	3096.53
602.80	2766.81
602.99	2854.87
603.18	2660.31
603.37	2801.62
603.57	2680.79
603.76	2715.61
603.95	2883.54
604.14	2678.74
604.34	2525.15
604.53	2611.16
604.72	2752.47
604.91	2916.31
605.10	2602.97
605.30	2531.29
605.49	3088.34
605.68	2779.09
605.87	2715.61
606.07	2621.40
606.26	2727.89
606.45	2828.24
606.64	2672.60
606.84	2686.94
607.03	2736.09
607.22	2828.24
607.41	2660.31
607.60	2592.73
607.80	2801.62
607.99	2674.65
608.18	2744.28
608.37	2670.55
608.56	2613.21
608.76	2930.64
608.95	2785.24
609.14	2697.17
609.33	2848.72
609.52	2961.36
609.72	2723.80
609.91	2846.68
610.10	2820.05
610.29	2977.75
610.48	2832.34
610.68	2820.05
610.87	2736.09
611.06	2856.92
611.25	2645.98
611.44	2801.62
611.63	2775.00
611.83	2987.99
612.02	2537.43
612.21	2750.42
612.40	2504.67
612.59	2521.05
612.79	2529.24
612.98	2662.36
613.17	2979.79
613.36	2787.29
613.55	2779.09
613.74	2713.56
613.93	2723.80
614.13	2850.77
614.32	2824.15
614.51	2756.57
614.70	2772.95
614.89	2791.38
615.08	2793.43
615.28	3198.93
615.47	2680.79
615.66	2869.20
615.85	2752.47
616.04	2832.34
616.23	2807.77
616.42	2731.99
616.62	2705.37
616.81	2699.22
617.00	2693.08
617.19	2797.53
617.38	2660.31
617.57	2713.56
617.76	2813.91
617.95	2824.15
618.15	2768.85
618.34	3002.32
618.53	2553.82
618.72	2891.73
618.91	2740.18
619.10	2760.66
619.29	2770.90
619.48	2600.92
619.68	2584.54
619.87	2648.02
620.06	2582.49
620.25	2809.81
620.44	2668.50
620.63	2637.78
620.82	2660.31
621.01	2713.56
621.20	2645.98
621.39	2672.60
621.59	2648.02
621.78	2758.61
621.97	2729.94
622.16	2762.71
622.35	2785.24
622.54	2856.92
622.73	2777.05
622.92	2523.10
623.11	2867.16
623.30	2619.35
623.49	2762.71
623.68	2572.25
623.88	2934.74
624.07	2729.94
624.26	2580.44
624.45	2736.09
624.64	2787.29
624.83	2871.25
625.02	2678.74
625.21	2723.80
625.40	2856.92
625.59	2906.07
625.78	2668.50
625.97	2799.57
626.16	2961.36
626.35	2944.98
626.54	2670.55
626.74	2856.92
626.93	2744.28
627.12	2760.66
627.31	2744.28
627.50	2701.27
627.69	2836.44
627.88	2707.41
628.07	2564.06
628.26	2514.91
628.45	2617.30
628.64	2600.92
628.83	2686.94
629.02	2566.10
629.21	2858.96
629.40	2746.33
629.59	2531.29
629.78	2654.17
629.97	2746.33
630.16	2715.61
630.35	2643.93
630.54	2686.94
630.73	2635.74
630.92	2691.03
631.11	2525.15
631.30	2699.22
631.49	2828.24
631.68	2672.60
631.87	2725.85
632.06	2574.30
632.25	3014.61
632.44	2756.57
632.63	2654.17
632.82	2625.50
633.01	2684.89
633.20	2772.95
633.39	2617.30
633.58	2514.91
633.77	2676.70
633.96	2846.68
634.15	2820.05
634.34	2803.67
634.53	2775.00
634.72	2586.58
634.91	2441.18
635.10	2736.09
635.29	2863.06
635.48	2729.94
635.67	2629.59
635.86	2529.24
636.05	2953.17
636.24	2631.64
636.43	2605.02
636.62	2719.70
636.81	2361.31
637.00	2752.47
637.19	2637.78
637.38	2650.07
637.57	2736.09
637.76	2721.75
637.95	2793.43
638.14	2617.30
638.33	2705.37
638.52	2750.42
638.71	2541.53
638.89	2576.34
639.08	3129.30
639.27	2867.16
639.46	2850.77
639.65	3168.21
639.84	3235.79
640.03	3260.37
640.22	3110.86
640.41	3219.41
640.60	2914.26
640.79	2928.60
640.98	2766.81
641.17	2883.54
641.36	2981.84
641.55	2963.41
641.74	2564.06
641.92	2562.01
642.11	2596.82
642.30	2695.13
642.49	2527.19
642.68	2611.16
642.87	2750.42
643.06	2828.24
643.25	2553.82
643.44	2578.39
643.63	2670.55
643.82	2834.39
644.00	2504.67
644.19	2705.37
644.38	2527.19
644.57	2822.10
644.76	2643.93
644.95	2686.94
645.14	2830.29
645.33	2619.35
645.52	2715.61
645.71	2609.11
645.89	2537.43
646.08	2719.70
646.27	2625.50
646.46	2838.48
646.65	2564.06
646.84	2740.18
647.03	2576.34
647.22	2760.66
647.40	2693.08
647.59	2719.70
647.78	2463.71
647.97	2615.26
648.16	2568.15
648.35	2955.22
648.54	2858.96
648.73	2590.68
648.91	2822.10
649.10	2772.95
649.29	2635.74
649.48	2531.29
649.67	2695.13
649.86	2766.81
650.05	2734.04
650.23	2891.73
650.42	2629.59
650.61	2887.64
650.80	2844.63
650.99	2969.55
651.18	2906.07
651.36	2846.68
651.55	2621.40
651.74	2777.05
651.93	2701.27
652.12	2705.37
652.31	2713.56
652.49	2693.08
652.68	2762.71
652.87	2908.12
653.06	2723.80
653.25	2928.60
653.44	2699.22
653.62	2963.41
653.81	2734.04
654.00	2736.09
654.19	2912.21
654.38	3188.69
654.56	2760.66
654.75	2519.00
654.94	2867.16
655.13	2779.09
655.32	2625.50
655.51	2742.23
655.69	2615.26
655.88	2822.10
656.07	2531.29
656.26	2715.61
656.45	2625.50
656.63	2695.13
656.82	2660.31
657.01	2789.33
657.20	2676.70
657.38	2918.36
657.57	2613.21
657.76	2514.91
657.95	2781.14
658.14	2588.63
658.32	2742.23
658.51	2473.95
658.70	2750.42
658.89	2764.76
659.08	2678.74
659.26	2858.96
659.45	2557.91
659.64	2719.70
659.83	2586.58
660.01	2990.03
660.20	2768.85
660.39	2951.12
660.58	2490.33
660.76	2750.42
660.95	2545.63
661.14	2723.80
661.33	2580.44
661.51	2629.59
661.70	2738.13
661.89	2748.37
662.08	2627.54
662.26	2453.47
662.45	2688.98
662.64	3010.51
662.83	2813.91
663.01	2576.34
663.20	2629.59
663.39	2973.65
663.58	2576.34
663.76	2662.36
663.95	2768.85
664.14	2650.07
664.32	2600.92
664.51	2590.68
664.70	2463.71
664.89	2793.43
665.07	2531.29
665.26	2836.44
665.45	2541.53
665.64	2766.81
665.82	2619.35
666.01	2785.24
666.20	2557.91
666.38	2856.92
666.57	2875.35
666.76	4274.11
666.95	10033.00
667.13	17061.63
667.32	21087.93
667.51	24153.74
667.69	25138.82
667.88	21483.19
668.07	15597.33
668.25	12920.63
668.44	11038.55
668.63	9598.83
668.81	8484.73
669.00	7280.53
669.19	6592.41
669.38	5752.74
669.56	4913.08
669.75	4159.42
669.94	3692.49
670.12	3252.17
670.31	3026.90
670.50	2969.55
670.68	2901.97
670.87	2783.19
671.06	2639.83
671.24	2686.94
671.43	3018.71
671.62	2736.09
671.80	2760.66
671.99	2777.05
672.18	2799.57
672.36	2797.53
672.55	2719.70
672.74	2625.50
672.92	2744.28
673.11	2856.92
673.29	2541.53
673.48	2856.92
673.67	2701.27
673.85	2840.53
674.04	2613.21
674.23	2768.85
674.41	2930.64
674.60	2519.00
674.79	2498.52
674.97	2539.48
675.16	2736.09
675.34	2797.53
675.53	2539.48
675.72	2705.37
675.90	2977.75
676.09	2666.46
676.28	2738.13
676.46	2609.11
676.65	2901.97
676.83	2637.78
677.02	2680.79
677.21	2703.32
677.39	2752.47
677.58	2594.78
677.77	2605.02
677.95	2564.06
678.14	2705.37
678.32	2621.40
678.51	2660.31
678.70	2920.40
678.88	2645.98
679.07	2750.42
679.25	2629.59
679.44	2719.70
679.63	2590.68
679.81	2721.75
680.00	2848.72
680.18	2729.94
680.37	2955.22
680.55	2738.13
680.74	2498.52
680.93	2363.36
681.11	2744.28
681.30	2781.14
681.48	2654.17
681.67	2664.41
681.85	2754.52
682.04	2619.35
682.23	2770.90
682.41	2707.41
682.60	2637.78
682.78	2643.93
682.97	2586.58
683.15	2678.74
683.34	2799.57
683.53	2981.84
683.71	2500.57
683.90	2775.00
684.08	2893.78
684.27	2709.46
684.45	2725.85
684.64	2815.96
684.82	2684.89
685.01	2824.15
685.19	2656.22
685.38	2918.36
685.57	2758.61
685.75	2572.25
685.94	2576.34
686.12	2506.71
686.31	2713.56
686.49	3051.47
686.68	2422.75
686.86	2660.31
687.05	2688.98
687.23	2885.59
687.42	2584.54
687.60	2457.56
687.79	2850.77
687.97	2924.50
688.16	2807.77
688.34	2803.67
688.53	2459.61
688.71	2824.15
688.90	2813.91
689.08	2627.54
689.27	2455.51
689.45	2828.24
689.64	2813.91
689.82	2734.04
690.01	2818.00
690.19	2797.53
690.38	2641.88
690.56	2805.72
690.75	2549.72
690.93	2539.48
691.12	2598.87
691.30	2678.74
691.49	2619.35
691.67	2631.64
691.86	2930.64
692.04	2600.92
692.23	2727.89
692.41	2803.67
692.60	2985.94
692.78	2799.57
692.97	2711.51
693.15	2861.01
693.34	2906.07
693.52	2758.61
693.71	2643.93
693.89	2621.40
694.08	2482.14
694.26	2795.48
694.44	2775.00
694.63	2895.83
694.81	2643.93
695.00	2615.26
695.18	2850.77
695.37	3104.72
695.55	2682.84
695.74	2592.73
695.92	2596.82
696.10	2959.31
696.29	2580.44
696.47	2598.87
696.66	2596.82
696.84	2635.74
697.03	2719.70
697.21	2957.27
697.40	4118.47
697.58	2922.45
697.76	2643.93
697.95	2641.88
698.13	2551.77
698.32	2605.02
698.50	2625.50
698.68	2660.31
698.87	2791.38
699.05	2949.08
699.24	2709.46
699.42	2496.47
699.61	2627.54
699.79	2719.70
699.97	2731.99
700.16	2498.52
700.34	2531.29
700.53	2715.61
700.71	2826.20
700.89	2760.66
701.08	2625.50
701.26	2756.57
701.45	3174.35
701.63	2516.95
701.81	2666.46
702.00	2607.06
702.18	2680.79
702.37	2627.54
702.55	2873.30
702.73	2822.10
702.92	2668.50
703.10	2912.21
703.28	2942.93
703.47	2656.22
703.65	2908.12
703.84	2818.00
704.02	2680.79
704.20	2947.03
704.39	2656.22
704.57	2629.59
704.75	2856.92
704.94	2863.06
705.12	2703.32
705.30	3053.52
705.49	5783.46
705.67	11822.92
705.86	17985.26
706.04	20307.66
706.22	22816.42
706.41	22675.11
706.59	17995.50
706.77	13403.96
706.96	11550.54
707.14	10422.11
707.32	9000.82
707.51	7878.54
707.69	6524.83
707.87	5504.94
708.06	4452.28
708.24	3819.46
708.42	3399.63
708.61	3510.22
708.79	2762.71
708.97	2746.33
709.16	2858.96
709.34	2785.24
709.52	2656.22
709.71	2680.79
709.89	2795.48
710.07	2580.44
710.26	2533.34
710.44	2684.89
710.62	2801.62
710.80	2713.56
710.99	2791.38
711.17	2834.39
711.35	2633.69
711.54	2648.02
711.72	2848.72
711.90	2688.98
712.09	2785.24
712.27	2635.74
712.45	2736.09
712.63	2605.02
712.82	2752.47
713.00	2748.37
713.18	2699.22
713.37	2772.95
713.55	2858.96
713.73	2789.33
713.91	2652.12
714.10	2678.74
714.28	2650.07
714.46	2785.24
714.65	2758.61
714.83	2779.09
715.01	2824.15
715.19	2723.80
715.38	2662.36
715.56	2813.91
715.74	2607.06
715.92	2639.83
716.11	2856.92
716.29	2447.32
716.47	2709.46
716.65	2637.78
716.84	2506.71
717.02	2787.29
717.20	2439.13
717.38	2625.50
717.57	2768.85
717.75	2717.65
717.93	2670.55
718.11	2760.66
718.30	2547.67
718.48	2707.41
718.66	2820.05
718.84	2875.35
719.03	2662.36
719.21	2490.33
719.39	3000.27
719.57	2752.47
719.75	2742.23
719.94	2643.93
720.12	2650.07
720.30	2725.85
720.48	2768.85
720.67	2631.64
720.85	2582.49
721.03	2705.37
721.21	2615.26
721.39	2838.48
721.58	2797.53
721.76	2719.70
721.94	2820.05
722.12	2725.85
722.30	2979.79
722.49	2660.31
722.67	2697.17
722.85	2656.22
723.03	2584.54
723.21	2596.82
723.40	2711.51
723.58	2766.81
723.76	2875.35
723.94	2893.78
724.12	2729.94
724.30	2891.73
724.49	2924.50
724.67	2605.02
724.85	2736.09
725.03	2562.01
725.21	2807.77
725.40	2901.97
725.58	2582.49
725.76	2844.63
725.94	2795.48
726.12	2609.11
726.30	2762.71
726.49	2605.02
726.67	2717.65
726.85	2760.66
727.03	3004.37
727.21	4067.27
727.39	5183.41
727.57	5550.00
727.76	6191.01
727.94	6256.54
728.12	5662.63
728.30	4556.73
728.48	4313.02
728.66	3997.64
728.84	3737.54
729.03	3307.47
729.21	3117.01
729.39	2959.31
729.57	2832.34
729.75	2719.70
729.93	2770.90
730.11	2686.94
730.30	2594.78
730.48	2643.93
730.66	2791.38
730.84	2838.48
731.02	2725.85
731.20	2650.07
731.38	2697.17
731.56	2543.58
731.74	2609.11
731.93	2750.42
732.11	2686.94
732.29	2607.06
732.47	2785.24
732.65	2727.89
732.83	2836.44
733.01	2752.47
733.19	2631.64
733.37	2809.81
733.56	2731.99
733.74	2557.91
733.92	2885.59
734.10	2594.78
734.28	2736.09
734.46	2512.86
734.64	2598.87
734.82	2686.94
735.00	2605.02
735.18	2617.30
735.36	2693.08
735.54	2738.13
735.73	2650.07
735.91	2699.22
736.09	2856.92
736.27	2754.52
736.45	2711.51
736.63	2459.61
736.81	2725.85
736.99	2893.78
737.17	2834.39
737.35	2613.21
737.53	2844.63
737.71	2721.75
737.89	2899.92
738.07	2623.45
738.25	2600.92
738.43	2504.67
738.61	2619.35
738.80	2543.58
738.98	2686.94
739.16	2584.54
739.34	2695.13
739.52	2981.84
739.70	2731.99
739.88	2799.57
740.06	2854.87
740.24	2473.95
740.42	2926.55
740.60	2443.23
740.78	2615.26
740.96	2410.46
741.14	2707.41
741.32	2705.37
741.50	2523.10
741.68	2879.44
741.86	2904.02
742.04	2586.58
742.22	2568.15
742.40	2605.02
742.58	2725.85
742.76	2643.93
742.94	2805.72
743.12	2422.75
743.30	2664.41
743.48	2756.57
743.66	2633.69
743.84	2633.69
744.02	2678.74
744.20	2742.23
744.38	2553.82
744.56	2570.20
744.74	2973.65
744.92	2703.32
745.10	2832.34
745.28	2740.18
745.46	2992.08
745.64	2609.11
745.82	2709.46
746.00	2629.59
746.18	2744.28
746.36	2588.63
746.54	2629.59
746.72	2650.07
746.90	2539.48
747.08	2953.17
747.26	2639.83
747.44	2785.24
747.62	2856.92
747.80	2731.99
747.98	2775.00
748.15	2654.17
748.33	3020.75
748.51	2637.78
748.69	2772.95
748.87	2621.40
749.05	2670.55
749.23	2707.41
749.41	2674.65
749.59	2557.91
749.77	2789.33
749.95	2670.55
750.13	2654.17
750.31	2777.05
750.49	2678.74
750.67	2928.60
750.85	2758.61
751.03	2734.04
751.20	3022.80
751.38	2674.65
751.56	2699.22
751.74	2703.32
751.92	2691.03
752.10	2576.34
752.28	2768.85
752.46	2529.24
752.64	2742.23
752.82	2770.90
753.00	2797.53
753.18	2580.44
753.35	2676.70
753.53	2670.55
753.71	2594.78
753.89	2734.04
754.07	2789.33
754.25	2850.77
754.43	2744.28
754.61	2498.52
754.79	2719.70
754.97	2777.05
755.14	2818.00
755.32	2553.82
755.50	2721.75
755.68	2781.14
755.86	2486.23
756.04	2584.54
756.22	2373.60
756.40	2936.79
756.57	2969.55
756.75	2602.97
756.93	2807.77
757.11	2805.72
757.29	2537.43
757.47	2568.15
757.65	2508.76
757.82	2387.93
758.00	2598.87
758.18	2596.82
758.36	2584.54
758.54	2932.69
758.72	2512.86
758.90	2809.81
759.07	2709.46
759.25	2527.19
759.43	2785.24
759.61	2535.39
759.79	3895.24
759.97	2834.39
760.15	2660.31
760.32	2607.06
760.50	2748.37
760.68	2912.21
760.86	2586.58
761.04	2809.81
761.22	2891.73
761.39	2697.17
761.57	2725.85
761.75	2688.98
761.93	2801.62
762.11	2648.02
762.28	2598.87
762.46	2592.73
762.64	2809.81
762.82	2523.10
763.00	2662.36
763.18	2772.95
763.35	2523.10
763.53	2918.36
763.71	2695.13
763.89	2678.74
764.07	2758.61
764.24	2594.78
764.42	2852.82
764.60	2717.65
764.78	2807.77
764.96	2865.11
765.13	2818.00
765.31	2619.35
765.49	2801.62
765.67	2525.15
765.84	2625.50
766.02	2568.15
766.20	2486.23
766.38	2781.14
766.56	2709.46
766.73	2809.81
766.91	2711.51
767.09	2688.98
767.27	2777.05
767.44	2602.97
767.62	2750.42
767.80	2752.47
767.98	2645.98
768.15	2691.03
768.33	2781.14
768.51	2803.67
768.69	2680.79
768.87	2613.21
769.04	2688.98
769.22	3117.01
769.40	2783.19
769.58	2889.68
769.75	2746.33
769.93	2967.51
770.11	2672.60
770.28	2535.39
770.46	2848.72
770.64	2842.58
770.82	2596.82
770.99	2547.67
771.17	2908.12
771.35	2682.84
771.53	2672.60
771.70	2650.07
771.88	2830.29
772.06	2660.31
772.23	2635.74
772.41	2727.89
772.59	2648.02
772.77	2574.30
772.94	2584.54
773.12	2652.12
773.30	2562.01
773.47	2680.79
773.65	2596.82
773.83	2826.20
774.01	2742.23
774.18	2469.85
774.36	2691.03
774.54	2559.96
774.71	2793.43
774.89	2514.91
775.07	2553.82
775.24	2633.69
775.42	2645.98
775.60	3059.67
775.78	2543.58
775.95	2537.43
776.13	2578.39
776.31	2506.71
776.48	2809.81
776.66	2775.00
776.84	2648.02
777.01	2564.06
777.19	2519.00
777.37	2623.45
777.54	2848.72
777.72	2953.17
777.90	2717.65
778.07	2586.58
778.25	3258.32
778.43	2887.64
778.60	2568.15
778.78	2748.37
778.96	2805.72
779.13	2519.00
779.31	2777.05
779.49	2731.99
779.66	2750.42
779.84	2637.78
780.01	2674.65
780.19	2600.92
780.37	2920.40
780.54	2801.62
780.72	2555.86
780.90	2688.98
781.07	2668.50
781.25	2656.22
781.43	2848.72
781.60	2629.59
781.78	2856.92
781.95	2725.85
782.13	2594.78
782.31	2684.89
782.48	2514.91
782.66	2742.23
782.83	2818.00
783.01	2734.04
783.19	2803.67
783.36	2658.26
783.54	2566.10
783.72	2727.89
783.89	2650.07
784.07	2695.13
784.24	2815.96
784.42	2809.81
784.60	2820.05
784.77	2777.05
784.95	2412.51
785.12	2746.33
785.30	2752.47
785.47	2654.17
785.65	2555.86
785.83	2621.40
786.00	2590.68
786.18	2666.46
786.35	2553.82
786.53	2633.69
786.71	2869.20
786.88	2787.29
787.06	2775.00
787.23	2660.31
787.41	2498.52
787.58	2734.04
787.76	2596.82
787.94	2668.50
788.11	2701.27
788.29	2568.15
788.46	2625.50
788.64	2488.28
788.81	2645.98
788.99	2637.78
789.16	2525.15
789.34	2668.50
789.52	2611.16
789.69	2670.55
789.87	2435.03
790.04	2650.07
790.22	2652.12
790.39	3004.37
790.57	2553.82
790.74	2564.06
790.92	2918.36
791.09	2566.10
791.27	2691.03
791.44	2848.72
791.62	2602.97
791.79	2801.62
791.97	2674.65
792.15	2967.51
792.32	2779.09
792.50	2762.71
792.67	2830.29
792.85	2873.30
793.02	2711.51
793.20	2629.59
793.37	2465.75
793.55	2650.07
793.72	2494.43
793.90	2793.43
794.07	2629.59
794.25	2580.44
794.42	2797.53
794.60	2670.55
794.77	2678.74
794.95	2793.43
795.12	2836.44
795.30	2664.41
795.47	2432.99
795.65	3028.95
795.82	2793.43
796.00	2580.44
796.17	2688.98
796.34	2605.02
796.52	2711.51
796.69	2850.77
796.87	2727.89
797.04	2725.85
797.22	2822.10
797.39	2740.18
797.57	2815.96
797.74	2791.38
797.92	2703.32
798.09	2693.08
798.27	2863.06
798.44	2666.46
798.62	2596.82
798.79	2693.08
798.96	2744.28
799.14	2631.64
799.31	3106.77
799.49	2674.65
799.66	2740.18
799.84	2709.46
800.01	2480.09
800.19	2754.52
800.36	2496.47
800.53	2666.46
800.71	2807.77
800.88	2975.70
801.06	2514.91
801.23	2598.87
801.41	2643.93
801.58	2691.03
801.75	2619.35
801.93	2721.75
802.10	2826.20
802.28	2678.74
802.45	2559.96
802.63	2746.33
802.80	2914.26
802.97	2682.84
803.15	2701.27
803.32	2598.87
803.50	2666.46
803.67	2576.34
803.84	2562.01
804.02	2715.61
804.19	2795.48
804.37	2410.46
804.54	2580.44
804.71	2607.06
804.89	2635.74
805.06	2506.71
805.24	2588.63
805.41	2557.91
805.58	2611.16
805.76	3098.58
805.93	2631.64
806.10	2781.14
806.28	2756.57
806.45	2734.04
806.63	2744.28
806.80	2652.12
806.97	2815.96
807.15	2693.08
807.32	2652.12
807.49	2633.69
807.67	2576.34
807.84	2760.66
808.01	2539.48
808.19	2832.34
808.36	3069.91
808.54	2643.93
808.71	2621.40
808.88	2707.41
809.06	2838.48
809.23	2908.12
809.40	2662.36
809.58	2629.59
809.75	2666.46
809.92	2533.34
810.10	2936.79
810.27	2627.54
810.44	2807.77
810.62	2820.05
810.79	2664.41
810.96	2631.64
811.14	2602.97
811.31	2766.81
811.48	2729.94
811.66	2658.26
811.83	2895.83
812.00	2793.43
812.18	2678.74
812.35	2953.17
812.52	2664.41
812.69	2605.02
812.87	2570.20
813.04	2562.01
813.21	2719.70
813.39	2645.98
813.56	2555.86
813.73	2916.31
813.91	2557.91
814.08	2721.75
814.25	2713.56
814.42	2500.57
814.60	2764.76
814.77	2703.32
814.94	2617.30
815.12	2742.23
815.29	2910.16
815.46	2629.59
815.63	2666.46
815.81	2719.70
815.98	2684.89
816.15	2670.55
816.33	2623.45
816.50	2596.82
816.67	2695.13
816.84	2641.88
817.02	2557.91
817.19	2562.01
817.36	2738.13
817.53	2711.51
817.71	2576.34
817.88	2740.18
818.05	2719.70
818.22	2734.04
818.40	2912.21
818.57	2639.83
818.74	2805.72
818.91	2760.66
819.09	2809.81
819.26	2723.80
819.43	2635.74
819.60	2627.54
819.78	2725.85
819.95	2762.71
820.12	2607.06
820.29	2908.12
820.47	2879.44
820.64	2588.63
820.81	2500.57
820.98	2549.72
821.15	2686.94
821.33	2770.90
821.50	2508.76
821.67	2793.43
821.84	2631.64
822.02	2631.64
822.19	2828.24
822.36	2625.50
822.53	2627.54
822.70	2529.24
822.88	2631.64
823.05	2957.27
823.22	2654.17
823.39	2623.45
823.56	2656.22
823.74	2973.65
823.91	2588.63
824.08	2539.48
824.25	2564.06
824.42	2969.55
824.60	2508.76
824.77	2707.41
824.94	2654.17
825.11	2805.72
825.28	2514.91
825.45	2697.17
825.63	2807.77
825.80	2531.29
825.97	2666.46
826.14	2670.55
826.31	2549.72
826.48	2768.85
826.66	2590.68
826.83	2533.34
827.00	2682.84
827.17	2592.73
827.34	2621.40
827.51	2596.82
827.69	2656.22
827.86	2490.33
828.03	2699.22
828.20	2660.31
828.37	2645.98
828.54	2785.24
828.71	2586.58
828.89	2838.48
829.06	2801.62
829.23	2979.79
829.40	2602.97
829.57	2627.54
829.74	2746.33
829.91	2668.50
830.09	2588.63
830.26	2754.52
830.43	2932.69
830.60	2674.65
830.77	2695.13
830.94	2807.77
831.11	2807.77
831.28	2645.98
831.46	2822.10
831.63	2682.84
831.80	2809.81
831.97	2592.73
832.14	2590.68
832.31	2729.94
832.48	2762.71
832.65	2848.72
832.82	2662.36
832.99	2715.61
833.17	2648.02
833.34	2893.78
833.51	2625.50
833.68	2379.74
833.85	2783.19
834.02	2564.06
834.19	2580.44
834.36	2623.45
834.53	2666.46
834.70	2858.96
834.87	2709.46
835.04	2508.76
835.22	2668.50
835.39	2707.41
835.56	2490.33
835.73	2545.63
835.90	2879.44
836.07	2533.34
836.24	2662.36
836.41	2541.53
836.58	2576.34
836.75	2863.06
836.92	2594.78
837.09	2508.76
837.26	2848.72
837.43	2697.17
837.60	2695.13
837.77	2551.77
837.94	2824.15
838.12	2875.35
838.29	2547.67
838.46	2510.81
838.63	2582.49
838.80	2936.79
838.97	2637.78
839.14	2551.77
839.31	2801.62
839.48	2875.35
839.65	2598.87
839.82	2656.22
839.99	2764.76
840.16	2760.66
840.33	2521.05
840.50	2611.16
840.67	2688.98
840.84	2392.03
841.01	2576.34
841.18	2551.77
841.35	2645.98
841.52	2736.09
841.69	2795.48
841.86	2541.53
842.03	2697.17
842.20	2844.63
842.37	2516.95
842.54	2664.41
842.71	2645.98
842.88	2523.10
843.05	2588.63
843.22	2516.95
843.39	2865.11
843.56	2693.08
843.73	2535.39
843.90	2666.46
844.07	2795.48
844.24	2828.24
844.41	2619.35
844.58	2629.59
844.75	2744.28
844.92	2748.37
845.09	2639.83
845.26	2551.77
845.43	2822.10
845.60	2729.94
845.77	2656.22
845.94	2602.97
846.10	2803.67
846.27	2531.29
846.44	2453.47
846.61	2449.37
846.78	2777.05
846.95	2875.35
847.12	2516.95
847.29	2537.43
847.46	2531.29
847.63	2904.02
847.80	2482.14
847.97	2576.34
848.14	3018.71
848.31	2652.12
848.48	2406.36
848.65	2668.50
848.82	2670.55
848.98	3041.23
849.15	2662.36
849.32	2768.85
849.49	2871.25
849.66	2709.46
849.83	2576.34
850.00	2498.52
850.17	2797.53
850.34	2658.26
850.51	2537.43
850.68	2539.48
850.85	3006.42
851.01	2707.41
851.18	2586.58
851.35	2574.30
851.52	2809.81
851.69	2940.88
851.86	2519.00
852.03	2559.96
852.20	2793.43
852.37	2764.76
852.53	2461.66
852.70	2512.86
852.87	2658.26
853.04	2850.77
853.21	2588.63
853.38	2779.09
853.55	2928.60
853.72	2844.63
853.89	2455.51
854.05	2514.91
854.22	2613.21
854.39	2705.37
854.56	2549.72
854.73	2740.18
854.90	2566.10
855.07	2715.61
855.23	2463.71
855.40	2533.34
855.57	2674.65
855.74	2453.47
855.91	2693.08
856.08	2463.71
856.25	2500.57
856.41	2727.89
856.58	2605.02
856.75	2566.10
856.92	2539.48
857.09	2873.30
857.26	2379.74
857.42	2570.20
857.59	2793.43
857.76	2697.17
857.93	2529.24
858.10	2629.59
858.27	2609.11
858.43	2668.50
858.60	2568.15
858.77	2414.56
858.94	2639.83
859.11	2734.04
859.27	2576.34
859.44	2498.52
859.61	2944.98
859.78	2756.57
859.95	2531.29
860.12	2529.24
860.28	2981.84
860.45	2979.79
860.62	2504.67
860.79	2654.17
860.95	2693.08
861.12	2568.15
861.29	2455.51
861.46	2471.90
861.63	2648.02
861.79	2742.23
861.96	2478.04
862.13	2547.67
862.30	2932.69
862.47	2633.69
862.63	2471.90
862.80	2680.79
862.97	2785.24
863.14	2846.68
863.30	2527.19
863.47	2465.75
863.64	3016.66
863.81	2721.75
863.97	2486.23
864.14	2572.25
864.31	2705.37
864.48	2617.30
864.65	2566.10
864.81	2752.47
864.98	2834.39
865.15	2807.77
865.32	2686.94
865.48	2641.88
865.65	2869.20
865.82	2617.30
865.98	2586.58
866.15	2570.20
866.32	2705.37
866.49	2576.34
866.65	2670.55
866.82	2482.14
866.99	2652.12
867.16	2633.69
867.32	2576.34
867.49	2553.82
867.66	2744.28
867.83	2674.65
867.99	2453.47
868.16	2605.02
868.33	2545.63
868.49	2707.41
868.66	2549.72
868.83	2660.31
868.99	2731.99
869.16	2766.81
869.33	2699.22
869.50	2662.36
869.66	2688.98
869.83	2680.79
870.00	2461.66
870.16	2705.37
870.33	2684.89
870.50	2856.92
870.66	2590.68
870.83	2559.96
871.00	2805.72
871.17	2820.05
871.33	2635.74
871.50	2584.54
871.67	2746.33
871.83	2643.93
872.00	2750.42
872.17	2596.82
872.33	2918.36
872.50	2871.25
872.67	2564.06
872.83	2535.39
873.00	2813.91
873.17	2611.16
873.33	2643.93
873.50	2674.65
873.67	2611.16
873.83	2582.49
874.00	2478.04
874.16	2652.12
874.33	2834.39
874.50	2584.54
874.66	2504.67
874.83	2590.68
875.00	2775.00
875.16	2820.05
875.33	2674.65
875.50	2412.51
875.66	2703.32
875.83	2695.13
875.99	2609.11
876.16	2625.50
876.33	2605.02
876.49	2680.79
876.66	2551.77
876.83	2551.77
876.99	2516.95
877.16	2648.02
877.32	2514.91
877.49	2543.58
877.66	2764.76
877.82	2955.22
877.99	2537.43
878.15	2740.18
878.32	2795.48
878.49	2752.47
878.65	2656.22
878.82	2760.66
878.98	2625.50
879.15	2813.91
879.32	2729.94
879.48	2684.89
879.65	2600.92
879.81	2643.93
879.98	2523.10
880.15	2660.31
880.31	2865.11
880.48	2668.50
880.64	2717.65
880.81	2725.85
880.97	2910.16
881.14	2967.51
881.31	2523.10
881.47	2725.85
881.64	2715.61
881.80	2463.71
881.97	2715.61
882.13	2605.02
882.30	2437.08
882.47	2533.34
882.63	2549.72
882.80	2506.71
882.96	2568.15
883.13	2904.02
883.29	2602.97
883.46	2519.00
883.62	3117.01
883.79	2793.43
883.95	2707.41
884.12	2594.78
884.29	2809.81
884.45	2727.89
884.62	2656.22
884.78	2473.95
884.95	2969.55
885.11	2557.91
885.28	2639.83
885.44	2588.63
885.61	2766.81
885.77	3014.61
885.94	2594.78
886.10	2578.39
886.27	2736.09
886.43	2949.08
886.60	2680.79
886.76	2557.91
886.93	2629.59
887.09	2686.94
887.26	2441.18
887.42	2629.59
887.59	2805.72
887.75	3002.32
887.92	2746.33
888.08	2684.89
888.25	2971.60
888.41	2744.28
888.58	2580.44
888.74	2551.77
888.91	2662.36
>>>>>End Processed Spectral Data<<<<<
