SpectraSuite Data File
++++++++++++++++++++++++++++++++++++
Date: Thu May 05 16:21:09 CEST 2016
User: root
Dark Spectrum Present: No
Reference Spectrum Present: No
Number of Sampled Component Spectra: 1
Spectrometers: USB4C02835
Integration Time (usec): 100000 (USB4C02835)
Spectra Averaged: 1 (USB4C02835)
Boxcar Smoothing: 0 (USB4C02835)
Correct for Electrical Dark: No (USB4C02835)
Strobe/Lamp Enabled: No (USB4C02835)
Correct for Detector Non-linearity: No (USB4C02835)
Correct for Stray Light: No (USB4C02835)
Number of Pixels in Processed Spectrum: 3648
>>>>>Begin Processed Spectral Data<<<<<
177.47	2047.97
177.69	2047.97
177.91	2047.97
178.13	1996.77
178.36	2064.35
178.58	2529.24
178.80	2801.62
179.02	2639.83
179.24	2543.58
179.46	2488.28
179.68	2559.96
179.90	2754.52
180.13	2670.55
180.35	2437.08
180.57	2465.75
180.79	2838.48
181.01	2713.56
181.23	2500.57
181.45	2643.93
181.67	2752.47
181.90	2818.00
182.12	2512.86
182.34	2320.35
182.56	2834.39
182.78	2748.37
183.00	2486.23
183.22	2547.67
183.44	2465.75
183.66	3104.72
183.89	2660.31
184.11	2523.10
184.33	2777.05
184.55	2826.20
184.77	2496.47
184.99	2562.01
185.21	2615.26
185.43	3153.87
185.65	2500.57
185.87	2467.80
186.10	3010.51
186.32	3020.75
186.54	2600.92
186.76	2613.21
186.98	2846.68
187.20	2705.37
187.42	2529.24
187.64	2521.05
187.86	2775.00
188.08	2865.11
188.30	2508.76
188.52	2629.59
188.75	2930.64
188.97	2871.25
189.19	2506.71
189.41	2437.08
189.63	2727.89
189.85	2682.84
190.07	2410.46
190.29	2424.80
190.51	2740.18
190.73	2475.99
190.95	2629.59
191.17	2535.39
191.39	2490.33
191.61	2684.89
191.84	2498.52
192.06	2625.50
192.28	2498.52
192.50	3141.58
192.72	2611.16
192.94	2547.67
193.16	2863.06
193.38	2752.47
193.60	2375.64
193.82	2600.92
194.04	2856.92
194.26	2809.81
194.48	2531.29
194.70	2545.63
194.92	2660.31
195.14	2760.66
195.36	2455.51
195.58	2564.06
195.80	2635.74
196.02	2572.25
196.24	2467.80
196.46	2596.82
196.69	2660.31
196.91	3135.44
197.13	2416.60
197.35	2545.63
197.57	2924.50
197.79	2731.99
198.01	2576.34
198.23	2572.25
198.45	2791.38
198.67	2559.96
198.89	2381.79
199.11	2523.10
199.33	2650.07
199.55	2467.80
199.77	2443.23
199.99	2621.40
200.21	2633.69
200.43	2805.72
200.65	2467.80
200.87	2328.54
201.09	2760.66
201.31	2633.69
201.53	2510.81
201.75	2562.01
201.97	2785.24
202.19	2691.03
202.41	2570.20
202.63	2629.59
202.85	2813.91
203.07	2721.75
203.29	2637.78
203.51	2408.41
203.73	2639.83
203.95	3129.30
204.17	2523.10
204.39	2645.98
204.61	2750.42
204.83	2512.86
205.05	2613.21
205.27	2588.63
205.49	3006.42
205.71	2734.04
205.93	2439.13
206.15	2467.80
206.37	2645.98
206.59	2674.65
206.81	2437.08
207.03	2449.37
207.25	2535.39
207.47	2869.20
207.69	2547.67
207.91	2760.66
208.13	2891.73
208.34	2607.06
208.56	2447.32
208.78	2531.29
209.00	2639.83
209.22	2613.21
209.44	2621.40
209.66	2475.99
209.88	2815.96
210.10	2668.50
210.32	2543.58
210.54	2586.58
210.76	2658.26
210.98	2830.29
211.20	2346.97
211.42	2654.17
211.64	2848.72
211.86	2756.57
212.08	2553.82
212.30	2453.47
212.52	2680.79
212.74	2832.34
212.96	2596.82
213.17	2527.19
213.39	2725.85
213.61	3004.37
213.83	2523.10
214.05	2379.74
214.27	2901.97
214.49	2584.54
214.71	2426.84
214.93	2662.36
215.15	2721.75
215.37	2865.11
215.59	2324.44
215.81	2572.25
216.03	2871.25
216.24	2766.81
216.46	2486.23
216.68	2598.87
216.90	2834.39
217.12	2852.82
217.34	2482.14
217.56	2652.12
217.78	2998.23
218.00	2836.44
218.22	2580.44
218.44	2605.02
218.66	2852.82
218.87	3045.33
219.09	2498.52
219.31	2547.67
219.53	2766.81
219.75	2627.54
219.97	2504.67
220.19	2519.00
220.41	2727.89
220.63	2973.65
220.85	2562.01
221.06	2512.86
221.28	2912.21
221.50	2793.43
221.72	2545.63
221.94	2445.27
222.16	2758.61
222.38	2775.00
222.60	2494.43
222.82	2543.58
223.03	2881.49
223.25	2553.82
223.47	2533.34
223.69	2670.55
223.91	2906.07
224.13	2725.85
224.35	2406.36
224.57	2631.64
224.78	2875.35
225.00	2631.64
225.22	2545.63
225.44	2510.81
225.66	2793.43
225.88	2582.49
226.10	2580.44
226.32	2490.33
226.53	2887.64
226.75	2697.17
226.97	2553.82
227.19	2525.15
227.41	2551.77
227.63	2637.78
227.85	2351.07
228.06	2529.24
228.28	2742.23
228.50	2949.08
228.72	2408.41
228.94	2523.10
229.16	2490.33
229.37	2619.35
229.59	2432.99
229.81	2695.13
230.03	2602.97
230.25	2527.19
230.47	2363.36
230.69	2480.09
230.90	2779.09
231.12	2572.25
231.34	2625.50
231.56	2680.79
231.78	2564.06
232.00	2758.61
232.21	2490.33
232.43	2570.20
232.65	2406.36
232.87	2754.52
233.09	2428.89
233.30	2449.37
233.52	2813.91
233.74	2744.28
233.96	2486.23
234.18	2623.45
234.40	2744.28
234.61	3076.05
234.83	2441.18
235.05	2406.36
235.27	3069.91
235.49	2883.54
235.70	2516.95
235.92	2578.39
236.14	2791.38
236.36	3063.76
236.58	2426.84
236.79	2598.87
237.01	2678.74
237.23	2746.33
237.45	2629.59
237.67	2537.43
237.88	2715.61
238.10	2987.99
238.32	2482.14
238.54	2392.03
238.76	2656.22
238.97	2566.10
239.19	2404.32
239.41	2582.49
239.63	2901.97
239.85	2719.70
240.06	2549.72
240.28	2432.99
240.50	2854.87
240.72	2727.89
240.93	2449.37
241.15	2619.35
241.37	2756.57
241.59	2957.27
241.81	2578.39
242.02	2525.15
242.24	2805.72
242.46	2887.64
242.68	2414.56
242.89	2543.58
243.11	2811.86
243.33	2770.90
243.55	2574.30
243.76	2562.01
243.98	2650.07
244.20	2734.04
244.42	2473.95
244.64	2455.51
244.85	2478.04
245.07	2545.63
245.29	2510.81
245.51	2617.30
245.72	2842.58
245.94	2891.73
246.16	2519.00
246.38	2566.10
246.59	2572.25
246.81	2602.97
247.03	2426.84
247.24	2365.40
247.46	2703.32
247.68	2781.14
247.90	2529.24
248.11	2504.67
248.33	2889.68
248.55	2760.66
248.77	2596.82
248.98	2668.50
249.20	2926.55
249.42	2822.10
249.64	2443.23
249.85	2502.62
250.07	2623.45
250.29	2873.30
250.50	2553.82
250.72	2416.60
250.94	2840.53
251.16	3065.81
251.37	2537.43
251.59	2602.97
251.81	2768.85
252.02	2985.94
252.24	2523.10
252.46	2594.78
252.68	2594.78
252.89	2609.11
253.11	2400.22
253.33	2682.84
253.54	2834.39
253.76	2586.58
253.98	2531.29
254.20	2523.10
254.41	2547.67
254.63	2699.22
254.85	2453.47
255.06	2531.29
255.28	2783.19
255.50	2705.37
255.71	2541.53
255.93	2367.45
256.15	2699.22
256.36	2764.76
256.58	2514.91
256.80	2519.00
257.02	2654.17
257.23	2695.13
257.45	2480.09
257.67	2605.02
257.88	2627.54
258.10	2777.05
258.32	2496.47
258.53	2594.78
258.75	2930.64
258.97	2580.44
259.18	2502.62
259.40	2494.43
259.62	2977.75
259.83	2922.45
260.05	2635.74
260.27	3207.12
260.48	2906.07
260.70	2566.10
260.92	2381.79
261.13	2547.67
261.35	2736.09
261.57	2809.81
261.78	2414.56
262.00	2523.10
262.22	2842.58
262.43	2531.29
262.65	2555.86
262.86	2533.34
263.08	3080.14
263.30	2777.05
263.51	2422.75
263.73	2471.90
263.95	2930.64
264.16	2555.86
264.38	2400.22
264.60	2502.62
264.81	2678.74
265.03	2916.31
265.25	2752.47
265.46	2437.08
265.68	2875.35
265.89	2893.78
266.11	2365.40
266.33	2486.23
266.54	2869.20
266.76	2750.42
266.98	2557.91
267.19	2656.22
267.41	2916.31
267.62	2684.89
267.84	2301.92
268.06	2576.34
268.27	2740.18
268.49	2865.11
268.70	2584.54
268.92	2557.91
269.14	2609.11
269.35	2547.67
269.57	2535.39
269.79	2611.16
270.00	2633.69
270.22	2959.31
270.43	2430.94
270.65	2353.12
270.87	2775.00
271.08	2789.33
271.30	2637.78
271.51	2461.66
271.73	2793.43
271.95	2912.21
272.16	2500.57
272.38	2611.16
272.59	2703.32
272.81	2885.59
273.02	2490.33
273.24	2570.20
273.46	2867.16
273.67	2596.82
273.89	2400.22
274.10	2498.52
274.32	2922.45
274.54	2811.86
274.75	2617.30
274.97	2553.82
275.18	2881.49
275.40	2779.09
275.61	2500.57
275.83	2623.45
276.05	2516.95
276.26	2791.38
276.48	2533.34
276.69	2633.69
276.91	2641.88
277.12	2914.26
277.34	2738.13
277.55	2744.28
277.77	2736.09
277.99	2744.28
278.20	2562.01
278.42	2490.33
278.63	2709.46
278.85	2605.02
279.06	2580.44
279.28	2691.03
279.49	2867.16
279.71	2838.48
279.93	2695.13
280.14	2660.31
280.36	2662.36
280.57	2873.30
280.79	2723.80
281.00	2506.71
281.22	2580.44
281.43	2846.68
281.65	2424.80
281.86	2498.52
282.08	2777.05
282.29	2973.65
282.51	2426.84
282.73	2514.91
282.94	2467.80
283.16	2820.05
283.37	2789.33
283.59	2592.73
283.80	2775.00
284.02	2762.71
284.23	2691.03
284.45	2600.92
284.66	2643.93
284.88	2596.82
285.09	2617.30
285.31	2680.79
285.52	2740.18
285.74	2572.25
285.95	2789.33
286.17	2721.75
286.38	2858.96
286.60	2590.68
286.81	2566.10
287.03	2549.72
287.24	2648.02
287.46	2791.38
287.67	2652.12
287.89	2834.39
288.10	2658.26
288.32	2742.23
288.53	2801.62
288.75	2674.65
288.96	2824.15
289.18	2641.88
289.39	2510.81
289.61	2645.98
289.82	3018.71
290.04	3024.85
290.25	2508.76
290.47	2652.12
290.68	2709.46
290.90	2947.03
291.11	2498.52
291.33	2766.81
291.54	2596.82
291.76	2590.68
291.97	2709.46
292.18	2703.32
292.40	2697.17
292.61	2625.50
292.83	2869.20
293.04	2705.37
293.26	2693.08
293.47	2731.99
293.69	2482.14
293.90	2537.43
294.12	2895.83
294.33	2695.13
294.55	2586.58
294.76	2787.29
294.97	2916.31
295.19	3067.86
295.40	2607.06
295.62	2643.93
295.83	2820.05
296.05	2693.08
296.26	2707.41
296.48	2607.06
296.69	2656.22
296.90	2637.78
297.12	2736.09
297.33	2803.67
297.55	2738.13
297.76	2785.24
297.98	2697.17
298.19	2719.70
298.41	2752.47
298.62	2541.53
298.83	2736.09
299.05	2734.04
299.26	2572.25
299.48	2602.97
299.69	2668.50
299.90	2545.63
300.12	2613.21
300.33	2764.76
300.55	2553.82
300.76	2607.06
300.98	2527.19
301.19	2768.85
301.40	2568.15
301.62	2625.50
301.83	2734.04
302.05	2813.91
302.26	2697.17
302.47	2664.41
302.69	2506.71
302.90	2768.85
303.12	2453.47
303.33	2711.51
303.54	2944.98
303.76	2752.47
303.97	2641.88
304.19	2799.57
304.40	2572.25
304.61	2748.37
304.83	2789.33
305.04	2717.65
305.26	2744.28
305.47	2611.16
305.68	2627.54
305.90	2435.03
306.11	2858.96
306.33	2676.70
306.54	2533.34
306.75	2543.58
306.97	2572.25
307.18	2543.58
307.39	2637.78
307.61	2736.09
307.82	2680.79
308.04	2856.92
308.25	2516.95
308.46	2711.51
308.68	2740.18
308.89	2723.80
309.10	2760.66
309.32	2648.02
309.53	2662.36
309.74	2836.44
309.96	2564.06
310.17	2793.43
310.39	2559.96
310.60	2822.10
310.81	2629.59
311.03	2555.86
311.24	2789.33
311.45	2729.94
311.67	2826.20
311.88	2729.94
312.09	2650.07
312.31	2650.07
312.52	2574.30
312.73	2609.11
312.95	2500.57
313.16	2609.11
313.37	2795.48
313.59	2762.71
313.80	2883.54
314.01	2918.36
314.23	2545.63
314.44	2482.14
314.65	2580.44
314.87	2551.77
315.08	2588.63
315.29	2668.50
315.51	2504.67
315.72	2428.89
315.93	2803.67
316.15	2680.79
316.36	2605.02
316.57	2697.17
316.79	2658.26
317.00	2574.30
317.21	2824.15
317.43	2662.36
317.64	2662.36
317.85	2570.20
318.07	2629.59
318.28	2693.08
318.49	2729.94
318.70	2854.87
318.92	2789.33
319.13	2854.87
319.34	2799.57
319.56	2617.30
319.77	2820.05
319.98	2815.96
320.20	2738.13
320.41	2660.31
320.62	2785.24
320.83	2592.73
321.05	2756.57
321.26	2697.17
321.47	2758.61
321.69	2854.87
321.90	2519.00
322.11	2691.03
322.32	2783.19
322.54	2951.12
322.75	2656.22
322.96	3127.25
323.18	2545.63
323.39	2459.61
323.60	2502.62
323.81	2686.94
324.03	2613.21
324.24	2731.99
324.45	2693.08
324.66	2635.74
324.88	2914.26
325.09	2985.94
325.30	2613.21
325.52	2619.35
325.73	2738.13
325.94	2641.88
326.15	2471.90
326.37	2539.48
326.58	2861.01
326.79	2910.16
327.00	2527.19
327.22	2588.63
327.43	2652.12
327.64	2580.44
327.85	2742.23
328.07	2611.16
328.28	2987.99
328.49	2611.16
328.70	2600.92
328.92	2645.98
329.13	2639.83
329.34	2832.34
329.55	2801.62
329.76	2705.37
329.98	2758.61
330.19	2904.02
330.40	2723.80
330.61	2645.98
330.83	2818.00
331.04	2494.43
331.25	2660.31
331.46	2605.02
331.68	2598.87
331.89	2828.24
332.10	2576.34
332.31	2439.13
332.52	2729.94
332.74	2912.21
332.95	2441.18
333.16	2637.78
333.37	2785.24
333.58	2578.39
333.80	2586.58
334.01	2459.61
334.22	2629.59
334.43	2568.15
334.64	2506.71
334.86	2568.15
335.07	2543.58
335.28	2940.88
335.49	2539.48
335.70	2678.74
335.92	2924.50
336.13	3098.58
336.34	2670.55
336.55	2723.80
336.76	2811.86
336.98	2490.33
337.19	2572.25
337.40	2725.85
337.61	3090.38
337.82	2627.54
338.04	2734.04
338.25	2471.90
338.46	2711.51
338.67	2672.60
338.88	2519.00
339.09	2547.67
339.31	2648.02
339.52	2557.91
339.73	2576.34
339.94	2668.50
340.15	2772.95
340.36	2715.61
340.58	2643.93
340.79	2519.00
341.00	2838.48
341.21	2559.96
341.42	2818.00
341.63	2594.78
341.85	2830.29
342.06	2725.85
342.27	2533.34
342.48	2699.22
342.69	2609.11
342.90	2846.68
343.12	2838.48
343.33	2590.68
343.54	2729.94
343.75	2879.44
343.96	2654.17
344.17	2535.39
344.38	2697.17
344.60	2623.45
344.81	2471.90
345.02	2643.93
345.23	2826.20
345.44	3051.47
345.65	2648.02
345.86	2650.07
346.07	2797.53
346.29	2703.32
346.50	2625.50
346.71	2695.13
346.92	2897.88
347.13	3030.99
347.34	2566.10
347.55	2531.29
347.76	2766.81
347.98	2525.15
348.19	2654.17
348.40	2762.71
348.61	2701.27
348.82	2955.22
349.03	2723.80
349.24	2574.30
349.45	3069.91
349.66	2461.66
349.88	2656.22
350.09	2559.96
350.30	2908.12
350.51	2906.07
350.72	2684.89
350.93	2668.50
351.14	2670.55
351.35	2844.63
351.56	2662.36
351.77	2678.74
351.99	2680.79
352.20	3026.90
352.41	2758.61
352.62	2375.64
352.83	2658.26
353.04	2652.12
353.25	2596.82
353.46	2680.79
353.67	2877.40
353.88	2506.71
354.09	2623.45
354.30	2713.56
354.52	2867.16
354.73	2715.61
354.94	2553.82
355.15	2635.74
355.36	2987.99
355.57	2656.22
355.78	2572.25
355.99	2580.44
356.20	2680.79
356.41	2852.82
356.62	2676.70
356.83	2559.96
357.04	2938.84
357.25	2543.58
357.46	2627.54
357.68	2422.75
357.89	2580.44
358.10	2658.26
358.31	2605.02
358.52	2602.97
358.73	2600.92
358.94	2627.54
359.15	2586.58
359.36	2701.27
359.57	2793.43
359.78	2719.70
359.99	2719.70
360.20	2555.86
360.41	2768.85
360.62	2852.82
360.83	2611.16
361.04	2566.10
361.25	2805.72
361.46	3014.61
361.67	2772.95
361.88	2666.46
362.09	2875.35
362.30	2787.29
362.51	2531.29
362.72	2582.49
362.93	2834.39
363.14	2727.89
363.35	2678.74
363.56	2527.19
363.78	2928.60
363.99	2951.12
364.20	2613.21
364.41	2627.54
364.62	2998.23
364.83	2813.91
365.04	2686.94
365.25	2670.55
365.46	3063.76
365.67	2592.73
365.88	2645.98
366.09	2564.06
366.30	2672.60
366.51	2701.27
366.72	2424.80
366.93	2652.12
367.14	2627.54
367.35	2916.31
367.56	2564.06
367.77	2723.80
367.98	2707.41
368.18	2775.00
368.39	2709.46
368.60	2504.67
368.81	2854.87
369.02	2772.95
369.23	2578.39
369.44	2549.72
369.65	2668.50
369.86	2793.43
370.07	2783.19
370.28	2508.76
370.49	2777.05
370.70	2799.57
370.91	2539.48
371.12	2539.48
371.33	2910.16
371.54	2711.51
371.75	2764.76
371.96	2326.49
372.17	2711.51
372.38	2725.85
372.59	2645.98
372.80	2592.73
373.01	2691.03
373.22	2740.18
373.43	2639.83
373.64	2459.61
373.85	2858.96
374.06	2922.45
374.26	2797.53
374.47	2664.41
374.68	2940.88
374.89	2779.09
375.10	2594.78
375.31	2693.08
375.52	2744.28
375.73	2707.41
375.94	2475.99
376.15	2848.72
376.36	2570.20
376.57	2637.78
376.78	2609.11
376.99	2660.31
377.20	2926.55
377.40	2729.94
377.61	2863.06
377.82	2557.91
378.03	2906.07
378.24	2779.09
378.45	2664.41
378.66	2625.50
378.87	2469.85
379.08	2480.09
379.29	2613.21
379.50	2742.23
379.71	2756.57
379.91	2791.38
380.12	2576.34
380.33	2719.70
380.54	2699.22
380.75	2688.98
380.96	2656.22
381.17	2629.59
381.38	2695.13
381.59	2785.24
381.80	2621.40
382.00	2836.44
382.21	2744.28
382.42	2975.70
382.63	2914.26
382.84	2662.36
383.05	2779.09
383.26	2875.35
383.47	2629.59
383.68	2605.02
383.88	2867.16
384.09	2715.61
384.30	2955.22
384.51	2754.52
384.72	2695.13
384.93	2568.15
385.14	2666.46
385.35	2783.19
385.55	2555.86
385.76	2805.72
385.97	2605.02
386.18	2408.41
386.39	2633.69
386.60	2682.84
386.81	2645.98
387.02	2508.76
387.22	2596.82
387.43	2893.78
387.64	2781.14
387.85	2891.73
388.06	2848.72
388.27	4032.45
388.48	7425.93
388.68	11016.02
388.89	13489.97
389.10	14231.33
389.31	13698.86
389.52	10843.99
389.73	9371.50
389.93	8658.81
390.14	7819.14
390.35	7202.71
390.56	6391.71
390.77	5308.34
390.98	4126.66
391.18	3536.84
391.39	3131.34
391.60	2871.25
391.81	2748.37
392.02	2660.31
392.23	3131.34
392.43	2793.43
392.64	2791.38
392.85	2691.03
393.06	2965.46
393.27	2738.13
393.47	2609.11
393.68	2629.59
393.89	2764.76
394.10	2910.16
394.31	2621.40
394.52	2527.19
394.72	2615.26
394.93	2979.79
395.14	2512.86
395.35	2756.57
395.56	2658.26
395.76	2676.70
395.97	2654.17
396.18	2809.81
396.39	2793.43
396.60	3198.93
396.80	2934.74
397.01	2758.61
397.22	2779.09
397.43	2873.30
397.64	2605.02
397.84	2746.33
398.05	3053.52
398.26	2768.85
398.47	2695.13
398.67	2858.96
398.88	2680.79
399.09	2895.83
399.30	2588.63
399.51	2678.74
399.71	2627.54
399.92	2609.11
400.13	2652.12
400.34	2635.74
400.54	2734.04
400.75	2996.18
400.96	2652.12
401.17	2826.20
401.37	2873.30
401.58	2760.66
401.79	2639.83
402.00	2752.47
402.21	3131.34
402.41	2908.12
402.62	2899.92
402.83	3051.47
403.04	3117.01
403.24	3317.71
403.45	2793.43
403.66	2848.72
403.87	2908.12
404.07	3016.66
404.28	2893.78
404.49	2914.26
404.70	2883.54
404.90	2873.30
405.11	2707.41
405.32	2709.46
405.52	2582.49
405.73	2668.50
405.94	2562.01
406.15	2629.59
406.35	2797.53
406.56	2885.59
406.77	2695.13
406.98	2744.28
407.18	2617.30
407.39	3051.47
407.60	2576.34
407.80	2713.56
408.01	2678.74
408.22	2791.38
408.43	2602.97
408.63	2658.26
408.84	2887.64
409.05	2842.58
409.25	2508.76
409.46	2572.25
409.67	2678.74
409.88	2596.82
410.08	2734.04
410.29	2594.78
410.50	2842.58
410.70	2746.33
410.91	2547.67
411.12	2664.41
411.32	2756.57
411.53	2584.54
411.74	2691.03
411.95	2764.76
412.15	2662.36
412.36	2926.55
412.57	2742.23
412.77	2838.48
412.98	2637.78
413.19	2658.26
413.39	2678.74
413.60	2695.13
413.81	2908.12
414.01	2570.20
414.22	2617.30
414.43	2770.90
414.63	2617.30
414.84	2901.97
415.05	2686.94
415.25	2562.01
415.46	2871.25
415.67	2586.58
415.87	2680.79
416.08	2693.08
416.29	2609.11
416.49	2766.81
416.70	2627.54
416.91	2611.16
417.11	2717.65
417.32	2930.64
417.53	2723.80
417.73	2709.46
417.94	2744.28
418.15	2717.65
418.35	2637.78
418.56	2674.65
418.77	3010.51
418.97	2703.32
419.18	2703.32
419.38	2410.46
419.59	2779.09
419.80	2963.41
420.00	2633.69
420.21	2650.07
420.42	2973.65
420.62	2768.85
420.83	2586.58
421.04	2660.31
421.24	2766.81
421.45	2869.20
421.65	2609.11
421.86	2629.59
422.07	2797.53
422.27	2797.53
422.48	2611.16
422.69	2418.65
422.89	2719.70
423.10	2654.17
423.30	2525.15
423.51	2707.41
423.72	2785.24
423.92	2807.77
424.13	2525.15
424.33	2619.35
424.54	2858.96
424.75	2785.24
424.95	2850.77
425.16	2719.70
425.36	2719.70
425.57	2889.68
425.78	2734.04
425.98	2707.41
426.19	2584.54
426.39	2613.21
426.60	2772.95
426.81	2785.24
427.01	2748.37
427.22	2580.44
427.42	2422.75
427.63	2572.25
427.83	2883.54
428.04	2971.60
428.25	2801.62
428.45	2836.44
428.66	2881.49
428.86	2705.37
429.07	2658.26
429.28	2699.22
429.48	2795.48
429.69	2637.78
429.89	2699.22
430.10	2525.15
430.30	2879.44
430.51	2893.78
430.71	2578.39
430.92	2772.95
431.13	2711.51
431.33	2848.72
431.54	2709.46
431.74	2811.86
431.95	3084.24
432.15	2674.65
432.36	2629.59
432.56	2764.76
432.77	2944.98
432.98	2957.27
433.18	2736.09
433.39	2615.26
433.59	2621.40
433.80	3041.23
434.00	2832.34
434.21	2625.50
434.41	2648.02
434.62	3051.47
434.82	2469.85
435.03	2643.93
435.23	2785.24
435.44	2500.57
435.64	2611.16
435.85	2678.74
436.06	2731.99
436.26	2779.09
436.47	2633.69
436.67	2594.78
436.88	2719.70
437.08	2912.21
437.29	2822.10
437.49	2744.28
437.70	2871.25
437.90	2766.81
438.11	2867.16
438.31	2666.46
438.52	2818.00
438.72	2887.64
438.93	2932.69
439.13	2688.98
439.34	2867.16
439.54	2731.99
439.75	2709.46
439.95	2736.09
440.16	2568.15
440.36	2711.51
440.57	2727.89
440.77	2703.32
440.98	2731.99
441.18	2858.96
441.39	2549.72
441.59	2525.15
441.80	3006.42
442.00	2783.19
442.21	2748.37
442.41	2553.82
442.62	2850.77
442.82	2600.92
443.02	2676.70
443.23	2680.79
443.43	2611.16
443.64	2897.88
443.84	2512.86
444.05	2764.76
444.25	2805.72
444.46	2670.55
444.66	2613.21
444.87	2938.84
445.07	2543.58
445.28	2723.80
445.48	2838.48
445.69	2754.52
445.89	3137.49
446.09	2654.17
446.30	2949.08
446.50	3096.53
446.71	4523.96
446.91	5576.62
447.12	6455.20
447.32	6856.60
447.53	6590.36
447.73	5414.83
447.93	4863.93
448.14	4497.34
448.34	4550.59
448.55	3919.81
448.75	3928.00
448.96	3606.47
449.16	3391.44
449.36	3336.14
449.57	2912.21
449.77	2723.80
449.98	2762.71
450.18	2875.35
450.39	2662.36
450.59	2695.13
450.79	2731.99
451.00	2629.59
451.20	2799.57
451.41	2660.31
451.61	2834.39
451.81	2703.32
452.02	2648.02
452.22	2582.49
452.43	2678.74
452.63	2580.44
452.84	2684.89
453.04	2572.25
453.24	2717.65
453.45	2621.40
453.65	2670.55
453.86	2711.51
454.06	2777.05
454.26	2766.81
454.47	2527.19
454.67	2777.05
454.87	2830.29
455.08	2635.74
455.28	2842.58
455.49	2744.28
455.69	2615.26
455.89	3125.20
456.10	2756.57
456.30	2588.63
456.51	2795.48
456.71	2713.56
456.91	2703.32
457.12	2693.08
457.32	2688.98
457.52	2553.82
457.73	2834.39
457.93	2805.72
458.14	2645.98
458.34	2498.52
458.54	2670.55
458.75	2674.65
458.95	2815.96
459.15	2758.61
459.36	2736.09
459.56	2629.59
459.76	3133.39
459.97	2600.92
460.17	2643.93
460.37	2697.17
460.58	2756.57
460.78	2789.33
460.99	2705.37
461.19	2619.35
461.39	2695.13
461.60	2703.32
461.80	2738.13
462.00	2529.24
462.21	2740.18
462.41	2664.41
462.61	2523.10
462.82	2510.81
463.02	2770.90
463.22	2789.33
463.43	2711.51
463.63	2633.69
463.83	2871.25
464.04	2785.24
464.24	2639.83
464.44	2547.67
464.64	2824.15
464.85	2736.09
465.05	2680.79
465.25	2637.78
465.46	2635.74
465.66	2852.82
465.86	2738.13
466.07	2650.07
466.27	2746.33
466.47	2547.67
466.68	2482.14
466.88	2764.76
467.08	2764.76
467.29	2944.98
467.49	2615.26
467.69	2748.37
467.89	2826.20
468.10	2729.94
468.30	2746.33
468.50	2799.57
468.71	2940.88
468.91	2559.96
469.11	2891.73
469.31	2711.51
469.52	2637.78
469.72	2971.60
469.92	2887.64
470.13	2617.30
470.33	2740.18
470.53	2799.57
470.73	2994.13
470.94	3192.78
471.14	3342.28
471.34	3747.78
471.54	3624.90
471.75	3317.71
471.95	3092.43
472.15	3018.71
472.36	3145.68
472.56	3055.57
472.76	3168.21
472.96	3010.51
473.17	2901.97
473.37	2768.85
473.57	2707.41
473.77	2832.34
473.98	2736.09
474.18	2533.34
474.38	3172.30
474.58	2627.54
474.79	2547.67
474.99	2766.81
475.19	2930.64
475.39	2617.30
475.60	2766.81
475.80	2693.08
476.00	2752.47
476.20	2686.94
476.41	2602.97
476.61	2736.09
476.81	2992.08
477.01	2658.26
477.21	2930.64
477.42	2777.05
477.62	2602.97
477.82	2914.26
478.02	2623.45
478.23	2719.70
478.43	2656.22
478.63	2623.45
478.83	2662.36
479.03	2609.11
479.24	2887.64
479.44	3043.28
479.64	2488.28
479.84	2475.99
480.04	2621.40
480.25	2891.73
480.45	2680.79
480.65	2615.26
480.85	2895.83
481.06	2664.41
481.26	2721.75
481.46	2719.70
481.66	2801.62
481.86	2617.30
482.06	2840.53
482.27	2617.30
482.47	2715.61
482.67	2740.18
482.87	2609.11
483.07	2768.85
483.28	2611.16
483.48	2572.25
483.68	2627.54
483.88	2555.86
484.08	2510.81
484.29	2531.29
484.49	2678.74
484.69	2564.06
484.89	2883.54
485.09	2942.93
485.29	2764.76
485.50	2805.72
485.70	2635.74
485.90	2920.40
486.10	2715.61
486.30	2666.46
486.50	2783.19
486.71	2805.72
486.91	2756.57
487.11	2764.76
487.31	2605.02
487.51	2824.15
487.71	2541.53
487.91	2531.29
488.12	2588.63
488.32	2404.32
488.52	2656.22
488.72	2355.16
488.92	2832.34
489.12	2871.25
489.32	2828.24
489.53	2676.70
489.73	2486.23
489.93	2990.03
490.13	2555.86
490.33	2504.67
490.53	2877.40
490.73	2953.17
490.94	2461.66
491.14	2775.00
491.34	2811.86
491.54	2936.79
491.74	3504.07
491.94	4020.16
492.14	4327.36
492.34	4339.65
492.54	4104.13
492.75	3573.71
492.95	3635.14
493.15	3303.37
493.35	3260.37
493.55	3205.07
493.75	3080.14
493.95	3182.54
494.15	2914.26
494.35	2750.42
494.56	2826.20
494.76	2551.77
494.96	2736.09
495.16	2695.13
495.36	2854.87
495.56	2676.70
495.76	2701.27
495.96	2650.07
496.16	2590.68
496.36	3071.95
496.56	2688.98
496.77	2785.24
496.97	2750.42
497.17	2963.41
497.37	2510.81
497.57	2729.94
497.77	2727.89
497.97	2578.39
498.17	2678.74
498.37	2629.59
498.57	2877.40
498.77	2729.94
498.97	2740.18
499.17	2963.41
499.38	2684.89
499.58	2777.05
499.78	2815.96
499.98	2844.63
500.18	2654.17
500.38	2660.31
500.58	2867.16
500.78	3160.02
500.98	5377.97
501.18	7223.19
501.38	8673.15
501.58	9518.96
501.78	9232.24
501.98	7765.90
502.18	6305.70
502.38	5722.02
502.58	5404.59
502.78	4771.77
502.98	4710.33
503.18	4511.68
503.38	4036.55
503.59	3596.23
503.79	3442.64
503.99	3276.75
504.19	3172.30
504.39	3129.30
504.59	3102.67
504.79	3071.95
504.99	3227.60
505.19	2936.79
505.39	2793.43
505.59	2914.26
505.79	3016.66
505.99	3000.27
506.19	2650.07
506.39	2858.96
506.59	2682.84
506.79	2756.57
506.99	2795.48
507.19	2699.22
507.39	2801.62
507.59	2670.55
507.79	2537.43
507.99	2619.35
508.19	2707.41
508.39	2678.74
508.59	2592.73
508.79	2801.62
508.99	2944.98
509.19	2707.41
509.39	2719.70
509.59	2551.77
509.79	2627.54
509.99	2834.39
510.19	2723.80
510.39	2711.51
510.59	2770.90
510.79	2648.02
510.99	2547.67
511.19	2645.98
511.39	2953.17
511.59	2863.06
511.79	2752.47
511.99	2605.02
512.19	3022.80
512.38	2713.56
512.58	2621.40
512.78	2639.83
512.98	2918.36
513.18	2965.46
513.38	2422.75
513.58	2707.41
513.78	2641.88
513.98	2731.99
514.18	2682.84
514.38	2609.11
514.58	2707.41
514.78	2613.21
514.98	2570.20
515.18	2713.56
515.38	2555.86
515.58	2996.18
515.78	2656.22
515.98	2654.17
516.18	2820.05
516.38	2676.70
516.57	2574.30
516.77	2643.93
516.97	2734.04
517.17	2639.83
517.37	2498.52
517.57	2756.57
517.77	2660.31
517.97	2668.50
518.17	2752.47
518.37	2582.49
518.57	2631.64
518.77	2658.26
518.97	2666.46
519.16	2719.70
519.36	2904.02
519.56	2656.22
519.76	2676.70
519.96	2752.47
520.16	2957.27
520.36	2557.91
520.56	2785.24
520.76	2605.02
520.96	2670.55
521.16	2998.23
521.35	2883.54
521.55	2785.24
521.75	2758.61
521.95	2582.49
522.15	2615.26
522.35	2545.63
522.55	2609.11
522.75	2836.44
522.95	2572.25
523.14	2525.15
523.34	2777.05
523.54	2617.30
523.74	2783.19
523.94	2672.60
524.14	2475.99
524.34	2838.48
524.54	2740.18
524.73	2637.78
524.93	2777.05
525.13	2748.37
525.33	2531.29
525.53	2887.64
525.73	2785.24
525.93	2691.03
526.13	2678.74
526.32	2566.10
526.52	2854.87
526.72	2822.10
526.92	2629.59
527.12	2600.92
527.32	2549.72
527.52	2783.19
527.71	2676.70
527.91	2701.27
528.11	2662.36
528.31	2758.61
528.51	2539.48
528.71	2746.33
528.90	2785.24
529.10	2947.03
529.30	2828.24
529.50	2449.37
529.70	2818.00
529.90	2785.24
530.09	2641.88
530.29	2582.49
530.49	2584.54
530.69	3196.88
530.89	2772.95
531.09	2727.89
531.28	2688.98
531.48	2842.58
531.68	2711.51
531.88	2678.74
532.08	2723.80
532.28	2705.37
532.47	2697.17
532.67	2783.19
532.87	2818.00
533.07	2643.93
533.27	2750.42
533.46	2783.19
533.66	2828.24
533.86	2709.46
534.06	2639.83
534.26	2764.76
534.45	2664.41
534.65	2871.25
534.85	2672.60
535.05	2588.63
535.25	2805.72
535.44	2445.27
535.64	2748.37
535.84	2672.60
536.04	2686.94
536.24	2596.82
536.43	2670.55
536.63	2596.82
536.83	2682.84
537.03	2666.46
537.22	2564.06
537.42	2455.51
537.62	2688.98
537.82	2652.12
538.02	2848.72
538.21	2789.33
538.41	3200.98
538.61	2852.82
538.81	2676.70
539.00	2842.58
539.20	2529.24
539.40	2668.50
539.60	2650.07
539.79	2840.53
539.99	2654.17
540.19	2621.40
540.39	2564.06
540.58	2697.17
540.78	2873.30
540.98	2787.29
541.18	2764.76
541.37	2781.14
541.57	2781.14
541.77	2734.04
541.97	2545.63
542.16	2465.75
542.36	2600.92
542.56	2658.26
542.76	2842.58
542.95	2736.09
543.15	2754.52
543.35	2854.87
543.54	2562.01
543.74	2545.63
543.94	2942.93
544.14	2691.03
544.33	2734.04
544.53	2750.42
544.73	2666.46
544.93	2637.78
545.12	2580.44
545.32	2654.17
545.52	2652.12
545.71	2553.82
545.91	2549.72
546.11	2635.74
546.30	2680.79
546.50	2707.41
546.70	2744.28
546.90	2625.50
547.09	2467.80
547.29	2693.08
547.49	2752.47
547.68	2650.07
547.88	2602.97
548.08	2793.43
548.27	3051.47
548.47	2609.11
548.67	2658.26
548.87	2797.53
549.06	2635.74
549.26	2693.08
549.46	2791.38
549.65	2678.74
549.85	2695.13
550.05	2695.13
550.24	2641.88
550.44	2766.81
550.64	2695.13
550.83	2740.18
551.03	2973.65
551.23	2846.68
551.42	2738.13
551.62	2684.89
551.82	2699.22
552.01	2750.42
552.21	2869.20
552.41	2695.13
552.60	2916.31
552.80	2701.27
553.00	2629.59
553.19	2740.18
553.39	2953.17
553.59	2494.43
553.78	2734.04
553.98	2664.41
554.17	2549.72
554.37	2783.19
554.57	2803.67
554.76	2492.38
554.96	2697.17
555.16	2713.56
555.35	2711.51
555.55	2703.32
555.75	2785.24
555.94	2754.52
556.14	2432.99
556.33	2643.93
556.53	2629.59
556.73	2684.89
556.92	2625.50
557.12	2701.27
557.32	3059.67
557.51	2838.48
557.71	2715.61
557.90	2887.64
558.10	2963.41
558.30	2682.84
558.49	2656.22
558.69	2668.50
558.88	2740.18
559.08	2723.80
559.28	2688.98
559.47	2650.07
559.67	2783.19
559.86	3039.19
560.06	2695.13
560.26	2670.55
560.45	2863.06
560.65	2682.84
560.84	2877.40
561.04	2529.24
561.24	2807.77
561.43	2564.06
561.63	2865.11
561.82	2678.74
562.02	2652.12
562.22	2533.34
562.41	2523.10
562.61	2641.88
562.80	2602.97
563.00	3123.15
563.19	2783.19
563.39	2701.27
563.59	2752.47
563.78	2566.10
563.98	2396.12
564.17	2592.73
564.37	2453.47
564.56	2768.85
564.76	2553.82
564.96	2760.66
565.15	2717.65
565.35	2987.99
565.54	2627.54
565.74	2697.17
565.93	2818.00
566.13	2701.27
566.32	2715.61
566.52	2688.98
566.71	2664.41
566.91	2885.59
567.11	2760.66
567.30	2605.02
567.50	2854.87
567.69	2750.42
567.89	2674.65
568.08	2621.40
568.28	2787.29
568.47	2648.02
568.67	2703.32
568.86	2592.73
569.06	2822.10
569.25	2607.06
569.45	2516.95
569.64	2635.74
569.84	2742.23
570.04	2856.92
570.23	2576.34
570.43	2719.70
570.62	2682.84
570.82	2944.98
571.01	2492.38
571.21	2625.50
571.40	2543.58
571.60	2895.83
571.79	2643.93
571.99	2682.84
572.18	2625.50
572.38	2842.58
572.57	2645.98
572.77	2721.75
572.96	3223.50
573.16	2668.50
573.35	2643.93
573.55	2770.90
573.74	2883.54
573.94	2633.69
574.13	2621.40
574.33	2756.57
574.52	2822.10
574.71	2803.67
574.91	2688.98
575.10	2551.77
575.30	2670.55
575.49	2643.93
575.69	2578.39
575.88	2660.31
576.08	2727.89
576.27	2918.36
576.47	2582.49
576.66	2856.92
576.86	2938.84
577.05	2711.51
577.25	2684.89
577.44	2871.25
577.64	2723.80
577.83	2842.58
578.02	2662.36
578.22	2832.34
578.41	3071.95
578.61	2615.26
578.80	2510.81
579.00	2605.02
579.19	2760.66
579.39	2854.87
579.58	2768.85
579.77	2623.45
579.97	2908.12
580.16	2832.34
580.36	2725.85
580.55	2748.37
580.75	2852.82
580.94	2766.81
581.13	2750.42
581.33	2908.12
581.52	2729.94
581.72	3020.75
581.91	2850.77
582.11	2713.56
582.30	2904.02
582.49	2803.67
582.69	2957.27
582.88	2750.42
583.08	2822.10
583.27	3010.51
583.47	2684.89
583.66	2572.25
583.85	2578.39
584.05	2672.60
584.24	2818.00
584.44	2693.08
584.63	2869.20
584.82	2992.08
585.02	2930.64
585.21	2826.20
585.41	2934.74
585.60	2801.62
585.79	3026.90
585.99	3016.66
586.18	2836.44
586.37	3522.51
586.57	5466.03
586.76	15902.48
586.96	34620.91
587.15	48049.44
587.34	56810.65
587.54	61127.77
587.73	54389.95
587.93	38436.28
588.12	29378.11
588.31	23641.75
588.51	20911.81
588.70	19242.71
588.89	17030.91
589.09	14571.30
589.28	12492.61
589.47	9953.13
589.67	7769.99
589.86	5830.57
590.06	4513.72
590.25	3932.10
590.44	3416.01
590.64	3143.63
590.83	3020.75
591.02	3014.61
591.22	2742.23
591.41	2863.06
591.60	2695.13
591.80	3096.53
591.99	2570.20
592.18	2678.74
592.38	3020.75
592.57	2676.70
592.76	2688.98
592.96	2731.99
593.15	2750.42
593.34	2942.93
593.54	2637.78
593.73	2719.70
593.92	2809.81
594.12	2803.67
594.31	2791.38
594.50	2844.63
594.70	2930.64
594.89	3104.72
595.08	2523.10
595.28	2770.90
595.47	3205.07
595.66	2852.82
595.86	2588.63
596.05	2594.78
596.24	2666.46
596.43	3022.80
596.63	2852.82
596.82	2748.37
597.01	2877.40
597.21	2994.13
597.40	2629.59
597.59	2729.94
597.79	2672.60
597.98	2844.63
598.17	2742.23
598.36	2650.07
598.56	2871.25
598.75	2744.28
598.94	2695.13
599.14	2846.68
599.33	2717.65
599.52	2869.20
599.71	2695.13
599.91	2703.32
600.10	2793.43
600.29	2707.41
600.48	2811.86
600.68	2725.85
600.87	2766.81
601.06	2623.45
601.26	2731.99
601.45	2709.46
601.64	2738.13
601.83	2895.83
602.03	2617.30
602.22	2572.25
602.41	2938.84
602.60	3127.25
602.80	2760.66
602.99	2850.77
603.18	2676.70
603.37	2768.85
603.57	2660.31
603.76	2654.17
603.95	2938.84
604.14	2666.46
604.34	2557.91
604.53	2625.50
604.72	2758.61
604.91	2832.34
605.10	2629.59
605.30	2490.33
605.49	3022.80
605.68	2863.06
605.87	2721.75
606.07	2621.40
606.26	2764.76
606.45	2785.24
606.64	2752.47
606.84	2598.87
607.03	2697.17
607.22	2803.67
607.41	2707.41
607.60	2650.07
607.80	2924.50
607.99	2791.38
608.18	2678.74
608.37	2686.94
608.56	2715.61
608.76	2772.95
608.95	2840.53
609.14	2731.99
609.33	2932.69
609.52	2854.87
609.72	2809.81
609.91	2811.86
610.10	2715.61
610.29	2885.59
610.48	2838.48
610.68	2811.86
610.87	2662.36
611.06	2805.72
611.25	2592.73
611.44	2822.10
611.63	2682.84
611.83	2899.92
612.02	2506.71
612.21	2803.67
612.40	2555.86
612.59	2549.72
612.79	2600.92
612.98	2699.22
613.17	2871.25
613.36	2715.61
613.55	2867.16
613.74	2670.55
613.93	2803.67
614.13	2789.33
614.32	2834.39
614.51	2807.77
614.70	2777.05
614.89	2744.28
615.08	2672.60
615.28	3123.15
615.47	2621.40
615.66	2783.19
615.85	2686.94
616.04	2822.10
616.23	2760.66
616.42	2805.72
616.62	2719.70
616.81	2789.33
617.00	2643.93
617.19	2846.68
617.38	2672.60
617.57	2596.82
617.76	2850.77
617.95	2809.81
618.15	2742.23
618.34	2895.83
618.53	2545.63
618.72	2932.69
618.91	2766.81
619.10	2731.99
619.29	2709.46
619.48	2799.57
619.68	2543.58
619.87	2613.21
620.06	2555.86
620.25	2844.63
620.44	2664.41
620.63	2639.83
620.82	2750.42
621.01	2756.57
621.20	2658.26
621.39	2750.42
621.59	2807.77
621.78	2731.99
621.97	2744.28
622.16	2766.81
622.35	2799.57
622.54	2787.29
622.73	2752.47
622.92	2451.42
623.11	2875.35
623.30	2729.94
623.49	2775.00
623.68	2547.67
623.88	2858.96
624.07	2707.41
624.26	2650.07
624.45	2629.59
624.64	2621.40
624.83	2791.38
625.02	2600.92
625.21	2713.56
625.40	2633.69
625.59	2947.03
625.78	2717.65
625.97	2783.19
626.16	2922.45
626.35	2910.16
626.54	2709.46
626.74	2940.88
626.93	2723.80
627.12	2715.61
627.31	2693.08
627.50	2680.79
627.69	2856.92
627.88	2600.92
628.07	2578.39
628.26	2498.52
628.45	2682.84
628.64	2613.21
628.83	2662.36
629.02	2533.34
629.21	2766.81
629.40	2789.33
629.59	2512.86
629.78	2586.58
629.97	2676.70
630.16	2781.14
630.35	2666.46
630.54	2688.98
630.73	2613.21
630.92	2699.22
631.11	2568.15
631.30	2650.07
631.49	2793.43
631.68	2670.55
631.87	2752.47
632.06	2553.82
632.25	2981.84
632.44	2691.03
632.63	2752.47
632.82	2666.46
633.01	2686.94
633.20	2805.72
633.39	2650.07
633.58	2504.67
633.77	2824.15
633.96	2801.62
634.15	2797.53
634.34	2818.00
634.53	2813.91
634.72	2629.59
634.91	2492.38
635.10	2738.13
635.29	2877.40
635.48	2736.09
635.67	2572.25
635.86	2510.81
636.05	2994.13
636.24	2766.81
636.43	2695.13
636.62	2762.71
636.81	2392.03
637.00	2777.05
637.19	2621.40
637.38	2693.08
637.57	2676.70
637.76	2805.72
637.95	2772.95
638.14	2617.30
638.33	2795.48
638.52	2785.24
638.71	2545.63
638.89	2588.63
639.08	3082.19
639.27	2856.92
639.46	2869.20
639.65	3196.88
639.84	3198.93
640.03	3299.28
640.22	3071.95
640.41	3131.34
640.60	2904.02
640.79	2885.59
640.98	2738.13
641.17	2908.12
641.36	2916.31
641.55	2815.96
641.74	2600.92
641.92	2543.58
642.11	2568.15
642.30	2736.09
642.49	2564.06
642.68	2670.55
642.87	2803.67
643.06	2775.00
643.25	2541.53
643.44	2523.10
643.63	2738.13
643.82	2828.24
644.00	2529.24
644.19	2652.12
644.38	2564.06
644.57	2838.48
644.76	2693.08
644.95	2770.90
645.14	2717.65
645.33	2656.22
645.52	2682.84
645.71	2541.53
645.89	2508.76
646.08	2723.80
646.27	2641.88
646.46	2940.88
646.65	2490.33
646.84	2680.79
647.03	2535.39
647.22	2818.00
647.40	2717.65
647.59	2697.17
647.78	2496.47
647.97	2615.26
648.16	2602.97
648.35	2899.92
648.54	2838.48
648.73	2658.26
648.91	2940.88
649.10	2842.58
649.29	2576.34
649.48	2615.26
649.67	2811.86
649.86	2715.61
650.05	2678.74
650.23	2897.88
650.42	2588.63
650.61	2977.75
650.80	2848.72
650.99	3022.80
651.18	2844.63
651.36	2901.97
651.55	2600.92
651.74	2863.06
651.93	2705.37
652.12	2756.57
652.31	2672.60
652.49	2691.03
652.68	2676.70
652.87	2875.35
653.06	2682.84
653.25	2904.02
653.44	2793.43
653.62	2920.40
653.81	2586.58
654.00	2748.37
654.19	2842.58
654.38	3092.43
654.56	2727.89
654.75	2627.54
654.94	2906.07
655.13	2836.44
655.32	2590.68
655.51	2709.46
655.69	2635.74
655.88	2748.37
656.07	2512.86
656.26	2621.40
656.45	2514.91
656.63	2783.19
656.82	2656.22
657.01	2783.19
657.20	2576.34
657.38	2967.51
657.57	2586.58
657.76	2486.23
657.95	2904.02
658.14	2643.93
658.32	2711.51
658.51	2557.91
658.70	2731.99
658.89	2869.20
659.08	2641.88
659.26	2873.30
659.45	2605.02
659.64	2727.89
659.83	2664.41
660.01	3028.95
660.20	2822.10
660.39	2953.17
660.58	2416.60
660.76	2629.59
660.95	2514.91
661.14	2758.61
661.33	2531.29
661.51	2633.69
661.70	2629.59
661.89	2813.91
662.08	2643.93
662.26	2498.52
662.45	2580.44
662.64	2994.13
662.83	2725.85
663.01	2475.99
663.20	2631.64
663.39	2881.49
663.58	2615.26
663.76	2631.64
663.95	2805.72
664.14	2654.17
664.32	2629.59
664.51	2580.44
664.70	2490.33
664.89	2805.72
665.07	2516.95
665.26	2764.76
665.45	2562.01
665.64	2867.16
665.82	2707.41
666.01	2781.14
666.20	2600.92
666.38	2832.34
666.57	2863.06
666.76	4362.17
666.95	9889.64
667.13	16865.02
667.32	20661.96
667.51	24014.48
667.69	25142.91
667.88	21446.33
668.07	15204.12
668.25	12969.79
668.44	11020.12
668.63	9334.64
668.81	8511.36
669.00	7231.38
669.19	6571.93
669.38	5779.37
669.56	5029.81
669.75	4227.01
669.94	3835.85
670.12	3243.98
670.31	2942.93
670.50	3010.51
670.68	2973.65
670.87	2846.68
671.06	2670.55
671.24	2764.76
671.43	2938.84
671.62	2801.62
671.80	2633.69
671.99	2674.65
672.18	2684.89
672.36	2809.81
672.55	2707.41
672.74	2701.27
672.92	2643.93
673.11	2803.67
673.29	2490.33
673.48	2772.95
673.67	2594.78
673.85	2897.88
674.04	2633.69
674.23	2697.17
674.41	3037.14
674.60	2652.12
674.79	2484.19
674.97	2500.57
675.16	2781.14
675.34	2805.72
675.53	2605.02
675.72	2731.99
675.90	2990.03
676.09	2621.40
676.28	2582.49
676.46	2576.34
676.65	2842.58
676.83	2596.82
677.02	2656.22
677.21	2658.26
677.39	2805.72
677.58	2629.59
677.77	2650.07
677.95	2549.72
678.14	2738.13
678.32	2637.78
678.51	2541.53
678.70	2994.13
678.88	2662.36
679.07	2725.85
679.25	2650.07
679.44	2668.50
679.63	2643.93
679.81	2746.33
680.00	2869.20
680.18	2744.28
680.37	2887.64
680.55	2766.81
680.74	2449.37
680.93	2432.99
681.11	2822.10
681.30	2691.03
681.48	2645.98
681.67	2629.59
681.85	2809.81
682.04	2643.93
682.23	2840.53
682.41	2695.13
682.60	2721.75
682.78	2701.27
682.97	2465.75
683.15	2678.74
683.34	2750.42
683.53	2942.93
683.71	2510.81
683.90	2803.67
684.08	2994.13
684.27	2648.02
684.45	2715.61
684.64	2840.53
684.82	2740.18
685.01	2785.24
685.19	2641.88
685.38	2877.40
685.57	2656.22
685.75	2621.40
685.94	2609.11
686.12	2570.20
686.31	2609.11
686.49	2961.36
686.68	2512.86
686.86	2664.41
687.05	2625.50
687.23	2881.49
687.42	2586.58
687.60	2498.52
687.79	2863.06
687.97	3014.61
688.16	2744.28
688.34	2818.00
688.53	2512.86
688.71	2734.04
688.90	2877.40
689.08	2770.90
689.27	2531.29
689.45	2840.53
689.64	2805.72
689.82	2719.70
690.01	2748.37
690.19	2766.81
690.38	2656.22
690.56	2805.72
690.75	2629.59
690.93	2627.54
691.12	2615.26
691.30	2752.47
691.49	2666.46
691.67	2707.41
691.86	2920.40
692.04	2594.78
692.23	2699.22
692.41	2711.51
692.60	3010.51
692.78	2875.35
692.97	2791.38
693.15	2805.72
693.34	2867.16
693.52	2791.38
693.71	2695.13
693.89	2656.22
694.08	2408.41
694.26	2717.65
694.44	2865.11
694.63	2820.05
694.81	2582.49
695.00	2639.83
695.18	2908.12
695.37	3090.38
695.55	2727.89
695.74	2643.93
695.92	2555.86
696.10	2916.31
696.29	2496.47
696.47	2553.82
696.66	2613.21
696.84	2557.91
697.03	2668.50
697.21	2932.69
697.40	4077.51
697.58	2850.77
697.76	2641.88
697.95	2568.15
698.13	2512.86
698.32	2625.50
698.50	2676.70
698.68	2719.70
698.87	2748.37
699.05	2887.64
699.24	2621.40
699.42	2584.54
699.61	2752.47
699.79	2731.99
699.97	2723.80
700.16	2516.95
700.34	2516.95
700.53	2688.98
700.71	2830.29
700.89	2783.19
701.08	2734.04
701.26	2680.79
701.45	3127.25
701.63	2654.17
701.81	2643.93
702.00	2564.06
702.18	2660.31
702.37	2533.34
702.55	2901.97
702.73	2838.48
702.92	2695.13
703.10	2998.23
703.28	2875.35
703.47	2670.55
703.65	2818.00
703.84	2818.00
704.02	2609.11
704.20	2926.55
704.39	2594.78
704.57	2668.50
704.75	2879.44
704.94	2744.28
705.12	2695.13
705.30	3035.09
705.49	5892.01
705.67	11790.16
705.86	17542.90
706.04	20133.58
706.22	22382.25
706.41	22210.22
706.59	17694.45
706.77	13281.08
706.96	11458.39
707.14	10385.25
707.32	9011.06
707.51	7858.06
707.69	6473.63
707.87	5365.68
708.06	4460.48
708.24	3833.80
708.42	3303.37
708.61	3461.07
708.79	2758.61
708.97	2699.22
709.16	2838.48
709.34	2750.42
709.52	2629.59
709.71	2719.70
709.89	2830.29
710.07	2627.54
710.26	2533.34
710.44	2703.32
710.62	2826.20
710.80	2725.85
710.99	2785.24
711.17	2693.08
711.35	2553.82
711.54	2639.83
711.72	2838.48
711.90	2723.80
712.09	2668.50
712.27	2662.36
712.45	2684.89
712.63	2633.69
712.82	2748.37
713.00	2764.76
713.18	2797.53
713.37	2832.34
713.55	2867.16
713.73	2820.05
713.91	2731.99
714.10	2619.35
714.28	2754.52
714.46	2795.48
714.65	2746.33
714.83	2695.13
715.01	2754.52
715.19	2703.32
715.38	2570.20
715.56	2822.10
715.74	2598.87
715.92	2523.10
716.11	2832.34
716.29	2449.37
716.47	2742.23
716.65	2623.45
716.84	2553.82
717.02	2781.14
717.20	2545.63
717.38	2643.93
717.57	2764.76
717.75	2598.87
717.93	2619.35
718.11	2863.06
718.30	2527.19
718.48	2627.54
718.66	2922.45
718.84	2895.83
719.03	2629.59
719.21	2533.34
719.39	2932.69
719.57	2805.72
719.75	2826.20
719.94	2613.21
720.12	2725.85
720.30	2705.37
720.48	2793.43
720.67	2570.20
720.85	2590.68
721.03	2658.26
721.21	2580.44
721.39	2807.77
721.58	2766.81
721.76	2791.38
721.94	2654.17
722.12	2762.71
722.30	2944.98
722.49	2719.70
722.67	2660.31
722.85	2711.51
723.03	2527.19
723.21	2631.64
723.40	2662.36
723.58	2772.95
723.76	2826.20
723.94	2863.06
724.12	2830.29
724.30	2889.68
724.49	2867.16
724.67	2641.88
724.85	2811.86
725.03	2541.53
725.21	2775.00
725.40	2873.30
725.58	2623.45
725.76	2789.33
725.94	2838.48
726.12	2594.78
726.30	2627.54
726.49	2635.74
726.67	2643.93
726.85	2789.33
727.03	3014.61
727.21	4112.32
727.39	5201.84
727.57	5568.43
727.76	6049.70
727.94	6215.59
728.12	5601.19
728.30	4597.69
728.48	4343.74
728.66	3919.81
728.84	3706.82
729.03	3393.48
729.21	3194.83
729.39	2971.60
729.57	2799.57
729.75	2830.29
729.93	2838.48
730.11	2619.35
730.30	2650.07
730.48	2699.22
730.66	2785.24
730.84	2752.47
731.02	2709.46
731.20	2645.98
731.38	2645.98
731.56	2586.58
731.74	2533.34
731.93	2760.66
732.11	2701.27
732.29	2670.55
732.47	2811.86
732.65	2785.24
732.83	2873.30
733.01	2756.57
733.19	2652.12
733.37	2807.77
733.56	2660.31
733.74	2625.50
733.92	2936.79
734.10	2639.83
734.28	2777.05
734.46	2516.95
734.64	2703.32
734.82	2625.50
735.00	2588.63
735.18	2637.78
735.36	2688.98
735.54	2705.37
735.73	2641.88
735.91	2707.41
736.09	2893.78
736.27	2742.23
736.45	2758.61
736.63	2510.81
736.81	2734.04
736.99	2904.02
737.17	2838.48
737.35	2549.72
737.53	2688.98
737.71	2686.94
737.89	2885.59
738.07	2617.30
738.25	2666.46
738.43	2529.24
738.61	2684.89
738.80	2461.66
738.98	2582.49
739.16	2607.06
739.34	2584.54
739.52	2990.03
739.70	2543.58
739.88	2865.11
740.06	2772.95
740.24	2351.07
740.42	2830.29
740.60	2613.21
740.78	2555.86
740.96	2451.42
741.14	2652.12
741.32	2738.13
741.50	2541.53
741.68	2824.15
741.86	2854.87
742.04	2551.77
742.22	2535.39
742.40	2617.30
742.58	2844.63
742.76	2537.43
742.94	2834.39
743.12	2490.33
743.30	2740.18
743.48	2744.28
743.66	2596.82
743.84	2750.42
744.02	2631.64
744.20	2766.81
744.38	2545.63
744.56	2596.82
744.74	2914.26
744.92	2756.57
745.10	2930.64
745.28	2688.98
745.46	2924.50
745.64	2686.94
745.82	2748.37
746.00	2635.74
746.18	2719.70
746.36	2566.10
746.54	2756.57
746.72	2650.07
746.90	2529.24
747.08	2953.17
747.26	2633.69
747.44	2783.19
747.62	2813.91
747.80	2756.57
747.98	2752.47
748.15	2676.70
748.33	3012.56
748.51	2731.99
748.69	2824.15
748.87	2566.10
749.05	2643.93
749.23	2613.21
749.41	2637.78
749.59	2639.83
749.77	2932.69
749.95	2664.41
750.13	2652.12
750.31	2736.09
750.49	2787.29
750.67	2766.81
750.85	2824.15
751.03	2682.84
751.20	3026.90
751.38	2717.65
751.56	2660.31
751.74	2666.46
751.92	2621.40
752.10	2555.86
752.28	2822.10
752.46	2680.79
752.64	2713.56
752.82	2740.18
753.00	2590.68
753.18	2678.74
753.35	2613.21
753.53	2750.42
753.71	2625.50
753.89	2752.47
754.07	2719.70
754.25	2879.44
754.43	2748.37
754.61	2572.25
754.79	2740.18
754.97	2619.35
755.14	2844.63
755.32	2531.29
755.50	2742.23
755.68	2801.62
755.86	2588.63
756.04	2596.82
756.22	2465.75
756.40	2781.14
756.57	2875.35
756.75	2656.22
756.93	2863.06
757.11	2848.72
757.29	2523.10
757.47	2539.48
757.65	2557.91
757.82	2367.45
758.00	2551.77
758.18	2584.54
758.36	2551.77
758.54	2994.13
758.72	2521.05
758.90	2801.62
759.07	2772.95
759.25	2625.50
759.43	2785.24
759.61	2519.00
759.79	3903.43
759.97	2871.25
760.15	2668.50
760.32	2627.54
760.50	2772.95
760.68	2963.41
760.86	2498.52
761.04	2889.68
761.22	2815.96
761.39	2701.27
761.57	2707.41
761.75	2654.17
761.93	2807.77
762.11	2688.98
762.28	2695.13
762.46	2531.29
762.64	2867.16
762.82	2441.18
763.00	2711.51
763.18	2818.00
763.35	2459.61
763.53	2781.14
763.71	2725.85
763.89	2609.11
764.07	2713.56
764.24	2764.76
764.42	2791.38
764.60	2607.06
764.78	2801.62
764.96	2881.49
765.13	2815.96
765.31	2588.63
765.49	2832.34
765.67	2613.21
765.84	2576.34
766.02	2510.81
766.20	2529.24
766.38	2721.75
766.56	2676.70
766.73	2721.75
766.91	2643.93
767.09	2744.28
767.27	2734.04
767.44	2547.67
767.62	2783.19
767.80	2684.89
767.98	2598.87
768.15	2641.88
768.33	2830.29
768.51	2713.56
768.69	2709.46
768.87	2650.07
769.04	2795.48
769.22	3080.14
769.40	2904.02
769.58	2883.54
769.75	2766.81
769.93	2881.49
770.11	2621.40
770.28	2631.64
770.46	2910.16
770.64	2674.65
770.82	2672.60
770.99	2572.25
771.17	2738.13
771.35	2637.78
771.53	2686.94
771.70	2623.45
771.88	2731.99
772.06	2676.70
772.23	2627.54
772.41	2641.88
772.59	2688.98
772.77	2605.02
772.94	2660.31
773.12	2717.65
773.30	2635.74
773.47	2707.41
773.65	2582.49
773.83	2754.52
774.01	2656.22
774.18	2371.55
774.36	2686.94
774.54	2508.76
774.71	2736.09
774.89	2469.85
775.07	2562.01
775.24	2676.70
775.42	2635.74
775.60	3000.27
775.78	2564.06
775.95	2562.01
776.13	2510.81
776.31	2559.96
776.48	2793.43
776.66	2863.06
776.84	2762.71
777.01	2645.98
777.19	2555.86
777.37	2631.64
777.54	2822.10
777.72	3067.86
777.90	2754.52
778.07	2467.80
778.25	3221.45
778.43	2863.06
778.60	2557.91
778.78	2760.66
778.96	2869.20
779.13	2545.63
779.31	2684.89
779.49	2711.51
779.66	2686.94
779.84	2682.84
780.01	2541.53
780.19	2459.61
780.37	2889.68
780.54	2834.39
780.72	2596.82
780.90	2641.88
781.07	2658.26
781.25	2607.06
781.43	2779.09
781.60	2600.92
781.78	2861.01
781.95	2772.95
782.13	2541.53
782.31	2701.27
782.48	2432.99
782.66	2705.37
782.83	2871.25
783.01	2719.70
783.19	2832.34
783.36	2641.88
783.54	2551.77
783.72	2703.32
783.89	2709.46
784.07	2705.37
784.24	2725.85
784.42	2805.72
784.60	2729.94
784.77	2770.90
784.95	2459.61
785.12	2629.59
785.30	2670.55
785.47	2596.82
785.65	2594.78
785.83	2656.22
786.00	2611.16
786.18	2703.32
786.35	2506.71
786.53	2541.53
786.71	2895.83
786.88	2746.33
787.06	2719.70
787.23	2664.41
787.41	2605.02
787.58	2713.56
787.76	2627.54
787.94	2656.22
788.11	2807.77
788.29	2584.54
788.46	2637.78
788.64	2523.10
788.81	2576.34
788.99	2584.54
789.16	2547.67
789.34	2639.83
789.52	2701.27
789.69	2688.98
789.87	2523.10
790.04	2592.73
790.22	2711.51
790.39	2947.03
790.57	2650.07
790.74	2584.54
790.92	2826.20
791.09	2498.52
791.27	2777.05
791.44	2789.33
791.62	2664.41
791.79	2887.64
791.97	2695.13
792.15	2906.07
792.32	2883.54
792.50	2832.34
792.67	2869.20
792.85	2875.35
793.02	2740.18
793.20	2668.50
793.37	2562.01
793.55	2621.40
793.72	2623.45
793.90	2842.58
794.07	2580.44
794.25	2588.63
794.42	2740.18
794.60	2666.46
794.77	2699.22
794.95	2787.29
795.12	2801.62
795.30	2721.75
795.47	2494.43
795.65	2990.03
795.82	2742.23
796.00	2629.59
796.17	2662.36
796.34	2598.87
796.52	2805.72
796.69	2826.20
796.87	2680.79
797.04	2772.95
797.22	2818.00
797.39	2750.42
797.57	2775.00
797.74	2693.08
797.92	2861.01
798.09	2650.07
798.27	2838.48
798.44	2629.59
798.62	2600.92
798.79	2783.19
798.96	2701.27
799.14	2662.36
799.31	3084.24
799.49	2668.50
799.66	2605.02
799.84	2736.09
800.01	2490.33
800.19	2838.48
800.36	2475.99
800.53	2625.50
800.71	2824.15
800.88	2922.45
801.06	2701.27
801.23	2627.54
801.41	2658.26
801.58	2623.45
801.75	2555.86
801.93	2680.79
802.10	2858.96
802.28	2754.52
802.45	2652.12
802.63	2715.61
802.80	2840.53
802.97	2672.60
803.15	2662.36
803.32	2596.82
803.50	2641.88
803.67	2574.30
803.84	2559.96
804.02	2670.55
804.19	2648.02
804.37	2439.13
804.54	2480.09
804.71	2627.54
804.89	2570.20
805.06	2525.15
805.24	2496.47
805.41	2564.06
805.58	2643.93
805.76	3043.28
805.93	2660.31
806.10	2752.47
806.28	2828.24
806.45	2809.81
806.63	2772.95
806.80	2777.05
806.97	2711.51
807.15	2744.28
807.32	2748.37
807.49	2738.13
807.67	2514.91
807.84	2770.90
808.01	2519.00
808.19	2850.77
808.36	3125.20
808.54	2609.11
808.71	2570.20
808.88	2629.59
809.06	2848.72
809.23	2944.98
809.40	2584.54
809.58	2662.36
809.75	2643.93
809.92	2586.58
810.10	2912.21
810.27	2658.26
810.44	2695.13
810.62	2912.21
810.79	2652.12
810.96	2652.12
811.14	2662.36
811.31	2721.75
811.48	2740.18
811.66	2613.21
811.83	2936.79
812.00	2856.92
812.18	2705.37
812.35	2955.22
812.52	2633.69
812.69	2660.31
812.87	2564.06
813.04	2674.65
813.21	2656.22
813.39	2621.40
813.56	2549.72
813.73	2826.20
813.91	2447.32
814.08	2760.66
814.25	2727.89
814.42	2461.66
814.60	2721.75
814.77	2746.33
814.94	2559.96
815.12	2723.80
815.29	2955.22
815.46	2586.58
815.63	2625.50
815.81	2656.22
815.98	2617.30
816.15	2697.17
816.33	2637.78
816.50	2627.54
816.67	2713.56
816.84	2721.75
817.02	2539.48
817.19	2629.59
817.36	2639.83
817.53	2736.09
817.71	2570.20
817.88	2748.37
818.05	2725.85
818.22	2660.31
818.40	2869.20
818.57	2658.26
818.74	2750.42
818.91	2699.22
819.09	2752.47
819.26	2801.62
819.43	2572.25
819.60	2619.35
819.78	2723.80
819.95	2699.22
820.12	2637.78
820.29	2955.22
820.47	2887.64
820.64	2514.91
820.81	2506.71
820.98	2623.45
821.15	2592.73
821.33	2713.56
821.50	2545.63
821.67	2895.83
821.84	2637.78
822.02	2703.32
822.19	2850.77
822.36	2584.54
822.53	2643.93
822.70	2506.71
822.88	2666.46
823.05	2844.63
823.22	2621.40
823.39	2701.27
823.56	2666.46
823.74	2944.98
823.91	2473.95
824.08	2635.74
824.25	2607.06
824.42	2920.40
824.60	2529.24
824.77	2746.33
824.94	2682.84
825.11	2777.05
825.28	2504.67
825.45	2736.09
825.63	2842.58
825.80	2598.87
825.97	2809.81
826.14	2729.94
826.31	2488.28
826.48	2754.52
826.66	2568.15
826.83	2613.21
827.00	2596.82
827.17	2615.26
827.34	2676.70
827.51	2531.29
827.69	2688.98
827.86	2453.47
828.03	2686.94
828.20	2639.83
828.37	2631.64
828.54	2762.71
828.71	2580.44
828.89	2850.77
829.06	2709.46
829.23	2899.92
829.40	2588.63
829.57	2605.02
829.74	2768.85
829.91	2617.30
830.09	2576.34
830.26	2752.47
830.43	2961.36
830.60	2668.50
830.77	2785.24
830.94	2799.57
831.11	2883.54
831.28	2639.83
831.46	2836.44
831.63	2631.64
831.80	2852.82
831.97	2566.10
832.14	2621.40
832.31	2639.83
832.48	2760.66
832.65	2832.34
832.82	2736.09
832.99	2731.99
833.17	2473.95
833.34	2901.97
833.51	2682.84
833.68	2371.55
833.85	2838.48
834.02	2545.63
834.19	2543.58
834.36	2580.44
834.53	2752.47
834.70	2832.34
834.87	2695.13
835.04	2482.14
835.22	2602.97
835.39	2670.55
835.56	2457.56
835.73	2555.86
835.90	2949.08
836.07	2623.45
836.24	2738.13
836.41	2527.19
836.58	2568.15
836.75	2736.09
836.92	2549.72
837.09	2516.95
837.26	2766.81
837.43	2783.19
837.60	2656.22
837.77	2533.34
837.94	2914.26
838.12	2818.00
838.29	2570.20
838.46	2418.65
838.63	2643.93
838.80	2942.93
838.97	2600.92
839.14	2508.76
839.31	2707.41
839.48	2922.45
839.65	2549.72
839.82	2543.58
839.99	2678.74
840.16	2723.80
840.33	2537.43
840.50	2564.06
840.67	2621.40
840.84	2361.31
841.01	2516.95
841.18	2519.00
841.35	2617.30
841.52	2711.51
841.69	2869.20
841.86	2635.74
842.03	2727.89
842.20	2840.53
842.37	2506.71
842.54	2619.35
842.71	2752.47
842.88	2557.91
843.05	2523.10
843.22	2592.73
843.39	2834.39
843.56	2680.79
843.73	2531.29
843.90	2652.12
844.07	2725.85
844.24	2797.53
844.41	2652.12
844.58	2547.67
844.75	2744.28
844.92	2842.58
845.09	2621.40
845.26	2527.19
845.43	2713.56
845.60	2629.59
845.77	2635.74
845.94	2639.83
846.10	2822.10
846.27	2496.47
846.44	2494.43
846.61	2414.56
846.78	2695.13
846.95	2803.67
847.12	2555.86
847.29	2584.54
847.46	2625.50
847.63	2736.09
847.80	2490.33
847.97	2580.44
848.14	3065.81
848.31	2641.88
848.48	2420.70
848.65	2629.59
848.82	2555.86
848.98	3069.91
849.15	2705.37
849.32	2674.65
849.49	2891.73
849.66	2652.12
849.83	2551.77
850.00	2449.37
850.17	2871.25
850.34	2625.50
850.51	2529.24
850.68	2568.15
850.85	3012.56
851.01	2727.89
851.18	2549.72
851.35	2602.97
851.52	2818.00
851.69	2861.01
851.86	2512.86
852.03	2582.49
852.20	2791.38
852.37	2754.52
852.53	2465.75
852.70	2482.14
852.87	2684.89
853.04	2828.24
853.21	2512.86
853.38	2688.98
853.55	2856.92
853.72	2871.25
853.89	2463.71
854.05	2488.28
854.22	2625.50
854.39	2729.94
854.56	2553.82
854.73	2703.32
854.90	2559.96
855.07	2748.37
855.23	2455.51
855.40	2490.33
855.57	2697.17
855.74	2432.99
855.91	2691.03
856.08	2443.23
856.25	2519.00
856.41	2631.64
856.58	2492.38
856.75	2543.58
856.92	2562.01
857.09	2801.62
857.26	2410.46
857.42	2668.50
857.59	2811.86
857.76	2641.88
857.93	2586.58
858.10	2586.58
858.27	2510.81
858.43	2754.52
858.60	2484.19
858.77	2471.90
858.94	2619.35
859.11	2842.58
859.27	2523.10
859.44	2488.28
859.61	3049.43
859.78	2719.70
859.95	2586.58
860.12	2471.90
860.28	3059.67
860.45	3043.28
860.62	2533.34
860.79	2590.68
860.95	2688.98
861.12	2525.15
861.29	2516.95
861.46	2523.10
861.63	2609.11
861.79	2676.70
861.96	2490.33
862.13	2609.11
862.30	2850.77
862.47	2650.07
862.63	2498.52
862.80	2629.59
862.97	2801.62
863.14	2721.75
863.30	2588.63
863.47	2545.63
863.64	2916.31
863.81	2711.51
863.97	2437.08
864.14	2527.19
864.31	2723.80
864.48	2699.22
864.65	2619.35
864.81	2623.45
864.98	2754.52
865.15	2846.68
865.32	2605.02
865.48	2666.46
865.65	2895.83
865.82	2629.59
865.98	2631.64
866.15	2658.26
866.32	2746.33
866.49	2713.56
866.65	2727.89
866.82	2551.77
866.99	2768.85
867.16	2678.74
867.32	2539.48
867.49	2523.10
867.66	2641.88
867.83	2611.16
867.99	2527.19
868.16	2535.39
868.33	2541.53
868.49	2688.98
868.66	2527.19
868.83	2668.50
868.99	2799.57
869.16	2740.18
869.33	2666.46
869.50	2566.10
869.66	2635.74
869.83	2660.31
870.00	2457.56
870.16	2654.17
870.33	2697.17
870.50	2881.49
870.66	2584.54
870.83	2582.49
871.00	2703.32
871.17	2850.77
871.33	2592.73
871.50	2580.44
871.67	2686.94
871.83	2629.59
872.00	2680.79
872.17	2557.91
872.33	2998.23
872.50	2846.68
872.67	2527.19
872.83	2521.05
873.00	2822.10
873.17	2693.08
873.33	2666.46
873.50	2594.78
873.67	2699.22
873.83	2580.44
874.00	2582.49
874.16	2674.65
874.33	2682.84
874.50	2607.06
874.66	2496.47
874.83	2662.36
875.00	2822.10
875.16	2779.09
875.33	2693.08
875.50	2361.31
875.66	2609.11
875.83	2717.65
875.99	2658.26
876.16	2576.34
876.33	2596.82
876.49	2670.55
876.66	2574.30
876.83	2594.78
876.99	2422.75
877.16	2641.88
877.32	2494.43
877.49	2586.58
877.66	2637.78
877.82	2867.16
877.99	2660.31
878.15	2764.76
878.32	2783.19
878.49	2734.04
878.65	2607.06
878.82	2807.77
878.98	2676.70
879.15	2820.05
879.32	2754.52
879.48	2666.46
879.65	2713.56
879.81	2588.63
879.98	2566.10
880.15	2527.19
880.31	2766.81
880.48	2684.89
880.64	2621.40
880.81	2674.65
880.97	2908.12
881.14	2856.92
881.31	2527.19
881.47	2785.24
881.64	2615.26
881.80	2609.11
881.97	2709.46
882.13	2645.98
882.30	2529.24
882.47	2607.06
882.63	2523.10
882.80	2525.15
882.96	2639.83
883.13	2889.68
883.29	2551.77
883.46	2541.53
883.62	3069.91
883.79	2775.00
883.95	2729.94
884.12	2568.15
884.29	2873.30
884.45	2727.89
884.62	2598.87
884.78	2539.48
884.95	2961.36
885.11	2582.49
885.28	2613.21
885.44	2572.25
885.61	2834.39
885.77	2867.16
885.94	2670.55
886.10	2650.07
886.27	2699.22
886.43	2949.08
886.60	2731.99
886.76	2562.01
886.93	2629.59
887.09	2762.71
887.26	2455.51
887.42	2682.84
887.59	2873.30
887.75	3012.56
887.92	2719.70
888.08	2768.85
888.25	2971.60
888.41	2910.16
888.58	2609.11
888.74	2576.34
888.91	2660.31
>>>>>End Processed Spectral Data<<<<<
