SpectraSuite Data File
++++++++++++++++++++++++++++++++++++
Date: Thu May 05 16:21:08 CEST 2016
User: root
Dark Spectrum Present: No
Reference Spectrum Present: No
Number of Sampled Component Spectra: 1
Spectrometers: USB4C02835
Integration Time (usec): 100000 (USB4C02835)
Spectra Averaged: 1 (USB4C02835)
Boxcar Smoothing: 0 (USB4C02835)
Correct for Electrical Dark: No (USB4C02835)
Strobe/Lamp Enabled: No (USB4C02835)
Correct for Detector Non-linearity: No (USB4C02835)
Correct for Stray Light: No (USB4C02835)
Number of Pixels in Processed Spectrum: 3648
>>>>>Begin Processed Spectral Data<<<<<
177.47	2035.68
177.69	2035.68
177.91	2035.68
178.13	2037.73
178.36	2027.49
178.58	2471.90
178.80	2762.71
179.02	2492.38
179.24	2635.74
179.46	2457.56
179.68	2621.40
179.90	2727.89
180.13	2748.37
180.35	2451.42
180.57	2449.37
180.79	2840.53
181.01	2725.85
181.23	2549.72
181.45	2633.69
181.67	2828.24
181.90	2908.12
182.12	2510.81
182.34	2342.88
182.56	2869.20
182.78	2793.43
183.00	2521.05
183.22	2523.10
183.44	2414.56
183.66	3174.35
183.89	2676.70
184.11	2508.76
184.33	2807.77
184.55	2961.36
184.77	2531.29
184.99	2506.71
185.21	2719.70
185.43	3092.43
185.65	2504.67
185.87	2500.57
186.10	3047.38
186.32	3053.52
186.54	2572.25
186.76	2523.10
186.98	2887.64
187.20	2744.28
187.42	2551.77
187.64	2582.49
187.86	2787.29
188.08	2910.16
188.30	2428.89
188.52	2564.06
188.75	2924.50
188.97	2967.51
189.19	2426.84
189.41	2504.67
189.63	2830.29
189.85	2674.65
190.07	2355.16
190.29	2435.03
190.51	2742.23
190.73	2521.05
190.95	2697.17
191.17	2539.48
191.39	2488.28
191.61	2707.41
191.84	2537.43
192.06	2629.59
192.28	2475.99
192.50	3229.65
192.72	2639.83
192.94	2584.54
193.16	2940.88
193.38	2832.34
193.60	2424.80
193.82	2611.16
194.04	2811.86
194.26	2824.15
194.48	2428.89
194.70	2500.57
194.92	2645.98
195.14	2809.81
195.36	2478.04
195.58	2521.05
195.80	2772.95
196.02	2572.25
196.24	2492.38
196.46	2570.20
196.69	2662.36
196.91	3078.10
197.13	2512.86
197.35	2467.80
197.57	3039.19
197.79	2793.43
198.01	2555.86
198.23	2578.39
198.45	2852.82
198.67	2527.19
198.89	2414.56
199.11	2586.58
199.33	2631.64
199.55	2482.14
199.77	2484.19
199.99	2586.58
200.21	2727.89
200.43	2828.24
200.65	2351.07
200.87	2314.20
201.09	2648.02
201.31	2695.13
201.53	2570.20
201.75	2641.88
201.97	2803.67
202.19	2680.79
202.41	2529.24
202.63	2693.08
202.85	2807.77
203.07	2754.52
203.29	2562.01
203.51	2426.84
203.73	2637.78
203.95	3121.10
204.17	2521.05
204.39	2541.53
204.61	2645.98
204.83	2621.40
205.05	2680.79
205.27	2598.87
205.49	3053.52
205.71	2744.28
205.93	2445.27
206.15	2465.75
206.37	2727.89
206.59	2662.36
206.81	2467.80
207.03	2449.37
207.25	2551.77
207.47	2766.81
207.69	2486.23
207.91	2711.51
208.13	2963.41
208.34	2549.72
208.56	2463.71
208.78	2521.05
209.00	2670.55
209.22	2668.50
209.44	2506.71
209.66	2471.90
209.88	2693.08
210.10	2680.79
210.32	2514.91
210.54	2639.83
210.76	2725.85
210.98	2818.00
211.20	2383.84
211.42	2531.29
211.64	2899.92
211.86	2830.29
212.08	2596.82
212.30	2564.06
212.52	2680.79
212.74	2797.53
212.96	2660.31
213.17	2670.55
213.39	2795.48
213.61	2955.22
213.83	2490.33
214.05	2447.32
214.27	2869.20
214.49	2594.78
214.71	2385.88
214.93	2576.34
215.15	2756.57
215.37	2818.00
215.59	2498.52
215.81	2539.48
216.03	2914.26
216.24	2764.76
216.46	2607.06
216.68	2592.73
216.90	2824.15
217.12	2885.59
217.34	2453.47
217.56	2682.84
217.78	2959.31
218.00	2760.66
218.22	2582.49
218.44	2551.77
218.66	2775.00
218.87	2992.08
219.09	2453.47
219.31	2498.52
219.53	2793.43
219.75	2648.02
219.97	2607.06
220.19	2539.48
220.41	2672.60
220.63	2983.89
220.85	2514.91
221.06	2465.75
221.28	2906.07
221.50	2785.24
221.72	2514.91
221.94	2478.04
222.16	2746.33
222.38	2832.34
222.60	2447.32
222.82	2584.54
223.03	2822.10
223.25	2637.78
223.47	2502.62
223.69	2766.81
223.91	2875.35
224.13	2711.51
224.35	2451.42
224.57	2684.89
224.78	2897.88
225.00	2465.75
225.22	2566.10
225.44	2480.09
225.66	2785.24
225.88	2699.22
226.10	2600.92
226.32	2521.05
226.53	3000.27
226.75	2639.83
226.97	2527.19
227.19	2568.15
227.41	2611.16
227.63	2629.59
227.85	2322.40
228.06	2566.10
228.28	2752.47
228.50	2922.45
228.72	2392.03
228.94	2490.33
229.16	2457.56
229.37	2545.63
229.59	2439.13
229.81	2719.70
230.03	2684.89
230.25	2557.91
230.47	2332.64
230.69	2455.51
230.90	2877.40
231.12	2602.97
231.34	2625.50
231.56	2590.68
231.78	2600.92
232.00	2844.63
232.21	2549.72
232.43	2525.15
232.65	2398.17
232.87	2795.48
233.09	2385.88
233.30	2461.66
233.52	2867.16
233.74	2721.75
233.96	2439.13
234.18	2643.93
234.40	2639.83
234.61	3004.37
234.83	2441.18
235.05	2461.66
235.27	3092.43
235.49	2955.22
235.70	2445.27
235.92	2588.63
236.14	2727.89
236.36	3053.52
236.58	2414.56
236.79	2547.67
237.01	2740.18
237.23	2746.33
237.45	2705.37
237.67	2478.04
237.88	2752.47
238.10	2983.89
238.32	2457.56
238.54	2566.10
238.76	2742.23
238.97	2643.93
239.19	2400.22
239.41	2514.91
239.63	2875.35
239.85	2650.07
240.06	2580.44
240.28	2420.70
240.50	2783.19
240.72	2719.70
240.93	2445.27
241.15	2615.26
241.37	2682.84
241.59	2875.35
241.81	2502.62
242.02	2471.90
242.24	2801.62
242.46	2854.87
242.68	2400.22
242.89	2512.86
243.11	2875.35
243.33	2678.74
243.55	2572.25
243.76	2529.24
243.98	2631.64
244.20	2674.65
244.42	2574.30
244.64	2478.04
244.85	2523.10
245.07	2641.88
245.29	2547.67
245.51	2523.10
245.72	2758.61
245.94	2840.53
246.16	2523.10
246.38	2539.48
246.59	2662.36
246.81	2588.63
247.03	2471.90
247.24	2324.44
247.46	2627.54
247.68	2697.17
247.90	2523.10
248.11	2508.76
248.33	2846.68
248.55	2738.13
248.77	2594.78
248.98	2619.35
249.20	3020.75
249.42	2738.13
249.64	2500.57
249.85	2465.75
250.07	2615.26
250.29	2838.48
250.50	2566.10
250.72	2420.70
250.94	2738.13
251.16	3028.95
251.37	2529.24
251.59	2555.86
251.81	2818.00
252.02	2953.17
252.24	2473.95
252.46	2537.43
252.68	2602.97
252.89	2615.26
253.11	2412.51
253.33	2731.99
253.54	2916.31
253.76	2555.86
253.98	2504.67
254.20	2473.95
254.41	2615.26
254.63	2680.79
254.85	2422.75
255.06	2547.67
255.28	2840.53
255.50	2688.98
255.71	2498.52
255.93	2344.92
256.15	2619.35
256.36	2762.71
256.58	2424.80
256.80	2521.05
257.02	2676.70
257.23	2666.46
257.45	2519.00
257.67	2578.39
257.88	2543.58
258.10	2729.94
258.32	2525.15
258.53	2617.30
258.75	3002.32
258.97	2652.12
259.18	2494.43
259.40	2439.13
259.62	3035.09
259.83	2981.84
260.05	2576.34
260.27	3221.45
260.48	2822.10
260.70	2592.73
260.92	2422.75
261.13	2514.91
261.35	2695.13
261.57	2779.09
261.78	2385.88
262.00	2512.86
262.22	2822.10
262.43	2584.54
262.65	2461.66
262.86	2508.76
263.08	3057.62
263.30	2740.18
263.51	2437.08
263.73	2430.94
263.95	2963.41
264.16	2668.50
264.38	2439.13
264.60	2570.20
264.81	2764.76
265.03	2885.59
265.25	2811.86
265.46	2500.57
265.68	2916.31
265.89	2861.01
266.11	2287.58
266.33	2480.09
266.54	2869.20
266.76	2858.96
266.98	2572.25
267.19	2588.63
267.41	2811.86
267.62	2723.80
267.84	2301.92
268.06	2613.21
268.27	2719.70
268.49	2779.09
268.70	2629.59
268.92	2568.15
269.14	2633.69
269.35	2512.86
269.57	2564.06
269.79	2586.58
270.00	2686.94
270.22	2977.75
270.43	2367.45
270.65	2447.32
270.87	2809.81
271.08	2873.30
271.30	2607.06
271.51	2527.19
271.73	2891.73
271.95	2838.48
272.16	2537.43
272.38	2648.02
272.59	2650.07
272.81	2729.94
273.02	2547.67
273.24	2539.48
273.46	2904.02
273.67	2533.34
273.89	2349.02
274.10	2439.13
274.32	2844.63
274.54	2768.85
274.75	2596.82
274.97	2619.35
275.18	2768.85
275.40	2815.96
275.61	2580.44
275.83	2650.07
276.05	2580.44
276.26	2666.46
276.48	2652.12
276.69	2662.36
276.91	2549.72
277.12	2920.40
277.34	2711.51
277.55	2756.57
277.77	2713.56
277.99	2631.64
278.20	2654.17
278.42	2471.90
278.63	2619.35
278.85	2652.12
279.06	2461.66
279.28	2684.89
279.49	2822.10
279.71	2822.10
279.93	2650.07
280.14	2652.12
280.36	2654.17
280.57	2875.35
280.79	2674.65
281.00	2553.82
281.22	2629.59
281.43	2856.92
281.65	2473.95
281.86	2506.71
282.08	2775.00
282.29	2985.94
282.51	2512.86
282.73	2441.18
282.94	2510.81
283.16	2879.44
283.37	2686.94
283.59	2598.87
283.80	2805.72
284.02	2729.94
284.23	2648.02
284.45	2590.68
284.66	2588.63
284.88	2582.49
285.09	2586.58
285.31	2641.88
285.52	2781.14
285.74	2529.24
285.95	2752.47
286.17	2641.88
286.38	2850.77
286.60	2605.02
286.81	2504.67
287.03	2621.40
287.24	2799.57
287.46	2838.48
287.67	2633.69
287.89	2899.92
288.10	2787.29
288.32	2684.89
288.53	2744.28
288.75	2607.06
288.96	2777.05
289.18	2594.78
289.39	2566.10
289.61	2691.03
289.82	3010.51
290.04	3020.75
290.25	2435.03
290.47	2717.65
290.68	2699.22
290.90	2908.12
291.11	2420.70
291.33	2699.22
291.54	2643.93
291.76	2562.01
291.97	2643.93
292.18	2645.98
292.40	2596.82
292.61	2576.34
292.83	2861.01
293.04	2656.22
293.26	2713.56
293.47	2693.08
293.69	2519.00
293.90	2506.71
294.12	2867.16
294.33	2754.52
294.55	2676.70
294.76	2729.94
294.97	2918.36
295.19	3065.81
295.40	2623.45
295.62	2621.40
295.83	2824.15
296.05	2664.41
296.26	2824.15
296.48	2629.59
296.69	2697.17
296.90	2691.03
297.12	2768.85
297.33	2762.71
297.55	2717.65
297.76	2813.91
297.98	2695.13
298.19	2635.74
298.41	2705.37
298.62	2625.50
298.83	2742.23
299.05	2772.95
299.26	2660.31
299.48	2564.06
299.69	2701.27
299.90	2594.78
300.12	2674.65
300.33	2772.95
300.55	2672.60
300.76	2641.88
300.98	2629.59
301.19	2758.61
301.40	2605.02
301.62	2617.30
301.83	2695.13
302.05	2707.41
302.26	2566.10
302.47	2645.98
302.69	2543.58
302.90	2756.57
303.12	2447.32
303.33	2674.65
303.54	3004.37
303.76	2643.93
303.97	2574.30
304.19	2791.38
304.40	2574.30
304.61	2766.81
304.83	2725.85
305.04	2643.93
305.26	2775.00
305.47	2674.65
305.68	2680.79
305.90	2525.15
306.11	2955.22
306.33	2711.51
306.54	2459.61
306.75	2512.86
306.97	2475.99
307.18	2637.78
307.39	2512.86
307.61	2639.83
307.82	2645.98
308.04	2746.33
308.25	2504.67
308.46	2695.13
308.68	2703.32
308.89	2662.36
309.10	2709.46
309.32	2594.78
309.53	2740.18
309.74	2824.15
309.96	2592.73
310.17	2695.13
310.39	2674.65
310.60	2746.33
310.81	2643.93
311.03	2553.82
311.24	2793.43
311.45	2707.41
311.67	2895.83
311.88	2695.13
312.09	2670.55
312.31	2652.12
312.52	2564.06
312.73	2627.54
312.95	2529.24
313.16	2613.21
313.37	2695.13
313.59	2748.37
313.80	2725.85
314.01	2969.55
314.23	2586.58
314.44	2504.67
314.65	2568.15
314.87	2645.98
315.08	2643.93
315.29	2586.58
315.51	2643.93
315.72	2449.37
315.93	2703.32
316.15	2768.85
316.36	2633.69
316.57	2770.90
316.79	2652.12
317.00	2506.71
317.21	2756.57
317.43	2609.11
317.64	2635.74
317.85	2551.77
318.07	2631.64
318.28	2662.36
318.49	2744.28
318.70	2856.92
318.92	2842.58
319.13	2740.18
319.34	2871.25
319.56	2557.91
319.77	2844.63
319.98	2783.19
320.20	2705.37
320.41	2797.53
320.62	2813.91
320.83	2590.68
321.05	2834.39
321.26	2678.74
321.47	2713.56
321.69	2897.88
321.90	2588.63
322.11	2543.58
322.32	2783.19
322.54	2942.93
322.75	2658.26
322.96	3147.73
323.18	2465.75
323.39	2478.04
323.60	2523.10
323.81	2674.65
324.03	2678.74
324.24	2848.72
324.45	2641.88
324.66	2568.15
324.88	2891.73
325.09	3033.04
325.30	2670.55
325.52	2570.20
325.73	2809.81
325.94	2631.64
326.15	2463.71
326.37	2551.77
326.58	2901.97
326.79	2924.50
327.00	2572.25
327.22	2633.69
327.43	2693.08
327.64	2586.58
327.85	2662.36
328.07	2596.82
328.28	2996.18
328.49	2609.11
328.70	2684.89
328.92	2639.83
329.13	2637.78
329.34	2779.09
329.55	2760.66
329.76	2805.72
329.98	2621.40
330.19	2858.96
330.40	2668.50
330.61	2691.03
330.83	2793.43
331.04	2596.82
331.25	2658.26
331.46	2537.43
331.68	2629.59
331.89	2957.27
332.10	2639.83
332.31	2498.52
332.52	2697.17
332.74	2895.83
332.95	2430.94
333.16	2574.30
333.37	2924.50
333.58	2693.08
333.80	2617.30
334.01	2445.27
334.22	2715.61
334.43	2701.27
334.64	2504.67
334.86	2498.52
335.07	2617.30
335.28	2908.12
335.49	2461.66
335.70	2645.98
335.92	2889.68
336.13	2967.51
336.34	2691.03
336.55	2605.02
336.76	2777.05
336.98	2475.99
337.19	2656.22
337.40	2709.46
337.61	3028.95
337.82	2648.02
338.04	2725.85
338.25	2447.32
338.46	2621.40
338.67	2658.26
338.88	2402.27
339.09	2437.08
339.31	2760.66
339.52	2551.77
339.73	2549.72
339.94	2643.93
340.15	2807.77
340.36	2621.40
340.58	2598.87
340.79	2564.06
341.00	2758.61
341.21	2600.92
341.42	2858.96
341.63	2641.88
341.85	2848.72
342.06	2711.51
342.27	2586.58
342.48	2705.37
342.69	2559.96
342.90	2811.86
343.12	2838.48
343.33	2482.14
343.54	2963.41
343.75	2936.79
343.96	2611.16
344.17	2574.30
344.38	2731.99
344.60	2596.82
344.81	2445.27
345.02	2625.50
345.23	2885.59
345.44	3018.71
345.65	2705.37
345.86	2637.78
346.07	2707.41
346.29	2600.92
346.50	2777.05
346.71	2656.22
346.92	2994.13
347.13	3030.99
347.34	2609.11
347.55	2613.21
347.76	2801.62
347.98	2598.87
348.19	2701.27
348.40	2818.00
348.61	2680.79
348.82	2879.44
349.03	2650.07
349.24	2547.67
349.45	2947.03
349.66	2383.84
349.88	2613.21
350.09	2527.19
350.30	2869.20
350.51	2910.16
350.72	2699.22
350.93	2668.50
351.14	2715.61
351.35	2865.11
351.56	2650.07
351.77	2680.79
351.99	2789.33
352.20	2891.73
352.41	2686.94
352.62	2375.64
352.83	2752.47
353.04	2691.03
353.25	2607.06
353.46	2641.88
353.67	2947.03
353.88	2396.12
354.09	2543.58
354.30	2629.59
354.52	2875.35
354.73	2717.65
354.94	2566.10
355.15	2611.16
355.36	2985.94
355.57	2627.54
355.78	2629.59
355.99	2543.58
356.20	2629.59
356.41	2867.16
356.62	2701.27
356.83	2674.65
357.04	2938.84
357.25	2482.14
357.46	2580.44
357.68	2404.32
357.89	2619.35
358.10	2752.47
358.31	2607.06
358.52	2707.41
358.73	2691.03
358.94	2596.82
359.15	2504.67
359.36	2658.26
359.57	2752.47
359.78	2740.18
359.99	2703.32
360.20	2461.66
360.41	2686.94
360.62	2826.20
360.83	2656.22
361.04	2668.50
361.25	2815.96
361.46	2985.94
361.67	2695.13
361.88	2699.22
362.09	2865.11
362.30	2772.95
362.51	2484.19
362.72	2643.93
362.93	2838.48
363.14	2871.25
363.35	2609.11
363.56	2609.11
363.78	2809.81
363.99	2854.87
364.20	2602.97
364.41	2680.79
364.62	3028.95
364.83	2787.29
365.04	2666.46
365.25	2596.82
365.46	2981.84
365.67	2580.44
365.88	2684.89
366.09	2557.91
366.30	2645.98
366.51	2721.75
366.72	2484.19
366.93	2547.67
367.14	2809.81
367.35	2949.08
367.56	2539.48
367.77	2832.34
367.98	2721.75
368.18	2717.65
368.39	2736.09
368.60	2562.01
368.81	2826.20
369.02	2725.85
369.23	2633.69
369.44	2461.66
369.65	2660.31
369.86	2752.47
370.07	2719.70
370.28	2523.10
370.49	2787.29
370.70	2668.50
370.91	2605.02
371.12	2488.28
371.33	2828.24
371.54	2654.17
371.75	2805.72
371.96	2357.21
372.17	2731.99
372.38	2695.13
372.59	2711.51
372.80	2516.95
373.01	2742.23
373.22	2779.09
373.43	2633.69
373.64	2525.15
373.85	2897.88
374.06	2932.69
374.26	2727.89
374.47	2629.59
374.68	2983.89
374.89	2785.24
375.10	2627.54
375.31	2717.65
375.52	2772.95
375.73	2775.00
375.94	2471.90
376.15	2711.51
376.36	2719.70
376.57	2637.78
376.78	2600.92
376.99	2707.41
377.20	2922.45
377.40	2609.11
377.61	2834.39
377.82	2588.63
378.03	2934.74
378.24	2850.77
378.45	2762.71
378.66	2623.45
378.87	2494.43
379.08	2478.04
379.29	2529.24
379.50	2801.62
379.71	2662.36
379.91	2834.39
380.12	2641.88
380.33	2619.35
380.54	2746.33
380.75	2668.50
380.96	2570.20
381.17	2691.03
381.38	2768.85
381.59	2768.85
381.80	2582.49
382.00	2805.72
382.21	2820.05
382.42	2985.94
382.63	2922.45
382.84	2682.84
383.05	2871.25
383.26	2965.46
383.47	2744.28
383.68	2611.16
383.88	2858.96
384.09	2760.66
384.30	2930.64
384.51	2705.37
384.72	2645.98
384.93	2519.00
385.14	2641.88
385.35	2846.68
385.55	2551.77
385.76	2947.03
385.97	2637.78
386.18	2412.51
386.39	2590.68
386.60	2691.03
386.81	2645.98
387.02	2547.67
387.22	2588.63
387.43	2803.67
387.64	2643.93
387.85	2834.39
388.06	2779.09
388.27	3860.42
388.48	7444.37
388.68	11054.94
388.89	13565.74
389.10	14483.24
389.31	13844.27
389.52	10917.72
389.73	9365.36
389.93	8599.42
390.14	7872.39
390.35	7126.93
390.56	6406.05
390.77	5294.00
390.98	4073.41
391.18	3463.12
391.39	3133.39
391.60	2748.37
391.81	2861.01
392.02	2547.67
392.23	3078.10
392.43	2701.27
392.64	2785.24
392.85	2654.17
393.06	2961.36
393.27	2734.04
393.47	2496.47
393.68	2715.61
393.89	2664.41
394.10	2836.44
394.31	2580.44
394.52	2521.05
394.72	2680.79
394.93	2879.44
395.14	2471.90
395.35	2729.94
395.56	2666.46
395.76	2650.07
395.97	2613.21
396.18	2752.47
396.39	2715.61
396.60	3309.52
396.80	2920.40
397.01	2871.25
397.22	2820.05
397.43	2897.88
397.64	2650.07
397.84	2777.05
398.05	2961.36
398.26	2656.22
398.47	2809.81
398.67	2813.91
398.88	2744.28
399.09	2803.67
399.30	2541.53
399.51	2678.74
399.71	2650.07
399.92	2734.04
400.13	2609.11
400.34	2541.53
400.54	2715.61
400.75	2940.88
400.96	2674.65
401.17	2867.16
401.37	2838.48
401.58	2678.74
401.79	2658.26
402.00	2785.24
402.21	3155.92
402.41	2920.40
402.62	2987.99
402.83	2981.84
403.04	3110.86
403.24	3323.85
403.45	2707.41
403.66	2977.75
403.87	2938.84
404.07	3039.19
404.28	2854.87
404.49	3020.75
404.70	2871.25
404.90	2801.62
405.11	2664.41
405.32	2684.89
405.52	2506.71
405.73	2648.02
405.94	2559.96
406.15	2580.44
406.35	2854.87
406.56	2906.07
406.77	2662.36
406.98	2688.98
407.18	2693.08
407.39	2924.50
407.60	2656.22
407.80	2748.37
408.01	2654.17
408.22	2801.62
408.43	2564.06
408.63	2680.79
408.84	2910.16
409.05	2867.16
409.25	2602.97
409.46	2512.86
409.67	2637.78
409.88	2607.06
410.08	2635.74
410.29	2600.92
410.50	2846.68
410.70	2854.87
410.91	2500.57
411.12	2672.60
411.32	2824.15
411.53	2615.26
411.74	2654.17
411.95	2707.41
412.15	2748.37
412.36	2789.33
412.57	2703.32
412.77	2856.92
412.98	2600.92
413.19	2721.75
413.39	2729.94
413.60	2652.12
413.81	2928.60
414.01	2699.22
414.22	2637.78
414.43	2775.00
414.63	2697.17
414.84	2846.68
415.05	2701.27
415.25	2510.81
415.46	2770.90
415.67	2572.25
415.87	2752.47
416.08	2625.50
416.29	2695.13
416.49	2824.15
416.70	2676.70
416.91	2625.50
417.11	2713.56
417.32	2834.39
417.53	2764.76
417.73	2760.66
417.94	2709.46
418.15	2793.43
418.35	2744.28
418.56	2645.98
418.77	3039.19
418.97	2756.57
419.18	2691.03
419.38	2385.88
419.59	2740.18
419.80	2922.45
420.00	2695.13
420.21	2691.03
420.42	2883.54
420.62	2678.74
420.83	2611.16
421.04	2568.15
421.24	2713.56
421.45	2742.23
421.65	2715.61
421.86	2559.96
422.07	2799.57
422.27	2738.13
422.48	2582.49
422.69	2568.15
422.89	2695.13
423.10	2662.36
423.30	2553.82
423.51	2666.46
423.72	2828.24
423.92	2727.89
424.13	2529.24
424.33	2664.41
424.54	2899.92
424.75	2752.47
424.95	2822.10
425.16	2691.03
425.36	2729.94
425.57	2879.44
425.78	2781.14
425.98	2738.13
426.19	2797.53
426.39	2584.54
426.60	2652.12
426.81	2723.80
427.01	2779.09
427.22	2596.82
427.42	2576.34
427.63	2478.04
427.83	2922.45
428.04	2947.03
428.25	2736.09
428.45	2760.66
428.66	2887.64
428.86	2668.50
429.07	2635.74
429.28	2643.93
429.48	2742.23
429.69	2596.82
429.89	2744.28
430.10	2572.25
430.30	2818.00
430.51	2889.68
430.71	2531.29
430.92	2658.26
431.13	2684.89
431.33	2820.05
431.54	2717.65
431.74	2871.25
431.95	3098.58
432.15	2545.63
432.36	2668.50
432.56	2731.99
432.77	3053.52
432.98	3059.67
433.18	2705.37
433.39	2598.87
433.59	2660.31
433.80	2979.79
434.00	2846.68
434.21	2643.93
434.41	2678.74
434.62	3084.24
434.82	2635.74
435.03	2543.58
435.23	2818.00
435.44	2445.27
435.64	2635.74
435.85	2729.94
436.06	2822.10
436.26	2824.15
436.47	2709.46
436.67	2523.10
436.88	2695.13
437.08	2916.31
437.29	2756.57
437.49	2754.52
437.70	2871.25
437.90	2717.65
438.11	2848.72
438.31	2666.46
438.52	2879.44
438.72	2885.59
438.93	2891.73
439.13	2805.72
439.34	2797.53
439.54	2662.36
439.75	2729.94
439.95	2746.33
440.16	2555.86
440.36	2838.48
440.57	2727.89
440.77	2652.12
440.98	2795.48
441.18	2736.09
441.39	2547.67
441.59	2529.24
441.80	3059.67
442.00	2723.80
442.21	2744.28
442.41	2582.49
442.62	2934.74
442.82	2596.82
443.02	2691.03
443.23	2629.59
443.43	2635.74
443.64	2848.72
443.84	2500.57
444.05	2791.38
444.25	2746.33
444.46	2645.98
444.66	2686.94
444.87	2822.10
445.07	2523.10
445.28	2686.94
445.48	2815.96
445.69	2707.41
445.89	3135.44
446.09	2752.47
446.30	2994.13
446.50	3047.38
446.71	4595.64
446.91	5738.41
447.12	6479.77
447.32	6741.91
447.53	6541.21
447.73	5470.12
447.93	4718.52
448.14	4628.41
448.34	4536.25
448.55	3858.37
448.75	3764.17
448.96	3710.92
449.16	3438.54
449.36	3301.33
449.57	2940.88
449.77	2736.09
449.98	2754.52
450.18	2742.23
450.39	2648.02
450.59	2731.99
450.79	2715.61
451.00	2645.98
451.20	2791.38
451.41	2615.26
451.61	2828.24
451.81	2729.94
452.02	2605.02
452.22	2684.89
452.43	2715.61
452.63	2637.78
452.84	2668.50
453.04	2613.21
453.24	2777.05
453.45	2670.55
453.65	2707.41
453.86	2723.80
454.06	2779.09
454.26	2734.04
454.47	2559.96
454.67	2846.68
454.87	2775.00
455.08	2701.27
455.28	2785.24
455.49	2781.14
455.69	2629.59
455.89	3094.48
456.10	2789.33
456.30	2631.64
456.51	2750.42
456.71	2787.29
456.91	2697.17
457.12	2676.70
457.32	2844.63
457.52	2596.82
457.73	2736.09
457.93	2752.47
458.14	2658.26
458.34	2506.71
458.54	2592.73
458.75	2627.54
458.95	2926.55
459.15	2734.04
459.36	2684.89
459.56	2670.55
459.76	3098.58
459.97	2719.70
460.17	2656.22
460.37	2830.29
460.58	2770.90
460.78	2850.77
460.99	2633.69
461.19	2686.94
461.39	2672.60
461.60	2691.03
461.80	2711.51
462.00	2506.71
462.21	2691.03
462.41	2508.76
462.61	2508.76
462.82	2527.19
463.02	2797.53
463.22	2633.69
463.43	2727.89
463.63	2568.15
463.83	2990.03
464.04	2818.00
464.24	2617.30
464.44	2557.91
464.64	2711.51
464.85	2838.48
465.05	2666.46
465.25	2664.41
465.46	2674.65
465.66	2875.35
465.86	2688.98
466.07	2625.50
466.27	2779.09
466.47	2568.15
466.68	2535.39
466.88	2832.34
467.08	2834.39
467.29	2959.31
467.49	2637.78
467.69	2746.33
467.89	2840.53
468.10	2752.47
468.30	2678.74
468.50	2715.61
468.71	2893.78
468.91	2541.53
469.11	2809.81
469.31	2666.46
469.52	2629.59
469.72	2985.94
469.92	2912.21
470.13	2648.02
470.33	2688.98
470.53	2815.96
470.73	2985.94
470.94	3416.01
471.14	3323.85
471.34	3817.41
471.54	3686.34
471.75	3286.99
471.95	3157.97
472.15	3141.58
472.36	3082.19
472.56	3082.19
472.76	3141.58
472.96	2949.08
473.17	2934.74
473.37	2893.78
473.57	2725.85
473.77	2758.61
473.98	2731.99
474.18	2529.24
474.38	3231.69
474.58	2596.82
474.79	2564.06
474.99	2803.67
475.19	2926.55
475.39	2537.43
475.60	2738.13
475.80	2645.98
476.00	2783.19
476.20	2723.80
476.41	2711.51
476.61	2742.23
476.81	2891.73
477.01	2611.16
477.21	2781.14
477.42	2787.29
477.62	2633.69
477.82	2820.05
478.02	2572.25
478.23	2770.90
478.43	2684.89
478.63	2645.98
478.83	2664.41
479.03	2691.03
479.24	2861.01
479.44	3000.27
479.64	2605.02
479.84	2445.27
480.04	2598.87
480.25	2772.95
480.45	2615.26
480.65	2613.21
480.85	3006.42
481.06	2633.69
481.26	2713.56
481.46	2680.79
481.66	2729.94
481.86	2613.21
482.06	2785.24
482.27	2678.74
482.47	2699.22
482.67	2854.87
482.87	2686.94
483.07	2758.61
483.28	2645.98
483.48	2580.44
483.68	2613.21
483.88	2457.56
484.08	2449.37
484.29	2551.77
484.49	2772.95
484.69	2512.86
484.89	3014.61
485.09	2867.16
485.29	2756.57
485.50	2805.72
485.70	2676.70
485.90	2975.70
486.10	2633.69
486.30	2666.46
486.50	2971.60
486.71	2746.33
486.91	2783.19
487.11	2785.24
487.31	2596.82
487.51	2820.05
487.71	2514.91
487.91	2586.58
488.12	2674.65
488.32	2396.12
488.52	2564.06
488.72	2420.70
488.92	2678.74
489.12	2875.35
489.32	2727.89
489.53	2641.88
489.73	2514.91
489.93	3024.85
490.13	2531.29
490.33	2504.67
490.53	2762.71
490.73	2949.08
490.94	2590.68
491.14	2807.77
491.34	2873.30
491.54	2957.27
491.74	3512.27
491.94	4067.27
492.14	4399.04
492.34	4394.94
492.54	4151.23
492.75	3606.47
492.95	3573.71
493.15	3479.50
493.35	3338.19
493.55	3217.36
493.75	3100.62
493.95	3164.11
494.15	2875.35
494.35	2789.33
494.56	2828.24
494.76	2650.07
494.96	2760.66
495.16	2662.36
495.36	2717.65
495.56	2799.57
495.76	2676.70
495.96	2637.78
496.16	2637.78
496.36	3006.42
496.56	2678.74
496.77	2650.07
496.97	2873.30
497.17	2908.12
497.37	2449.37
497.57	2723.80
497.77	2727.89
497.97	2541.53
498.17	2717.65
498.37	2666.46
498.57	2863.06
498.77	2672.60
498.97	2809.81
499.17	2906.07
499.38	2699.22
499.58	2789.33
499.78	2822.10
499.98	2842.58
500.18	2641.88
500.38	2678.74
500.58	2895.83
500.78	3172.30
500.98	5427.12
501.18	7237.52
501.38	8580.99
501.58	9551.73
501.78	9449.33
501.98	8030.09
502.18	6461.34
502.38	5566.38
502.58	5363.63
502.78	4730.81
502.98	4726.71
503.18	4472.76
503.38	4071.36
503.59	3588.04
503.79	3583.95
503.99	3248.08
504.19	3117.01
504.39	3248.08
504.59	3137.49
504.79	3010.51
504.99	3192.78
505.19	2965.46
505.39	2842.58
505.59	2977.75
505.79	3069.91
505.99	2910.16
506.19	2758.61
506.39	2908.12
506.59	2578.39
506.79	2680.79
506.99	2809.81
507.19	2676.70
507.39	2758.61
507.59	2527.19
507.79	2621.40
507.99	2572.25
508.19	2688.98
508.39	2668.50
508.59	2605.02
508.79	2736.09
508.99	3047.38
509.19	2605.02
509.39	2736.09
509.59	2594.78
509.79	2664.41
509.99	2772.95
510.19	2797.53
510.39	2719.70
510.59	2768.85
510.79	2639.83
510.99	2512.86
511.19	2572.25
511.39	2932.69
511.59	2942.93
511.79	2793.43
511.99	2613.21
512.19	3047.38
512.38	2740.18
512.58	2717.65
512.78	2609.11
512.98	2852.82
513.18	2904.02
513.38	2557.91
513.58	2781.14
513.78	2727.89
513.98	2674.65
514.18	2670.55
514.38	2564.06
514.58	2756.57
514.78	2582.49
514.98	2621.40
515.18	2676.70
515.38	2529.24
515.58	2961.36
515.78	2582.49
515.98	2725.85
516.18	2750.42
516.38	2754.52
516.57	2627.54
516.77	2615.26
516.97	2848.72
517.17	2617.30
517.37	2498.52
517.57	2721.75
517.77	2760.66
517.97	2629.59
518.17	2684.89
518.37	2516.95
518.57	2650.07
518.77	2666.46
518.97	2617.30
519.16	2674.65
519.36	2887.64
519.56	2650.07
519.76	2602.97
519.96	2691.03
520.16	2971.60
520.36	2562.01
520.56	2824.15
520.76	2586.58
520.96	2705.37
521.16	2879.44
521.35	2746.33
521.55	2846.68
521.75	2660.31
521.95	2584.54
522.15	2637.78
522.35	2531.29
522.55	2590.68
522.75	2924.50
522.95	2527.19
523.14	2492.38
523.34	2809.81
523.54	2600.92
523.74	2701.27
523.94	2711.51
524.14	2551.77
524.34	2797.53
524.54	2791.38
524.73	2654.17
524.93	2815.96
525.13	2717.65
525.33	2529.24
525.53	2938.84
525.73	2805.72
525.93	2713.56
526.13	2590.68
526.32	2654.17
526.52	2887.64
526.72	2807.77
526.92	2703.32
527.12	2574.30
527.32	2568.15
527.52	2754.52
527.71	2676.70
527.91	2652.12
528.11	2596.82
528.31	2697.17
528.51	2641.88
528.71	2686.94
528.90	2867.16
529.10	2881.49
529.30	2787.29
529.50	2396.12
529.70	2777.05
529.90	2721.75
530.09	2695.13
530.29	2506.71
530.49	2557.91
530.69	3182.54
530.89	2670.55
531.09	2785.24
531.28	2668.50
531.48	2949.08
531.68	2680.79
531.88	2674.65
532.08	2877.40
532.28	2654.17
532.47	2734.04
532.67	2781.14
532.87	2729.94
533.07	2596.82
533.27	2834.39
533.46	2764.76
533.66	2783.19
533.86	2809.81
534.06	2688.98
534.26	2635.74
534.45	2686.94
534.65	2854.87
534.85	2613.21
535.05	2633.69
535.25	2873.30
535.44	2574.30
535.64	2707.41
535.84	2695.13
536.04	2725.85
536.24	2715.61
536.43	2539.48
536.63	2676.70
536.83	2705.37
537.03	2762.71
537.22	2512.86
537.42	2519.00
537.62	2785.24
537.82	2600.92
538.02	2760.66
538.21	2805.72
538.41	3135.44
538.61	2764.76
538.81	2596.82
539.00	2834.39
539.20	2519.00
539.40	2625.50
539.60	2711.51
539.79	2791.38
539.99	2635.74
540.19	2654.17
540.39	2676.70
540.58	2703.32
540.78	2899.92
540.98	2744.28
541.18	2787.29
541.37	2736.09
541.57	2668.50
541.77	2787.29
541.97	2588.63
542.16	2461.66
542.36	2707.41
542.56	2619.35
542.76	2861.01
542.95	2815.96
543.15	2848.72
543.35	2908.12
543.54	2564.06
543.74	2600.92
543.94	2998.23
544.14	2627.54
544.33	2795.48
544.53	2635.74
544.73	2748.37
544.93	2645.98
545.12	2666.46
545.32	2652.12
545.52	2688.98
545.71	2541.53
545.91	2631.64
546.11	2600.92
546.30	2627.54
546.50	2703.32
546.70	2752.47
546.90	2674.65
547.09	2426.84
547.29	2693.08
547.49	2795.48
547.68	2615.26
547.88	2666.46
548.08	2832.34
548.27	3088.34
548.47	2547.67
548.67	2611.16
548.87	2854.87
549.06	2594.78
549.26	2617.30
549.46	2846.68
549.65	2650.07
549.85	2738.13
550.05	2742.23
550.24	2521.05
550.44	2662.36
550.64	2678.74
550.83	2668.50
551.03	2957.27
551.23	2891.73
551.42	2756.57
551.62	2662.36
551.82	2713.56
552.01	2684.89
552.21	2867.16
552.41	2594.78
552.60	2932.69
552.80	2738.13
553.00	2584.54
553.19	2705.37
553.39	3057.62
553.59	2533.34
553.78	2742.23
553.98	2672.60
554.17	2525.15
554.37	2758.61
554.57	2734.04
554.76	2609.11
554.96	2643.93
555.16	2770.90
555.35	2652.12
555.55	2705.37
555.75	2754.52
555.94	2844.63
556.14	2467.80
556.33	2691.03
556.53	2719.70
556.73	2699.22
556.92	2664.41
557.12	2768.85
557.32	3016.66
557.51	2934.74
557.71	2760.66
557.90	2820.05
558.10	2838.48
558.30	2707.41
558.49	2631.64
558.69	2650.07
558.88	2766.81
559.08	2785.24
559.28	2660.31
559.47	2664.41
559.67	2887.64
559.86	3026.90
560.06	2680.79
560.26	2699.22
560.45	2848.72
560.65	2645.98
560.84	2893.78
561.04	2586.58
561.24	2887.64
561.43	2631.64
561.63	2885.59
561.82	2705.37
562.02	2822.10
562.22	2668.50
562.41	2648.02
562.61	2592.73
562.80	2576.34
563.00	2994.13
563.19	2670.55
563.39	2715.61
563.59	2848.72
563.78	2621.40
563.98	2392.03
564.17	2557.91
564.37	2512.86
564.56	2766.81
564.76	2541.53
564.96	2852.82
565.15	2863.06
565.35	3084.24
565.54	2633.69
565.74	2650.07
565.93	2719.70
566.13	2731.99
566.32	2715.61
566.52	2805.72
566.71	2738.13
566.91	2852.82
567.11	2766.81
567.30	2576.34
567.50	2758.61
567.69	2838.48
567.89	2562.01
568.08	2549.72
568.28	2725.85
568.47	2531.29
568.67	2654.17
568.86	2633.69
569.06	2899.92
569.25	2701.27
569.45	2559.96
569.64	2623.45
569.84	2602.97
570.04	2805.72
570.23	2578.39
570.43	2684.89
570.62	2785.24
570.82	3020.75
571.01	2557.91
571.21	2512.86
571.40	2535.39
571.60	2895.83
571.79	2772.95
571.99	2672.60
572.18	2564.06
572.38	2746.33
572.57	2654.17
572.77	2713.56
572.96	3053.52
573.16	2740.18
573.35	2613.21
573.55	2795.48
573.74	2854.87
573.94	2766.81
574.13	2756.57
574.33	2779.09
574.52	2865.11
574.71	2742.23
574.91	2725.85
575.10	2484.19
575.30	2623.45
575.49	2654.17
575.69	2555.86
575.88	2643.93
576.08	2828.24
576.27	2875.35
576.47	2617.30
576.66	2893.78
576.86	2906.07
577.05	2785.24
577.25	2779.09
577.44	2897.88
577.64	2678.74
577.83	2930.64
578.02	2650.07
578.22	2838.48
578.41	3088.34
578.61	2709.46
578.80	2588.63
579.00	2715.61
579.19	2750.42
579.39	2893.78
579.58	2801.62
579.77	2686.94
579.97	2918.36
580.16	2875.35
580.36	2850.77
580.55	2848.72
580.75	2789.33
580.94	2801.62
581.13	2840.53
581.33	2858.96
581.52	2682.84
581.72	3043.28
581.91	2787.29
582.11	2691.03
582.30	2856.92
582.49	2783.19
582.69	2875.35
582.88	2781.14
583.08	2760.66
583.27	2932.69
583.47	2719.70
583.66	2570.20
583.85	2574.30
584.05	2725.85
584.24	2842.58
584.44	2691.03
584.63	2924.50
584.82	2873.30
585.02	2930.64
585.21	2842.58
585.41	2908.12
585.60	2815.96
585.79	2899.92
585.99	2992.08
586.18	2764.76
586.37	3547.08
586.57	5474.22
586.76	16152.33
586.96	35567.07
587.15	48334.11
587.34	57308.31
587.54	61428.82
587.73	55338.16
587.93	38702.51
588.12	29326.91
588.31	23877.27
588.51	21065.41
588.70	19605.20
588.89	17190.65
589.09	14702.37
589.28	12525.38
589.47	9944.94
589.67	7671.69
589.86	5996.45
590.06	4564.92
590.25	3835.85
590.44	3409.87
590.64	3141.58
590.83	3030.99
591.02	2994.13
591.22	2666.46
591.41	2701.27
591.60	2777.05
591.80	3065.81
591.99	2551.77
592.18	2707.41
592.38	2922.45
592.57	2631.64
592.76	2688.98
592.96	2750.42
593.15	2635.74
593.34	2971.60
593.54	2658.26
593.73	2813.91
593.92	2842.58
594.12	2758.61
594.31	2641.88
594.50	2797.53
594.70	2768.85
594.89	3108.82
595.08	2570.20
595.28	2713.56
595.47	3141.58
595.66	2858.96
595.86	2564.06
596.05	2553.82
596.24	2715.61
596.43	3002.32
596.63	2867.16
596.82	2805.72
597.01	2811.86
597.21	3014.61
597.40	2684.89
597.59	2676.70
597.79	2691.03
597.98	2914.26
598.17	2801.62
598.36	2711.51
598.56	2893.78
598.75	2629.59
598.94	2707.41
599.14	2682.84
599.33	2641.88
599.52	2904.02
599.71	2820.05
599.91	2768.85
600.10	2844.63
600.29	2766.81
600.48	2781.14
600.68	2789.33
600.87	2748.37
601.06	2650.07
601.26	2723.80
601.45	2740.18
601.64	2686.94
601.83	2930.64
602.03	2547.67
602.22	2590.68
602.41	2828.24
602.60	3094.48
602.80	2775.00
602.99	2750.42
603.18	2631.64
603.37	2744.28
603.57	2678.74
603.76	2760.66
603.95	2861.01
604.14	2656.22
604.34	2588.63
604.53	2633.69
604.72	2783.19
604.91	2770.90
605.10	2645.98
605.30	2506.71
605.49	3061.71
605.68	2828.24
605.87	2668.50
606.07	2529.24
606.26	2742.23
606.45	2744.28
606.64	2676.70
606.84	2596.82
607.03	2752.47
607.22	2924.50
607.41	2734.04
607.60	2617.30
607.80	2846.68
607.99	2871.25
608.18	2666.46
608.37	2664.41
608.56	2609.11
608.76	2899.92
608.95	2863.06
609.14	2686.94
609.33	2932.69
609.52	2916.31
609.72	2758.61
609.91	2768.85
610.10	2842.58
610.29	2930.64
610.48	2822.10
610.68	2840.53
610.87	2701.27
611.06	2828.24
611.25	2633.69
611.44	2815.96
611.63	2703.32
611.83	2922.45
612.02	2463.71
612.21	2697.17
612.40	2482.14
612.59	2613.21
612.79	2588.63
612.98	2650.07
613.17	3018.71
613.36	2680.79
613.55	2793.43
613.74	2707.41
613.93	2836.44
614.13	2883.54
614.32	2850.77
614.51	2760.66
614.70	2736.09
614.89	2676.70
615.08	2740.18
615.28	3162.06
615.47	2605.02
615.66	2818.00
615.85	2746.33
616.04	2752.47
616.23	2766.81
616.42	2723.80
616.62	2637.78
616.81	2775.00
617.00	2742.23
617.19	2848.72
617.38	2717.65
617.57	2711.51
617.76	2893.78
617.95	2795.48
618.15	2770.90
618.34	2942.93
618.53	2562.01
618.72	2877.40
618.91	2785.24
619.10	2781.14
619.29	2684.89
619.48	2756.57
619.68	2594.78
619.87	2688.98
620.06	2566.10
620.25	2856.92
620.44	2650.07
620.63	2592.73
620.82	2781.14
621.01	2711.51
621.20	2727.89
621.39	2779.09
621.59	2803.67
621.78	2756.57
621.97	2738.13
622.16	2787.29
622.35	2781.14
622.54	2850.77
622.73	2717.65
622.92	2500.57
623.11	2854.87
623.30	2621.40
623.49	2768.85
623.68	2586.58
623.88	2924.50
624.07	2674.65
624.26	2699.22
624.45	2731.99
624.64	2764.76
624.83	2781.14
625.02	2664.41
625.21	2668.50
625.40	2813.91
625.59	2893.78
625.78	2682.84
625.97	2912.21
626.16	2947.03
626.35	2899.92
626.54	2701.27
626.74	2867.16
626.93	2670.55
627.12	2762.71
627.31	2742.23
627.50	2664.41
627.69	2885.59
627.88	2551.77
628.07	2555.86
628.26	2543.58
628.45	2684.89
628.64	2584.54
628.83	2672.60
629.02	2527.19
629.21	2842.58
629.40	2834.39
629.59	2592.73
629.78	2605.02
629.97	2750.42
630.16	2871.25
630.35	2619.35
630.54	2676.70
630.73	2635.74
630.92	2662.36
631.11	2559.96
631.30	2668.50
631.49	2822.10
631.68	2635.74
631.87	2731.99
632.06	2541.53
632.25	3090.38
632.44	2607.06
632.63	2752.47
632.82	2645.98
633.01	2676.70
633.20	2832.34
633.39	2631.64
633.58	2490.33
633.77	2674.65
633.96	2815.96
634.15	2754.52
634.34	2742.23
634.53	2775.00
634.72	2637.78
634.91	2529.24
635.10	2645.98
635.29	2891.73
635.48	2701.27
635.67	2564.06
635.86	2504.67
636.05	2863.06
636.24	2770.90
636.43	2709.46
636.62	2688.98
636.81	2449.37
637.00	2658.26
637.19	2670.55
637.38	2695.13
637.57	2750.42
637.76	2777.05
637.95	2826.20
638.14	2758.61
638.33	2760.66
638.52	2850.77
638.71	2512.86
638.89	2559.96
639.08	3151.82
639.27	2908.12
639.46	2815.96
639.65	3194.83
639.84	3258.32
640.03	3309.52
640.22	3094.48
640.41	3076.05
640.60	2846.68
640.79	2944.98
640.98	2785.24
641.17	2873.30
641.36	2940.88
641.55	2889.68
641.74	2590.68
641.92	2617.30
642.11	2652.12
642.30	2695.13
642.49	2621.40
642.68	2609.11
642.87	2768.85
643.06	2797.53
643.25	2566.10
643.44	2529.24
643.63	2713.56
643.82	2869.20
644.00	2559.96
644.19	2662.36
644.38	2594.78
644.57	2910.16
644.76	2723.80
644.95	2617.30
645.14	2752.47
645.33	2623.45
645.52	2686.94
645.71	2519.00
645.89	2514.91
646.08	2684.89
646.27	2654.17
646.46	2850.77
646.65	2568.15
646.84	2719.70
647.03	2572.25
647.22	2854.87
647.40	2750.42
647.59	2676.70
647.78	2469.85
647.97	2553.82
648.16	2590.68
648.35	2918.36
648.54	2832.34
648.73	2621.40
648.91	2822.10
649.10	2715.61
649.29	2660.31
649.48	2543.58
649.67	2717.65
649.86	2797.53
650.05	2693.08
650.23	2889.68
650.42	2609.11
650.61	2897.88
650.80	2842.58
650.99	2895.83
651.18	2824.15
651.36	2873.30
651.55	2615.26
651.74	2801.62
651.93	2648.02
652.12	2699.22
652.31	2734.04
652.49	2617.30
652.68	2785.24
652.87	2928.60
653.06	2766.81
653.25	2846.68
653.44	2736.09
653.62	3012.56
653.81	2693.08
654.00	2699.22
654.19	2906.07
654.38	3153.87
654.56	2736.09
654.75	2688.98
654.94	2881.49
655.13	2674.65
655.32	2656.22
655.51	2717.65
655.69	2602.97
655.88	2871.25
656.07	2533.34
656.26	2693.08
656.45	2525.15
656.63	2756.57
656.82	2680.79
657.01	2916.31
657.20	2637.78
657.38	2912.21
657.57	2514.91
657.76	2541.53
657.95	2844.63
658.14	2645.98
658.32	2731.99
658.51	2502.62
658.70	2797.53
658.89	2783.19
659.08	2721.75
659.26	2852.82
659.45	2611.16
659.64	2805.72
659.83	2619.35
660.01	3074.00
660.20	2691.03
660.39	2971.60
660.58	2461.66
660.76	2756.57
660.95	2566.10
661.14	2742.23
661.33	2490.33
661.51	2613.21
661.70	2664.41
661.89	2811.86
662.08	2600.92
662.26	2480.09
662.45	2611.16
662.64	3026.90
662.83	2727.89
663.01	2547.67
663.20	2652.12
663.39	2944.98
663.58	2627.54
663.76	2643.93
663.95	2824.15
664.14	2611.16
664.32	2701.27
664.51	2525.15
664.70	2492.38
664.89	2797.53
665.07	2457.56
665.26	2793.43
665.45	2506.71
665.64	2813.91
665.82	2652.12
666.01	2772.95
666.20	2555.86
666.38	2854.87
666.57	2867.16
666.76	4284.35
666.95	9934.70
667.13	17012.48
667.32	21208.76
667.51	24149.65
667.69	25112.19
667.88	21636.79
668.07	15499.03
668.25	13023.03
668.44	11083.61
668.63	9607.02
668.81	8372.10
669.00	7358.35
669.19	6709.15
669.38	5691.31
669.56	5054.39
669.75	4233.15
669.94	3796.93
670.12	3235.79
670.31	2957.27
670.50	2908.12
670.68	2934.74
670.87	2826.20
671.06	2686.94
671.24	2680.79
671.43	2961.36
671.62	2824.15
671.80	2678.74
671.99	2760.66
672.18	2793.43
672.36	2795.48
672.55	2658.26
672.74	2688.98
672.92	2613.21
673.11	2760.66
673.29	2588.63
673.48	2830.29
673.67	2719.70
673.85	2820.05
674.04	2572.25
674.23	2668.50
674.41	2955.22
674.60	2564.06
674.79	2488.28
674.97	2617.30
675.16	2807.77
675.34	2850.77
675.53	2482.14
675.72	2693.08
675.90	3010.51
676.09	2672.60
676.28	2717.65
676.46	2545.63
676.65	2830.29
676.83	2564.06
677.02	2666.46
677.21	2641.88
677.39	2818.00
677.58	2611.16
677.77	2672.60
677.95	2465.75
678.14	2711.51
678.32	2740.18
678.51	2650.07
678.70	2863.06
678.88	2553.82
679.07	2748.37
679.25	2705.37
679.44	2645.98
679.63	2547.67
679.81	2709.46
680.00	2793.43
680.18	2768.85
680.37	2957.27
680.55	2842.58
680.74	2527.19
680.93	2435.03
681.11	2783.19
681.30	2752.47
681.48	2664.41
681.67	2643.93
681.85	2695.13
682.04	2590.68
682.23	2781.14
682.41	2738.13
682.60	2605.02
682.78	2766.81
682.97	2553.82
683.15	2725.85
683.34	2746.33
683.53	2936.79
683.71	2457.56
683.90	2781.14
684.08	2932.69
684.27	2701.27
684.45	2717.65
684.64	2818.00
684.82	2717.65
685.01	2852.82
685.19	2615.26
685.38	2908.12
685.57	2793.43
685.75	2625.50
685.94	2605.02
686.12	2596.82
686.31	2650.07
686.49	2961.36
686.68	2463.71
686.86	2744.28
687.05	2664.41
687.23	2912.21
687.42	2615.26
687.60	2572.25
687.79	2789.33
687.97	2957.27
688.16	2785.24
688.34	2756.57
688.53	2478.04
688.71	2781.14
688.90	2842.58
689.08	2670.55
689.27	2537.43
689.45	2777.05
689.64	2801.62
689.82	2719.70
690.01	2795.48
690.19	2754.52
690.38	2666.46
690.56	2852.82
690.75	2590.68
690.93	2607.06
691.12	2529.24
691.30	2643.93
691.49	2639.83
691.67	2678.74
691.86	2924.50
692.04	2596.82
692.23	2629.59
692.41	2768.85
692.60	3039.19
692.78	2744.28
692.97	2766.81
693.15	2783.19
693.34	2830.29
693.52	2891.73
693.71	2672.60
693.89	2668.50
694.08	2441.18
694.26	2723.80
694.44	2813.91
694.63	2895.83
694.81	2611.16
695.00	2572.25
695.18	2924.50
695.37	3090.38
695.55	2711.51
695.74	2711.51
695.92	2602.97
696.10	2910.16
696.29	2578.39
696.47	2684.89
696.66	2557.91
696.84	2592.73
697.03	2705.37
697.21	2979.79
697.40	4140.99
697.58	2916.31
697.76	2600.92
697.95	2635.74
698.13	2637.78
698.32	2656.22
698.50	2664.41
698.68	2617.30
698.87	2707.41
699.05	2908.12
699.24	2680.79
699.42	2617.30
699.61	2775.00
699.79	2729.94
699.97	2678.74
700.16	2537.43
700.34	2592.73
700.53	2799.57
700.71	2815.96
700.89	2822.10
701.08	2760.66
701.26	2717.65
701.45	3166.16
701.63	2547.67
701.81	2666.46
702.00	2629.59
702.18	2731.99
702.37	2545.63
702.55	2992.08
702.73	2762.71
702.92	2695.13
703.10	3035.09
703.28	2891.73
703.47	2605.02
703.65	2899.92
703.84	2775.00
704.02	2715.61
704.20	2983.89
704.39	2643.93
704.57	2619.35
704.75	2885.59
704.94	2768.85
705.12	2711.51
705.30	3121.10
705.49	5853.09
705.67	11939.66
705.86	17899.25
706.04	20516.55
706.22	22736.55
706.41	22628.01
706.59	17762.03
706.77	13143.86
706.96	11433.81
707.14	10282.85
707.32	8900.47
707.51	7974.79
707.69	6547.36
707.87	5488.56
708.06	4378.56
708.24	3907.52
708.42	3303.37
708.61	3504.07
708.79	2742.23
708.97	2861.01
709.16	2834.39
709.34	2807.77
709.52	2656.22
709.71	2625.50
709.89	2793.43
710.07	2584.54
710.26	2519.00
710.44	2652.12
710.62	2875.35
710.80	2717.65
710.99	2791.38
711.17	2818.00
711.35	2637.78
711.54	2658.26
711.72	2809.81
711.90	2793.43
712.09	2731.99
712.27	2609.11
712.45	2799.57
712.63	2639.83
712.82	2709.46
713.00	2740.18
713.18	2734.04
713.37	2734.04
713.55	2818.00
713.73	2789.33
713.91	2785.24
714.10	2666.46
714.28	2658.26
714.46	2779.09
714.65	2729.94
714.83	2680.79
715.01	2887.64
715.19	2703.32
715.38	2637.78
715.56	2676.70
715.74	2639.83
715.92	2639.83
716.11	2963.41
716.29	2441.18
716.47	2680.79
716.65	2691.03
716.84	2514.91
717.02	2725.85
717.20	2519.00
717.38	2645.98
717.57	2840.53
717.75	2693.08
717.93	2633.69
718.11	2799.57
718.30	2535.39
718.48	2717.65
718.66	2914.26
718.84	2736.09
719.03	2670.55
719.21	2404.32
719.39	2992.08
719.57	2813.91
719.75	2803.67
719.94	2523.10
720.12	2709.46
720.30	2752.47
720.48	2801.62
720.67	2586.58
720.85	2584.54
721.03	2650.07
721.21	2521.05
721.39	2738.13
721.58	2801.62
721.76	2707.41
721.94	2693.08
722.12	2662.36
722.30	2928.60
722.49	2721.75
722.67	2670.55
722.85	2672.60
723.03	2506.71
723.21	2668.50
723.40	2711.51
723.58	2858.96
723.76	2754.52
723.94	2918.36
724.12	2693.08
724.30	2899.92
724.49	2813.91
724.67	2537.43
724.85	2785.24
725.03	2545.63
725.21	2799.57
725.40	2930.64
725.58	2553.82
725.76	2873.30
725.94	2787.29
726.12	2555.86
726.30	2688.98
726.49	2600.92
726.67	2641.88
726.85	2856.92
727.03	3127.25
727.21	3991.49
727.39	5138.35
727.57	5689.26
727.76	6088.61
727.94	6123.43
728.12	5455.79
728.30	4562.87
728.48	4216.77
728.66	3960.77
728.84	3774.41
729.03	3291.09
729.21	3102.67
729.39	3014.61
729.57	2852.82
729.75	2871.25
729.93	2760.66
730.11	2602.97
730.30	2621.40
730.48	2672.60
730.66	2809.81
730.84	2699.22
731.02	2770.90
731.20	2691.03
731.38	2695.13
731.56	2619.35
731.74	2527.19
731.93	2699.22
732.11	2775.00
732.29	2688.98
732.47	2869.20
732.65	2664.41
732.83	2854.87
733.01	2684.89
733.19	2660.31
733.37	2826.20
733.56	2631.64
733.74	2555.86
733.92	2858.96
734.10	2654.17
734.28	2746.33
734.46	2478.04
734.64	2676.70
734.82	2654.17
735.00	2590.68
735.18	2568.15
735.36	2727.89
735.54	2691.03
735.73	2656.22
735.91	2701.27
736.09	2910.16
736.27	2686.94
736.45	2711.51
736.63	2439.13
736.81	2682.84
736.99	2770.90
737.17	2977.75
737.35	2553.82
737.53	2686.94
737.71	2703.32
737.89	2922.45
738.07	2519.00
738.25	2631.64
738.43	2488.28
738.61	2654.17
738.80	2496.47
738.98	2523.10
739.16	2600.92
739.34	2574.30
739.52	2922.45
739.70	2715.61
739.88	2840.53
740.06	2762.71
740.24	2461.66
740.42	2897.88
740.60	2488.28
740.78	2629.59
740.96	2394.08
741.14	2619.35
741.32	2695.13
741.50	2498.52
741.68	2850.77
741.86	2858.96
742.04	2578.39
742.22	2568.15
742.40	2688.98
742.58	2838.48
742.76	2605.02
742.94	2781.14
743.12	2529.24
743.30	2754.52
743.48	2858.96
743.66	2637.78
743.84	2703.32
744.02	2668.50
744.20	2715.61
744.38	2639.83
744.56	2557.91
744.74	2914.26
744.92	2750.42
745.10	2832.34
745.28	2752.47
745.46	3002.32
745.64	2713.56
745.82	2768.85
746.00	2713.56
746.18	2727.89
746.36	2570.20
746.54	2711.51
746.72	2637.78
746.90	2559.96
747.08	2881.49
747.26	2619.35
747.44	2797.53
747.62	2826.20
747.80	2799.57
747.98	2756.57
748.15	2670.55
748.33	3018.71
748.51	2695.13
748.69	2754.52
748.87	2525.15
749.05	2635.74
749.23	2731.99
749.41	2654.17
749.59	2625.50
749.77	2775.00
749.95	2648.02
750.13	2543.58
750.31	2709.46
750.49	2688.98
750.67	2805.72
750.85	2820.05
751.03	2693.08
751.20	2963.41
751.38	2756.57
751.56	2678.74
751.74	2691.03
751.92	2701.27
752.10	2557.91
752.28	2858.96
752.46	2582.49
752.64	2678.74
752.82	2760.66
753.00	2813.91
753.18	2578.39
753.35	2680.79
753.53	2740.18
753.71	2619.35
753.89	2764.76
754.07	2711.51
754.25	2832.34
754.43	2676.70
754.61	2568.15
754.79	2793.43
754.97	2682.84
755.14	2832.34
755.32	2471.90
755.50	2711.51
755.68	2768.85
755.86	2562.01
756.04	2613.21
756.22	2570.20
756.40	2779.09
756.57	2930.64
756.75	2609.11
756.93	2930.64
757.11	2850.77
757.29	2529.24
757.47	2551.77
757.65	2531.29
757.82	2361.31
758.00	2627.54
758.18	2574.30
758.36	2658.26
758.54	2981.84
758.72	2494.43
758.90	2775.00
759.07	2756.57
759.25	2680.79
759.43	2797.53
759.61	2486.23
759.79	3919.81
759.97	2797.53
760.15	2572.25
760.32	2590.68
760.50	2731.99
760.68	2908.12
760.86	2549.72
761.04	2772.95
761.22	2858.96
761.39	2742.23
761.57	2695.13
761.75	2643.93
761.93	2824.15
762.11	2736.09
762.28	2678.74
762.46	2662.36
762.64	2842.58
762.82	2473.95
763.00	2586.58
763.18	2813.91
763.35	2637.78
763.53	2748.37
763.71	2717.65
763.89	2584.54
764.07	2731.99
764.24	2809.81
764.42	2807.77
764.60	2731.99
764.78	2760.66
764.96	2830.29
765.13	2766.81
765.31	2613.21
765.49	2777.05
765.67	2570.20
765.84	2609.11
766.02	2609.11
766.20	2488.28
766.38	2756.57
766.56	2777.05
766.73	2793.43
766.91	2750.42
767.09	2670.55
767.27	2736.09
767.44	2570.20
767.62	2828.24
767.80	2674.65
767.98	2650.07
768.15	2672.60
768.33	2818.00
768.51	2818.00
768.69	2797.53
768.87	2703.32
769.04	2715.61
769.22	3012.56
769.40	2811.86
769.58	2815.96
769.75	2764.76
769.93	2928.60
770.11	2584.54
770.28	2572.25
770.46	2865.11
770.64	2729.94
770.82	2664.41
770.99	2562.01
771.17	2842.58
771.35	2742.23
771.53	2654.17
771.70	2680.79
771.88	2764.76
772.06	2684.89
772.23	2582.49
772.41	2799.57
772.59	2738.13
772.77	2568.15
772.94	2635.74
773.12	2770.90
773.30	2654.17
773.47	2672.60
773.65	2619.35
773.83	2822.10
774.01	2721.75
774.18	2414.56
774.36	2637.78
774.54	2475.99
774.71	2764.76
774.89	2480.09
775.07	2602.97
775.24	2633.69
775.42	2656.22
775.60	3041.23
775.78	2564.06
775.95	2498.52
776.13	2465.75
776.31	2551.77
776.48	2789.33
776.66	2805.72
776.84	2697.17
777.01	2684.89
777.19	2594.78
777.37	2566.10
777.54	2805.72
777.72	2987.99
777.90	2770.90
778.07	2521.05
778.25	3168.21
778.43	2965.46
778.60	2613.21
778.78	2652.12
778.96	2957.27
779.13	2529.24
779.31	2760.66
779.49	2572.25
779.66	2775.00
779.84	2643.93
780.01	2584.54
780.19	2602.97
780.37	2889.68
780.54	2709.46
780.72	2559.96
780.90	2635.74
781.07	2652.12
781.25	2592.73
781.43	2721.75
781.60	2623.45
781.78	2904.02
781.95	2830.29
782.13	2570.20
782.31	2672.60
782.48	2543.58
782.66	2760.66
782.83	2858.96
783.01	2756.57
783.19	2781.14
783.36	2719.70
783.54	2562.01
783.72	2805.72
783.89	2621.40
784.07	2727.89
784.24	2648.02
784.42	2848.72
784.60	2736.09
784.77	2842.58
784.95	2418.65
785.12	2598.87
785.30	2760.66
785.47	2541.53
785.65	2543.58
785.83	2648.02
786.00	2654.17
786.18	2660.31
786.35	2547.67
786.53	2490.33
786.71	2920.40
786.88	2785.24
787.06	2678.74
787.23	2666.46
787.41	2578.39
787.58	2701.27
787.76	2625.50
787.94	2633.69
788.11	2777.05
788.29	2551.77
788.46	2576.34
788.64	2514.91
788.81	2645.98
788.99	2609.11
789.16	2568.15
789.34	2721.75
789.52	2584.54
789.69	2631.64
789.87	2467.80
790.04	2602.97
790.22	2691.03
790.39	3030.99
790.57	2553.82
790.74	2572.25
790.92	2852.82
791.09	2519.00
791.27	2688.98
791.44	2813.91
791.62	2656.22
791.79	2834.39
791.97	2652.12
792.15	3055.57
792.32	2807.77
792.50	2809.81
792.67	2758.61
792.85	2883.54
793.02	2723.80
793.20	2664.41
793.37	2469.85
793.55	2555.86
793.72	2512.86
793.90	2850.77
794.07	2529.24
794.25	2643.93
794.42	2697.17
794.60	2672.60
794.77	2740.18
794.95	2736.09
795.12	2826.20
795.30	2695.13
795.47	2439.13
795.65	3010.51
795.82	2701.27
796.00	2652.12
796.17	2643.93
796.34	2668.50
796.52	2772.95
796.69	2801.62
796.87	2723.80
797.04	2760.66
797.22	2838.48
797.39	2770.90
797.57	2680.79
797.74	2658.26
797.92	2709.46
798.09	2590.68
798.27	2893.78
798.44	2609.11
798.62	2693.08
798.79	2682.84
798.96	2678.74
799.14	2650.07
799.31	3069.91
799.49	2656.22
799.66	2594.78
799.84	2666.46
800.01	2525.15
800.19	2734.04
800.36	2408.41
800.53	2629.59
800.71	2842.58
800.88	2934.74
801.06	2693.08
801.23	2684.89
801.41	2668.50
801.58	2641.88
801.75	2605.02
801.93	2695.13
802.10	2842.58
802.28	2650.07
802.45	2623.45
802.63	2744.28
802.80	2951.12
802.97	2621.40
803.15	2643.93
803.32	2625.50
803.50	2498.52
803.67	2686.94
803.84	2545.63
804.02	2709.46
804.19	2654.17
804.37	2465.75
804.54	2555.86
804.71	2559.96
804.89	2641.88
805.06	2605.02
805.24	2578.39
805.41	2473.95
805.58	2594.78
805.76	2985.94
805.93	2639.83
806.10	2813.91
806.28	2781.14
806.45	2676.70
806.63	2729.94
806.80	2713.56
806.97	2770.90
807.15	2854.87
807.32	2656.22
807.49	2580.44
807.67	2555.86
807.84	2795.48
808.01	2488.28
808.19	2871.25
808.36	3045.33
808.54	2625.50
808.71	2605.02
808.88	2637.78
809.06	2893.78
809.23	2879.44
809.40	2670.55
809.58	2631.64
809.75	2684.89
809.92	2551.77
810.10	2854.87
810.27	2654.17
810.44	2775.00
810.62	2867.16
810.79	2707.41
810.96	2588.63
811.14	2576.34
811.31	2744.28
811.48	2768.85
811.66	2627.54
811.83	2815.96
812.00	2754.52
812.18	2750.42
812.35	2955.22
812.52	2617.30
812.69	2629.59
812.87	2629.59
813.04	2555.86
813.21	2676.70
813.39	2596.82
813.56	2523.10
813.73	2719.70
813.91	2547.67
814.08	2725.85
814.25	2662.36
814.42	2531.29
814.60	2643.93
814.77	2652.12
814.94	2580.44
815.12	2697.17
815.29	3012.56
815.46	2656.22
815.63	2633.69
815.81	2639.83
815.98	2674.65
816.15	2729.94
816.33	2639.83
816.50	2598.87
816.67	2719.70
816.84	2688.98
817.02	2533.34
817.19	2578.39
817.36	2717.65
817.53	2709.46
817.71	2535.39
817.88	2760.66
818.05	2623.45
818.22	2707.41
818.40	2826.20
818.57	2613.21
818.74	2758.61
818.91	2629.59
819.09	2846.68
819.26	2750.42
819.43	2611.16
819.60	2602.97
819.78	2703.32
819.95	2762.71
820.12	2623.45
820.29	2897.88
820.47	2865.11
820.64	2625.50
820.81	2498.52
820.98	2578.39
821.15	2686.94
821.33	2764.76
821.50	2510.81
821.67	2818.00
821.84	2494.43
822.02	2723.80
822.19	2858.96
822.36	2641.88
822.53	2670.55
822.70	2525.15
822.88	2645.98
823.05	2891.73
823.22	2637.78
823.39	2707.41
823.56	2748.37
823.74	3047.38
823.91	2562.01
824.08	2531.29
824.25	2471.90
824.42	3049.43
824.60	2494.43
824.77	2695.13
824.94	2711.51
825.11	2797.53
825.28	2602.97
825.45	2760.66
825.63	2789.33
825.80	2496.47
825.97	2744.28
826.14	2656.22
826.31	2482.14
826.48	2772.95
826.66	2539.48
826.83	2668.50
827.00	2674.65
827.17	2588.63
827.34	2609.11
827.51	2559.96
827.69	2672.60
827.86	2541.53
828.03	2684.89
828.20	2652.12
828.37	2543.58
828.54	2836.44
828.71	2559.96
828.89	2752.47
829.06	2660.31
829.23	2901.97
829.40	2584.54
829.57	2527.19
829.74	2809.81
829.91	2619.35
830.09	2582.49
830.26	2725.85
830.43	2928.60
830.60	2678.74
830.77	2719.70
830.94	2766.81
831.11	2818.00
831.28	2629.59
831.46	2731.99
831.63	2631.64
831.80	2889.68
831.97	2652.12
832.14	2676.70
832.31	2682.84
832.48	2750.42
832.65	2772.95
832.82	2703.32
832.99	2744.28
833.17	2547.67
833.34	2932.69
833.51	2621.40
833.68	2402.27
833.85	2832.34
834.02	2615.26
834.19	2553.82
834.36	2658.26
834.53	2746.33
834.70	2840.53
834.87	2703.32
835.04	2447.32
835.22	2576.34
835.39	2660.31
835.56	2551.77
835.73	2564.06
835.90	2758.61
836.07	2539.48
836.24	2635.74
836.41	2586.58
836.58	2641.88
836.75	2809.81
836.92	2594.78
837.09	2519.00
837.26	2744.28
837.43	2701.27
837.60	2602.97
837.77	2531.29
837.94	2797.53
838.12	2842.58
838.29	2514.91
838.46	2482.14
838.63	2566.10
838.80	2885.59
838.97	2611.16
839.14	2508.76
839.31	2725.85
839.48	2799.57
839.65	2576.34
839.82	2621.40
839.99	2701.27
840.16	2676.70
840.33	2519.00
840.50	2598.87
840.67	2541.53
840.84	2387.93
841.01	2512.86
841.18	2586.58
841.35	2672.60
841.52	2768.85
841.69	2906.07
841.86	2662.36
842.03	2766.81
842.20	2887.64
842.37	2502.62
842.54	2623.45
842.71	2760.66
842.88	2516.95
843.05	2562.01
843.22	2568.15
843.39	2842.58
843.56	2621.40
843.73	2600.92
843.90	2576.34
844.07	2703.32
844.24	2820.05
844.41	2643.93
844.58	2625.50
844.75	2711.51
844.92	2725.85
845.09	2666.46
845.26	2521.05
845.43	2799.57
845.60	2629.59
845.77	2674.65
845.94	2621.40
846.10	2867.16
846.27	2500.57
846.44	2533.34
846.61	2531.29
846.78	2783.19
846.95	2828.24
847.12	2516.95
847.29	2594.78
847.46	2639.83
847.63	2830.29
847.80	2451.42
847.97	2590.68
848.14	3037.14
848.31	2662.36
848.48	2496.47
848.65	2574.30
848.82	2605.02
848.98	2987.99
849.15	2643.93
849.32	2672.60
849.49	2779.09
849.66	2617.30
849.83	2551.77
850.00	2568.15
850.17	2895.83
850.34	2629.59
850.51	2539.48
850.68	2580.44
850.85	3080.14
851.01	2731.99
851.18	2516.95
851.35	2553.82
851.52	2803.67
851.69	2908.12
851.86	2494.43
852.03	2557.91
852.20	2746.33
852.37	2709.46
852.53	2492.38
852.70	2527.19
852.87	2785.24
853.04	2775.00
853.21	2562.01
853.38	2734.04
853.55	2912.21
853.72	2887.64
853.89	2502.62
854.05	2574.30
854.22	2658.26
854.39	2691.03
854.56	2478.04
854.73	2725.85
854.90	2637.78
855.07	2688.98
855.23	2490.33
855.40	2500.57
855.57	2621.40
855.74	2443.23
855.91	2752.47
856.08	2488.28
856.25	2539.48
856.41	2693.08
856.58	2541.53
856.75	2562.01
856.92	2596.82
857.09	2793.43
857.26	2441.18
857.42	2498.52
857.59	2910.16
857.76	2678.74
857.93	2543.58
858.10	2617.30
858.27	2521.05
858.43	2680.79
858.60	2549.72
858.77	2439.13
858.94	2695.13
859.11	2838.48
859.27	2590.68
859.44	2467.80
859.61	3045.33
859.78	2799.57
859.95	2559.96
860.12	2535.39
860.28	2918.36
860.45	3039.19
860.62	2506.71
860.79	2617.30
860.95	2648.02
861.12	2625.50
861.29	2504.67
861.46	2510.81
861.63	2766.81
861.79	2719.70
861.96	2496.47
862.13	2537.43
862.30	2904.02
862.47	2621.40
862.63	2486.23
862.80	2697.17
862.97	2752.47
863.14	2746.33
863.30	2658.26
863.47	2478.04
863.64	2922.45
863.81	2729.94
863.97	2469.85
864.14	2629.59
864.31	2688.98
864.48	2770.90
864.65	2531.29
864.81	2691.03
864.98	2838.48
865.15	2916.31
865.32	2617.30
865.48	2725.85
865.65	2924.50
865.82	2600.92
865.98	2617.30
866.15	2631.64
866.32	2652.12
866.49	2605.02
866.65	2807.77
866.82	2502.62
866.99	2688.98
867.16	2576.34
867.32	2564.06
867.49	2445.27
867.66	2637.78
867.83	2584.54
867.99	2435.03
868.16	2590.68
868.33	2529.24
868.49	2645.98
868.66	2504.67
868.83	2662.36
868.99	2711.51
869.16	2756.57
869.33	2678.74
869.50	2656.22
869.66	2635.74
869.83	2656.22
870.00	2430.94
870.16	2623.45
870.33	2660.31
870.50	2783.19
870.66	2625.50
870.83	2678.74
871.00	2793.43
871.17	2807.77
871.33	2605.02
871.50	2484.19
871.67	2676.70
871.83	2578.39
872.00	2697.17
872.17	2621.40
872.33	2936.79
872.50	2809.81
872.67	2535.39
872.83	2566.10
873.00	2699.22
873.17	2676.70
873.33	2590.68
873.50	2605.02
873.67	2586.58
873.83	2574.30
874.00	2594.78
874.16	2691.03
874.33	2740.18
874.50	2473.95
874.66	2564.06
874.83	2607.06
875.00	2838.48
875.16	2836.44
875.33	2707.41
875.50	2379.74
875.66	2717.65
875.83	2697.17
875.99	2596.82
876.16	2600.92
876.33	2549.72
876.49	2701.27
876.66	2621.40
876.83	2592.73
876.99	2432.99
877.16	2719.70
877.32	2506.71
877.49	2557.91
877.66	2750.42
877.82	2942.93
877.99	2623.45
878.15	2801.62
878.32	2725.85
878.49	2686.94
878.65	2641.88
878.82	2711.51
878.98	2619.35
879.15	2750.42
879.32	2719.70
879.48	2682.84
879.65	2656.22
879.81	2660.31
879.98	2564.06
880.15	2562.01
880.31	2787.29
880.48	2574.30
880.64	2693.08
880.81	2672.60
880.97	2979.79
881.14	2887.64
881.31	2557.91
881.47	2703.32
881.64	2740.18
881.80	2475.99
881.97	2697.17
882.13	2693.08
882.30	2531.29
882.47	2580.44
882.63	2504.67
882.80	2625.50
882.96	2680.79
883.13	2906.07
883.29	2576.34
883.46	2576.34
883.62	3039.19
883.79	2711.51
883.95	2678.74
884.12	2600.92
884.29	2901.97
884.45	2758.61
884.62	2568.15
884.78	2486.23
884.95	3041.23
885.11	2648.02
885.28	2613.21
885.44	2576.34
885.61	2824.15
885.77	2891.73
885.94	2789.33
886.10	2602.97
886.27	2727.89
886.43	2938.84
886.60	2729.94
886.76	2543.58
886.93	2650.07
887.09	2768.85
887.26	2439.13
887.42	2598.87
887.59	2797.53
887.75	3010.51
887.92	2768.85
888.08	2740.18
888.25	2936.79
888.41	2822.10
888.58	2586.58
888.74	2492.38
888.91	2629.59
>>>>>End Processed Spectral Data<<<<<
