SpectraSuite Data File
++++++++++++++++++++++++++++++++++++
Date: Thu May 05 16:20:18 CEST 2016
User: root
Dark Spectrum Present: No
Reference Spectrum Present: No
Number of Sampled Component Spectra: 1
Spectrometers: USB4C02835
Integration Time (usec): 100000 (USB4C02835)
Spectra Averaged: 1 (USB4C02835)
Boxcar Smoothing: 0 (USB4C02835)
Correct for Electrical Dark: No (USB4C02835)
Strobe/Lamp Enabled: No (USB4C02835)
Correct for Detector Non-linearity: No (USB4C02835)
Correct for Stray Light: No (USB4C02835)
Number of Pixels in Processed Spectrum: 3648
>>>>>Begin Processed Spectral Data<<<<<
177.47	2000.87
177.69	2000.87
177.91	2000.87
178.13	2025.44
178.36	2023.39
178.58	2539.48
178.80	2695.13
179.02	2482.14
179.24	2564.06
179.46	2465.75
179.68	2545.63
179.90	2738.13
180.13	2725.85
180.35	2404.32
180.57	2514.91
180.79	2805.72
181.01	2707.41
181.23	2480.09
181.45	2629.59
181.67	2818.00
181.90	2863.06
182.12	2512.86
182.34	2437.08
182.56	2791.38
182.78	2768.85
183.00	2498.52
183.22	2580.44
183.44	2441.18
183.66	3119.06
183.89	2615.26
184.11	2588.63
184.33	2818.00
184.55	2891.73
184.77	2480.09
184.99	2553.82
185.21	2596.82
185.43	3055.57
185.65	2555.86
185.87	2504.67
186.10	3147.73
186.32	3133.39
186.54	2568.15
186.76	2586.58
186.98	2844.63
187.20	2660.31
187.42	2543.58
187.64	2555.86
187.86	2901.97
188.08	2852.82
188.30	2408.41
188.52	2512.86
188.75	2914.26
188.97	2899.92
189.19	2523.10
189.41	2455.51
189.63	2865.11
189.85	2691.03
190.07	2426.84
190.29	2377.69
190.51	2842.58
190.73	2566.10
190.95	2549.72
191.17	2543.58
191.39	2547.67
191.61	2697.17
191.84	2514.91
192.06	2529.24
192.28	2496.47
192.50	3143.63
192.72	2637.78
192.94	2547.67
193.16	2906.07
193.38	2797.53
193.60	2469.85
193.82	2523.10
194.04	2865.11
194.26	2699.22
194.48	2559.96
194.70	2576.34
194.92	2641.88
195.14	2785.24
195.36	2473.95
195.58	2592.73
195.80	2719.70
196.02	2596.82
196.24	2467.80
196.46	2590.68
196.69	2682.84
196.91	3092.43
197.13	2496.47
197.35	2510.81
197.57	2965.46
197.79	2766.81
198.01	2592.73
198.23	2623.45
198.45	2779.09
198.67	2519.00
198.89	2408.41
199.11	2652.12
199.33	2695.13
199.55	2361.31
199.77	2475.99
199.99	2627.54
200.21	2674.65
200.43	2705.37
200.65	2332.64
200.87	2404.32
201.09	2703.32
201.31	2602.97
201.53	2541.53
201.75	2598.87
201.97	2834.39
202.19	2619.35
202.41	2582.49
202.63	2658.26
202.85	2752.47
203.07	2754.52
203.29	2519.00
203.51	2426.84
203.73	2602.97
203.95	3186.64
204.17	2568.15
204.39	2576.34
204.61	2744.28
204.83	2734.04
205.05	2633.69
205.27	2553.82
205.49	3008.47
205.71	2760.66
205.93	2385.88
206.15	2471.90
206.37	2752.47
206.59	2674.65
206.81	2369.50
207.03	2424.80
207.25	2535.39
207.47	2691.03
207.69	2504.67
207.91	2650.07
208.13	3012.56
208.34	2555.86
208.56	2455.51
208.78	2553.82
209.00	2707.41
209.22	2686.94
209.44	2535.39
209.66	2545.63
209.88	2719.70
210.10	2627.54
210.32	2545.63
210.54	2652.12
210.76	2754.52
210.98	2867.16
211.20	2375.64
211.42	2572.25
211.64	2893.78
211.86	2781.14
212.08	2475.99
212.30	2435.03
212.52	2598.87
212.74	2746.33
212.96	2564.06
213.17	2613.21
213.39	2850.77
213.61	2928.60
213.83	2502.62
214.05	2463.71
214.27	2826.20
214.49	2598.87
214.71	2514.91
214.93	2650.07
215.15	2752.47
215.37	2858.96
215.59	2414.56
215.81	2574.30
216.03	2936.79
216.24	2729.94
216.46	2478.04
216.68	2496.47
216.90	2848.72
217.12	2953.17
217.34	2445.27
217.56	2652.12
217.78	2858.96
218.00	2791.38
218.22	2566.10
218.44	2541.53
218.66	2760.66
218.87	2994.13
219.09	2500.57
219.31	2539.48
219.53	2768.85
219.75	2635.74
219.97	2564.06
220.19	2596.82
220.41	2721.75
220.63	2963.41
220.85	2580.44
221.06	2572.25
221.28	2846.68
221.50	2836.44
221.72	2543.58
221.94	2387.93
222.16	2713.56
222.38	2858.96
222.60	2502.62
222.82	2510.81
223.03	2824.15
223.25	2598.87
223.47	2445.27
223.69	2770.90
223.91	2801.62
224.13	2799.57
224.35	2443.23
224.57	2715.61
224.78	2848.72
225.00	2580.44
225.22	2609.11
225.44	2516.95
225.66	2912.21
225.88	2643.93
226.10	2588.63
226.32	2564.06
226.53	2947.03
226.75	2682.84
226.97	2586.58
227.19	2531.29
227.41	2594.78
227.63	2631.64
227.85	2342.88
228.06	2568.15
228.28	2775.00
228.50	2861.01
228.72	2424.80
228.94	2478.04
229.16	2447.32
229.37	2588.63
229.59	2480.09
229.81	2742.23
230.03	2766.81
230.25	2490.33
230.47	2357.21
230.69	2449.37
230.90	2852.82
231.12	2566.10
231.34	2551.77
231.56	2572.25
231.78	2559.96
232.00	2652.12
232.21	2580.44
232.43	2541.53
232.65	2404.32
232.87	2746.33
233.09	2396.12
233.30	2455.51
233.52	2930.64
233.74	2658.26
233.96	2441.18
234.18	2686.94
234.40	2699.22
234.61	3080.14
234.83	2357.21
235.05	2369.50
235.27	3092.43
235.49	2891.73
235.70	2447.32
235.92	2559.96
236.14	2846.68
236.36	3133.39
236.58	2373.60
236.79	2590.68
237.01	2727.89
237.23	2650.07
237.45	2719.70
237.67	2475.99
237.88	2775.00
238.10	3022.80
238.32	2490.33
238.54	2523.10
238.76	2717.65
238.97	2582.49
239.19	2475.99
239.41	2605.02
239.63	2848.72
239.85	2625.50
240.06	2574.30
240.28	2547.67
240.50	2809.81
240.72	2754.52
240.93	2457.56
241.15	2596.82
241.37	2609.11
241.59	2840.53
241.81	2527.19
242.02	2539.48
242.24	2783.19
242.46	2789.33
242.68	2379.74
242.89	2494.43
243.11	2901.97
243.33	2715.61
243.55	2519.00
243.76	2531.29
243.98	2564.06
244.20	2764.76
244.42	2547.67
244.64	2496.47
244.85	2506.71
245.07	2596.82
245.29	2506.71
245.51	2523.10
245.72	2775.00
245.94	2858.96
246.16	2482.14
246.38	2547.67
246.59	2672.60
246.81	2508.76
247.03	2357.21
247.24	2406.36
247.46	2590.68
247.68	2719.70
247.90	2475.99
248.11	2535.39
248.33	2875.35
248.55	2686.94
248.77	2596.82
248.98	2605.02
249.20	3002.32
249.42	2697.17
249.64	2549.72
249.85	2523.10
250.07	2652.12
250.29	2828.24
250.50	2570.20
250.72	2467.80
250.94	2758.61
251.16	3041.23
251.37	2439.13
251.59	2637.78
251.81	2768.85
252.02	2961.36
252.24	2447.32
252.46	2691.03
252.68	2555.86
252.89	2637.78
253.11	2379.74
253.33	2731.99
253.54	2955.22
253.76	2504.67
253.98	2566.10
254.20	2461.66
254.41	2527.19
254.63	2691.03
254.85	2443.23
255.06	2559.96
255.28	2723.80
255.50	2680.79
255.71	2506.71
255.93	2369.50
256.15	2662.36
256.36	2795.48
256.58	2430.94
256.80	2508.76
257.02	2713.56
257.23	2662.36
257.45	2562.01
257.67	2572.25
257.88	2637.78
258.10	2885.59
258.32	2457.56
258.53	2594.78
258.75	2901.97
258.97	2596.82
259.18	2525.15
259.40	2537.43
259.62	2965.46
259.83	2861.01
260.05	2539.48
260.27	3192.78
260.48	2881.49
260.70	2607.06
260.92	2496.47
261.13	2506.71
261.35	2725.85
261.57	2703.32
261.78	2373.60
262.00	2498.52
262.22	2766.81
262.43	2572.25
262.65	2504.67
262.86	2553.82
263.08	3119.06
263.30	2772.95
263.51	2420.70
263.73	2492.38
263.95	2957.27
264.16	2611.16
264.38	2414.56
264.60	2469.85
264.81	2734.04
265.03	2875.35
265.25	2789.33
265.46	2535.39
265.68	2881.49
265.89	2787.29
266.11	2379.74
266.33	2500.57
266.54	2865.11
266.76	2775.00
266.98	2568.15
267.19	2617.30
267.41	2873.30
267.62	2658.26
267.84	2441.18
268.06	2592.73
268.27	2701.27
268.49	2920.40
268.70	2619.35
268.92	2490.33
269.14	2611.16
269.35	2572.25
269.57	2555.86
269.79	2580.44
270.00	2639.83
270.22	2998.23
270.43	2371.55
270.65	2365.40
270.87	2768.85
271.08	2809.81
271.30	2598.87
271.51	2582.49
271.73	2752.47
271.95	2865.11
272.16	2500.57
272.38	2721.75
272.59	2662.36
272.81	2887.64
273.02	2412.51
273.24	2621.40
273.46	2891.73
273.67	2545.63
273.89	2406.36
274.10	2498.52
274.32	2869.20
274.54	2820.05
274.75	2590.68
274.97	2533.34
275.18	2787.29
275.40	2725.85
275.61	2584.54
275.83	2629.59
276.05	2586.58
276.26	2656.22
276.48	2570.20
276.69	2525.15
276.91	2693.08
277.12	2883.54
277.34	2709.46
277.55	2709.46
277.77	2740.18
277.99	2766.81
278.20	2611.16
278.42	2539.48
278.63	2514.91
278.85	2586.58
279.06	2539.48
279.28	2717.65
279.49	2846.68
279.71	2805.72
279.93	2602.97
280.14	2639.83
280.36	2605.02
280.57	2871.25
280.79	2670.55
281.00	2533.34
281.22	2674.65
281.43	2799.57
281.65	2422.75
281.86	2457.56
282.08	2811.86
282.29	3000.27
282.51	2455.51
282.73	2453.47
282.94	2443.23
283.16	2852.82
283.37	2719.70
283.59	2607.06
283.80	2701.27
284.02	2674.65
284.23	2619.35
284.45	2637.78
284.66	2629.59
284.88	2596.82
285.09	2701.27
285.31	2719.70
285.52	2809.81
285.74	2490.33
285.95	2684.89
286.17	2666.46
286.38	2918.36
286.60	2637.78
286.81	2564.06
287.03	2531.29
287.24	2680.79
287.46	2854.87
287.67	2607.06
287.89	2836.44
288.10	2637.78
288.32	2676.70
288.53	2721.75
288.75	2645.98
288.96	2766.81
289.18	2564.06
289.39	2533.34
289.61	2674.65
289.82	3061.71
290.04	2949.08
290.25	2490.33
290.47	2693.08
290.68	2711.51
290.90	2865.11
291.11	2422.75
291.33	2723.80
291.54	2564.06
291.76	2623.45
291.97	2672.60
292.18	2668.50
292.40	2695.13
292.61	2695.13
292.83	2856.92
293.04	2613.21
293.26	2715.61
293.47	2598.87
293.69	2553.82
293.90	2566.10
294.12	2865.11
294.33	2742.23
294.55	2621.40
294.76	2781.14
294.97	2873.30
295.19	3094.48
295.40	2592.73
295.62	2717.65
295.83	2875.35
296.05	2621.40
296.26	2752.47
296.48	2592.73
296.69	2723.80
296.90	2633.69
297.12	2738.13
297.33	2717.65
297.55	2863.06
297.76	2729.94
297.98	2676.70
298.19	2746.33
298.41	2752.47
298.62	2576.34
298.83	2750.42
299.05	2721.75
299.26	2648.02
299.48	2639.83
299.69	2613.21
299.90	2619.35
300.12	2621.40
300.33	2801.62
300.55	2578.39
300.76	2664.41
300.98	2582.49
301.19	2891.73
301.40	2637.78
301.62	2639.83
301.83	2801.62
302.05	2648.02
302.26	2580.44
302.47	2668.50
302.69	2637.78
302.90	2772.95
303.12	2357.21
303.33	2695.13
303.54	3016.66
303.76	2676.70
303.97	2658.26
304.19	2793.43
304.40	2633.69
304.61	2785.24
304.83	2764.76
305.04	2629.59
305.26	2746.33
305.47	2723.80
305.68	2609.11
305.90	2463.71
306.11	2938.84
306.33	2742.23
306.54	2506.71
306.75	2598.87
306.97	2557.91
307.18	2609.11
307.39	2496.47
307.61	2752.47
307.82	2652.12
308.04	2838.48
308.25	2471.90
308.46	2666.46
308.68	2652.12
308.89	2711.51
309.10	2789.33
309.32	2609.11
309.53	2758.61
309.74	2793.43
309.96	2519.00
310.17	2766.81
310.39	2670.55
310.60	2738.13
310.81	2609.11
311.03	2578.39
311.24	2777.05
311.45	2725.85
311.67	2850.77
311.88	2680.79
312.09	2621.40
312.31	2621.40
312.52	2586.58
312.73	2605.02
312.95	2490.33
313.16	2510.81
313.37	2797.53
313.59	2678.74
313.80	2807.77
314.01	2920.40
314.23	2678.74
314.44	2545.63
314.65	2557.91
314.87	2670.55
315.08	2639.83
315.29	2568.15
315.51	2568.15
315.72	2535.39
315.93	2721.75
316.15	2645.98
316.36	2596.82
316.57	2684.89
316.79	2629.59
317.00	2570.20
317.21	2881.49
317.43	2602.97
317.64	2674.65
317.85	2519.00
318.07	2609.11
318.28	2635.74
318.49	2785.24
318.70	2807.77
318.92	2775.00
319.13	2801.62
319.34	2793.43
319.56	2662.36
319.77	2877.40
319.98	2836.44
320.20	2789.33
320.41	2674.65
320.62	2842.58
320.83	2529.24
321.05	2775.00
321.26	2613.21
321.47	2785.24
321.69	2928.60
321.90	2562.01
322.11	2500.57
322.32	2789.33
322.54	2965.46
322.75	2668.50
322.96	3178.45
323.18	2521.05
323.39	2435.03
323.60	2504.67
323.81	2652.12
324.03	2605.02
324.24	2709.46
324.45	2676.70
324.66	2613.21
324.88	2918.36
325.09	2985.94
325.30	2543.58
325.52	2641.88
325.73	2777.05
325.94	2553.82
326.15	2523.10
326.37	2523.10
326.58	2858.96
326.79	2922.45
327.00	2506.71
327.22	2643.93
327.43	2709.46
327.64	2574.30
327.85	2680.79
328.07	2613.21
328.28	3057.62
328.49	2609.11
328.70	2594.78
328.92	2617.30
329.13	2684.89
329.34	2750.42
329.55	2818.00
329.76	2764.76
329.98	2801.62
330.19	2967.51
330.40	2684.89
330.61	2703.32
330.83	2815.96
331.04	2607.06
331.25	2562.01
331.46	2594.78
331.68	2529.24
331.89	2912.21
332.10	2637.78
332.31	2486.23
332.52	2756.57
332.74	2930.64
332.95	2521.05
333.16	2602.97
333.37	2854.87
333.58	2707.41
333.80	2578.39
334.01	2383.84
334.22	2713.56
334.43	2539.48
334.64	2578.39
334.86	2523.10
335.07	2633.69
335.28	2881.49
335.49	2514.91
335.70	2670.55
335.92	2983.89
336.13	3071.95
336.34	2621.40
336.55	2662.36
336.76	2775.00
336.98	2469.85
337.19	2662.36
337.40	2779.09
337.61	3110.86
337.82	2625.50
338.04	2723.80
338.25	2451.42
338.46	2668.50
338.67	2744.28
338.88	2576.34
339.09	2475.99
339.31	2719.70
339.52	2555.86
339.73	2582.49
339.94	2668.50
340.15	2813.91
340.36	2607.06
340.58	2674.65
340.79	2537.43
341.00	2815.96
341.21	2525.15
341.42	2801.62
341.63	2605.02
341.85	2869.20
342.06	2744.28
342.27	2541.53
342.48	2719.70
342.69	2547.67
342.90	2789.33
343.12	2848.72
343.33	2527.19
343.54	2867.16
343.75	2981.84
343.96	2602.97
344.17	2557.91
344.38	2656.22
344.60	2600.92
344.81	2471.90
345.02	2596.82
345.23	2887.64
345.44	3092.43
345.65	2643.93
345.86	2682.84
346.07	2818.00
346.29	2609.11
346.50	2662.36
346.71	2660.31
346.92	2865.11
347.13	3061.71
347.34	2680.79
347.55	2523.10
347.76	2744.28
347.98	2480.09
348.19	2627.54
348.40	2777.05
348.61	2627.54
348.82	2920.40
349.03	2686.94
349.24	2506.71
349.45	2973.65
349.66	2371.55
349.88	2553.82
350.09	2574.30
350.30	2996.18
350.51	2873.30
350.72	2705.37
350.93	2619.35
351.14	2617.30
351.35	2740.18
351.56	2625.50
351.77	2584.54
351.99	2840.53
352.20	2873.30
352.41	2682.84
352.62	2424.80
352.83	2586.58
353.04	2715.61
353.25	2607.06
353.46	2580.44
353.67	2799.57
353.88	2506.71
354.09	2635.74
354.30	2596.82
354.52	2709.46
354.73	2701.27
354.94	2566.10
355.15	2621.40
355.36	3037.14
355.57	2783.19
355.78	2533.34
355.99	2629.59
356.20	2652.12
356.41	2889.68
356.62	2719.70
356.83	2635.74
357.04	2973.65
357.25	2447.32
357.46	2598.87
357.68	2475.99
357.89	2521.05
358.10	2772.95
358.31	2625.50
358.52	2596.82
358.73	2500.57
358.94	2512.86
359.15	2586.58
359.36	2668.50
359.57	2680.79
359.78	2719.70
359.99	2779.09
360.20	2471.90
360.41	2719.70
360.62	2791.38
360.83	2691.03
361.04	2713.56
361.25	2789.33
361.46	2940.88
361.67	2717.65
361.88	2658.26
362.09	2803.67
362.30	2734.04
362.51	2598.87
362.72	2654.17
362.93	2858.96
363.14	2734.04
363.35	2566.10
363.56	2541.53
363.78	2922.45
363.99	2791.38
364.20	2539.48
364.41	2684.89
364.62	3002.32
364.83	2805.72
365.04	2633.69
365.25	2686.94
365.46	3055.57
365.67	2617.30
365.88	2670.55
366.09	2625.50
366.30	2641.88
366.51	2758.61
366.72	2504.67
366.93	2580.44
367.14	2746.33
367.35	2932.69
367.56	2555.86
367.77	2707.41
367.98	2590.68
368.18	2828.24
368.39	2707.41
368.60	2502.62
368.81	2822.10
369.02	2701.27
369.23	2605.02
369.44	2441.18
369.65	2674.65
369.86	2840.53
370.07	2678.74
370.28	2494.43
370.49	2750.42
370.70	2832.34
370.91	2510.81
371.12	2469.85
371.33	2901.97
371.54	2695.13
371.75	2729.94
371.96	2414.56
372.17	2670.55
372.38	2723.80
372.59	2717.65
372.80	2555.86
373.01	2650.07
373.22	2818.00
373.43	2566.10
373.64	2404.32
373.85	2914.26
374.06	3008.47
374.26	2719.70
374.47	2680.79
374.68	2947.03
374.89	2803.67
375.10	2457.56
375.31	2699.22
375.52	2793.43
375.73	2686.94
375.94	2498.52
376.15	2746.33
376.36	2594.78
376.57	2611.16
376.78	2537.43
376.99	2707.41
377.20	2908.12
377.40	2598.87
377.61	2830.29
377.82	2543.58
378.03	2893.78
378.24	2850.77
378.45	2744.28
378.66	2662.36
378.87	2506.71
379.08	2521.05
379.29	2617.30
379.50	2789.33
379.71	2672.60
379.91	2772.95
380.12	2645.98
380.33	2621.40
380.54	2660.31
380.75	2760.66
380.96	2631.64
381.17	2748.37
381.38	2729.94
381.59	2734.04
381.80	2672.60
382.00	2783.19
382.21	2764.76
382.42	3090.38
382.63	2955.22
382.84	2670.55
383.05	2858.96
383.26	2889.68
383.47	2695.13
383.68	2686.94
383.88	2815.96
384.09	2709.46
384.30	2904.02
384.51	2738.13
384.72	2637.78
384.93	2543.58
385.14	2623.45
385.35	2752.47
385.55	2559.96
385.76	2906.07
385.97	2676.70
386.18	2559.96
386.39	2562.01
386.60	2572.25
386.81	2615.26
387.02	2570.20
387.22	2514.91
387.43	2805.72
387.64	2805.72
387.85	2873.30
388.06	2856.92
388.27	3968.96
388.48	7481.23
388.68	11056.98
388.89	13532.98
389.10	14497.57
389.31	13877.04
389.52	10968.92
389.73	9385.84
389.93	8703.87
390.14	7886.73
390.35	7124.88
390.56	6510.49
390.77	5242.80
390.98	4110.27
391.18	3430.35
391.39	3145.68
391.60	2799.57
391.81	2734.04
392.02	2555.86
392.23	3096.53
392.43	2772.95
392.64	2715.61
392.85	2678.74
393.06	2983.89
393.27	2666.46
393.47	2553.82
393.68	2695.13
393.89	2695.13
394.10	2920.40
394.31	2656.22
394.52	2576.34
394.72	2652.12
394.93	2912.21
395.14	2564.06
395.35	2725.85
395.56	2666.46
395.76	2738.13
395.97	2697.17
396.18	2787.29
396.39	2772.95
396.60	3289.04
396.80	2955.22
397.01	2736.09
397.22	2932.69
397.43	2895.83
397.64	2609.11
397.84	2734.04
398.05	2940.88
398.26	2705.37
398.47	2760.66
398.67	2801.62
398.88	2705.37
399.09	2875.35
399.30	2547.67
399.51	2742.23
399.71	2590.68
399.92	2660.31
400.13	2748.37
400.34	2613.21
400.54	2695.13
400.75	3016.66
400.96	2715.61
401.17	2897.88
401.37	2777.05
401.58	2682.84
401.79	2588.63
402.00	2760.66
402.21	3082.19
402.41	2901.97
402.62	2979.79
402.83	2996.18
403.04	3112.91
403.24	3297.23
403.45	2731.99
403.66	2877.40
403.87	2930.64
404.07	2953.17
404.28	2930.64
404.49	2850.77
404.70	2719.70
404.90	2858.96
405.11	2725.85
405.32	2725.85
405.52	2602.97
405.73	2613.21
405.94	2643.93
406.15	2701.27
406.35	2858.96
406.56	2848.72
406.77	2729.94
406.98	2709.46
407.18	2643.93
407.39	2873.30
407.60	2684.89
407.80	2738.13
408.01	2682.84
408.22	2740.18
408.43	2650.07
408.63	2678.74
408.84	2887.64
409.05	2809.81
409.25	2568.15
409.46	2564.06
409.67	2635.74
409.88	2516.95
410.08	2635.74
410.29	2617.30
410.50	2914.26
410.70	2879.44
410.91	2566.10
411.12	2596.82
411.32	2691.03
411.53	2615.26
411.74	2695.13
411.95	2766.81
412.15	2824.15
412.36	2875.35
412.57	2711.51
412.77	2799.57
412.98	2748.37
413.19	2658.26
413.39	2666.46
413.60	2639.83
413.81	2942.93
414.01	2551.77
414.22	2731.99
414.43	2711.51
414.63	2568.15
414.84	2877.40
415.05	2703.32
415.25	2586.58
415.46	2844.63
415.67	2619.35
415.87	2674.65
416.08	2670.55
416.29	2682.84
416.49	2770.90
416.70	2596.82
416.91	2578.39
417.11	2652.12
417.32	2906.07
417.53	2711.51
417.73	2688.98
417.94	2666.46
418.15	2822.10
418.35	2691.03
418.56	2717.65
418.77	3178.45
418.97	2697.17
419.18	2635.74
419.38	2420.70
419.59	2699.22
419.80	2928.60
420.00	2580.44
420.21	2623.45
420.42	2848.72
420.62	2775.00
420.83	2648.02
421.04	2594.78
421.24	2709.46
421.45	2887.64
421.65	2746.33
421.86	2643.93
422.07	2883.54
422.27	2754.52
422.48	2600.92
422.69	2506.71
422.89	2666.46
423.10	2680.79
423.30	2527.19
423.51	2731.99
423.72	2820.05
423.92	2881.49
424.13	2459.61
424.33	2744.28
424.54	2875.35
424.75	2691.03
424.95	2867.16
425.16	2639.83
425.36	2736.09
425.57	2871.25
425.78	2803.67
425.98	2703.32
426.19	2699.22
426.39	2574.30
426.60	2678.74
426.81	2727.89
427.01	2670.55
427.22	2523.10
427.42	2424.80
427.63	2600.92
427.83	2938.84
428.04	2854.87
428.25	2777.05
428.45	2775.00
428.66	2942.93
428.86	2674.65
429.07	2625.50
429.28	2670.55
429.48	2711.51
429.69	2564.06
429.89	2678.74
430.10	2508.76
430.30	2779.09
430.51	2834.39
430.71	2619.35
430.92	2652.12
431.13	2637.78
431.33	2838.48
431.54	2631.64
431.74	2838.48
431.95	3014.61
432.15	2633.69
432.36	2664.41
432.56	2725.85
432.77	3006.42
432.98	2938.84
433.18	2715.61
433.39	2594.78
433.59	2629.59
433.80	3033.04
434.00	2854.87
434.21	2717.65
434.41	2590.68
434.62	3049.43
434.82	2547.67
435.03	2521.05
435.23	2729.94
435.44	2482.14
435.64	2652.12
435.85	2699.22
436.06	2779.09
436.26	2867.16
436.47	2594.78
436.67	2570.20
436.88	2721.75
437.08	2942.93
437.29	2844.63
437.49	2740.18
437.70	2832.34
437.90	2729.94
438.11	2891.73
438.31	2662.36
438.52	2975.70
438.72	2908.12
438.93	2912.21
439.13	2691.03
439.34	2822.10
439.54	2727.89
439.75	2758.61
439.95	2748.37
440.16	2580.44
440.36	2756.57
440.57	2654.17
440.77	2697.17
440.98	2815.96
441.18	2772.95
441.39	2600.92
441.59	2547.67
441.80	3104.72
442.00	2721.75
442.21	2803.67
442.41	2557.91
442.62	2885.59
442.82	2668.50
443.02	2625.50
443.23	2691.03
443.43	2645.98
443.64	2889.68
443.84	2566.10
444.05	2762.71
444.25	2787.29
444.46	2740.18
444.66	2656.22
444.87	2836.44
445.07	2500.57
445.28	2705.37
445.48	2766.81
445.69	2693.08
445.89	3096.53
446.09	2658.26
446.30	3022.80
446.50	3024.85
446.71	4515.77
446.91	5656.49
447.12	6471.58
447.32	6942.61
447.53	6696.86
447.73	5504.94
447.93	4616.12
448.14	4491.20
448.34	4437.95
448.55	3911.62
448.75	3815.37
448.96	3579.85
449.16	3446.73
449.36	3342.28
449.57	2987.99
449.77	2656.22
449.98	2707.41
450.18	2809.81
450.39	2684.89
450.59	2793.43
450.79	2787.29
451.00	2713.56
451.20	2756.57
451.41	2658.26
451.61	2822.10
451.81	2666.46
452.02	2559.96
452.22	2629.59
452.43	2648.02
452.63	2555.86
452.84	2648.02
453.04	2549.72
453.24	2766.81
453.45	2631.64
453.65	2645.98
453.86	2682.84
454.06	2758.61
454.26	2711.51
454.47	2582.49
454.67	2877.40
454.87	2789.33
455.08	2645.98
455.28	2783.19
455.49	2731.99
455.69	2594.78
455.89	3037.14
456.10	2740.18
456.30	2570.20
456.51	2850.77
456.71	2766.81
456.91	2686.94
457.12	2645.98
457.32	2832.34
457.52	2537.43
457.73	2762.71
457.93	2756.57
458.14	2643.93
458.34	2533.34
458.54	2686.94
458.75	2645.98
458.95	2910.16
459.15	2754.52
459.36	2734.04
459.56	2682.84
459.76	3037.14
459.97	2703.32
460.17	2688.98
460.37	2740.18
460.58	2815.96
460.78	2838.48
460.99	2664.41
461.19	2672.60
461.39	2723.80
461.60	2637.78
461.80	2680.79
462.00	2578.39
462.21	2719.70
462.41	2607.06
462.61	2568.15
462.82	2502.62
463.02	2828.24
463.22	2670.55
463.43	2699.22
463.63	2686.94
463.83	2906.07
464.04	2764.76
464.24	2678.74
464.44	2578.39
464.64	2748.37
464.85	2881.49
465.05	2703.32
465.25	2688.98
465.46	2703.32
465.66	2834.39
465.86	2721.75
466.07	2639.83
466.27	2723.80
466.47	2572.25
466.68	2562.01
466.88	2777.05
467.08	2783.19
467.29	2842.58
467.49	2680.79
467.69	2713.56
467.89	2818.00
468.10	2688.98
468.30	2621.40
468.50	2740.18
468.71	2865.11
468.91	2525.15
469.11	2836.44
469.31	2652.12
469.52	2613.21
469.72	3004.37
469.92	2965.46
470.13	2654.17
470.33	2770.90
470.53	2779.09
470.73	3016.66
470.94	3194.83
471.14	3430.35
471.34	3817.41
471.54	3614.66
471.75	3379.15
471.95	3147.73
472.15	3147.73
472.36	3162.06
472.56	3108.82
472.76	3182.54
472.96	2967.51
473.17	2891.73
473.37	2865.11
473.57	2783.19
473.77	2764.76
473.98	2678.74
474.18	2611.16
474.38	3162.06
474.58	2596.82
474.79	2566.10
474.99	2736.09
475.19	2912.21
475.39	2623.45
475.60	2799.57
475.80	2654.17
476.00	2914.26
476.20	2658.26
476.41	2731.99
476.61	2779.09
476.81	2994.13
477.01	2547.67
477.21	2828.24
477.42	2813.91
477.62	2582.49
477.82	2879.44
478.02	2602.97
478.23	2709.46
478.43	2519.00
478.63	2680.79
478.83	2592.73
479.03	2641.88
479.24	2908.12
479.44	2959.31
479.64	2537.43
479.84	2498.52
480.04	2598.87
480.25	2940.88
480.45	2553.82
480.65	2713.56
480.85	2994.13
481.06	2691.03
481.26	2758.61
481.46	2668.50
481.66	2748.37
481.86	2592.73
482.06	2781.14
482.27	2635.74
482.47	2664.41
482.67	2815.96
482.87	2643.93
483.07	2805.72
483.28	2641.88
483.48	2633.69
483.68	2729.94
483.88	2592.73
484.08	2439.13
484.29	2562.01
484.49	2650.07
484.69	2519.00
484.89	2908.12
485.09	2887.64
485.29	2684.89
485.50	2674.65
485.70	2629.59
485.90	2924.50
486.10	2666.46
486.30	2736.09
486.50	2863.06
486.71	2682.84
486.91	2701.27
487.11	2768.85
487.31	2566.10
487.51	2834.39
487.71	2574.30
487.91	2574.30
488.12	2580.44
488.32	2346.97
488.52	2607.06
488.72	2410.46
488.92	2740.18
489.12	2895.83
489.32	2783.19
489.53	2691.03
489.73	2531.29
489.93	2895.83
490.13	2539.48
490.33	2539.48
490.53	2684.89
490.73	2912.21
490.94	2414.56
491.14	2756.57
491.34	2840.53
491.54	2979.79
491.74	3583.95
491.94	4018.11
492.14	4347.84
492.34	4483.00
492.54	4194.24
492.75	3471.31
492.95	3604.42
493.15	3422.16
493.35	3254.22
493.55	3241.93
493.75	3088.34
493.95	3182.54
494.15	2942.93
494.35	2772.95
494.56	2830.29
494.76	2633.69
494.96	2785.24
495.16	2609.11
495.36	2695.13
495.56	2707.41
495.76	2715.61
495.96	2627.54
496.16	2592.73
496.36	3039.19
496.56	2650.07
496.77	2713.56
496.97	2684.89
497.17	2920.40
497.37	2478.04
497.57	2834.39
497.77	2746.33
497.97	2596.82
498.17	2648.02
498.37	2707.41
498.57	2840.53
498.77	2713.56
498.97	2744.28
499.17	2983.89
499.38	2709.46
499.58	2836.44
499.78	2801.62
499.98	2811.86
500.18	2615.26
500.38	2592.73
500.58	2856.92
500.78	3229.65
500.98	5523.37
501.18	7350.16
501.38	8781.69
501.58	9633.64
501.78	9305.97
501.98	7690.12
502.18	6438.81
502.38	5652.39
502.58	5404.59
502.78	4845.49
502.98	4495.29
503.18	4474.81
503.38	4177.86
503.59	3516.36
503.79	3446.73
503.99	3207.12
504.19	3123.15
504.39	3176.40
504.59	3200.98
504.79	3137.49
504.99	3262.41
505.19	2904.02
505.39	2840.53
505.59	3084.24
505.79	3010.51
505.99	2910.16
506.19	2666.46
506.39	2873.30
506.59	2602.97
506.79	2674.65
506.99	2783.19
507.19	2650.07
507.39	2815.96
507.59	2543.58
507.79	2605.02
507.99	2629.59
508.19	2701.27
508.39	2680.79
508.59	2637.78
508.79	2824.15
508.99	2998.23
509.19	2648.02
509.39	2707.41
509.59	2496.47
509.79	2619.35
509.99	2701.27
510.19	2797.53
510.39	2701.27
510.59	2760.66
510.79	2629.59
510.99	2547.67
511.19	2654.17
511.39	2985.94
511.59	2885.59
511.79	2840.53
511.99	2639.83
512.19	2910.16
512.38	2668.50
512.58	2588.63
512.78	2594.78
512.98	2926.55
513.18	2940.88
513.38	2521.05
513.58	2717.65
513.78	2658.26
513.98	2752.47
514.18	2650.07
514.38	2596.82
514.58	2772.95
514.78	2619.35
514.98	2547.67
515.18	2662.36
515.38	2643.93
515.58	3018.71
515.78	2635.74
515.98	2734.04
516.18	2826.20
516.38	2742.23
516.57	2637.78
516.77	2650.07
516.97	2764.76
517.17	2633.69
517.37	2473.95
517.57	2729.94
517.77	2715.61
517.97	2682.84
518.17	2691.03
518.37	2555.86
518.57	2621.40
518.77	2682.84
518.97	2633.69
519.16	2684.89
519.36	2895.83
519.56	2658.26
519.76	2637.78
519.96	2717.65
520.16	3055.57
520.36	2570.20
520.56	2742.23
520.76	2588.63
520.96	2711.51
521.16	2883.54
521.35	2807.77
521.55	2815.96
521.75	2719.70
521.95	2625.50
522.15	2623.45
522.35	2482.14
522.55	2602.97
522.75	2815.96
522.95	2602.97
523.14	2555.86
523.34	2826.20
523.54	2672.60
523.74	2711.51
523.94	2594.78
524.14	2564.06
524.34	2820.05
524.54	2863.06
524.73	2629.59
524.93	2838.48
525.13	2754.52
525.33	2521.05
525.53	2949.08
525.73	2832.34
525.93	2727.89
526.13	2633.69
526.32	2641.88
526.52	2854.87
526.72	2881.49
526.92	2678.74
527.12	2635.74
527.32	2584.54
527.52	2815.96
527.71	2658.26
527.91	2621.40
528.11	2707.41
528.31	2742.23
528.51	2553.82
528.71	2686.94
528.90	2787.29
529.10	2955.22
529.30	2758.61
529.50	2430.94
529.70	2787.29
529.90	2734.04
530.09	2725.85
530.29	2457.56
530.49	2586.58
530.69	3160.02
530.89	2672.60
531.09	2777.05
531.28	2650.07
531.48	2924.50
531.68	2699.22
531.88	2691.03
532.08	2850.77
532.28	2703.32
532.47	2803.67
532.67	2768.85
532.87	2764.76
533.07	2652.12
533.27	2785.24
533.46	2691.03
533.66	2744.28
533.86	2703.32
534.06	2686.94
534.26	2674.65
534.45	2652.12
534.65	2791.38
534.85	2654.17
535.05	2559.96
535.25	2947.03
535.44	2564.06
535.64	2838.48
535.84	2629.59
536.04	2670.55
536.24	2645.98
536.43	2596.82
536.63	2713.56
536.83	2684.89
537.03	2768.85
537.22	2514.91
537.42	2496.47
537.62	2758.61
537.82	2623.45
538.02	2803.67
538.21	2744.28
538.41	3088.34
538.61	2797.53
538.81	2631.64
539.00	2844.63
539.20	2398.17
539.40	2662.36
539.60	2699.22
539.79	2795.48
539.99	2648.02
540.19	2611.16
540.39	2637.78
540.58	2664.41
540.78	2766.81
540.98	2729.94
541.18	2824.15
541.37	2729.94
541.57	2658.26
541.77	2832.34
541.97	2600.92
542.16	2570.20
542.36	2658.26
542.56	2645.98
542.76	2809.81
542.95	2832.34
543.15	2797.53
543.35	2871.25
543.54	2580.44
543.74	2535.39
543.94	2887.64
544.14	2637.78
544.33	2662.36
544.53	2623.45
544.73	2629.59
544.93	2641.88
545.12	2584.54
545.32	2600.92
545.52	2688.98
545.71	2564.06
545.91	2594.78
546.11	2562.01
546.30	2609.11
546.50	2709.46
546.70	2752.47
546.90	2688.98
547.09	2463.71
547.29	2764.76
547.49	2770.90
547.68	2617.30
547.88	2533.34
548.08	2807.77
548.27	3080.14
548.47	2605.02
548.67	2641.88
548.87	2785.24
549.06	2594.78
549.26	2537.43
549.46	2826.20
549.65	2580.44
549.85	2703.32
550.05	2658.26
550.24	2547.67
550.44	2674.65
550.64	2695.13
550.83	2637.78
551.03	2938.84
551.23	2920.40
551.42	2731.99
551.62	2682.84
551.82	2684.89
552.01	2619.35
552.21	2924.50
552.41	2678.74
552.60	2940.88
552.80	2672.60
553.00	2615.26
553.19	2602.97
553.39	2916.31
553.59	2559.96
553.78	2682.84
553.98	2686.94
554.17	2588.63
554.37	2705.37
554.57	2752.47
554.76	2529.24
554.96	2627.54
555.16	2707.41
555.35	2666.46
555.55	2744.28
555.75	2768.85
555.94	2863.06
556.14	2514.91
556.33	2727.89
556.53	2674.65
556.73	2740.18
556.92	2799.57
557.12	2729.94
557.32	3041.23
557.51	2899.92
557.71	2754.52
557.90	2818.00
558.10	2934.74
558.30	2740.18
558.49	2596.82
558.69	2633.69
558.88	2772.95
559.08	2779.09
559.28	2670.55
559.47	2686.94
559.67	2842.58
559.86	2969.55
560.06	2615.26
560.26	2676.70
560.45	2752.47
560.65	2756.57
560.84	2924.50
561.04	2537.43
561.24	2863.06
561.43	2584.54
561.63	2928.60
561.82	2760.66
562.02	2838.48
562.22	2635.74
562.41	2500.57
562.61	2566.10
562.80	2535.39
563.00	3098.58
563.19	2686.94
563.39	2699.22
563.59	2777.05
563.78	2658.26
563.98	2396.12
564.17	2580.44
564.37	2562.01
564.56	2707.41
564.76	2519.00
564.96	2746.33
565.15	2748.37
565.35	3047.38
565.54	2609.11
565.74	2846.68
565.93	2807.77
566.13	2691.03
566.32	2742.23
566.52	2770.90
566.71	2785.24
566.91	2809.81
567.11	2758.61
567.30	2521.05
567.50	2752.47
567.69	2777.05
567.89	2605.02
568.08	2564.06
568.28	2815.96
568.47	2562.01
568.67	2723.80
568.86	2615.26
569.06	2826.20
569.25	2627.54
569.45	2590.68
569.64	2613.21
569.84	2691.03
570.04	2834.39
570.23	2631.64
570.43	2652.12
570.62	2621.40
570.82	2944.98
571.01	2529.24
571.21	2623.45
571.40	2576.34
571.60	2881.49
571.79	2818.00
571.99	2693.08
572.18	2627.54
572.38	2822.10
572.57	2668.50
572.77	2695.13
572.96	3200.98
573.16	2793.43
573.35	2727.89
573.55	2891.73
573.74	2854.87
573.94	2746.33
574.13	2572.25
574.33	2783.19
574.52	2904.02
574.71	2768.85
574.91	2676.70
575.10	2543.58
575.30	2672.60
575.49	2592.73
575.69	2686.94
575.88	2703.32
576.08	2748.37
576.27	2908.12
576.47	2602.97
576.66	2838.48
576.86	2944.98
577.05	2809.81
577.25	2695.13
577.44	2975.70
577.64	2719.70
577.83	2809.81
578.02	2658.26
578.22	2838.48
578.41	3026.90
578.61	2709.46
578.80	2521.05
579.00	2662.36
579.19	2705.37
579.39	2777.05
579.58	2760.66
579.77	2680.79
579.97	2897.88
580.16	2815.96
580.36	2842.58
580.55	2781.14
580.75	2824.15
580.94	2785.24
581.13	2869.20
581.33	2883.54
581.52	2785.24
581.72	2990.03
581.91	2830.29
582.11	2656.22
582.30	2807.77
582.49	2772.95
582.69	2951.12
582.88	2660.31
583.08	2777.05
583.27	2875.35
583.47	2717.65
583.66	2582.49
583.85	2553.82
584.05	2740.18
584.24	2731.99
584.44	2719.70
584.63	2856.92
584.82	2936.79
585.02	2877.40
585.21	2775.00
585.41	2881.49
585.60	2748.37
585.79	2895.83
585.99	2985.94
586.18	2848.72
586.37	3555.27
586.57	5519.28
586.76	16254.73
586.96	35517.92
587.15	48715.03
587.34	57316.50
587.54	61359.19
587.73	55317.68
587.93	38954.41
588.12	29804.09
588.31	24137.36
588.51	21124.80
588.70	19605.20
588.89	17180.41
589.09	14567.20
589.28	12447.55
589.47	9973.61
589.67	7620.49
589.86	6035.36
590.06	4456.38
590.25	3954.63
590.44	3393.48
590.64	3117.01
590.83	3053.52
591.02	3047.38
591.22	2772.95
591.41	2760.66
591.60	2674.65
591.80	3084.24
591.99	2502.62
592.18	2664.41
592.38	2891.73
592.57	2660.31
592.76	2715.61
592.96	2719.70
593.15	2703.32
593.34	2883.54
593.54	2592.73
593.73	2760.66
593.92	2809.81
594.12	2818.00
594.31	2750.42
594.50	2811.86
594.70	2838.48
594.89	3172.30
595.08	2588.63
595.28	2791.38
595.47	3145.68
595.66	2934.74
595.86	2527.19
596.05	2629.59
596.24	2731.99
596.43	2975.70
596.63	2791.38
596.82	2723.80
597.01	2842.58
597.21	3055.57
597.40	2760.66
597.59	2645.98
597.79	2744.28
597.98	2785.24
598.17	2719.70
598.36	2684.89
598.56	2922.45
598.75	2691.03
598.94	2723.80
599.14	2656.22
599.33	2664.41
599.52	2865.11
599.71	2756.57
599.91	2758.61
600.10	2852.82
600.29	2820.05
600.48	2719.70
600.68	2719.70
600.87	2815.96
601.06	2654.17
601.26	2660.31
601.45	2754.52
601.64	2742.23
601.83	2881.49
602.03	2545.63
602.22	2570.20
602.41	2861.01
602.60	3153.87
602.80	2775.00
602.99	2725.85
603.18	2686.94
603.37	2811.86
603.57	2615.26
603.76	2678.74
603.95	2840.53
604.14	2654.17
604.34	2613.21
604.53	2715.61
604.72	2766.81
604.91	2858.96
605.10	2754.52
605.30	2545.63
605.49	2973.65
605.68	2813.91
605.87	2766.81
606.07	2566.10
606.26	2756.57
606.45	2723.80
606.64	2682.84
606.84	2598.87
607.03	2686.94
607.22	2863.06
607.41	2701.27
607.60	2664.41
607.80	2893.78
607.99	2768.85
608.18	2723.80
608.37	2607.06
608.56	2660.31
608.76	2863.06
608.95	2834.39
609.14	2752.47
609.33	2873.30
609.52	2906.07
609.72	2650.07
609.91	2809.81
610.10	2805.72
610.29	2959.31
610.48	2756.57
610.68	2801.62
610.87	2795.48
611.06	2949.08
611.25	2664.41
611.44	2871.25
611.63	2709.46
611.83	2932.69
612.02	2547.67
612.21	2764.76
612.40	2445.27
612.59	2523.10
612.79	2555.86
612.98	2707.41
613.17	2951.12
613.36	2688.98
613.55	2789.33
613.74	2637.78
613.93	2691.03
614.13	2785.24
614.32	2846.68
614.51	2766.81
614.70	2777.05
614.89	2711.51
615.08	2742.23
615.28	3065.81
615.47	2643.93
615.66	2754.52
615.85	2619.35
616.04	2793.43
616.23	2781.14
616.42	2777.05
616.62	2717.65
616.81	2670.55
617.00	2815.96
617.19	2840.53
617.38	2654.17
617.57	2768.85
617.76	2803.67
617.95	2777.05
618.15	2648.02
618.34	2944.98
618.53	2580.44
618.72	2822.10
618.91	2842.58
619.10	2801.62
619.29	2731.99
619.48	2664.41
619.68	2531.29
619.87	2658.26
620.06	2611.16
620.25	2836.44
620.44	2660.31
620.63	2635.74
620.82	2752.47
621.01	2781.14
621.20	2682.84
621.39	2748.37
621.59	2715.61
621.78	2699.22
621.97	2721.75
622.16	2764.76
622.35	2775.00
622.54	2793.43
622.73	2727.89
622.92	2428.89
623.11	2897.88
623.30	2703.32
623.49	2815.96
623.68	2584.54
623.88	2922.45
624.07	2691.03
624.26	2709.46
624.45	2693.08
624.64	2742.23
624.83	2820.05
625.02	2668.50
625.21	2617.30
625.40	2721.75
625.59	2926.55
625.78	2619.35
625.97	2793.43
626.16	2875.35
626.35	2885.59
626.54	2697.17
626.74	2895.83
626.93	2701.27
627.12	2703.32
627.31	2781.14
627.50	2654.17
627.69	2881.49
627.88	2607.06
628.07	2625.50
628.26	2537.43
628.45	2668.50
628.64	2586.58
628.83	2623.45
629.02	2578.39
629.21	2791.38
629.40	2760.66
629.59	2652.12
629.78	2582.49
629.97	2682.84
630.16	2756.57
630.35	2627.54
630.54	2672.60
630.73	2686.94
630.92	2781.14
631.11	2545.63
631.30	2703.32
631.49	2818.00
631.68	2717.65
631.87	2777.05
632.06	2551.77
632.25	3104.72
632.44	2785.24
632.63	2650.07
632.82	2652.12
633.01	2701.27
633.20	2740.18
633.39	2623.45
633.58	2502.62
633.77	2809.81
633.96	2873.30
634.15	2744.28
634.34	2746.33
634.53	2818.00
634.72	2580.44
634.91	2473.95
635.10	2629.59
635.29	2826.20
635.48	2721.75
635.67	2480.09
635.86	2582.49
636.05	2803.67
636.24	2674.65
636.43	2795.48
636.62	2785.24
636.81	2342.88
637.00	2742.23
637.19	2643.93
637.38	2697.17
637.57	2727.89
637.76	2791.38
637.95	2801.62
638.14	2688.98
638.33	2795.48
638.52	2787.29
638.71	2637.78
638.89	2498.52
639.08	3135.44
639.27	2908.12
639.46	2824.15
639.65	3235.79
639.84	3166.16
640.03	3385.29
640.22	3092.43
640.41	3094.48
640.60	2844.63
640.79	2918.36
640.98	2840.53
641.17	2891.73
641.36	2891.73
641.55	2887.64
641.74	2512.86
641.92	2693.08
642.11	2670.55
642.30	2742.23
642.49	2564.06
642.68	2662.36
642.87	2775.00
643.06	2772.95
643.25	2562.01
643.44	2625.50
643.63	2707.41
643.82	2805.72
644.00	2541.53
644.19	2691.03
644.38	2611.16
644.57	2818.00
644.76	2680.79
644.95	2717.65
645.14	2756.57
645.33	2643.93
645.52	2723.80
645.71	2566.10
645.89	2598.87
646.08	2664.41
646.27	2695.13
646.46	2832.34
646.65	2516.95
646.84	2830.29
647.03	2625.50
647.22	2797.53
647.40	2801.62
647.59	2719.70
647.78	2449.37
647.97	2623.45
648.16	2625.50
648.35	2912.21
648.54	2854.87
648.73	2695.13
648.91	2815.96
649.10	2672.60
649.29	2564.06
649.48	2613.21
649.67	2752.47
649.86	2695.13
650.05	2684.89
650.23	2844.63
650.42	2641.88
650.61	2963.41
650.80	2863.06
650.99	3000.27
651.18	2863.06
651.36	2953.17
651.55	2623.45
651.74	2758.61
651.93	2752.47
652.12	2719.70
652.31	2695.13
652.49	2684.89
652.68	2699.22
652.87	2938.84
653.06	2756.57
653.25	2926.55
653.44	2772.95
653.62	2940.88
653.81	2736.09
654.00	2625.50
654.19	2904.02
654.38	3123.15
654.56	2715.61
654.75	2590.68
654.94	2871.25
655.13	2701.27
655.32	2654.17
655.51	2707.41
655.69	2621.40
655.88	2752.47
656.07	2398.17
656.26	2729.94
656.45	2566.10
656.63	2654.17
656.82	2703.32
657.01	2785.24
657.20	2580.44
657.38	2924.50
657.57	2725.85
657.76	2441.18
657.95	2799.57
658.14	2684.89
658.32	2643.93
658.51	2557.91
658.70	2748.37
658.89	2787.29
659.08	2670.55
659.26	2936.79
659.45	2613.21
659.64	2846.68
659.83	2641.88
660.01	3088.34
660.20	2729.94
660.39	2904.02
660.58	2437.08
660.76	2719.70
660.95	2600.92
661.14	2729.94
661.33	2566.10
661.51	2602.97
661.70	2709.46
661.89	2826.20
662.08	2746.33
662.26	2469.85
662.45	2498.52
662.64	3055.57
662.83	2807.77
663.01	2523.10
663.20	2625.50
663.39	2990.03
663.58	2555.86
663.76	2623.45
663.95	2744.28
664.14	2656.22
664.32	2656.22
664.51	2467.80
664.70	2482.14
664.89	2674.65
665.07	2496.47
665.26	2842.58
665.45	2537.43
665.64	2789.33
665.82	2693.08
666.01	2746.33
666.20	2512.86
666.38	2848.72
666.57	2877.40
666.76	4319.17
666.95	10030.95
667.13	17045.24
667.32	21096.13
667.51	23916.18
667.69	25126.53
667.88	21855.92
668.07	15642.39
668.25	13041.46
668.44	11165.53
668.63	9525.10
668.81	8597.37
669.00	7344.02
669.19	6492.06
669.38	5715.88
669.56	4878.26
669.75	4235.20
669.94	3735.50
670.12	3237.84
670.31	3055.57
670.50	2877.40
670.68	2906.07
670.87	2836.44
671.06	2666.46
671.24	2705.37
671.43	3000.27
671.62	2871.25
671.80	2682.84
671.99	2674.65
672.18	2756.57
672.36	2852.82
672.55	2752.47
672.74	2596.82
672.92	2697.17
673.11	2797.53
673.29	2521.05
673.48	2777.05
673.67	2768.85
673.85	2873.30
674.04	2623.45
674.23	2654.17
674.41	3022.80
674.60	2594.78
674.79	2443.23
674.97	2535.39
675.16	2871.25
675.34	2801.62
675.53	2680.79
675.72	2711.51
675.90	3033.04
676.09	2607.06
676.28	2715.61
676.46	2580.44
676.65	2889.68
676.83	2537.43
677.02	2699.22
677.21	2688.98
677.39	2783.19
677.58	2564.06
677.77	2592.73
677.95	2586.58
678.14	2641.88
678.32	2729.94
678.51	2613.21
678.70	2928.60
678.88	2672.60
679.07	2748.37
679.25	2676.70
679.44	2609.11
679.63	2562.01
679.81	2781.14
680.00	2729.94
680.18	2729.94
680.37	2961.36
680.55	2686.94
680.74	2566.10
680.93	2465.75
681.11	2791.38
681.30	2662.36
681.48	2717.65
681.67	2615.26
681.85	2750.42
682.04	2633.69
682.23	2797.53
682.41	2684.89
682.60	2645.98
682.78	2746.33
682.97	2576.34
683.15	2549.72
683.34	2734.04
683.53	2983.89
683.71	2482.14
683.90	2752.47
684.08	2947.03
684.27	2691.03
684.45	2672.60
684.64	2834.39
684.82	2707.41
685.01	2744.28
685.19	2650.07
685.38	2881.49
685.57	2715.61
685.75	2555.86
685.94	2568.15
686.12	2592.73
686.31	2676.70
686.49	2887.64
686.68	2535.39
686.86	2752.47
687.05	2654.17
687.23	2971.60
687.42	2637.78
687.60	2480.09
687.79	2871.25
687.97	2955.22
688.16	2727.89
688.34	2838.48
688.53	2490.33
688.71	2852.82
688.90	2815.96
689.08	2660.31
689.27	2451.42
689.45	2856.92
689.64	2760.66
689.82	2721.75
690.01	2697.17
690.19	2809.81
690.38	2682.84
690.56	2801.62
690.75	2549.72
690.93	2672.60
691.12	2562.01
691.30	2723.80
691.49	2635.74
691.67	2715.61
691.86	2963.41
692.04	2629.59
692.23	2709.46
692.41	2729.94
692.60	2996.18
692.78	2805.72
692.97	2777.05
693.15	2818.00
693.34	2914.26
693.52	2815.96
693.71	2643.93
693.89	2693.08
694.08	2471.90
694.26	2723.80
694.44	2781.14
694.63	2867.16
694.81	2672.60
695.00	2635.74
695.18	2889.68
695.37	3030.99
695.55	2682.84
695.74	2697.17
695.92	2621.40
696.10	2809.81
696.29	2547.67
696.47	2625.50
696.66	2531.29
696.84	2557.91
697.03	2678.74
697.21	2863.06
697.40	4091.84
697.58	2828.24
697.76	2635.74
697.95	2645.98
698.13	2627.54
698.32	2656.22
698.50	2721.75
698.68	2691.03
698.87	2717.65
699.05	2947.03
699.24	2670.55
699.42	2594.78
699.61	2809.81
699.79	2715.61
699.97	2639.83
700.16	2564.06
700.34	2519.00
700.53	2756.57
700.71	2830.29
700.89	2770.90
701.08	2684.89
701.26	2707.41
701.45	3170.26
701.63	2586.58
701.81	2662.36
702.00	2580.44
702.18	2682.84
702.37	2629.59
702.55	2979.79
702.73	2879.44
702.92	2652.12
703.10	2912.21
703.28	2961.36
703.47	2629.59
703.65	2846.68
703.84	2793.43
704.02	2641.88
704.20	2977.75
704.39	2555.86
704.57	2627.54
704.75	2818.00
704.94	2789.33
705.12	2680.79
705.30	3196.88
705.49	5769.13
705.67	11941.71
705.86	17749.75
706.04	20365.00
706.22	22808.23
706.41	22845.09
706.59	17626.87
706.77	13743.92
706.96	11661.13
707.14	10250.08
707.32	9054.07
707.51	7792.52
707.69	6457.25
707.87	5273.52
708.06	4489.15
708.24	3921.86
708.42	3432.40
708.61	3377.10
708.79	2674.65
708.97	2844.63
709.16	2818.00
709.34	2797.53
709.52	2658.26
709.71	2625.50
709.89	2807.77
710.07	2613.21
710.26	2514.91
710.44	2650.07
710.62	2858.96
710.80	2676.70
710.99	2768.85
711.17	2682.84
711.35	2609.11
711.54	2621.40
711.72	2822.10
711.90	2760.66
712.09	2703.32
712.27	2643.93
712.45	2748.37
712.63	2584.54
712.82	2725.85
713.00	2736.09
713.18	2697.17
713.37	2762.71
713.55	2850.77
713.73	2760.66
713.91	2752.47
714.10	2643.93
714.28	2684.89
714.46	2820.05
714.65	2688.98
714.83	2691.03
715.01	2760.66
715.19	2648.02
715.38	2572.25
715.56	2693.08
715.74	2588.63
715.92	2623.45
716.11	2748.37
716.29	2432.99
716.47	2740.18
716.65	2605.02
716.84	2488.28
717.02	2770.90
717.20	2516.95
717.38	2525.15
717.57	2715.61
717.75	2725.85
717.93	2705.37
718.11	2858.96
718.30	2480.09
718.48	2645.98
718.66	2865.11
718.84	2904.02
719.03	2676.70
719.21	2519.00
719.39	2961.36
719.57	2834.39
719.75	2791.38
719.94	2566.10
720.12	2719.70
720.30	2662.36
720.48	2824.15
720.67	2578.39
720.85	2529.24
721.03	2645.98
721.21	2578.39
721.39	2822.10
721.58	2840.53
721.76	2637.78
721.94	2768.85
722.12	2799.57
722.30	2877.40
722.49	2703.32
722.67	2723.80
722.85	2611.16
723.03	2582.49
723.21	2527.19
723.40	2645.98
723.58	2850.77
723.76	2809.81
723.94	2891.73
724.12	2686.94
724.30	2893.78
724.49	2883.54
724.67	2639.83
724.85	2850.77
725.03	2514.91
725.21	2752.47
725.40	2877.40
725.58	2656.22
725.76	2871.25
725.94	2848.72
726.12	2576.34
726.30	2691.03
726.49	2684.89
726.67	2684.89
726.85	2672.60
727.03	3135.44
727.21	4157.38
727.39	5146.55
727.57	5691.31
727.76	6072.23
727.94	6217.63
728.12	5590.95
728.30	4644.79
728.48	4362.17
728.66	3989.44
728.84	3798.98
729.03	3338.19
729.21	3227.60
729.39	3004.37
729.57	2758.61
729.75	2871.25
729.93	2770.90
730.11	2676.70
730.30	2715.61
730.48	2699.22
730.66	2809.81
730.84	2789.33
731.02	2736.09
731.20	2691.03
731.38	2678.74
731.56	2541.53
731.74	2547.67
731.93	2826.20
732.11	2643.93
732.29	2629.59
732.47	2760.66
732.65	2734.04
732.83	2836.44
733.01	2748.37
733.19	2654.17
733.37	2799.57
733.56	2723.80
733.74	2619.35
733.92	2838.48
734.10	2660.31
734.28	2684.89
734.46	2412.51
734.64	2635.74
734.82	2709.46
735.00	2605.02
735.18	2619.35
735.36	2686.94
735.54	2670.55
735.73	2648.02
735.91	2691.03
736.09	2885.59
736.27	2727.89
736.45	2699.22
736.63	2435.03
736.81	2768.85
736.99	2930.64
737.17	2877.40
737.35	2549.72
737.53	2789.33
737.71	2633.69
737.89	2867.16
738.07	2572.25
738.25	2650.07
738.43	2551.77
738.61	2693.08
738.80	2574.30
738.98	2592.73
739.16	2627.54
739.34	2559.96
739.52	2879.44
739.70	2666.46
739.88	2887.64
740.06	2826.20
740.24	2469.85
740.42	2861.01
740.60	2494.43
740.78	2613.21
740.96	2428.89
741.14	2631.64
741.32	2760.66
741.50	2502.62
741.68	2965.46
741.86	2908.12
742.04	2619.35
742.22	2553.82
742.40	2680.79
742.58	2783.19
742.76	2611.16
742.94	2775.00
743.12	2482.14
743.30	2666.46
743.48	2811.86
743.66	2572.25
743.84	2695.13
744.02	2686.94
744.20	2719.70
744.38	2605.02
744.56	2568.15
744.74	3008.47
744.92	2797.53
745.10	2899.92
745.28	2691.03
745.46	3022.80
745.64	2699.22
745.82	2744.28
746.00	2668.50
746.18	2783.19
746.36	2586.58
746.54	2666.46
746.72	2670.55
746.90	2639.83
747.08	2861.01
747.26	2650.07
747.44	2826.20
747.62	2799.57
747.80	2856.92
747.98	2742.23
748.15	2629.59
748.33	3004.37
748.51	2752.47
748.69	2703.32
748.87	2539.48
749.05	2795.48
749.23	2701.27
749.41	2664.41
749.59	2652.12
749.77	2820.05
749.95	2695.13
750.13	2654.17
750.31	2848.72
750.49	2658.26
750.67	2787.29
750.85	2801.62
751.03	2650.07
751.20	2963.41
751.38	2686.94
751.56	2719.70
751.74	2697.17
751.92	2621.40
752.10	2541.53
752.28	2869.20
752.46	2586.58
752.64	2756.57
752.82	2740.18
753.00	2758.61
753.18	2568.15
753.35	2621.40
753.53	2746.33
753.71	2527.19
753.89	2791.38
754.07	2711.51
754.25	2891.73
754.43	2709.46
754.61	2531.29
754.79	2840.53
754.97	2684.89
755.14	2848.72
755.32	2549.72
755.50	2764.76
755.68	2875.35
755.86	2621.40
756.04	2666.46
756.22	2516.95
756.40	2824.15
756.57	2906.07
756.75	2566.10
756.93	2869.20
757.11	2883.54
757.29	2543.58
757.47	2557.91
757.65	2508.76
757.82	2490.33
758.00	2602.97
758.18	2637.78
758.36	2588.63
758.54	2944.98
758.72	2529.24
758.90	2762.71
759.07	2768.85
759.25	2553.82
759.43	2742.23
759.61	2519.00
759.79	3864.52
759.97	2828.24
760.15	2580.44
760.32	2615.26
760.50	2744.28
760.68	3000.27
760.86	2516.95
761.04	2856.92
761.22	2856.92
761.39	2793.43
761.57	2736.09
761.75	2621.40
761.93	2893.78
762.11	2678.74
762.28	2752.47
762.46	2584.54
762.64	2811.86
762.82	2592.73
763.00	2600.92
763.18	2887.64
763.35	2510.81
763.53	2750.42
763.71	2711.51
763.89	2682.84
764.07	2713.56
764.24	2699.22
764.42	2793.43
764.60	2619.35
764.78	2772.95
764.96	2811.86
765.13	2799.57
765.31	2533.34
765.49	2836.44
765.67	2514.91
765.84	2621.40
766.02	2658.26
766.20	2488.28
766.38	2742.23
766.56	2834.39
766.73	2801.62
766.91	2801.62
767.09	2719.70
767.27	2775.00
767.44	2455.51
767.62	2818.00
767.80	2740.18
767.98	2543.58
768.15	2674.65
768.33	2805.72
768.51	2861.01
768.69	2789.33
768.87	2729.94
769.04	2699.22
769.22	3117.01
769.40	2775.00
769.58	2783.19
769.75	2719.70
769.93	2881.49
770.11	2619.35
770.28	2598.87
770.46	2770.90
770.64	2703.32
770.82	2596.82
770.99	2492.38
771.17	2756.57
771.35	2705.37
771.53	2688.98
771.70	2707.41
771.88	2797.53
772.06	2713.56
772.23	2662.36
772.41	2697.17
772.59	2764.76
772.77	2553.82
772.94	2721.75
773.12	2658.26
773.30	2658.26
773.47	2787.29
773.65	2613.21
773.83	2703.32
774.01	2703.32
774.18	2445.27
774.36	2637.78
774.54	2514.91
774.71	2752.47
774.89	2549.72
775.07	2553.82
775.24	2609.11
775.42	2611.16
775.60	2957.27
775.78	2627.54
775.95	2441.18
776.13	2504.67
776.31	2521.05
776.48	2695.13
776.66	2895.83
776.84	2625.50
777.01	2582.49
777.19	2609.11
777.37	2553.82
777.54	2785.24
777.72	3071.95
777.90	2723.80
778.07	2539.48
778.25	3160.02
778.43	2777.05
778.60	2504.67
778.78	2717.65
778.96	2912.21
779.13	2504.67
779.31	2701.27
779.49	2619.35
779.66	2789.33
779.84	2744.28
780.01	2617.30
780.19	2535.39
780.37	2856.92
780.54	2764.76
780.72	2500.57
780.90	2664.41
781.07	2682.84
781.25	2588.63
781.43	2785.24
781.60	2674.65
781.78	2813.91
781.95	2756.57
782.13	2648.02
782.31	2670.55
782.48	2428.89
782.66	2691.03
782.83	2893.78
783.01	2709.46
783.19	2863.06
783.36	2586.58
783.54	2564.06
783.72	2777.05
783.89	2658.26
784.07	2746.33
784.24	2785.24
784.42	2836.44
784.60	2719.70
784.77	2795.48
784.95	2430.94
785.12	2625.50
785.30	2770.90
785.47	2541.53
785.65	2537.43
785.83	2707.41
786.00	2703.32
786.18	2779.09
786.35	2486.23
786.53	2629.59
786.71	2906.07
786.88	2707.41
787.06	2791.38
787.23	2682.84
787.41	2531.29
787.58	2697.17
787.76	2578.39
787.94	2705.37
788.11	2797.53
788.29	2568.15
788.46	2598.87
788.64	2543.58
788.81	2586.58
788.99	2660.31
789.16	2535.39
789.34	2670.55
789.52	2623.45
789.69	2605.02
789.87	2441.18
790.04	2660.31
790.22	2750.42
790.39	3059.67
790.57	2516.95
790.74	2512.86
790.92	2775.00
791.09	2516.95
791.27	2768.85
791.44	2793.43
791.62	2695.13
791.79	2738.13
791.97	2695.13
792.15	2918.36
792.32	2842.58
792.50	2842.58
792.67	2846.68
792.85	2942.93
793.02	2744.28
793.20	2684.89
793.37	2607.06
793.55	2609.11
793.72	2574.30
793.90	2901.97
794.07	2582.49
794.25	2631.64
794.42	2795.48
794.60	2602.97
794.77	2727.89
794.95	2803.67
795.12	2832.34
795.30	2668.50
795.47	2469.85
795.65	2916.31
795.82	2783.19
796.00	2609.11
796.17	2654.17
796.34	2519.00
796.52	2746.33
796.69	2822.10
796.87	2830.29
797.04	2775.00
797.22	2803.67
797.39	2783.19
797.57	2818.00
797.74	2723.80
797.92	2777.05
798.09	2623.45
798.27	2809.81
798.44	2670.55
798.62	2613.21
798.79	2725.85
798.96	2686.94
799.14	2697.17
799.31	3102.67
799.49	2619.35
799.66	2662.36
799.84	2688.98
800.01	2463.71
800.19	2715.61
800.36	2523.10
800.53	2719.70
800.71	2736.09
800.88	2861.01
801.06	2635.74
801.23	2602.97
801.41	2613.21
801.58	2639.83
801.75	2582.49
801.93	2695.13
802.10	2842.58
802.28	2629.59
802.45	2652.12
802.63	2711.51
802.80	2881.49
802.97	2688.98
803.15	2645.98
803.32	2600.92
803.50	2537.43
803.67	2600.92
803.84	2514.91
804.02	2752.47
804.19	2727.89
804.37	2437.08
804.54	2510.81
804.71	2596.82
804.89	2781.14
805.06	2588.63
805.24	2541.53
805.41	2537.43
805.58	2625.50
805.76	3037.14
805.93	2684.89
806.10	2793.43
806.28	2852.82
806.45	2734.04
806.63	2731.99
806.80	2738.13
806.97	2787.29
807.15	2697.17
807.32	2676.70
807.49	2662.36
807.67	2504.67
807.84	2768.85
808.01	2482.14
808.19	2818.00
808.36	3057.62
808.54	2592.73
808.71	2588.63
808.88	2629.59
809.06	2850.77
809.23	2949.08
809.40	2590.68
809.58	2666.46
809.75	2748.37
809.92	2555.86
810.10	2865.11
810.27	2680.79
810.44	2717.65
810.62	2881.49
810.79	2719.70
810.96	2613.21
811.14	2596.82
811.31	2815.96
811.48	2762.71
811.66	2699.22
811.83	2826.20
812.00	2752.47
812.18	2731.99
812.35	2949.08
812.52	2611.16
812.69	2641.88
812.87	2598.87
813.04	2623.45
813.21	2684.89
813.39	2600.92
813.56	2488.28
813.73	2799.57
813.91	2490.33
814.08	2738.13
814.25	2662.36
814.42	2455.51
814.60	2684.89
814.77	2701.27
814.94	2637.78
815.12	2684.89
815.29	2969.55
815.46	2688.98
815.63	2660.31
815.81	2680.79
815.98	2623.45
816.15	2602.97
816.33	2707.41
816.50	2572.25
816.67	2670.55
816.84	2686.94
817.02	2537.43
817.19	2637.78
817.36	2695.13
817.53	2742.23
817.71	2609.11
817.88	2717.65
818.05	2662.36
818.22	2674.65
818.40	2834.39
818.57	2607.06
818.74	2811.86
818.91	2699.22
819.09	2748.37
819.26	2742.23
819.43	2645.98
819.60	2564.06
819.78	2758.61
819.95	2725.85
820.12	2551.77
820.29	2994.13
820.47	2828.24
820.64	2594.78
820.81	2482.14
820.98	2598.87
821.15	2643.93
821.33	2783.19
821.50	2498.52
821.67	2846.68
821.84	2731.99
822.02	2672.60
822.19	2871.25
822.36	2731.99
822.53	2568.15
822.70	2535.39
822.88	2654.17
823.05	2895.83
823.22	2686.94
823.39	2682.84
823.56	2727.89
823.74	2983.89
823.91	2596.82
824.08	2492.38
824.25	2609.11
824.42	2969.55
824.60	2455.51
824.77	2783.19
824.94	2631.64
825.11	2848.72
825.28	2428.89
825.45	2764.76
825.63	2731.99
825.80	2607.06
825.97	2725.85
826.14	2707.41
826.31	2449.37
826.48	2861.01
826.66	2641.88
826.83	2566.10
827.00	2660.31
827.17	2553.82
827.34	2594.78
827.51	2633.69
827.69	2625.50
827.86	2478.04
828.03	2648.02
828.20	2676.70
828.37	2641.88
828.54	2828.24
828.71	2629.59
828.89	2779.09
829.06	2695.13
829.23	2924.50
829.40	2570.20
829.57	2514.91
829.74	2826.20
829.91	2596.82
830.09	2514.91
830.26	2715.61
830.43	2947.03
830.60	2672.60
830.77	2734.04
830.94	2707.41
831.11	2795.48
831.28	2688.98
831.46	2740.18
831.63	2658.26
831.80	2822.10
831.97	2611.16
832.14	2621.40
832.31	2674.65
832.48	2775.00
832.65	2838.48
832.82	2719.70
832.99	2662.36
833.17	2562.01
833.34	2963.41
833.51	2645.98
833.68	2432.99
833.85	2826.20
834.02	2541.53
834.19	2605.02
834.36	2486.23
834.53	2764.76
834.70	2867.16
834.87	2641.88
835.04	2441.18
835.22	2541.53
835.39	2680.79
835.56	2508.76
835.73	2582.49
835.90	2965.46
836.07	2545.63
836.24	2686.94
836.41	2535.39
836.58	2600.92
836.75	2805.72
836.92	2619.35
837.09	2492.38
837.26	2830.29
837.43	2705.37
837.60	2596.82
837.77	2621.40
837.94	2854.87
838.12	2848.72
838.29	2467.80
838.46	2471.90
838.63	2510.81
838.80	2912.21
838.97	2574.30
839.14	2537.43
839.31	2707.41
839.48	2881.49
839.65	2494.43
839.82	2633.69
839.99	2744.28
840.16	2803.67
840.33	2539.48
840.50	2564.06
840.67	2658.26
840.84	2361.31
841.01	2539.48
841.18	2496.47
841.35	2672.60
841.52	2828.24
841.69	2852.82
841.86	2570.20
842.03	2668.50
842.20	2848.72
842.37	2586.58
842.54	2562.01
842.71	2672.60
842.88	2609.11
843.05	2600.92
843.22	2492.38
843.39	2877.40
843.56	2654.17
843.73	2525.15
843.90	2551.77
844.07	2697.17
844.24	2899.92
844.41	2588.63
844.58	2607.06
844.75	2760.66
844.92	2697.17
845.09	2635.74
845.26	2529.24
845.43	2854.87
845.60	2652.12
845.77	2654.17
845.94	2670.55
846.10	2904.02
846.27	2498.52
846.44	2441.18
846.61	2480.09
846.78	2693.08
846.95	2852.82
847.12	2488.28
847.29	2611.16
847.46	2623.45
847.63	2807.77
847.80	2500.57
847.97	2547.67
848.14	3037.14
848.31	2637.78
848.48	2428.89
848.65	2660.31
848.82	2658.26
848.98	3026.90
849.15	2670.55
849.32	2731.99
849.49	2760.66
849.66	2725.85
849.83	2559.96
850.00	2453.47
850.17	2863.06
850.34	2570.20
850.51	2521.05
850.68	2578.39
850.85	3047.38
851.01	2723.80
851.18	2523.10
851.35	2504.67
851.52	2762.71
851.69	2920.40
851.86	2471.90
852.03	2473.95
852.20	2899.92
852.37	2695.13
852.53	2398.17
852.70	2482.14
852.87	2785.24
853.04	2789.33
853.21	2570.20
853.38	2752.47
853.55	2828.24
853.72	2889.68
853.89	2514.91
854.05	2551.77
854.22	2705.37
854.39	2731.99
854.56	2576.34
854.73	2736.09
854.90	2605.02
855.07	2719.70
855.23	2463.71
855.40	2453.47
855.57	2652.12
855.74	2381.79
855.91	2795.48
856.08	2459.61
856.25	2441.18
856.41	2598.87
856.58	2529.24
856.75	2537.43
856.92	2527.19
857.09	2842.58
857.26	2465.75
857.42	2523.10
857.59	2725.85
857.76	2680.79
857.93	2549.72
858.10	2623.45
858.27	2625.50
858.43	2777.05
858.60	2512.86
858.77	2490.33
858.94	2602.97
859.11	2813.91
859.27	2514.91
859.44	2508.76
859.61	3004.37
859.78	2738.13
859.95	2537.43
860.12	2512.86
860.28	3041.23
860.45	3039.19
860.62	2564.06
860.79	2600.92
860.95	2598.87
861.12	2623.45
861.29	2508.76
861.46	2471.90
861.63	2686.94
861.79	2725.85
861.96	2445.27
862.13	2564.06
862.30	2871.25
862.47	2607.06
862.63	2484.19
862.80	2668.50
862.97	2848.72
863.14	2707.41
863.30	2545.63
863.47	2471.90
863.64	2928.60
863.81	2635.74
863.97	2510.81
864.14	2633.69
864.31	2713.56
864.48	2682.84
864.65	2576.34
864.81	2752.47
864.98	2793.43
865.15	2881.49
865.32	2711.51
865.48	2648.02
865.65	3012.56
865.82	2617.30
865.98	2666.46
866.15	2549.72
866.32	2684.89
866.49	2672.60
866.65	2705.37
866.82	2539.48
866.99	2705.37
867.16	2635.74
867.32	2533.34
867.49	2463.71
867.66	2602.97
867.83	2590.68
867.99	2535.39
868.16	2623.45
868.33	2516.95
868.49	2725.85
868.66	2590.68
868.83	2658.26
868.99	2693.08
869.16	2734.04
869.33	2652.12
869.50	2582.49
869.66	2688.98
869.83	2701.27
870.00	2478.04
870.16	2731.99
870.33	2725.85
870.50	2826.20
870.66	2547.67
870.83	2582.49
871.00	2717.65
871.17	2809.81
871.33	2576.34
871.50	2613.21
871.67	2617.30
871.83	2473.95
872.00	2654.17
872.17	2519.00
872.33	2949.08
872.50	2844.63
872.67	2568.15
872.83	2523.10
873.00	2727.89
873.17	2797.53
873.33	2588.63
873.50	2609.11
873.67	2549.72
873.83	2723.80
874.00	2553.82
874.16	2715.61
874.33	2744.28
874.50	2514.91
874.66	2570.20
874.83	2641.88
875.00	2891.73
875.16	2899.92
875.33	2666.46
875.50	2422.75
875.66	2703.32
875.83	2738.13
875.99	2584.54
876.16	2691.03
876.33	2580.44
876.49	2611.16
876.66	2570.20
876.83	2602.97
876.99	2531.29
877.16	2691.03
877.32	2502.62
877.49	2680.79
877.66	2858.96
877.82	2801.62
877.99	2629.59
878.15	2793.43
878.32	2703.32
878.49	2775.00
878.65	2637.78
878.82	2822.10
878.98	2547.67
879.15	2805.72
879.32	2682.84
879.48	2641.88
879.65	2721.75
879.81	2680.79
879.98	2621.40
880.15	2535.39
880.31	2783.19
880.48	2584.54
880.64	2734.04
880.81	2674.65
880.97	3037.14
881.14	2906.07
881.31	2502.62
881.47	2783.19
881.64	2631.64
881.80	2555.86
881.97	2576.34
882.13	2600.92
882.30	2502.62
882.47	2613.21
882.63	2559.96
882.80	2523.10
882.96	2662.36
883.13	2969.55
883.29	2498.52
883.46	2564.06
883.62	2955.22
883.79	2641.88
883.95	2703.32
884.12	2545.63
884.29	2813.91
884.45	2729.94
884.62	2586.58
884.78	2516.95
884.95	2998.23
885.11	2660.31
885.28	2596.82
885.44	2588.63
885.61	2842.58
885.77	2842.58
885.94	2654.17
886.10	2611.16
886.27	2723.80
886.43	2949.08
886.60	2766.81
886.76	2531.29
886.93	2578.39
887.09	2637.78
887.26	2432.99
887.42	2613.21
887.59	2869.20
887.75	3063.76
887.92	2760.66
888.08	2629.59
888.25	3055.57
888.41	2842.58
888.58	2662.36
888.74	2461.66
888.91	2596.82
>>>>>End Processed Spectral Data<<<<<
