SpectraSuite Data File
++++++++++++++++++++++++++++++++++++
Date: Thu May 05 16:20:34 CEST 2016
User: root
Dark Spectrum Present: No
Reference Spectrum Present: No
Number of Sampled Component Spectra: 1
Spectrometers: USB4C02835
Integration Time (usec): 100000 (USB4C02835)
Spectra Averaged: 1 (USB4C02835)
Boxcar Smoothing: 0 (USB4C02835)
Correct for Electrical Dark: No (USB4C02835)
Strobe/Lamp Enabled: No (USB4C02835)
Correct for Detector Non-linearity: No (USB4C02835)
Correct for Stray Light: No (USB4C02835)
Number of Pixels in Processed Spectrum: 3648
>>>>>Begin Processed Spectral Data<<<<<
177.47	2107.36
177.69	2107.36
177.91	2107.36
178.13	2045.92
178.36	2064.35
178.58	2582.49
178.80	2758.61
179.02	2463.71
179.24	2529.24
179.46	2449.37
179.68	2543.58
179.90	2641.88
180.13	2760.66
180.35	2416.60
180.57	2480.09
180.79	2811.86
181.01	2691.03
181.23	2506.71
181.45	2625.50
181.67	2797.53
181.90	2840.53
182.12	2582.49
182.34	2410.46
182.56	2834.39
182.78	2756.57
183.00	2498.52
183.22	2582.49
183.44	2498.52
183.66	3104.72
183.89	2625.50
184.11	2475.99
184.33	2838.48
184.55	2842.58
184.77	2463.71
184.99	2572.25
185.21	2617.30
185.43	3020.75
185.65	2498.52
185.87	2443.23
186.10	3104.72
186.32	3061.71
186.54	2596.82
186.76	2576.34
186.98	2928.60
187.20	2664.41
187.42	2537.43
187.64	2486.23
187.86	2795.48
188.08	2848.72
188.30	2373.60
188.52	2490.33
188.75	2875.35
188.97	2934.74
189.19	2539.48
189.41	2584.54
189.63	2793.43
189.85	2637.78
190.07	2326.49
190.29	2383.84
190.51	2750.42
190.73	2502.62
190.95	2693.08
191.17	2473.95
191.39	2535.39
191.61	2711.51
191.84	2502.62
192.06	2625.50
192.28	2588.63
192.50	3170.26
192.72	2621.40
192.94	2609.11
193.16	2940.88
193.38	2789.33
193.60	2480.09
193.82	2686.94
194.04	2885.59
194.26	2785.24
194.48	2570.20
194.70	2473.95
194.92	2678.74
195.14	2846.68
195.36	2475.99
195.58	2592.73
195.80	2637.78
196.02	2693.08
196.24	2504.67
196.46	2537.43
196.69	2680.79
196.91	3102.67
197.13	2629.59
197.35	2600.92
197.57	2887.64
197.79	2869.20
198.01	2539.48
198.23	2551.77
198.45	2752.47
198.67	2578.39
198.89	2426.84
199.11	2627.54
199.33	2594.78
199.55	2408.41
199.77	2447.32
199.99	2580.44
200.21	2627.54
200.43	2785.24
200.65	2369.50
200.87	2295.77
201.09	2684.89
201.31	2592.73
201.53	2570.20
201.75	2625.50
201.97	2758.61
202.19	2731.99
202.41	2572.25
202.63	2693.08
202.85	2787.29
203.07	2783.19
203.29	2549.72
203.51	2486.23
203.73	2656.22
203.95	3110.86
204.17	2480.09
204.39	2658.26
204.61	2680.79
204.83	2678.74
205.05	2652.12
205.27	2549.72
205.49	3051.47
205.71	2658.26
205.93	2365.40
206.15	2369.50
206.37	2731.99
206.59	2701.27
206.81	2365.40
207.03	2465.75
207.25	2588.63
207.47	2838.48
207.69	2496.47
207.91	2731.99
208.13	2971.60
208.34	2648.02
208.56	2449.37
208.78	2510.81
209.00	2742.23
209.22	2627.54
209.44	2496.47
209.66	2504.67
209.88	2709.46
210.10	2686.94
210.32	2488.28
210.54	2656.22
210.76	2578.39
210.98	2818.00
211.20	2408.41
211.42	2637.78
211.64	2867.16
211.86	2775.00
212.08	2566.10
212.30	2553.82
212.52	2672.60
212.74	2738.13
212.96	2555.86
213.17	2617.30
213.39	2777.05
213.61	2955.22
213.83	2551.77
214.05	2465.75
214.27	2830.29
214.49	2545.63
214.71	2463.71
214.93	2615.26
215.15	2807.77
215.37	2840.53
215.59	2471.90
215.81	2545.63
216.03	2977.75
216.24	2789.33
216.46	2541.53
216.68	2568.15
216.90	2865.11
217.12	2850.77
217.34	2514.91
217.56	2615.26
217.78	2987.99
218.00	2834.39
218.22	2562.01
218.44	2584.54
218.66	2699.22
218.87	3020.75
219.09	2547.67
219.31	2555.86
219.53	2619.35
219.75	2703.32
219.97	2617.30
220.19	2576.34
220.41	2658.26
220.63	2953.17
220.85	2502.62
221.06	2621.40
221.28	2930.64
221.50	2789.33
221.72	2543.58
221.94	2447.32
222.16	2688.98
222.38	2848.72
222.60	2478.04
222.82	2539.48
223.03	2906.07
223.25	2557.91
223.47	2506.71
223.69	2779.09
223.91	2875.35
224.13	2738.13
224.35	2498.52
224.57	2785.24
224.78	2803.67
225.00	2557.91
225.22	2543.58
225.44	2473.95
225.66	2879.44
225.88	2686.94
226.10	2664.41
226.32	2586.58
226.53	2932.69
226.75	2652.12
226.97	2580.44
227.19	2566.10
227.41	2572.25
227.63	2672.60
227.85	2351.07
228.06	2572.25
228.28	2625.50
228.50	2744.28
228.72	2418.65
228.94	2469.85
229.16	2486.23
229.37	2531.29
229.59	2449.37
229.81	2682.84
230.03	2637.78
230.25	2541.53
230.47	2410.46
230.69	2453.47
230.90	2836.44
231.12	2619.35
231.34	2559.96
231.56	2682.84
231.78	2590.68
232.00	2731.99
232.21	2445.27
232.43	2543.58
232.65	2424.80
232.87	2807.77
233.09	2439.13
233.30	2527.19
233.52	2875.35
233.74	2707.41
233.96	2471.90
234.18	2641.88
234.40	2705.37
234.61	3006.42
234.83	2342.88
235.05	2457.56
235.27	3147.73
235.49	2944.98
235.70	2285.53
235.92	2545.63
236.14	2744.28
236.36	3045.33
236.58	2430.94
236.79	2602.97
237.01	2693.08
237.23	2693.08
237.45	2660.31
237.67	2535.39
237.88	2848.72
238.10	2985.94
238.32	2377.69
238.54	2465.75
238.76	2748.37
238.97	2615.26
239.19	2373.60
239.41	2564.06
239.63	2830.29
239.85	2744.28
240.06	2521.05
240.28	2469.85
240.50	2840.53
240.72	2727.89
240.93	2533.34
241.15	2568.15
241.37	2725.85
241.59	2863.06
241.81	2461.66
242.02	2541.53
242.24	2818.00
242.46	2850.77
242.68	2449.37
242.89	2467.80
243.11	2873.30
243.33	2660.31
243.55	2504.67
243.76	2500.57
243.98	2645.98
244.20	2709.46
244.42	2506.71
244.64	2475.99
244.85	2521.05
245.07	2482.14
245.29	2521.05
245.51	2578.39
245.72	2719.70
245.94	2826.20
246.16	2475.99
246.38	2531.29
246.59	2725.85
246.81	2668.50
247.03	2523.10
247.24	2443.23
247.46	2578.39
247.68	2809.81
247.90	2418.65
248.11	2527.19
248.33	2865.11
248.55	2697.17
248.77	2621.40
248.98	2557.91
249.20	3014.61
249.42	2754.52
249.64	2490.33
249.85	2525.15
250.07	2621.40
250.29	2854.87
250.50	2531.29
250.72	2408.41
250.94	2797.53
251.16	3104.72
251.37	2539.48
251.59	2627.54
251.81	2729.94
252.02	2895.83
252.24	2449.37
252.46	2613.21
252.68	2664.41
252.89	2551.77
253.11	2338.78
253.33	2686.94
253.54	2973.65
253.76	2547.67
253.98	2572.25
254.20	2521.05
254.41	2504.67
254.63	2678.74
254.85	2402.27
255.06	2623.45
255.28	2799.57
255.50	2648.02
255.71	2496.47
255.93	2303.96
256.15	2654.17
256.36	2834.39
256.58	2447.32
256.80	2449.37
257.02	2744.28
257.23	2641.88
257.45	2625.50
257.67	2555.86
257.88	2611.16
258.10	2760.66
258.32	2459.61
258.53	2547.67
258.75	2973.65
258.97	2666.46
259.18	2422.75
259.40	2416.60
259.62	3035.09
259.83	2916.31
260.05	2541.53
260.27	3262.41
260.48	2824.15
260.70	2586.58
260.92	2469.85
261.13	2525.15
261.35	2744.28
261.57	2777.05
261.78	2383.84
262.00	2521.05
262.22	2830.29
262.43	2648.02
262.65	2488.28
262.86	2480.09
263.08	3090.38
263.30	2793.43
263.51	2385.88
263.73	2459.61
263.95	3024.85
264.16	2523.10
264.38	2424.80
264.60	2484.19
264.81	2648.02
265.03	2828.24
265.25	2813.91
265.46	2500.57
265.68	2906.07
265.89	2793.43
266.11	2422.75
266.33	2494.43
266.54	2891.73
266.76	2717.65
266.98	2549.72
267.19	2627.54
267.41	2889.68
267.62	2754.52
267.84	2396.12
268.06	2670.55
268.27	2842.58
268.49	2922.45
268.70	2637.78
268.92	2514.91
269.14	2621.40
269.35	2482.14
269.57	2613.21
269.79	2535.39
270.00	2639.83
270.22	3000.27
270.43	2478.04
270.65	2330.59
270.87	2760.66
271.08	2875.35
271.30	2568.15
271.51	2566.10
271.73	2756.57
271.95	2940.88
272.16	2488.28
272.38	2598.87
272.59	2684.89
272.81	2854.87
273.02	2578.39
273.24	2531.29
273.46	2947.03
273.67	2478.04
273.89	2387.93
274.10	2516.95
274.32	2869.20
274.54	2797.53
274.75	2592.73
274.97	2498.52
275.18	2957.27
275.40	2777.05
275.61	2629.59
275.83	2602.97
276.05	2580.44
276.26	2666.46
276.48	2621.40
276.69	2578.39
276.91	2621.40
277.12	2899.92
277.34	2703.32
277.55	2707.41
277.77	2717.65
277.99	2670.55
278.20	2650.07
278.42	2525.15
278.63	2613.21
278.85	2617.30
279.06	2523.10
279.28	2711.51
279.49	2846.68
279.71	2772.95
279.93	2723.80
280.14	2619.35
280.36	2586.58
280.57	2887.64
280.79	2699.22
281.00	2482.14
281.22	2645.98
281.43	2906.07
281.65	2457.56
281.86	2551.77
282.08	2791.38
282.29	2998.23
282.51	2420.70
282.73	2500.57
282.94	2435.03
283.16	2838.48
283.37	2734.04
283.59	2607.06
283.80	2752.47
284.02	2727.89
284.23	2715.61
284.45	2576.34
284.66	2592.73
284.88	2607.06
285.09	2623.45
285.31	2746.33
285.52	2793.43
285.74	2459.61
285.95	2740.18
286.17	2621.40
286.38	2885.59
286.60	2615.26
286.81	2629.59
287.03	2600.92
287.24	2725.85
287.46	2807.77
287.67	2652.12
287.89	2777.05
288.10	2658.26
288.32	2828.24
288.53	2803.67
288.75	2684.89
288.96	2785.24
289.18	2688.98
289.39	2547.67
289.61	2711.51
289.82	2996.18
290.04	2994.13
290.25	2514.91
290.47	2652.12
290.68	2709.46
290.90	2893.78
291.11	2404.32
291.33	2777.05
291.54	2555.86
291.76	2545.63
291.97	2775.00
292.18	2725.85
292.40	2666.46
292.61	2592.73
292.83	2883.54
293.04	2674.65
293.26	2734.04
293.47	2666.46
293.69	2453.47
293.90	2488.28
294.12	2854.87
294.33	2688.98
294.55	2625.50
294.76	2715.61
294.97	2908.12
295.19	3012.56
295.40	2650.07
295.62	2672.60
295.83	2783.19
296.05	2635.74
296.26	2777.05
296.48	2572.25
296.69	2695.13
296.90	2711.51
297.12	2725.85
297.33	2838.48
297.55	2709.46
297.76	2684.89
297.98	2699.22
298.19	2668.50
298.41	2658.26
298.62	2533.34
298.83	2811.86
299.05	2629.59
299.26	2658.26
299.48	2676.70
299.69	2664.41
299.90	2623.45
300.12	2553.82
300.33	2820.05
300.55	2699.22
300.76	2664.41
300.98	2631.64
301.19	2762.71
301.40	2592.73
301.62	2555.86
301.83	2748.37
302.05	2680.79
302.26	2666.46
302.47	2719.70
302.69	2600.92
302.90	2744.28
303.12	2392.03
303.33	2686.94
303.54	3059.67
303.76	2580.44
303.97	2639.83
304.19	2803.67
304.40	2633.69
304.61	2858.96
304.83	2686.94
305.04	2770.90
305.26	2832.34
305.47	2705.37
305.68	2609.11
305.90	2508.76
306.11	2875.35
306.33	2662.36
306.54	2494.43
306.75	2531.29
306.97	2480.09
307.18	2639.83
307.39	2541.53
307.61	2697.17
307.82	2666.46
308.04	2781.14
308.25	2455.51
308.46	2580.44
308.68	2736.09
308.89	2676.70
309.10	2697.17
309.32	2668.50
309.53	2721.75
309.74	2736.09
309.96	2559.96
310.17	2746.33
310.39	2660.31
310.60	2738.13
310.81	2670.55
311.03	2457.56
311.24	2797.53
311.45	2781.14
311.67	2914.26
311.88	2686.94
312.09	2674.65
312.31	2619.35
312.52	2627.54
312.73	2637.78
312.95	2494.43
313.16	2602.97
313.37	2731.99
313.59	2756.57
313.80	2881.49
314.01	2879.44
314.23	2592.73
314.44	2590.68
314.65	2527.19
314.87	2586.58
315.08	2588.63
315.29	2514.91
315.51	2562.01
315.72	2578.39
315.93	2752.47
316.15	2709.46
316.36	2652.12
316.57	2725.85
316.79	2643.93
317.00	2619.35
317.21	2826.20
317.43	2553.82
317.64	2662.36
317.85	2461.66
318.07	2641.88
318.28	2705.37
318.49	2797.53
318.70	2875.35
318.92	2801.62
319.13	2787.29
319.34	2783.19
319.56	2731.99
319.77	2775.00
319.98	2828.24
320.20	2838.48
320.41	2744.28
320.62	2795.48
320.83	2523.10
321.05	2766.81
321.26	2674.65
321.47	2731.99
321.69	2867.16
321.90	2394.08
322.11	2578.39
322.32	2717.65
322.54	3020.75
322.75	2578.39
322.96	3180.50
323.18	2533.34
323.39	2381.79
323.60	2502.62
323.81	2760.66
324.03	2656.22
324.24	2764.76
324.45	2658.26
324.66	2572.25
324.88	2895.83
325.09	2944.98
325.30	2664.41
325.52	2615.26
325.73	2787.29
325.94	2549.72
326.15	2451.42
326.37	2510.81
326.58	2858.96
326.79	2918.36
327.00	2516.95
327.22	2590.68
327.43	2695.13
327.64	2600.92
327.85	2697.17
328.07	2592.73
328.28	2955.22
328.49	2578.39
328.70	2559.96
328.92	2635.74
329.13	2611.16
329.34	2852.82
329.55	2811.86
329.76	2748.37
329.98	2744.28
330.19	2889.68
330.40	2693.08
330.61	2738.13
330.83	2854.87
331.04	2596.82
331.25	2656.22
331.46	2580.44
331.68	2541.53
331.89	2854.87
332.10	2654.17
332.31	2586.58
332.52	2660.31
332.74	2834.39
332.95	2482.14
333.16	2527.19
333.37	2799.57
333.58	2629.59
333.80	2682.84
334.01	2435.03
334.22	2781.14
334.43	2691.03
334.64	2564.06
334.86	2525.15
335.07	2629.59
335.28	2916.31
335.49	2430.94
335.70	2695.13
335.92	2942.93
336.13	3071.95
336.34	2717.65
336.55	2772.95
336.76	2795.48
336.98	2340.83
337.19	2625.50
337.40	2760.66
337.61	3143.63
337.82	2709.46
338.04	2725.85
338.25	2500.57
338.46	2674.65
338.67	2676.70
338.88	2537.43
339.09	2455.51
339.31	2633.69
339.52	2482.14
339.73	2551.77
339.94	2592.73
340.15	2828.24
340.36	2697.17
340.58	2592.73
340.79	2578.39
341.00	2750.42
341.21	2539.48
341.42	2785.24
341.63	2541.53
341.85	2895.83
342.06	2748.37
342.27	2492.38
342.48	2682.84
342.69	2645.98
342.90	2725.85
343.12	2775.00
343.33	2555.86
343.54	2861.01
343.75	2891.73
343.96	2637.78
344.17	2498.52
344.38	2727.89
344.60	2568.15
344.81	2588.63
345.02	2555.86
345.23	2865.11
345.44	3094.48
345.65	2641.88
345.86	2688.98
346.07	2711.51
346.29	2727.89
346.50	2695.13
346.71	2662.36
346.92	2912.21
347.13	3045.33
347.34	2615.26
347.55	2555.86
347.76	2754.52
347.98	2496.47
348.19	2549.72
348.40	2742.23
348.61	2625.50
348.82	2942.93
349.03	2682.84
349.24	2535.39
349.45	2918.36
349.66	2480.09
349.88	2662.36
350.09	2525.15
350.30	2895.83
350.51	2899.92
350.72	2652.12
350.93	2703.32
351.14	2738.13
351.35	2758.61
351.56	2578.39
351.77	2697.17
351.99	2801.62
352.20	3022.80
352.41	2723.80
352.62	2414.56
352.83	2715.61
353.04	2738.13
353.25	2631.64
353.46	2697.17
353.67	2820.05
353.88	2527.19
354.09	2582.49
354.30	2637.78
354.52	2830.29
354.73	2664.41
354.94	2547.67
355.15	2576.34
355.36	2951.12
355.57	2783.19
355.78	2631.64
355.99	2617.30
356.20	2625.50
356.41	2895.83
356.62	2684.89
356.83	2615.26
357.04	2926.55
357.25	2484.19
357.46	2588.63
357.68	2439.13
357.89	2586.58
358.10	2609.11
358.31	2588.63
358.52	2582.49
358.73	2547.67
358.94	2559.96
359.15	2633.69
359.36	2607.06
359.57	2727.89
359.78	2691.03
359.99	2701.27
360.20	2473.95
360.41	2662.36
360.62	2836.44
360.83	2666.46
361.04	2697.17
361.25	2840.53
361.46	2924.50
361.67	2600.92
361.88	2609.11
362.09	2842.58
362.30	2820.05
362.51	2527.19
362.72	2654.17
362.93	2858.96
363.14	2734.04
363.35	2648.02
363.56	2537.43
363.78	2981.84
363.99	2824.15
364.20	2588.63
364.41	2695.13
364.62	2994.13
364.83	2760.66
365.04	2684.89
365.25	2596.82
365.46	3020.75
365.67	2633.69
365.88	2738.13
366.09	2607.06
366.30	2648.02
366.51	2643.93
366.72	2535.39
366.93	2588.63
367.14	2764.76
367.35	2981.84
367.56	2602.97
367.77	2738.13
367.98	2787.29
368.18	2764.76
368.39	2750.42
368.60	2527.19
368.81	2744.28
369.02	2779.09
369.23	2600.92
369.44	2490.33
369.65	2734.04
369.86	2793.43
370.07	2764.76
370.28	2504.67
370.49	2742.23
370.70	2813.91
370.91	2586.58
371.12	2527.19
371.33	2924.50
371.54	2621.40
371.75	2797.53
371.96	2367.45
372.17	2736.09
372.38	2652.12
372.59	2676.70
372.80	2492.38
373.01	2740.18
373.22	2711.51
373.43	2654.17
373.64	2453.47
373.85	2879.44
374.06	2971.60
374.26	2750.42
374.47	2709.46
374.68	2940.88
374.89	2779.09
375.10	2559.96
375.31	2682.84
375.52	2711.51
375.73	2744.28
375.94	2611.16
376.15	2793.43
376.36	2598.87
376.57	2670.55
376.78	2627.54
376.99	2662.36
377.20	2854.87
377.40	2676.70
377.61	2893.78
377.82	2504.67
378.03	2949.08
378.24	2801.62
378.45	2674.65
378.66	2650.07
378.87	2482.14
379.08	2451.42
379.29	2584.54
379.50	2805.72
379.71	2594.78
379.91	2824.15
380.12	2588.63
380.33	2662.36
380.54	2709.46
380.75	2691.03
380.96	2629.59
381.17	2742.23
381.38	2691.03
381.59	2729.94
381.80	2617.30
382.00	2795.48
382.21	2762.71
382.42	2906.07
382.63	2969.55
382.84	2758.61
383.05	2826.20
383.26	2983.89
383.47	2695.13
383.68	2613.21
383.88	2813.91
384.09	2785.24
384.30	2754.52
384.51	2783.19
384.72	2631.64
384.93	2547.67
385.14	2688.98
385.35	2807.77
385.55	2504.67
385.76	2893.78
385.97	2607.06
386.18	2461.66
386.39	2629.59
386.60	2635.74
386.81	2596.82
387.02	2555.86
387.22	2525.15
387.43	2867.16
387.64	2787.29
387.85	2852.82
388.06	2850.77
388.27	3983.30
388.48	7536.52
388.68	11034.46
388.89	13395.76
389.10	14450.47
389.31	13817.65
389.52	10848.09
389.73	9467.76
389.93	8507.26
390.14	7872.39
390.35	7085.97
390.56	6322.08
390.77	5236.66
390.98	4136.90
391.18	3471.31
391.39	3119.06
391.60	2752.47
391.81	2799.57
392.02	2678.74
392.23	3063.76
392.43	2813.91
392.64	2772.95
392.85	2648.02
393.06	2947.03
393.27	2709.46
393.47	2566.10
393.68	2652.12
393.89	2654.17
394.10	2887.64
394.31	2596.82
394.52	2545.63
394.72	2570.20
394.93	2940.88
395.14	2506.71
395.35	2740.18
395.56	2623.45
395.76	2686.94
395.97	2697.17
396.18	2752.47
396.39	2838.48
396.60	3305.42
396.80	2940.88
397.01	2785.24
397.22	2924.50
397.43	2871.25
397.64	2580.44
397.84	2799.57
398.05	3092.43
398.26	2668.50
398.47	2682.84
398.67	2856.92
398.88	2785.24
399.09	2791.38
399.30	2602.97
399.51	2699.22
399.71	2660.31
399.92	2703.32
400.13	2633.69
400.34	2664.41
400.54	2840.53
400.75	2940.88
400.96	2670.55
401.17	2883.54
401.37	2852.82
401.58	2764.76
401.79	2594.78
402.00	2789.33
402.21	3125.20
402.41	2971.60
402.62	2959.31
402.83	3030.99
403.04	3057.62
403.24	3332.05
403.45	2787.29
403.66	2918.36
403.87	2861.01
404.07	2949.08
404.28	2949.08
404.49	2934.74
404.70	2797.53
404.90	2731.99
405.11	2719.70
405.32	2811.86
405.52	2658.26
405.73	2693.08
405.94	2557.91
406.15	2688.98
406.35	2836.44
406.56	2883.54
406.77	2666.46
406.98	2691.03
407.18	2596.82
407.39	2889.68
407.60	2615.26
407.80	2688.98
408.01	2676.70
408.22	2746.33
408.43	2570.20
408.63	2734.04
408.84	2924.50
409.05	2842.58
409.25	2562.01
409.46	2500.57
409.67	2584.54
409.88	2574.30
410.08	2637.78
410.29	2615.26
410.50	2854.87
410.70	2830.29
410.91	2555.86
411.12	2602.97
411.32	2699.22
411.53	2582.49
411.74	2639.83
411.95	2672.60
412.15	2766.81
412.36	2830.29
412.57	2752.47
412.77	2770.90
412.98	2748.37
413.19	2656.22
413.39	2699.22
413.60	2629.59
413.81	2871.25
414.01	2504.67
414.22	2578.39
414.43	2697.17
414.63	2719.70
414.84	2848.72
415.05	2686.94
415.25	2486.23
415.46	2719.70
415.67	2641.88
415.87	2682.84
416.08	2570.20
416.29	2664.41
416.49	2832.34
416.70	2695.13
416.91	2594.78
417.11	2736.09
417.32	2805.72
417.53	2764.76
417.73	2670.55
417.94	2779.09
418.15	2779.09
418.35	2666.46
418.56	2650.07
418.77	3098.58
418.97	2760.66
419.18	2736.09
419.38	2480.09
419.59	2695.13
419.80	2922.45
420.00	2658.26
420.21	2715.61
420.42	2856.92
420.62	2768.85
420.83	2629.59
421.04	2617.30
421.24	2705.37
421.45	2805.72
421.65	2691.03
421.86	2588.63
422.07	2815.96
422.27	2777.05
422.48	2598.87
422.69	2490.33
422.89	2734.04
423.10	2699.22
423.30	2600.92
423.51	2672.60
423.72	2785.24
423.92	2914.26
424.13	2478.04
424.33	2686.94
424.54	2830.29
424.75	2744.28
424.95	2813.91
425.16	2701.27
425.36	2711.51
425.57	2895.83
425.78	2725.85
425.98	2762.71
426.19	2654.17
426.39	2707.41
426.60	2701.27
426.81	2772.95
427.01	2695.13
427.22	2619.35
427.42	2480.09
427.63	2543.58
427.83	2824.15
428.04	2875.35
428.25	2799.57
428.45	2746.33
428.66	2899.92
428.86	2668.50
429.07	2605.02
429.28	2639.83
429.48	2715.61
429.69	2588.63
429.89	2654.17
430.10	2523.10
430.30	2856.92
430.51	2832.34
430.71	2490.33
430.92	2652.12
431.13	2627.54
431.33	2803.67
431.54	2748.37
431.74	2947.03
431.95	3026.90
432.15	2639.83
432.36	2609.11
432.56	2772.95
432.77	3119.06
432.98	3069.91
433.18	2715.61
433.39	2574.30
433.59	2703.32
433.80	3039.19
434.00	2940.88
434.21	2650.07
434.41	2533.34
434.62	3127.25
434.82	2457.56
435.03	2486.23
435.23	2770.90
435.44	2559.96
435.64	2621.40
435.85	2705.37
436.06	2836.44
436.26	2877.40
436.47	2625.50
436.67	2605.02
436.88	2711.51
437.08	2895.83
437.29	2783.19
437.49	2684.89
437.70	2930.64
437.90	2693.08
438.11	2897.88
438.31	2738.13
438.52	2879.44
438.72	2881.49
438.93	2975.70
439.13	2645.98
439.34	2846.68
439.54	2674.65
439.75	2674.65
439.95	2723.80
440.16	2553.82
440.36	2723.80
440.57	2670.55
440.77	2648.02
440.98	2760.66
441.18	2731.99
441.39	2531.29
441.59	2527.19
441.80	2998.23
442.00	2768.85
442.21	2734.04
442.41	2486.23
442.62	2867.16
442.82	2627.54
443.02	2639.83
443.23	2656.22
443.43	2711.51
443.64	2895.83
443.84	2582.49
444.05	2715.61
444.25	2699.22
444.46	2744.28
444.66	2668.50
444.87	2820.05
445.07	2529.24
445.28	2654.17
445.48	2764.76
445.69	2725.85
445.89	3078.10
446.09	2744.28
446.30	2969.55
446.50	3086.29
446.71	4569.02
446.91	5646.25
447.12	6508.44
447.32	6791.06
447.53	6504.35
447.73	5406.64
447.93	4786.10
448.14	4562.87
448.34	4435.90
448.55	3844.04
448.75	3805.13
448.96	3604.42
449.16	3387.34
449.36	3309.52
449.57	2793.43
449.77	2709.46
449.98	2686.94
450.18	2867.16
450.39	2744.28
450.59	2770.90
450.79	2701.27
451.00	2592.73
451.20	2818.00
451.41	2617.30
451.61	2791.38
451.81	2762.71
452.02	2594.78
452.22	2658.26
452.43	2670.55
452.63	2662.36
452.84	2742.23
453.04	2617.30
453.24	2758.61
453.45	2600.92
453.65	2688.98
453.86	2723.80
454.06	2797.53
454.26	2684.89
454.47	2529.24
454.67	2873.30
454.87	2781.14
455.08	2770.90
455.28	2785.24
455.49	2797.53
455.69	2562.01
455.89	3063.76
456.10	2727.89
456.30	2586.58
456.51	2824.15
456.71	2768.85
456.91	2752.47
457.12	2660.31
457.32	2801.62
457.52	2519.00
457.73	2701.27
457.93	2801.62
458.14	2725.85
458.34	2533.34
458.54	2662.36
458.75	2625.50
458.95	2856.92
459.15	2748.37
459.36	2729.94
459.56	2654.17
459.76	3114.96
459.97	2703.32
460.17	2611.16
460.37	2768.85
460.58	2797.53
460.78	2789.33
460.99	2756.57
461.19	2656.22
461.39	2670.55
461.60	2734.04
461.80	2754.52
462.00	2617.30
462.21	2666.46
462.41	2576.34
462.61	2564.06
462.82	2478.04
463.02	2867.16
463.22	2695.13
463.43	2721.75
463.63	2588.63
463.83	2881.49
464.04	2789.33
464.24	2592.73
464.44	2590.68
464.64	2670.55
464.85	2899.92
465.05	2684.89
465.25	2670.55
465.46	2574.30
465.66	2881.49
465.86	2803.67
466.07	2631.64
466.27	2727.89
466.47	2535.39
466.68	2449.37
466.88	2758.61
467.08	2809.81
467.29	2871.25
467.49	2625.50
467.69	2643.93
467.89	2779.09
468.10	2682.84
468.30	2691.03
468.50	2754.52
468.71	2920.40
468.91	2635.74
469.11	2777.05
469.31	2676.70
469.52	2645.98
469.72	3026.90
469.92	2883.54
470.13	2691.03
470.33	2674.65
470.53	2725.85
470.73	3055.57
470.94	3401.68
471.14	3399.63
471.34	3895.24
471.54	3561.42
471.75	3336.14
471.95	3071.95
472.15	3078.10
472.36	3157.97
472.56	3059.67
472.76	3151.82
472.96	3035.09
473.17	2987.99
473.37	2785.24
473.57	2764.76
473.77	2811.86
473.98	2756.57
474.18	2545.63
474.38	3215.31
474.58	2762.71
474.79	2539.48
474.99	2852.82
475.19	2924.50
475.39	2576.34
475.60	2676.70
475.80	2668.50
476.00	2777.05
476.20	2686.94
476.41	2777.05
476.61	2699.22
476.81	2981.84
477.01	2602.97
477.21	2863.06
477.42	2824.15
477.62	2537.43
477.82	2844.63
478.02	2637.78
478.23	2760.66
478.43	2613.21
478.63	2688.98
478.83	2674.65
479.03	2701.27
479.24	2920.40
479.44	3045.33
479.64	2539.48
479.84	2465.75
480.04	2637.78
480.25	2846.68
480.45	2570.20
480.65	2594.78
480.85	2910.16
481.06	2643.93
481.26	2676.70
481.46	2699.22
481.66	2781.14
481.86	2553.82
482.06	2801.62
482.27	2697.17
482.47	2699.22
482.67	2736.09
482.87	2674.65
483.07	2791.38
483.28	2701.27
483.48	2605.02
483.68	2625.50
483.88	2588.63
484.08	2439.13
484.29	2553.82
484.49	2717.65
484.69	2543.58
484.89	2938.84
485.09	2834.39
485.29	2703.32
485.50	2748.37
485.70	2715.61
485.90	2953.17
486.10	2750.42
486.30	2691.03
486.50	2891.73
486.71	2779.09
486.91	2680.79
487.11	2777.05
487.31	2539.48
487.51	2748.37
487.71	2656.22
487.91	2580.44
488.12	2588.63
488.32	2441.18
488.52	2619.35
488.72	2389.98
488.92	2707.41
489.12	2891.73
489.32	2834.39
489.53	2643.93
489.73	2506.71
489.93	2953.17
490.13	2654.17
490.33	2443.23
490.53	2772.95
490.73	2873.30
490.94	2473.95
491.14	2721.75
491.34	2942.93
491.54	2908.12
491.74	3483.59
491.94	4110.27
492.14	4480.96
492.34	4444.09
492.54	4136.90
492.75	3473.36
492.95	3747.78
493.15	3356.62
493.35	3291.09
493.55	3166.16
493.75	2987.99
493.95	3151.82
494.15	2942.93
494.35	2719.70
494.56	2711.51
494.76	2621.40
494.96	2723.80
495.16	2635.74
495.36	2650.07
495.56	2686.94
495.76	2736.09
495.96	2670.55
496.16	2686.94
496.36	2975.70
496.56	2557.91
496.77	2701.27
496.97	2758.61
497.17	2942.93
497.37	2492.38
497.57	2641.88
497.77	2811.86
497.97	2594.78
498.17	2609.11
498.37	2605.02
498.57	2818.00
498.77	2756.57
498.97	2809.81
499.17	2916.31
499.38	2707.41
499.58	2893.78
499.78	2770.90
499.98	2750.42
500.18	2713.56
500.38	2637.78
500.58	2901.97
500.78	3235.79
500.98	5343.15
501.18	7311.25
501.38	8656.76
501.58	9611.12
501.78	9461.62
501.98	7683.98
502.18	6459.29
502.38	5633.96
502.58	5349.29
502.78	4812.73
502.98	4616.12
503.18	4521.92
503.38	4116.42
503.59	3583.95
503.79	3446.73
503.99	3293.13
504.19	3153.87
504.39	3151.82
504.59	3170.26
504.79	3104.72
504.99	3209.17
505.19	2983.89
505.39	2844.63
505.59	3022.80
505.79	3006.42
505.99	2850.77
506.19	2727.89
506.39	2863.06
506.59	2723.80
506.79	2707.41
506.99	2830.29
507.19	2629.59
507.39	2719.70
507.59	2514.91
507.79	2594.78
507.99	2600.92
508.19	2731.99
508.39	2625.50
508.59	2668.50
508.79	2768.85
508.99	3049.43
509.19	2600.92
509.39	2813.91
509.59	2564.06
509.79	2623.45
509.99	2766.81
510.19	2713.56
510.39	2756.57
510.59	2752.47
510.79	2613.21
510.99	2557.91
511.19	2645.98
511.39	2969.55
511.59	2869.20
511.79	2783.19
511.99	2688.98
512.19	2873.30
512.38	2772.95
512.58	2535.39
512.78	2576.34
512.98	2871.25
513.18	2889.68
513.38	2512.86
513.58	2680.79
513.78	2664.41
513.98	2680.79
514.18	2605.02
514.38	2613.21
514.58	2742.23
514.78	2662.36
514.98	2484.19
515.18	2547.67
515.38	2535.39
515.58	3008.47
515.78	2654.17
515.98	2752.47
516.18	2736.09
516.38	2748.37
516.57	2572.25
516.77	2539.48
516.97	2793.43
517.17	2635.74
517.37	2475.99
517.57	2762.71
517.77	2695.13
517.97	2621.40
518.17	2777.05
518.37	2576.34
518.57	2691.03
518.77	2686.94
518.97	2648.02
519.16	2684.89
519.36	2912.21
519.56	2721.75
519.76	2543.58
519.96	2697.17
520.16	2951.12
520.36	2645.98
520.56	2805.72
520.76	2568.15
520.96	2762.71
521.16	2818.00
521.35	2848.72
521.55	2783.19
521.75	2807.77
521.95	2648.02
522.15	2539.48
522.35	2480.09
522.55	2709.46
522.75	2826.20
522.95	2596.82
523.14	2559.96
523.34	2787.29
523.54	2670.55
523.74	2734.04
523.94	2674.65
524.14	2545.63
524.34	2815.96
524.54	2793.43
524.73	2584.54
524.93	2820.05
525.13	2791.38
525.33	2519.00
525.53	2891.73
525.73	2826.20
525.93	2723.80
526.13	2621.40
526.32	2564.06
526.52	2906.07
526.72	2832.34
526.92	2734.04
527.12	2543.58
527.32	2566.10
527.52	2836.44
527.71	2719.70
527.91	2664.41
528.11	2693.08
528.31	2734.04
528.51	2631.64
528.71	2723.80
528.90	2801.62
529.10	2934.74
529.30	2713.56
529.50	2381.79
529.70	2701.27
529.90	2697.17
530.09	2703.32
530.29	2471.90
530.49	2613.21
530.69	3141.58
530.89	2758.61
531.09	2781.14
531.28	2566.10
531.48	2877.40
531.68	2674.65
531.88	2619.35
532.08	2795.48
532.28	2666.46
532.47	2719.70
532.67	2717.65
532.87	2805.72
533.07	2596.82
533.27	2723.80
533.46	2772.95
533.66	2824.15
533.86	2746.33
534.06	2682.84
534.26	2715.61
534.45	2658.26
534.65	2858.96
534.85	2711.51
535.05	2564.06
535.25	2846.68
535.44	2514.91
535.64	2727.89
535.84	2576.34
536.04	2682.84
536.24	2623.45
536.43	2662.36
536.63	2654.17
536.83	2715.61
537.03	2627.54
537.22	2502.62
537.42	2478.04
537.62	2777.05
537.82	2613.21
538.02	2826.20
538.21	2762.71
538.41	3164.11
538.61	2883.54
538.81	2699.22
539.00	2834.39
539.20	2568.15
539.40	2695.13
539.60	2600.92
539.79	2832.34
539.99	2746.33
540.19	2605.02
540.39	2684.89
540.58	2684.89
540.78	2861.01
540.98	2744.28
541.18	2738.13
541.37	2703.32
541.57	2731.99
541.77	2779.09
541.97	2572.25
542.16	2519.00
542.36	2658.26
542.56	2670.55
542.76	2879.44
542.95	2744.28
543.15	2815.96
543.35	2856.92
543.54	2592.73
543.74	2627.54
543.94	2883.54
544.14	2686.94
544.33	2731.99
544.53	2674.65
544.73	2695.13
544.93	2584.54
545.12	2670.55
545.32	2623.45
545.52	2654.17
545.71	2648.02
545.91	2619.35
546.11	2559.96
546.30	2564.06
546.50	2740.18
546.70	2686.94
546.90	2715.61
547.09	2525.15
547.29	2736.09
547.49	2856.92
547.68	2596.82
547.88	2623.45
548.08	2811.86
548.27	2957.27
548.47	2551.77
548.67	2650.07
548.87	2795.48
549.06	2547.67
549.26	2598.87
549.46	2813.91
549.65	2582.49
549.85	2678.74
550.05	2682.84
550.24	2572.25
550.44	2672.60
550.64	2693.08
550.83	2686.94
551.03	3004.37
551.23	2918.36
551.42	2658.26
551.62	2658.26
551.82	2760.66
552.01	2641.88
552.21	2918.36
552.41	2688.98
552.60	2949.08
552.80	2723.80
553.00	2547.67
553.19	2625.50
553.39	2912.21
553.59	2547.67
553.78	2742.23
553.98	2598.87
554.17	2543.58
554.37	2711.51
554.57	2756.57
554.76	2570.20
554.96	2641.88
555.16	2762.71
555.35	2736.09
555.55	2703.32
555.75	2656.22
555.94	2856.92
556.14	2463.71
556.33	2746.33
556.53	2678.74
556.73	2682.84
556.92	2734.04
557.12	2625.50
557.32	3090.38
557.51	2910.16
557.71	2693.08
557.90	2863.06
558.10	2975.70
558.30	2688.98
558.49	2652.12
558.69	2697.17
558.88	2772.95
559.08	2803.67
559.28	2629.59
559.47	2705.37
559.67	2746.33
559.86	3069.91
560.06	2674.65
560.26	2635.74
560.45	2799.57
560.65	2697.17
560.84	2889.68
561.04	2609.11
561.24	2838.48
561.43	2580.44
561.63	2873.30
561.82	2766.81
562.02	2811.86
562.22	2605.02
562.41	2555.86
562.61	2547.67
562.80	2600.92
563.00	3065.81
563.19	2709.46
563.39	2758.61
563.59	2811.86
563.78	2629.59
563.98	2426.84
564.17	2590.68
564.37	2498.52
564.56	2709.46
564.76	2529.24
564.96	2795.48
565.15	2797.53
565.35	3071.95
565.54	2680.79
565.74	2758.61
565.93	2842.58
566.13	2654.17
566.32	2758.61
566.52	2723.80
566.71	2783.19
566.91	2809.81
567.11	2754.52
567.30	2611.16
567.50	2834.39
567.69	2787.29
567.89	2629.59
568.08	2502.62
568.28	2756.57
568.47	2541.53
568.67	2695.13
568.86	2602.97
569.06	2772.95
569.25	2711.51
569.45	2637.78
569.64	2670.55
569.84	2736.09
570.04	2750.42
570.23	2641.88
570.43	2629.59
570.62	2734.04
570.82	2975.70
571.01	2543.58
571.21	2586.58
571.40	2617.30
571.60	2914.26
571.79	2686.94
571.99	2670.55
572.18	2613.21
572.38	2865.11
572.57	2586.58
572.77	2795.48
572.96	3055.57
573.16	2820.05
573.35	2654.17
573.55	2772.95
573.74	2770.90
573.94	2715.61
574.13	2654.17
574.33	2781.14
574.52	2906.07
574.71	2703.32
574.91	2781.14
575.10	2486.23
575.30	2629.59
575.49	2615.26
575.69	2629.59
575.88	2713.56
576.08	2670.55
576.27	2846.68
576.47	2645.98
576.66	2867.16
576.86	2858.96
577.05	2775.00
577.25	2736.09
577.44	2863.06
577.64	2668.50
577.83	2916.31
578.02	2588.63
578.22	2865.11
578.41	3045.33
578.61	2688.98
578.80	2527.19
579.00	2652.12
579.19	2613.21
579.39	2779.09
579.58	2815.96
579.77	2684.89
579.97	2875.35
580.16	2813.91
580.36	2820.05
580.55	2764.76
580.75	2744.28
580.94	2723.80
581.13	2838.48
581.33	2828.24
581.52	2658.26
581.72	3051.47
581.91	2783.19
582.11	2656.22
582.30	2789.33
582.49	2764.76
582.69	2932.69
582.88	2766.81
583.08	2842.58
583.27	2861.01
583.47	2805.72
583.66	2670.55
583.85	2615.26
584.05	2779.09
584.24	2736.09
584.44	2768.85
584.63	2893.78
584.82	2936.79
585.02	2815.96
585.21	2727.89
585.41	2809.81
585.60	2811.86
585.79	2987.99
585.99	2918.36
586.18	2824.15
586.37	3436.49
586.57	5406.64
586.76	16058.12
586.96	35059.18
587.15	48385.31
587.34	56831.13
587.54	60982.37
587.73	54867.13
587.93	38737.33
588.12	29402.69
588.31	23891.60
588.51	21106.37
588.70	19281.63
588.89	17250.04
589.09	14751.52
589.28	12414.79
589.47	9955.18
589.67	7569.29
589.86	6025.12
590.06	4538.30
590.25	3831.75
590.44	3424.20
590.64	3061.71
590.83	2992.08
591.02	2973.65
591.22	2750.42
591.41	2797.53
591.60	2674.65
591.80	3067.86
591.99	2557.91
592.18	2627.54
592.38	2887.64
592.57	2691.03
592.76	2695.13
592.96	2705.37
593.15	2699.22
593.34	2889.68
593.54	2596.82
593.73	2713.56
593.92	2893.78
594.12	2813.91
594.31	2693.08
594.50	2826.20
594.70	2844.63
594.89	3071.95
595.08	2566.10
595.28	2766.81
595.47	3168.21
595.66	2858.96
595.86	2609.11
596.05	2545.63
596.24	2648.02
596.43	2985.94
596.63	2871.25
596.82	2731.99
597.01	2846.68
597.21	2906.07
597.40	2723.80
597.59	2678.74
597.79	2795.48
597.98	2818.00
598.17	2762.71
598.36	2729.94
598.56	2887.64
598.75	2621.40
598.94	2760.66
599.14	2617.30
599.33	2600.92
599.52	2883.54
599.71	2693.08
599.91	2727.89
600.10	2818.00
600.29	2826.20
600.48	2818.00
600.68	2711.51
600.87	2799.57
601.06	2600.92
601.26	2695.13
601.45	2750.42
601.64	2691.03
601.83	2838.48
602.03	2670.55
602.22	2574.30
602.41	2942.93
602.60	3047.38
602.80	2781.14
602.99	2809.81
603.18	2684.89
603.37	2801.62
603.57	2660.31
603.76	2750.42
603.95	2840.53
604.14	2697.17
604.34	2645.98
604.53	2625.50
604.72	2723.80
604.91	2865.11
605.10	2676.70
605.30	2514.91
605.49	3084.24
605.68	2875.35
605.87	2721.75
606.07	2588.63
606.26	2772.95
606.45	2820.05
606.64	2648.02
606.84	2564.06
607.03	2672.60
607.22	2891.73
607.41	2607.06
607.60	2609.11
607.80	2904.02
607.99	2695.13
608.18	2695.13
608.37	2729.94
608.56	2727.89
608.76	2904.02
608.95	2875.35
609.14	2662.36
609.33	2918.36
609.52	2873.30
609.72	2764.76
609.91	2856.92
610.10	2744.28
610.29	2871.25
610.48	2764.76
610.68	2805.72
610.87	2807.77
611.06	2830.29
611.25	2721.75
611.44	2828.24
611.63	2645.98
611.83	2906.07
612.02	2478.04
612.21	2764.76
612.40	2400.22
612.59	2590.68
612.79	2539.48
612.98	2695.13
613.17	2942.93
613.36	2678.74
613.55	2807.77
613.74	2695.13
613.93	2803.67
614.13	2889.68
614.32	2840.53
614.51	2734.04
614.70	2703.32
614.89	2744.28
615.08	2748.37
615.28	3217.36
615.47	2670.55
615.66	2834.39
615.85	2699.22
616.04	2807.77
616.23	2719.70
616.42	2797.53
616.62	2731.99
616.81	2695.13
617.00	2736.09
617.19	2809.81
617.38	2574.30
617.57	2656.22
617.76	2832.34
617.95	2891.73
618.15	2760.66
618.34	2885.59
618.53	2617.30
618.72	2848.72
618.91	2781.14
619.10	2883.54
619.29	2703.32
619.48	2717.65
619.68	2609.11
619.87	2645.98
620.06	2559.96
620.25	2762.71
620.44	2678.74
620.63	2594.78
620.82	2793.43
621.01	2729.94
621.20	2736.09
621.39	2779.09
621.59	2766.81
621.78	2672.60
621.97	2695.13
622.16	2742.23
622.35	2795.48
622.54	2930.64
622.73	2744.28
622.92	2449.37
623.11	2920.40
623.30	2715.61
623.49	2731.99
623.68	2523.10
623.88	2926.55
624.07	2752.47
624.26	2699.22
624.45	2660.31
624.64	2725.85
624.83	2758.61
625.02	2676.70
625.21	2637.78
625.40	2721.75
625.59	2936.79
625.78	2688.98
625.97	2789.33
626.16	2920.40
626.35	2969.55
626.54	2623.45
626.74	2875.35
626.93	2697.17
627.12	2695.13
627.31	2779.09
627.50	2715.61
627.69	2858.96
627.88	2584.54
628.07	2686.94
628.26	2592.73
628.45	2625.50
628.64	2547.67
628.83	2619.35
629.02	2547.67
629.21	2858.96
629.40	2717.65
629.59	2605.02
629.78	2609.11
629.97	2723.80
630.16	2723.80
630.35	2619.35
630.54	2619.35
630.73	2688.98
630.92	2744.28
631.11	2578.39
631.30	2711.51
631.49	2883.54
631.68	2775.00
631.87	2688.98
632.06	2568.15
632.25	3071.95
632.44	2703.32
632.63	2693.08
632.82	2695.13
633.01	2607.06
633.20	2721.75
633.39	2678.74
633.58	2547.67
633.77	2818.00
633.96	2795.48
634.15	2846.68
634.34	2744.28
634.53	2818.00
634.72	2652.12
634.91	2504.67
635.10	2650.07
635.29	2793.43
635.48	2797.53
635.67	2580.44
635.86	2484.19
636.05	2961.36
636.24	2709.46
636.43	2633.69
636.62	2707.41
636.81	2435.03
637.00	2709.46
637.19	2701.27
637.38	2674.65
637.57	2688.98
637.76	2734.04
637.95	2797.53
638.14	2697.17
638.33	2760.66
638.52	2709.46
638.71	2627.54
638.89	2580.44
639.08	3227.60
639.27	2942.93
639.46	2813.91
639.65	3192.78
639.84	3145.68
640.03	3362.76
640.22	3008.47
640.41	3153.87
640.60	2826.20
640.79	2940.88
640.98	2840.53
641.17	2836.44
641.36	2842.58
641.55	2865.11
641.74	2607.06
641.92	2637.78
642.11	2662.36
642.30	2742.23
642.49	2514.91
642.68	2602.97
642.87	2793.43
643.06	2867.16
643.25	2654.17
643.44	2523.10
643.63	2705.37
643.82	2858.96
644.00	2582.49
644.19	2738.13
644.38	2496.47
644.57	2803.67
644.76	2736.09
644.95	2744.28
645.14	2752.47
645.33	2746.33
645.52	2701.27
645.71	2531.29
645.89	2570.20
646.08	2688.98
646.27	2594.78
646.46	2906.07
646.65	2521.05
646.84	2775.00
647.03	2572.25
647.22	2836.44
647.40	2783.19
647.59	2617.30
647.78	2486.23
647.97	2672.60
648.16	2555.86
648.35	2957.27
648.54	2801.62
648.73	2629.59
648.91	2785.24
649.10	2785.24
649.29	2627.54
649.48	2666.46
649.67	2813.91
649.86	2744.28
650.05	2736.09
650.23	2813.91
650.42	2682.84
650.61	2922.45
650.80	2779.09
650.99	2895.83
651.18	2920.40
651.36	2942.93
651.55	2648.02
651.74	2805.72
651.93	2703.32
652.12	2682.84
652.31	2744.28
652.49	2688.98
652.68	2684.89
652.87	2953.17
653.06	2742.23
653.25	2916.31
653.44	2779.09
653.62	2971.60
653.81	2654.17
654.00	2680.79
654.19	2875.35
654.38	3137.49
654.56	2664.41
654.75	2674.65
654.94	2846.68
655.13	2752.47
655.32	2586.58
655.51	2762.71
655.69	2611.16
655.88	2766.81
656.07	2562.01
656.26	2760.66
656.45	2586.58
656.63	2707.41
656.82	2699.22
657.01	2856.92
657.20	2662.36
657.38	2926.55
657.57	2670.55
657.76	2570.20
657.95	2865.11
658.14	2568.15
658.32	2676.70
658.51	2475.99
658.70	2777.05
658.89	2805.72
659.08	2676.70
659.26	2791.38
659.45	2605.02
659.64	2801.62
659.83	2609.11
660.01	3092.43
660.20	2777.05
660.39	2971.60
660.58	2414.56
660.76	2723.80
660.95	2598.87
661.14	2652.12
661.33	2531.29
661.51	2555.86
661.70	2641.88
661.89	2834.39
662.08	2727.89
662.26	2590.68
662.45	2570.20
662.64	2963.41
662.83	2672.60
663.01	2555.86
663.20	2588.63
663.39	2973.65
663.58	2609.11
663.76	2586.58
663.95	2764.76
664.14	2576.34
664.32	2613.21
664.51	2562.01
664.70	2496.47
664.89	2742.23
665.07	2529.24
665.26	2764.76
665.45	2514.91
665.64	2861.01
665.82	2664.41
666.01	2783.19
666.20	2500.57
666.38	2875.35
666.57	2863.06
666.76	4292.54
666.95	10071.91
667.13	17069.82
667.32	21012.16
667.51	23871.12
667.69	25161.34
667.88	21608.12
668.07	15327.00
668.25	12971.83
668.44	10882.91
668.63	9623.41
668.81	8398.72
669.00	7106.45
669.19	6569.88
669.38	5742.50
669.56	4931.51
669.75	4212.67
669.94	3708.87
670.12	3260.37
670.31	3018.71
670.50	3014.61
670.68	2938.84
670.87	2785.24
671.06	2658.26
671.24	2795.48
671.43	2877.40
671.62	2746.33
671.80	2623.45
671.99	2752.47
672.18	2736.09
672.36	2922.45
672.55	2705.37
672.74	2668.50
672.92	2684.89
673.11	2867.16
673.29	2527.19
673.48	2766.81
673.67	2727.89
673.85	2791.38
674.04	2514.91
674.23	2725.85
674.41	3033.04
674.60	2564.06
674.79	2408.41
674.97	2648.02
675.16	2848.72
675.34	2852.82
675.53	2602.97
675.72	2693.08
675.90	2965.46
676.09	2656.22
676.28	2715.61
676.46	2475.99
676.65	2818.00
676.83	2568.15
677.02	2625.50
677.21	2697.17
677.39	2723.80
677.58	2578.39
677.77	2617.30
677.95	2602.97
678.14	2721.75
678.32	2697.17
678.51	2533.34
678.70	2916.31
678.88	2664.41
679.07	2744.28
679.25	2639.83
679.44	2697.17
679.63	2553.82
679.81	2678.74
680.00	2818.00
680.18	2772.95
680.37	3028.95
680.55	2744.28
680.74	2533.34
680.93	2398.17
681.11	2791.38
681.30	2760.66
681.48	2605.02
681.67	2666.46
681.85	2775.00
682.04	2578.39
682.23	2824.15
682.41	2783.19
682.60	2594.78
682.78	2760.66
682.97	2478.04
683.15	2609.11
683.34	2693.08
683.53	2971.60
683.71	2484.19
683.90	2865.11
684.08	3086.29
684.27	2678.74
684.45	2631.64
684.64	2768.85
684.82	2717.65
685.01	2826.20
685.19	2619.35
685.38	2904.02
685.57	2725.85
685.75	2547.67
685.94	2643.93
686.12	2559.96
686.31	2652.12
686.49	2963.41
686.68	2424.80
686.86	2707.41
687.05	2691.03
687.23	2922.45
687.42	2639.83
687.60	2441.18
687.79	2846.68
687.97	2934.74
688.16	2852.82
688.34	2791.38
688.53	2422.75
688.71	2717.65
688.90	2901.97
689.08	2691.03
689.27	2498.52
689.45	2863.06
689.64	2820.05
689.82	2697.17
690.01	2791.38
690.19	2791.38
690.38	2688.98
690.56	2731.99
690.75	2580.44
690.93	2635.74
691.12	2600.92
691.30	2723.80
691.49	2723.80
691.67	2699.22
691.86	2957.27
692.04	2660.31
692.23	2660.31
692.41	2744.28
692.60	2916.31
692.78	2850.77
692.97	2672.60
693.15	2840.53
693.34	2897.88
693.52	2877.40
693.71	2648.02
693.89	2613.21
694.08	2553.82
694.26	2762.71
694.44	2842.58
694.63	2779.09
694.81	2523.10
695.00	2611.16
695.18	2910.16
695.37	3098.58
695.55	2791.38
695.74	2625.50
695.92	2637.78
696.10	2887.64
696.29	2516.95
696.47	2631.64
696.66	2568.15
696.84	2578.39
697.03	2652.12
697.21	2885.59
697.40	4128.70
697.58	2891.73
697.76	2506.71
697.95	2613.21
698.13	2609.11
698.32	2600.92
698.50	2654.17
698.68	2754.52
698.87	2760.66
699.05	3008.47
699.24	2623.45
699.42	2504.67
699.61	2711.51
699.79	2627.54
699.97	2727.89
700.16	2564.06
700.34	2574.30
700.53	2738.13
700.71	2856.92
700.89	2770.90
701.08	2635.74
701.26	2748.37
701.45	3102.67
701.63	2564.06
701.81	2738.13
702.00	2613.21
702.18	2680.79
702.37	2658.26
702.55	2899.92
702.73	2854.87
702.92	2662.36
703.10	2932.69
703.28	2906.07
703.47	2631.64
703.65	2877.40
703.84	2787.29
704.02	2660.31
704.20	2963.41
704.39	2572.25
704.57	2662.36
704.75	2834.39
704.94	2832.34
705.12	2684.89
705.30	3002.32
705.49	5775.27
705.67	11847.50
705.86	17604.34
706.04	20250.32
706.22	22603.43
706.41	22519.46
706.59	17659.63
706.77	13313.84
706.96	11476.82
707.14	10272.61
707.32	8912.76
707.51	7942.02
707.69	6354.85
707.87	5459.88
708.06	4353.98
708.24	3856.33
708.42	3456.97
708.61	3356.62
708.79	2768.85
708.97	2764.76
709.16	2842.58
709.34	2789.33
709.52	2652.12
709.71	2715.61
709.89	2858.96
710.07	2537.43
710.26	2508.76
710.44	2674.65
710.62	2871.25
710.80	2742.23
710.99	2811.86
711.17	2785.24
711.35	2588.63
711.54	2666.46
711.72	2750.42
711.90	2752.47
712.09	2775.00
712.27	2625.50
712.45	2772.95
712.63	2590.68
712.82	2734.04
713.00	2674.65
713.18	2752.47
713.37	2818.00
713.55	2818.00
713.73	2803.67
713.91	2688.98
714.10	2619.35
714.28	2715.61
714.46	2799.57
714.65	2703.32
714.83	2686.94
715.01	2660.31
715.19	2809.81
715.38	2613.21
715.56	2746.33
715.74	2684.89
715.92	2590.68
716.11	2871.25
716.29	2408.41
716.47	2701.27
716.65	2678.74
716.84	2455.51
717.02	2723.80
717.20	2457.56
717.38	2613.21
717.57	2666.46
717.75	2752.47
717.93	2676.70
718.11	2842.58
718.30	2562.01
718.48	2670.55
718.66	2865.11
718.84	2861.01
719.03	2674.65
719.21	2527.19
719.39	2998.23
719.57	2809.81
719.75	2729.94
719.94	2519.00
720.12	2654.17
720.30	2797.53
720.48	2762.71
720.67	2541.53
720.85	2531.29
721.03	2615.26
721.21	2586.58
721.39	2785.24
721.58	2787.29
721.76	2709.46
721.94	2699.22
722.12	2709.46
722.30	2987.99
722.49	2731.99
722.67	2672.60
722.85	2742.23
723.03	2566.10
723.21	2584.54
723.40	2699.22
723.58	2758.61
723.76	2807.77
723.94	2955.22
724.12	2762.71
724.30	2869.20
724.49	2850.77
724.67	2545.63
724.85	2807.77
725.03	2482.14
725.21	2844.63
725.40	2750.42
725.58	2605.02
725.76	2813.91
725.94	2822.10
726.12	2519.00
726.30	2625.50
726.49	2631.64
726.67	2600.92
726.85	2785.24
727.03	3125.20
727.21	4011.97
727.39	5175.22
727.57	5529.52
727.76	6029.22
727.94	6205.35
728.12	5527.47
728.30	4485.05
728.48	4300.73
728.66	3987.40
728.84	3688.39
729.03	3293.13
729.21	3170.26
729.39	2944.98
729.57	2756.57
729.75	2727.89
729.93	2770.90
730.11	2562.01
730.30	2617.30
730.48	2648.02
730.66	2815.96
730.84	2789.33
731.02	2740.18
731.20	2592.73
731.38	2652.12
731.56	2541.53
731.74	2488.28
731.93	2725.85
732.11	2719.70
732.29	2678.74
732.47	2717.65
732.65	2740.18
732.83	2840.53
733.01	2719.70
733.19	2682.84
733.37	2820.05
733.56	2736.09
733.74	2529.24
733.92	2846.68
734.10	2711.51
734.28	2766.81
734.46	2482.14
734.64	2654.17
734.82	2709.46
735.00	2592.73
735.18	2555.86
735.36	2727.89
735.54	2725.85
735.73	2693.08
735.91	2820.05
736.09	2901.97
736.27	2705.37
736.45	2701.27
736.63	2455.51
736.81	2723.80
736.99	2881.49
737.17	2916.31
737.35	2641.88
737.53	2752.47
737.71	2660.31
737.89	2789.33
738.07	2582.49
738.25	2488.28
738.43	2463.71
738.61	2643.93
738.80	2504.67
738.98	2570.20
739.16	2625.50
739.34	2639.83
739.52	2910.16
739.70	2695.13
739.88	2811.86
740.06	2869.20
740.24	2400.22
740.42	2850.77
740.60	2539.48
740.78	2598.87
740.96	2453.47
741.14	2703.32
741.32	2797.53
741.50	2555.86
741.68	2869.20
741.86	2928.60
742.04	2514.91
742.22	2572.25
742.40	2678.74
742.58	2830.29
742.76	2537.43
742.94	2799.57
743.12	2486.23
743.30	2742.23
743.48	2809.81
743.66	2568.15
743.84	2668.50
744.02	2748.37
744.20	2684.89
744.38	2564.06
744.56	2621.40
744.74	2973.65
744.92	2799.57
745.10	2895.83
745.28	2785.24
745.46	2959.31
745.64	2699.22
745.82	2736.09
746.00	2633.69
746.18	2813.91
746.36	2553.82
746.54	2795.48
746.72	2684.89
746.90	2594.78
747.08	2942.93
747.26	2592.73
747.44	2777.05
747.62	2887.64
747.80	2779.09
747.98	2846.68
748.15	2723.80
748.33	2965.46
748.51	2701.27
748.69	2809.81
748.87	2523.10
749.05	2611.16
749.23	2707.41
749.41	2670.55
749.59	2592.73
749.77	2838.48
749.95	2621.40
750.13	2549.72
750.31	2762.71
750.49	2775.00
750.67	2869.20
750.85	2795.48
751.03	2719.70
751.20	3051.47
751.38	2731.99
751.56	2676.70
751.74	2721.75
751.92	2627.54
752.10	2557.91
752.28	2854.87
752.46	2645.98
752.64	2715.61
752.82	2703.32
753.00	2731.99
753.18	2578.39
753.35	2652.12
753.53	2686.94
753.71	2572.25
753.89	2725.85
754.07	2748.37
754.25	2871.25
754.43	2740.18
754.61	2486.23
754.79	2766.81
754.97	2723.80
755.14	2871.25
755.32	2521.05
755.50	2695.13
755.68	2684.89
755.86	2580.44
756.04	2617.30
756.22	2471.90
756.40	2805.72
756.57	2963.41
756.75	2611.16
756.93	2867.16
757.11	2805.72
757.29	2529.24
757.47	2557.91
757.65	2523.10
757.82	2443.23
758.00	2525.15
758.18	2629.59
758.36	2658.26
758.54	2826.20
758.72	2475.99
758.90	2822.10
759.07	2775.00
759.25	2658.26
759.43	2664.41
759.61	2510.81
759.79	3899.33
759.97	2879.44
760.15	2645.98
760.32	2686.94
760.50	2760.66
760.68	2918.36
760.86	2506.71
761.04	2824.15
761.22	2795.48
761.39	2717.65
761.57	2746.33
761.75	2637.78
761.93	2734.04
762.11	2688.98
762.28	2695.13
762.46	2568.15
762.64	2865.11
762.82	2562.01
763.00	2666.46
763.18	2854.87
763.35	2584.54
763.53	2797.53
763.71	2645.98
763.89	2625.50
764.07	2674.65
764.24	2705.37
764.42	2777.05
764.60	2664.41
764.78	2818.00
764.96	2914.26
765.13	2811.86
765.31	2654.17
765.49	2852.82
765.67	2617.30
765.84	2592.73
766.02	2537.43
766.20	2584.54
766.38	2748.37
766.56	2707.41
766.73	2793.43
766.91	2676.70
767.09	2621.40
767.27	2641.88
767.44	2512.86
767.62	2787.29
767.80	2723.80
767.98	2699.22
768.15	2623.45
768.33	2826.20
768.51	2871.25
768.69	2715.61
768.87	2600.92
769.04	2668.50
769.22	3100.62
769.40	2815.96
769.58	2836.44
769.75	2736.09
769.93	2908.12
770.11	2654.17
770.28	2566.10
770.46	2850.77
770.64	2772.95
770.82	2594.78
770.99	2615.26
771.17	2752.47
771.35	2652.12
771.53	2719.70
771.70	2613.21
771.88	2779.09
772.06	2691.03
772.23	2609.11
772.41	2686.94
772.59	2670.55
772.77	2615.26
772.94	2643.93
773.12	2731.99
773.30	2701.27
773.47	2734.04
773.65	2525.15
773.83	2865.11
774.01	2662.36
774.18	2457.56
774.36	2645.98
774.54	2533.34
774.71	2795.48
774.89	2502.62
775.07	2572.25
775.24	2660.31
775.42	2688.98
775.60	2955.22
775.78	2641.88
775.95	2467.80
776.13	2459.61
776.31	2488.28
776.48	2844.63
776.66	2775.00
776.84	2672.60
777.01	2605.02
777.19	2637.78
777.37	2519.00
777.54	2748.37
777.72	3088.34
777.90	2695.13
778.07	2627.54
778.25	3215.31
778.43	2877.40
778.60	2654.17
778.78	2709.46
778.96	2889.68
779.13	2584.54
779.31	2797.53
779.49	2559.96
779.66	2729.94
779.84	2686.94
780.01	2703.32
780.19	2615.26
780.37	2973.65
780.54	2850.77
780.72	2473.95
780.90	2611.16
781.07	2721.75
781.25	2607.06
781.43	2838.48
781.60	2574.30
781.78	2906.07
781.95	2832.34
782.13	2553.82
782.31	2580.44
782.48	2449.37
782.66	2678.74
782.83	2863.06
783.01	2670.55
783.19	2846.68
783.36	2711.51
783.54	2545.63
783.72	2744.28
783.89	2582.49
784.07	2719.70
784.24	2719.70
784.42	2899.92
784.60	2787.29
784.77	2764.76
784.95	2398.17
785.12	2625.50
785.30	2746.33
785.47	2615.26
785.65	2596.82
785.83	2684.89
786.00	2625.50
786.18	2707.41
786.35	2578.39
786.53	2535.39
786.71	2856.92
786.88	2858.96
787.06	2723.80
787.23	2791.38
787.41	2588.63
787.58	2707.41
787.76	2686.94
787.94	2734.04
788.11	2783.19
788.29	2582.49
788.46	2674.65
788.64	2488.28
788.81	2648.02
788.99	2607.06
789.16	2592.73
789.34	2650.07
789.52	2660.31
789.69	2605.02
789.87	2471.90
790.04	2637.78
790.22	2725.85
790.39	3043.28
790.57	2588.63
790.74	2613.21
790.92	2836.44
791.09	2494.43
791.27	2727.89
791.44	2813.91
791.62	2703.32
791.79	2842.58
791.97	2715.61
792.15	2973.65
792.32	2865.11
792.50	2883.54
792.67	2842.58
792.85	2848.72
793.02	2701.27
793.20	2641.88
793.37	2478.04
793.55	2572.25
793.72	2543.58
793.90	2801.62
794.07	2549.72
794.25	2570.20
794.42	2691.03
794.60	2660.31
794.77	2709.46
794.95	2715.61
795.12	2881.49
795.30	2645.98
795.47	2465.75
795.65	3049.43
795.82	2731.99
796.00	2602.97
796.17	2660.31
796.34	2611.16
796.52	2719.70
796.69	2889.68
796.87	2811.86
797.04	2723.80
797.22	2848.72
797.39	2775.00
797.57	2799.57
797.74	2760.66
797.92	2770.90
798.09	2602.97
798.27	2793.43
798.44	2631.64
798.62	2580.44
798.79	2764.76
798.96	2682.84
799.14	2609.11
799.31	3051.47
799.49	2564.06
799.66	2611.16
799.84	2680.79
800.01	2539.48
800.19	2744.28
800.36	2449.37
800.53	2680.79
800.71	2801.62
800.88	2947.03
801.06	2645.98
801.23	2670.55
801.41	2609.11
801.58	2674.65
801.75	2668.50
801.93	2629.59
802.10	2824.15
802.28	2705.37
802.45	2627.54
802.63	2750.42
802.80	2969.55
802.97	2684.89
803.15	2637.78
803.32	2559.96
803.50	2617.30
803.67	2521.05
803.84	2535.39
804.02	2713.56
804.19	2645.98
804.37	2402.27
804.54	2559.96
804.71	2539.48
804.89	2723.80
805.06	2557.91
805.24	2508.76
805.41	2555.86
805.58	2635.74
805.76	3076.05
805.93	2652.12
806.10	2861.01
806.28	2801.62
806.45	2736.09
806.63	2719.70
806.80	2762.71
806.97	2715.61
807.15	2799.57
807.32	2752.47
807.49	2633.69
807.67	2549.72
807.84	2750.42
808.01	2457.56
808.19	2807.77
808.36	3078.10
808.54	2725.85
808.71	2592.73
808.88	2701.27
809.06	2924.50
809.23	2912.21
809.40	2639.83
809.58	2703.32
809.75	2631.64
809.92	2516.95
810.10	2955.22
810.27	2648.02
810.44	2795.48
810.62	2777.05
810.79	2654.17
810.96	2574.30
811.14	2650.07
811.31	2768.85
811.48	2746.33
811.66	2701.27
811.83	3026.90
812.00	2725.85
812.18	2783.19
812.35	2912.21
812.52	2688.98
812.69	2572.25
812.87	2643.93
813.04	2592.73
813.21	2711.51
813.39	2568.15
813.56	2678.74
813.73	2791.38
813.91	2453.47
814.08	2623.45
814.25	2629.59
814.42	2545.63
814.60	2742.23
814.77	2666.46
814.94	2607.06
815.12	2660.31
815.29	3006.42
815.46	2643.93
815.63	2684.89
815.81	2637.78
815.98	2580.44
816.15	2674.65
816.33	2611.16
816.50	2570.20
816.67	2740.18
816.84	2666.46
817.02	2539.48
817.19	2674.65
817.36	2623.45
817.53	2785.24
817.71	2512.86
817.88	2701.27
818.05	2723.80
818.22	2631.64
818.40	2830.29
818.57	2605.02
818.74	2785.24
818.91	2654.17
819.09	2781.14
819.26	2805.72
819.43	2541.53
819.60	2578.39
819.78	2676.70
819.95	2779.09
820.12	2645.98
820.29	2969.55
820.47	2895.83
820.64	2617.30
820.81	2480.09
820.98	2557.91
821.15	2643.93
821.33	2719.70
821.50	2420.70
821.67	2772.95
821.84	2619.35
822.02	2596.82
822.19	2879.44
822.36	2744.28
822.53	2648.02
822.70	2527.19
822.88	2670.55
823.05	2906.07
823.22	2688.98
823.39	2760.66
823.56	2770.90
823.74	2965.46
823.91	2535.39
824.08	2523.10
824.25	2594.78
824.42	2973.65
824.60	2482.14
824.77	2697.17
824.94	2691.03
825.11	2742.23
825.28	2480.09
825.45	2760.66
825.63	2770.90
825.80	2537.43
825.97	2639.83
826.14	2752.47
826.31	2478.04
826.48	2729.94
826.66	2572.25
826.83	2607.06
827.00	2635.74
827.17	2516.95
827.34	2697.17
827.51	2525.15
827.69	2723.80
827.86	2539.48
828.03	2660.31
828.20	2705.37
828.37	2588.63
828.54	2764.76
828.71	2578.39
828.89	2791.38
829.06	2762.71
829.23	2912.21
829.40	2578.39
829.57	2533.34
829.74	2805.72
829.91	2658.26
830.09	2598.87
830.26	2707.41
830.43	2863.06
830.60	2713.56
830.77	2760.66
830.94	2836.44
831.11	2895.83
831.28	2615.26
831.46	2787.29
831.63	2635.74
831.80	2904.02
831.97	2627.54
832.14	2625.50
832.31	2650.07
832.48	2727.89
832.65	2891.73
832.82	2678.74
832.99	2721.75
833.17	2605.02
833.34	2885.59
833.51	2682.84
833.68	2461.66
833.85	2850.77
834.02	2598.87
834.19	2625.50
834.36	2555.86
834.53	2752.47
834.70	2838.48
834.87	2684.89
835.04	2465.75
835.22	2682.84
835.39	2660.31
835.56	2465.75
835.73	2449.37
835.90	2793.43
836.07	2584.54
836.24	2719.70
836.41	2529.24
836.58	2559.96
836.75	2883.54
836.92	2580.44
837.09	2457.56
837.26	2906.07
837.43	2703.32
837.60	2539.48
837.77	2494.43
837.94	2838.48
838.12	2842.58
838.29	2535.39
838.46	2396.12
838.63	2441.18
838.80	2940.88
838.97	2580.44
839.14	2570.20
839.31	2688.98
839.48	2832.34
839.65	2516.95
839.82	2643.93
839.99	2789.33
840.16	2713.56
840.33	2435.03
840.50	2533.34
840.67	2641.88
840.84	2375.64
841.01	2502.62
841.18	2525.15
841.35	2619.35
841.52	2801.62
841.69	2818.00
841.86	2607.06
842.03	2658.26
842.20	2877.40
842.37	2629.59
842.54	2584.54
842.71	2715.61
842.88	2529.24
843.05	2602.97
843.22	2521.05
843.39	2693.08
843.56	2639.83
843.73	2516.95
843.90	2580.44
844.07	2693.08
844.24	2756.57
844.41	2619.35
844.58	2578.39
844.75	2697.17
844.92	2777.05
845.09	2611.16
845.26	2566.10
845.43	2781.14
845.60	2627.54
845.77	2629.59
845.94	2645.98
846.10	2846.68
846.27	2525.15
846.44	2500.57
846.61	2471.90
846.78	2777.05
846.95	2832.34
847.12	2568.15
847.29	2596.82
847.46	2568.15
847.63	2895.83
847.80	2537.43
847.97	2564.06
848.14	3080.14
848.31	2691.03
848.48	2437.08
848.65	2562.01
848.82	2621.40
848.98	3069.91
849.15	2680.79
849.32	2693.08
849.49	2961.36
849.66	2742.23
849.83	2519.00
850.00	2469.85
850.17	2699.22
850.34	2656.22
850.51	2478.04
850.68	2502.62
850.85	2996.18
851.01	2748.37
851.18	2617.30
851.35	2676.70
851.52	2832.34
851.69	2912.21
851.86	2408.41
852.03	2498.52
852.20	2838.48
852.37	2711.51
852.53	2516.95
852.70	2541.53
852.87	2760.66
853.04	2721.75
853.21	2533.34
853.38	2699.22
853.55	2850.77
853.72	2832.34
853.89	2531.29
854.05	2516.95
854.22	2703.32
854.39	2727.89
854.56	2572.25
854.73	2713.56
854.90	2627.54
855.07	2682.84
855.23	2418.65
855.40	2545.63
855.57	2654.17
855.74	2484.19
855.91	2682.84
856.08	2451.42
856.25	2523.10
856.41	2594.78
856.58	2629.59
856.75	2512.86
856.92	2582.49
857.09	2805.72
857.26	2392.03
857.42	2605.02
857.59	2754.52
857.76	2615.26
857.93	2572.25
858.10	2635.74
858.27	2521.05
858.43	2731.99
858.60	2572.25
858.77	2459.61
858.94	2666.46
859.11	2818.00
859.27	2553.82
859.44	2506.71
859.61	2951.12
859.78	2760.66
859.95	2525.15
860.12	2496.47
860.28	3047.38
860.45	3024.85
860.62	2523.10
860.79	2588.63
860.95	2699.22
861.12	2615.26
861.29	2541.53
861.46	2488.28
861.63	2756.57
861.79	2686.94
861.96	2414.56
862.13	2527.19
862.30	2818.00
862.47	2637.78
862.63	2432.99
862.80	2598.87
862.97	2805.72
863.14	2682.84
863.30	2570.20
863.47	2508.76
863.64	2912.21
863.81	2686.94
863.97	2482.14
864.14	2600.92
864.31	2705.37
864.48	2715.61
864.65	2488.28
864.81	2678.74
864.98	2795.48
865.15	2809.81
865.32	2658.26
865.48	2650.07
865.65	2965.46
865.82	2584.54
865.98	2613.21
866.15	2660.31
866.32	2678.74
866.49	2645.98
866.65	2748.37
866.82	2521.05
866.99	2746.33
867.16	2625.50
867.32	2568.15
867.49	2457.56
867.66	2605.02
867.83	2643.93
867.99	2394.08
868.16	2496.47
868.33	2535.39
868.49	2707.41
868.66	2572.25
868.83	2625.50
868.99	2783.19
869.16	2660.31
869.33	2672.60
869.50	2625.50
869.66	2746.33
869.83	2715.61
870.00	2539.48
870.16	2682.84
870.33	2654.17
870.50	2824.15
870.66	2650.07
870.83	2586.58
871.00	2572.25
871.17	2848.72
871.33	2617.30
871.50	2525.15
871.67	2666.46
871.83	2572.25
872.00	2686.94
872.17	2539.48
872.33	2969.55
872.50	2793.43
872.67	2639.83
872.83	2568.15
873.00	2721.75
873.17	2705.37
873.33	2693.08
873.50	2666.46
873.67	2582.49
873.83	2564.06
874.00	2605.02
874.16	2656.22
874.33	2703.32
874.50	2549.72
874.66	2553.82
874.83	2572.25
875.00	2797.53
875.16	2803.67
875.33	2592.73
875.50	2375.64
875.66	2648.02
875.83	2670.55
875.99	2588.63
876.16	2670.55
876.33	2478.04
876.49	2641.88
876.66	2641.88
876.83	2568.15
876.99	2600.92
877.16	2670.55
877.32	2490.33
877.49	2531.29
877.66	2615.26
877.82	2899.92
877.99	2602.97
878.15	2805.72
878.32	2719.70
878.49	2740.18
878.65	2607.06
878.82	2723.80
878.98	2576.34
879.15	2820.05
879.32	2662.36
879.48	2744.28
879.65	2740.18
879.81	2621.40
879.98	2521.05
880.15	2574.30
880.31	2758.61
880.48	2623.45
880.64	2709.46
880.81	2738.13
880.97	2969.55
881.14	2836.44
881.31	2422.75
881.47	2721.75
881.64	2686.94
881.80	2519.00
881.97	2631.64
882.13	2582.49
882.30	2514.91
882.47	2510.81
882.63	2496.47
882.80	2516.95
882.96	2654.17
883.13	2893.78
883.29	2568.15
883.46	2564.06
883.62	2965.46
883.79	2713.56
883.95	2715.61
884.12	2553.82
884.29	2865.11
884.45	2748.37
884.62	2516.95
884.78	2523.10
884.95	2918.36
885.11	2619.35
885.28	2605.02
885.44	2664.41
885.61	2824.15
885.77	2928.60
885.94	2678.74
886.10	2682.84
886.27	2648.02
886.43	2940.88
886.60	2789.33
886.76	2602.97
886.93	2572.25
887.09	2758.61
887.26	2465.75
887.42	2652.12
887.59	2850.77
887.75	3055.57
887.92	2766.81
888.08	2731.99
888.25	3014.61
888.41	2805.72
888.58	2584.54
888.74	2525.15
888.91	2662.36
>>>>>End Processed Spectral Data<<<<<
