SpectraSuite Data File
++++++++++++++++++++++++++++++++++++
Date: Thu May 05 16:20:33 CEST 2016
User: root
Dark Spectrum Present: No
Reference Spectrum Present: No
Number of Sampled Component Spectra: 1
Spectrometers: USB4C02835
Integration Time (usec): 100000 (USB4C02835)
Spectra Averaged: 1 (USB4C02835)
Boxcar Smoothing: 0 (USB4C02835)
Correct for Electrical Dark: No (USB4C02835)
Strobe/Lamp Enabled: No (USB4C02835)
Correct for Detector Non-linearity: No (USB4C02835)
Correct for Stray Light: No (USB4C02835)
Number of Pixels in Processed Spectrum: 3648
>>>>>Begin Processed Spectral Data<<<<<
177.47	2021.35
177.69	2021.35
177.91	2021.35
178.13	2031.58
178.36	2017.25
178.58	2529.24
178.80	2727.89
179.02	2555.86
179.24	2613.21
179.46	2525.15
179.68	2521.05
179.90	2752.47
180.13	2680.79
180.35	2385.88
180.57	2387.93
180.79	2791.38
181.01	2676.70
181.23	2490.33
181.45	2621.40
181.67	2848.72
181.90	2824.15
182.12	2578.39
182.34	2367.45
182.56	2838.48
182.78	2756.57
183.00	2498.52
183.22	2508.76
183.44	2424.80
183.66	3051.47
183.89	2621.40
184.11	2564.06
184.33	2758.61
184.55	2904.02
184.77	2482.14
184.99	2504.67
185.21	2658.26
185.43	3131.34
185.65	2602.97
185.87	2451.42
186.10	3026.90
186.32	3092.43
186.54	2662.36
186.76	2574.30
186.98	2932.69
187.20	2668.50
187.42	2521.05
187.64	2547.67
187.86	2809.81
188.08	2838.48
188.30	2426.84
188.52	2592.73
188.75	2865.11
188.97	2916.31
189.19	2467.80
189.41	2496.47
189.63	2811.86
189.85	2758.61
190.07	2451.42
190.29	2367.45
190.51	2740.18
190.73	2572.25
190.95	2621.40
191.17	2559.96
191.39	2502.62
191.61	2639.83
191.84	2494.43
192.06	2543.58
192.28	2543.58
192.50	3168.21
192.72	2572.25
192.94	2541.53
193.16	2848.72
193.38	2809.81
193.60	2459.61
193.82	2586.58
194.04	2873.30
194.26	2873.30
194.48	2496.47
194.70	2531.29
194.92	2625.50
195.14	2799.57
195.36	2469.85
195.58	2598.87
195.80	2725.85
196.02	2639.83
196.24	2480.09
196.46	2621.40
196.69	2580.44
196.91	3145.68
197.13	2521.05
197.35	2711.51
197.57	2977.75
197.79	2918.36
198.01	2553.82
198.23	2643.93
198.45	2752.47
198.67	2525.15
198.89	2480.09
199.11	2613.21
199.33	2670.55
199.55	2469.85
199.77	2545.63
199.99	2613.21
200.21	2611.16
200.43	2752.47
200.65	2400.22
200.87	2418.65
201.09	2768.85
201.31	2715.61
201.53	2576.34
201.75	2543.58
201.97	2684.89
202.19	2746.33
202.41	2566.10
202.63	2699.22
202.85	2826.20
203.07	2729.94
203.29	2512.86
203.51	2471.90
203.73	2629.59
203.95	3172.30
204.17	2516.95
204.39	2570.20
204.61	2709.46
204.83	2613.21
205.05	2652.12
205.27	2613.21
205.49	3014.61
205.71	2719.70
205.93	2396.12
206.15	2420.70
206.37	2664.41
206.59	2727.89
206.81	2385.88
207.03	2410.46
207.25	2570.20
207.47	2803.67
207.69	2527.19
207.91	2742.23
208.13	2977.75
208.34	2629.59
208.56	2490.33
208.78	2590.68
209.00	2750.42
209.22	2613.21
209.44	2496.47
209.66	2482.14
209.88	2848.72
210.10	2660.31
210.32	2473.95
210.54	2652.12
210.76	2676.70
210.98	2815.96
211.20	2365.40
211.42	2641.88
211.64	2899.92
211.86	2901.97
212.08	2572.25
212.30	2465.75
212.52	2686.94
212.74	2791.38
212.96	2613.21
213.17	2527.19
213.39	2871.25
213.61	2908.12
213.83	2562.01
214.05	2453.47
214.27	2824.15
214.49	2574.30
214.71	2502.62
214.93	2553.82
215.15	2772.95
215.37	2852.82
215.59	2521.05
215.81	2578.39
216.03	2887.64
216.24	2670.55
216.46	2535.39
216.68	2592.73
216.90	2787.29
217.12	2893.78
217.34	2422.75
217.56	2645.98
217.78	2928.60
218.00	2797.53
218.22	2559.96
218.44	2576.34
218.66	2693.08
218.87	3033.04
219.09	2494.43
219.31	2578.39
219.53	2799.57
219.75	2674.65
219.97	2490.33
220.19	2502.62
220.41	2727.89
220.63	2971.60
220.85	2598.87
221.06	2484.19
221.28	2871.25
221.50	2813.91
221.72	2594.78
221.94	2475.99
222.16	2729.94
222.38	2842.58
222.60	2555.86
222.82	2568.15
223.03	2848.72
223.25	2539.48
223.47	2523.10
223.69	2736.09
223.91	2906.07
224.13	2813.91
224.35	2422.75
224.57	2727.89
224.78	2840.53
225.00	2545.63
225.22	2568.15
225.44	2516.95
225.66	2760.66
225.88	2582.49
226.10	2641.88
226.32	2543.58
226.53	2906.07
226.75	2740.18
226.97	2537.43
227.19	2592.73
227.41	2627.54
227.63	2553.82
227.85	2381.79
228.06	2562.01
228.28	2775.00
228.50	2818.00
228.72	2377.69
228.94	2506.71
229.16	2498.52
229.37	2553.82
229.59	2418.65
229.81	2787.29
230.03	2621.40
230.25	2480.09
230.47	2398.17
230.69	2383.84
230.90	2838.48
231.12	2639.83
231.34	2564.06
231.56	2576.34
231.78	2564.06
232.00	2705.37
232.21	2549.72
232.43	2525.15
232.65	2437.08
232.87	2760.66
233.09	2408.41
233.30	2447.32
233.52	2869.20
233.74	2756.57
233.96	2494.43
234.18	2611.16
234.40	2709.46
234.61	3026.90
234.83	2420.70
235.05	2471.90
235.27	3143.63
235.49	2904.02
235.70	2422.75
235.92	2600.92
236.14	2826.20
236.36	3012.56
236.58	2420.70
236.79	2562.01
237.01	2719.70
237.23	2715.61
237.45	2680.79
237.67	2467.80
237.88	2748.37
238.10	2930.64
238.32	2424.80
238.54	2471.90
238.76	2703.32
238.97	2641.88
239.19	2432.99
239.41	2625.50
239.63	2867.16
239.85	2676.70
240.06	2572.25
240.28	2484.19
240.50	2899.92
240.72	2746.33
240.93	2353.12
241.15	2666.46
241.37	2719.70
241.59	2924.50
241.81	2514.91
242.02	2531.29
242.24	2717.65
242.46	2756.57
242.68	2410.46
242.89	2527.19
243.11	2826.20
243.33	2701.27
243.55	2572.25
243.76	2553.82
243.98	2605.02
244.20	2752.47
244.42	2490.33
244.64	2533.34
244.85	2607.06
245.07	2627.54
245.29	2582.49
245.51	2553.82
245.72	2766.81
245.94	2813.91
246.16	2402.27
246.38	2482.14
246.59	2617.30
246.81	2629.59
247.03	2496.47
247.24	2394.08
247.46	2656.22
247.68	2813.91
247.90	2443.23
248.11	2531.29
248.33	2877.40
248.55	2703.32
248.77	2496.47
248.98	2584.54
249.20	2967.51
249.42	2762.71
249.64	2488.28
249.85	2467.80
250.07	2625.50
250.29	2893.78
250.50	2617.30
250.72	2412.51
250.94	2717.65
251.16	3051.47
251.37	2449.37
251.59	2531.29
251.81	2826.20
252.02	2953.17
252.24	2420.70
252.46	2621.40
252.68	2637.78
252.89	2541.53
253.11	2428.89
253.33	2641.88
253.54	2965.46
253.76	2541.53
253.98	2453.47
254.20	2533.34
254.41	2592.73
254.63	2758.61
254.85	2357.21
255.06	2584.54
255.28	2799.57
255.50	2658.26
255.71	2512.86
255.93	2328.54
256.15	2703.32
256.36	2832.34
256.58	2381.79
256.80	2502.62
257.02	2627.54
257.23	2627.54
257.45	2529.24
257.67	2627.54
257.88	2664.41
258.10	2772.95
258.32	2488.28
258.53	2629.59
258.75	2957.27
258.97	2625.50
259.18	2430.94
259.40	2482.14
259.62	3010.51
259.83	2916.31
260.05	2590.68
260.27	3196.88
260.48	2824.15
260.70	2545.63
260.92	2430.94
261.13	2529.24
261.35	2717.65
261.57	2770.90
261.78	2346.97
262.00	2453.47
262.22	2873.30
262.43	2650.07
262.65	2510.81
262.86	2672.60
263.08	3088.34
263.30	2856.92
263.51	2367.45
263.73	2494.43
263.95	2938.84
264.16	2613.21
264.38	2441.18
264.60	2527.19
264.81	2678.74
265.03	2842.58
265.25	2777.05
265.46	2475.99
265.68	2879.44
265.89	2815.96
266.11	2400.22
266.33	2496.47
266.54	2930.64
266.76	2723.80
266.98	2621.40
267.19	2596.82
267.41	2957.27
267.62	2713.56
267.84	2398.17
268.06	2637.78
268.27	2742.23
268.49	2951.12
268.70	2568.15
268.92	2512.86
269.14	2559.96
269.35	2531.29
269.57	2584.54
269.79	2633.69
270.00	2629.59
270.22	2920.40
270.43	2490.33
270.65	2322.40
270.87	2793.43
271.08	2854.87
271.30	2557.91
271.51	2529.24
271.73	2762.71
271.95	2885.59
272.16	2508.76
272.38	2652.12
272.59	2678.74
272.81	2852.82
273.02	2482.14
273.24	2549.72
273.46	2818.00
273.67	2572.25
273.89	2392.03
274.10	2496.47
274.32	2832.34
274.54	2811.86
274.75	2662.36
274.97	2559.96
275.18	2838.48
275.40	2793.43
275.61	2596.82
275.83	2658.26
276.05	2600.92
276.26	2717.65
276.48	2592.73
276.69	2516.95
276.91	2688.98
277.12	2850.77
277.34	2637.78
277.55	2779.09
277.77	2715.61
277.99	2688.98
278.20	2562.01
278.42	2396.12
278.63	2631.64
278.85	2529.24
279.06	2539.48
279.28	2699.22
279.49	2885.59
279.71	2822.10
279.93	2697.17
280.14	2605.02
280.36	2590.68
280.57	2887.64
280.79	2652.12
281.00	2510.81
281.22	2586.58
281.43	2953.17
281.65	2420.70
281.86	2508.76
282.08	2838.48
282.29	3000.27
282.51	2529.24
282.73	2445.27
282.94	2437.08
283.16	2840.53
283.37	2777.05
283.59	2623.45
283.80	2742.23
284.02	2826.20
284.23	2625.50
284.45	2645.98
284.66	2594.78
284.88	2531.29
285.09	2541.53
285.31	2723.80
285.52	2791.38
285.74	2527.19
285.95	2703.32
286.17	2625.50
286.38	2824.15
286.60	2709.46
286.81	2535.39
287.03	2596.82
287.24	2820.05
287.46	2785.24
287.67	2633.69
287.89	2818.00
288.10	2785.24
288.32	2713.56
288.53	2725.85
288.75	2627.54
288.96	2797.53
289.18	2613.21
289.39	2572.25
289.61	2668.50
289.82	2973.65
290.04	3024.85
290.25	2473.95
290.47	2584.54
290.68	2652.12
290.90	2867.16
291.11	2447.32
291.33	2742.23
291.54	2596.82
291.76	2699.22
291.97	2693.08
292.18	2658.26
292.40	2719.70
292.61	2572.25
292.83	2889.68
293.04	2686.94
293.26	2664.41
293.47	2695.13
293.69	2553.82
293.90	2568.15
294.12	2867.16
294.33	2623.45
294.55	2645.98
294.76	2756.57
294.97	2858.96
295.19	2975.70
295.40	2555.86
295.62	2674.65
295.83	2858.96
296.05	2621.40
296.26	2818.00
296.48	2650.07
296.69	2715.61
296.90	2691.03
297.12	2721.75
297.33	2754.52
297.55	2758.61
297.76	2850.77
297.98	2703.32
298.19	2635.74
298.41	2703.32
298.62	2582.49
298.83	2815.96
299.05	2629.59
299.26	2637.78
299.48	2547.67
299.69	2723.80
299.90	2566.10
300.12	2600.92
300.33	2797.53
300.55	2650.07
300.76	2691.03
300.98	2539.48
301.19	2766.81
301.40	2580.44
301.62	2619.35
301.83	2785.24
302.05	2727.89
302.26	2553.82
302.47	2721.75
302.69	2635.74
302.90	2772.95
303.12	2414.56
303.33	2648.02
303.54	2910.16
303.76	2611.16
303.97	2605.02
304.19	2830.29
304.40	2633.69
304.61	2785.24
304.83	2715.61
305.04	2756.57
305.26	2768.85
305.47	2576.34
305.68	2654.17
305.90	2504.67
306.11	2846.68
306.33	2643.93
306.54	2510.81
306.75	2596.82
306.97	2547.67
307.18	2621.40
307.39	2555.86
307.61	2643.93
307.82	2711.51
308.04	2736.09
308.25	2535.39
308.46	2666.46
308.68	2674.65
308.89	2703.32
309.10	2674.65
309.32	2674.65
309.53	2762.71
309.74	2758.61
309.96	2664.41
310.17	2686.94
310.39	2609.11
310.60	2764.76
310.81	2621.40
311.03	2447.32
311.24	2820.05
311.45	2691.03
311.67	2820.05
311.88	2711.51
312.09	2650.07
312.31	2705.37
312.52	2568.15
312.73	2557.91
312.95	2519.00
313.16	2596.82
313.37	2686.94
313.59	2760.66
313.80	2818.00
314.01	2928.60
314.23	2588.63
314.44	2578.39
314.65	2478.04
314.87	2582.49
315.08	2598.87
315.29	2596.82
315.51	2588.63
315.72	2469.85
315.93	2703.32
316.15	2662.36
316.36	2662.36
316.57	2752.47
316.79	2645.98
317.00	2629.59
317.21	2686.94
317.43	2598.87
317.64	2662.36
317.85	2486.23
318.07	2539.48
318.28	2684.89
318.49	2756.57
318.70	2801.62
318.92	2803.67
319.13	2873.30
319.34	2822.10
319.56	2584.54
319.77	2822.10
319.98	3030.99
320.20	2695.13
320.41	2758.61
320.62	2805.72
320.83	2519.00
321.05	2791.38
321.26	2598.87
321.47	2736.09
321.69	2846.68
321.90	2547.67
322.11	2521.05
322.32	2856.92
322.54	2899.92
322.75	2648.02
322.96	3143.63
323.18	2545.63
323.39	2469.85
323.60	2521.05
323.81	2809.81
324.03	2631.64
324.24	2731.99
324.45	2684.89
324.66	2572.25
324.88	2932.69
325.09	2977.75
325.30	2609.11
325.52	2574.30
325.73	2783.19
325.94	2629.59
326.15	2398.17
326.37	2539.48
326.58	2822.10
326.79	2975.70
327.00	2527.19
327.22	2594.78
327.43	2664.41
327.64	2514.91
327.85	2656.22
328.07	2635.74
328.28	3045.33
328.49	2672.60
328.70	2678.74
328.92	2686.94
329.13	2721.75
329.34	2717.65
329.55	2854.87
329.76	2770.90
329.98	2715.61
330.19	3026.90
330.40	2748.37
330.61	2678.74
330.83	2891.73
331.04	2545.63
331.25	2717.65
331.46	2637.78
331.68	2557.91
331.89	2895.83
332.10	2629.59
332.31	2445.27
332.52	2674.65
332.74	2858.96
332.95	2430.94
333.16	2598.87
333.37	2863.06
333.58	2621.40
333.80	2615.26
334.01	2400.22
334.22	2637.78
334.43	2580.44
334.64	2572.25
334.86	2494.43
335.07	2562.01
335.28	2977.75
335.49	2473.95
335.70	2580.44
335.92	2916.31
336.13	2973.65
336.34	2650.07
336.55	2559.96
336.76	2709.46
336.98	2410.46
337.19	2570.20
337.40	2731.99
337.61	3020.75
337.82	2695.13
338.04	2672.60
338.25	2443.23
338.46	2662.36
338.67	2736.09
338.88	2553.82
339.09	2498.52
339.31	2539.48
339.52	2531.29
339.73	2555.86
339.94	2645.98
340.15	2820.05
340.36	2752.47
340.58	2650.07
340.79	2490.33
341.00	2772.95
341.21	2533.34
341.42	2838.48
341.63	2635.74
341.85	2830.29
342.06	2734.04
342.27	2539.48
342.48	2680.79
342.69	2562.01
342.90	2727.89
343.12	2818.00
343.33	2602.97
343.54	2824.15
343.75	2885.59
343.96	2686.94
344.17	2539.48
344.38	2750.42
344.60	2592.73
344.81	2514.91
345.02	2533.34
345.23	2854.87
345.44	3074.00
345.65	2697.17
345.86	2738.13
346.07	2785.24
346.29	2539.48
346.50	2658.26
346.71	2699.22
346.92	2977.75
347.13	3041.23
347.34	2645.98
347.55	2596.82
347.76	2807.77
347.98	2559.96
348.19	2645.98
348.40	2752.47
348.61	2676.70
348.82	2957.27
349.03	2688.98
349.24	2551.77
349.45	3092.43
349.66	2396.12
349.88	2588.63
350.09	2453.47
350.30	2912.21
350.51	2992.08
350.72	2801.62
350.93	2641.88
351.14	2699.22
351.35	2895.83
351.56	2588.63
351.77	2609.11
351.99	2865.11
352.20	2926.55
352.41	2709.46
352.62	2486.23
352.83	2770.90
353.04	2760.66
353.25	2625.50
353.46	2674.65
353.67	2895.83
353.88	2398.17
354.09	2643.93
354.30	2576.34
354.52	2916.31
354.73	2705.37
354.94	2592.73
355.15	2674.65
355.36	3002.32
355.57	2668.50
355.78	2590.68
355.99	2539.48
356.20	2666.46
356.41	2875.35
356.62	2701.27
356.83	2643.93
357.04	2856.92
357.25	2492.38
357.46	2562.01
357.68	2435.03
357.89	2586.58
358.10	2731.99
358.31	2650.07
358.52	2627.54
358.73	2516.95
358.94	2582.49
359.15	2572.25
359.36	2652.12
359.57	2736.09
359.78	2693.08
359.99	2750.42
360.20	2549.72
360.41	2645.98
360.62	2834.39
360.83	2619.35
361.04	2738.13
361.25	2867.16
361.46	2975.70
361.67	2744.28
361.88	2615.26
362.09	2877.40
362.30	2799.57
362.51	2525.15
362.72	2680.79
362.93	2854.87
363.14	2811.86
363.35	2746.33
363.56	2510.81
363.78	2803.67
363.99	2852.82
364.20	2500.57
364.41	2678.74
364.62	3022.80
364.83	2787.29
365.04	2660.31
365.25	2658.26
365.46	2983.89
365.67	2709.46
365.88	2686.94
366.09	2555.86
366.30	2594.78
366.51	2744.28
366.72	2519.00
366.93	2656.22
367.14	2695.13
367.35	2891.73
367.56	2611.16
367.77	2762.71
367.98	2693.08
368.18	2811.86
368.39	2678.74
368.60	2508.76
368.81	2781.14
369.02	2719.70
369.23	2635.74
369.44	2531.29
369.65	2654.17
369.86	2830.29
370.07	2734.04
370.28	2502.62
370.49	2801.62
370.70	2770.90
370.91	2467.80
371.12	2496.47
371.33	2803.67
371.54	2629.59
371.75	2736.09
371.96	2439.13
372.17	2783.19
372.38	2691.03
372.59	2670.55
372.80	2594.78
373.01	2633.69
373.22	2723.80
373.43	2654.17
373.64	2449.37
373.85	2940.88
374.06	2977.75
374.26	2752.47
374.47	2703.32
374.68	2877.40
374.89	2793.43
375.10	2668.50
375.31	2652.12
375.52	2693.08
375.73	2697.17
375.94	2475.99
376.15	2688.98
376.36	2611.16
376.57	2721.75
376.78	2582.49
376.99	2598.87
377.20	2908.12
377.40	2668.50
377.61	2795.48
377.82	2539.48
378.03	2932.69
378.24	2852.82
378.45	2725.85
378.66	2668.50
378.87	2475.99
379.08	2564.06
379.29	2590.68
379.50	2781.14
379.71	2619.35
379.91	2846.68
380.12	2596.82
380.33	2711.51
380.54	2783.19
380.75	2631.64
380.96	2625.50
381.17	2731.99
381.38	2738.13
381.59	2674.65
381.80	2664.41
382.00	2824.15
382.21	2805.72
382.42	3004.37
382.63	2885.59
382.84	2686.94
383.05	2838.48
383.26	2985.94
383.47	2668.50
383.68	2582.49
383.88	2826.20
384.09	2693.08
384.30	2895.83
384.51	2727.89
384.72	2709.46
384.93	2572.25
385.14	2721.75
385.35	2824.15
385.55	2543.58
385.76	2883.54
385.97	2656.22
386.18	2625.50
386.39	2588.63
386.60	2660.31
386.81	2521.05
387.02	2449.37
387.22	2602.97
387.43	2764.76
387.64	2791.38
387.85	2873.30
388.06	2813.91
388.27	4091.84
388.48	7616.40
388.68	11102.04
388.89	13545.27
389.10	14833.44
389.31	13958.96
389.52	11007.83
389.73	9602.93
389.93	8646.52
390.14	7927.69
390.35	7126.93
390.56	6543.26
390.77	5291.95
390.98	4087.75
391.18	3461.07
391.39	3168.21
391.60	2744.28
391.81	2791.38
392.02	2658.26
392.23	3057.62
392.43	2754.52
392.64	2873.30
392.85	2713.56
393.06	2955.22
393.27	2754.52
393.47	2527.19
393.68	2625.50
393.89	2660.31
394.10	2826.20
394.31	2594.78
394.52	2605.02
394.72	2652.12
394.93	3059.67
395.14	2516.95
395.35	2756.57
395.56	2684.89
395.76	2750.42
395.97	2621.40
396.18	2701.27
396.39	2721.75
396.60	3293.13
396.80	2928.60
397.01	2813.91
397.22	2906.07
397.43	2908.12
397.64	2631.64
397.84	2750.42
398.05	3055.57
398.26	2731.99
398.47	2791.38
398.67	2779.09
398.88	2688.98
399.09	2832.34
399.30	2580.44
399.51	2660.31
399.71	2596.82
399.92	2676.70
400.13	2643.93
400.34	2625.50
400.54	2709.46
400.75	2977.75
400.96	2676.70
401.17	2920.40
401.37	2768.85
401.58	2723.80
401.79	2629.59
402.00	2834.39
402.21	3243.98
402.41	2961.36
402.62	2930.64
402.83	3004.37
403.04	3188.69
403.24	3309.52
403.45	2748.37
403.66	2920.40
403.87	2926.55
404.07	3030.99
404.28	2916.31
404.49	2897.88
404.70	2768.85
404.90	2795.48
405.11	2719.70
405.32	2754.52
405.52	2658.26
405.73	2557.91
405.94	2553.82
406.15	2682.84
406.35	2818.00
406.56	2815.96
406.77	2717.65
406.98	2643.93
407.18	2641.88
407.39	3024.85
407.60	2580.44
407.80	2723.80
408.01	2711.51
408.22	2811.86
408.43	2564.06
408.63	2727.89
408.84	2838.48
409.05	2906.07
409.25	2564.06
409.46	2572.25
409.67	2621.40
409.88	2598.87
410.08	2648.02
410.29	2486.23
410.50	2785.24
410.70	2822.10
410.91	2521.05
411.12	2717.65
411.32	2715.61
411.53	2609.11
411.74	2670.55
411.95	2793.43
412.15	2746.33
412.36	2867.16
412.57	2785.24
412.77	2787.29
412.98	2664.41
413.19	2582.49
413.39	2684.89
413.60	2693.08
413.81	2920.40
414.01	2607.06
414.22	2666.46
414.43	2871.25
414.63	2688.98
414.84	2848.72
415.05	2666.46
415.25	2537.43
415.46	2877.40
415.67	2688.98
415.87	2662.36
416.08	2629.59
416.29	2682.84
416.49	2813.91
416.70	2586.58
416.91	2695.13
417.11	2686.94
417.32	2793.43
417.53	2740.18
417.73	2725.85
417.94	2834.39
418.15	2805.72
418.35	2666.46
418.56	2668.50
418.77	3074.00
418.97	2746.33
419.18	2666.46
419.38	2318.30
419.59	2717.65
419.80	2965.46
420.00	2688.98
420.21	2666.46
420.42	2906.07
420.62	2746.33
420.83	2609.11
421.04	2625.50
421.24	2623.45
421.45	2895.83
421.65	2596.82
421.86	2570.20
422.07	2910.16
422.27	2772.95
422.48	2607.06
422.69	2570.20
422.89	2660.31
423.10	2682.84
423.30	2562.01
423.51	2678.74
423.72	2758.61
423.92	2877.40
424.13	2605.02
424.33	2641.88
424.54	2801.62
424.75	2719.70
424.95	2916.31
425.16	2617.30
425.36	2623.45
425.57	2895.83
425.78	2801.62
425.98	2752.47
426.19	2615.26
426.39	2639.83
426.60	2779.09
426.81	2764.76
427.01	2848.72
427.22	2574.30
427.42	2478.04
427.63	2562.01
427.83	2940.88
428.04	2938.84
428.25	2725.85
428.45	2754.52
428.66	2865.11
428.86	2772.95
429.07	2680.79
429.28	2695.13
429.48	2648.02
429.69	2613.21
429.89	2678.74
430.10	2572.25
430.30	2793.43
430.51	2875.35
430.71	2521.05
430.92	2574.30
431.13	2727.89
431.33	2777.05
431.54	2723.80
431.74	2848.72
431.95	3043.28
432.15	2627.54
432.36	2686.94
432.56	2602.97
432.77	2985.94
432.98	2959.31
433.18	2684.89
433.39	2637.78
433.59	2744.28
433.80	3000.27
434.00	2877.40
434.21	2670.55
434.41	2680.79
434.62	3069.91
434.82	2609.11
435.03	2602.97
435.23	2760.66
435.44	2432.99
435.64	2658.26
435.85	2645.98
436.06	2820.05
436.26	2811.86
436.47	2684.89
436.67	2645.98
436.88	2768.85
437.08	2906.07
437.29	2899.92
437.49	2752.47
437.70	2959.31
437.90	2691.03
438.11	2920.40
438.31	2719.70
438.52	2932.69
438.72	2959.31
438.93	2944.98
439.13	2699.22
439.34	2922.45
439.54	2662.36
439.75	2760.66
439.95	2744.28
440.16	2670.55
440.36	2760.66
440.57	2666.46
440.77	2666.46
440.98	2695.13
441.18	2832.34
441.39	2615.26
441.59	2547.67
441.80	3069.91
442.00	2703.32
442.21	2797.53
442.41	2539.48
442.62	2936.79
442.82	2607.06
443.02	2662.36
443.23	2662.36
443.43	2711.51
443.64	2947.03
443.84	2496.47
444.05	2781.14
444.25	2785.24
444.46	2605.02
444.66	2693.08
444.87	2795.48
445.07	2523.10
445.28	2713.56
445.48	2912.21
445.69	2764.76
445.89	3102.67
446.09	2674.65
446.30	2906.07
446.50	3129.30
446.71	4497.34
446.91	5730.22
447.12	6487.96
447.32	6811.54
447.53	6487.96
447.73	5418.93
447.93	4855.73
448.14	4554.68
448.34	4534.20
448.55	3899.33
448.75	3749.83
448.96	3663.82
449.16	3350.48
449.36	3291.09
449.57	2940.88
449.77	2801.62
449.98	2621.40
450.18	2793.43
450.39	2723.80
450.59	2832.34
450.79	2686.94
451.00	2607.06
451.20	2824.15
451.41	2719.70
451.61	2813.91
451.81	2637.78
452.02	2652.12
452.22	2641.88
452.43	2643.93
452.63	2645.98
452.84	2670.55
453.04	2637.78
453.24	2789.33
453.45	2625.50
453.65	2607.06
453.86	2654.17
454.06	2727.89
454.26	2723.80
454.47	2588.63
454.67	2901.97
454.87	2797.53
455.08	2676.70
455.28	2824.15
455.49	2725.85
455.69	2627.54
455.89	3024.85
456.10	2777.05
456.30	2613.21
456.51	2789.33
456.71	2781.14
456.91	2809.81
457.12	2619.35
457.32	2734.04
457.52	2621.40
457.73	2838.48
457.93	2777.05
458.14	2705.37
458.34	2443.23
458.54	2676.70
458.75	2580.44
458.95	2910.16
459.15	2770.90
459.36	2635.74
459.56	2693.08
459.76	3086.29
459.97	2695.13
460.17	2678.74
460.37	2709.46
460.58	2740.18
460.78	2785.24
460.99	2633.69
461.19	2664.41
461.39	2586.58
461.60	2684.89
461.80	2752.47
462.00	2500.57
462.21	2725.85
462.41	2592.73
462.61	2611.16
462.82	2457.56
463.02	2824.15
463.22	2791.38
463.43	2674.65
463.63	2686.94
463.83	2850.77
464.04	2787.29
464.24	2637.78
464.44	2523.10
464.64	2809.81
464.85	2840.53
465.05	2701.27
465.25	2748.37
465.46	2619.35
465.66	2795.48
465.86	2777.05
466.07	2674.65
466.27	2660.31
466.47	2500.57
466.68	2441.18
466.88	2791.38
467.08	2746.33
467.29	2824.15
467.49	2703.32
467.69	2688.98
467.89	2809.81
468.10	2639.83
468.30	2734.04
468.50	2752.47
468.71	2953.17
468.91	2590.68
469.11	2875.35
469.31	2697.17
469.52	2645.98
469.72	2977.75
469.92	2897.88
470.13	2668.50
470.33	2758.61
470.53	2863.06
470.73	3022.80
470.94	3309.52
471.14	3416.01
471.34	3905.48
471.54	3639.24
471.75	3409.87
471.95	3166.16
472.15	3098.58
472.36	3198.93
472.56	2996.18
472.76	3252.17
472.96	3078.10
473.17	2979.79
473.37	2813.91
473.57	2775.00
473.77	2852.82
473.98	2697.17
474.18	2568.15
474.38	3123.15
474.58	2660.31
474.79	2572.25
474.99	2762.71
475.19	2899.92
475.39	2613.21
475.60	2783.19
475.80	2672.60
476.00	2805.72
476.20	2729.94
476.41	2713.56
476.61	2738.13
476.81	2955.22
477.01	2566.10
477.21	2863.06
477.42	2764.76
477.62	2576.34
477.82	2772.95
478.02	2551.77
478.23	2742.23
478.43	2498.52
478.63	2693.08
478.83	2656.22
479.03	2670.55
479.24	2895.83
479.44	3088.34
479.64	2506.71
479.84	2459.61
480.04	2553.82
480.25	2901.97
480.45	2600.92
480.65	2639.83
480.85	2947.03
481.06	2746.33
481.26	2660.31
481.46	2654.17
481.66	2803.67
481.86	2611.16
482.06	2756.57
482.27	2658.26
482.47	2654.17
482.67	2764.76
482.87	2627.54
483.07	2719.70
483.28	2549.72
483.48	2586.58
483.68	2609.11
483.88	2535.39
484.08	2445.27
484.29	2568.15
484.49	2721.75
484.69	2529.24
484.89	2996.18
485.09	2883.54
485.29	2641.88
485.50	2770.90
485.70	2727.89
485.90	2951.12
486.10	2666.46
486.30	2643.93
486.50	2879.44
486.71	2748.37
486.91	2729.94
487.11	2744.28
487.31	2592.73
487.51	2783.19
487.71	2566.10
487.91	2617.30
488.12	2594.78
488.32	2420.70
488.52	2580.44
488.72	2502.62
488.92	2744.28
489.12	2897.88
489.32	2807.77
489.53	2723.80
489.73	2473.95
489.93	2940.88
490.13	2695.13
490.33	2510.81
490.53	2764.76
490.73	2822.10
490.94	2457.56
491.14	2674.65
491.34	2865.11
491.54	2842.58
491.74	3516.36
491.94	4067.27
492.14	4429.76
492.34	4452.28
492.54	4175.81
492.75	3581.90
492.95	3555.27
493.15	3381.20
493.35	3323.85
493.55	3145.68
493.75	3096.53
493.95	3276.75
494.15	2938.84
494.35	2838.48
494.56	2840.53
494.76	2664.41
494.96	2824.15
495.16	2607.06
495.36	2672.60
495.56	2744.28
495.76	2658.26
495.96	2691.03
496.16	2641.88
496.36	2983.89
496.56	2617.30
496.77	2717.65
496.97	2760.66
497.17	2944.98
497.37	2502.62
497.57	2740.18
497.77	2742.23
497.97	2602.97
498.17	2701.27
498.37	2652.12
498.57	2777.05
498.77	2652.12
498.97	2809.81
499.17	2891.73
499.38	2723.80
499.58	2762.71
499.78	2787.29
499.98	2736.09
500.18	2654.17
500.38	2574.30
500.58	2873.30
500.78	3233.74
500.98	5402.54
501.18	7270.29
501.38	8791.93
501.58	9615.21
501.78	9543.53
501.98	7841.67
502.18	6471.58
502.38	5689.26
502.58	5347.25
502.78	4777.91
502.98	4624.31
503.18	4442.04
503.38	4151.23
503.59	3512.27
503.79	3504.07
503.99	3260.37
504.19	3127.25
504.39	3092.43
504.59	3168.21
504.79	3129.30
504.99	3182.54
505.19	2906.07
505.39	2871.25
505.59	3000.27
505.79	2979.79
505.99	2920.40
506.19	2707.41
506.39	2904.02
506.59	2684.89
506.79	2713.56
506.99	2783.19
507.19	2639.83
507.39	2801.62
507.59	2496.47
507.79	2678.74
507.99	2641.88
508.19	2637.78
508.39	2648.02
508.59	2686.94
508.79	2791.38
508.99	2922.45
509.19	2660.31
509.39	2711.51
509.59	2514.91
509.79	2678.74
509.99	2725.85
510.19	2838.48
510.39	2711.51
510.59	2760.66
510.79	2578.39
510.99	2529.24
511.19	2678.74
511.39	2965.46
511.59	2932.69
511.79	2775.00
511.99	2674.65
512.19	2930.64
512.38	2748.37
512.58	2605.02
512.78	2588.63
512.98	2895.83
513.18	2955.22
513.38	2422.75
513.58	2807.77
513.78	2654.17
513.98	2723.80
514.18	2602.97
514.38	2598.87
514.58	2793.43
514.78	2621.40
514.98	2588.63
515.18	2660.31
515.38	2516.95
515.58	3000.27
515.78	2672.60
515.98	2639.83
516.18	2818.00
516.38	2686.94
516.57	2627.54
516.77	2596.82
516.97	2848.72
517.17	2658.26
517.37	2439.13
517.57	2748.37
517.77	2711.51
517.97	2617.30
518.17	2703.32
518.37	2543.58
518.57	2605.02
518.77	2699.22
518.97	2625.50
519.16	2719.70
519.36	2928.60
519.56	2609.11
519.76	2609.11
519.96	2676.70
520.16	2990.03
520.36	2607.06
520.56	2826.20
520.76	2643.93
520.96	2650.07
521.16	2871.25
521.35	2858.96
521.55	2844.63
521.75	2705.37
521.95	2652.12
522.15	2621.40
522.35	2465.75
522.55	2658.26
522.75	2891.73
522.95	2668.50
523.14	2512.86
523.34	2858.96
523.54	2635.74
523.74	2826.20
523.94	2734.04
524.14	2519.00
524.34	2772.95
524.54	2770.90
524.73	2666.46
524.93	2836.44
525.13	2686.94
525.33	2455.51
525.53	2893.78
525.73	2815.96
525.93	2752.47
526.13	2682.84
526.32	2584.54
526.52	2914.26
526.72	2830.29
526.92	2652.12
527.12	2580.44
527.32	2555.86
527.52	2856.92
527.71	2668.50
527.91	2619.35
528.11	2691.03
528.31	2736.09
528.51	2510.81
528.71	2752.47
528.90	2764.76
529.10	2893.78
529.30	2781.14
529.50	2482.14
529.70	2762.71
529.90	2629.59
530.09	2715.61
530.29	2607.06
530.49	2643.93
530.69	3184.59
530.89	2695.13
531.09	2783.19
531.28	2709.46
531.48	2838.48
531.68	2703.32
531.88	2740.18
532.08	2920.40
532.28	2711.51
532.47	2688.98
532.67	2691.03
532.87	2725.85
533.07	2611.16
533.27	2738.13
533.46	2699.22
533.66	2742.23
533.86	2742.23
534.06	2650.07
534.26	2629.59
534.45	2676.70
534.65	2916.31
534.85	2719.70
535.05	2654.17
535.25	2815.96
535.44	2504.67
535.64	2762.71
535.84	2699.22
536.04	2643.93
536.24	2641.88
536.43	2645.98
536.63	2695.13
536.83	2727.89
537.03	2754.52
537.22	2519.00
537.42	2441.18
537.62	2705.37
537.82	2643.93
538.02	2854.87
538.21	2852.82
538.41	3180.50
538.61	2775.00
538.81	2680.79
539.00	2752.47
539.20	2435.03
539.40	2662.36
539.60	2625.50
539.79	2699.22
539.99	2699.22
540.19	2609.11
540.39	2641.88
540.58	2736.09
540.78	2934.74
540.98	2734.04
541.18	2807.77
541.37	2725.85
541.57	2750.42
541.77	2785.24
541.97	2547.67
542.16	2510.81
542.36	2717.65
542.56	2772.95
542.76	2834.39
542.95	2703.32
543.15	2777.05
543.35	2756.57
543.54	2590.68
543.74	2586.58
543.94	2916.31
544.14	2627.54
544.33	2801.62
544.53	2666.46
544.73	2670.55
544.93	2688.98
545.12	2576.34
545.32	2602.97
545.52	2744.28
545.71	2568.15
545.91	2627.54
546.11	2652.12
546.30	2625.50
546.50	2775.00
546.70	2705.37
546.90	2729.94
547.09	2512.86
547.29	2752.47
547.49	2826.20
547.68	2666.46
547.88	2654.17
548.08	2807.77
548.27	3053.52
548.47	2592.73
548.67	2629.59
548.87	2863.06
549.06	2623.45
549.26	2709.46
549.46	2738.13
549.65	2672.60
549.85	2686.94
550.05	2662.36
550.24	2625.50
550.44	2701.27
550.64	2688.98
550.83	2734.04
551.03	2848.72
551.23	2951.12
551.42	2729.94
551.62	2783.19
551.82	2641.88
552.01	2752.47
552.21	2865.11
552.41	2658.26
552.60	2887.64
552.80	2742.23
553.00	2576.34
553.19	2594.78
553.39	2963.41
553.59	2555.86
553.78	2725.85
553.98	2605.02
554.17	2605.02
554.37	2768.85
554.57	2736.09
554.76	2539.48
554.96	2705.37
555.16	2695.13
555.35	2731.99
555.55	2815.96
555.75	2768.85
555.94	2762.71
556.14	2504.67
556.33	2709.46
556.53	2762.71
556.73	2711.51
556.92	2750.42
557.12	2678.74
557.32	3008.47
557.51	3018.71
557.71	2740.18
557.90	2795.48
558.10	3008.47
558.30	2815.96
558.49	2660.31
558.69	2652.12
558.88	2842.58
559.08	2738.13
559.28	2637.78
559.47	2744.28
559.67	2801.62
559.86	3061.71
560.06	2711.51
560.26	2650.07
560.45	2818.00
560.65	2705.37
560.84	2863.06
561.04	2650.07
561.24	2832.34
561.43	2564.06
561.63	2865.11
561.82	2639.83
562.02	2762.71
562.22	2627.54
562.41	2586.58
562.61	2611.16
562.80	2641.88
563.00	3051.47
563.19	2664.41
563.39	2717.65
563.59	2822.10
563.78	2619.35
563.98	2443.23
564.17	2559.96
564.37	2426.84
564.56	2799.57
564.76	2531.29
564.96	2799.57
565.15	2760.66
565.35	3082.19
565.54	2580.44
565.74	2699.22
565.93	2809.81
566.13	2736.09
566.32	2738.13
566.52	2795.48
566.71	2674.65
566.91	2867.16
567.11	2697.17
567.30	2684.89
567.50	2856.92
567.69	2727.89
567.89	2602.97
568.08	2523.10
568.28	2775.00
568.47	2619.35
568.67	2684.89
568.86	2629.59
569.06	2983.89
569.25	2678.74
569.45	2623.45
569.64	2639.83
569.84	2713.56
570.04	2785.24
570.23	2688.98
570.43	2641.88
570.62	2709.46
570.82	2916.31
571.01	2568.15
571.21	2617.30
571.40	2613.21
571.60	2826.20
571.79	2676.70
571.99	2688.98
572.18	2564.06
572.38	2815.96
572.57	2605.02
572.77	2721.75
572.96	3209.17
573.16	2746.33
573.35	2678.74
573.55	2824.15
573.74	2781.14
573.94	2625.50
574.13	2633.69
574.33	2834.39
574.52	2893.78
574.71	2752.47
574.91	2715.61
575.10	2519.00
575.30	2633.69
575.49	2670.55
575.69	2596.82
575.88	2641.88
576.08	2703.32
576.27	2875.35
576.47	2676.70
576.66	2856.92
576.86	2971.60
577.05	2795.48
577.25	2695.13
577.44	2846.68
577.64	2736.09
577.83	2879.44
578.02	2641.88
578.22	2809.81
578.41	2983.89
578.61	2754.52
578.80	2465.75
579.00	2713.56
579.19	2713.56
579.39	2768.85
579.58	2717.65
579.77	2658.26
579.97	3047.38
580.16	2955.22
580.36	2830.29
580.55	2715.61
580.75	2813.91
580.94	2789.33
581.13	2858.96
581.33	2838.48
581.52	2746.33
581.72	3065.81
581.91	2830.29
582.11	2684.89
582.30	2867.16
582.49	2793.43
582.69	2869.20
582.88	2727.89
583.08	2832.34
583.27	2895.83
583.47	2666.46
583.66	2656.22
583.85	2533.34
584.05	2691.03
584.24	2766.81
584.44	2723.80
584.63	2908.12
584.82	2869.20
585.02	2811.86
585.21	2840.53
585.41	2836.44
585.60	2826.20
585.79	2897.88
585.99	2928.60
586.18	2809.81
586.37	3493.83
586.57	5365.68
586.76	15851.28
586.96	35356.13
587.15	48440.60
587.34	57187.48
587.54	61496.41
587.73	55309.49
587.93	39056.81
588.12	29597.24
588.31	24202.89
588.51	21235.39
588.70	19482.33
588.89	17112.83
589.09	14714.66
589.28	12615.49
589.47	10000.23
589.67	7769.99
589.86	5994.40
590.06	4652.98
590.25	3936.20
590.44	3448.78
590.64	3106.77
590.83	3033.04
591.02	3006.42
591.22	2758.61
591.41	2777.05
591.60	2660.31
591.80	2975.70
591.99	2564.06
592.18	2660.31
592.38	2918.36
592.57	2656.22
592.76	2703.32
592.96	2731.99
593.15	2695.13
593.34	2842.58
593.54	2688.98
593.73	2756.57
593.92	2799.57
594.12	2789.33
594.31	2723.80
594.50	2856.92
594.70	2871.25
594.89	3157.97
595.08	2627.54
595.28	2789.33
595.47	3276.75
595.66	2809.81
595.86	2514.91
596.05	2578.39
596.24	2652.12
596.43	2973.65
596.63	2842.58
596.82	2754.52
597.01	2736.09
597.21	2938.84
597.40	2717.65
597.59	2672.60
597.79	2705.37
597.98	2703.32
598.17	2709.46
598.36	2785.24
598.56	2799.57
598.75	2652.12
598.94	2764.76
599.14	2645.98
599.33	2705.37
599.52	2889.68
599.71	2699.22
599.91	2707.41
600.10	2850.77
600.29	2756.57
600.48	2758.61
600.68	2756.57
600.87	2721.75
601.06	2631.64
601.26	2752.47
601.45	2754.52
601.64	2650.07
601.83	2996.18
602.03	2602.97
602.22	2482.14
602.41	2908.12
602.60	3035.09
602.80	2719.70
602.99	2822.10
603.18	2635.74
603.37	2801.62
603.57	2631.64
603.76	2752.47
603.95	2930.64
604.14	2670.55
604.34	2691.03
604.53	2590.68
604.72	2783.19
604.91	2901.97
605.10	2695.13
605.30	2541.53
605.49	3065.81
605.68	2764.76
605.87	2656.22
606.07	2613.21
606.26	2764.76
606.45	2777.05
606.64	2684.89
606.84	2658.26
607.03	2742.23
607.22	2949.08
607.41	2613.21
607.60	2654.17
607.80	2944.98
607.99	2719.70
608.18	2705.37
608.37	2611.16
608.56	2623.45
608.76	2852.82
608.95	2820.05
609.14	2744.28
609.33	2942.93
609.52	2998.23
609.72	2725.85
609.91	2738.13
610.10	2799.57
610.29	2965.46
610.48	2856.92
610.68	2703.32
610.87	2664.41
611.06	2858.96
611.25	2631.64
611.44	2883.54
611.63	2701.27
611.83	2949.08
612.02	2535.39
612.21	2770.90
612.40	2490.33
612.59	2598.87
612.79	2537.43
612.98	2688.98
613.17	2901.97
613.36	2770.90
613.55	2824.15
613.74	2697.17
613.93	2787.29
614.13	2879.44
614.32	2779.09
614.51	2791.38
614.70	2719.70
614.89	2641.88
615.08	2781.14
615.28	3098.58
615.47	2580.44
615.66	2781.14
615.85	2711.51
616.04	2760.66
616.23	2746.33
616.42	2717.65
616.62	2717.65
616.81	2752.47
617.00	2842.58
617.19	2871.25
617.38	2660.31
617.57	2721.75
617.76	2848.72
617.95	2799.57
618.15	2772.95
618.34	2871.25
618.53	2592.73
618.72	2858.96
618.91	2785.24
619.10	2787.29
619.29	2711.51
619.48	2750.42
619.68	2523.10
619.87	2625.50
620.06	2521.05
620.25	2754.52
620.44	2682.84
620.63	2676.70
620.82	2711.51
621.01	2768.85
621.20	2596.82
621.39	2723.80
621.59	2719.70
621.78	2695.13
621.97	2707.41
622.16	2762.71
622.35	2809.81
622.54	2799.57
622.73	2744.28
622.92	2519.00
623.11	2947.03
623.30	2731.99
623.49	2709.46
623.68	2543.58
623.88	2889.68
624.07	2723.80
624.26	2586.58
624.45	2746.33
624.64	2756.57
624.83	2703.32
625.02	2633.69
625.21	2697.17
625.40	2750.42
625.59	2981.84
625.78	2695.13
625.97	2807.77
626.16	2953.17
626.35	2846.68
626.54	2721.75
626.74	2879.44
626.93	2715.61
627.12	2740.18
627.31	2807.77
627.50	2711.51
627.69	2879.44
627.88	2570.20
628.07	2623.45
628.26	2557.91
628.45	2645.98
628.64	2637.78
628.83	2676.70
629.02	2496.47
629.21	2883.54
629.40	2760.66
629.59	2553.82
629.78	2643.93
629.97	2744.28
630.16	2785.24
630.35	2676.70
630.54	2725.85
630.73	2686.94
630.92	2766.81
631.11	2572.25
631.30	2611.16
631.49	2897.88
631.68	2674.65
631.87	2703.32
632.06	2580.44
632.25	3112.91
632.44	2768.85
632.63	2783.19
632.82	2691.03
633.01	2666.46
633.20	2754.52
633.39	2691.03
633.58	2469.85
633.77	2789.33
633.96	2805.72
634.15	2758.61
634.34	2813.91
634.53	2793.43
634.72	2691.03
634.91	2439.13
635.10	2695.13
635.29	2846.68
635.48	2740.18
635.67	2541.53
635.86	2527.19
636.05	2967.51
636.24	2719.70
636.43	2623.45
636.62	2750.42
636.81	2342.88
637.00	2768.85
637.19	2727.89
637.38	2707.41
637.57	2656.22
637.76	2686.94
637.95	2813.91
638.14	2633.69
638.33	2775.00
638.52	2754.52
638.71	2537.43
638.89	2516.95
639.08	3205.07
639.27	2840.53
639.46	2873.30
639.65	3114.96
639.84	3233.74
640.03	3274.70
640.22	3018.71
640.41	3151.82
640.60	2791.38
640.79	2920.40
640.98	2783.19
641.17	2836.44
641.36	2883.54
641.55	2961.36
641.74	2559.96
641.92	2592.73
642.11	2602.97
642.30	2691.03
642.49	2557.91
642.68	2617.30
642.87	2762.71
643.06	2826.20
643.25	2635.74
643.44	2586.58
643.63	2676.70
643.82	2871.25
644.00	2572.25
644.19	2662.36
644.38	2580.44
644.57	2758.61
644.76	2668.50
644.95	2662.36
645.14	2709.46
645.33	2635.74
645.52	2682.84
645.71	2469.85
645.89	2596.82
646.08	2719.70
646.27	2615.26
646.46	2930.64
646.65	2484.19
646.84	2766.81
647.03	2539.48
647.22	2768.85
647.40	2801.62
647.59	2697.17
647.78	2475.99
647.97	2629.59
648.16	2605.02
648.35	2813.91
648.54	2904.02
648.73	2602.97
648.91	2850.77
649.10	2719.70
649.29	2668.50
649.48	2617.30
649.67	2867.16
649.86	2775.00
650.05	2736.09
650.23	2871.25
650.42	2678.74
650.61	2920.40
650.80	2801.62
650.99	2891.73
651.18	2865.11
651.36	2856.92
651.55	2617.30
651.74	2764.76
651.93	2707.41
652.12	2672.60
652.31	2715.61
652.49	2613.21
652.68	2703.32
652.87	2975.70
653.06	2709.46
653.25	2951.12
653.44	2672.60
653.62	2908.12
653.81	2637.78
654.00	2625.50
654.19	2836.44
654.38	3145.68
654.56	2707.41
654.75	2584.54
654.94	2840.53
655.13	2705.37
655.32	2623.45
655.51	2789.33
655.69	2643.93
655.88	2783.19
656.07	2514.91
656.26	2744.28
656.45	2523.10
656.63	2752.47
656.82	2625.50
657.01	2916.31
657.20	2570.20
657.38	2924.50
657.57	2619.35
657.76	2389.98
657.95	2791.38
658.14	2666.46
658.32	2793.43
658.51	2502.62
658.70	2809.81
658.89	2746.33
659.08	2658.26
659.26	2846.68
659.45	2602.97
659.64	2750.42
659.83	2562.01
660.01	3016.66
660.20	2746.33
660.39	3004.37
660.58	2439.13
660.76	2703.32
660.95	2562.01
661.14	2695.13
661.33	2535.39
661.51	2598.87
661.70	2664.41
661.89	2797.53
662.08	2711.51
662.26	2496.47
662.45	2562.01
662.64	2973.65
662.83	2762.71
663.01	2547.67
663.20	2619.35
663.39	2957.27
663.58	2637.78
663.76	2615.26
663.95	2854.87
664.14	2533.34
664.32	2707.41
664.51	2547.67
664.70	2531.29
664.89	2703.32
665.07	2531.29
665.26	2813.91
665.45	2584.54
665.64	2822.10
665.82	2662.36
666.01	2742.23
666.20	2588.63
666.38	2871.25
666.57	2848.72
666.76	4317.12
666.95	10166.12
667.13	17239.80
667.32	21472.95
667.51	24229.52
667.69	25067.14
667.88	21872.31
668.07	15537.94
668.25	12967.74
668.44	11194.20
668.63	9662.32
668.81	8521.60
669.00	7219.09
669.19	6625.18
669.38	5832.62
669.56	4937.65
669.75	4347.84
669.94	3663.82
670.12	3305.42
670.31	2914.26
670.50	2912.21
670.68	2912.21
670.87	2815.96
671.06	2746.33
671.24	2727.89
671.43	2885.59
671.62	2746.33
671.80	2660.31
671.99	2719.70
672.18	2701.27
672.36	2906.07
672.55	2748.37
672.74	2754.52
672.92	2650.07
673.11	2846.68
673.29	2494.43
673.48	2752.47
673.67	2623.45
673.85	2832.34
674.04	2637.78
674.23	2705.37
674.41	2949.08
674.60	2564.06
674.79	2529.24
674.97	2574.30
675.16	2789.33
675.34	2850.77
675.53	2662.36
675.72	2678.74
675.90	2963.41
676.09	2752.47
676.28	2682.84
676.46	2504.67
676.65	2822.10
676.83	2588.63
677.02	2746.33
677.21	2678.74
677.39	2752.47
677.58	2625.50
677.77	2607.06
677.95	2576.34
678.14	2686.94
678.32	2768.85
678.51	2607.06
678.70	2932.69
678.88	2707.41
679.07	2705.37
679.25	2695.13
679.44	2731.99
679.63	2600.92
679.81	2738.13
680.00	2818.00
680.18	2754.52
680.37	3004.37
680.55	2707.41
680.74	2553.82
680.93	2424.80
681.11	2727.89
681.30	2576.34
681.48	2648.02
681.67	2682.84
681.85	2748.37
682.04	2568.15
682.23	2795.48
682.41	2693.08
682.60	2711.51
682.78	2643.93
682.97	2611.16
683.15	2744.28
683.34	2727.89
683.53	2971.60
683.71	2559.96
683.90	2756.57
684.08	2967.51
684.27	2631.64
684.45	2639.83
684.64	2869.20
684.82	2729.94
685.01	2662.36
685.19	2639.83
685.38	2856.92
685.57	2725.85
685.75	2684.89
685.94	2609.11
686.12	2617.30
686.31	2619.35
686.49	2975.70
686.68	2471.90
686.86	2695.13
687.05	2744.28
687.23	2858.96
687.42	2617.30
687.60	2486.23
687.79	2914.26
687.97	2949.08
688.16	2787.29
688.34	2832.34
688.53	2457.56
688.71	2799.57
688.90	2940.88
689.08	2590.68
689.27	2490.33
689.45	2764.76
689.64	2830.29
689.82	2785.24
690.01	2813.91
690.19	2787.29
690.38	2660.31
690.56	2750.42
690.75	2564.06
690.93	2676.70
691.12	2619.35
691.30	2695.13
691.49	2631.64
691.67	2678.74
691.86	2994.13
692.04	2580.44
692.23	2682.84
692.41	2727.89
692.60	2953.17
692.78	2924.50
692.97	2746.33
693.15	2795.48
693.34	2959.31
693.52	2648.02
693.71	2635.74
693.89	2600.92
694.08	2478.04
694.26	2740.18
694.44	2858.96
694.63	2818.00
694.81	2537.43
695.00	2656.22
695.18	2818.00
695.37	3129.30
695.55	2748.37
695.74	2645.98
695.92	2662.36
696.10	2928.60
696.29	2512.86
696.47	2609.11
696.66	2557.91
696.84	2652.12
697.03	2729.94
697.21	2908.12
697.40	4171.71
697.58	2863.06
697.76	2568.15
697.95	2633.69
698.13	2586.58
698.32	2617.30
698.50	2697.17
698.68	2738.13
698.87	2822.10
699.05	2934.74
699.24	2691.03
699.42	2609.11
699.61	2719.70
699.79	2703.32
699.97	2721.75
700.16	2568.15
700.34	2449.37
700.53	2785.24
700.71	2820.05
700.89	2703.32
701.08	2635.74
701.26	2731.99
701.45	3141.58
701.63	2588.63
701.81	2637.78
702.00	2637.78
702.18	2699.22
702.37	2658.26
702.55	2881.49
702.73	2756.57
702.92	2693.08
703.10	2893.78
703.28	2922.45
703.47	2713.56
703.65	2887.64
703.84	2867.16
704.02	2609.11
704.20	2992.08
704.39	2586.58
704.57	2623.45
704.75	2858.96
704.94	2748.37
705.12	2754.52
705.30	3135.44
705.49	5879.72
705.67	11980.62
705.86	17825.52
706.04	20477.64
706.22	22988.45
706.41	22576.81
706.59	17843.95
706.77	13401.91
706.96	11663.18
707.14	10481.50
707.32	8966.01
707.51	7927.69
707.69	6680.47
707.87	5427.12
708.06	4464.57
708.24	3852.23
708.42	3342.28
708.61	3446.73
708.79	2740.18
708.97	2764.76
709.16	2766.81
709.34	2813.91
709.52	2586.58
709.71	2703.32
709.89	2813.91
710.07	2648.02
710.26	2594.78
710.44	2660.31
710.62	2840.53
710.80	2648.02
710.99	2731.99
711.17	2815.96
711.35	2676.70
711.54	2652.12
711.72	2818.00
711.90	2691.03
712.09	2680.79
712.27	2600.92
712.45	2809.81
712.63	2613.21
712.82	2768.85
713.00	2695.13
713.18	2734.04
713.37	2836.44
713.55	2848.72
713.73	2789.33
713.91	2760.66
714.10	2652.12
714.28	2731.99
714.46	2748.37
714.65	2713.56
714.83	2672.60
715.01	2777.05
715.19	2723.80
715.38	2639.83
715.56	2775.00
715.74	2596.82
715.92	2568.15
716.11	2832.34
716.29	2443.23
716.47	2772.95
716.65	2805.72
716.84	2500.57
717.02	2727.89
717.20	2568.15
717.38	2580.44
717.57	2754.52
717.75	2787.29
717.93	2705.37
718.11	2916.31
718.30	2514.91
718.48	2727.89
718.66	2895.83
718.84	2883.54
719.03	2625.50
719.21	2553.82
719.39	2944.98
719.57	2777.05
719.75	2705.37
719.94	2584.54
720.12	2641.88
720.30	2725.85
720.48	2707.41
720.67	2609.11
720.85	2592.73
721.03	2652.12
721.21	2578.39
721.39	2813.91
721.58	2795.48
721.76	2746.33
721.94	2750.42
722.12	2709.46
722.30	2930.64
722.49	2664.41
722.67	2662.36
722.85	2754.52
723.03	2621.40
723.21	2641.88
723.40	2613.21
723.58	2795.48
723.76	2842.58
723.94	2877.40
724.12	2736.09
724.30	2912.21
724.49	2879.44
724.67	2531.29
724.85	2775.00
725.03	2586.58
725.21	2785.24
725.40	2863.06
725.58	2602.97
725.76	2873.30
725.94	2727.89
726.12	2658.26
726.30	2715.61
726.49	2613.21
726.67	2676.70
726.85	2842.58
727.03	3088.34
727.21	4100.03
727.39	5218.22
727.57	5570.48
727.76	6193.06
727.94	6191.01
728.12	5509.04
728.30	4628.41
728.48	4440.00
728.66	4097.99
728.84	3784.65
729.03	3317.71
729.21	3264.46
729.39	3063.76
729.57	2877.40
729.75	2779.09
729.93	2770.90
730.11	2654.17
730.30	2686.94
730.48	2717.65
730.66	2844.63
730.84	2766.81
731.02	2717.65
731.20	2605.02
731.38	2658.26
731.56	2570.20
731.74	2498.52
731.93	2707.41
732.11	2676.70
732.29	2625.50
732.47	2803.67
732.65	2748.37
732.83	2815.96
733.01	2785.24
733.19	2650.07
733.37	2764.76
733.56	2711.51
733.74	2588.63
733.92	2883.54
734.10	2691.03
734.28	2742.23
734.46	2553.82
734.64	2662.36
734.82	2670.55
735.00	2633.69
735.18	2633.69
735.36	2731.99
735.54	2691.03
735.73	2605.02
735.91	2818.00
736.09	2899.92
736.27	2768.85
736.45	2756.57
736.63	2392.03
736.81	2707.41
736.99	2852.82
737.17	2844.63
737.35	2645.98
737.53	2670.55
737.71	2631.64
737.89	2830.29
738.07	2621.40
738.25	2613.21
738.43	2514.91
738.61	2697.17
738.80	2588.63
738.98	2578.39
739.16	2629.59
739.34	2605.02
739.52	2973.65
739.70	2627.54
739.88	2832.34
740.06	2822.10
740.24	2441.18
740.42	2920.40
740.60	2514.91
740.78	2652.12
740.96	2506.71
741.14	2648.02
741.32	2764.76
741.50	2451.42
741.68	2916.31
741.86	2856.92
742.04	2572.25
742.22	2545.63
742.40	2621.40
742.58	2826.20
742.76	2619.35
742.94	2850.77
743.12	2594.78
743.30	2686.94
743.48	2789.33
743.66	2574.30
743.84	2746.33
744.02	2701.27
744.20	2764.76
744.38	2580.44
744.56	2619.35
744.74	3078.10
744.92	2770.90
745.10	2875.35
745.28	2715.61
745.46	3020.75
745.64	2531.29
745.82	2820.05
746.00	2674.65
746.18	2754.52
746.36	2652.12
746.54	2707.41
746.72	2670.55
746.90	2545.63
747.08	2895.83
747.26	2639.83
747.44	2725.85
747.62	2770.90
747.80	2738.13
747.98	2734.04
748.15	2678.74
748.33	2992.08
748.51	2725.85
748.69	2818.00
748.87	2508.76
749.05	2779.09
749.23	2660.31
749.41	2629.59
749.59	2617.30
749.77	2787.29
749.95	2688.98
750.13	2529.24
750.31	2758.61
750.49	2750.42
750.67	2772.95
750.85	2752.47
751.03	2627.54
751.20	3037.14
751.38	2678.74
751.56	2623.45
751.74	2652.12
751.92	2625.50
752.10	2621.40
752.28	2828.24
752.46	2639.83
752.64	2654.17
752.82	2664.41
753.00	2734.04
753.18	2613.21
753.35	2686.94
753.53	2699.22
753.71	2566.10
753.89	2752.47
754.07	2803.67
754.25	2854.87
754.43	2752.47
754.61	2521.05
754.79	2723.80
754.97	2629.59
755.14	2858.96
755.32	2531.29
755.50	2729.94
755.68	2701.27
755.86	2547.67
756.04	2590.68
756.22	2502.62
756.40	2828.24
756.57	2848.72
756.75	2637.78
756.93	2824.15
757.11	2865.11
757.29	2492.38
757.47	2652.12
757.65	2478.04
757.82	2426.84
758.00	2535.39
758.18	2588.63
758.36	2609.11
758.54	2953.17
758.72	2516.95
758.90	2719.70
759.07	2871.25
759.25	2553.82
759.43	2750.42
759.61	2570.20
759.79	3899.33
759.97	2775.00
760.15	2654.17
760.32	2676.70
760.50	2783.19
760.68	2928.60
760.86	2537.43
761.04	2836.44
761.22	2809.81
761.39	2772.95
761.57	2789.33
761.75	2731.99
761.93	2738.13
762.11	2629.59
762.28	2752.47
762.46	2527.19
762.64	2858.96
762.82	2498.52
763.00	2701.27
763.18	2852.82
763.35	2512.86
763.53	2828.24
763.71	2666.46
763.89	2645.98
764.07	2686.94
764.24	2719.70
764.42	2838.48
764.60	2633.69
764.78	2789.33
764.96	2729.94
765.13	2752.47
765.31	2529.24
765.49	2723.80
765.67	2559.96
765.84	2578.39
766.02	2578.39
766.20	2480.09
766.38	2740.18
766.56	2734.04
766.73	2725.85
766.91	2719.70
767.09	2779.09
767.27	2729.94
767.44	2607.06
767.62	2850.77
767.80	2674.65
767.98	2592.73
768.15	2650.07
768.33	2838.48
768.51	2828.24
768.69	2793.43
768.87	2693.08
769.04	2711.51
769.22	3069.91
769.40	2865.11
769.58	2904.02
769.75	2725.85
769.93	2889.68
770.11	2551.77
770.28	2590.68
770.46	2805.72
770.64	2822.10
770.82	2635.74
770.99	2609.11
771.17	2856.92
771.35	2680.79
771.53	2666.46
771.70	2654.17
771.88	2775.00
772.06	2695.13
772.23	2605.02
772.41	2693.08
772.59	2701.27
772.77	2559.96
772.94	2615.26
773.12	2660.31
773.30	2625.50
773.47	2703.32
773.65	2492.38
773.83	2799.57
774.01	2686.94
774.18	2461.66
774.36	2586.58
774.54	2523.10
774.71	2805.72
774.89	2488.28
775.07	2535.39
775.24	2621.40
775.42	2559.96
775.60	2850.77
775.78	2586.58
775.95	2527.19
776.13	2439.13
776.31	2410.46
776.48	2736.09
776.66	2805.72
776.84	2725.85
777.01	2625.50
777.19	2527.19
777.37	2678.74
777.54	2750.42
777.72	2963.41
777.90	2758.61
778.07	2641.88
778.25	3256.27
778.43	2838.48
778.60	2523.10
778.78	2783.19
778.96	2863.06
779.13	2643.93
779.31	2762.71
779.49	2695.13
779.66	2703.32
779.84	2623.45
780.01	2637.78
780.19	2584.54
780.37	2889.68
780.54	2805.72
780.72	2578.39
780.90	2658.26
781.07	2594.78
781.25	2527.19
781.43	2815.96
781.60	2590.68
781.78	2897.88
781.95	2760.66
782.13	2645.98
782.31	2691.03
782.48	2416.60
782.66	2766.81
782.83	2887.64
783.01	2660.31
783.19	2768.85
783.36	2633.69
783.54	2588.63
783.72	2768.85
783.89	2613.21
784.07	2707.41
784.24	2809.81
784.42	2854.87
784.60	2670.55
784.77	2772.95
784.95	2375.64
785.12	2586.58
785.30	2719.70
785.47	2537.43
785.65	2521.05
785.83	2695.13
786.00	2660.31
786.18	2742.23
786.35	2578.39
786.53	2580.44
786.71	2867.16
786.88	2805.72
787.06	2742.23
787.23	2607.06
787.41	2506.71
787.58	2736.09
787.76	2652.12
787.94	2707.41
788.11	2764.76
788.29	2596.82
788.46	2516.95
788.64	2580.44
788.81	2619.35
788.99	2527.19
789.16	2566.10
789.34	2746.33
789.52	2588.63
789.69	2611.16
789.87	2482.14
790.04	2549.72
790.22	2709.46
790.39	2994.13
790.57	2490.33
790.74	2584.54
790.92	2848.72
791.09	2465.75
791.27	2682.84
791.44	2772.95
791.62	2719.70
791.79	2711.51
791.97	2643.93
792.15	3059.67
792.32	2834.39
792.50	2807.77
792.67	2869.20
792.85	2867.16
793.02	2719.70
793.20	2713.56
793.37	2435.03
793.55	2641.88
793.72	2500.57
793.90	2754.52
794.07	2643.93
794.25	2521.05
794.42	2748.37
794.60	2727.89
794.77	2660.31
794.95	2727.89
795.12	2809.81
795.30	2760.66
795.47	2455.51
795.65	3004.37
795.82	2746.33
796.00	2627.54
796.17	2713.56
796.34	2592.73
796.52	2824.15
796.69	2840.53
796.87	2772.95
797.04	2777.05
797.22	2830.29
797.39	2752.47
797.57	2748.37
797.74	2731.99
797.92	2754.52
798.09	2658.26
798.27	2848.72
798.44	2633.69
798.62	2623.45
798.79	2818.00
798.96	2699.22
799.14	2584.54
799.31	3139.54
799.49	2695.13
799.66	2584.54
799.84	2713.56
800.01	2484.19
800.19	2764.76
800.36	2445.27
800.53	2678.74
800.71	2887.64
800.88	2973.65
801.06	2656.22
801.23	2551.77
801.41	2666.46
801.58	2682.84
801.75	2621.40
801.93	2738.13
802.10	2826.20
802.28	2656.22
802.45	2547.67
802.63	2795.48
802.80	2906.07
802.97	2602.97
803.15	2744.28
803.32	2682.84
803.50	2643.93
803.67	2627.54
803.84	2613.21
804.02	2672.60
804.19	2629.59
804.37	2418.65
804.54	2523.10
804.71	2562.01
804.89	2697.17
805.06	2578.39
805.24	2639.83
805.41	2516.95
805.58	2617.30
805.76	2971.60
805.93	2609.11
806.10	2838.48
806.28	2850.77
806.45	2684.89
806.63	2760.66
806.80	2660.31
806.97	2789.33
807.15	2783.19
807.32	2676.70
807.49	2707.41
807.67	2502.62
807.84	2705.37
808.01	2482.14
808.19	2901.97
808.36	3037.14
808.54	2695.13
808.71	2512.86
808.88	2768.85
809.06	2910.16
809.23	3000.27
809.40	2611.16
809.58	2764.76
809.75	2764.76
809.92	2588.63
810.10	2887.64
810.27	2670.55
810.44	2824.15
810.62	2871.25
810.79	2658.26
810.96	2607.06
811.14	2678.74
811.31	2809.81
811.48	2781.14
811.66	2576.34
811.83	2799.57
812.00	2811.86
812.18	2699.22
812.35	2924.50
812.52	2617.30
812.69	2645.98
812.87	2572.25
813.04	2580.44
813.21	2658.26
813.39	2602.97
813.56	2484.19
813.73	2840.53
813.91	2453.47
814.08	2766.81
814.25	2731.99
814.42	2437.08
814.60	2670.55
814.77	2783.19
814.94	2605.02
815.12	2676.70
815.29	2953.17
815.46	2619.35
815.63	2707.41
815.81	2678.74
815.98	2697.17
816.15	2711.51
816.33	2678.74
816.50	2641.88
816.67	2770.90
816.84	2752.47
817.02	2549.72
817.19	2707.41
817.36	2775.00
817.53	2799.57
817.71	2529.24
817.88	2662.36
818.05	2723.80
818.22	2674.65
818.40	2836.44
818.57	2600.92
818.74	2766.81
818.91	2715.61
819.09	2787.29
819.26	2789.33
819.43	2605.02
819.60	2543.58
819.78	2785.24
819.95	2803.67
820.12	2531.29
820.29	2869.20
820.47	2861.01
820.64	2574.30
820.81	2553.82
820.98	2568.15
821.15	2619.35
821.33	2729.94
821.50	2521.05
821.67	2805.72
821.84	2609.11
822.02	2715.61
822.19	2770.90
822.36	2543.58
822.53	2633.69
822.70	2543.58
822.88	2678.74
823.05	2871.25
823.22	2750.42
823.39	2719.70
823.56	2729.94
823.74	2908.12
823.91	2562.01
824.08	2570.20
824.25	2582.49
824.42	2924.50
824.60	2547.67
824.77	2719.70
824.94	2621.40
825.11	2748.37
825.28	2531.29
825.45	2715.61
825.63	2731.99
825.80	2502.62
825.97	2740.18
826.14	2684.89
826.31	2408.41
826.48	2775.00
826.66	2605.02
826.83	2654.17
827.00	2676.70
827.17	2680.79
827.34	2674.65
827.51	2586.58
827.69	2738.13
827.86	2555.86
828.03	2695.13
828.20	2586.58
828.37	2598.87
828.54	2801.62
828.71	2521.05
828.89	2856.92
829.06	2713.56
829.23	2930.64
829.40	2629.59
829.57	2600.92
829.74	2772.95
829.91	2584.54
830.09	2607.06
830.26	2756.57
830.43	2971.60
830.60	2731.99
830.77	2758.61
830.94	2758.61
831.11	2770.90
831.28	2633.69
831.46	2760.66
831.63	2613.21
831.80	2932.69
831.97	2570.20
832.14	2637.78
832.31	2727.89
832.48	2701.27
832.65	2846.68
832.82	2744.28
832.99	2680.79
833.17	2607.06
833.34	2920.40
833.51	2719.70
833.68	2494.43
833.85	2873.30
834.02	2568.15
834.19	2570.20
834.36	2600.92
834.53	2770.90
834.70	2850.77
834.87	2740.18
835.04	2557.91
835.22	2613.21
835.39	2668.50
835.56	2523.10
835.73	2488.28
835.90	2856.92
836.07	2559.96
836.24	2686.94
836.41	2592.73
836.58	2572.25
836.75	2887.64
836.92	2635.74
837.09	2492.38
837.26	2848.72
837.43	2779.09
837.60	2662.36
837.77	2611.16
837.94	2820.05
838.12	2840.53
838.29	2490.33
838.46	2424.80
838.63	2562.01
838.80	2854.87
838.97	2713.56
839.14	2516.95
839.31	2723.80
839.48	2879.44
839.65	2602.97
839.82	2631.64
839.99	2783.19
840.16	2781.14
840.33	2480.09
840.50	2588.63
840.67	2576.34
840.84	2439.13
841.01	2500.57
841.18	2555.86
841.35	2717.65
841.52	2756.57
841.69	2867.16
841.86	2605.02
842.03	2809.81
842.20	2826.20
842.37	2635.74
842.54	2549.72
842.71	2674.65
842.88	2437.08
843.05	2559.96
843.22	2586.58
843.39	2830.29
843.56	2586.58
843.73	2592.73
843.90	2586.58
844.07	2695.13
844.24	2828.24
844.41	2598.87
844.58	2596.82
844.75	2676.70
844.92	2815.96
845.09	2625.50
845.26	2533.34
845.43	2850.77
845.60	2686.94
845.77	2656.22
845.94	2611.16
846.10	2768.85
846.27	2527.19
846.44	2521.05
846.61	2496.47
846.78	2807.77
846.95	2906.07
847.12	2555.86
847.29	2535.39
847.46	2607.06
847.63	2840.53
847.80	2531.29
847.97	2463.71
848.14	3037.14
848.31	2670.55
848.48	2432.99
848.65	2559.96
848.82	2621.40
848.98	3121.10
849.15	2666.46
849.32	2768.85
849.49	2854.87
849.66	2686.94
849.83	2473.95
850.00	2514.91
850.17	2779.09
850.34	2703.32
850.51	2471.90
850.68	2525.15
850.85	3106.77
851.01	2734.04
851.18	2531.29
851.35	2586.58
851.52	2758.61
851.69	2990.03
851.86	2439.13
852.03	2482.14
852.20	2801.62
852.37	2691.03
852.53	2478.04
852.70	2527.19
852.87	2727.89
853.04	2742.23
853.21	2602.97
853.38	2660.31
853.55	2887.64
853.72	2879.44
853.89	2406.36
854.05	2500.57
854.22	2600.92
854.39	2736.09
854.56	2545.63
854.73	2711.51
854.90	2523.10
855.07	2674.65
855.23	2502.62
855.40	2555.86
855.57	2701.27
855.74	2383.84
855.91	2748.37
856.08	2422.75
856.25	2596.82
856.41	2652.12
856.58	2596.82
856.75	2525.15
856.92	2578.39
857.09	2754.52
857.26	2416.60
857.42	2578.39
857.59	2791.38
857.76	2637.78
857.93	2564.06
858.10	2631.64
858.27	2564.06
858.43	2787.29
858.60	2578.39
858.77	2457.56
858.94	2645.98
859.11	2789.33
859.27	2600.92
859.44	2480.09
859.61	3051.47
859.78	2807.77
859.95	2508.76
860.12	2504.67
860.28	2981.84
860.45	3008.47
860.62	2533.34
860.79	2627.54
860.95	2645.98
861.12	2625.50
861.29	2510.81
861.46	2471.90
861.63	2770.90
861.79	2738.13
861.96	2541.53
862.13	2543.58
862.30	2842.58
862.47	2621.40
862.63	2519.00
862.80	2623.45
862.97	2940.88
863.14	2713.56
863.30	2668.50
863.47	2512.86
863.64	2901.97
863.81	2826.20
863.97	2539.48
864.14	2588.63
864.31	2637.78
864.48	2766.81
864.65	2611.16
864.81	2605.02
864.98	2852.82
865.15	2881.49
865.32	2611.16
865.48	2723.80
865.65	2824.15
865.82	2580.44
865.98	2570.20
866.15	2637.78
866.32	2633.69
866.49	2568.15
866.65	2686.94
866.82	2469.85
866.99	2699.22
867.16	2656.22
867.32	2621.40
867.49	2555.86
867.66	2613.21
867.83	2674.65
867.99	2414.56
868.16	2473.95
868.33	2564.06
868.49	2707.41
868.66	2609.11
868.83	2645.98
868.99	2723.80
869.16	2697.17
869.33	2664.41
869.50	2600.92
869.66	2768.85
869.83	2719.70
870.00	2416.60
870.16	2643.93
870.33	2613.21
870.50	2869.20
870.66	2588.63
870.83	2598.87
871.00	2756.57
871.17	2781.14
871.33	2582.49
871.50	2533.34
871.67	2711.51
871.83	2584.54
872.00	2711.51
872.17	2547.67
872.33	3026.90
872.50	2865.11
872.67	2588.63
872.83	2607.06
873.00	2705.37
873.17	2768.85
873.33	2629.59
873.50	2613.21
873.67	2500.57
873.83	2617.30
874.00	2586.58
874.16	2625.50
874.33	2719.70
874.50	2508.76
874.66	2578.39
874.83	2758.61
875.00	2838.48
875.16	2820.05
875.33	2570.20
875.50	2424.80
875.66	2611.16
875.83	2768.85
875.99	2627.54
876.16	2600.92
876.33	2629.59
876.49	2666.46
876.66	2629.59
876.83	2523.10
876.99	2537.43
877.16	2682.84
877.32	2502.62
877.49	2516.95
877.66	2807.77
877.82	2987.99
877.99	2633.69
878.15	2836.44
878.32	2693.08
878.49	2777.05
878.65	2619.35
878.82	2719.70
878.98	2654.17
879.15	2766.81
879.32	2691.03
879.48	2645.98
879.65	2666.46
879.81	2670.55
879.98	2529.24
880.15	2645.98
880.31	2791.38
880.48	2619.35
880.64	2678.74
880.81	2666.46
880.97	2908.12
881.14	2959.31
881.31	2570.20
881.47	2801.62
881.64	2664.41
881.80	2467.80
881.97	2760.66
882.13	2564.06
882.30	2625.50
882.47	2617.30
882.63	2510.81
882.80	2537.43
882.96	2662.36
883.13	2906.07
883.29	2529.24
883.46	2596.82
883.62	3080.14
883.79	2707.41
883.95	2768.85
884.12	2502.62
884.29	2834.39
884.45	2697.17
884.62	2633.69
884.78	2512.86
884.95	2875.35
885.11	2566.10
885.28	2650.07
885.44	2516.95
885.61	2793.43
885.77	2916.31
885.94	2625.50
886.10	2660.31
886.27	2734.04
886.43	2961.36
886.60	2756.57
886.76	2602.97
886.93	2588.63
887.09	2695.13
887.26	2488.28
887.42	2531.29
887.59	2852.82
887.75	3080.14
887.92	2723.80
888.08	2682.84
888.25	2973.65
888.41	2777.05
888.58	2654.17
888.74	2572.25
888.91	2672.60
>>>>>End Processed Spectral Data<<<<<
