SpectraSuite Data File
++++++++++++++++++++++++++++++++++++
Date: Thu May 05 16:20:21 CEST 2016
User: root
Dark Spectrum Present: No
Reference Spectrum Present: No
Number of Sampled Component Spectra: 1
Spectrometers: USB4C02835
Integration Time (usec): 100000 (USB4C02835)
Spectra Averaged: 1 (USB4C02835)
Boxcar Smoothing: 0 (USB4C02835)
Correct for Electrical Dark: No (USB4C02835)
Strobe/Lamp Enabled: No (USB4C02835)
Correct for Detector Non-linearity: No (USB4C02835)
Correct for Stray Light: No (USB4C02835)
Number of Pixels in Processed Spectrum: 3648
>>>>>Begin Processed Spectral Data<<<<<
177.47	2002.91
177.69	2002.91
177.91	2002.91
178.13	2031.58
178.36	2072.54
178.58	2615.26
178.80	2734.04
179.02	2521.05
179.24	2619.35
179.46	2459.61
179.68	2572.25
179.90	2791.38
180.13	2813.91
180.35	2475.99
180.57	2408.41
180.79	2785.24
181.01	2754.52
181.23	2570.20
181.45	2748.37
181.67	2799.57
181.90	2854.87
182.12	2494.43
182.34	2369.50
182.56	2891.73
182.78	2793.43
183.00	2457.56
183.22	2500.57
183.44	2496.47
183.66	3080.14
183.89	2609.11
184.11	2482.14
184.33	2815.96
184.55	2908.12
184.77	2500.57
184.99	2506.71
185.21	2600.92
185.43	2998.23
185.65	2508.76
185.87	2461.66
186.10	3080.14
186.32	3028.95
186.54	2635.74
186.76	2668.50
186.98	2885.59
187.20	2695.13
187.42	2529.24
187.64	2564.06
187.86	2756.57
188.08	2908.12
188.30	2428.89
188.52	2527.19
188.75	2906.07
188.97	2961.36
189.19	2465.75
189.41	2547.67
189.63	2799.57
189.85	2703.32
190.07	2398.17
190.29	2365.40
190.51	2715.61
190.73	2590.68
190.95	2641.88
191.17	2521.05
191.39	2457.56
191.61	2639.83
191.84	2574.30
192.06	2584.54
192.28	2564.06
192.50	3256.27
192.72	2662.36
192.94	2531.29
193.16	2940.88
193.38	2756.57
193.60	2457.56
193.82	2584.54
194.04	2889.68
194.26	2791.38
194.48	2527.19
194.70	2566.10
194.92	2680.79
195.14	2891.73
195.36	2484.19
195.58	2605.02
195.80	2637.78
196.02	2572.25
196.24	2451.42
196.46	2617.30
196.69	2662.36
196.91	3117.01
197.13	2445.27
197.35	2555.86
197.57	2969.55
197.79	2826.20
198.01	2596.82
198.23	2572.25
198.45	2809.81
198.67	2492.38
198.89	2342.88
199.11	2643.93
199.33	2645.98
199.55	2402.27
199.77	2418.65
199.99	2602.97
200.21	2676.70
200.43	2793.43
200.65	2383.84
200.87	2346.97
201.09	2736.09
201.31	2670.55
201.53	2580.44
201.75	2504.67
201.97	2707.41
202.19	2715.61
202.41	2586.58
202.63	2654.17
202.85	2799.57
203.07	2740.18
203.29	2527.19
203.51	2463.71
203.73	2658.26
203.95	3196.88
204.17	2557.91
204.39	2611.16
204.61	2658.26
204.83	2682.84
205.05	2613.21
205.27	2512.86
205.49	3063.76
205.71	2676.70
205.93	2424.80
206.15	2467.80
206.37	2752.47
206.59	2699.22
206.81	2422.75
207.03	2475.99
207.25	2643.93
207.47	2805.72
207.69	2516.95
207.91	2775.00
208.13	2920.40
208.34	2641.88
208.56	2473.95
208.78	2523.10
209.00	2695.13
209.22	2605.02
209.44	2545.63
209.66	2443.23
209.88	2701.27
210.10	2582.49
210.32	2547.67
210.54	2590.68
210.76	2668.50
210.98	2899.92
211.20	2346.97
211.42	2557.91
211.64	2865.11
211.86	2754.52
212.08	2572.25
212.30	2607.06
212.52	2684.89
212.74	2736.09
212.96	2617.30
213.17	2525.15
213.39	2852.82
213.61	2904.02
213.83	2488.28
214.05	2396.12
214.27	2807.77
214.49	2596.82
214.71	2445.27
214.93	2609.11
215.15	2731.99
215.37	2830.29
215.59	2369.50
215.81	2658.26
216.03	2973.65
216.24	2682.84
216.46	2541.53
216.68	2535.39
216.90	2760.66
217.12	2897.88
217.34	2422.75
217.56	2684.89
217.78	2965.46
218.00	2748.37
218.22	2582.49
218.44	2500.57
218.66	2674.65
218.87	2953.17
219.09	2480.09
219.31	2514.91
219.53	2785.24
219.75	2643.93
219.97	2555.86
220.19	2545.63
220.41	2736.09
220.63	2936.79
220.85	2580.44
221.06	2469.85
221.28	2863.06
221.50	2791.38
221.72	2537.43
221.94	2400.22
222.16	2723.80
222.38	2772.95
222.60	2547.67
222.82	2586.58
223.03	2826.20
223.25	2562.01
223.47	2547.67
223.69	2756.57
223.91	2867.16
224.13	2738.13
224.35	2453.47
224.57	2713.56
224.78	2836.44
225.00	2574.30
225.22	2533.34
225.44	2441.18
225.66	2805.72
225.88	2584.54
226.10	2602.97
226.32	2566.10
226.53	2836.44
226.75	2674.65
226.97	2578.39
227.19	2547.67
227.41	2582.49
227.63	2629.59
227.85	2306.01
228.06	2547.67
228.28	2717.65
228.50	2871.25
228.72	2295.77
228.94	2523.10
229.16	2447.32
229.37	2564.06
229.59	2443.23
229.81	2627.54
230.03	2660.31
230.25	2523.10
230.47	2375.64
230.69	2533.34
230.90	2803.67
231.12	2605.02
231.34	2600.92
231.56	2619.35
231.78	2611.16
232.00	2760.66
232.21	2539.48
232.43	2533.34
232.65	2437.08
232.87	2768.85
233.09	2389.98
233.30	2451.42
233.52	2832.34
233.74	2686.94
233.96	2531.29
234.18	2682.84
234.40	2770.90
234.61	3098.58
234.83	2424.80
235.05	2447.32
235.27	3059.67
235.49	2842.58
235.70	2424.80
235.92	2605.02
236.14	2803.67
236.36	3026.90
236.58	2412.51
236.79	2598.87
237.01	2648.02
237.23	2695.13
237.45	2637.78
237.67	2545.63
237.88	2811.86
238.10	3012.56
238.32	2441.18
238.54	2414.56
238.76	2709.46
238.97	2637.78
239.19	2398.17
239.41	2584.54
239.63	2940.88
239.85	2684.89
240.06	2453.47
240.28	2469.85
240.50	2938.84
240.72	2715.61
240.93	2445.27
241.15	2590.68
241.37	2842.58
241.59	2949.08
241.81	2547.67
242.02	2572.25
242.24	2787.29
242.46	2758.61
242.68	2377.69
242.89	2404.32
243.11	2850.77
243.33	2756.57
243.55	2549.72
243.76	2570.20
243.98	2645.98
244.20	2678.74
244.42	2564.06
244.64	2492.38
244.85	2467.80
245.07	2594.78
245.29	2543.58
245.51	2480.09
245.72	2719.70
245.94	2861.01
246.16	2512.86
246.38	2516.95
246.59	2637.78
246.81	2602.97
247.03	2459.61
247.24	2332.64
247.46	2635.74
247.68	2809.81
247.90	2492.38
248.11	2549.72
248.33	2775.00
248.55	2695.13
248.77	2527.19
248.98	2643.93
249.20	3006.42
249.42	2711.51
249.64	2469.85
249.85	2496.47
250.07	2586.58
250.29	2869.20
250.50	2672.60
250.72	2424.80
250.94	2809.81
251.16	3110.86
251.37	2506.71
251.59	2580.44
251.81	2815.96
252.02	2936.79
252.24	2453.47
252.46	2666.46
252.68	2607.06
252.89	2660.31
253.11	2361.31
253.33	2607.06
253.54	3016.66
253.76	2600.92
253.98	2494.43
254.20	2473.95
254.41	2605.02
254.63	2645.98
254.85	2418.65
255.06	2633.69
255.28	2748.37
255.50	2680.79
255.71	2514.91
255.93	2426.84
256.15	2668.50
256.36	2711.51
256.58	2482.14
256.80	2539.48
257.02	2621.40
257.23	2652.12
257.45	2533.34
257.67	2633.69
257.88	2715.61
258.10	2795.48
258.32	2494.43
258.53	2619.35
258.75	2936.79
258.97	2674.65
259.18	2482.14
259.40	2445.27
259.62	3020.75
259.83	2916.31
260.05	2537.43
260.27	3231.69
260.48	2811.86
260.70	2564.06
260.92	2428.89
261.13	2510.81
261.35	2750.42
261.57	2828.24
261.78	2381.79
262.00	2482.14
262.22	2850.77
262.43	2582.49
262.65	2529.24
262.86	2545.63
263.08	3082.19
263.30	2758.61
263.51	2398.17
263.73	2449.37
263.95	2901.97
264.16	2576.34
264.38	2416.60
264.60	2473.95
264.81	2711.51
265.03	2861.01
265.25	2791.38
265.46	2445.27
265.68	2914.26
265.89	2818.00
266.11	2400.22
266.33	2451.42
266.54	2826.20
266.76	2813.91
266.98	2631.64
267.19	2596.82
267.41	2893.78
267.62	2727.89
267.84	2318.30
268.06	2570.20
268.27	2789.33
268.49	2826.20
268.70	2613.21
268.92	2586.58
269.14	2605.02
269.35	2527.19
269.57	2621.40
269.79	2580.44
270.00	2609.11
270.22	2922.45
270.43	2402.27
270.65	2320.35
270.87	2789.33
271.08	2826.20
271.30	2570.20
271.51	2592.73
271.73	2803.67
271.95	3006.42
272.16	2535.39
272.38	2609.11
272.59	2598.87
272.81	2820.05
273.02	2537.43
273.24	2566.10
273.46	2916.31
273.67	2512.86
273.89	2377.69
274.10	2562.01
274.32	2854.87
274.54	2678.74
274.75	2588.63
274.97	2543.58
275.18	2779.09
275.40	2856.92
275.61	2572.25
275.83	2637.78
276.05	2557.91
276.26	2762.71
276.48	2627.54
276.69	2611.16
276.91	2592.73
277.12	2949.08
277.34	2656.22
277.55	2691.03
277.77	2729.94
277.99	2672.60
278.20	2564.06
278.42	2478.04
278.63	2592.73
278.85	2559.96
279.06	2461.66
279.28	2676.70
279.49	2897.88
279.71	2887.64
279.93	2662.36
280.14	2635.74
280.36	2631.64
280.57	2895.83
280.79	2756.57
281.00	2525.15
281.22	2605.02
281.43	2879.44
281.65	2459.61
281.86	2629.59
282.08	2858.96
282.29	2942.93
282.51	2463.71
282.73	2473.95
282.94	2537.43
283.16	2713.56
283.37	2711.51
283.59	2572.25
283.80	2756.57
284.02	2709.46
284.23	2729.94
284.45	2592.73
284.66	2648.02
284.88	2633.69
285.09	2668.50
285.31	2680.79
285.52	2736.09
285.74	2523.10
285.95	2764.76
286.17	2656.22
286.38	2938.84
286.60	2627.54
286.81	2557.91
287.03	2572.25
287.24	2713.56
287.46	2820.05
287.67	2645.98
287.89	2828.24
288.10	2678.74
288.32	2676.70
288.53	2807.77
288.75	2650.07
288.96	2858.96
289.18	2590.68
289.39	2564.06
289.61	2613.21
289.82	3125.20
290.04	3061.71
290.25	2551.77
290.47	2639.83
290.68	2756.57
290.90	2916.31
291.11	2367.45
291.33	2746.33
291.54	2658.26
291.76	2664.41
291.97	2707.41
292.18	2652.12
292.40	2643.93
292.61	2643.93
292.83	2889.68
293.04	2652.12
293.26	2707.41
293.47	2682.84
293.69	2596.82
293.90	2547.67
294.12	2985.94
294.33	2742.23
294.55	2654.17
294.76	2789.33
294.97	2893.78
295.19	2990.03
295.40	2584.54
295.62	2588.63
295.83	2873.30
296.05	2627.54
296.26	2742.23
296.48	2576.34
296.69	2711.51
296.90	2709.46
297.12	2674.65
297.33	2727.89
297.55	2727.89
297.76	2850.77
297.98	2719.70
298.19	2691.03
298.41	2752.47
298.62	2584.54
298.83	2748.37
299.05	2666.46
299.26	2660.31
299.48	2619.35
299.69	2654.17
299.90	2668.50
300.12	2643.93
300.33	2832.34
300.55	2650.07
300.76	2635.74
300.98	2568.15
301.19	2822.10
301.40	2555.86
301.62	2629.59
301.83	2850.77
302.05	2662.36
302.26	2555.86
302.47	2772.95
302.69	2598.87
302.90	2742.23
303.12	2408.41
303.33	2748.37
303.54	3071.95
303.76	2654.17
303.97	2600.92
304.19	2830.29
304.40	2570.20
304.61	2756.57
304.83	2740.18
305.04	2637.78
305.26	2793.43
305.47	2641.88
305.68	2672.60
305.90	2510.81
306.11	2863.06
306.33	2662.36
306.54	2602.97
306.75	2467.80
306.97	2465.75
307.18	2652.12
307.39	2584.54
307.61	2699.22
307.82	2615.26
308.04	2801.62
308.25	2512.86
308.46	2783.19
308.68	2711.51
308.89	2770.90
309.10	2799.57
309.32	2635.74
309.53	2695.13
309.74	2783.19
309.96	2572.25
310.17	2703.32
310.39	2645.98
310.60	2752.47
310.81	2652.12
311.03	2525.15
311.24	2858.96
311.45	2731.99
311.67	2828.24
311.88	2643.93
312.09	2656.22
312.31	2588.63
312.52	2588.63
312.73	2568.15
312.95	2562.01
313.16	2582.49
313.37	2785.24
313.59	2686.94
313.80	2904.02
314.01	2975.70
314.23	2605.02
314.44	2521.05
314.65	2529.24
314.87	2617.30
315.08	2580.44
315.29	2557.91
315.51	2555.86
315.72	2506.71
315.93	2605.02
316.15	2639.83
316.36	2664.41
316.57	2648.02
316.79	2596.82
317.00	2539.48
317.21	2863.06
317.43	2607.06
317.64	2621.40
317.85	2527.19
318.07	2596.82
318.28	2619.35
318.49	2723.80
318.70	2871.25
318.92	2740.18
319.13	2797.53
319.34	2850.77
319.56	2635.74
319.77	2830.29
319.98	2822.10
320.20	2799.57
320.41	2754.52
320.62	2744.28
320.83	2543.58
321.05	2813.91
321.26	2652.12
321.47	2699.22
321.69	2908.12
321.90	2607.06
322.11	2613.21
322.32	2803.67
322.54	2963.41
322.75	2605.02
322.96	3217.36
323.18	2516.95
323.39	2473.95
323.60	2533.34
323.81	2686.94
324.03	2582.49
324.24	2664.41
324.45	2709.46
324.66	2648.02
324.88	2895.83
325.09	2990.03
325.30	2652.12
325.52	2635.74
325.73	2803.67
325.94	2496.47
326.15	2473.95
326.37	2506.71
326.58	2906.07
326.79	2922.45
327.00	2568.15
327.22	2555.86
327.43	2652.12
327.64	2586.58
327.85	2660.31
328.07	2639.83
328.28	2994.13
328.49	2705.37
328.70	2615.26
328.92	2551.77
329.13	2674.65
329.34	2789.33
329.55	2891.73
329.76	2738.13
329.98	2740.18
330.19	2910.16
330.40	2695.13
330.61	2717.65
330.83	2863.06
331.04	2643.93
331.25	2715.61
331.46	2625.50
331.68	2572.25
331.89	2818.00
332.10	2654.17
332.31	2551.77
332.52	2738.13
332.74	2867.16
332.95	2455.51
333.16	2629.59
333.37	2818.00
333.58	2654.17
333.80	2674.65
334.01	2420.70
334.22	2715.61
334.43	2660.31
334.64	2596.82
334.86	2525.15
335.07	2537.43
335.28	2932.69
335.49	2492.38
335.70	2682.84
335.92	2957.27
336.13	3049.43
336.34	2668.50
336.55	2627.54
336.76	2731.99
336.98	2447.32
337.19	2564.06
337.40	2711.51
337.61	3053.52
337.82	2654.17
338.04	2656.22
338.25	2416.60
338.46	2719.70
338.67	2705.37
338.88	2465.75
339.09	2498.52
339.31	2574.30
339.52	2502.62
339.73	2525.15
339.94	2607.06
340.15	2842.58
340.36	2613.21
340.58	2674.65
340.79	2482.14
341.00	2818.00
341.21	2461.66
341.42	2797.53
341.63	2545.63
341.85	2871.25
342.06	2676.70
342.27	2564.06
342.48	2768.85
342.69	2533.34
342.90	2701.27
343.12	2889.68
343.33	2605.02
343.54	2775.00
343.75	2951.12
343.96	2619.35
344.17	2475.99
344.38	2744.28
344.60	2592.73
344.81	2543.58
345.02	2576.34
345.23	2793.43
345.44	3063.76
345.65	2779.09
345.86	2705.37
346.07	2758.61
346.29	2580.44
346.50	2791.38
346.71	2645.98
346.92	2904.02
347.13	3080.14
347.34	2586.58
347.55	2553.82
347.76	2805.72
347.98	2441.18
348.19	2658.26
348.40	2842.58
348.61	2605.02
348.82	2912.21
349.03	2609.11
349.24	2543.58
349.45	3047.38
349.66	2412.51
349.88	2639.83
350.09	2531.29
350.30	2926.55
350.51	2936.79
350.72	2637.78
350.93	2629.59
351.14	2676.70
351.35	2715.61
351.56	2578.39
351.77	2676.70
351.99	2725.85
352.20	2908.12
352.41	2740.18
352.62	2404.32
352.83	2760.66
353.04	2707.41
353.25	2586.58
353.46	2680.79
353.67	2811.86
353.88	2478.04
354.09	2559.96
354.30	2686.94
354.52	2824.15
354.73	2723.80
354.94	2551.77
355.15	2697.17
355.36	3037.14
355.57	2617.30
355.78	2635.74
355.99	2576.34
356.20	2715.61
356.41	3004.37
356.62	2705.37
356.83	2588.63
357.04	2879.44
357.25	2465.75
357.46	2570.20
357.68	2475.99
357.89	2545.63
358.10	2686.94
358.31	2566.10
358.52	2617.30
358.73	2598.87
358.94	2531.29
359.15	2588.63
359.36	2662.36
359.57	2789.33
359.78	2639.83
359.99	2682.84
360.20	2512.86
360.41	2705.37
360.62	2805.72
360.83	2656.22
361.04	2643.93
361.25	2789.33
361.46	2981.84
361.67	2770.90
361.88	2691.03
362.09	2785.24
362.30	2818.00
362.51	2602.97
362.72	2641.88
362.93	2850.77
363.14	2748.37
363.35	2674.65
363.56	2621.40
363.78	2861.01
363.99	2852.82
364.20	2486.23
364.41	2705.37
364.62	2981.84
364.83	2744.28
365.04	2615.26
365.25	2645.98
365.46	3022.80
365.67	2586.58
365.88	2684.89
366.09	2537.43
366.30	2682.84
366.51	2711.51
366.72	2488.28
366.93	2590.68
367.14	2711.51
367.35	2918.36
367.56	2627.54
367.77	2742.23
367.98	2775.00
368.18	2844.63
368.39	2766.81
368.60	2525.15
368.81	2772.95
369.02	2719.70
369.23	2580.44
369.44	2551.77
369.65	2654.17
369.86	2734.04
370.07	2658.26
370.28	2576.34
370.49	2850.77
370.70	2744.28
370.91	2535.39
371.12	2506.71
371.33	2834.39
371.54	2635.74
371.75	2785.24
371.96	2381.79
372.17	2729.94
372.38	2764.76
372.59	2664.41
372.80	2602.97
373.01	2695.13
373.22	2717.65
373.43	2588.63
373.64	2457.56
373.85	2883.54
374.06	2942.93
374.26	2772.95
374.47	2711.51
374.68	2889.68
374.89	2709.46
375.10	2623.45
375.31	2670.55
375.52	2725.85
375.73	2770.90
375.94	2469.85
376.15	2703.32
376.36	2596.82
376.57	2623.45
376.78	2631.64
376.99	2768.85
377.20	2865.11
377.40	2637.78
377.61	2885.59
377.82	2537.43
378.03	2949.08
378.24	2766.81
378.45	2705.37
378.66	2746.33
378.87	2463.71
379.08	2555.86
379.29	2641.88
379.50	2772.95
379.71	2633.69
379.91	2861.01
380.12	2541.53
380.33	2670.55
380.54	2664.41
380.75	2723.80
380.96	2643.93
381.17	2705.37
381.38	2682.84
381.59	2615.26
381.80	2688.98
382.00	2871.25
382.21	2777.05
382.42	2969.55
382.63	2875.35
382.84	2703.32
383.05	2797.53
383.26	2965.46
383.47	2742.23
383.68	2576.34
383.88	2758.61
384.09	2670.55
384.30	2912.21
384.51	2715.61
384.72	2650.07
384.93	2529.24
385.14	2686.94
385.35	2756.57
385.55	2564.06
385.76	2801.62
385.97	2652.12
386.18	2469.85
386.39	2590.68
386.60	2633.69
386.81	2627.54
387.02	2596.82
387.22	2578.39
387.43	2818.00
387.64	2801.62
387.85	2877.40
388.06	2830.29
388.27	3999.68
388.48	7446.41
388.68	11147.09
388.89	13647.66
389.10	14599.97
389.31	13711.15
389.52	11030.36
389.73	9592.69
389.93	8738.68
390.14	7982.98
390.35	7251.86
390.56	6383.52
390.77	5304.24
390.98	4083.65
391.18	3510.22
391.39	3125.20
391.60	2801.62
391.81	2811.86
392.02	2602.97
392.23	3102.67
392.43	2797.53
392.64	2686.94
392.85	2662.36
393.06	2959.31
393.27	2723.80
393.47	2580.44
393.68	2746.33
393.89	2621.40
394.10	2891.73
394.31	2623.45
394.52	2619.35
394.72	2623.45
394.93	2957.27
395.14	2496.47
395.35	2752.47
395.56	2641.88
395.76	2705.37
395.97	2588.63
396.18	2693.08
396.39	2758.61
396.60	3254.22
396.80	2863.06
397.01	2875.35
397.22	2865.11
397.43	2879.44
397.64	2605.02
397.84	2717.65
398.05	3022.80
398.26	2717.65
398.47	2766.81
398.67	2824.15
398.88	2676.70
399.09	2815.96
399.30	2609.11
399.51	2740.18
399.71	2629.59
399.92	2637.78
400.13	2697.17
400.34	2584.54
400.54	2705.37
400.75	2961.36
400.96	2658.26
401.17	2858.96
401.37	2764.76
401.58	2615.26
401.79	2596.82
402.00	2787.29
402.21	3153.87
402.41	2893.78
402.62	2936.79
402.83	3059.67
403.04	3104.72
403.24	3352.52
403.45	2719.70
403.66	2852.82
403.87	2897.88
404.07	2914.26
404.28	2830.29
404.49	2963.41
404.70	2822.10
404.90	2789.33
405.11	2686.94
405.32	2697.17
405.52	2676.70
405.73	2539.48
405.94	2523.10
406.15	2731.99
406.35	2793.43
406.56	2869.20
406.77	2662.36
406.98	2699.22
407.18	2660.31
407.39	2930.64
407.60	2650.07
407.80	2648.02
408.01	2592.73
408.22	2746.33
408.43	2611.16
408.63	2746.33
408.84	2807.77
409.05	2848.72
409.25	2578.39
409.46	2631.64
409.67	2676.70
409.88	2654.17
410.08	2736.09
410.29	2633.69
410.50	2861.01
410.70	2799.57
410.91	2580.44
411.12	2762.71
411.32	2752.47
411.53	2629.59
411.74	2693.08
411.95	2754.52
412.15	2791.38
412.36	2740.18
412.57	2775.00
412.77	2738.13
412.98	2678.74
413.19	2713.56
413.39	2770.90
413.60	2711.51
413.81	2848.72
414.01	2588.63
414.22	2664.41
414.43	2777.05
414.63	2684.89
414.84	2867.16
415.05	2609.11
415.25	2492.38
415.46	2879.44
415.67	2645.98
415.87	2731.99
416.08	2641.88
416.29	2613.21
416.49	2854.87
416.70	2668.50
416.91	2617.30
417.11	2658.26
417.32	2840.53
417.53	2789.33
417.73	2723.80
417.94	2691.03
418.15	2822.10
418.35	2711.51
418.56	2668.50
418.77	3203.02
418.97	2662.36
419.18	2723.80
419.38	2432.99
419.59	2688.98
419.80	2926.55
420.00	2625.50
420.21	2670.55
420.42	2906.07
420.62	2869.20
420.83	2637.78
421.04	2684.89
421.24	2705.37
421.45	2772.95
421.65	2670.55
421.86	2600.92
422.07	2871.25
422.27	2758.61
422.48	2645.98
422.69	2492.38
422.89	2623.45
423.10	2758.61
423.30	2568.15
423.51	2717.65
423.72	2830.29
423.92	2832.34
424.13	2498.52
424.33	2719.70
424.54	2940.88
424.75	2801.62
424.95	2873.30
425.16	2662.36
425.36	2578.39
425.57	2850.77
425.78	2799.57
425.98	2787.29
426.19	2602.97
426.39	2576.34
426.60	2686.94
426.81	2736.09
427.01	2770.90
427.22	2555.86
427.42	2486.23
427.63	2549.72
427.83	2899.92
428.04	2944.98
428.25	2748.37
428.45	2775.00
428.66	2801.62
428.86	2654.17
429.07	2613.21
429.28	2707.41
429.48	2725.85
429.69	2658.26
429.89	2695.13
430.10	2547.67
430.30	2856.92
430.51	2920.40
430.71	2582.49
430.92	2568.15
431.13	2596.82
431.33	2797.53
431.54	2746.33
431.74	2861.01
431.95	3090.38
432.15	2592.73
432.36	2672.60
432.56	2664.41
432.77	2971.60
432.98	2965.46
433.18	2594.78
433.39	2594.78
433.59	2738.13
433.80	3059.67
434.00	2871.25
434.21	2623.45
434.41	2594.78
434.62	3110.86
434.82	2613.21
435.03	2527.19
435.23	2842.58
435.44	2441.18
435.64	2621.40
435.85	2717.65
436.06	2881.49
436.26	2963.41
436.47	2615.26
436.67	2545.63
436.88	2750.42
437.08	2889.68
437.29	2805.72
437.49	2766.81
437.70	2957.27
437.90	2719.70
438.11	2848.72
438.31	2705.37
438.52	2969.55
438.72	2899.92
438.93	2996.18
439.13	2736.09
439.34	2955.22
439.54	2654.17
439.75	2697.17
439.95	2779.09
440.16	2607.06
440.36	2772.95
440.57	2682.84
440.77	2643.93
440.98	2711.51
441.18	2793.43
441.39	2572.25
441.59	2504.67
441.80	2998.23
442.00	2727.89
442.21	2762.71
442.41	2482.14
442.62	2822.10
442.82	2576.34
443.02	2629.59
443.23	2635.74
443.43	2736.09
443.64	2908.12
443.84	2574.30
444.05	2742.23
444.25	2838.48
444.46	2650.07
444.66	2615.26
444.87	2863.06
445.07	2551.77
445.28	2762.71
445.48	2865.11
445.69	2750.42
445.89	3123.15
446.09	2688.98
446.30	2977.75
446.50	3002.32
446.71	4628.41
446.91	5742.50
447.12	6492.06
447.32	6875.03
447.53	6514.59
447.73	5509.04
447.93	4886.45
448.14	4431.80
448.34	4440.00
448.55	3880.90
448.75	3897.28
448.96	3620.81
449.16	3289.04
449.36	3340.24
449.57	2887.64
449.77	2705.37
449.98	2719.70
450.18	2746.33
450.39	2629.59
450.59	2777.05
450.79	2688.98
451.00	2695.13
451.20	2799.57
451.41	2684.89
451.61	2871.25
451.81	2686.94
452.02	2592.73
452.22	2740.18
452.43	2674.65
452.63	2672.60
452.84	2779.09
453.04	2619.35
453.24	2803.67
453.45	2564.06
453.65	2611.16
453.86	2707.41
454.06	2754.52
454.26	2766.81
454.47	2615.26
454.67	2832.34
454.87	2850.77
455.08	2637.78
455.28	2811.86
455.49	2766.81
455.69	2645.98
455.89	3002.32
456.10	2736.09
456.30	2531.29
456.51	2777.05
456.71	2754.52
456.91	2791.38
457.12	2668.50
457.32	2850.77
457.52	2631.64
457.73	2770.90
457.93	2811.86
458.14	2586.58
458.34	2445.27
458.54	2682.84
458.75	2625.50
458.95	2901.97
459.15	2734.04
459.36	2719.70
459.56	2695.13
459.76	3088.34
459.97	2740.18
460.17	2650.07
460.37	2756.57
460.58	2703.32
460.78	2852.82
460.99	2631.64
461.19	2678.74
461.39	2621.40
461.60	2729.94
461.80	2672.60
462.00	2598.87
462.21	2787.29
462.41	2633.69
462.61	2504.67
462.82	2469.85
463.02	2717.65
463.22	2734.04
463.43	2691.03
463.63	2605.02
463.83	2822.10
464.04	2863.06
464.24	2602.97
464.44	2543.58
464.64	2779.09
464.85	2818.00
465.05	2719.70
465.25	2660.31
465.46	2748.37
465.66	2852.82
465.86	2787.29
466.07	2596.82
466.27	2783.19
466.47	2519.00
466.68	2469.85
466.88	2789.33
467.08	2852.82
467.29	2867.16
467.49	2686.94
467.69	2693.08
467.89	2750.42
468.10	2674.65
468.30	2721.75
468.50	2809.81
468.71	2863.06
468.91	2580.44
469.11	2756.57
469.31	2709.46
469.52	2600.92
469.72	2938.84
469.92	2834.39
470.13	2602.97
470.33	2764.76
470.53	2660.31
470.73	2987.99
470.94	3346.38
471.14	3430.35
471.34	3856.33
471.54	3704.78
471.75	3293.13
471.95	3106.77
472.15	3080.14
472.36	3172.30
472.56	3012.56
472.76	3133.39
472.96	3020.75
473.17	2959.31
473.37	2846.68
473.57	2625.50
473.77	2867.16
473.98	2670.55
474.18	2527.19
474.38	3180.50
474.58	2680.79
474.79	2619.35
474.99	2756.57
475.19	2883.54
475.39	2619.35
475.60	2731.99
475.80	2699.22
476.00	2760.66
476.20	2648.02
476.41	2740.18
476.61	2777.05
476.81	3010.51
477.01	2564.06
477.21	2834.39
477.42	2805.72
477.62	2600.92
477.82	2854.87
478.02	2598.87
478.23	2727.89
478.43	2596.82
478.63	2605.02
478.83	2670.55
479.03	2617.30
479.24	2947.03
479.44	3020.75
479.64	2621.40
479.84	2412.51
480.04	2639.83
480.25	2854.87
480.45	2537.43
480.65	2572.25
480.85	2893.78
481.06	2738.13
481.26	2760.66
481.46	2680.79
481.66	2826.20
481.86	2592.73
482.06	2828.24
482.27	2699.22
482.47	2580.44
482.67	2760.66
482.87	2637.78
483.07	2746.33
483.28	2658.26
483.48	2592.73
483.68	2721.75
483.88	2484.19
484.08	2369.50
484.29	2596.82
484.49	2686.94
484.69	2447.32
484.89	2914.26
485.09	2850.77
485.29	2729.94
485.50	2742.23
485.70	2631.64
485.90	2883.54
486.10	2742.23
486.30	2619.35
486.50	2887.64
486.71	2699.22
486.91	2783.19
487.11	2781.14
487.31	2605.02
487.51	2744.28
487.71	2613.21
487.91	2619.35
488.12	2650.07
488.32	2432.99
488.52	2592.73
488.72	2451.42
488.92	2701.27
489.12	2912.21
489.32	2822.10
489.53	2693.08
489.73	2492.38
489.93	2979.79
490.13	2574.30
490.33	2447.32
490.53	2701.27
490.73	2895.83
490.94	2529.24
491.14	2672.60
491.34	2838.48
491.54	2904.02
491.74	3479.50
491.94	3948.48
492.14	4388.80
492.34	4444.09
492.54	4079.55
492.75	3477.45
492.95	3604.42
493.15	3373.00
493.35	3336.14
493.55	3278.80
493.75	3071.95
493.95	3207.12
494.15	2906.07
494.35	2775.00
494.56	2793.43
494.76	2617.30
494.96	2770.90
495.16	2676.70
495.36	2777.05
495.56	2797.53
495.76	2684.89
495.96	2578.39
496.16	2643.93
496.36	3057.62
496.56	2727.89
496.77	2754.52
496.97	2760.66
497.17	2861.01
497.37	2488.28
497.57	2752.47
497.77	2721.75
497.97	2621.40
498.17	2648.02
498.37	2523.10
498.57	2869.20
498.77	2666.46
498.97	2787.29
499.17	2936.79
499.38	2674.65
499.58	2842.58
499.78	2842.58
499.98	2822.10
500.18	2736.09
500.38	2736.09
500.58	2811.86
500.78	3211.22
500.98	5388.21
501.18	7241.62
501.38	8785.79
501.58	9523.05
501.78	9471.86
501.98	7675.79
502.18	6584.22
502.38	5662.63
502.58	5441.45
502.78	4822.97
502.98	4589.50
503.18	4407.23
503.38	4052.93
503.59	3530.70
503.79	3522.51
503.99	3266.51
504.19	3155.92
504.39	3106.77
504.59	3145.68
504.79	3133.39
504.99	3211.22
505.19	2981.84
505.39	2797.53
505.59	3030.99
505.79	2996.18
505.99	2887.64
506.19	2629.59
506.39	2883.54
506.59	2627.54
506.79	2731.99
506.99	2875.35
507.19	2666.46
507.39	2795.48
507.59	2519.00
507.79	2559.96
507.99	2578.39
508.19	2711.51
508.39	2672.60
508.59	2619.35
508.79	2861.01
508.99	3037.14
509.19	2703.32
509.39	2729.94
509.59	2592.73
509.79	2631.64
509.99	2703.32
510.19	2770.90
510.39	2875.35
510.59	2707.41
510.79	2625.50
510.99	2551.77
511.19	2648.02
511.39	3006.42
511.59	2863.06
511.79	2777.05
511.99	2674.65
512.19	3018.71
512.38	2789.33
512.58	2584.54
512.78	2656.22
512.98	2848.72
513.18	2961.36
513.38	2529.24
513.58	2670.55
513.78	2752.47
513.98	2703.32
514.18	2596.82
514.38	2598.87
514.58	2691.03
514.78	2654.17
514.98	2605.02
515.18	2727.89
515.38	2535.39
515.58	3043.28
515.78	2643.93
515.98	2719.70
516.18	2738.13
516.38	2695.13
516.57	2635.74
516.77	2623.45
516.97	2895.83
517.17	2617.30
517.37	2432.99
517.57	2750.42
517.77	2654.17
517.97	2586.58
518.17	2658.26
518.37	2549.72
518.57	2615.26
518.77	2711.51
518.97	2609.11
519.16	2697.17
519.36	2981.84
519.56	2723.80
519.76	2568.15
519.96	2678.74
520.16	2979.79
520.36	2539.48
520.56	2775.00
520.76	2600.92
520.96	2635.74
521.16	2836.44
521.35	2824.15
521.55	2760.66
521.75	2764.76
521.95	2623.45
522.15	2627.54
522.35	2555.86
522.55	2600.92
522.75	2869.20
522.95	2596.82
523.14	2512.86
523.34	2744.28
523.54	2629.59
523.74	2727.89
523.94	2703.32
524.14	2533.34
524.34	2746.33
524.54	2709.46
524.73	2594.78
524.93	2877.40
525.13	2717.65
525.33	2506.71
525.53	2899.92
525.73	2887.64
525.93	2731.99
526.13	2656.22
526.32	2615.26
526.52	2844.63
526.72	2828.24
526.92	2643.93
527.12	2613.21
527.32	2527.19
527.52	2799.57
527.71	2707.41
527.91	2686.94
528.11	2684.89
528.31	2686.94
528.51	2559.96
528.71	2750.42
528.90	2887.64
529.10	2850.77
529.30	2783.19
529.50	2402.27
529.70	2854.87
529.90	2691.03
530.09	2641.88
530.29	2504.67
530.49	2535.39
530.69	3180.50
530.89	2729.94
531.09	2666.46
531.28	2635.74
531.48	2930.64
531.68	2668.50
531.88	2682.84
532.08	2842.58
532.28	2762.71
532.47	2746.33
532.67	2826.20
532.87	2818.00
533.07	2600.92
533.27	2699.22
533.46	2721.75
533.66	2775.00
533.86	2656.22
534.06	2637.78
534.26	2699.22
534.45	2627.54
534.65	2934.74
534.85	2727.89
535.05	2562.01
535.25	2828.24
535.44	2498.52
535.64	2715.61
535.84	2572.25
536.04	2705.37
536.24	2672.60
536.43	2574.30
536.63	2631.64
536.83	2664.41
537.03	2641.88
537.22	2457.56
537.42	2488.28
537.62	2803.67
537.82	2588.63
538.02	2682.84
538.21	2785.24
538.41	3125.20
538.61	2785.24
538.81	2691.03
539.00	2779.09
539.20	2570.20
539.40	2760.66
539.60	2633.69
539.79	2811.86
539.99	2688.98
540.19	2633.69
540.39	2645.98
540.58	2658.26
540.78	2830.29
540.98	2764.76
541.18	2887.64
541.37	2717.65
541.57	2791.38
541.77	2777.05
541.97	2527.19
542.16	2582.49
542.36	2717.65
542.56	2682.84
542.76	2848.72
542.95	2731.99
543.15	2893.78
543.35	2856.92
543.54	2559.96
543.74	2580.44
543.94	2881.49
544.14	2602.97
544.33	2770.90
544.53	2650.07
544.73	2676.70
544.93	2686.94
545.12	2629.59
545.32	2717.65
545.52	2688.98
545.71	2570.20
545.91	2652.12
546.11	2580.44
546.30	2650.07
546.50	2652.12
546.70	2699.22
546.90	2619.35
547.09	2529.24
547.29	2797.53
547.49	2783.19
547.68	2637.78
547.88	2590.68
548.08	2842.58
548.27	3035.09
548.47	2607.06
548.67	2635.74
548.87	2824.15
549.06	2645.98
549.26	2658.26
549.46	2742.23
549.65	2666.46
549.85	2670.55
550.05	2666.46
550.24	2533.34
550.44	2621.40
550.64	2717.65
550.83	2641.88
551.03	2981.84
551.23	2803.67
551.42	2731.99
551.62	2609.11
551.82	2660.31
552.01	2717.65
552.21	2883.54
552.41	2748.37
552.60	2871.25
552.80	2721.75
553.00	2559.96
553.19	2691.03
553.39	2973.65
553.59	2502.62
553.78	2734.04
553.98	2662.36
554.17	2551.77
554.37	2795.48
554.57	2674.65
554.76	2521.05
554.96	2592.73
555.16	2750.42
555.35	2754.52
555.55	2742.23
555.75	2789.33
555.94	2822.10
556.14	2551.77
556.33	2670.55
556.53	2785.24
556.73	2717.65
556.92	2789.33
557.12	2674.65
557.32	3014.61
557.51	2918.36
557.71	2715.61
557.90	2785.24
558.10	2846.68
558.30	2707.41
558.49	2619.35
558.69	2559.96
558.88	2789.33
559.08	2678.74
559.28	2668.50
559.47	2691.03
559.67	2772.95
559.86	3000.27
560.06	2648.02
560.26	2621.40
560.45	2846.68
560.65	2764.76
560.84	2858.96
561.04	2662.36
561.24	2750.42
561.43	2590.68
561.63	2846.68
561.82	2793.43
562.02	2830.29
562.22	2643.93
562.41	2605.02
562.61	2686.94
562.80	2625.50
563.00	3067.86
563.19	2678.74
563.39	2648.02
563.59	2824.15
563.78	2600.92
563.98	2418.65
564.17	2545.63
564.37	2475.99
564.56	2666.46
564.76	2492.38
564.96	2822.10
565.15	2838.48
565.35	3078.10
565.54	2664.41
565.74	2684.89
565.93	2818.00
566.13	2684.89
566.32	2777.05
566.52	2752.47
566.71	2668.50
566.91	2797.53
567.11	2752.47
567.30	2664.41
567.50	2783.19
567.69	2717.65
567.89	2697.17
568.08	2582.49
568.28	2744.28
568.47	2588.63
568.67	2670.55
568.86	2641.88
569.06	2863.06
569.25	2688.98
569.45	2578.39
569.64	2572.25
569.84	2742.23
570.04	2889.68
570.23	2619.35
570.43	2648.02
570.62	2752.47
570.82	3004.37
571.01	2576.34
571.21	2568.15
571.40	2627.54
571.60	2869.20
571.79	2740.18
571.99	2654.17
572.18	2576.34
572.38	2873.30
572.57	2695.13
572.77	2695.13
572.96	3139.54
573.16	2813.91
573.35	2641.88
573.55	2781.14
573.74	2781.14
573.94	2703.32
574.13	2643.93
574.33	2777.05
574.52	2957.27
574.71	2719.70
574.91	2738.13
575.10	2555.86
575.30	2631.64
575.49	2607.06
575.69	2621.40
575.88	2670.55
576.08	2760.66
576.27	2901.97
576.47	2602.97
576.66	2971.60
576.86	2873.30
577.05	2809.81
577.25	2789.33
577.44	2906.07
577.64	2691.03
577.83	2865.11
578.02	2695.13
578.22	2748.37
578.41	2994.13
578.61	2613.21
578.80	2514.91
579.00	2762.71
579.19	2697.17
579.39	2830.29
579.58	2797.53
579.77	2652.12
579.97	2947.03
580.16	2848.72
580.36	2779.09
580.55	2809.81
580.75	2836.44
580.94	2736.09
581.13	2779.09
581.33	2887.64
581.52	2699.22
581.72	2996.18
581.91	2844.63
582.11	2602.97
582.30	2922.45
582.49	2742.23
582.69	2918.36
582.88	2725.85
583.08	2873.30
583.27	2881.49
583.47	2754.52
583.66	2660.31
583.85	2633.69
584.05	2666.46
584.24	2822.10
584.44	2686.94
584.63	2879.44
584.82	2949.08
585.02	2826.20
585.21	2836.44
585.41	2830.29
585.60	2901.97
585.79	2910.16
585.99	2936.79
586.18	2858.96
586.37	3602.38
586.57	5494.70
586.76	15974.16
586.96	35343.84
587.15	48981.27
587.34	57572.50
587.54	62065.74
587.73	55213.24
587.93	39415.21
588.12	29679.16
588.31	24202.89
588.51	21110.46
588.70	19533.53
588.89	17209.08
589.09	14753.57
589.28	12736.32
589.47	10000.23
589.67	7653.26
589.86	5851.05
590.06	4515.77
590.25	3762.12
590.44	3330.00
590.64	3133.39
590.83	2969.55
591.02	2985.94
591.22	2766.81
591.41	2824.15
591.60	2713.56
591.80	3205.07
591.99	2582.49
592.18	2650.07
592.38	2914.26
592.57	2744.28
592.76	2781.14
592.96	2723.80
593.15	2691.03
593.34	2949.08
593.54	2676.70
593.73	2768.85
593.92	2854.87
594.12	2836.44
594.31	2715.61
594.50	2787.29
594.70	2801.62
594.89	3080.14
595.08	2555.86
595.28	2785.24
595.47	3194.83
595.66	2942.93
595.86	2570.20
596.05	2652.12
596.24	2723.80
596.43	2992.08
596.63	2678.74
596.82	2795.48
597.01	2818.00
597.21	2914.26
597.40	2637.78
597.59	2725.85
597.79	2717.65
597.98	2906.07
598.17	2787.29
598.36	2664.41
598.56	2801.62
598.75	2662.36
598.94	2729.94
599.14	2559.96
599.33	2635.74
599.52	2854.87
599.71	2766.81
599.91	2750.42
600.10	2873.30
600.29	2688.98
600.48	2799.57
600.68	2723.80
600.87	2744.28
601.06	2705.37
601.26	2717.65
601.45	2754.52
601.64	2613.21
601.83	3033.04
602.03	2596.82
602.22	2543.58
602.41	2828.24
602.60	3121.10
602.80	2697.17
602.99	2748.37
603.18	2625.50
603.37	2662.36
603.57	2625.50
603.76	2725.85
603.95	2875.35
604.14	2600.92
604.34	2613.21
604.53	2580.44
604.72	2818.00
604.91	2932.69
605.10	2684.89
605.30	2559.96
605.49	2990.03
605.68	2846.68
605.87	2658.26
606.07	2623.45
606.26	2742.23
606.45	2777.05
606.64	2678.74
606.84	2547.67
607.03	2652.12
607.22	2961.36
607.41	2654.17
607.60	2643.93
607.80	2875.35
607.99	2699.22
608.18	2738.13
608.37	2725.85
608.56	2535.39
608.76	2883.54
608.95	2906.07
609.14	2688.98
609.33	2838.48
609.52	2971.60
609.72	2686.94
609.91	2803.67
610.10	2828.24
610.29	2883.54
610.48	2764.76
610.68	2727.89
610.87	2762.71
611.06	2854.87
611.25	2654.17
611.44	2756.57
611.63	2662.36
611.83	2885.59
612.02	2574.30
612.21	2811.86
612.40	2562.01
612.59	2564.06
612.79	2564.06
612.98	2715.61
613.17	2940.88
613.36	2766.81
613.55	2865.11
613.74	2731.99
613.93	2848.72
614.13	2850.77
614.32	2813.91
614.51	2775.00
614.70	2705.37
614.89	2701.27
615.08	2787.29
615.28	3094.48
615.47	2580.44
615.66	2875.35
615.85	2729.94
616.04	2824.15
616.23	2772.95
616.42	2764.76
616.62	2641.88
616.81	2744.28
617.00	2826.20
617.19	2777.05
617.38	2654.17
617.57	2707.41
617.76	2772.95
617.95	2777.05
618.15	2725.85
618.34	2850.77
618.53	2473.95
618.72	2846.68
618.91	2791.38
619.10	2818.00
619.29	2672.60
619.48	2740.18
619.68	2547.67
619.87	2637.78
620.06	2523.10
620.25	2805.72
620.44	2562.01
620.63	2701.27
620.82	2766.81
621.01	2863.06
621.20	2619.35
621.39	2734.04
621.59	2711.51
621.78	2779.09
621.97	2629.59
622.16	2781.14
622.35	2807.77
622.54	2744.28
622.73	2756.57
622.92	2490.33
623.11	2863.06
623.30	2643.93
623.49	2744.28
623.68	2549.72
623.88	2973.65
624.07	2691.03
624.26	2549.72
624.45	2701.27
624.64	2631.64
624.83	2707.41
625.02	2598.87
625.21	2613.21
625.40	2760.66
625.59	2871.25
625.78	2723.80
625.97	2854.87
626.16	2904.02
626.35	2875.35
626.54	2629.59
626.74	2824.15
626.93	2695.13
627.12	2727.89
627.31	2746.33
627.50	2686.94
627.69	2908.12
627.88	2551.77
628.07	2658.26
628.26	2508.76
628.45	2664.41
628.64	2686.94
628.83	2643.93
629.02	2471.90
629.21	2768.85
629.40	2793.43
629.59	2523.10
629.78	2678.74
629.97	2756.57
630.16	2619.35
630.35	2611.16
630.54	2803.67
630.73	2633.69
630.92	2682.84
631.11	2527.19
631.30	2623.45
631.49	2883.54
631.68	2742.23
631.87	2598.87
632.06	2545.63
632.25	3061.71
632.44	2731.99
632.63	2633.69
632.82	2650.07
633.01	2682.84
633.20	2789.33
633.39	2723.80
633.58	2527.19
633.77	2803.67
633.96	2848.72
634.15	2781.14
634.34	2764.76
634.53	2719.70
634.72	2613.21
634.91	2475.99
635.10	2717.65
635.29	2772.95
635.48	2676.70
635.67	2631.64
635.86	2478.04
636.05	2996.18
636.24	2793.43
636.43	2686.94
636.62	2703.32
636.81	2406.36
637.00	2680.79
637.19	2666.46
637.38	2670.55
637.57	2744.28
637.76	2713.56
637.95	2826.20
638.14	2635.74
638.33	2713.56
638.52	2725.85
638.71	2490.33
638.89	2459.61
639.08	3086.29
639.27	2897.88
639.46	2785.24
639.65	3176.40
639.84	3274.70
640.03	3321.81
640.22	3108.82
640.41	3190.74
640.60	2803.67
640.79	2983.89
640.98	2750.42
641.17	2893.78
641.36	2932.69
641.55	2803.67
641.74	2613.21
641.92	2576.34
642.11	2666.46
642.30	2727.89
642.49	2582.49
642.68	2590.68
642.87	2791.38
643.06	2820.05
643.25	2602.97
643.44	2574.30
643.63	2750.42
643.82	2818.00
644.00	2508.76
644.19	2693.08
644.38	2555.86
644.57	2953.17
644.76	2729.94
644.95	2654.17
645.14	2768.85
645.33	2693.08
645.52	2686.94
645.71	2521.05
645.89	2559.96
646.08	2688.98
646.27	2617.30
646.46	2844.63
646.65	2570.20
646.84	2752.47
647.03	2564.06
647.22	2914.26
647.40	2791.38
647.59	2645.98
647.78	2473.95
647.97	2514.91
648.16	2582.49
648.35	2867.16
648.54	2916.31
648.73	2668.50
648.91	2858.96
649.10	2811.86
649.29	2623.45
649.48	2609.11
649.67	2719.70
649.86	2803.67
650.05	2662.36
650.23	2867.16
650.42	2682.84
650.61	3010.51
650.80	2883.54
650.99	2934.74
651.18	2944.98
651.36	2854.87
651.55	2672.60
651.74	2738.13
651.93	2764.76
652.12	2662.36
652.31	2613.21
652.49	2641.88
652.68	2605.02
652.87	2957.27
653.06	2734.04
653.25	2924.50
653.44	2740.18
653.62	2940.88
653.81	2752.47
654.00	2734.04
654.19	2928.60
654.38	3211.22
654.56	2707.41
654.75	2600.92
654.94	2793.43
655.13	2777.05
655.32	2699.22
655.51	2772.95
655.69	2592.73
655.88	2809.81
656.07	2467.80
656.26	2701.27
656.45	2521.05
656.63	2693.08
656.82	2713.56
657.01	2854.87
657.20	2668.50
657.38	2926.55
657.57	2570.20
657.76	2506.71
657.95	2818.00
658.14	2707.41
658.32	2623.45
658.51	2486.23
658.70	2777.05
658.89	2787.29
659.08	2719.70
659.26	2824.15
659.45	2629.59
659.64	2850.77
659.83	2607.06
660.01	2985.94
660.20	2740.18
660.39	2938.84
660.58	2443.23
660.76	2727.89
660.95	2576.34
661.14	2688.98
661.33	2596.82
661.51	2629.59
661.70	2637.78
661.89	2707.41
662.08	2652.12
662.26	2488.28
662.45	2613.21
662.64	3014.61
662.83	2777.05
663.01	2512.86
663.20	2635.74
663.39	2893.78
663.58	2633.69
663.76	2557.91
663.95	2795.48
664.14	2594.78
664.32	2621.40
664.51	2602.97
664.70	2473.95
664.89	2764.76
665.07	2480.09
665.26	2828.24
665.45	2557.91
665.64	2793.43
665.82	2652.12
666.01	2678.74
666.20	2475.99
666.38	2691.03
666.57	2781.14
666.76	4300.73
666.95	10065.77
667.13	17151.74
667.32	21249.72
667.51	24176.27
667.69	25183.87
667.88	21841.59
668.07	15453.97
668.25	12992.31
668.44	11200.34
668.63	9549.68
668.81	8585.08
669.00	7174.03
669.19	6643.61
669.38	5883.81
669.56	4966.32
669.75	4267.97
669.94	3833.80
670.12	3264.46
670.31	2998.23
670.50	2891.73
670.68	2934.74
670.87	2760.66
671.06	2707.41
671.24	2711.51
671.43	2867.16
671.62	2705.37
671.80	2670.55
671.99	2723.80
672.18	2811.86
672.36	2777.05
672.55	2740.18
672.74	2711.51
672.92	2621.40
673.11	2813.91
673.29	2504.67
673.48	2883.54
673.67	2701.27
673.85	2867.16
674.04	2543.58
674.23	2613.21
674.41	3006.42
674.60	2559.96
674.79	2465.75
674.97	2572.25
675.16	2752.47
675.34	2836.44
675.53	2572.25
675.72	2760.66
675.90	3035.09
676.09	2541.53
676.28	2678.74
676.46	2555.86
676.65	2801.62
676.83	2590.68
677.02	2672.60
677.21	2766.81
677.39	2758.61
677.58	2611.16
677.77	2594.78
677.95	2559.96
678.14	2695.13
678.32	2703.32
678.51	2633.69
678.70	2930.64
678.88	2684.89
679.07	2760.66
679.25	2693.08
679.44	2693.08
679.63	2578.39
679.81	2748.37
680.00	2881.49
680.18	2746.33
680.37	2895.83
680.55	2805.72
680.74	2498.52
680.93	2451.42
681.11	2748.37
681.30	2731.99
681.48	2754.52
681.67	2627.54
681.85	2709.46
682.04	2562.01
682.23	2793.43
682.41	2705.37
682.60	2729.94
682.78	2719.70
682.97	2523.10
683.15	2697.17
683.34	2801.62
683.53	2920.40
683.71	2572.25
683.90	2842.58
684.08	2928.60
684.27	2670.55
684.45	2717.65
684.64	2826.20
684.82	2701.27
685.01	2850.77
685.19	2637.78
685.38	2899.92
685.57	2711.51
685.75	2555.86
685.94	2605.02
686.12	2578.39
686.31	2662.36
686.49	2955.22
686.68	2504.67
686.86	2695.13
687.05	2613.21
687.23	2936.79
687.42	2613.21
687.60	2512.86
687.79	2852.82
687.97	2891.73
688.16	2858.96
688.34	2867.16
688.53	2478.04
688.71	2787.29
688.90	2899.92
689.08	2707.41
689.27	2471.90
689.45	2871.25
689.64	2717.65
689.82	2691.03
690.01	2762.71
690.19	2787.29
690.38	2693.08
690.56	2809.81
690.75	2572.25
690.93	2641.88
691.12	2637.78
691.30	2742.23
691.49	2637.78
691.67	2699.22
691.86	2928.60
692.04	2674.65
692.23	2670.55
692.41	2723.80
692.60	2942.93
692.78	2807.77
692.97	2777.05
693.15	2801.62
693.34	2881.49
693.52	2838.48
693.71	2701.27
693.89	2734.04
694.08	2445.27
694.26	2772.95
694.44	2822.10
694.63	2861.01
694.81	2539.48
695.00	2666.46
695.18	2775.00
695.37	3082.19
695.55	2744.28
695.74	2629.59
695.92	2648.02
696.10	2928.60
696.29	2584.54
696.47	2635.74
696.66	2531.29
696.84	2562.01
697.03	2707.41
697.21	2940.88
697.40	4040.64
697.58	2899.92
697.76	2662.36
697.95	2596.82
698.13	2662.36
698.32	2691.03
698.50	2658.26
698.68	2697.17
698.87	2686.94
699.05	2867.16
699.24	2613.21
699.42	2531.29
699.61	2693.08
699.79	2725.85
699.97	2699.22
700.16	2484.19
700.34	2539.48
700.53	2701.27
700.71	2875.35
700.89	2775.00
701.08	2688.98
701.26	2713.56
701.45	3160.02
701.63	2521.05
701.81	2650.07
702.00	2635.74
702.18	2633.69
702.37	2635.74
702.55	2985.94
702.73	2834.39
702.92	2693.08
703.10	2944.98
703.28	2848.72
703.47	2545.63
703.65	2897.88
703.84	2766.81
704.02	2723.80
704.20	2858.96
704.39	2631.64
704.57	2600.92
704.75	2852.82
704.94	2820.05
705.12	2643.93
705.30	3100.62
705.49	5836.71
705.67	12011.34
705.86	17985.26
706.04	20639.43
706.22	22800.04
706.41	22568.62
706.59	17856.24
706.77	13582.13
706.96	11720.53
707.14	10250.08
707.32	9203.57
707.51	7954.31
707.69	6584.22
707.87	5396.40
708.06	4571.07
708.24	3893.19
708.42	3452.88
708.61	3483.59
708.79	2797.53
708.97	2768.85
709.16	2871.25
709.34	2772.95
709.52	2676.70
709.71	2672.60
709.89	2834.39
710.07	2596.82
710.26	2555.86
710.44	2664.41
710.62	2858.96
710.80	2719.70
710.99	2729.94
711.17	2754.52
711.35	2629.59
711.54	2660.31
711.72	2809.81
711.90	2840.53
712.09	2736.09
712.27	2703.32
712.45	2670.55
712.63	2562.01
712.82	2826.20
713.00	2691.03
713.18	2791.38
713.37	2805.72
713.55	2818.00
713.73	2824.15
713.91	2719.70
714.10	2676.70
714.28	2734.04
714.46	2742.23
714.65	2766.81
714.83	2729.94
715.01	2715.61
715.19	2760.66
715.38	2510.81
715.56	2707.41
715.74	2627.54
715.92	2559.96
716.11	2922.45
716.29	2461.66
716.47	2682.84
716.65	2670.55
716.84	2580.44
717.02	2760.66
717.20	2504.67
717.38	2666.46
717.57	2738.13
717.75	2670.55
717.93	2645.98
718.11	2815.96
718.30	2494.43
718.48	2725.85
718.66	2838.48
718.84	2813.91
719.03	2607.06
719.21	2523.10
719.39	2965.46
719.57	2783.19
719.75	2785.24
719.94	2578.39
720.12	2652.12
720.30	2785.24
720.48	2797.53
720.67	2514.91
720.85	2576.34
721.03	2596.82
721.21	2670.55
721.39	2785.24
721.58	2766.81
721.76	2686.94
721.94	2744.28
722.12	2834.39
722.30	2875.35
722.49	2715.61
722.67	2725.85
722.85	2662.36
723.03	2543.58
723.21	2596.82
723.40	2639.83
723.58	2801.62
723.76	2815.96
723.94	2926.55
724.12	2684.89
724.30	2854.87
724.49	2889.68
724.67	2602.97
724.85	2805.72
725.03	2566.10
725.21	2787.29
725.40	2830.29
725.58	2629.59
725.76	2830.29
725.94	2756.57
726.12	2588.63
726.30	2629.59
726.49	2611.16
726.67	2641.88
726.85	2779.09
727.03	3047.38
727.21	4155.33
727.39	5152.69
727.57	5691.31
727.76	6152.10
727.94	6188.96
728.12	5625.77
728.30	4632.51
728.48	4224.96
728.66	3925.96
728.84	3827.65
729.03	3366.86
729.21	3190.74
729.39	3002.32
729.57	2775.00
729.75	2758.61
729.93	2752.47
730.11	2539.48
730.30	2658.26
730.48	2625.50
730.66	2783.19
730.84	2736.09
731.02	2805.72
731.20	2666.46
731.38	2553.82
731.56	2555.86
731.74	2447.32
731.93	2695.13
732.11	2766.81
732.29	2615.26
732.47	2826.20
732.65	2756.57
732.83	2787.29
733.01	2793.43
733.19	2617.30
733.37	2760.66
733.56	2723.80
733.74	2562.01
733.92	2918.36
734.10	2688.98
734.28	2824.15
734.46	2447.32
734.64	2617.30
734.82	2658.26
735.00	2629.59
735.18	2605.02
735.36	2709.46
735.54	2775.00
735.73	2684.89
735.91	2717.65
736.09	2887.64
736.27	2725.85
736.45	2746.33
736.63	2467.80
736.81	2713.56
736.99	2871.25
737.17	2904.02
737.35	2645.98
737.53	2678.74
737.71	2695.13
737.89	2883.54
738.07	2635.74
738.25	2648.02
738.43	2537.43
738.61	2662.36
738.80	2496.47
738.98	2607.06
739.16	2588.63
739.34	2650.07
739.52	2809.81
739.70	2719.70
739.88	2736.09
740.06	2770.90
740.24	2412.51
740.42	2875.35
740.60	2506.71
740.78	2615.26
740.96	2529.24
741.14	2674.65
741.32	2766.81
741.50	2514.91
741.68	3014.61
741.86	2861.01
742.04	2600.92
742.22	2611.16
742.40	2625.50
742.58	2791.38
742.76	2498.52
742.94	2779.09
743.12	2457.56
743.30	2650.07
743.48	2826.20
743.66	2566.10
743.84	2777.05
744.02	2660.31
744.20	2719.70
744.38	2627.54
744.56	2559.96
744.74	2967.51
744.92	2848.72
745.10	2867.16
745.28	2699.22
745.46	2863.06
745.64	2709.46
745.82	2811.86
746.00	2584.54
746.18	2764.76
746.36	2559.96
746.54	2662.36
746.72	2719.70
746.90	2641.88
747.08	2875.35
747.26	2629.59
747.44	2805.72
747.62	2848.72
747.80	2756.57
747.98	2789.33
748.15	2572.25
748.33	2944.98
748.51	2818.00
748.69	2760.66
748.87	2461.66
749.05	2617.30
749.23	2709.46
749.41	2684.89
749.59	2602.97
749.77	2758.61
749.95	2727.89
750.13	2564.06
750.31	2652.12
750.49	2623.45
750.67	2877.40
750.85	2867.16
751.03	2711.51
751.20	3037.14
751.38	2742.23
751.56	2670.55
751.74	2711.51
751.92	2789.33
752.10	2539.48
752.28	2832.34
752.46	2635.74
752.64	2662.36
752.82	2674.65
753.00	2766.81
753.18	2586.58
753.35	2645.98
753.53	2727.89
753.71	2562.01
753.89	2756.57
754.07	2693.08
754.25	2834.39
754.43	2725.85
754.61	2545.63
754.79	2826.20
754.97	2711.51
755.14	2871.25
755.32	2564.06
755.50	2641.88
755.68	2811.86
755.86	2570.20
756.04	2562.01
756.22	2408.41
756.40	2777.05
756.57	2951.12
756.75	2633.69
756.93	2908.12
757.11	2772.95
757.29	2439.13
757.47	2586.58
757.65	2498.52
757.82	2430.94
758.00	2574.30
758.18	2641.88
758.36	2625.50
758.54	2861.01
758.72	2523.10
758.90	2791.38
759.07	2883.54
759.25	2574.30
759.43	2717.65
759.61	2588.63
759.79	3803.08
759.97	2848.72
760.15	2605.02
760.32	2691.03
760.50	2805.72
760.68	2985.94
760.86	2545.63
761.04	2846.68
761.22	2846.68
761.39	2668.50
761.57	2764.76
761.75	2697.17
761.93	2815.96
762.11	2744.28
762.28	2715.61
762.46	2580.44
762.64	2832.34
762.82	2533.34
763.00	2658.26
763.18	2854.87
763.35	2584.54
763.53	2813.91
763.71	2686.94
763.89	2674.65
764.07	2777.05
764.24	2744.28
764.42	2813.91
764.60	2613.21
764.78	2748.37
764.96	2856.92
765.13	2779.09
765.31	2602.97
765.49	2854.87
765.67	2541.53
765.84	2578.39
766.02	2519.00
766.20	2537.43
766.38	2703.32
766.56	2781.14
766.73	2713.56
766.91	2709.46
767.09	2803.67
767.27	2695.13
767.44	2559.96
767.62	2826.20
767.80	2758.61
767.98	2549.72
768.15	2717.65
768.33	2807.77
768.51	2904.02
768.69	2803.67
768.87	2688.98
769.04	2678.74
769.22	3121.10
769.40	2834.39
769.58	2916.31
769.75	2799.57
769.93	2916.31
770.11	2707.41
770.28	2529.24
770.46	2793.43
770.64	2775.00
770.82	2588.63
770.99	2623.45
771.17	2906.07
771.35	2699.22
771.53	2705.37
771.70	2508.76
771.88	2740.18
772.06	2723.80
772.23	2582.49
772.41	2758.61
772.59	2674.65
772.77	2562.01
772.94	2703.32
773.12	2742.23
773.30	2656.22
773.47	2684.89
773.65	2539.48
773.83	2844.63
774.01	2686.94
774.18	2400.22
774.36	2652.12
774.54	2535.39
774.71	2754.52
774.89	2504.67
775.07	2619.35
775.24	2607.06
775.42	2701.27
775.60	3043.28
775.78	2607.06
775.95	2500.57
776.13	2547.67
776.31	2465.75
776.48	2697.17
776.66	2760.66
776.84	2682.84
777.01	2611.16
777.19	2586.58
777.37	2562.01
777.54	2801.62
777.72	2916.31
777.90	2654.17
778.07	2627.54
778.25	3180.50
778.43	2801.62
778.60	2543.58
778.78	2717.65
778.96	2879.44
779.13	2553.82
779.31	2748.37
779.49	2654.17
779.66	2770.90
779.84	2648.02
780.01	2701.27
780.19	2529.24
780.37	2893.78
780.54	2707.41
780.72	2549.72
780.90	2678.74
781.07	2654.17
781.25	2625.50
781.43	2861.01
781.60	2691.03
781.78	2861.01
781.95	2744.28
782.13	2547.67
782.31	2574.30
782.48	2459.61
782.66	2711.51
782.83	2852.82
783.01	2723.80
783.19	2850.77
783.36	2686.94
783.54	2574.30
783.72	2797.53
783.89	2684.89
784.07	2721.75
784.24	2744.28
784.42	2764.76
784.60	2705.37
784.77	2809.81
784.95	2414.56
785.12	2621.40
785.30	2680.79
785.47	2609.11
785.65	2564.06
785.83	2703.32
786.00	2678.74
786.18	2721.75
786.35	2535.39
786.53	2488.28
786.71	2918.36
786.88	2785.24
787.06	2662.36
787.23	2709.46
787.41	2600.92
787.58	2699.22
787.76	2482.14
787.94	2703.32
788.11	2727.89
788.29	2543.58
788.46	2551.77
788.64	2527.19
788.81	2678.74
788.99	2590.68
789.16	2580.44
789.34	2658.26
789.52	2637.78
789.69	2684.89
789.87	2469.85
790.04	2551.77
790.22	2711.51
790.39	3002.32
790.57	2547.67
790.74	2555.86
790.92	2811.86
791.09	2471.90
791.27	2715.61
791.44	2793.43
791.62	2615.26
791.79	2977.75
791.97	2693.08
792.15	3057.62
792.32	2899.92
792.50	2809.81
792.67	2797.53
792.85	2844.63
793.02	2768.85
793.20	2688.98
793.37	2478.04
793.55	2621.40
793.72	2539.48
793.90	2885.59
794.07	2590.68
794.25	2564.06
794.42	2748.37
794.60	2637.78
794.77	2766.81
794.95	2781.14
795.12	2893.78
795.30	2715.61
795.47	2441.18
795.65	2998.23
795.82	2779.09
796.00	2717.65
796.17	2645.98
796.34	2557.91
796.52	2719.70
796.69	2867.16
796.87	2828.24
797.04	2693.08
797.22	2850.77
797.39	2742.23
797.57	2809.81
797.74	2715.61
797.92	2830.29
798.09	2623.45
798.27	2901.97
798.44	2619.35
798.62	2680.79
798.79	2736.09
798.96	2740.18
799.14	2617.30
799.31	3067.86
799.49	2684.89
799.66	2598.87
799.84	2736.09
800.01	2523.10
800.19	2754.52
800.36	2408.41
800.53	2635.74
800.71	2818.00
800.88	2947.03
801.06	2570.20
801.23	2596.82
801.41	2637.78
801.58	2639.83
801.75	2609.11
801.93	2691.03
802.10	2863.06
802.28	2650.07
802.45	2594.78
802.63	2844.63
802.80	2971.60
802.97	2648.02
803.15	2744.28
803.32	2629.59
803.50	2551.77
803.67	2729.94
803.84	2547.67
804.02	2727.89
804.19	2709.46
804.37	2412.51
804.54	2541.53
804.71	2541.53
804.89	2719.70
805.06	2551.77
805.24	2547.67
805.41	2500.57
805.58	2602.97
805.76	3039.19
805.93	2678.74
806.10	2781.14
806.28	2775.00
806.45	2693.08
806.63	2744.28
806.80	2752.47
806.97	2723.80
807.15	2693.08
807.32	2701.27
807.49	2621.40
807.67	2498.52
807.84	2781.14
808.01	2430.94
808.19	2799.57
808.36	3104.72
808.54	2635.74
808.71	2564.06
808.88	2725.85
809.06	2906.07
809.23	3016.66
809.40	2652.12
809.58	2672.60
809.75	2650.07
809.92	2535.39
810.10	2938.84
810.27	2605.02
810.44	2828.24
810.62	2805.72
810.79	2711.51
810.96	2658.26
811.14	2623.45
811.31	2783.19
811.48	2734.04
811.66	2725.85
811.83	2863.06
812.00	2752.47
812.18	2600.92
812.35	2961.36
812.52	2686.94
812.69	2662.36
812.87	2594.78
813.04	2584.54
813.21	2686.94
813.39	2670.55
813.56	2537.43
813.73	2842.58
813.91	2426.84
814.08	2721.75
814.25	2709.46
814.42	2494.43
814.60	2627.54
814.77	2693.08
814.94	2666.46
815.12	2746.33
815.29	2990.03
815.46	2576.34
815.63	2617.30
815.81	2738.13
815.98	2592.73
816.15	2783.19
816.33	2650.07
816.50	2602.97
816.67	2682.84
816.84	2648.02
817.02	2598.87
817.19	2707.41
817.36	2719.70
817.53	2725.85
817.71	2523.10
817.88	2693.08
818.05	2731.99
818.22	2727.89
818.40	2893.78
818.57	2578.39
818.74	2738.13
818.91	2719.70
819.09	2750.42
819.26	2797.53
819.43	2658.26
819.60	2570.20
819.78	2760.66
819.95	2760.66
820.12	2553.82
820.29	2856.92
820.47	2928.60
820.64	2613.21
820.81	2592.73
820.98	2555.86
821.15	2566.10
821.33	2762.71
821.50	2523.10
821.67	2729.94
821.84	2621.40
822.02	2635.74
822.19	2787.29
822.36	2629.59
822.53	2615.26
822.70	2492.38
822.88	2734.04
823.05	2910.16
823.22	2643.93
823.39	2783.19
823.56	2658.26
823.74	3020.75
823.91	2480.09
824.08	2488.28
824.25	2488.28
824.42	2940.88
824.60	2498.52
824.77	2680.79
824.94	2701.27
825.11	2842.58
825.28	2410.46
825.45	2682.84
825.63	2731.99
825.80	2598.87
825.97	2674.65
826.14	2645.98
826.31	2496.47
826.48	2775.00
826.66	2631.64
826.83	2529.24
827.00	2645.98
827.17	2562.01
827.34	2654.17
827.51	2551.77
827.69	2709.46
827.86	2533.34
828.03	2678.74
828.20	2711.51
828.37	2715.61
828.54	2713.56
828.71	2576.34
828.89	2797.53
829.06	2746.33
829.23	2969.55
829.40	2594.78
829.57	2621.40
829.74	2781.14
829.91	2562.01
830.09	2574.30
830.26	2772.95
830.43	2871.25
830.60	2703.32
830.77	2781.14
830.94	2897.88
831.11	2842.58
831.28	2648.02
831.46	2775.00
831.63	2617.30
831.80	2891.73
831.97	2648.02
832.14	2662.36
832.31	2723.80
832.48	2637.78
832.65	2807.77
832.82	2680.79
832.99	2602.97
833.17	2486.23
833.34	2916.31
833.51	2596.82
833.68	2502.62
833.85	2889.68
834.02	2545.63
834.19	2525.15
834.36	2629.59
834.53	2705.37
834.70	2848.72
834.87	2645.98
835.04	2578.39
835.22	2582.49
835.39	2584.54
835.56	2549.72
835.73	2564.06
835.90	2906.07
836.07	2572.25
836.24	2668.50
836.41	2521.05
836.58	2510.81
836.75	2832.34
836.92	2555.86
837.09	2488.28
837.26	2795.48
837.43	2654.17
837.60	2641.88
837.77	2592.73
837.94	2846.68
838.12	2897.88
838.29	2506.71
838.46	2486.23
838.63	2486.23
838.80	2957.27
838.97	2570.20
839.14	2576.34
839.31	2777.05
839.48	2815.96
839.65	2475.99
839.82	2688.98
839.99	2711.51
840.16	2695.13
840.33	2494.43
840.50	2623.45
840.67	2559.96
840.84	2410.46
841.01	2500.57
841.18	2531.29
841.35	2656.22
841.52	2830.29
841.69	2852.82
841.86	2648.02
842.03	2666.46
842.20	2846.68
842.37	2594.78
842.54	2578.39
842.71	2731.99
842.88	2494.43
843.05	2553.82
843.22	2551.77
843.39	2818.00
843.56	2654.17
843.73	2527.19
843.90	2551.77
844.07	2738.13
844.24	2783.19
844.41	2594.78
844.58	2553.82
844.75	2752.47
844.92	2842.58
845.09	2572.25
845.26	2516.95
845.43	2789.33
845.60	2643.93
845.77	2654.17
845.94	2609.11
846.10	2785.24
846.27	2478.04
846.44	2406.36
846.61	2498.52
846.78	2760.66
846.95	2885.59
847.12	2527.19
847.29	2582.49
847.46	2613.21
847.63	2746.33
847.80	2486.23
847.97	2623.45
848.14	3061.71
848.31	2660.31
848.48	2447.32
848.65	2582.49
848.82	2600.92
848.98	3026.90
849.15	2615.26
849.32	2645.98
849.49	2881.49
849.66	2676.70
849.83	2531.29
850.00	2525.15
850.17	2818.00
850.34	2693.08
850.51	2521.05
850.68	2576.34
850.85	3014.61
851.01	2746.33
851.18	2582.49
851.35	2588.63
851.52	2762.71
851.69	2928.60
851.86	2478.04
852.03	2490.33
852.20	2883.54
852.37	2660.31
852.53	2457.56
852.70	2537.43
852.87	2789.33
853.04	2830.29
853.21	2547.67
853.38	2768.85
853.55	2981.84
853.72	2944.98
853.89	2516.95
854.05	2521.05
854.22	2697.17
854.39	2719.70
854.56	2635.74
854.73	2715.61
854.90	2551.77
855.07	2641.88
855.23	2480.09
855.40	2566.10
855.57	2684.89
855.74	2404.32
855.91	2715.61
856.08	2432.99
856.25	2594.78
856.41	2537.43
856.58	2529.24
856.75	2629.59
856.92	2523.10
857.09	2856.92
857.26	2426.84
857.42	2584.54
857.59	2805.72
857.76	2598.87
857.93	2607.06
858.10	2641.88
858.27	2553.82
858.43	2678.74
858.60	2545.63
858.77	2508.76
858.94	2547.67
859.11	2832.34
859.27	2586.58
859.44	2514.91
859.61	2899.92
859.78	2738.13
859.95	2562.01
860.12	2443.23
860.28	3086.29
860.45	3006.42
860.62	2506.71
860.79	2586.58
860.95	2658.26
861.12	2584.54
861.29	2465.75
861.46	2498.52
861.63	2695.13
861.79	2731.99
861.96	2430.94
862.13	2549.72
862.30	2897.88
862.47	2572.25
862.63	2484.19
862.80	2623.45
862.97	2869.20
863.14	2820.05
863.30	2596.82
863.47	2494.43
863.64	2983.89
863.81	2740.18
863.97	2547.67
864.14	2559.96
864.31	2586.58
864.48	2752.47
864.65	2500.57
864.81	2705.37
864.98	2766.81
865.15	2861.01
865.32	2658.26
865.48	2656.22
865.65	2973.65
865.82	2637.78
865.98	2680.79
866.15	2676.70
866.32	2721.75
866.49	2631.64
866.65	2684.89
866.82	2514.91
866.99	2691.03
867.16	2709.46
867.32	2576.34
867.49	2471.90
867.66	2678.74
867.83	2615.26
867.99	2531.29
868.16	2635.74
868.33	2504.67
868.49	2723.80
868.66	2531.29
868.83	2686.94
868.99	2736.09
869.16	2729.94
869.33	2736.09
869.50	2684.89
869.66	2674.65
869.83	2660.31
870.00	2533.34
870.16	2643.93
870.33	2682.84
870.50	2897.88
870.66	2564.06
870.83	2650.07
871.00	2693.08
871.17	2758.61
871.33	2691.03
871.50	2562.01
871.67	2674.65
871.83	2451.42
872.00	2656.22
872.17	2508.76
872.33	2940.88
872.50	2904.02
872.67	2578.39
872.83	2547.67
873.00	2807.77
873.17	2760.66
873.33	2586.58
873.50	2617.30
873.67	2570.20
873.83	2668.50
874.00	2625.50
874.16	2723.80
874.33	2736.09
874.50	2541.53
874.66	2572.25
874.83	2650.07
875.00	2844.63
875.16	2899.92
875.33	2645.98
875.50	2371.55
875.66	2639.83
875.83	2680.79
875.99	2631.64
876.16	2592.73
876.33	2623.45
876.49	2678.74
876.66	2576.34
876.83	2658.26
876.99	2531.29
877.16	2695.13
877.32	2496.47
877.49	2523.10
877.66	2770.90
877.82	2897.88
877.99	2609.11
878.15	2834.39
878.32	2738.13
878.49	2729.94
878.65	2553.82
878.82	2775.00
878.98	2656.22
879.15	2795.48
879.32	2711.51
879.48	2678.74
879.65	2678.74
879.81	2605.02
879.98	2580.44
880.15	2596.82
880.31	2760.66
880.48	2555.86
880.64	2635.74
880.81	2635.74
880.97	2990.03
881.14	2899.92
881.31	2445.27
881.47	2789.33
881.64	2588.63
881.80	2484.19
881.97	2678.74
882.13	2541.53
882.30	2512.86
882.47	2629.59
882.63	2428.89
882.80	2559.96
882.96	2631.64
883.13	2908.12
883.29	2602.97
883.46	2545.63
883.62	3039.19
883.79	2758.61
883.95	2652.12
884.12	2494.43
884.29	2832.34
884.45	2734.04
884.62	2602.97
884.78	2494.43
884.95	2908.12
885.11	2596.82
885.28	2609.11
885.44	2582.49
885.61	2768.85
885.77	2832.34
885.94	2678.74
886.10	2629.59
886.27	2693.08
886.43	2985.94
886.60	2723.80
886.76	2492.38
886.93	2566.10
887.09	2705.37
887.26	2482.14
887.42	2619.35
887.59	2928.60
887.75	3074.00
887.92	2688.98
888.08	2713.56
888.25	3014.61
888.41	2828.24
888.58	2697.17
888.74	2506.71
888.91	2686.94
>>>>>End Processed Spectral Data<<<<<
