SpectraSuite Data File
++++++++++++++++++++++++++++++++++++
Date: Thu May 05 16:20:42 CEST 2016
User: root
Dark Spectrum Present: No
Reference Spectrum Present: No
Number of Sampled Component Spectra: 1
Spectrometers: USB4C02835
Integration Time (usec): 100000 (USB4C02835)
Spectra Averaged: 1 (USB4C02835)
Boxcar Smoothing: 0 (USB4C02835)
Correct for Electrical Dark: No (USB4C02835)
Strobe/Lamp Enabled: No (USB4C02835)
Correct for Detector Non-linearity: No (USB4C02835)
Correct for Stray Light: No (USB4C02835)
Number of Pixels in Processed Spectrum: 3648
>>>>>Begin Processed Spectral Data<<<<<
177.47	2068.45
177.69	2068.45
177.91	2068.45
178.13	2007.01
178.36	2013.15
178.58	2574.30
178.80	2746.33
179.02	2461.66
179.24	2674.65
179.46	2498.52
179.68	2473.95
179.90	2672.60
180.13	2680.79
180.35	2377.69
180.57	2562.01
180.79	2848.72
181.01	2719.70
181.23	2537.43
181.45	2557.91
181.67	2906.07
181.90	2879.44
182.12	2521.05
182.34	2428.89
182.56	2836.44
182.78	2758.61
183.00	2514.91
183.22	2514.91
183.44	2418.65
183.66	3094.48
183.89	2658.26
184.11	2508.76
184.33	2777.05
184.55	2895.83
184.77	2537.43
184.99	2521.05
185.21	2654.17
185.43	3106.77
185.65	2514.91
185.87	2459.61
186.10	3041.23
186.32	3055.57
186.54	2705.37
186.76	2586.58
186.98	2871.25
187.20	2684.89
187.42	2555.86
187.64	2486.23
187.86	2811.86
188.08	2826.20
188.30	2457.56
188.52	2643.93
188.75	2897.88
188.97	2897.88
189.19	2465.75
189.41	2521.05
189.63	2852.82
189.85	2617.30
190.07	2484.19
190.29	2371.55
190.51	2791.38
190.73	2531.29
190.95	2693.08
191.17	2521.05
191.39	2529.24
191.61	2635.74
191.84	2580.44
192.06	2570.20
192.28	2547.67
192.50	3051.47
192.72	2600.92
192.94	2598.87
193.16	2967.51
193.38	2781.14
193.60	2453.47
193.82	2615.26
194.04	2832.34
194.26	2746.33
194.48	2461.66
194.70	2453.47
194.92	2668.50
195.14	2795.48
195.36	2519.00
195.58	2572.25
195.80	2701.27
196.02	2654.17
196.24	2463.71
196.46	2633.69
196.69	2609.11
196.91	3055.57
197.13	2394.08
197.35	2494.43
197.57	2963.41
197.79	2811.86
198.01	2539.48
198.23	2541.53
198.45	2838.48
198.67	2568.15
198.89	2422.75
199.11	2619.35
199.33	2582.49
199.55	2463.71
199.77	2469.85
199.99	2629.59
200.21	2666.46
200.43	2742.23
200.65	2441.18
200.87	2412.51
201.09	2680.79
201.31	2643.93
201.53	2553.82
201.75	2555.86
201.97	2811.86
202.19	2707.41
202.41	2621.40
202.63	2668.50
202.85	2838.48
203.07	2721.75
203.29	2506.71
203.51	2412.51
203.73	2658.26
203.95	3141.58
204.17	2572.25
204.39	2650.07
204.61	2666.46
204.83	2635.74
205.05	2660.31
205.27	2533.34
205.49	3026.90
205.71	2738.13
205.93	2414.56
206.15	2516.95
206.37	2707.41
206.59	2697.17
206.81	2437.08
207.03	2435.03
207.25	2598.87
207.47	2828.24
207.69	2578.39
207.91	2658.26
208.13	2912.21
208.34	2664.41
208.56	2467.80
208.78	2482.14
209.00	2605.02
209.22	2617.30
209.44	2504.67
209.66	2523.10
209.88	2719.70
210.10	2682.84
210.32	2465.75
210.54	2629.59
210.76	2664.41
210.98	2873.30
211.20	2406.36
211.42	2637.78
211.64	2916.31
211.86	2744.28
212.08	2623.45
212.30	2502.62
212.52	2695.13
212.74	2781.14
212.96	2613.21
213.17	2523.10
213.39	2752.47
213.61	2981.84
213.83	2576.34
214.05	2400.22
214.27	2867.16
214.49	2568.15
214.71	2439.13
214.93	2662.36
215.15	2768.85
215.37	2895.83
215.59	2428.89
215.81	2602.97
216.03	2887.64
216.24	2697.17
216.46	2512.86
216.68	2541.53
216.90	2858.96
217.12	2889.68
217.34	2443.23
217.56	2668.50
217.78	2981.84
218.00	2770.90
218.22	2600.92
218.44	2641.88
218.66	2772.95
218.87	3004.37
219.09	2539.48
219.31	2512.86
219.53	2731.99
219.75	2625.50
219.97	2590.68
220.19	2506.71
220.41	2684.89
220.63	2932.69
220.85	2529.24
221.06	2537.43
221.28	2883.54
221.50	2836.44
221.72	2547.67
221.94	2394.08
222.16	2797.53
222.38	2791.38
222.60	2506.71
222.82	2549.72
223.03	2865.11
223.25	2508.76
223.47	2514.91
223.69	2670.55
223.91	2875.35
224.13	2715.61
224.35	2365.40
224.57	2715.61
224.78	2887.64
225.00	2576.34
225.22	2512.86
225.44	2461.66
225.66	2897.88
225.88	2623.45
226.10	2562.01
226.32	2584.54
226.53	2883.54
226.75	2666.46
226.97	2512.86
227.19	2574.30
227.41	2713.56
227.63	2633.69
227.85	2396.12
228.06	2492.38
228.28	2639.83
228.50	2772.95
228.72	2437.08
228.94	2478.04
229.16	2502.62
229.37	2541.53
229.59	2430.94
229.81	2674.65
230.03	2772.95
230.25	2514.91
230.47	2416.60
230.69	2459.61
230.90	2858.96
231.12	2658.26
231.34	2549.72
231.56	2643.93
231.78	2586.58
232.00	2781.14
232.21	2570.20
232.43	2478.04
232.65	2480.09
232.87	2775.00
233.09	2488.28
233.30	2392.03
233.52	2852.82
233.74	2596.82
233.96	2478.04
234.18	2641.88
234.40	2656.22
234.61	3026.90
234.83	2482.14
235.05	2514.91
235.27	3133.39
235.49	2920.40
235.70	2486.23
235.92	2551.77
236.14	2865.11
236.36	3112.91
236.58	2414.56
236.79	2637.78
237.01	2721.75
237.23	2801.62
237.45	2723.80
237.67	2572.25
237.88	2797.53
238.10	3063.76
238.32	2492.38
238.54	2523.10
238.76	2793.43
238.97	2602.97
239.19	2412.51
239.41	2586.58
239.63	2881.49
239.85	2625.50
240.06	2562.01
240.28	2492.38
240.50	2875.35
240.72	2627.54
240.93	2471.90
241.15	2547.67
241.37	2793.43
241.59	2918.36
241.81	2500.57
242.02	2586.58
242.24	2842.58
242.46	2850.77
242.68	2383.84
242.89	2486.23
243.11	2811.86
243.33	2654.17
243.55	2592.73
243.76	2572.25
243.98	2602.97
244.20	2748.37
244.42	2519.00
244.64	2529.24
244.85	2553.82
245.07	2566.10
245.29	2498.52
245.51	2557.91
245.72	2750.42
245.94	2856.92
246.16	2457.56
246.38	2564.06
246.59	2564.06
246.81	2631.64
247.03	2402.27
247.24	2432.99
247.46	2631.64
247.68	2752.47
247.90	2498.52
248.11	2537.43
248.33	2895.83
248.55	2684.89
248.77	2570.20
248.98	2559.96
249.20	2971.60
249.42	2742.23
249.64	2584.54
249.85	2486.23
250.07	2656.22
250.29	2764.76
250.50	2570.20
250.72	2471.90
250.94	2752.47
251.16	3065.81
251.37	2564.06
251.59	2605.02
251.81	2760.66
252.02	2865.11
252.24	2437.08
252.46	2715.61
252.68	2670.55
252.89	2674.65
253.11	2349.02
253.33	2719.70
253.54	2928.60
253.76	2584.54
253.98	2488.28
254.20	2432.99
254.41	2566.10
254.63	2684.89
254.85	2439.13
255.06	2602.97
255.28	2799.57
255.50	2697.17
255.71	2510.81
255.93	2404.32
256.15	2680.79
256.36	2834.39
256.58	2410.46
256.80	2435.03
257.02	2621.40
257.23	2707.41
257.45	2578.39
257.67	2662.36
257.88	2602.97
258.10	2699.22
258.32	2527.19
258.53	2551.77
258.75	2975.70
258.97	2650.07
259.18	2451.42
259.40	2480.09
259.62	2965.46
259.83	2930.64
260.05	2553.82
260.27	3209.17
260.48	2873.30
260.70	2588.63
260.92	2465.75
261.13	2545.63
261.35	2785.24
261.57	2772.95
261.78	2439.13
262.00	2516.95
262.22	2824.15
262.43	2637.78
262.65	2545.63
262.86	2559.96
263.08	2985.94
263.30	2662.36
263.51	2342.88
263.73	2475.99
263.95	2969.55
264.16	2564.06
264.38	2455.51
264.60	2555.86
264.81	2682.84
265.03	2863.06
265.25	2848.72
265.46	2383.84
265.68	2875.35
265.89	2777.05
266.11	2379.74
266.33	2506.71
266.54	2852.82
266.76	2807.77
266.98	2574.30
267.19	2699.22
267.41	2861.01
267.62	2744.28
267.84	2349.02
268.06	2635.74
268.27	2697.17
268.49	2926.55
268.70	2637.78
268.92	2545.63
269.14	2572.25
269.35	2527.19
269.57	2625.50
269.79	2619.35
270.00	2586.58
270.22	2891.73
270.43	2408.41
270.65	2336.73
270.87	2801.62
271.08	2828.24
271.30	2586.58
271.51	2500.57
271.73	2756.57
271.95	2957.27
272.16	2555.86
272.38	2639.83
272.59	2584.54
272.81	2877.40
273.02	2498.52
273.24	2572.25
273.46	2832.34
273.67	2572.25
273.89	2473.95
274.10	2480.09
274.32	2914.26
274.54	2713.56
274.75	2586.58
274.97	2658.26
275.18	2834.39
275.40	2867.16
275.61	2516.95
275.83	2676.70
276.05	2564.06
276.26	2734.04
276.48	2699.22
276.69	2678.74
276.91	2656.22
277.12	2949.08
277.34	2666.46
277.55	2760.66
277.77	2742.23
277.99	2723.80
278.20	2568.15
278.42	2482.14
278.63	2670.55
278.85	2613.21
279.06	2504.67
279.28	2672.60
279.49	2840.53
279.71	2756.57
279.93	2650.07
280.14	2639.83
280.36	2602.97
280.57	2791.38
280.79	2711.51
281.00	2551.77
281.22	2564.06
281.43	2807.77
281.65	2398.17
281.86	2529.24
282.08	2783.19
282.29	3014.61
282.51	2406.36
282.73	2484.19
282.94	2457.56
283.16	2908.12
283.37	2723.80
283.59	2654.17
283.80	2760.66
284.02	2711.51
284.23	2619.35
284.45	2643.93
284.66	2609.11
284.88	2602.97
285.09	2660.31
285.31	2650.07
285.52	2703.32
285.74	2475.99
285.95	2785.24
286.17	2637.78
286.38	2844.63
286.60	2637.78
286.81	2584.54
287.03	2609.11
287.24	2719.70
287.46	2824.15
287.67	2672.60
287.89	2828.24
288.10	2645.98
288.32	2783.19
288.53	2715.61
288.75	2635.74
288.96	2854.87
289.18	2625.50
289.39	2441.18
289.61	2641.88
289.82	3022.80
290.04	2959.31
290.25	2496.47
290.47	2666.46
290.68	2619.35
290.90	2805.72
291.11	2404.32
291.33	2688.98
291.54	2619.35
291.76	2633.69
291.97	2701.27
292.18	2652.12
292.40	2672.60
292.61	2641.88
292.83	2891.73
293.04	2668.50
293.26	2752.47
293.47	2652.12
293.69	2598.87
293.90	2602.97
294.12	2897.88
294.33	2680.79
294.55	2666.46
294.76	2815.96
294.97	2930.64
295.19	3061.71
295.40	2570.20
295.62	2629.59
295.83	2842.58
296.05	2611.16
296.26	2824.15
296.48	2590.68
296.69	2660.31
296.90	2678.74
297.12	2703.32
297.33	2662.36
297.55	2832.34
297.76	2834.39
297.98	2701.27
298.19	2754.52
298.41	2695.13
298.62	2625.50
298.83	2787.29
299.05	2633.69
299.26	2662.36
299.48	2627.54
299.69	2691.03
299.90	2553.82
300.12	2553.82
300.33	2805.72
300.55	2645.98
300.76	2699.22
300.98	2594.78
301.19	2744.28
301.40	2586.58
301.62	2521.05
301.83	2754.52
302.05	2789.33
302.26	2643.93
302.47	2602.97
302.69	2512.86
302.90	2764.76
303.12	2443.23
303.33	2691.03
303.54	2965.46
303.76	2639.83
303.97	2619.35
304.19	2791.38
304.40	2549.72
304.61	2770.90
304.83	2820.05
305.04	2746.33
305.26	2801.62
305.47	2672.60
305.68	2605.02
305.90	2502.62
306.11	2914.26
306.33	2664.41
306.54	2494.43
306.75	2572.25
306.97	2469.85
307.18	2557.91
307.39	2607.06
307.61	2602.97
307.82	2703.32
308.04	2740.18
308.25	2482.14
308.46	2686.94
308.68	2781.14
308.89	2740.18
309.10	2772.95
309.32	2631.64
309.53	2736.09
309.74	2826.20
309.96	2521.05
310.17	2746.33
310.39	2613.21
310.60	2842.58
310.81	2629.59
311.03	2537.43
311.24	2820.05
311.45	2727.89
311.67	2783.19
311.88	2717.65
312.09	2684.89
312.31	2680.79
312.52	2492.38
312.73	2553.82
312.95	2510.81
313.16	2572.25
313.37	2789.33
313.59	2738.13
313.80	2840.53
314.01	2840.53
314.23	2547.67
314.44	2605.02
314.65	2582.49
314.87	2639.83
315.08	2588.63
315.29	2615.26
315.51	2633.69
315.72	2529.24
315.93	2725.85
316.15	2674.65
316.36	2609.11
316.57	2779.09
316.79	2717.65
317.00	2574.30
317.21	2777.05
317.43	2631.64
317.64	2641.88
317.85	2492.38
318.07	2631.64
318.28	2715.61
318.49	2760.66
318.70	2842.58
318.92	2830.29
319.13	2826.20
319.34	2838.48
319.56	2674.65
319.77	2742.23
319.98	2824.15
320.20	2756.57
320.41	2707.41
320.62	2791.38
320.83	2523.10
321.05	2838.48
321.26	2684.89
321.47	2645.98
321.69	2836.44
321.90	2553.82
322.11	2641.88
322.32	2815.96
322.54	3020.75
322.75	2525.15
322.96	3307.47
323.18	2469.85
323.39	2463.71
323.60	2488.28
323.81	2654.17
324.03	2643.93
324.24	2705.37
324.45	2721.75
324.66	2580.44
324.88	2916.31
325.09	2930.64
325.30	2645.98
325.52	2631.64
325.73	2797.53
325.94	2582.49
326.15	2480.09
326.37	2508.76
326.58	2965.46
326.79	3010.51
327.00	2590.68
327.22	2602.97
327.43	2678.74
327.64	2658.26
327.85	2699.22
328.07	2576.34
328.28	3061.71
328.49	2672.60
328.70	2643.93
328.92	2605.02
329.13	2650.07
329.34	2777.05
329.55	2842.58
329.76	2709.46
329.98	2703.32
330.19	2875.35
330.40	2627.54
330.61	2652.12
330.83	2834.39
331.04	2629.59
331.25	2691.03
331.46	2709.46
331.68	2602.97
331.89	2824.15
332.10	2625.50
332.31	2494.43
332.52	2756.57
332.74	2877.40
332.95	2490.33
333.16	2566.10
333.37	2852.82
333.58	2699.22
333.80	2586.58
334.01	2430.94
334.22	2615.26
334.43	2562.01
334.64	2637.78
334.86	2480.09
335.07	2625.50
335.28	3043.28
335.49	2455.51
335.70	2633.69
335.92	2889.68
336.13	3047.38
336.34	2635.74
336.55	2672.60
336.76	2766.81
336.98	2430.94
337.19	2611.16
337.40	2795.48
337.61	3106.77
337.82	2641.88
338.04	2686.94
338.25	2482.14
338.46	2643.93
338.67	2598.87
338.88	2537.43
339.09	2529.24
339.31	2615.26
339.52	2557.91
339.73	2523.10
339.94	2617.30
340.15	2801.62
340.36	2672.60
340.58	2625.50
340.79	2492.38
341.00	2834.39
341.21	2504.67
341.42	2844.63
341.63	2566.10
341.85	2891.73
342.06	2760.66
342.27	2508.76
342.48	2731.99
342.69	2555.86
342.90	2756.57
343.12	2772.95
343.33	2580.44
343.54	2803.67
343.75	2930.64
343.96	2629.59
344.17	2562.01
344.38	2719.70
344.60	2504.67
344.81	2549.72
345.02	2619.35
345.23	2822.10
345.44	3139.54
345.65	2691.03
345.86	2641.88
346.07	2717.65
346.29	2568.15
346.50	2691.03
346.71	2670.55
346.92	2867.16
347.13	3071.95
347.34	2637.78
347.55	2514.91
347.76	2863.06
347.98	2537.43
348.19	2580.44
348.40	2787.29
348.61	2594.78
348.82	2985.94
349.03	2723.80
349.24	2592.73
349.45	2934.74
349.66	2449.37
349.88	2650.07
350.09	2531.29
350.30	2901.97
350.51	2836.44
350.72	2703.32
350.93	2592.73
351.14	2678.74
351.35	2809.81
351.56	2699.22
351.77	2602.97
351.99	2848.72
352.20	2889.68
352.41	2752.47
352.62	2465.75
352.83	2752.47
353.04	2775.00
353.25	2525.15
353.46	2686.94
353.67	2850.77
353.88	2414.56
354.09	2592.73
354.30	2625.50
354.52	2744.28
354.73	2748.37
354.94	2611.16
355.15	2668.50
355.36	2983.89
355.57	2674.65
355.78	2557.91
355.99	2594.78
356.20	2723.80
356.41	2815.96
356.62	2658.26
356.83	2602.97
357.04	2850.77
357.25	2424.80
357.46	2684.89
357.68	2420.70
357.89	2629.59
358.10	2662.36
358.31	2531.29
358.52	2654.17
358.73	2598.87
358.94	2510.81
359.15	2498.52
359.36	2639.83
359.57	2707.41
359.78	2670.55
359.99	2738.13
360.20	2467.80
360.41	2766.81
360.62	2830.29
360.83	2668.50
361.04	2664.41
361.25	2879.44
361.46	2957.27
361.67	2740.18
361.88	2621.40
362.09	2881.49
362.30	2711.51
362.51	2607.06
362.72	2654.17
362.93	2791.38
363.14	2768.85
363.35	2686.94
363.56	2564.06
363.78	2891.73
363.99	2785.24
364.20	2607.06
364.41	2672.60
364.62	2969.55
364.83	2746.33
365.04	2625.50
365.25	2725.85
365.46	3106.77
365.67	2596.82
365.88	2658.26
366.09	2607.06
366.30	2639.83
366.51	2715.61
366.72	2490.33
366.93	2611.16
367.14	2793.43
367.35	2891.73
367.56	2590.68
367.77	2674.65
367.98	2744.28
368.18	2775.00
368.39	2703.32
368.60	2553.82
368.81	2818.00
369.02	2787.29
369.23	2693.08
369.44	2451.42
369.65	2666.46
369.86	2748.37
370.07	2740.18
370.28	2555.86
370.49	2777.05
370.70	2789.33
370.91	2602.97
371.12	2447.32
371.33	2899.92
371.54	2613.21
371.75	2760.66
371.96	2396.12
372.17	2826.20
372.38	2643.93
372.59	2639.83
372.80	2543.58
373.01	2676.70
373.22	2756.57
373.43	2617.30
373.64	2523.10
373.85	2959.31
374.06	2975.70
374.26	2768.85
374.47	2760.66
374.68	2971.60
374.89	2746.33
375.10	2555.86
375.31	2633.69
375.52	2727.89
375.73	2815.96
375.94	2529.24
376.15	2764.76
376.36	2645.98
376.57	2635.74
376.78	2609.11
376.99	2678.74
377.20	2858.96
377.40	2633.69
377.61	2908.12
377.82	2543.58
378.03	2842.58
378.24	2764.76
378.45	2580.44
378.66	2623.45
378.87	2478.04
379.08	2473.95
379.29	2629.59
379.50	2699.22
379.71	2715.61
379.91	2850.77
380.12	2629.59
380.33	2705.37
380.54	2701.27
380.75	2666.46
380.96	2592.73
381.17	2562.01
381.38	2715.61
381.59	2729.94
381.80	2686.94
382.00	2815.96
382.21	2772.95
382.42	2992.08
382.63	2914.26
382.84	2740.18
383.05	2856.92
383.26	2924.50
383.47	2590.68
383.68	2625.50
383.88	2809.81
384.09	2711.51
384.30	2818.00
384.51	2719.70
384.72	2664.41
384.93	2555.86
385.14	2693.08
385.35	2779.09
385.55	2553.82
385.76	2932.69
385.97	2611.16
386.18	2437.08
386.39	2637.78
386.60	2602.97
386.81	2637.78
387.02	2559.96
387.22	2516.95
387.43	2830.29
387.64	2731.99
387.85	2883.54
388.06	2725.85
388.27	3997.64
388.48	7479.18
388.68	10979.16
388.89	13422.39
389.10	14790.43
389.31	13977.39
389.52	10936.15
389.73	9410.42
389.93	8599.42
390.14	7853.96
390.35	7092.12
390.56	6406.05
390.77	5349.29
390.98	4083.65
391.18	3510.22
391.39	3207.12
391.60	2836.44
391.81	2852.82
392.02	2676.70
392.23	3078.10
392.43	2748.37
392.64	2731.99
392.85	2721.75
393.06	2979.79
393.27	2707.41
393.47	2537.43
393.68	2596.82
393.89	2703.32
394.10	2850.77
394.31	2619.35
394.52	2629.59
394.72	2598.87
394.93	2951.12
395.14	2605.02
395.35	2748.37
395.56	2621.40
395.76	2725.85
395.97	2652.12
396.18	2785.24
396.39	2754.52
396.60	3178.45
396.80	3030.99
397.01	2789.33
397.22	2957.27
397.43	2940.88
397.64	2576.34
397.84	2750.42
398.05	3065.81
398.26	2678.74
398.47	2760.66
398.67	2850.77
398.88	2738.13
399.09	2871.25
399.30	2570.20
399.51	2746.33
399.71	2652.12
399.92	2764.76
400.13	2785.24
400.34	2658.26
400.54	2701.27
400.75	3061.71
400.96	2598.87
401.17	2787.29
401.37	2863.06
401.58	2652.12
401.79	2652.12
402.00	2815.96
402.21	3096.53
402.41	2912.21
402.62	2936.79
402.83	3030.99
403.04	3067.86
403.24	3338.19
403.45	2750.42
403.66	2899.92
403.87	2922.45
404.07	2858.96
404.28	2914.26
404.49	2838.48
404.70	2766.81
404.90	2906.07
405.11	2686.94
405.32	2770.90
405.52	2645.98
405.73	2553.82
405.94	2564.06
406.15	2727.89
406.35	2873.30
406.56	2752.47
406.77	2672.60
406.98	2684.89
407.18	2645.98
407.39	2922.45
407.60	2590.68
407.80	2744.28
408.01	2670.55
408.22	2717.65
408.43	2584.54
408.63	2664.41
408.84	2867.16
409.05	2805.72
409.25	2521.05
409.46	2580.44
409.67	2676.70
409.88	2574.30
410.08	2666.46
410.29	2549.72
410.50	2863.06
410.70	2815.96
410.91	2555.86
411.12	2746.33
411.32	2721.75
411.53	2523.10
411.74	2703.32
411.95	2746.33
412.15	2744.28
412.36	2744.28
412.57	2793.43
412.77	2766.81
412.98	2701.27
413.19	2627.54
413.39	2701.27
413.60	2678.74
413.81	2914.26
414.01	2590.68
414.22	2588.63
414.43	2801.62
414.63	2652.12
414.84	2850.77
415.05	2600.92
415.25	2412.51
415.46	2897.88
415.67	2633.69
415.87	2643.93
416.08	2605.02
416.29	2701.27
416.49	2858.96
416.70	2547.67
416.91	2588.63
417.11	2592.73
417.32	2887.64
417.53	2756.57
417.73	2727.89
417.94	2688.98
418.15	2656.22
418.35	2592.73
418.56	2637.78
418.77	3028.95
418.97	2734.04
419.18	2590.68
419.38	2392.03
419.59	2748.37
419.80	2916.31
420.00	2637.78
420.21	2711.51
420.42	2846.68
420.62	2754.52
420.83	2605.02
421.04	2592.73
421.24	2666.46
421.45	2840.53
421.65	2686.94
421.86	2676.70
422.07	2908.12
422.27	2789.33
422.48	2621.40
422.69	2519.00
422.89	2701.27
423.10	2703.32
423.30	2574.30
423.51	2625.50
423.72	2785.24
423.92	2848.72
424.13	2510.81
424.33	2699.22
424.54	2799.57
424.75	2736.09
424.95	2858.96
425.16	2619.35
425.36	2703.32
425.57	2809.81
425.78	2703.32
425.98	2822.10
426.19	2662.36
426.39	2602.97
426.60	2676.70
426.81	2768.85
427.01	2760.66
427.22	2590.68
427.42	2525.15
427.63	2525.15
427.83	2826.20
428.04	2961.36
428.25	2756.57
428.45	2770.90
428.66	2908.12
428.86	2691.03
429.07	2600.92
429.28	2703.32
429.48	2711.51
429.69	2641.88
429.89	2650.07
430.10	2510.81
430.30	2799.57
430.51	2885.59
430.71	2566.10
430.92	2680.79
431.13	2652.12
431.33	2813.91
431.54	2672.60
431.74	2793.43
431.95	3035.09
432.15	2600.92
432.36	2654.17
432.56	2695.13
432.77	2955.22
432.98	2940.88
433.18	2717.65
433.39	2557.91
433.59	2686.94
433.80	3069.91
434.00	2895.83
434.21	2629.59
434.41	2562.01
434.62	3102.67
434.82	2506.71
435.03	2570.20
435.23	2766.81
435.44	2496.47
435.64	2678.74
435.85	2639.83
436.06	2842.58
436.26	2953.17
436.47	2588.63
436.67	2678.74
436.88	2672.60
437.08	2908.12
437.29	2789.33
437.49	2762.71
437.70	2955.22
437.90	2686.94
438.11	2856.92
438.31	2738.13
438.52	2928.60
438.72	2967.51
438.93	2957.27
439.13	2699.22
439.34	2904.02
439.54	2727.89
439.75	2789.33
439.95	2768.85
440.16	2586.58
440.36	2762.71
440.57	2688.98
440.77	2674.65
440.98	2793.43
441.18	2736.09
441.39	2588.63
441.59	2506.71
441.80	3071.95
442.00	2791.38
442.21	2740.18
442.41	2490.33
442.62	2881.49
442.82	2643.93
443.02	2627.54
443.23	2719.70
443.43	2723.80
443.64	2942.93
443.84	2617.30
444.05	2805.72
444.25	2766.81
444.46	2682.84
444.66	2605.02
444.87	2867.16
445.07	2525.15
445.28	2746.33
445.48	2746.33
445.69	2762.71
445.89	3020.75
446.09	2734.04
446.30	2938.84
446.50	3117.01
446.71	4577.21
446.91	5603.24
447.12	6516.64
447.32	6995.86
447.53	6590.36
447.73	5513.13
447.93	4806.58
448.14	4554.68
448.34	4591.55
448.55	3844.04
448.75	3841.99
448.96	3653.58
449.16	3405.77
449.36	3262.41
449.57	2895.83
449.77	2723.80
449.98	2627.54
450.18	2777.05
450.39	2680.79
450.59	2818.00
450.79	2719.70
451.00	2592.73
451.20	2840.53
451.41	2719.70
451.61	2801.62
451.81	2693.08
452.02	2648.02
452.22	2777.05
452.43	2559.96
452.63	2637.78
452.84	2662.36
453.04	2629.59
453.24	2770.90
453.45	2672.60
453.65	2729.94
453.86	2664.41
454.06	2801.62
454.26	2834.39
454.47	2631.64
454.67	2820.05
454.87	2783.19
455.08	2729.94
455.28	2897.88
455.49	2777.05
455.69	2611.16
455.89	3082.19
456.10	2783.19
456.30	2586.58
456.51	2850.77
456.71	2670.55
456.91	2734.04
457.12	2676.70
457.32	2826.20
457.52	2600.92
457.73	2752.47
457.93	2820.05
458.14	2682.84
458.34	2504.67
458.54	2648.02
458.75	2598.87
458.95	2846.68
459.15	2658.26
459.36	2699.22
459.56	2686.94
459.76	3078.10
459.97	2717.65
460.17	2588.63
460.37	2801.62
460.58	2758.61
460.78	2826.20
460.99	2621.40
461.19	2598.87
461.39	2656.22
461.60	2664.41
461.80	2660.31
462.00	2555.86
462.21	2727.89
462.41	2578.39
462.61	2586.58
462.82	2537.43
463.02	2820.05
463.22	2793.43
463.43	2734.04
463.63	2598.87
463.83	2920.40
464.04	2793.43
464.24	2666.46
464.44	2590.68
464.64	2725.85
464.85	2789.33
465.05	2680.79
465.25	2584.54
465.46	2588.63
465.66	2818.00
465.86	2772.95
466.07	2676.70
466.27	2701.27
466.47	2537.43
466.68	2445.27
466.88	2815.96
467.08	2822.10
467.29	2871.25
467.49	2674.65
467.69	2713.56
467.89	2734.04
468.10	2674.65
468.30	2707.41
468.50	2756.57
468.71	2893.78
468.91	2602.97
469.11	2828.24
469.31	2645.98
469.52	2637.78
469.72	2969.55
469.92	2922.45
470.13	2721.75
470.33	2736.09
470.53	2805.72
470.73	3035.09
470.94	3317.71
471.14	3479.50
471.34	3880.90
471.54	3669.96
471.75	3227.60
471.95	3166.16
472.15	3117.01
472.36	3137.49
472.56	2973.65
472.76	3141.58
472.96	3102.67
473.17	2951.12
473.37	2834.39
473.57	2686.94
473.77	2836.44
473.98	2731.99
474.18	2559.96
474.38	3186.64
474.58	2615.26
474.79	2602.97
474.99	2715.61
475.19	2883.54
475.39	2594.78
475.60	2695.13
475.80	2609.11
476.00	2797.53
476.20	2611.16
476.41	2705.37
476.61	2711.51
476.81	2947.03
477.01	2600.92
477.21	2922.45
477.42	2777.05
477.62	2621.40
477.82	2799.57
478.02	2654.17
478.23	2695.13
478.43	2586.58
478.63	2609.11
478.83	2623.45
479.03	2596.82
479.24	2963.41
479.44	2985.94
479.64	2555.86
479.84	2422.75
480.04	2598.87
480.25	2848.72
480.45	2535.39
480.65	2662.36
480.85	2863.06
481.06	2578.39
481.26	2756.57
481.46	2723.80
481.66	2801.62
481.86	2592.73
482.06	2789.33
482.27	2613.21
482.47	2631.64
482.67	2705.37
482.87	2621.40
483.07	2750.42
483.28	2648.02
483.48	2627.54
483.68	2635.74
483.88	2598.87
484.08	2424.80
484.29	2641.88
484.49	2703.32
484.69	2557.91
484.89	2906.07
485.09	2940.88
485.29	2715.61
485.50	2760.66
485.70	2645.98
485.90	2899.92
486.10	2715.61
486.30	2629.59
486.50	2897.88
486.71	2781.14
486.91	2715.61
487.11	2787.29
487.31	2529.24
487.51	2818.00
487.71	2576.34
487.91	2533.34
488.12	2611.16
488.32	2467.80
488.52	2711.51
488.72	2365.40
488.92	2746.33
489.12	2928.60
489.32	2772.95
489.53	2674.65
489.73	2535.39
489.93	3057.62
490.13	2605.02
490.33	2473.95
490.53	2781.14
490.73	2904.02
490.94	2498.52
491.14	2756.57
491.34	2934.74
491.54	2932.69
491.74	3528.65
491.94	4075.46
492.14	4386.75
492.34	4517.82
492.54	4188.10
492.75	3542.99
492.95	3629.00
493.15	3393.48
493.35	3346.38
493.55	3237.84
493.75	3114.96
493.95	3276.75
494.15	2834.39
494.35	2762.71
494.56	2701.27
494.76	2656.22
494.96	2760.66
495.16	2617.30
495.36	2711.51
495.56	2734.04
495.76	2674.65
495.96	2623.45
496.16	2539.48
496.36	3037.14
496.56	2676.70
496.77	2752.47
496.97	2725.85
497.17	2936.79
497.37	2488.28
497.57	2803.67
497.77	2731.99
497.97	2533.34
498.17	2674.65
498.37	2572.25
498.57	2840.53
498.77	2682.84
498.97	2779.09
499.17	2963.41
499.38	2785.24
499.58	2848.72
499.78	2865.11
499.98	2772.95
500.18	2629.59
500.38	2557.91
500.58	2873.30
500.78	3160.02
500.98	5384.11
501.18	7290.77
501.38	8757.11
501.58	9609.07
501.78	9516.91
501.98	7733.13
502.18	6557.60
502.38	5676.97
502.58	5404.59
502.78	4749.24
502.98	4665.27
503.18	4386.75
503.38	4077.51
503.59	3510.22
503.79	3473.36
503.99	3246.03
504.19	3301.33
504.39	3125.20
504.59	3203.02
504.79	3098.58
504.99	3211.22
505.19	2901.97
505.39	2852.82
505.59	3035.09
505.79	3047.38
505.99	2977.75
506.19	2711.51
506.39	2854.87
506.59	2701.27
506.79	2645.98
506.99	2775.00
507.19	2547.67
507.39	2746.33
507.59	2521.05
507.79	2605.02
507.99	2605.02
508.19	2680.79
508.39	2658.26
508.59	2662.36
508.79	2828.24
508.99	3004.37
509.19	2756.57
509.39	2756.57
509.59	2588.63
509.79	2686.94
509.99	2766.81
510.19	2768.85
510.39	2813.91
510.59	2783.19
510.79	2602.97
510.99	2531.29
511.19	2625.50
511.39	2979.79
511.59	2901.97
511.79	2861.01
511.99	2742.23
512.19	2887.64
512.38	2756.57
512.58	2623.45
512.78	2672.60
512.98	2971.60
513.18	2973.65
513.38	2500.57
513.58	2693.08
513.78	2713.56
513.98	2731.99
514.18	2627.54
514.38	2592.73
514.58	2734.04
514.78	2594.78
514.98	2629.59
515.18	2658.26
515.38	2555.86
515.58	2992.08
515.78	2617.30
515.98	2623.45
516.18	2795.48
516.38	2664.41
516.57	2570.20
516.77	2605.02
516.97	2834.39
517.17	2664.41
517.37	2457.56
517.57	2783.19
517.77	2676.70
517.97	2648.02
518.17	2797.53
518.37	2576.34
518.57	2621.40
518.77	2691.03
518.97	2666.46
519.16	2744.28
519.36	2801.62
519.56	2686.94
519.76	2693.08
519.96	2682.84
520.16	2967.51
520.36	2621.40
520.56	2766.81
520.76	2588.63
520.96	2652.12
521.16	2883.54
521.35	2807.77
521.55	2783.19
521.75	2760.66
521.95	2678.74
522.15	2572.25
522.35	2467.80
522.55	2572.25
522.75	2834.39
522.95	2625.50
523.14	2541.53
523.34	2793.43
523.54	2688.98
523.74	2758.61
523.94	2695.13
524.14	2539.48
524.34	2844.63
524.54	2803.67
524.73	2617.30
524.93	2807.77
525.13	2691.03
525.33	2562.01
525.53	2920.40
525.73	2793.43
525.93	2750.42
526.13	2619.35
526.32	2592.73
526.52	2871.25
526.72	2949.08
526.92	2607.06
527.12	2598.87
527.32	2490.33
527.52	2861.01
527.71	2719.70
527.91	2682.84
528.11	2564.06
528.31	2727.89
528.51	2576.34
528.71	2852.82
528.90	2809.81
529.10	2883.54
529.30	2725.85
529.50	2449.37
529.70	2795.48
529.90	2705.37
530.09	2578.39
530.29	2574.30
530.49	2537.43
530.69	3012.56
530.89	2658.26
531.09	2783.19
531.28	2682.84
531.48	2916.31
531.68	2695.13
531.88	2699.22
532.08	2766.81
532.28	2684.89
532.47	2836.44
532.67	2762.71
532.87	2799.57
533.07	2564.06
533.27	2731.99
533.46	2746.33
533.66	2768.85
533.86	2752.47
534.06	2820.05
534.26	2686.94
534.45	2777.05
534.65	2854.87
534.85	2779.09
535.05	2570.20
535.25	2912.21
535.44	2531.29
535.64	2750.42
535.84	2637.78
536.04	2658.26
536.24	2740.18
536.43	2635.74
536.63	2717.65
536.83	2725.85
537.03	2686.94
537.22	2516.95
537.42	2498.52
537.62	2766.81
537.82	2645.98
538.02	2738.13
538.21	2779.09
538.41	3119.06
538.61	2803.67
538.81	2582.49
539.00	2758.61
539.20	2562.01
539.40	2688.98
539.60	2680.79
539.79	2887.64
539.99	2695.13
540.19	2543.58
540.39	2637.78
540.58	2738.13
540.78	2818.00
540.98	2805.72
541.18	2691.03
541.37	2703.32
541.57	2807.77
541.77	2777.05
541.97	2578.39
542.16	2527.19
542.36	2699.22
542.56	2639.83
542.76	2838.48
542.95	2820.05
543.15	2670.55
543.35	2807.77
543.54	2660.31
543.74	2590.68
543.94	2924.50
544.14	2731.99
544.33	2777.05
544.53	2654.17
544.73	2744.28
544.93	2672.60
545.12	2564.06
545.32	2627.54
545.52	2684.89
545.71	2588.63
545.91	2605.02
546.11	2580.44
546.30	2592.73
546.50	2672.60
546.70	2695.13
546.90	2686.94
547.09	2559.96
547.29	2719.70
547.49	2822.10
547.68	2676.70
547.88	2605.02
548.08	2840.53
548.27	3127.25
548.47	2617.30
548.67	2619.35
548.87	2734.04
549.06	2584.54
549.26	2703.32
549.46	2850.77
549.65	2641.88
549.85	2678.74
550.05	2736.09
550.24	2551.77
550.44	2758.61
550.64	2770.90
550.83	2660.31
551.03	2953.17
551.23	2844.63
551.42	2750.42
551.62	2666.46
551.82	2652.12
552.01	2701.27
552.21	2895.83
552.41	2678.74
552.60	2924.50
552.80	2699.22
553.00	2633.69
553.19	2699.22
553.39	3018.71
553.59	2535.39
553.78	2770.90
553.98	2678.74
554.17	2621.40
554.37	2824.15
554.57	2740.18
554.76	2484.19
554.96	2623.45
555.16	2729.94
555.35	2772.95
555.55	2691.03
555.75	2764.76
555.94	2858.96
556.14	2543.58
556.33	2674.65
556.53	2699.22
556.73	2658.26
556.92	2772.95
557.12	2660.31
557.32	2967.51
557.51	2928.60
557.71	2703.32
557.90	2828.24
558.10	2977.75
558.30	2693.08
558.49	2592.73
558.69	2635.74
558.88	2799.57
559.08	2746.33
559.28	2678.74
559.47	2662.36
559.67	2746.33
559.86	3055.57
560.06	2611.16
560.26	2680.79
560.45	2815.96
560.65	2738.13
560.84	2953.17
561.04	2525.15
561.24	2670.55
561.43	2645.98
561.63	2897.88
561.82	2777.05
562.02	2852.82
562.22	2596.82
562.41	2625.50
562.61	2678.74
562.80	2576.34
563.00	3082.19
563.19	2740.18
563.39	2754.52
563.59	2766.81
563.78	2562.01
563.98	2441.18
564.17	2600.92
564.37	2502.62
564.56	2742.23
564.76	2555.86
564.96	2758.61
565.15	2764.76
565.35	3153.87
565.54	2676.70
565.74	2727.89
565.93	2758.61
566.13	2766.81
566.32	2750.42
566.52	2789.33
566.71	2705.37
566.91	2863.06
567.11	2756.57
567.30	2596.82
567.50	2815.96
567.69	2799.57
567.89	2672.60
568.08	2519.00
568.28	2770.90
568.47	2566.10
568.67	2713.56
568.86	2650.07
569.06	2772.95
569.25	2734.04
569.45	2531.29
569.64	2670.55
569.84	2652.12
570.04	2815.96
570.23	2564.06
570.43	2648.02
570.62	2783.19
570.82	2928.60
571.01	2547.67
571.21	2631.64
571.40	2611.16
571.60	2854.87
571.79	2662.36
571.99	2684.89
572.18	2674.65
572.38	2803.67
572.57	2668.50
572.77	2695.13
572.96	3030.99
573.16	2775.00
573.35	2727.89
573.55	2836.44
573.74	2787.29
573.94	2650.07
574.13	2637.78
574.33	2842.58
574.52	2953.17
574.71	2801.62
574.91	2709.46
575.10	2541.53
575.30	2670.55
575.49	2641.88
575.69	2623.45
575.88	2734.04
576.08	2693.08
576.27	2891.73
576.47	2590.68
576.66	2891.73
576.86	2930.64
577.05	2727.89
577.25	2715.61
577.44	2895.83
577.64	2668.50
577.83	2897.88
578.02	2625.50
578.22	2822.10
578.41	2934.74
578.61	2680.79
578.80	2566.10
579.00	2764.76
579.19	2631.64
579.39	2762.71
579.58	2789.33
579.77	2598.87
579.97	2926.55
580.16	2832.34
580.36	2756.57
580.55	2822.10
580.75	2809.81
580.94	2715.61
581.13	2895.83
581.33	2916.31
581.52	2719.70
581.72	3012.56
581.91	2830.29
582.11	2643.93
582.30	2897.88
582.49	2838.48
582.69	2893.78
582.88	2752.47
583.08	2736.09
583.27	2938.84
583.47	2701.27
583.66	2574.30
583.85	2607.06
584.05	2658.26
584.24	2818.00
584.44	2727.89
584.63	2947.03
584.82	2891.73
585.02	3028.95
585.21	2840.53
585.41	2828.24
585.60	2766.81
585.79	2969.55
585.99	2858.96
586.18	2865.11
586.37	3606.47
586.57	5498.80
586.76	15783.70
586.96	35390.95
587.15	48489.76
587.34	57502.87
587.54	61639.76
587.73	55403.70
587.93	38700.47
588.12	29926.97
588.31	24022.67
588.51	21305.02
588.70	19420.89
588.89	17116.92
589.09	14796.57
589.28	12627.78
589.47	9981.80
589.67	7827.34
589.86	5980.07
590.06	4601.79
590.25	4016.07
590.44	3391.44
590.64	3129.30
590.83	3002.32
591.02	3012.56
591.22	2760.66
591.41	2748.37
591.60	2699.22
591.80	3135.44
591.99	2600.92
592.18	2674.65
592.38	2861.01
592.57	2633.69
592.76	2637.78
592.96	2703.32
593.15	2684.89
593.34	2897.88
593.54	2719.70
593.73	2727.89
593.92	2820.05
594.12	2826.20
594.31	2658.26
594.50	2820.05
594.70	2760.66
594.89	3147.73
595.08	2498.52
595.28	2879.44
595.47	3205.07
595.66	2949.08
595.86	2537.43
596.05	2670.55
596.24	2766.81
596.43	2953.17
596.63	2854.87
596.82	2789.33
597.01	2848.72
597.21	3006.42
597.40	2670.55
597.59	2666.46
597.79	2670.55
597.98	2818.00
598.17	2715.61
598.36	2607.06
598.56	2818.00
598.75	2662.36
598.94	2680.79
599.14	2682.84
599.33	2596.82
599.52	2844.63
599.71	2680.79
599.91	2740.18
600.10	2826.20
600.29	2768.85
600.48	2772.95
600.68	2684.89
600.87	2703.32
601.06	2580.44
601.26	2711.51
601.45	2740.18
601.64	2731.99
601.83	2924.50
602.03	2594.78
602.22	2584.54
602.41	2889.68
602.60	3119.06
602.80	2781.14
602.99	2795.48
603.18	2738.13
603.37	2756.57
603.57	2678.74
603.76	2746.33
603.95	2877.40
604.14	2656.22
604.34	2594.78
604.53	2650.07
604.72	2777.05
604.91	2807.77
605.10	2680.79
605.30	2478.04
605.49	3018.71
605.68	2754.52
605.87	2705.37
606.07	2654.17
606.26	2760.66
606.45	2783.19
606.64	2658.26
606.84	2514.91
607.03	2680.79
607.22	2899.92
607.41	2668.50
607.60	2607.06
607.80	2842.58
607.99	2721.75
608.18	2711.51
608.37	2699.22
608.56	2633.69
608.76	2957.27
608.95	2840.53
609.14	2654.17
609.33	2973.65
609.52	2928.60
609.72	2746.33
609.91	2762.71
610.10	2830.29
610.29	2965.46
610.48	2752.47
610.68	2725.85
610.87	2750.42
611.06	2787.29
611.25	2664.41
611.44	2744.28
611.63	2625.50
611.83	2906.07
612.02	2529.24
612.21	2731.99
612.40	2529.24
612.59	2576.34
612.79	2576.34
612.98	2613.21
613.17	3053.52
613.36	2844.63
613.55	2875.35
613.74	2719.70
613.93	2734.04
614.13	2912.21
614.32	2832.34
614.51	2744.28
614.70	2740.18
614.89	2787.29
615.08	2772.95
615.28	3033.04
615.47	2662.36
615.66	2832.34
615.85	2701.27
616.04	2795.48
616.23	2813.91
616.42	2729.94
616.62	2750.42
616.81	2695.13
617.00	2676.70
617.19	2766.81
617.38	2697.17
617.57	2713.56
617.76	2750.42
617.95	2873.30
618.15	2793.43
618.34	2846.68
618.53	2594.78
618.72	2881.49
618.91	2815.96
619.10	2719.70
619.29	2715.61
619.48	2719.70
619.68	2525.15
619.87	2666.46
620.06	2609.11
620.25	2764.76
620.44	2562.01
620.63	2621.40
620.82	2703.32
621.01	2695.13
621.20	2672.60
621.39	2744.28
621.59	2760.66
621.78	2717.65
621.97	2731.99
622.16	2668.50
622.35	2781.14
622.54	2818.00
622.73	2738.13
622.92	2439.13
623.11	2795.48
623.30	2625.50
623.49	2744.28
623.68	2588.63
623.88	2949.08
624.07	2688.98
624.26	2676.70
624.45	2662.36
624.64	2744.28
624.83	2805.72
625.02	2731.99
625.21	2662.36
625.40	2785.24
625.59	2965.46
625.78	2701.27
625.97	2818.00
626.16	2922.45
626.35	2897.88
626.54	2748.37
626.74	2865.11
626.93	2731.99
627.12	2678.74
627.31	2740.18
627.50	2678.74
627.69	2879.44
627.88	2740.18
628.07	2643.93
628.26	2600.92
628.45	2607.06
628.64	2635.74
628.83	2650.07
629.02	2486.23
629.21	2826.20
629.40	2717.65
629.59	2609.11
629.78	2582.49
629.97	2674.65
630.16	2760.66
630.35	2674.65
630.54	2666.46
630.73	2703.32
630.92	2660.31
631.11	2621.40
631.30	2658.26
631.49	2783.19
631.68	2645.98
631.87	2654.17
632.06	2535.39
632.25	3069.91
632.44	2731.99
632.63	2795.48
632.82	2670.55
633.01	2615.26
633.20	2756.57
633.39	2729.94
633.58	2547.67
633.77	2772.95
633.96	2818.00
634.15	2809.81
634.34	2756.57
634.53	2688.98
634.72	2650.07
634.91	2471.90
635.10	2717.65
635.29	2854.87
635.48	2813.91
635.67	2619.35
635.86	2521.05
636.05	2881.49
636.24	2594.78
636.43	2652.12
636.62	2764.76
636.81	2400.22
637.00	2799.57
637.19	2672.60
637.38	2621.40
637.57	2553.82
637.76	2787.29
637.95	2777.05
638.14	2738.13
638.33	2830.29
638.52	2711.51
638.71	2541.53
638.89	2523.10
639.08	3071.95
639.27	2932.69
639.46	2858.96
639.65	3239.89
639.84	3223.50
640.03	3327.95
640.22	3033.04
640.41	3143.63
640.60	2879.44
640.79	2985.94
640.98	2721.75
641.17	2861.01
641.36	2889.68
641.55	2844.63
641.74	2545.63
641.92	2639.83
642.11	2586.58
642.30	2643.93
642.49	2674.65
642.68	2555.86
642.87	2811.86
643.06	2766.81
643.25	2570.20
643.44	2531.29
643.63	2654.17
643.82	2844.63
644.00	2506.71
644.19	2674.65
644.38	2613.21
644.57	2787.29
644.76	2629.59
644.95	2725.85
645.14	2709.46
645.33	2680.79
645.52	2697.17
645.71	2510.81
645.89	2570.20
646.08	2731.99
646.27	2592.73
646.46	2912.21
646.65	2506.71
646.84	2688.98
647.03	2570.20
647.22	2793.43
647.40	2795.48
647.59	2664.41
647.78	2439.13
647.97	2555.86
648.16	2641.88
648.35	2998.23
648.54	2811.86
648.73	2641.88
648.91	2873.30
649.10	2781.14
649.29	2527.19
649.48	2643.93
649.67	2803.67
649.86	2705.37
650.05	2699.22
650.23	2797.53
650.42	2660.31
650.61	2953.17
650.80	2756.57
650.99	2953.17
651.18	2772.95
651.36	2856.92
651.55	2662.36
651.74	2766.81
651.93	2711.51
652.12	2686.94
652.31	2695.13
652.49	2678.74
652.68	2645.98
652.87	2947.03
653.06	2793.43
653.25	2967.51
653.44	2674.65
653.62	2877.40
653.81	2678.74
654.00	2654.17
654.19	2824.15
654.38	3157.97
654.56	2734.04
654.75	2543.58
654.94	2818.00
655.13	2770.90
655.32	2664.41
655.51	2807.77
655.69	2592.73
655.88	2869.20
656.07	2580.44
656.26	2707.41
656.45	2545.63
656.63	2709.46
656.82	2791.38
657.01	2832.34
657.20	2613.21
657.38	2979.79
657.57	2660.31
657.76	2478.04
657.95	2832.34
658.14	2568.15
658.32	2756.57
658.51	2502.62
658.70	2742.23
658.89	2799.57
659.08	2648.02
659.26	2920.40
659.45	2609.11
659.64	2793.43
659.83	2553.82
660.01	2973.65
660.20	2727.89
660.39	2879.44
660.58	2451.42
660.76	2688.98
660.95	2551.77
661.14	2738.13
661.33	2541.53
661.51	2621.40
661.70	2701.27
661.89	2729.94
662.08	2713.56
662.26	2488.28
662.45	2576.34
662.64	2971.60
662.83	2719.70
663.01	2525.15
663.20	2643.93
663.39	3043.28
663.58	2740.18
663.76	2645.98
663.95	2815.96
664.14	2564.06
664.32	2629.59
664.51	2514.91
664.70	2525.15
664.89	2750.42
665.07	2596.82
665.26	2809.81
665.45	2578.39
665.64	2736.09
665.82	2650.07
666.01	2742.23
666.20	2600.92
666.38	2918.36
666.57	2889.68
666.76	4192.19
666.95	10127.21
667.13	16944.89
667.32	21235.39
667.51	24252.05
667.69	25171.58
667.88	21696.18
668.07	15333.14
668.25	12996.41
668.44	11040.60
668.63	9647.98
668.81	8697.72
669.00	7352.21
669.19	6541.21
669.38	5849.00
669.56	5056.43
669.75	4315.07
669.94	3901.38
670.12	3147.73
670.31	3035.09
670.50	2944.98
670.68	2981.84
670.87	2811.86
671.06	2670.55
671.24	2725.85
671.43	2904.02
671.62	2705.37
671.80	2617.30
671.99	2805.72
672.18	2779.09
672.36	2797.53
672.55	2744.28
672.74	2654.17
672.92	2697.17
673.11	2828.24
673.29	2580.44
673.48	2813.91
673.67	2701.27
673.85	2852.82
674.04	2559.96
674.23	2705.37
674.41	3037.14
674.60	2637.78
674.79	2424.80
674.97	2562.01
675.16	2748.37
675.34	2881.49
675.53	2633.69
675.72	2750.42
675.90	2916.31
676.09	2723.80
676.28	2695.13
676.46	2435.03
676.65	2783.19
676.83	2596.82
677.02	2668.50
677.21	2729.94
677.39	2775.00
677.58	2627.54
677.77	2678.74
677.95	2621.40
678.14	2652.12
678.32	2662.36
678.51	2641.88
678.70	2967.51
678.88	2719.70
679.07	2752.47
679.25	2719.70
679.44	2705.37
679.63	2527.19
679.81	2752.47
680.00	2820.05
680.18	2731.99
680.37	2998.23
680.55	2756.57
680.74	2455.51
680.93	2420.70
681.11	2869.20
681.30	2688.98
681.48	2627.54
681.67	2717.65
681.85	2842.58
682.04	2652.12
682.23	2754.52
682.41	2691.03
682.60	2766.81
682.78	2641.88
682.97	2547.67
683.15	2662.36
683.34	2789.33
683.53	2983.89
683.71	2521.05
683.90	2744.28
684.08	2944.98
684.27	2711.51
684.45	2777.05
684.64	2807.77
684.82	2686.94
685.01	2809.81
685.19	2617.30
685.38	2883.54
685.57	2731.99
685.75	2633.69
685.94	2627.54
686.12	2633.69
686.31	2641.88
686.49	2926.55
686.68	2496.47
686.86	2748.37
687.05	2678.74
687.23	2881.49
687.42	2596.82
687.60	2467.80
687.79	2834.39
687.97	2852.82
688.16	2842.58
688.34	2772.95
688.53	2465.75
688.71	2781.14
688.90	2906.07
689.08	2713.56
689.27	2500.57
689.45	2799.57
689.64	2820.05
689.82	2758.61
690.01	2856.92
690.19	2695.13
690.38	2750.42
690.56	2789.33
690.75	2504.67
690.93	2650.07
691.12	2559.96
691.30	2695.13
691.49	2678.74
691.67	2691.03
691.86	2930.64
692.04	2670.55
692.23	2633.69
692.41	2738.13
692.60	2998.23
692.78	2856.92
692.97	2748.37
693.15	2832.34
693.34	2889.68
693.52	2910.16
693.71	2639.83
693.89	2658.26
694.08	2465.75
694.26	2713.56
694.44	2791.38
694.63	2856.92
694.81	2607.06
695.00	2637.78
695.18	2842.58
695.37	3106.77
695.55	2697.17
695.74	2729.94
695.92	2693.08
696.10	2944.98
696.29	2537.43
696.47	2629.59
696.66	2500.57
696.84	2598.87
697.03	2705.37
697.21	2969.55
697.40	4018.11
697.58	2815.96
697.76	2615.26
697.95	2629.59
698.13	2508.76
698.32	2701.27
698.50	2670.55
698.68	2697.17
698.87	2703.32
699.05	2930.64
699.24	2654.17
699.42	2596.82
699.61	2801.62
699.79	2658.26
699.97	2697.17
700.16	2488.28
700.34	2566.10
700.53	2654.17
700.71	2832.34
700.89	2809.81
701.08	2725.85
701.26	2670.55
701.45	3112.91
701.63	2596.82
701.81	2693.08
702.00	2600.92
702.18	2760.66
702.37	2660.31
702.55	2953.17
702.73	2799.57
702.92	2660.31
703.10	2965.46
703.28	2828.24
703.47	2637.78
703.65	2908.12
703.84	2842.58
704.02	2650.07
704.20	2975.70
704.39	2615.26
704.57	2564.06
704.75	2867.16
704.94	2801.62
705.12	2799.57
705.30	3127.25
705.49	5910.44
705.67	11927.37
705.86	18136.81
706.04	20489.93
706.22	22720.17
706.41	22666.92
706.59	17512.18
706.77	13223.73
706.96	11616.08
707.14	10573.66
707.32	8945.53
707.51	8028.04
707.69	6674.33
707.87	5486.51
708.06	4423.61
708.24	3827.65
708.42	3364.81
708.61	3444.68
708.79	2691.03
708.97	2742.23
709.16	2842.58
709.34	2768.85
709.52	2680.79
709.71	2615.26
709.89	2766.81
710.07	2650.07
710.26	2555.86
710.44	2611.16
710.62	2785.24
710.80	2701.27
710.99	2793.43
711.17	2820.05
711.35	2744.28
711.54	2711.51
711.72	2772.95
711.90	2822.10
712.09	2744.28
712.27	2627.54
712.45	2744.28
712.63	2645.98
712.82	2680.79
713.00	2697.17
713.18	2729.94
713.37	2793.43
713.55	2834.39
713.73	2826.20
713.91	2746.33
714.10	2691.03
714.28	2652.12
714.46	2785.24
714.65	2775.00
714.83	2731.99
715.01	2731.99
715.19	2637.78
715.38	2547.67
715.56	2744.28
715.74	2605.02
715.92	2580.44
716.11	2844.63
716.29	2389.98
716.47	2709.46
716.65	2605.02
716.84	2508.76
717.02	2701.27
717.20	2457.56
717.38	2588.63
717.57	2777.05
717.75	2631.64
717.93	2607.06
718.11	2807.77
718.30	2594.78
718.48	2697.17
718.66	2813.91
718.84	2889.68
719.03	2670.55
719.21	2529.24
719.39	2963.41
719.57	2846.68
719.75	2742.23
719.94	2578.39
720.12	2713.56
720.30	2785.24
720.48	2686.94
720.67	2654.17
720.85	2602.97
721.03	2656.22
721.21	2662.36
721.39	2777.05
721.58	2826.20
721.76	2656.22
721.94	2641.88
722.12	2707.41
722.30	2879.44
722.49	2658.26
722.67	2725.85
722.85	2695.13
723.03	2545.63
723.21	2555.86
723.40	2650.07
723.58	2818.00
723.76	2783.19
723.94	2949.08
724.12	2652.12
724.30	2938.84
724.49	2842.58
724.67	2590.68
724.85	2783.19
725.03	2490.33
725.21	2801.62
725.40	2854.87
725.58	2627.54
725.76	2906.07
725.94	2775.00
726.12	2539.48
726.30	2676.70
726.49	2621.40
726.67	2707.41
726.85	2715.61
727.03	3039.19
727.21	4120.51
727.39	5132.21
727.57	5660.59
727.76	6127.52
727.94	6094.76
728.12	5521.32
728.30	4743.10
728.48	4272.06
728.66	4022.21
728.84	3813.32
729.03	3311.57
729.21	3182.54
729.39	2924.50
729.57	2797.53
729.75	2854.87
729.93	2768.85
730.11	2680.79
730.30	2605.02
730.48	2660.31
730.66	2807.77
730.84	2791.38
731.02	2758.61
731.20	2590.68
731.38	2617.30
731.56	2547.67
731.74	2566.10
731.93	2750.42
732.11	2717.65
732.29	2602.97
732.47	2850.77
732.65	2789.33
732.83	2865.11
733.01	2725.85
733.19	2658.26
733.37	2768.85
733.56	2701.27
733.74	2635.74
733.92	2916.31
734.10	2580.44
734.28	2779.09
734.46	2486.23
734.64	2783.19
734.82	2631.64
735.00	2617.30
735.18	2621.40
735.36	2697.17
735.54	2785.24
735.73	2688.98
735.91	2762.71
736.09	2920.40
736.27	2803.67
736.45	2688.98
736.63	2467.80
736.81	2674.65
736.99	2791.38
737.17	2824.15
737.35	2588.63
737.53	2701.27
737.71	2648.02
737.89	2815.96
738.07	2625.50
738.25	2529.24
738.43	2519.00
738.61	2600.92
738.80	2494.43
738.98	2602.97
739.16	2643.93
739.34	2576.34
739.52	2875.35
739.70	2697.17
739.88	2840.53
740.06	2775.00
740.24	2439.13
740.42	2858.96
740.60	2420.70
740.78	2607.06
740.96	2426.84
741.14	2691.03
741.32	2744.28
741.50	2545.63
741.68	2904.02
741.86	2912.21
742.04	2498.52
742.22	2549.72
742.40	2643.93
742.58	2807.77
742.76	2545.63
742.94	2818.00
743.12	2553.82
743.30	2623.45
743.48	2818.00
743.66	2639.83
743.84	2658.26
744.02	2643.93
744.20	2645.98
744.38	2574.30
744.56	2549.72
744.74	2949.08
744.92	2873.30
745.10	2838.48
745.28	2678.74
745.46	2977.75
745.64	2725.85
745.82	2775.00
746.00	2582.49
746.18	2725.85
746.36	2582.49
746.54	2643.93
746.72	2691.03
746.90	2557.91
747.08	2969.55
747.26	2590.68
747.44	2752.47
747.62	2781.14
747.80	2805.72
747.98	2785.24
748.15	2629.59
748.33	2924.50
748.51	2639.83
748.69	2811.86
748.87	2570.20
749.05	2717.65
749.23	2693.08
749.41	2699.22
749.59	2680.79
749.77	2879.44
749.95	2574.30
750.13	2676.70
750.31	2772.95
750.49	2797.53
750.67	2877.40
750.85	2826.20
751.03	2676.70
751.20	2981.84
751.38	2668.50
751.56	2664.41
751.74	2693.08
751.92	2633.69
752.10	2645.98
752.28	2754.52
752.46	2523.10
752.64	2670.55
752.82	2772.95
753.00	2865.11
753.18	2641.88
753.35	2672.60
753.53	2697.17
753.71	2635.74
753.89	2701.27
754.07	2711.51
754.25	2834.39
754.43	2789.33
754.61	2641.88
754.79	2789.33
754.97	2695.13
755.14	2901.97
755.32	2543.58
755.50	2727.89
755.68	2727.89
755.86	2566.10
756.04	2602.97
756.22	2449.37
756.40	2850.77
756.57	2885.59
756.75	2607.06
756.93	2869.20
757.11	2879.44
757.29	2539.48
757.47	2568.15
757.65	2562.01
757.82	2398.17
758.00	2494.43
758.18	2654.17
758.36	2625.50
758.54	2922.45
758.72	2445.27
758.90	2707.41
759.07	2807.77
759.25	2572.25
759.43	2727.89
759.61	2516.95
759.79	3928.00
759.97	2938.84
760.15	2695.13
760.32	2699.22
760.50	2742.23
760.68	2959.31
760.86	2535.39
761.04	2908.12
761.22	2744.28
761.39	2723.80
761.57	2703.32
761.75	2660.31
761.93	2770.90
762.11	2707.41
762.28	2637.78
762.46	2557.91
762.64	2856.92
762.82	2506.71
763.00	2652.12
763.18	2867.16
763.35	2566.10
763.53	2738.13
763.71	2703.32
763.89	2629.59
764.07	2721.75
764.24	2643.93
764.42	2756.57
764.60	2674.65
764.78	2797.53
764.96	2832.34
765.13	2797.53
765.31	2543.58
765.49	2746.33
765.67	2490.33
765.84	2570.20
766.02	2506.71
766.20	2547.67
766.38	2748.37
766.56	2748.37
766.73	2725.85
766.91	2764.76
767.09	2703.32
767.27	2699.22
767.44	2553.82
767.62	2889.68
767.80	2775.00
767.98	2578.39
768.15	2686.94
768.33	2830.29
768.51	2731.99
768.69	2762.71
768.87	2654.17
769.04	2740.18
769.22	3084.24
769.40	2781.14
769.58	2826.20
769.75	2756.57
769.93	2891.73
770.11	2576.34
770.28	2543.58
770.46	2809.81
770.64	2779.09
770.82	2664.41
770.99	2588.63
771.17	2824.15
771.35	2605.02
771.53	2613.21
771.70	2650.07
771.88	2830.29
772.06	2691.03
772.23	2566.10
772.41	2666.46
772.59	2742.23
772.77	2631.64
772.94	2682.84
773.12	2715.61
773.30	2641.88
773.47	2660.31
773.65	2568.15
773.83	2723.80
774.01	2656.22
774.18	2432.99
774.36	2656.22
774.54	2498.52
774.71	2820.05
774.89	2555.86
775.07	2584.54
775.24	2596.82
775.42	2617.30
775.60	3016.66
775.78	2586.58
775.95	2586.58
776.13	2437.08
776.31	2461.66
776.48	2674.65
776.66	2795.48
776.84	2627.54
777.01	2559.96
777.19	2555.86
777.37	2639.83
777.54	2764.76
777.72	3059.67
777.90	2734.04
778.07	2576.34
778.25	3198.93
778.43	2891.73
778.60	2613.21
778.78	2680.79
778.96	2934.74
779.13	2564.06
779.31	2818.00
779.49	2578.39
779.66	2785.24
779.84	2643.93
780.01	2635.74
780.19	2674.65
780.37	2985.94
780.54	2852.82
780.72	2586.58
780.90	2666.46
781.07	2715.61
781.25	2656.22
781.43	2846.68
781.60	2643.93
781.78	2844.63
781.95	2750.42
782.13	2555.86
782.31	2641.88
782.48	2381.79
782.66	2662.36
782.83	2875.35
783.01	2760.66
783.19	2852.82
783.36	2709.46
783.54	2471.90
783.72	2736.09
783.89	2650.07
784.07	2725.85
784.24	2781.14
784.42	2844.63
784.60	2818.00
784.77	2770.90
784.95	2428.89
785.12	2648.02
785.30	2731.99
785.47	2586.58
785.65	2496.47
785.83	2609.11
786.00	2613.21
786.18	2748.37
786.35	2543.58
786.53	2592.73
786.71	2850.77
786.88	2779.09
787.06	2768.85
787.23	2623.45
787.41	2508.76
787.58	2713.56
787.76	2502.62
787.94	2559.96
788.11	2785.24
788.29	2519.00
788.46	2547.67
788.64	2469.85
788.81	2629.59
788.99	2602.97
789.16	2578.39
789.34	2658.26
789.52	2639.83
789.69	2670.55
789.87	2430.94
790.04	2621.40
790.22	2715.61
790.39	3041.23
790.57	2586.58
790.74	2596.82
790.92	2891.73
791.09	2418.65
791.27	2684.89
791.44	2746.33
791.62	2738.13
791.79	2766.81
791.97	2697.17
792.15	3026.90
792.32	2850.77
792.50	2777.05
792.67	2858.96
792.85	2838.48
793.02	2709.46
793.20	2676.70
793.37	2545.63
793.55	2654.17
793.72	2547.67
793.90	2815.96
794.07	2572.25
794.25	2605.02
794.42	2721.75
794.60	2637.78
794.77	2727.89
794.95	2818.00
795.12	2824.15
795.30	2715.61
795.47	2402.27
795.65	2983.89
795.82	2770.90
796.00	2578.39
796.17	2717.65
796.34	2486.23
796.52	2723.80
796.69	2793.43
796.87	2738.13
797.04	2756.57
797.22	2834.39
797.39	2734.04
797.57	2807.77
797.74	2695.13
797.92	2684.89
798.09	2682.84
798.27	2871.25
798.44	2615.26
798.62	2637.78
798.79	2723.80
798.96	2691.03
799.14	2652.12
799.31	3055.57
799.49	2686.94
799.66	2582.49
799.84	2754.52
800.01	2545.63
800.19	2783.19
800.36	2410.46
800.53	2664.41
800.71	2809.81
800.88	2967.51
801.06	2598.87
801.23	2527.19
801.41	2727.89
801.58	2691.03
801.75	2590.68
801.93	2717.65
802.10	2891.73
802.28	2654.17
802.45	2637.78
802.63	2703.32
802.80	2987.99
802.97	2639.83
803.15	2676.70
803.32	2551.77
803.50	2594.78
803.67	2621.40
803.84	2516.95
804.02	2680.79
804.19	2670.55
804.37	2457.56
804.54	2510.81
804.71	2549.72
804.89	2725.85
805.06	2643.93
805.24	2533.34
805.41	2574.30
805.58	2570.20
805.76	3024.85
805.93	2701.27
806.10	2871.25
806.28	2744.28
806.45	2731.99
806.63	2777.05
806.80	2721.75
806.97	2727.89
807.15	2703.32
807.32	2676.70
807.49	2654.17
807.67	2471.90
807.84	2813.91
808.01	2519.00
808.19	2865.11
808.36	3000.27
808.54	2664.41
808.71	2627.54
808.88	2742.23
809.06	2889.68
809.23	2899.92
809.40	2525.15
809.58	2668.50
809.75	2785.24
809.92	2547.67
810.10	3004.37
810.27	2648.02
810.44	2813.91
810.62	2848.72
810.79	2678.74
810.96	2609.11
811.14	2764.76
811.31	2791.38
811.48	2846.68
811.66	2719.70
811.83	2914.26
812.00	2807.77
812.18	2705.37
812.35	2920.40
812.52	2713.56
812.69	2625.50
812.87	2666.46
813.04	2510.81
813.21	2652.12
813.39	2605.02
813.56	2521.05
813.73	2875.35
813.91	2467.80
814.08	2688.98
814.25	2693.08
814.42	2498.52
814.60	2645.98
814.77	2713.56
814.94	2658.26
815.12	2686.94
815.29	2871.25
815.46	2666.46
815.63	2654.17
815.81	2752.47
815.98	2695.13
816.15	2688.98
816.33	2664.41
816.50	2625.50
816.67	2760.66
816.84	2723.80
817.02	2523.10
817.19	2664.41
817.36	2760.66
817.53	2721.75
817.71	2555.86
817.88	2793.43
818.05	2691.03
818.22	2615.26
818.40	2916.31
818.57	2619.35
818.74	2842.58
818.91	2787.29
819.09	2748.37
819.26	2744.28
819.43	2547.67
819.60	2574.30
819.78	2699.22
819.95	2719.70
820.12	2539.48
820.29	2969.55
820.47	2879.44
820.64	2506.71
820.81	2527.19
820.98	2584.54
821.15	2715.61
821.33	2717.65
821.50	2512.86
821.67	2709.46
821.84	2605.02
822.02	2678.74
822.19	2889.68
822.36	2660.31
822.53	2584.54
822.70	2514.91
822.88	2703.32
823.05	2891.73
823.22	2693.08
823.39	2607.06
823.56	2613.21
823.74	3033.04
823.91	2559.96
824.08	2553.82
824.25	2545.63
824.42	2969.55
824.60	2555.86
824.77	2678.74
824.94	2674.65
825.11	2684.89
825.28	2449.37
825.45	2705.37
825.63	2750.42
825.80	2553.82
825.97	2731.99
826.14	2658.26
826.31	2435.03
826.48	2795.48
826.66	2514.91
826.83	2631.64
827.00	2652.12
827.17	2588.63
827.34	2588.63
827.51	2529.24
827.69	2627.54
827.86	2564.06
828.03	2643.93
828.20	2629.59
828.37	2686.94
828.54	2762.71
828.71	2590.68
828.89	2725.85
829.06	2779.09
829.23	2838.48
829.40	2611.16
829.57	2514.91
829.74	2803.67
829.91	2617.30
830.09	2578.39
830.26	2824.15
830.43	2947.03
830.60	2672.60
830.77	2777.05
830.94	2887.64
831.11	2801.62
831.28	2629.59
831.46	2744.28
831.63	2684.89
831.80	2768.85
831.97	2566.10
832.14	2596.82
832.31	2674.65
832.48	2756.57
832.65	2830.29
832.82	2729.94
832.99	2701.27
833.17	2559.96
833.34	2940.88
833.51	2695.13
833.68	2449.37
833.85	2840.53
834.02	2488.28
834.19	2621.40
834.36	2594.78
834.53	2818.00
834.70	2844.63
834.87	2736.09
835.04	2486.23
835.22	2547.67
835.39	2705.37
835.56	2480.09
835.73	2551.77
835.90	2850.77
836.07	2623.45
836.24	2756.57
836.41	2516.95
836.58	2619.35
836.75	2840.53
836.92	2641.88
837.09	2523.10
837.26	2871.25
837.43	2846.68
837.60	2590.68
837.77	2600.92
837.94	2787.29
838.12	2867.16
838.29	2525.15
838.46	2432.99
838.63	2598.87
838.80	2930.64
838.97	2650.07
839.14	2574.30
839.31	2777.05
839.48	2881.49
839.65	2613.21
839.82	2652.12
839.99	2731.99
840.16	2811.86
840.33	2533.34
840.50	2600.92
840.67	2668.50
840.84	2369.50
841.01	2514.91
841.18	2449.37
841.35	2695.13
841.52	2863.06
841.69	2818.00
841.86	2557.91
842.03	2727.89
842.20	2861.01
842.37	2582.49
842.54	2564.06
842.71	2713.56
842.88	2529.24
843.05	2584.54
843.22	2562.01
843.39	2830.29
843.56	2584.54
843.73	2586.58
843.90	2582.49
844.07	2729.94
844.24	2805.72
844.41	2670.55
844.58	2600.92
844.75	2705.37
844.92	2697.17
845.09	2637.78
845.26	2609.11
845.43	2787.29
845.60	2586.58
845.77	2654.17
845.94	2625.50
846.10	2791.38
846.27	2519.00
846.44	2521.05
846.61	2523.10
846.78	2709.46
846.95	2899.92
847.12	2547.67
847.29	2600.92
847.46	2559.96
847.63	2775.00
847.80	2529.24
847.97	2656.22
848.14	3037.14
848.31	2654.17
848.48	2414.56
848.65	2641.88
848.82	2619.35
848.98	3129.30
849.15	2660.31
849.32	2725.85
849.49	2809.81
849.66	2635.74
849.83	2633.69
850.00	2512.86
850.17	2809.81
850.34	2629.59
850.51	2471.90
850.68	2590.68
850.85	3043.28
851.01	2789.33
851.18	2596.82
851.35	2600.92
851.52	2729.94
851.69	2957.27
851.86	2496.47
852.03	2510.81
852.20	2768.85
852.37	2705.37
852.53	2445.27
852.70	2469.85
852.87	2727.89
853.04	2793.43
853.21	2541.53
853.38	2723.80
853.55	2809.81
853.72	2850.77
853.89	2553.82
854.05	2475.99
854.22	2666.46
854.39	2688.98
854.56	2580.44
854.73	2748.37
854.90	2539.48
855.07	2727.89
855.23	2447.32
855.40	2484.19
855.57	2633.69
855.74	2420.70
855.91	2693.08
856.08	2494.43
856.25	2551.77
856.41	2615.26
856.58	2514.91
856.75	2551.77
856.92	2562.01
857.09	2861.01
857.26	2441.18
857.42	2584.54
857.59	2844.63
857.76	2637.78
857.93	2613.21
858.10	2609.11
858.27	2490.33
858.43	2736.09
858.60	2473.95
858.77	2504.67
858.94	2619.35
859.11	2844.63
859.27	2654.17
859.44	2519.00
859.61	2977.75
859.78	2738.13
859.95	2594.78
860.12	2535.39
860.28	3000.27
860.45	2957.27
860.62	2539.48
860.79	2662.36
860.95	2607.06
861.12	2611.16
861.29	2430.94
861.46	2559.96
861.63	2660.31
861.79	2734.04
861.96	2453.47
862.13	2525.15
862.30	2932.69
862.47	2564.06
862.63	2512.86
862.80	2652.12
862.97	2799.57
863.14	2740.18
863.30	2500.57
863.47	2457.56
863.64	2897.88
863.81	2731.99
863.97	2465.75
864.14	2609.11
864.31	2719.70
864.48	2758.61
864.65	2582.49
864.81	2713.56
864.98	2791.38
865.15	2887.64
865.32	2645.98
865.48	2684.89
865.65	2938.84
865.82	2650.07
865.98	2656.22
866.15	2629.59
866.32	2662.36
866.49	2633.69
866.65	2682.84
866.82	2543.58
866.99	2693.08
867.16	2609.11
867.32	2549.72
867.49	2531.29
867.66	2629.59
867.83	2631.64
867.99	2455.51
868.16	2537.43
868.33	2559.96
868.49	2668.50
868.66	2535.39
868.83	2633.69
868.99	2715.61
869.16	2711.51
869.33	2740.18
869.50	2625.50
869.66	2678.74
869.83	2676.70
870.00	2439.13
870.16	2705.37
870.33	2742.23
870.50	2818.00
870.66	2641.88
870.83	2627.54
871.00	2705.37
871.17	2789.33
871.33	2592.73
871.50	2484.19
871.67	2643.93
871.83	2652.12
872.00	2709.46
872.17	2537.43
872.33	2992.08
872.50	2883.54
872.67	2551.77
872.83	2562.01
873.00	2818.00
873.17	2738.13
873.33	2635.74
873.50	2596.82
873.67	2650.07
873.83	2600.92
874.00	2539.48
874.16	2688.98
874.33	2750.42
874.50	2543.58
874.66	2602.97
874.83	2574.30
875.00	2813.91
875.16	2822.10
875.33	2680.79
875.50	2367.45
875.66	2625.50
875.83	2717.65
875.99	2744.28
876.16	2543.58
876.33	2545.63
876.49	2695.13
876.66	2600.92
876.83	2668.50
876.99	2506.71
877.16	2731.99
877.32	2519.00
877.49	2623.45
877.66	2768.85
877.82	2883.54
877.99	2570.20
878.15	2742.23
878.32	2758.61
878.49	2684.89
878.65	2670.55
878.82	2795.48
878.98	2684.89
879.15	2856.92
879.32	2777.05
879.48	2619.35
879.65	2676.70
879.81	2609.11
879.98	2500.57
880.15	2635.74
880.31	2676.70
880.48	2580.44
880.64	2666.46
880.81	2635.74
880.97	2914.26
881.14	2920.40
881.31	2498.52
881.47	2760.66
881.64	2717.65
881.80	2480.09
881.97	2629.59
882.13	2656.22
882.30	2498.52
882.47	2629.59
882.63	2553.82
882.80	2480.09
882.96	2605.02
883.13	2881.49
883.29	2588.63
883.46	2602.97
883.62	2932.69
883.79	2731.99
883.95	2777.05
884.12	2578.39
884.29	2869.20
884.45	2693.08
884.62	2658.26
884.78	2426.84
884.95	3026.90
885.11	2588.63
885.28	2641.88
885.44	2555.86
885.61	2877.40
885.77	2875.35
885.94	2666.46
886.10	2633.69
886.27	2781.14
886.43	2932.69
886.60	2660.31
886.76	2570.20
886.93	2547.67
887.09	2783.19
887.26	2418.65
887.42	2680.79
887.59	2879.44
887.75	3063.76
887.92	2750.42
888.08	2703.32
888.25	2983.89
888.41	2832.34
888.58	2672.60
888.74	2519.00
888.91	2602.97
>>>>>End Processed Spectral Data<<<<<
