SpectraSuite Data File
++++++++++++++++++++++++++++++++++++
Date: Thu May 05 16:20:16 CEST 2016
User: root
Dark Spectrum Present: No
Reference Spectrum Present: No
Number of Sampled Component Spectra: 1
Spectrometers: USB4C02835
Integration Time (usec): 100000 (USB4C02835)
Spectra Averaged: 1 (USB4C02835)
Boxcar Smoothing: 0 (USB4C02835)
Correct for Electrical Dark: No (USB4C02835)
Strobe/Lamp Enabled: No (USB4C02835)
Correct for Detector Non-linearity: No (USB4C02835)
Correct for Stray Light: No (USB4C02835)
Number of Pixels in Processed Spectrum: 3648
>>>>>Begin Processed Spectral Data<<<<<
177.47	2041.82
177.69	2041.82
177.91	2041.82
178.13	2004.96
178.36	2017.25
178.58	2596.82
178.80	2740.18
179.02	2473.95
179.24	2559.96
179.46	2410.46
179.68	2611.16
179.90	2668.50
180.13	2772.95
180.35	2449.37
180.57	2486.23
180.79	2883.54
181.01	2752.47
181.23	2486.23
181.45	2566.10
181.67	2832.34
181.90	2826.20
182.12	2502.62
182.34	2344.92
182.56	2740.18
182.78	2729.94
183.00	2478.04
183.22	2596.82
183.44	2523.10
183.66	3084.24
183.89	2637.78
184.11	2512.86
184.33	2793.43
184.55	2944.98
184.77	2525.15
184.99	2537.43
185.21	2639.83
185.43	3110.86
185.65	2475.99
185.87	2461.66
186.10	3065.81
186.32	3026.90
186.54	2650.07
186.76	2686.94
186.98	2840.53
187.20	2703.32
187.42	2621.40
187.64	2457.56
187.86	2760.66
188.08	2897.88
188.30	2437.08
188.52	2602.97
188.75	2963.41
188.97	2953.17
189.19	2514.91
189.41	2512.86
189.63	2793.43
189.85	2650.07
190.07	2371.55
190.29	2338.78
190.51	2838.48
190.73	2547.67
190.95	2566.10
191.17	2557.91
191.39	2455.51
191.61	2682.84
191.84	2465.75
192.06	2686.94
192.28	2564.06
192.50	3129.30
192.72	2574.30
192.94	2551.77
193.16	2846.68
193.38	2770.90
193.60	2467.80
193.82	2584.54
194.04	2873.30
194.26	2766.81
194.48	2521.05
194.70	2523.10
194.92	2648.02
195.14	2840.53
195.36	2447.32
195.58	2553.82
195.80	2717.65
196.02	2629.59
196.24	2459.61
196.46	2557.91
196.69	2635.74
196.91	3039.19
197.13	2525.15
197.35	2555.86
197.57	2953.17
197.79	2844.63
198.01	2525.15
198.23	2564.06
198.45	2760.66
198.67	2541.53
198.89	2398.17
199.11	2629.59
199.33	2623.45
199.55	2455.51
199.77	2545.63
199.99	2576.34
200.21	2611.16
200.43	2789.33
200.65	2471.90
200.87	2373.60
201.09	2742.23
201.31	2715.61
201.53	2551.77
201.75	2629.59
201.97	2781.14
202.19	2756.57
202.41	2545.63
202.63	2654.17
202.85	2766.81
203.07	2748.37
203.29	2617.30
203.51	2414.56
203.73	2645.98
203.95	3123.15
204.17	2486.23
204.39	2682.84
204.61	2641.88
204.83	2662.36
205.05	2600.92
205.27	2506.71
205.49	3035.09
205.71	2658.26
205.93	2445.27
206.15	2432.99
206.37	2717.65
206.59	2688.98
206.81	2418.65
207.03	2457.56
207.25	2602.97
207.47	2693.08
207.69	2467.80
207.91	2713.56
208.13	2994.13
208.34	2598.87
208.56	2461.66
208.78	2494.43
209.00	2701.27
209.22	2607.06
209.44	2523.10
209.66	2512.86
209.88	2658.26
210.10	2588.63
210.32	2535.39
210.54	2553.82
210.76	2576.34
210.98	2879.44
211.20	2394.08
211.42	2596.82
211.64	2875.35
211.86	2752.47
212.08	2545.63
212.30	2512.86
212.52	2725.85
212.74	2731.99
212.96	2602.97
213.17	2584.54
213.39	2801.62
213.61	2965.46
213.83	2580.44
214.05	2353.12
214.27	2822.10
214.49	2547.67
214.71	2457.56
214.93	2652.12
215.15	2717.65
215.37	2799.57
215.59	2379.74
215.81	2631.64
216.03	2897.88
216.24	2707.41
216.46	2537.43
216.68	2510.81
216.90	2858.96
217.12	2871.25
217.34	2498.52
217.56	2617.30
217.78	2963.41
218.00	2779.09
218.22	2615.26
218.44	2600.92
218.66	2775.00
218.87	3035.09
219.09	2580.44
219.31	2506.71
219.53	2863.06
219.75	2654.17
219.97	2621.40
220.19	2510.81
220.41	2693.08
220.63	2967.51
220.85	2543.58
221.06	2512.86
221.28	2891.73
221.50	2844.63
221.72	2506.71
221.94	2523.10
222.16	2781.14
222.38	2842.58
222.60	2494.43
222.82	2545.63
223.03	2863.06
223.25	2559.96
223.47	2543.58
223.69	2758.61
223.91	2908.12
224.13	2775.00
224.35	2443.23
224.57	2641.88
224.78	2818.00
225.00	2631.64
225.22	2613.21
225.44	2508.76
225.66	2908.12
225.88	2625.50
226.10	2676.70
226.32	2488.28
226.53	3014.61
226.75	2680.79
226.97	2508.76
227.19	2519.00
227.41	2590.68
227.63	2686.94
227.85	2285.53
228.06	2539.48
228.28	2795.48
228.50	2811.86
228.72	2398.17
228.94	2506.71
229.16	2523.10
229.37	2586.58
229.59	2430.94
229.81	2719.70
230.03	2693.08
230.25	2588.63
230.47	2389.98
230.69	2478.04
230.90	2895.83
231.12	2641.88
231.34	2613.21
231.56	2564.06
231.78	2564.06
232.00	2705.37
232.21	2508.76
232.43	2482.14
232.65	2428.89
232.87	2824.15
233.09	2412.51
233.30	2498.52
233.52	2856.92
233.74	2740.18
233.96	2469.85
234.18	2629.59
234.40	2772.95
234.61	3041.23
234.83	2447.32
235.05	2535.39
235.27	3100.62
235.49	2965.46
235.70	2490.33
235.92	2598.87
236.14	2799.57
236.36	2998.23
236.58	2363.36
236.79	2652.12
237.01	2723.80
237.23	2744.28
237.45	2717.65
237.67	2529.24
237.88	2805.72
238.10	3051.47
238.32	2394.08
238.54	2428.89
238.76	2625.50
238.97	2600.92
239.19	2435.03
239.41	2629.59
239.63	2850.77
239.85	2645.98
240.06	2510.81
240.28	2537.43
240.50	2848.72
240.72	2688.98
240.93	2381.79
241.15	2580.44
241.37	2727.89
241.59	2967.51
241.81	2512.86
242.02	2584.54
242.24	2809.81
242.46	2748.37
242.68	2414.56
242.89	2420.70
243.11	2832.34
243.33	2723.80
243.55	2523.10
243.76	2461.66
243.98	2607.06
244.20	2736.09
244.42	2533.34
244.64	2506.71
244.85	2529.24
245.07	2684.89
245.29	2525.15
245.51	2600.92
245.72	2717.65
245.94	2887.64
246.16	2459.61
246.38	2478.04
246.59	2674.65
246.81	2711.51
247.03	2441.18
247.24	2396.12
247.46	2668.50
247.68	2705.37
247.90	2424.80
248.11	2537.43
248.33	2791.38
248.55	2656.22
248.77	2549.72
248.98	2594.78
249.20	2904.02
249.42	2822.10
249.64	2539.48
249.85	2445.27
250.07	2699.22
250.29	2807.77
250.50	2617.30
250.72	2482.14
250.94	2807.77
251.16	3006.42
251.37	2492.38
251.59	2584.54
251.81	2838.48
252.02	3022.80
252.24	2404.32
252.46	2650.07
252.68	2627.54
252.89	2641.88
253.11	2379.74
253.33	2713.56
253.54	2912.21
253.76	2484.19
253.98	2527.19
254.20	2471.90
254.41	2510.81
254.63	2625.50
254.85	2387.93
255.06	2564.06
255.28	2768.85
255.50	2637.78
255.71	2519.00
255.93	2392.03
256.15	2703.32
256.36	2818.00
256.58	2465.75
256.80	2523.10
257.02	2686.94
257.23	2711.51
257.45	2547.67
257.67	2600.92
257.88	2613.21
258.10	2807.77
258.32	2531.29
258.53	2523.10
258.75	2942.93
258.97	2607.06
259.18	2498.52
259.40	2424.80
259.62	2983.89
259.83	2965.46
260.05	2578.39
260.27	3209.17
260.48	2889.68
260.70	2488.28
260.92	2416.60
261.13	2568.15
261.35	2736.09
261.57	2693.08
261.78	2420.70
262.00	2469.85
262.22	2760.66
262.43	2617.30
262.65	2486.23
262.86	2539.48
263.08	3076.05
263.30	2740.18
263.51	2404.32
263.73	2482.14
263.95	2957.27
264.16	2621.40
264.38	2361.31
264.60	2498.52
264.81	2750.42
265.03	2832.34
265.25	2824.15
265.46	2545.63
265.68	2879.44
265.89	2723.80
266.11	2432.99
266.33	2506.71
266.54	2908.12
266.76	2826.20
266.98	2580.44
267.19	2611.16
267.41	2807.77
267.62	2727.89
267.84	2351.07
268.06	2682.84
268.27	2736.09
268.49	2852.82
268.70	2643.93
268.92	2555.86
269.14	2637.78
269.35	2475.99
269.57	2523.10
269.79	2559.96
270.00	2734.04
270.22	2987.99
270.43	2439.13
270.65	2387.93
270.87	2818.00
271.08	2901.97
271.30	2658.26
271.51	2549.72
271.73	2830.29
271.95	2863.06
272.16	2441.18
272.38	2664.41
272.59	2699.22
272.81	2826.20
273.02	2439.13
273.24	2627.54
273.46	2846.68
273.67	2596.82
273.89	2418.65
274.10	2545.63
274.32	2893.78
274.54	2785.24
274.75	2547.67
274.97	2459.61
275.18	2695.13
275.40	2725.85
275.61	2596.82
275.83	2582.49
276.05	2572.25
276.26	2731.99
276.48	2629.59
276.69	2555.86
276.91	2672.60
277.12	2963.41
277.34	2688.98
277.55	2709.46
277.77	2752.47
277.99	2621.40
278.20	2535.39
278.42	2404.32
278.63	2678.74
278.85	2549.72
279.06	2486.23
279.28	2715.61
279.49	2908.12
279.71	2820.05
279.93	2652.12
280.14	2645.98
280.36	2617.30
280.57	2871.25
280.79	2674.65
281.00	2504.67
281.22	2590.68
281.43	2895.83
281.65	2392.03
281.86	2529.24
282.08	2815.96
282.29	2949.08
282.51	2512.86
282.73	2457.56
282.94	2467.80
283.16	2772.95
283.37	2684.89
283.59	2633.69
283.80	2754.52
284.02	2688.98
284.23	2693.08
284.45	2592.73
284.66	2627.54
284.88	2529.24
285.09	2660.31
285.31	2725.85
285.52	2756.57
285.74	2453.47
285.95	2768.85
286.17	2748.37
286.38	2844.63
286.60	2613.21
286.81	2547.67
287.03	2529.24
287.24	2717.65
287.46	2770.90
287.67	2695.13
287.89	2846.68
288.10	2746.33
288.32	2684.89
288.53	2762.71
288.75	2621.40
288.96	2826.20
289.18	2674.65
289.39	2521.05
289.61	2701.27
289.82	3020.75
290.04	2965.46
290.25	2494.43
290.47	2654.17
290.68	2746.33
290.90	2764.76
291.11	2424.80
291.33	2695.13
291.54	2686.94
291.76	2674.65
291.97	2682.84
292.18	2678.74
292.40	2688.98
292.61	2686.94
292.83	2879.44
293.04	2596.82
293.26	2811.86
293.47	2639.83
293.69	2547.67
293.90	2523.10
294.12	2844.63
294.33	2674.65
294.55	2635.74
294.76	2711.51
294.97	2904.02
295.19	3082.19
295.40	2574.30
295.62	2674.65
295.83	2877.40
296.05	2658.26
296.26	2775.00
296.48	2590.68
296.69	2783.19
296.90	2711.51
297.12	2736.09
297.33	2768.85
297.55	2678.74
297.76	2719.70
297.98	2772.95
298.19	2717.65
298.41	2717.65
298.62	2557.91
298.83	2746.33
299.05	2650.07
299.26	2680.79
299.48	2572.25
299.69	2678.74
299.90	2580.44
300.12	2568.15
300.33	2781.14
300.55	2656.22
300.76	2715.61
300.98	2572.25
301.19	2822.10
301.40	2562.01
301.62	2650.07
301.83	2824.15
302.05	2785.24
302.26	2584.54
302.47	2719.70
302.69	2613.21
302.90	2781.14
303.12	2482.14
303.33	2719.70
303.54	2979.79
303.76	2727.89
303.97	2613.21
304.19	2750.42
304.40	2607.06
304.61	2801.62
304.83	2731.99
305.04	2670.55
305.26	2840.53
305.47	2662.36
305.68	2594.78
305.90	2502.62
306.11	2867.16
306.33	2648.02
306.54	2525.15
306.75	2605.02
306.97	2512.86
307.18	2629.59
307.39	2576.34
307.61	2662.36
307.82	2672.60
308.04	2746.33
308.25	2488.28
308.46	2729.94
308.68	2666.46
308.89	2629.59
309.10	2719.70
309.32	2641.88
309.53	2727.89
309.74	2824.15
309.96	2539.48
310.17	2725.85
310.39	2652.12
310.60	2871.25
310.81	2684.89
311.03	2465.75
311.24	2787.29
311.45	2684.89
311.67	2897.88
311.88	2686.94
312.09	2611.16
312.31	2586.58
312.52	2547.67
312.73	2572.25
312.95	2586.58
313.16	2596.82
313.37	2715.61
313.59	2756.57
313.80	2891.73
314.01	3037.14
314.23	2588.63
314.44	2596.82
314.65	2557.91
314.87	2557.91
315.08	2621.40
315.29	2478.04
315.51	2564.06
315.72	2486.23
315.93	2652.12
316.15	2682.84
316.36	2666.46
316.57	2756.57
316.79	2686.94
317.00	2621.40
317.21	2764.76
317.43	2582.49
317.64	2582.49
317.85	2484.19
318.07	2621.40
318.28	2582.49
318.49	2777.05
318.70	2811.86
318.92	2801.62
319.13	2840.53
319.34	2797.53
319.56	2643.93
319.77	2760.66
319.98	2848.72
320.20	2693.08
320.41	2750.42
320.62	2791.38
320.83	2582.49
321.05	2863.06
321.26	2672.60
321.47	2736.09
321.69	2869.20
321.90	2531.29
322.11	2598.87
322.32	2744.28
322.54	2889.68
322.75	2557.91
322.96	3219.41
323.18	2529.24
323.39	2445.27
323.60	2523.10
323.81	2775.00
324.03	2631.64
324.24	2643.93
324.45	2660.31
324.66	2586.58
324.88	2877.40
325.09	2985.94
325.30	2584.54
325.52	2631.64
325.73	2754.52
325.94	2566.10
326.15	2428.89
326.37	2539.48
326.58	2799.57
326.79	2904.02
327.00	2531.29
327.22	2592.73
327.43	2693.08
327.64	2594.78
327.85	2715.61
328.07	2660.31
328.28	2947.03
328.49	2590.68
328.70	2617.30
328.92	2594.78
329.13	2678.74
329.34	2803.67
329.55	2797.53
329.76	2791.38
329.98	2617.30
330.19	2932.69
330.40	2748.37
330.61	2699.22
330.83	2789.33
331.04	2623.45
331.25	2701.27
331.46	2613.21
331.68	2607.06
331.89	2873.30
332.10	2609.11
332.31	2535.39
332.52	2777.05
332.74	2820.05
332.95	2439.13
333.16	2521.05
333.37	2838.48
333.58	2629.59
333.80	2621.40
334.01	2453.47
334.22	2674.65
334.43	2625.50
334.64	2539.48
334.86	2502.62
335.07	2531.29
335.28	2959.31
335.49	2447.32
335.70	2715.61
335.92	2887.64
336.13	3002.32
336.34	2664.41
336.55	2625.50
336.76	2850.77
336.98	2471.90
337.19	2658.26
337.40	2740.18
337.61	3157.97
337.82	2684.89
338.04	2713.56
338.25	2402.27
338.46	2691.03
338.67	2670.55
338.88	2488.28
339.09	2482.14
339.31	2674.65
339.52	2619.35
339.73	2490.33
339.94	2752.47
340.15	2852.82
340.36	2615.26
340.58	2600.92
340.79	2633.69
341.00	2807.77
341.21	2619.35
341.42	2803.67
341.63	2607.06
341.85	2850.77
342.06	2752.47
342.27	2568.15
342.48	2729.94
342.69	2496.47
342.90	2766.81
343.12	2766.81
343.33	2527.19
343.54	2879.44
343.75	2895.83
343.96	2723.80
344.17	2496.47
344.38	2711.51
344.60	2672.60
344.81	2570.20
345.02	2557.91
345.23	2932.69
345.44	3160.02
345.65	2672.60
345.86	2699.22
346.07	2748.37
346.29	2588.63
346.50	2670.55
346.71	2723.80
346.92	2926.55
347.13	3059.67
347.34	2719.70
347.55	2478.04
347.76	2813.91
347.98	2553.82
348.19	2641.88
348.40	2789.33
348.61	2605.02
348.82	2856.92
349.03	2578.39
349.24	2559.96
349.45	3004.37
349.66	2453.47
349.88	2547.67
350.09	2478.04
350.30	3016.66
350.51	2949.08
350.72	2666.46
350.93	2656.22
351.14	2615.26
351.35	2748.37
351.56	2645.98
351.77	2648.02
351.99	2760.66
352.20	3000.27
352.41	2666.46
352.62	2471.90
352.83	2678.74
353.04	2744.28
353.25	2523.10
353.46	2678.74
353.67	2879.44
353.88	2443.23
354.09	2607.06
354.30	2588.63
354.52	2818.00
354.73	2777.05
354.94	2596.82
355.15	2680.79
355.36	3016.66
355.57	2611.16
355.78	2553.82
355.99	2602.97
356.20	2750.42
356.41	2901.97
356.62	2648.02
356.83	2662.36
357.04	2904.02
357.25	2506.71
357.46	2482.14
357.68	2568.15
357.89	2570.20
358.10	2725.85
358.31	2643.93
358.52	2590.68
358.73	2588.63
358.94	2545.63
359.15	2631.64
359.36	2715.61
359.57	2695.13
359.78	2684.89
359.99	2789.33
360.20	2533.34
360.41	2701.27
360.62	2836.44
360.83	2645.98
361.04	2588.63
361.25	2775.00
361.46	2969.55
361.67	2768.85
361.88	2723.80
362.09	2875.35
362.30	2725.85
362.51	2506.71
362.72	2668.50
362.93	2826.20
363.14	2844.63
363.35	2777.05
363.56	2516.95
363.78	2840.53
363.99	2873.30
364.20	2633.69
364.41	2676.70
364.62	2926.55
364.83	2719.70
365.04	2658.26
365.25	2641.88
365.46	3104.72
365.67	2562.01
365.88	2701.27
366.09	2576.34
366.30	2629.59
366.51	2805.72
366.72	2506.71
366.93	2594.78
367.14	2740.18
367.35	2908.12
367.56	2551.77
367.77	2781.14
367.98	2711.51
368.18	2715.61
368.39	2613.21
368.60	2492.38
368.81	2830.29
369.02	2740.18
369.23	2639.83
369.44	2510.81
369.65	2627.54
369.86	2768.85
370.07	2731.99
370.28	2551.77
370.49	2832.34
370.70	2738.13
370.91	2510.81
371.12	2482.14
371.33	2869.20
371.54	2643.93
371.75	2760.66
371.96	2385.88
372.17	2736.09
372.38	2723.80
372.59	2695.13
372.80	2576.34
373.01	2709.46
373.22	2715.61
373.43	2676.70
373.64	2494.43
373.85	2904.02
374.06	3010.51
374.26	2752.47
374.47	2691.03
374.68	2871.25
374.89	2750.42
375.10	2605.02
375.31	2707.41
375.52	2731.99
375.73	2723.80
375.94	2506.71
376.15	2748.37
376.36	2654.17
376.57	2705.37
376.78	2564.06
376.99	2635.74
377.20	2873.30
377.40	2641.88
377.61	2854.87
377.82	2572.25
378.03	2942.93
378.24	2822.10
378.45	2654.17
378.66	2652.12
378.87	2473.95
379.08	2519.00
379.29	2643.93
379.50	2791.38
379.71	2660.31
379.91	2807.77
380.12	2654.17
380.33	2643.93
380.54	2619.35
380.75	2717.65
380.96	2611.16
381.17	2643.93
381.38	2658.26
381.59	2731.99
381.80	2633.69
382.00	2772.95
382.21	2764.76
382.42	2998.23
382.63	3012.56
382.84	2818.00
383.05	2891.73
383.26	2912.21
383.47	2668.50
383.68	2609.11
383.88	2856.92
384.09	2654.17
384.30	2793.43
384.51	2699.22
384.72	2691.03
384.93	2551.77
385.14	2678.74
385.35	2740.18
385.55	2545.63
385.76	2897.88
385.97	2602.97
386.18	2484.19
386.39	2592.73
386.60	2723.80
386.81	2629.59
387.02	2437.08
387.22	2578.39
387.43	2805.72
387.64	2738.13
387.85	2885.59
388.06	2815.96
388.27	3985.35
388.48	7362.45
388.68	11032.41
388.89	13270.84
389.10	14333.73
389.31	13987.63
389.52	10921.82
389.73	9381.74
389.93	8503.17
390.14	7798.66
390.35	7042.96
390.56	6348.70
390.77	5269.42
390.98	4054.98
391.18	3375.05
391.39	3086.29
391.60	2826.20
391.81	2826.20
392.02	2697.17
392.23	3043.28
392.43	2772.95
392.64	2772.95
392.85	2678.74
393.06	2908.12
393.27	2660.31
393.47	2555.86
393.68	2688.98
393.89	2697.17
394.10	2908.12
394.31	2568.15
394.52	2551.77
394.72	2633.69
394.93	2973.65
395.14	2506.71
395.35	2707.41
395.56	2641.88
395.76	2742.23
395.97	2693.08
396.18	2772.95
396.39	2803.67
396.60	3207.12
396.80	2901.97
397.01	2936.79
397.22	2832.34
397.43	2897.88
397.64	2598.87
397.84	2801.62
398.05	3078.10
398.26	2686.94
398.47	2715.61
398.67	2715.61
398.88	2705.37
399.09	2801.62
399.30	2600.92
399.51	2691.03
399.71	2559.96
399.92	2691.03
400.13	2686.94
400.34	2605.02
400.54	2760.66
400.75	3035.09
400.96	2734.04
401.17	2856.92
401.37	2834.39
401.58	2701.27
401.79	2602.97
402.00	2770.90
402.21	3078.10
402.41	2965.46
402.62	2916.31
402.83	2990.03
403.04	3030.99
403.24	3395.53
403.45	2666.46
403.66	2924.50
403.87	2916.31
404.07	3022.80
404.28	2875.35
404.49	2805.72
404.70	2686.94
404.90	2781.14
405.11	2641.88
405.32	2719.70
405.52	2660.31
405.73	2713.56
405.94	2555.86
406.15	2650.07
406.35	2875.35
406.56	2836.44
406.77	2742.23
406.98	2641.88
407.18	2648.02
407.39	2969.55
407.60	2686.94
407.80	2680.79
408.01	2658.26
408.22	2789.33
408.43	2494.43
408.63	2744.28
408.84	2848.72
409.05	2818.00
409.25	2568.15
409.46	2559.96
409.67	2623.45
409.88	2621.40
410.08	2678.74
410.29	2623.45
410.50	2834.39
410.70	2779.09
410.91	2533.34
411.12	2686.94
411.32	2799.57
411.53	2611.16
411.74	2674.65
411.95	2660.31
412.15	2777.05
412.36	2904.02
412.57	2738.13
412.77	2822.10
412.98	2633.69
413.19	2600.92
413.39	2666.46
413.60	2688.98
413.81	2887.64
414.01	2486.23
414.22	2711.51
414.43	2807.77
414.63	2637.78
414.84	2914.26
415.05	2670.55
415.25	2482.14
415.46	2865.11
415.67	2684.89
415.87	2752.47
416.08	2645.98
416.29	2695.13
416.49	2824.15
416.70	2643.93
416.91	2566.10
417.11	2736.09
417.32	2904.02
417.53	2768.85
417.73	2801.62
417.94	2725.85
418.15	2703.32
418.35	2719.70
418.56	2672.60
418.77	3071.95
418.97	2738.13
419.18	2701.27
419.38	2349.02
419.59	2717.65
419.80	2947.03
420.00	2545.63
420.21	2617.30
420.42	2858.96
420.62	2688.98
420.83	2645.98
421.04	2566.10
421.24	2691.03
421.45	2916.31
421.65	2752.47
421.86	2666.46
422.07	2805.72
422.27	2805.72
422.48	2611.16
422.69	2564.06
422.89	2699.22
423.10	2662.36
423.30	2592.73
423.51	2719.70
423.72	2760.66
423.92	2809.81
424.13	2475.99
424.33	2746.33
424.54	2889.68
424.75	2770.90
424.95	2832.34
425.16	2611.16
425.36	2725.85
425.57	2852.82
425.78	2752.47
425.98	2734.04
426.19	2717.65
426.39	2596.82
426.60	2693.08
426.81	2795.48
427.01	2725.85
427.22	2607.06
427.42	2510.81
427.63	2576.34
427.83	2867.16
428.04	2926.55
428.25	2725.85
428.45	2783.19
428.66	2846.68
428.86	2650.07
429.07	2609.11
429.28	2672.60
429.48	2633.69
429.69	2658.26
429.89	2688.98
430.10	2553.82
430.30	2877.40
430.51	2897.88
430.71	2543.58
430.92	2736.09
431.13	2727.89
431.33	2766.81
431.54	2764.76
431.74	2863.06
431.95	3069.91
432.15	2559.96
432.36	2592.73
432.56	2658.26
432.77	2924.50
432.98	2920.40
433.18	2691.03
433.39	2559.96
433.59	2688.98
433.80	2983.89
434.00	2811.86
434.21	2666.46
434.41	2619.35
434.62	3147.73
434.82	2512.86
435.03	2523.10
435.23	2764.76
435.44	2516.95
435.64	2619.35
435.85	2662.36
436.06	2824.15
436.26	2852.82
436.47	2648.02
436.67	2508.76
436.88	2725.85
437.08	2840.53
437.29	2795.48
437.49	2717.65
437.70	2992.08
437.90	2746.33
438.11	2815.96
438.31	2664.41
438.52	2883.54
438.72	2897.88
438.93	2936.79
439.13	2766.81
439.34	2842.58
439.54	2658.26
439.75	2781.14
439.95	2828.24
440.16	2584.54
440.36	2795.48
440.57	2797.53
440.77	2709.46
440.98	2697.17
441.18	2781.14
441.39	2572.25
441.59	2541.53
441.80	2922.45
442.00	2693.08
442.21	2891.73
442.41	2465.75
442.62	2852.82
442.82	2641.88
443.02	2627.54
443.23	2652.12
443.43	2654.17
443.64	2867.16
443.84	2629.59
444.05	2832.34
444.25	2693.08
444.46	2674.65
444.66	2654.17
444.87	2869.20
445.07	2547.67
445.28	2723.80
445.48	2858.96
445.69	2688.98
445.89	3033.04
446.09	2742.23
446.30	2920.40
446.50	3067.86
446.71	4489.15
446.91	5787.56
447.12	6426.53
447.32	6766.49
447.53	6504.35
447.73	5408.69
447.93	4827.06
448.14	4622.27
448.34	4493.24
448.55	3917.76
448.75	3839.94
448.96	3569.61
449.16	3299.28
449.36	3203.02
449.57	2885.59
449.77	2775.00
449.98	2717.65
450.18	2865.11
450.39	2615.26
450.59	2811.86
450.79	2695.13
451.00	2627.54
451.20	2867.16
451.41	2717.65
451.61	2756.57
451.81	2666.46
452.02	2574.30
452.22	2668.50
452.43	2627.54
452.63	2572.25
452.84	2684.89
453.04	2617.30
453.24	2801.62
453.45	2723.80
453.65	2715.61
453.86	2701.27
454.06	2764.76
454.26	2686.94
454.47	2592.73
454.67	2842.58
454.87	2719.70
455.08	2734.04
455.28	2828.24
455.49	2781.14
455.69	2629.59
455.89	2998.23
456.10	2793.43
456.30	2623.45
456.51	2826.20
456.71	2809.81
456.91	2707.41
457.12	2648.02
457.32	2754.52
457.52	2566.10
457.73	2793.43
457.93	2738.13
458.14	2740.18
458.34	2535.39
458.54	2633.69
458.75	2521.05
458.95	2772.95
459.15	2648.02
459.36	2707.41
459.56	2609.11
459.76	3006.42
459.97	2736.09
460.17	2650.07
460.37	2676.70
460.58	2686.94
460.78	2789.33
460.99	2629.59
461.19	2623.45
461.39	2664.41
461.60	2727.89
461.80	2658.26
462.00	2539.48
462.21	2703.32
462.41	2607.06
462.61	2586.58
462.82	2492.38
463.02	2834.39
463.22	2754.52
463.43	2777.05
463.63	2580.44
463.83	2881.49
464.04	2795.48
464.24	2631.64
464.44	2555.86
464.64	2768.85
464.85	2811.86
465.05	2742.23
465.25	2594.78
465.46	2602.97
465.66	2854.87
465.86	2729.94
466.07	2695.13
466.27	2695.13
466.47	2545.63
466.68	2494.43
466.88	2734.04
467.08	2865.11
467.29	2928.60
467.49	2654.17
467.69	2750.42
467.89	2807.77
468.10	2652.12
468.30	2721.75
468.50	2789.33
468.71	2908.12
468.91	2605.02
469.11	2871.25
469.31	2772.95
469.52	2566.10
469.72	3065.81
469.92	2875.35
470.13	2631.64
470.33	2744.28
470.53	2795.48
470.73	3014.61
470.94	3278.80
471.14	3440.59
471.34	3850.18
471.54	3534.79
471.75	3286.99
471.95	3104.72
472.15	3149.78
472.36	3164.11
472.56	3033.04
472.76	3190.74
472.96	3059.67
473.17	3006.42
473.37	2838.48
473.57	2727.89
473.77	2863.06
473.98	2676.70
474.18	2551.77
474.38	3203.02
474.58	2678.74
474.79	2592.73
474.99	2846.68
475.19	2856.92
475.39	2633.69
475.60	2691.03
475.80	2684.89
476.00	2775.00
476.20	2695.13
476.41	2742.23
476.61	2699.22
476.81	2887.64
477.01	2574.30
477.21	2926.55
477.42	2811.86
477.62	2613.21
477.82	2850.77
478.02	2547.67
478.23	2723.80
478.43	2562.01
478.63	2691.03
478.83	2590.68
479.03	2621.40
479.24	2912.21
479.44	3020.75
479.64	2512.86
479.84	2432.99
480.04	2686.94
480.25	2906.07
480.45	2588.63
480.65	2660.31
480.85	2979.79
481.06	2609.11
481.26	2645.98
481.46	2686.94
481.66	2748.37
481.86	2627.54
482.06	2828.24
482.27	2668.50
482.47	2660.31
482.67	2762.71
482.87	2639.83
483.07	2754.52
483.28	2672.60
483.48	2584.54
483.68	2686.94
483.88	2508.76
484.08	2424.80
484.29	2609.11
484.49	2623.45
484.69	2514.91
484.89	2891.73
485.09	2830.29
485.29	2693.08
485.50	2787.29
485.70	2715.61
485.90	2910.16
486.10	2691.03
486.30	2643.93
486.50	2910.16
486.71	2715.61
486.91	2729.94
487.11	2719.70
487.31	2512.86
487.51	2854.87
487.71	2553.82
487.91	2555.86
488.12	2660.31
488.32	2451.42
488.52	2684.89
488.72	2383.84
488.92	2721.75
489.12	2873.30
489.32	2822.10
489.53	2674.65
489.73	2521.05
489.93	2904.02
490.13	2596.82
490.33	2523.10
490.53	2711.51
490.73	2965.46
490.94	2459.61
491.14	2768.85
491.34	2834.39
491.54	2869.20
491.74	3499.98
491.94	4036.55
492.14	4464.57
492.34	4380.61
492.54	4159.42
492.75	3571.66
492.95	3575.75
493.15	3475.40
493.35	3344.33
493.55	3190.74
493.75	3030.99
493.95	3221.45
494.15	2934.74
494.35	2699.22
494.56	2768.85
494.76	2611.16
494.96	2740.18
495.16	2635.74
495.36	2686.94
495.56	2818.00
495.76	2752.47
495.96	2633.69
496.16	2627.54
496.36	2985.94
496.56	2650.07
496.77	2643.93
496.97	2760.66
497.17	2942.93
497.37	2531.29
497.57	2754.52
497.77	2789.33
497.97	2516.95
498.17	2564.06
498.37	2678.74
498.57	2764.76
498.77	2695.13
498.97	2770.90
499.17	2908.12
499.38	2666.46
499.58	2828.24
499.78	2889.68
499.98	2815.96
500.18	2625.50
500.38	2734.04
500.58	2920.40
500.78	3178.45
500.98	5380.01
501.18	7163.79
501.38	8699.77
501.58	9428.85
501.78	9297.78
501.98	7669.64
502.18	6557.60
502.38	5601.19
502.58	5504.94
502.78	4796.34
502.98	4671.42
503.18	4431.80
503.38	4016.07
503.59	3518.41
503.79	3487.69
503.99	3235.79
504.19	3246.03
504.39	3123.15
504.59	3151.82
504.79	3086.29
504.99	3209.17
505.19	2977.75
505.39	2783.19
505.59	3037.14
505.79	3014.61
505.99	2910.16
506.19	2637.78
506.39	2928.60
506.59	2678.74
506.79	2674.65
506.99	2832.34
507.19	2674.65
507.39	2770.90
507.59	2596.82
507.79	2641.88
507.99	2594.78
508.19	2709.46
508.39	2676.70
508.59	2744.28
508.79	2805.72
508.99	3004.37
509.19	2611.16
509.39	2746.33
509.59	2527.19
509.79	2586.58
509.99	2748.37
510.19	2785.24
510.39	2764.76
510.59	2793.43
510.79	2662.36
510.99	2578.39
511.19	2613.21
511.39	2975.70
511.59	2924.50
511.79	2754.52
511.99	2680.79
512.19	2932.69
512.38	2772.95
512.58	2484.19
512.78	2596.82
512.98	2832.34
513.18	2959.31
513.38	2574.30
513.58	2760.66
513.78	2752.47
513.98	2748.37
514.18	2670.55
514.38	2605.02
514.58	2775.00
514.78	2652.12
514.98	2564.06
515.18	2654.17
515.38	2527.19
515.58	2994.13
515.78	2615.26
515.98	2627.54
516.18	2783.19
516.38	2731.99
516.57	2562.01
516.77	2648.02
516.97	2826.20
517.17	2605.02
517.37	2482.14
517.57	2727.89
517.77	2682.84
517.97	2688.98
518.17	2727.89
518.37	2629.59
518.57	2650.07
518.77	2641.88
518.97	2623.45
519.16	2727.89
519.36	2850.77
519.56	2682.84
519.76	2666.46
519.96	2695.13
520.16	2973.65
520.36	2590.68
520.56	2789.33
520.76	2578.39
520.96	2756.57
521.16	2832.34
521.35	2811.86
521.55	2752.47
521.75	2711.51
521.95	2678.74
522.15	2627.54
522.35	2486.23
522.55	2650.07
522.75	2889.68
522.95	2619.35
523.14	2506.71
523.34	2793.43
523.54	2637.78
523.74	2791.38
523.94	2711.51
524.14	2549.72
524.34	2824.15
524.54	2801.62
524.73	2699.22
524.93	2830.29
525.13	2691.03
525.33	2504.67
525.53	2895.83
525.73	2785.24
525.93	2713.56
526.13	2596.82
526.32	2619.35
526.52	2791.38
526.72	2881.49
526.92	2580.44
527.12	2590.68
527.32	2568.15
527.52	2756.57
527.71	2719.70
527.91	2643.93
528.11	2596.82
528.31	2670.55
528.51	2590.68
528.71	2797.53
528.90	2713.56
529.10	2875.35
529.30	2801.62
529.50	2334.68
529.70	2793.43
529.90	2674.65
530.09	2650.07
530.29	2465.75
530.49	2580.44
530.69	3133.39
530.89	2719.70
531.09	2684.89
531.28	2617.30
531.48	2832.34
531.68	2666.46
531.88	2725.85
532.08	2781.14
532.28	2734.04
532.47	2783.19
532.67	2762.71
532.87	2818.00
533.07	2547.67
533.27	2752.47
533.46	2752.47
533.66	2807.77
533.86	2680.79
534.06	2731.99
534.26	2648.02
534.45	2629.59
534.65	2871.25
534.85	2723.80
535.05	2611.16
535.25	2768.85
535.44	2512.86
535.64	2787.29
535.84	2684.89
536.04	2641.88
536.24	2654.17
536.43	2588.63
536.63	2719.70
536.83	2678.74
537.03	2709.46
537.22	2508.76
537.42	2502.62
537.62	2813.91
537.82	2539.48
538.02	2783.19
538.21	2744.28
538.41	3178.45
538.61	2818.00
538.81	2633.69
539.00	2811.86
539.20	2596.82
539.40	2635.74
539.60	2664.41
539.79	2729.94
539.99	2688.98
540.19	2533.34
540.39	2703.32
540.58	2695.13
540.78	2883.54
540.98	2727.89
541.18	2791.38
541.37	2734.04
541.57	2672.60
541.77	2744.28
541.97	2562.01
542.16	2555.86
542.36	2674.65
542.56	2766.81
542.76	2820.05
542.95	2834.39
543.15	2811.86
543.35	2785.24
543.54	2660.31
543.74	2535.39
543.94	2873.30
544.14	2682.84
544.33	2783.19
544.53	2633.69
544.73	2586.58
544.93	2688.98
545.12	2566.10
545.32	2656.22
545.52	2701.27
545.71	2582.49
545.91	2656.22
546.11	2605.02
546.30	2527.19
546.50	2748.37
546.70	2711.51
546.90	2731.99
547.09	2467.80
547.29	2815.96
547.49	2734.04
547.68	2650.07
547.88	2668.50
548.08	2852.82
548.27	3035.09
548.47	2637.78
548.67	2631.64
548.87	2813.91
549.06	2643.93
549.26	2654.17
549.46	2797.53
549.65	2660.31
549.85	2709.46
550.05	2727.89
550.24	2635.74
550.44	2701.27
550.64	2680.79
550.83	2691.03
551.03	3022.80
551.23	2899.92
551.42	2705.37
551.62	2666.46
551.82	2748.37
552.01	2785.24
552.21	2914.26
552.41	2666.46
552.60	3004.37
552.80	2760.66
553.00	2600.92
553.19	2691.03
553.39	2955.22
553.59	2578.39
553.78	2731.99
553.98	2596.82
554.17	2519.00
554.37	2705.37
554.57	2764.76
554.76	2521.05
554.96	2652.12
555.16	2736.09
555.35	2715.61
555.55	2832.34
555.75	2832.34
555.94	2764.76
556.14	2441.18
556.33	2756.57
556.53	2703.32
556.73	2772.95
556.92	2758.61
557.12	2695.13
557.32	2953.17
557.51	2977.75
557.71	2713.56
557.90	2824.15
558.10	2979.79
558.30	2662.36
558.49	2656.22
558.69	2668.50
558.88	2768.85
559.08	2768.85
559.28	2668.50
559.47	2629.59
559.67	2873.30
559.86	3061.71
560.06	2686.94
560.26	2613.21
560.45	2779.09
560.65	2680.79
560.84	2887.64
561.04	2578.39
561.24	2783.19
561.43	2619.35
561.63	2803.67
561.82	2609.11
562.02	2772.95
562.22	2652.12
562.41	2592.73
562.61	2596.82
562.80	2615.26
563.00	3155.92
563.19	2717.65
563.39	2734.04
563.59	2863.06
563.78	2662.36
563.98	2467.80
564.17	2658.26
564.37	2443.23
564.56	2678.74
564.76	2510.81
564.96	2815.96
565.15	2762.71
565.35	3155.92
565.54	2695.13
565.74	2703.32
565.93	2744.28
566.13	2721.75
566.32	2738.13
566.52	2691.03
566.71	2754.52
566.91	2863.06
567.11	2727.89
567.30	2543.58
567.50	2793.43
567.69	2793.43
567.89	2584.54
568.08	2623.45
568.28	2815.96
568.47	2533.34
568.67	2703.32
568.86	2621.40
569.06	2904.02
569.25	2629.59
569.45	2496.47
569.64	2664.41
569.84	2775.00
570.04	2760.66
570.23	2680.79
570.43	2701.27
570.62	2783.19
570.82	3037.14
571.01	2508.76
571.21	2615.26
571.40	2629.59
571.60	2889.68
571.79	2752.47
571.99	2682.84
572.18	2594.78
572.38	2834.39
572.57	2709.46
572.77	2727.89
572.96	3145.68
573.16	2783.19
573.35	2695.13
573.55	2699.22
573.74	2815.96
573.94	2662.36
574.13	2609.11
574.33	2809.81
574.52	2906.07
574.71	2748.37
574.91	2746.33
575.10	2627.54
575.30	2680.79
575.49	2588.63
575.69	2695.13
575.88	2703.32
576.08	2742.23
576.27	2844.63
576.47	2625.50
576.66	2799.57
576.86	2914.26
577.05	2727.89
577.25	2633.69
577.44	2871.25
577.64	2725.85
577.83	2858.96
578.02	2617.30
578.22	2781.14
578.41	3026.90
578.61	2723.80
578.80	2553.82
579.00	2697.17
579.19	2662.36
579.39	2736.09
579.58	2734.04
579.77	2643.93
579.97	3000.27
580.16	2936.79
580.36	2678.74
580.55	2797.53
580.75	2838.48
580.94	2750.42
581.13	2844.63
581.33	2863.06
581.52	2674.65
581.72	3043.28
581.91	2772.95
582.11	2658.26
582.30	2875.35
582.49	2758.61
582.69	2930.64
582.88	2719.70
583.08	2801.62
583.27	2869.20
583.47	2734.04
583.66	2660.31
583.85	2549.72
584.05	2688.98
584.24	2807.77
584.44	2781.14
584.63	2856.92
584.82	2951.12
585.02	2865.11
585.21	2836.44
585.41	2752.47
585.60	2818.00
585.79	2998.23
585.99	2969.55
586.18	2852.82
586.37	3538.89
586.57	5451.69
586.76	15906.57
586.96	34872.81
587.15	48022.82
587.34	56876.19
587.54	61021.28
587.73	54500.54
587.93	38487.48
588.12	29509.18
588.31	23869.08
588.51	20846.27
588.70	19197.66
588.89	17131.26
589.09	14511.91
589.28	12601.15
589.47	9746.28
589.67	7673.74
589.86	6014.88
590.06	4501.44
590.25	3887.04
590.44	3407.82
590.64	3170.26
590.83	2957.27
591.02	2928.60
591.22	2670.55
591.41	2727.89
591.60	2637.78
591.80	3082.19
591.99	2621.40
592.18	2650.07
592.38	2861.01
592.57	2666.46
592.76	2650.07
592.96	2785.24
593.15	2791.38
593.34	2871.25
593.54	2695.13
593.73	2768.85
593.92	2871.25
594.12	2815.96
594.31	2826.20
594.50	2904.02
594.70	2846.68
594.89	3035.09
595.08	2432.99
595.28	2842.58
595.47	3231.69
595.66	2865.11
595.86	2602.97
596.05	2605.02
596.24	2656.22
596.43	2981.84
596.63	2824.15
596.82	2744.28
597.01	2818.00
597.21	2928.60
597.40	2703.32
597.59	2717.65
597.79	2725.85
597.98	2795.48
598.17	2746.33
598.36	2750.42
598.56	2926.55
598.75	2633.69
598.94	2734.04
599.14	2705.37
599.33	2676.70
599.52	2885.59
599.71	2674.65
599.91	2643.93
600.10	2840.53
600.29	2723.80
600.48	2807.77
600.68	2781.14
600.87	2754.52
601.06	2680.79
601.26	2742.23
601.45	2752.47
601.64	2682.84
601.83	3051.47
602.03	2559.96
602.22	2490.33
602.41	2889.68
602.60	3106.77
602.80	2813.91
602.99	2809.81
603.18	2664.41
603.37	2891.73
603.57	2641.88
603.76	2693.08
603.95	2850.77
604.14	2664.41
604.34	2629.59
604.53	2670.55
604.72	2731.99
604.91	2805.72
605.10	2686.94
605.30	2572.25
605.49	3110.86
605.68	2891.73
605.87	2715.61
606.07	2607.06
606.26	2727.89
606.45	2777.05
606.64	2648.02
606.84	2611.16
607.03	2703.32
607.22	2822.10
607.41	2641.88
607.60	2625.50
607.80	2877.40
607.99	2662.36
608.18	2705.37
608.37	2686.94
608.56	2699.22
608.76	2908.12
608.95	2781.14
609.14	2719.70
609.33	2871.25
609.52	2963.41
609.72	2836.44
609.91	2793.43
610.10	2772.95
610.29	2994.13
610.48	2848.72
610.68	2758.61
610.87	2707.41
611.06	2779.09
611.25	2688.98
611.44	2729.94
611.63	2650.07
611.83	2869.20
612.02	2516.95
612.21	2834.39
612.40	2453.47
612.59	2568.15
612.79	2611.16
612.98	2775.00
613.17	2994.13
613.36	2684.89
613.55	2842.58
613.74	2668.50
613.93	2785.24
614.13	2803.67
614.32	2957.27
614.51	2777.05
614.70	2731.99
614.89	2664.41
615.08	2809.81
615.28	3129.30
615.47	2609.11
615.66	2895.83
615.85	2775.00
616.04	2877.40
616.23	2635.74
616.42	2770.90
616.62	2727.89
616.81	2682.84
617.00	2789.33
617.19	2766.81
617.38	2672.60
617.57	2748.37
617.76	2891.73
617.95	2899.92
618.15	2674.65
618.34	2914.26
618.53	2568.15
618.72	2877.40
618.91	2811.86
619.10	2727.89
619.29	2713.56
619.48	2756.57
619.68	2578.39
619.87	2639.83
620.06	2533.34
620.25	2832.34
620.44	2654.17
620.63	2600.92
620.82	2748.37
621.01	2678.74
621.20	2666.46
621.39	2670.55
621.59	2756.57
621.78	2723.80
621.97	2768.85
622.16	2686.94
622.35	2828.24
622.54	2820.05
622.73	2744.28
622.92	2533.34
623.11	2901.97
623.30	2693.08
623.49	2709.46
623.68	2584.54
623.88	2969.55
624.07	2754.52
624.26	2660.31
624.45	2678.74
624.64	2602.97
624.83	2813.91
625.02	2648.02
625.21	2633.69
625.40	2791.38
625.59	2944.98
625.78	2637.78
625.97	2756.57
626.16	2912.21
626.35	2895.83
626.54	2688.98
626.74	2936.79
626.93	2703.32
627.12	2695.13
627.31	2775.00
627.50	2758.61
627.69	2697.17
627.88	2637.78
628.07	2703.32
628.26	2480.09
628.45	2623.45
628.64	2592.73
628.83	2666.46
629.02	2531.29
629.21	2836.44
629.40	2754.52
629.59	2635.74
629.78	2691.03
629.97	2777.05
630.16	2715.61
630.35	2629.59
630.54	2717.65
630.73	2725.85
630.92	2684.89
631.11	2615.26
631.30	2609.11
631.49	2836.44
631.68	2721.75
631.87	2725.85
632.06	2514.91
632.25	3088.34
632.44	2781.14
632.63	2740.18
632.82	2648.02
633.01	2619.35
633.20	2766.81
633.39	2613.21
633.58	2521.05
633.77	2801.62
633.96	2793.43
634.15	2768.85
634.34	2777.05
634.53	2820.05
634.72	2660.31
634.91	2437.08
635.10	2709.46
635.29	2852.82
635.48	2772.95
635.67	2555.86
635.86	2527.19
636.05	2983.89
636.24	2721.75
636.43	2660.31
636.62	2719.70
636.81	2439.13
637.00	2691.03
637.19	2674.65
637.38	2664.41
637.57	2637.78
637.76	2686.94
637.95	2809.81
638.14	2666.46
638.33	2750.42
638.52	2725.85
638.71	2592.73
638.89	2543.58
639.08	3129.30
639.27	2895.83
639.46	2764.76
639.65	3160.02
639.84	3211.22
640.03	3340.24
640.22	3114.96
640.41	3119.06
640.60	2785.24
640.79	2908.12
640.98	2734.04
641.17	2852.82
641.36	2912.21
641.55	2928.60
641.74	2598.87
641.92	2602.97
642.11	2676.70
642.30	2711.51
642.49	2613.21
642.68	2586.58
642.87	2805.72
643.06	2830.29
643.25	2662.36
643.44	2547.67
643.63	2658.26
643.82	2834.39
644.00	2549.72
644.19	2666.46
644.38	2568.15
644.57	2858.96
644.76	2725.85
644.95	2656.22
645.14	2850.77
645.33	2709.46
645.52	2725.85
645.71	2553.82
645.89	2594.78
646.08	2772.95
646.27	2629.59
646.46	2895.83
646.65	2545.63
646.84	2744.28
647.03	2535.39
647.22	2820.05
647.40	2770.90
647.59	2727.89
647.78	2447.32
647.97	2715.61
648.16	2564.06
648.35	2908.12
648.54	2834.39
648.73	2664.41
648.91	2906.07
649.10	2697.17
649.29	2631.64
649.48	2504.67
649.67	2781.14
649.86	2813.91
650.05	2662.36
650.23	2824.15
650.42	2680.79
650.61	2906.07
650.80	2858.96
650.99	3004.37
651.18	2867.16
651.36	2910.16
651.55	2660.31
651.74	2795.48
651.93	2674.65
652.12	2684.89
652.31	2721.75
652.49	2760.66
652.68	2686.94
652.87	2873.30
653.06	2801.62
653.25	2856.92
653.44	2699.22
653.62	2983.89
653.81	2648.02
654.00	2645.98
654.19	2881.49
654.38	3153.87
654.56	2754.52
654.75	2555.86
654.94	2809.81
655.13	2738.13
655.32	2574.30
655.51	2713.56
655.69	2629.59
655.88	2766.81
656.07	2564.06
656.26	2709.46
656.45	2598.87
656.63	2719.70
656.82	2699.22
657.01	2805.72
657.20	2648.02
657.38	2863.06
657.57	2559.96
657.76	2490.33
657.95	2858.96
658.14	2629.59
658.32	2705.37
658.51	2514.91
658.70	2852.82
658.89	2772.95
659.08	2729.94
659.26	2908.12
659.45	2607.06
659.64	2701.27
659.83	2621.40
660.01	3088.34
660.20	2768.85
660.39	2963.41
660.58	2416.60
660.76	2701.27
660.95	2564.06
661.14	2756.57
661.33	2545.63
661.51	2596.82
661.70	2635.74
661.89	2826.20
662.08	2768.85
662.26	2535.39
662.45	2576.34
662.64	2957.27
662.83	2721.75
663.01	2598.87
663.20	2662.36
663.39	2955.22
663.58	2672.60
663.76	2572.25
663.95	2795.48
664.14	2568.15
664.32	2621.40
664.51	2531.29
664.70	2496.47
664.89	2772.95
665.07	2553.82
665.26	2781.14
665.45	2598.87
665.64	2793.43
665.82	2691.03
666.01	2744.28
666.20	2586.58
666.38	2877.40
666.57	2889.68
666.76	4259.78
666.95	9977.70
667.13	17000.19
667.32	21141.18
667.51	24061.58
667.69	25015.94
667.88	21546.68
668.07	15257.37
668.25	12863.29
668.44	10989.40
668.63	9518.96
668.81	8302.47
669.00	7370.64
669.19	6586.27
669.38	5599.15
669.56	4919.22
669.75	4224.96
669.94	3858.37
670.12	3119.06
670.31	2996.18
670.50	2951.12
670.68	2899.92
670.87	2836.44
671.06	2643.93
671.24	2736.09
671.43	2983.89
671.62	2752.47
671.80	2697.17
671.99	2764.76
672.18	2822.10
672.36	2889.68
672.55	2725.85
672.74	2686.94
672.92	2656.22
673.11	2928.60
673.29	2537.43
673.48	2793.43
673.67	2727.89
673.85	2961.36
674.04	2486.23
674.23	2625.50
674.41	3053.52
674.60	2555.86
674.79	2408.41
674.97	2566.10
675.16	2815.96
675.34	2838.48
675.53	2607.06
675.72	2848.72
675.90	2971.60
676.09	2713.56
676.28	2705.37
676.46	2478.04
676.65	2742.23
676.83	2660.31
677.02	2674.65
677.21	2791.38
677.39	2711.51
677.58	2594.78
677.77	2619.35
677.95	2578.39
678.14	2693.08
678.32	2674.65
678.51	2584.54
678.70	2969.55
678.88	2705.37
679.07	2740.18
679.25	2658.26
679.44	2572.25
679.63	2572.25
679.81	2701.27
680.00	2840.53
680.18	2738.13
680.37	3012.56
680.55	2631.64
680.74	2521.05
680.93	2430.94
681.11	2811.86
681.30	2701.27
681.48	2654.17
681.67	2736.09
681.85	2691.03
682.04	2613.21
682.23	2830.29
682.41	2731.99
682.60	2693.08
682.78	2705.37
682.97	2531.29
683.15	2658.26
683.34	2772.95
683.53	2957.27
683.71	2514.91
683.90	2791.38
684.08	3006.42
684.27	2670.55
684.45	2629.59
684.64	2838.48
684.82	2654.17
685.01	2861.01
685.19	2625.50
685.38	2875.35
685.57	2717.65
685.75	2568.15
685.94	2666.46
686.12	2535.39
686.31	2625.50
686.49	2932.69
686.68	2473.95
686.86	2686.94
687.05	2670.55
687.23	2934.74
687.42	2654.17
687.60	2535.39
687.79	2861.01
687.97	3006.42
688.16	2887.64
688.34	2867.16
688.53	2475.99
688.71	2795.48
688.90	2858.96
689.08	2639.83
689.27	2471.90
689.45	2752.47
689.64	2766.81
689.82	2701.27
690.01	2731.99
690.19	2772.95
690.38	2654.17
690.56	2801.62
690.75	2637.78
690.93	2682.84
691.12	2600.92
691.30	2717.65
691.49	2693.08
691.67	2723.80
691.86	2944.98
692.04	2602.97
692.23	2686.94
692.41	2729.94
692.60	2985.94
692.78	2803.67
692.97	2815.96
693.15	2893.78
693.34	2873.30
693.52	2858.96
693.71	2668.50
693.89	2656.22
694.08	2478.04
694.26	2729.94
694.44	2869.20
694.63	2781.14
694.81	2555.86
695.00	2596.82
695.18	2830.29
695.37	3157.97
695.55	2766.81
695.74	2648.02
695.92	2625.50
696.10	2932.69
696.29	2496.47
696.47	2605.02
696.66	2592.73
696.84	2617.30
697.03	2686.94
697.21	2922.45
697.40	4128.70
697.58	2856.92
697.76	2668.50
697.95	2570.20
698.13	2516.95
698.32	2670.55
698.50	2695.13
698.68	2703.32
698.87	2858.96
699.05	3022.80
699.24	2670.55
699.42	2512.86
699.61	2826.20
699.79	2652.12
699.97	2719.70
700.16	2482.14
700.34	2549.72
700.53	2748.37
700.71	2932.69
700.89	2797.53
701.08	2605.02
701.26	2715.61
701.45	3129.30
701.63	2590.68
701.81	2602.97
702.00	2617.30
702.18	2713.56
702.37	2674.65
702.55	2885.59
702.73	2836.44
702.92	2643.93
703.10	2955.22
703.28	2924.50
703.47	2537.43
703.65	2854.87
703.84	2834.39
704.02	2723.80
704.20	2979.79
704.39	2658.26
704.57	2652.12
704.75	2848.72
704.94	2801.62
705.12	2711.51
705.30	3092.43
705.49	5683.11
705.67	11757.39
705.86	17565.43
706.04	20311.75
706.22	22642.34
706.41	22451.88
706.59	17657.59
706.77	13207.35
706.96	11392.85
707.14	10307.43
707.32	8892.28
707.51	7950.21
707.69	6338.46
707.87	5357.49
708.06	4470.72
708.24	3893.19
708.42	3350.48
708.61	3426.25
708.79	2701.27
708.97	2738.13
709.16	2938.84
709.34	2740.18
709.52	2656.22
709.71	2625.50
709.89	2877.40
710.07	2662.36
710.26	2576.34
710.44	2629.59
710.62	2824.15
710.80	2674.65
710.99	2809.81
711.17	2721.75
711.35	2549.72
711.54	2740.18
711.72	2836.44
711.90	2693.08
712.09	2809.81
712.27	2664.41
712.45	2742.23
712.63	2629.59
712.82	2760.66
713.00	2768.85
713.18	2811.86
713.37	2801.62
713.55	2850.77
713.73	2787.29
713.91	2826.20
714.10	2617.30
714.28	2678.74
714.46	2768.85
714.65	2721.75
714.83	2719.70
715.01	2738.13
715.19	2736.09
715.38	2594.78
715.56	2750.42
715.74	2670.55
715.92	2609.11
716.11	2793.43
716.29	2467.80
716.47	2652.12
716.65	2682.84
716.84	2475.99
717.02	2828.24
717.20	2492.38
717.38	2570.20
717.57	2783.19
717.75	2723.80
717.93	2590.68
718.11	2863.06
718.30	2551.77
718.48	2715.61
718.66	2842.58
718.84	2838.48
719.03	2688.98
719.21	2531.29
719.39	3033.04
719.57	2783.19
719.75	2738.13
719.94	2594.78
720.12	2725.85
720.30	2760.66
720.48	2768.85
720.67	2633.69
720.85	2607.06
721.03	2656.22
721.21	2643.93
721.39	2746.33
721.58	2809.81
721.76	2670.55
721.94	2770.90
722.12	2695.13
722.30	2895.83
722.49	2678.74
722.67	2711.51
722.85	2691.03
723.03	2523.10
723.21	2645.98
723.40	2670.55
723.58	2813.91
723.76	2807.77
723.94	2850.77
724.12	2711.51
724.30	2883.54
724.49	2867.16
724.67	2672.60
724.85	2824.15
725.03	2529.24
725.21	2731.99
725.40	2889.68
725.58	2607.06
725.76	2838.48
725.94	2779.09
726.12	2570.20
726.30	2721.75
726.49	2578.39
726.67	2705.37
726.85	2846.68
727.03	3039.19
727.21	4079.55
727.39	5171.12
727.57	5672.87
727.76	5998.50
727.94	6195.11
728.12	5525.42
728.30	4499.39
728.48	4253.63
728.66	4024.26
728.84	3774.41
729.03	3252.17
729.21	3207.12
729.39	3063.76
729.57	2797.53
729.75	2781.14
729.93	2809.81
730.11	2605.02
730.30	2637.78
730.48	2697.17
730.66	2875.35
730.84	2877.40
731.02	2684.89
731.20	2641.88
731.38	2680.79
731.56	2553.82
731.74	2531.29
731.93	2746.33
732.11	2756.57
732.29	2619.35
732.47	2811.86
732.65	2756.57
732.83	2858.96
733.01	2803.67
733.19	2662.36
733.37	2818.00
733.56	2760.66
733.74	2574.30
733.92	2932.69
734.10	2643.93
734.28	2707.41
734.46	2439.13
734.64	2674.65
734.82	2736.09
735.00	2682.84
735.18	2666.46
735.36	2682.84
735.54	2775.00
735.73	2697.17
735.91	2715.61
736.09	2908.12
736.27	2623.45
736.45	2719.70
736.63	2555.86
736.81	2740.18
736.99	2844.63
737.17	2951.12
737.35	2578.39
737.53	2805.72
737.71	2654.17
737.89	2867.16
738.07	2531.29
738.25	2586.58
738.43	2531.29
738.61	2605.02
738.80	2555.86
738.98	2609.11
739.16	2676.70
739.34	2658.26
739.52	2856.92
739.70	2648.02
739.88	2752.47
740.06	2754.52
740.24	2435.03
740.42	2848.72
740.60	2480.09
740.78	2613.21
740.96	2475.99
741.14	2674.65
741.32	2731.99
741.50	2506.71
741.68	2904.02
741.86	2858.96
742.04	2576.34
742.22	2586.58
742.40	2611.16
742.58	2793.43
742.76	2609.11
742.94	2852.82
743.12	2531.29
743.30	2746.33
743.48	2764.76
743.66	2617.30
743.84	2658.26
744.02	2719.70
744.20	2717.65
744.38	2570.20
744.56	2582.49
744.74	2940.88
744.92	2760.66
745.10	2889.68
745.28	2760.66
745.46	2910.16
745.64	2635.74
745.82	2748.37
746.00	2613.21
746.18	2795.48
746.36	2535.39
746.54	2772.95
746.72	2654.17
746.90	2586.58
747.08	2895.83
747.26	2625.50
747.44	2711.51
747.62	2824.15
747.80	2789.33
747.98	2795.48
748.15	2662.36
748.33	3026.90
748.51	2752.47
748.69	2777.05
748.87	2627.54
749.05	2684.89
749.23	2701.27
749.41	2711.51
749.59	2613.21
749.77	2791.38
749.95	2652.12
750.13	2551.77
750.31	2711.51
750.49	2725.85
750.67	2752.47
750.85	2848.72
751.03	2617.30
751.20	3020.75
751.38	2695.13
751.56	2662.36
751.74	2783.19
751.92	2613.21
752.10	2533.34
752.28	2832.34
752.46	2621.40
752.64	2688.98
752.82	2703.32
753.00	2783.19
753.18	2645.98
753.35	2674.65
753.53	2686.94
753.71	2611.16
753.89	2723.80
754.07	2789.33
754.25	2846.68
754.43	2701.27
754.61	2500.57
754.79	2793.43
754.97	2678.74
755.14	2760.66
755.32	2504.67
755.50	2734.04
755.68	2707.41
755.86	2645.98
756.04	2594.78
756.22	2488.28
756.40	2838.48
756.57	2889.68
756.75	2631.64
756.93	2875.35
757.11	2811.86
757.29	2543.58
757.47	2564.06
757.65	2473.95
757.82	2381.79
758.00	2631.64
758.18	2602.97
758.36	2613.21
758.54	2906.07
758.72	2451.42
758.90	2854.87
759.07	2809.81
759.25	2533.34
759.43	2684.89
759.61	2527.19
759.79	3852.23
759.97	2775.00
760.15	2643.93
760.32	2670.55
760.50	2881.49
760.68	2977.75
760.86	2523.10
761.04	2830.29
761.22	2826.20
761.39	2746.33
761.57	2744.28
761.75	2631.64
761.93	2899.92
762.11	2682.84
762.28	2738.13
762.46	2611.16
762.64	2906.07
762.82	2596.82
763.00	2535.39
763.18	2922.45
763.35	2523.10
763.53	2805.72
763.71	2695.13
763.89	2664.41
764.07	2787.29
764.24	2717.65
764.42	2781.14
764.60	2707.41
764.78	2818.00
764.96	2885.59
765.13	2760.66
765.31	2623.45
765.49	2807.77
765.67	2635.74
765.84	2631.64
766.02	2607.06
766.20	2531.29
766.38	2826.20
766.56	2750.42
766.73	2764.76
766.91	2676.70
767.09	2674.65
767.27	2701.27
767.44	2602.97
767.62	2803.67
767.80	2740.18
767.98	2553.82
768.15	2617.30
768.33	2777.05
768.51	2867.16
768.69	2699.22
768.87	2678.74
769.04	2738.13
769.22	3194.83
769.40	2764.76
769.58	2838.48
769.75	2711.51
769.93	2908.12
770.11	2650.07
770.28	2457.56
770.46	2871.25
770.64	2795.48
770.82	2664.41
770.99	2568.15
771.17	2801.62
771.35	2662.36
771.53	2619.35
771.70	2607.06
771.88	2775.00
772.06	2668.50
772.23	2594.78
772.41	2703.32
772.59	2711.51
772.77	2551.77
772.94	2795.48
773.12	2762.71
773.30	2621.40
773.47	2809.81
773.65	2547.67
773.83	2740.18
774.01	2639.83
774.18	2432.99
774.36	2645.98
774.54	2447.32
774.71	2752.47
774.89	2523.10
775.07	2553.82
775.24	2564.06
775.42	2674.65
775.60	2971.60
775.78	2584.54
775.95	2498.52
776.13	2529.24
776.31	2500.57
776.48	2748.37
776.66	2801.62
776.84	2666.46
777.01	2635.74
777.19	2553.82
777.37	2578.39
777.54	2875.35
777.72	2973.65
777.90	2672.60
778.07	2543.58
778.25	3178.45
778.43	2844.63
778.60	2570.20
778.78	2725.85
778.96	2871.25
779.13	2564.06
779.31	2723.80
779.49	2715.61
779.66	2746.33
779.84	2723.80
780.01	2670.55
780.19	2537.43
780.37	2949.08
780.54	2895.83
780.72	2576.34
780.90	2580.44
781.07	2676.70
781.25	2598.87
781.43	2877.40
781.60	2605.02
781.78	2957.27
781.95	2758.61
782.13	2584.54
782.31	2602.97
782.48	2506.71
782.66	2711.51
782.83	2889.68
783.01	2748.37
783.19	2783.19
783.36	2697.17
783.54	2523.10
783.72	2758.61
783.89	2697.17
784.07	2715.61
784.24	2744.28
784.42	2861.01
784.60	2750.42
784.77	2772.95
784.95	2422.75
785.12	2580.44
785.30	2738.13
785.47	2629.59
785.65	2547.67
785.83	2617.30
786.00	2654.17
786.18	2734.04
786.35	2568.15
786.53	2549.72
786.71	2840.53
786.88	2713.56
787.06	2719.70
787.23	2666.46
787.41	2605.02
787.58	2768.85
787.76	2527.19
787.94	2648.02
788.11	2762.71
788.29	2523.10
788.46	2580.44
788.64	2521.05
788.81	2629.59
788.99	2543.58
789.16	2490.33
789.34	2668.50
789.52	2670.55
789.69	2715.61
789.87	2402.27
790.04	2562.01
790.22	2695.13
790.39	2985.94
790.57	2572.25
790.74	2488.28
790.92	2838.48
791.09	2496.47
791.27	2703.32
791.44	2734.04
791.62	2615.26
791.79	2820.05
791.97	2756.57
792.15	2977.75
792.32	2869.20
792.50	2715.61
792.67	2789.33
792.85	2854.87
793.02	2736.09
793.20	2691.03
793.37	2553.82
793.55	2607.06
793.72	2529.24
793.90	2787.29
794.07	2629.59
794.25	2631.64
794.42	2672.60
794.60	2668.50
794.77	2643.93
794.95	2822.10
795.12	2828.24
795.30	2719.70
795.47	2428.89
795.65	2998.23
795.82	2775.00
796.00	2564.06
796.17	2629.59
796.34	2576.34
796.52	2670.55
796.69	2877.40
796.87	2736.09
797.04	2691.03
797.22	2844.63
797.39	2856.92
797.57	2781.14
797.74	2734.04
797.92	2805.72
798.09	2635.74
798.27	2781.14
798.44	2701.27
798.62	2711.51
798.79	2727.89
798.96	2684.89
799.14	2682.84
799.31	3059.67
799.49	2721.75
799.66	2553.82
799.84	2666.46
800.01	2572.25
800.19	2727.89
800.36	2498.52
800.53	2678.74
800.71	2822.10
800.88	2885.59
801.06	2580.44
801.23	2654.17
801.41	2693.08
801.58	2686.94
801.75	2678.74
801.93	2664.41
802.10	2740.18
802.28	2764.76
802.45	2590.68
802.63	2740.18
802.80	2893.78
802.97	2594.78
803.15	2637.78
803.32	2666.46
803.50	2564.06
803.67	2553.82
803.84	2588.63
804.02	2617.30
804.19	2605.02
804.37	2430.94
804.54	2506.71
804.71	2576.34
804.89	2678.74
805.06	2607.06
805.24	2506.71
805.41	2467.80
805.58	2572.25
805.76	3100.62
805.93	2660.31
806.10	2764.76
806.28	2772.95
806.45	2705.37
806.63	2701.27
806.80	2701.27
806.97	2715.61
807.15	2697.17
807.32	2768.85
807.49	2615.26
807.67	2566.10
807.84	2740.18
808.01	2441.18
808.19	2863.06
808.36	3039.19
808.54	2637.78
808.71	2619.35
808.88	2611.16
809.06	2897.88
809.23	2861.01
809.40	2613.21
809.58	2740.18
809.75	2725.85
809.92	2598.87
810.10	2942.93
810.27	2584.54
810.44	2676.70
810.62	2838.48
810.79	2711.51
810.96	2584.54
811.14	2623.45
811.31	2818.00
811.48	2736.09
811.66	2680.79
811.83	2930.64
812.00	2807.77
812.18	2635.74
812.35	2926.55
812.52	2678.74
812.69	2635.74
812.87	2553.82
813.04	2637.78
813.21	2731.99
813.39	2631.64
813.56	2537.43
813.73	2826.20
813.91	2516.95
814.08	2680.79
814.25	2707.41
814.42	2529.24
814.60	2719.70
814.77	2766.81
814.94	2652.12
815.12	2666.46
815.29	2961.36
815.46	2564.06
815.63	2670.55
815.81	2664.41
815.98	2643.93
816.15	2674.65
816.33	2717.65
816.50	2596.82
816.67	2760.66
816.84	2662.36
817.02	2586.58
817.19	2600.92
817.36	2775.00
817.53	2752.47
817.71	2508.76
817.88	2676.70
818.05	2672.60
818.22	2625.50
818.40	2828.24
818.57	2602.97
818.74	2744.28
818.91	2709.46
819.09	2725.85
819.26	2695.13
819.43	2674.65
819.60	2541.53
819.78	2750.42
819.95	2789.33
820.12	2539.48
820.29	2897.88
820.47	2822.10
820.64	2674.65
820.81	2523.10
820.98	2578.39
821.15	2674.65
821.33	2777.05
821.50	2514.91
821.67	2789.33
821.84	2645.98
822.02	2660.31
822.19	2887.64
822.36	2686.94
822.53	2582.49
822.70	2543.58
822.88	2678.74
823.05	2908.12
823.22	2707.41
823.39	2760.66
823.56	2654.17
823.74	2975.70
823.91	2564.06
824.08	2539.48
824.25	2576.34
824.42	2957.27
824.60	2535.39
824.77	2729.94
824.94	2758.61
825.11	2791.38
825.28	2453.47
825.45	2777.05
825.63	2801.62
825.80	2588.63
825.97	2736.09
826.14	2611.16
826.31	2451.42
826.48	2760.66
826.66	2523.10
826.83	2592.73
827.00	2676.70
827.17	2605.02
827.34	2654.17
827.51	2525.15
827.69	2695.13
827.86	2498.52
828.03	2578.39
828.20	2658.26
828.37	2572.25
828.54	2818.00
828.71	2533.34
828.89	2750.42
829.06	2801.62
829.23	2901.97
829.40	2637.78
829.57	2586.58
829.74	2764.76
829.91	2682.84
830.09	2652.12
830.26	2727.89
830.43	2885.59
830.60	2779.09
830.77	2783.19
830.94	2818.00
831.11	2897.88
831.28	2695.13
831.46	2764.76
831.63	2652.12
831.80	2826.20
831.97	2621.40
832.14	2678.74
832.31	2658.26
832.48	2762.71
832.65	2846.68
832.82	2748.37
832.99	2678.74
833.17	2600.92
833.34	2854.87
833.51	2643.93
833.68	2428.89
833.85	2875.35
834.02	2600.92
834.19	2539.48
834.36	2580.44
834.53	2768.85
834.70	2791.38
834.87	2738.13
835.04	2469.85
835.22	2656.22
835.39	2723.80
835.56	2482.14
835.73	2488.28
835.90	2869.20
836.07	2605.02
836.24	2758.61
836.41	2494.43
836.58	2568.15
836.75	2795.48
836.92	2605.02
837.09	2510.81
837.26	2854.87
837.43	2799.57
837.60	2598.87
837.77	2555.86
837.94	2893.78
838.12	2906.07
838.29	2455.51
838.46	2412.51
838.63	2641.88
838.80	2930.64
838.97	2645.98
839.14	2514.91
839.31	2707.41
839.48	2879.44
839.65	2527.19
839.82	2654.17
839.99	2680.79
840.16	2695.13
840.33	2478.04
840.50	2584.54
840.67	2619.35
840.84	2355.16
841.01	2615.26
841.18	2527.19
841.35	2734.04
841.52	2754.52
841.69	2844.63
841.86	2596.82
842.03	2740.18
842.20	2869.20
842.37	2547.67
842.54	2596.82
842.71	2686.94
842.88	2562.01
843.05	2625.50
843.22	2539.48
843.39	2764.76
843.56	2584.54
843.73	2619.35
843.90	2617.30
844.07	2664.41
844.24	2832.34
844.41	2613.21
844.58	2484.19
844.75	2719.70
844.92	2779.09
845.09	2564.06
845.26	2562.01
845.43	2854.87
845.60	2611.16
845.77	2664.41
845.94	2600.92
846.10	2754.52
846.27	2484.19
846.44	2496.47
846.61	2553.82
846.78	2770.90
846.95	2783.19
847.12	2525.15
847.29	2607.06
847.46	2566.10
847.63	2820.05
847.80	2574.30
847.97	2551.77
848.14	3065.81
848.31	2678.74
848.48	2494.43
848.65	2555.86
848.82	2625.50
848.98	3084.24
849.15	2613.21
849.32	2637.78
849.49	2869.20
849.66	2660.31
849.83	2549.72
850.00	2525.15
850.17	2813.91
850.34	2641.88
850.51	2506.71
850.68	2582.49
850.85	3006.42
851.01	2703.32
851.18	2586.58
851.35	2576.34
851.52	2701.27
851.69	3014.61
851.86	2428.89
852.03	2551.77
852.20	2723.80
852.37	2725.85
852.53	2412.51
852.70	2539.48
852.87	2666.46
853.04	2764.76
853.21	2521.05
853.38	2779.09
853.55	2809.81
853.72	2832.34
853.89	2519.00
854.05	2529.24
854.22	2645.98
854.39	2731.99
854.56	2625.50
854.73	2758.61
854.90	2531.29
855.07	2760.66
855.23	2514.91
855.40	2553.82
855.57	2648.02
855.74	2402.27
855.91	2783.19
856.08	2443.23
856.25	2576.34
856.41	2701.27
856.58	2580.44
856.75	2590.68
856.92	2576.34
857.09	2783.19
857.26	2453.47
857.42	2643.93
857.59	2840.53
857.76	2609.11
857.93	2553.82
858.10	2641.88
858.27	2506.71
858.43	2693.08
858.60	2529.24
858.77	2535.39
858.94	2609.11
859.11	2811.86
859.27	2617.30
859.44	2502.62
859.61	2990.03
859.78	2770.90
859.95	2533.34
860.12	2527.19
860.28	3129.30
860.45	2955.22
860.62	2488.28
860.79	2613.21
860.95	2674.65
861.12	2582.49
861.29	2482.14
861.46	2547.67
861.63	2631.64
861.79	2723.80
861.96	2441.18
862.13	2611.16
862.30	2932.69
862.47	2568.15
862.63	2555.86
862.80	2555.86
862.97	2793.43
863.14	2744.28
863.30	2533.34
863.47	2516.95
863.64	2811.86
863.81	2760.66
863.97	2418.65
864.14	2639.83
864.31	2766.81
864.48	2719.70
864.65	2578.39
864.81	2641.88
864.98	2785.24
865.15	2815.96
865.32	2607.06
865.48	2676.70
865.65	3051.47
865.82	2625.50
865.98	2619.35
866.15	2600.92
866.32	2713.56
866.49	2674.65
866.65	2715.61
866.82	2533.34
866.99	2701.27
867.16	2666.46
867.32	2533.34
867.49	2492.38
867.66	2635.74
867.83	2662.36
867.99	2449.37
868.16	2527.19
868.33	2617.30
868.49	2699.22
868.66	2545.63
868.83	2645.98
868.99	2670.55
869.16	2699.22
869.33	2619.35
869.50	2637.78
869.66	2756.57
869.83	2680.79
870.00	2445.27
870.16	2635.74
870.33	2621.40
870.50	2781.14
870.66	2609.11
870.83	2637.78
871.00	2721.75
871.17	2912.21
871.33	2635.74
871.50	2537.43
871.67	2760.66
871.83	2498.52
872.00	2748.37
872.17	2559.96
872.33	2973.65
872.50	2809.81
872.67	2492.38
872.83	2568.15
873.00	2863.06
873.17	2725.85
873.33	2598.87
873.50	2662.36
873.67	2668.50
873.83	2586.58
874.00	2602.97
874.16	2635.74
874.33	2719.70
874.50	2572.25
874.66	2611.16
874.83	2637.78
875.00	2818.00
875.16	2826.20
875.33	2625.50
875.50	2334.68
875.66	2650.07
875.83	2775.00
875.99	2619.35
876.16	2637.78
876.33	2564.06
876.49	2736.09
876.66	2623.45
876.83	2611.16
876.99	2467.80
877.16	2785.24
877.32	2539.48
877.49	2615.26
877.66	2799.57
877.82	2904.02
877.99	2637.78
878.15	2770.90
878.32	2785.24
878.49	2691.03
878.65	2631.64
878.82	2750.42
878.98	2736.09
879.15	2926.55
879.32	2703.32
879.48	2748.37
879.65	2715.61
879.81	2600.92
879.98	2568.15
880.15	2496.47
880.31	2848.72
880.48	2580.44
880.64	2674.65
880.81	2695.13
880.97	2924.50
881.14	2840.53
881.31	2531.29
881.47	2650.07
881.64	2645.98
881.80	2439.13
881.97	2695.13
882.13	2684.89
882.30	2580.44
882.47	2617.30
882.63	2514.91
882.80	2578.39
882.96	2615.26
883.13	2850.77
883.29	2643.93
883.46	2527.19
883.62	2998.23
883.79	2658.26
883.95	2643.93
884.12	2533.34
884.29	2842.58
884.45	2693.08
884.62	2656.22
884.78	2551.77
884.95	2938.84
885.11	2541.53
885.28	2566.10
885.44	2533.34
885.61	2797.53
885.77	2951.12
885.94	2725.85
886.10	2535.39
886.27	2772.95
886.43	2971.60
886.60	2719.70
886.76	2590.68
886.93	2635.74
887.09	2670.55
887.26	2408.41
887.42	2576.34
887.59	2750.42
887.75	3061.71
887.92	2764.76
888.08	2682.84
888.25	2899.92
888.41	2830.29
888.58	2627.54
888.74	2547.67
888.91	2613.21
>>>>>End Processed Spectral Data<<<<<
