SpectraSuite Data File
++++++++++++++++++++++++++++++++++++
Date: Thu May 05 16:20:22 CEST 2016
User: root
Dark Spectrum Present: No
Reference Spectrum Present: No
Number of Sampled Component Spectra: 1
Spectrometers: USB4C02835
Integration Time (usec): 100000 (USB4C02835)
Spectra Averaged: 1 (USB4C02835)
Boxcar Smoothing: 0 (USB4C02835)
Correct for Electrical Dark: No (USB4C02835)
Strobe/Lamp Enabled: No (USB4C02835)
Correct for Detector Non-linearity: No (USB4C02835)
Correct for Stray Light: No (USB4C02835)
Number of Pixels in Processed Spectrum: 3648
>>>>>Begin Processed Spectral Data<<<<<
177.47	1988.58
177.69	1988.58
177.91	1988.58
178.13	1972.19
178.36	2027.49
178.58	2555.86
178.80	2703.32
179.02	2543.58
179.24	2471.90
179.46	2467.80
179.68	2543.58
179.90	2691.03
180.13	2650.07
180.35	2449.37
180.57	2488.28
180.79	2842.58
181.01	2707.41
181.23	2564.06
181.45	2596.82
181.67	2873.30
181.90	2830.29
182.12	2461.66
182.34	2373.60
182.56	2826.20
182.78	2820.05
183.00	2510.81
183.22	2564.06
183.44	2494.43
183.66	3137.49
183.89	2621.40
184.11	2529.24
184.33	2836.44
184.55	2918.36
184.77	2527.19
184.99	2555.86
185.21	2641.88
185.43	3135.44
185.65	2545.63
185.87	2453.47
186.10	3067.86
186.32	3098.58
186.54	2658.26
186.76	2594.78
186.98	2904.02
187.20	2666.46
187.42	2488.28
187.64	2461.66
187.86	2779.09
188.08	2836.44
188.30	2375.64
188.52	2637.78
188.75	2949.08
188.97	2910.16
189.19	2598.87
189.41	2547.67
189.63	2824.15
189.85	2635.74
190.07	2359.26
190.29	2426.84
190.51	2760.66
190.73	2502.62
190.95	2641.88
191.17	2572.25
191.39	2486.23
191.61	2658.26
191.84	2504.67
192.06	2637.78
192.28	2482.14
192.50	3188.69
192.72	2643.93
192.94	2551.77
193.16	2791.38
193.38	2836.44
193.60	2510.81
193.82	2584.54
194.04	2897.88
194.26	2799.57
194.48	2557.91
194.70	2490.33
194.92	2629.59
195.14	2852.82
195.36	2453.47
195.58	2602.97
195.80	2666.46
196.02	2547.67
196.24	2514.91
196.46	2596.82
196.69	2535.39
196.91	3047.38
197.13	2424.80
197.35	2514.91
197.57	2928.60
197.79	2740.18
198.01	2600.92
198.23	2553.82
198.45	2826.20
198.67	2559.96
198.89	2451.42
199.11	2541.53
199.33	2557.91
199.55	2402.27
199.77	2512.86
199.99	2637.78
200.21	2605.02
200.43	2826.20
200.65	2424.80
200.87	2299.87
201.09	2756.57
201.31	2695.13
201.53	2545.63
201.75	2568.15
201.97	2820.05
202.19	2719.70
202.41	2631.64
202.63	2613.21
202.85	2885.59
203.07	2731.99
203.29	2504.67
203.51	2529.24
203.73	2617.30
203.95	3139.54
204.17	2463.71
204.39	2598.87
204.61	2682.84
204.83	2641.88
205.05	2609.11
205.27	2562.01
205.49	3012.56
205.71	2654.17
205.93	2443.23
206.15	2435.03
206.37	2797.53
206.59	2713.56
206.81	2451.42
207.03	2418.65
207.25	2531.29
207.47	2838.48
207.69	2523.10
207.91	2709.46
208.13	3024.85
208.34	2619.35
208.56	2498.52
208.78	2453.47
209.00	2695.13
209.22	2670.55
209.44	2510.81
209.66	2525.15
209.88	2686.94
210.10	2777.05
210.32	2449.37
210.54	2553.82
210.76	2645.98
210.98	2846.68
211.20	2310.11
211.42	2617.30
211.64	2875.35
211.86	2725.85
212.08	2588.63
212.30	2510.81
212.52	2654.17
212.74	2793.43
212.96	2523.10
213.17	2598.87
213.39	2912.21
213.61	3026.90
213.83	2506.71
214.05	2392.03
214.27	2811.86
214.49	2555.86
214.71	2478.04
214.93	2637.78
215.15	2703.32
215.37	2906.07
215.59	2351.07
215.81	2555.86
216.03	2811.86
216.24	2781.14
216.46	2490.33
216.68	2551.77
216.90	2805.72
217.12	2895.83
217.34	2389.98
217.56	2664.41
217.78	2930.64
218.00	2877.40
218.22	2615.26
218.44	2605.02
218.66	2731.99
218.87	3028.95
219.09	2535.39
219.31	2590.68
219.53	2725.85
219.75	2633.69
219.97	2512.86
220.19	2531.29
220.41	2688.98
220.63	2963.41
220.85	2535.39
221.06	2607.06
221.28	2930.64
221.50	2846.68
221.72	2488.28
221.94	2398.17
222.16	2742.23
222.38	2818.00
222.60	2512.86
222.82	2553.82
223.03	2850.77
223.25	2594.78
223.47	2473.95
223.69	2787.29
223.91	2850.77
224.13	2830.29
224.35	2392.03
224.57	2676.70
224.78	2809.81
225.00	2611.16
225.22	2584.54
225.44	2512.86
225.66	2854.87
225.88	2691.03
226.10	2658.26
226.32	2553.82
226.53	2881.49
226.75	2680.79
226.97	2670.55
227.19	2576.34
227.41	2551.77
227.63	2652.12
227.85	2369.50
228.06	2584.54
228.28	2740.18
228.50	2820.05
228.72	2357.21
228.94	2537.43
229.16	2502.62
229.37	2592.73
229.59	2471.90
229.81	2713.56
230.03	2682.84
230.25	2494.43
230.47	2353.12
230.69	2502.62
230.90	2879.44
231.12	2607.06
231.34	2555.86
231.56	2643.93
231.78	2566.10
232.00	2727.89
232.21	2521.05
232.43	2519.00
232.65	2484.19
232.87	2762.71
233.09	2389.98
233.30	2430.94
233.52	2854.87
233.74	2682.84
233.96	2461.66
234.18	2611.16
234.40	2760.66
234.61	3112.91
234.83	2424.80
235.05	2486.23
235.27	3049.43
235.49	2996.18
235.70	2447.32
235.92	2553.82
236.14	2824.15
236.36	3076.05
236.58	2514.91
236.79	2611.16
237.01	2721.75
237.23	2625.50
237.45	2750.42
237.67	2506.71
237.88	2758.61
238.10	2971.60
238.32	2488.28
238.54	2510.81
238.76	2717.65
238.97	2598.87
239.19	2455.51
239.41	2609.11
239.63	2901.97
239.85	2686.94
240.06	2582.49
240.28	2539.48
240.50	2793.43
240.72	2744.28
240.93	2414.56
241.15	2686.94
241.37	2678.74
241.59	2934.74
241.81	2523.10
242.02	2543.58
242.24	2727.89
242.46	2875.35
242.68	2416.60
242.89	2521.05
243.11	2840.53
243.33	2709.46
243.55	2492.38
243.76	2545.63
243.98	2623.45
244.20	2768.85
244.42	2521.05
244.64	2463.71
244.85	2592.73
245.07	2539.48
245.29	2564.06
245.51	2500.57
245.72	2752.47
245.94	2940.88
246.16	2521.05
246.38	2512.86
246.59	2643.93
246.81	2529.24
247.03	2478.04
247.24	2441.18
247.46	2703.32
247.68	2731.99
247.90	2478.04
248.11	2557.91
248.33	2799.57
248.55	2643.93
248.77	2607.06
248.98	2668.50
249.20	3014.61
249.42	2719.70
249.64	2580.44
249.85	2510.81
250.07	2695.13
250.29	2813.91
250.50	2576.34
250.72	2469.85
250.94	2760.66
251.16	3000.27
251.37	2379.74
251.59	2605.02
251.81	2752.47
252.02	2949.08
252.24	2473.95
252.46	2672.60
252.68	2596.82
252.89	2586.58
253.11	2406.36
253.33	2686.94
253.54	3030.99
253.76	2529.24
253.98	2535.39
254.20	2535.39
254.41	2553.82
254.63	2643.93
254.85	2373.60
255.06	2631.64
255.28	2734.04
255.50	2691.03
255.71	2461.66
255.93	2379.74
256.15	2729.94
256.36	2785.24
256.58	2394.08
256.80	2473.95
257.02	2674.65
257.23	2672.60
257.45	2521.05
257.67	2566.10
257.88	2545.63
258.10	2736.09
258.32	2541.53
258.53	2557.91
258.75	2885.59
258.97	2609.11
259.18	2424.80
259.40	2537.43
259.62	2961.36
259.83	2904.02
260.05	2559.96
260.27	3170.26
260.48	2918.36
260.70	2539.48
260.92	2504.67
261.13	2525.15
261.35	2766.81
261.57	2807.77
261.78	2412.51
262.00	2439.13
262.22	2840.53
262.43	2531.29
262.65	2545.63
262.86	2492.38
263.08	3045.33
263.30	2762.71
263.51	2291.68
263.73	2457.56
263.95	2947.03
264.16	2572.25
264.38	2439.13
264.60	2510.81
264.81	2691.03
265.03	2844.63
265.25	2797.53
265.46	2506.71
265.68	2879.44
265.89	2768.85
266.11	2394.08
266.33	2428.89
266.54	2836.44
266.76	2777.05
266.98	2596.82
267.19	2676.70
267.41	2895.83
267.62	2615.26
267.84	2326.49
268.06	2648.02
268.27	2797.53
268.49	2861.01
268.70	2613.21
268.92	2598.87
269.14	2621.40
269.35	2543.58
269.57	2592.73
269.79	2613.21
270.00	2590.68
270.22	3033.04
270.43	2383.84
270.65	2381.79
270.87	2752.47
271.08	2824.15
271.30	2627.54
271.51	2568.15
271.73	2777.05
271.95	3016.66
272.16	2525.15
272.38	2594.78
272.59	2611.16
272.81	2764.76
273.02	2512.86
273.24	2482.14
273.46	2949.08
273.67	2506.71
273.89	2414.56
274.10	2473.95
274.32	2908.12
274.54	2760.66
274.75	2688.98
274.97	2533.34
275.18	2807.77
275.40	2832.34
275.61	2506.71
275.83	2611.16
276.05	2500.57
276.26	2641.88
276.48	2598.87
276.69	2584.54
276.91	2729.94
277.12	2793.43
277.34	2662.36
277.55	2715.61
277.77	2793.43
277.99	2744.28
278.20	2553.82
278.42	2594.78
278.63	2654.17
278.85	2576.34
279.06	2559.96
279.28	2768.85
279.49	2914.26
279.71	2846.68
279.93	2666.46
280.14	2584.54
280.36	2654.17
280.57	2832.34
280.79	2662.36
281.00	2551.77
281.22	2666.46
281.43	2820.05
281.65	2437.08
281.86	2545.63
282.08	2768.85
282.29	2965.46
282.51	2527.19
282.73	2406.36
282.94	2512.86
283.16	2883.54
283.37	2789.33
283.59	2701.27
283.80	2844.63
284.02	2734.04
284.23	2650.07
284.45	2564.06
284.66	2535.39
284.88	2680.79
285.09	2652.12
285.31	2707.41
285.52	2775.00
285.74	2490.33
285.95	2701.27
286.17	2613.21
286.38	2891.73
286.60	2637.78
286.81	2576.34
287.03	2566.10
287.24	2703.32
287.46	2770.90
287.67	2775.00
287.89	2869.20
288.10	2643.93
288.32	2723.80
288.53	2779.09
288.75	2650.07
288.96	2867.16
289.18	2596.82
289.39	2580.44
289.61	2715.61
289.82	3002.32
290.04	2973.65
290.25	2514.91
290.47	2607.06
290.68	2760.66
290.90	2840.53
291.11	2471.90
291.33	2719.70
291.54	2576.34
291.76	2658.26
291.97	2701.27
292.18	2699.22
292.40	2641.88
292.61	2592.73
292.83	2803.67
293.04	2623.45
293.26	2701.27
293.47	2629.59
293.69	2639.83
293.90	2529.24
294.12	2848.72
294.33	2678.74
294.55	2611.16
294.76	2652.12
294.97	2977.75
295.19	3102.67
295.40	2580.44
295.62	2697.17
295.83	2801.62
296.05	2594.78
296.26	2779.09
296.48	2572.25
296.69	2713.56
296.90	2699.22
297.12	2742.23
297.33	2719.70
297.55	2731.99
297.76	2846.68
297.98	2752.47
298.19	2711.51
298.41	2635.74
298.62	2555.86
298.83	2721.75
299.05	2668.50
299.26	2750.42
299.48	2547.67
299.69	2699.22
299.90	2654.17
300.12	2617.30
300.33	2783.19
300.55	2568.15
300.76	2668.50
300.98	2484.19
301.19	2797.53
301.40	2576.34
301.62	2600.92
301.83	2793.43
302.05	2695.13
302.26	2574.30
302.47	2635.74
302.69	2449.37
302.90	2717.65
303.12	2439.13
303.33	2752.47
303.54	3076.05
303.76	2691.03
303.97	2676.70
304.19	2865.11
304.40	2588.63
304.61	2828.24
304.83	2742.23
305.04	2672.60
305.26	2873.30
305.47	2652.12
305.68	2645.98
305.90	2537.43
306.11	2844.63
306.33	2680.79
306.54	2496.47
306.75	2488.28
306.97	2492.38
307.18	2580.44
307.39	2494.43
307.61	2650.07
307.82	2633.69
308.04	2861.01
308.25	2570.20
308.46	2611.16
308.68	2752.47
308.89	2711.51
309.10	2676.70
309.32	2607.06
309.53	2826.20
309.74	2834.39
309.96	2547.67
310.17	2793.43
310.39	2650.07
310.60	2836.44
310.81	2652.12
311.03	2490.33
311.24	2826.20
311.45	2740.18
311.67	2846.68
311.88	2633.69
312.09	2654.17
312.31	2676.70
312.52	2607.06
312.73	2543.58
312.95	2547.67
313.16	2598.87
313.37	2756.57
313.59	2772.95
313.80	2791.38
314.01	2973.65
314.23	2611.16
314.44	2494.43
314.65	2578.39
314.87	2680.79
315.08	2568.15
315.29	2680.79
315.51	2557.91
315.72	2514.91
315.93	2785.24
316.15	2652.12
316.36	2656.22
316.57	2717.65
316.79	2766.81
317.00	2639.83
317.21	2783.19
317.43	2678.74
317.64	2580.44
317.85	2535.39
318.07	2586.58
318.28	2633.69
318.49	2752.47
318.70	2818.00
318.92	2842.58
319.13	2736.09
319.34	2775.00
319.56	2605.02
319.77	2818.00
319.98	2787.29
320.20	2797.53
320.41	2717.65
320.62	2785.24
320.83	2541.53
321.05	2795.48
321.26	2641.88
321.47	2750.42
321.69	2883.54
321.90	2498.52
322.11	2574.30
322.32	2707.41
322.54	2973.65
322.75	2652.12
322.96	3297.23
323.18	2557.91
323.39	2430.94
323.60	2535.39
323.81	2686.94
324.03	2621.40
324.24	2682.84
324.45	2729.94
324.66	2582.49
324.88	2858.96
325.09	2912.21
325.30	2686.94
325.52	2553.82
325.73	2863.06
325.94	2586.58
326.15	2498.52
326.37	2562.01
326.58	2973.65
326.79	2985.94
327.00	2506.71
327.22	2605.02
327.43	2719.70
327.64	2564.06
327.85	2682.84
328.07	2680.79
328.28	2942.93
328.49	2648.02
328.70	2607.06
328.92	2562.01
329.13	2764.76
329.34	2844.63
329.55	2904.02
329.76	2719.70
329.98	2725.85
330.19	2854.87
330.40	2668.50
330.61	2641.88
330.83	2783.19
331.04	2588.63
331.25	2588.63
331.46	2602.97
331.68	2596.82
331.89	2850.77
332.10	2615.26
332.31	2539.48
332.52	2772.95
332.74	2861.01
332.95	2496.47
333.16	2605.02
333.37	2936.79
333.58	2637.78
333.80	2641.88
334.01	2439.13
334.22	2701.27
334.43	2670.55
334.64	2578.39
334.86	2508.76
335.07	2531.29
335.28	2906.07
335.49	2521.05
335.70	2682.84
335.92	2887.64
336.13	3049.43
336.34	2611.16
336.55	2629.59
336.76	2785.24
336.98	2385.88
337.19	2605.02
337.40	2734.04
337.61	3086.29
337.82	2623.45
338.04	2703.32
338.25	2432.99
338.46	2688.98
338.67	2596.82
338.88	2650.07
339.09	2545.63
339.31	2635.74
339.52	2559.96
339.73	2519.00
339.94	2701.27
340.15	2781.14
340.36	2650.07
340.58	2609.11
340.79	2521.05
341.00	2731.99
341.21	2576.34
341.42	2791.38
341.63	2609.11
341.85	2850.77
342.06	2678.74
342.27	2637.78
342.48	2748.37
342.69	2502.62
342.90	2807.77
343.12	2871.25
343.33	2516.95
343.54	2846.68
343.75	2953.17
343.96	2578.39
344.17	2553.82
344.38	2734.04
344.60	2580.44
344.81	2527.19
345.02	2598.87
345.23	2824.15
345.44	3145.68
345.65	2711.51
345.86	2707.41
346.07	2768.85
346.29	2631.64
346.50	2791.38
346.71	2574.30
346.92	2953.17
347.13	3055.57
347.34	2643.93
347.55	2568.15
347.76	2779.09
347.98	2402.27
348.19	2736.09
348.40	2850.77
348.61	2686.94
348.82	2977.75
349.03	2680.79
349.24	2523.10
349.45	3024.85
349.66	2449.37
349.88	2596.82
350.09	2541.53
350.30	2916.31
350.51	2957.27
350.72	2609.11
350.93	2645.98
351.14	2641.88
351.35	2803.67
351.56	2619.35
351.77	2613.21
351.99	2793.43
352.20	2985.94
352.41	2643.93
352.62	2412.51
352.83	2693.08
353.04	2727.89
353.25	2516.95
353.46	2650.07
353.67	2924.50
353.88	2488.28
354.09	2555.86
354.30	2695.13
354.52	2891.73
354.73	2693.08
354.94	2568.15
355.15	2596.82
355.36	2918.36
355.57	2611.16
355.78	2547.67
355.99	2584.54
356.20	2666.46
356.41	2906.07
356.62	2738.13
356.83	2658.26
357.04	2969.55
357.25	2500.57
357.46	2564.06
357.68	2465.75
357.89	2629.59
358.10	2705.37
358.31	2613.21
358.52	2639.83
358.73	2549.72
358.94	2590.68
359.15	2641.88
359.36	2703.32
359.57	2750.42
359.78	2744.28
359.99	2725.85
360.20	2488.28
360.41	2734.04
360.62	2787.29
360.83	2691.03
361.04	2637.78
361.25	2764.76
361.46	3033.04
361.67	2740.18
361.88	2613.21
362.09	2756.57
362.30	2736.09
362.51	2605.02
362.72	2633.69
362.93	2850.77
363.14	2842.58
363.35	2719.70
363.56	2539.48
363.78	2904.02
363.99	2854.87
364.20	2578.39
364.41	2717.65
364.62	2928.60
364.83	2836.44
365.04	2564.06
365.25	2682.84
365.46	3047.38
365.67	2645.98
365.88	2709.46
366.09	2559.96
366.30	2662.36
366.51	2729.94
366.72	2543.58
366.93	2557.91
367.14	2725.85
367.35	2906.07
367.56	2617.30
367.77	2703.32
367.98	2645.98
368.18	2777.05
368.39	2668.50
368.60	2551.77
368.81	2781.14
369.02	2727.89
369.23	2631.64
369.44	2383.84
369.65	2609.11
369.86	2818.00
370.07	2777.05
370.28	2539.48
370.49	2826.20
370.70	2818.00
370.91	2531.29
371.12	2430.94
371.33	2918.36
371.54	2609.11
371.75	2725.85
371.96	2383.84
372.17	2807.77
372.38	2643.93
372.59	2623.45
372.80	2564.06
373.01	2619.35
373.22	2768.85
373.43	2621.40
373.64	2557.91
373.85	2875.35
374.06	3020.75
374.26	2731.99
374.47	2740.18
374.68	2861.01
374.89	2723.80
375.10	2637.78
375.31	2611.16
375.52	2686.94
375.73	2752.47
375.94	2605.02
376.15	2748.37
376.36	2621.40
376.57	2619.35
376.78	2641.88
376.99	2625.50
377.20	2901.97
377.40	2650.07
377.61	2920.40
377.82	2580.44
378.03	2947.03
378.24	2848.72
378.45	2703.32
378.66	2744.28
378.87	2473.95
379.08	2535.39
379.29	2488.28
379.50	2695.13
379.71	2697.17
379.91	2783.19
380.12	2600.92
380.33	2629.59
380.54	2731.99
380.75	2680.79
380.96	2635.74
381.17	2713.56
381.38	2645.98
381.59	2744.28
381.80	2580.44
382.00	2871.25
382.21	2736.09
382.42	3088.34
382.63	2863.06
382.84	2801.62
383.05	2826.20
383.26	2953.17
383.47	2701.27
383.68	2660.31
383.88	2846.68
384.09	2811.86
384.30	2838.48
384.51	2719.70
384.72	2619.35
384.93	2584.54
385.14	2645.98
385.35	2754.52
385.55	2580.44
385.76	2936.79
385.97	2586.58
386.18	2422.75
386.39	2578.39
386.60	2676.70
386.81	2637.78
387.02	2428.89
387.22	2473.95
387.43	2783.19
387.64	2670.55
387.85	2818.00
388.06	2758.61
388.27	3960.77
388.48	7552.91
388.68	11208.53
388.89	13606.70
389.10	14632.74
389.31	13817.65
389.52	10954.58
389.73	9668.46
389.93	8742.78
390.14	8040.33
390.35	7102.36
390.56	6404.00
390.77	5367.73
390.98	4077.51
391.18	3469.26
391.39	3160.02
391.60	2842.58
391.81	2785.24
392.02	2578.39
392.23	3053.52
392.43	2781.14
392.64	2758.61
392.85	2725.85
393.06	2979.79
393.27	2682.84
393.47	2555.86
393.68	2621.40
393.89	2697.17
394.10	2836.44
394.31	2574.30
394.52	2607.06
394.72	2676.70
394.93	2996.18
395.14	2523.10
395.35	2721.75
395.56	2707.41
395.76	2760.66
395.97	2721.75
396.18	2785.24
396.39	2768.85
396.60	3289.04
396.80	2863.06
397.01	2904.02
397.22	2932.69
397.43	2930.64
397.64	2631.64
397.84	2738.13
398.05	2920.40
398.26	2801.62
398.47	2699.22
398.67	2740.18
398.88	2580.44
399.09	2846.68
399.30	2580.44
399.51	2734.04
399.71	2586.58
399.92	2652.12
400.13	2734.04
400.34	2676.70
400.54	2721.75
400.75	2916.31
400.96	2572.25
401.17	2949.08
401.37	2834.39
401.58	2670.55
401.79	2592.73
402.00	2723.80
402.21	3137.49
402.41	2914.26
402.62	2936.79
402.83	2969.55
403.04	3106.77
403.24	3385.29
403.45	2731.99
403.66	2877.40
403.87	2897.88
404.07	3035.09
404.28	2863.06
404.49	2918.36
404.70	2791.38
404.90	2766.81
405.11	2609.11
405.32	2738.13
405.52	2586.58
405.73	2643.93
405.94	2594.78
406.15	2648.02
406.35	2865.11
406.56	2869.20
406.77	2783.19
406.98	2707.41
407.18	2609.11
407.39	2963.41
407.60	2635.74
407.80	2725.85
408.01	2639.83
408.22	2858.96
408.43	2639.83
408.63	2781.14
408.84	2848.72
409.05	2801.62
409.25	2619.35
409.46	2527.19
409.67	2684.89
409.88	2723.80
410.08	2680.79
410.29	2613.21
410.50	2820.05
410.70	2791.38
410.91	2562.01
411.12	2734.04
411.32	2658.26
411.53	2613.21
411.74	2668.50
411.95	2734.04
412.15	2750.42
412.36	2848.72
412.57	2768.85
412.77	2838.48
412.98	2752.47
413.19	2662.36
413.39	2672.60
413.60	2686.94
413.81	2906.07
414.01	2551.77
414.22	2605.02
414.43	2762.71
414.63	2643.93
414.84	2838.48
415.05	2684.89
415.25	2514.91
415.46	2826.20
415.67	2602.97
415.87	2641.88
416.08	2648.02
416.29	2721.75
416.49	2768.85
416.70	2682.84
416.91	2602.97
417.11	2641.88
417.32	2871.25
417.53	2807.77
417.73	2699.22
417.94	2734.04
418.15	2711.51
418.35	2607.06
418.56	2693.08
418.77	3084.24
418.97	2768.85
419.18	2613.21
419.38	2277.34
419.59	2781.14
419.80	2895.83
420.00	2580.44
420.21	2691.03
420.42	2838.48
420.62	2711.51
420.83	2613.21
421.04	2662.36
421.24	2715.61
421.45	2777.05
421.65	2670.55
421.86	2645.98
422.07	2848.72
422.27	2809.81
422.48	2615.26
422.69	2543.58
422.89	2723.80
423.10	2713.56
423.30	2596.82
423.51	2742.23
423.72	2766.81
423.92	2891.73
424.13	2486.23
424.33	2701.27
424.54	2852.82
424.75	2883.54
424.95	2850.77
425.16	2650.07
425.36	2678.74
425.57	2828.24
425.78	2711.51
425.98	2729.94
426.19	2719.70
426.39	2580.44
426.60	2617.30
426.81	2822.10
427.01	2721.75
427.22	2682.84
427.42	2494.43
427.63	2586.58
427.83	2811.86
428.04	3002.32
428.25	2748.37
428.45	2762.71
428.66	2822.10
428.86	2772.95
429.07	2682.84
429.28	2668.50
429.48	2691.03
429.69	2619.35
429.89	2662.36
430.10	2519.00
430.30	2789.33
430.51	2768.85
430.71	2529.24
430.92	2627.54
431.13	2607.06
431.33	2770.90
431.54	2666.46
431.74	2908.12
431.95	3112.91
432.15	2586.58
432.36	2594.78
432.56	2711.51
432.77	2967.51
432.98	2928.60
433.18	2701.27
433.39	2592.73
433.59	2668.50
433.80	3022.80
434.00	2940.88
434.21	2586.58
434.41	2680.79
434.62	2996.18
434.82	2559.96
435.03	2537.43
435.23	2777.05
435.44	2488.28
435.64	2668.50
435.85	2666.46
436.06	2820.05
436.26	2824.15
436.47	2637.78
436.67	2582.49
436.88	2723.80
437.08	2879.44
437.29	2789.33
437.49	2746.33
437.70	2975.70
437.90	2652.12
438.11	2887.64
438.31	2709.46
438.52	2949.08
438.72	2916.31
438.93	2887.64
439.13	2662.36
439.34	2877.40
439.54	2670.55
439.75	2734.04
439.95	2639.83
440.16	2615.26
440.36	2719.70
440.57	2731.99
440.77	2727.89
440.98	2750.42
441.18	2748.37
441.39	2531.29
441.59	2494.43
441.80	3037.14
442.00	2789.33
442.21	2789.33
442.41	2500.57
442.62	2881.49
442.82	2574.30
443.02	2670.55
443.23	2697.17
443.43	2654.17
443.64	2875.35
443.84	2578.39
444.05	2789.33
444.25	2723.80
444.46	2635.74
444.66	2613.21
444.87	2873.30
445.07	2551.77
445.28	2799.57
445.48	2824.15
445.69	2768.85
445.89	3127.25
446.09	2709.46
446.30	3035.09
446.50	3035.09
446.71	4540.35
446.91	5664.68
447.12	6528.92
447.32	6817.69
447.53	6414.24
447.73	5425.07
447.93	4800.44
448.14	4534.20
448.34	4593.59
448.55	3790.79
448.75	3825.61
448.96	3719.11
449.16	3377.10
449.36	3217.36
449.57	2891.73
449.77	2760.66
449.98	2645.98
450.18	2922.45
450.39	2666.46
450.59	2818.00
450.79	2672.60
451.00	2615.26
451.20	2838.48
451.41	2678.74
451.61	2705.37
451.81	2703.32
452.02	2600.92
452.22	2680.79
452.43	2654.17
452.63	2586.58
452.84	2701.27
453.04	2574.30
453.24	2695.13
453.45	2580.44
453.65	2662.36
453.86	2637.78
454.06	2779.09
454.26	2775.00
454.47	2519.00
454.67	2869.20
454.87	2809.81
455.08	2731.99
455.28	2768.85
455.49	2703.32
455.69	2629.59
455.89	3063.76
456.10	2684.89
456.30	2656.22
456.51	2850.77
456.71	2740.18
456.91	2699.22
457.12	2625.50
457.32	2805.72
457.52	2596.82
457.73	2729.94
457.93	2836.44
458.14	2635.74
458.34	2500.57
458.54	2658.26
458.75	2619.35
458.95	2801.62
459.15	2752.47
459.36	2760.66
459.56	2650.07
459.76	3047.38
459.97	2701.27
460.17	2680.79
460.37	2691.03
460.58	2744.28
460.78	2875.35
460.99	2615.26
461.19	2703.32
461.39	2623.45
461.60	2721.75
461.80	2664.41
462.00	2543.58
462.21	2783.19
462.41	2588.63
462.61	2572.25
462.82	2500.57
463.02	2791.38
463.22	2768.85
463.43	2785.24
463.63	2568.15
463.83	2992.08
464.04	2842.58
464.24	2627.54
464.44	2654.17
464.64	2744.28
464.85	2824.15
465.05	2686.94
465.25	2586.58
465.46	2652.12
465.66	2787.29
465.86	2744.28
466.07	2635.74
466.27	2742.23
466.47	2504.67
466.68	2502.62
466.88	2779.09
467.08	2734.04
467.29	2932.69
467.49	2703.32
467.69	2674.65
467.89	2850.77
468.10	2834.39
468.30	2744.28
468.50	2840.53
468.71	2895.83
468.91	2523.10
469.11	2815.96
469.31	2738.13
469.52	2537.43
469.72	2953.17
469.92	2957.27
470.13	2609.11
470.33	2697.17
470.53	2842.58
470.73	2957.27
470.94	3305.42
471.14	3401.68
471.34	3817.41
471.54	3530.70
471.75	3317.71
471.95	3135.44
472.15	3088.34
472.36	3061.71
472.56	3121.10
472.76	3243.98
472.96	3082.19
473.17	2834.39
473.37	2809.81
473.57	2731.99
473.77	2789.33
473.98	2727.89
474.18	2541.53
474.38	3229.65
474.58	2635.74
474.79	2564.06
474.99	2760.66
475.19	2912.21
475.39	2621.40
475.60	2721.75
475.80	2672.60
476.00	2650.07
476.20	2715.61
476.41	2750.42
476.61	2746.33
476.81	2865.11
477.01	2605.02
477.21	2848.72
477.42	2695.13
477.62	2633.69
477.82	2879.44
478.02	2588.63
478.23	2674.65
478.43	2598.87
478.63	2674.65
478.83	2664.41
479.03	2633.69
479.24	2906.07
479.44	2996.18
479.64	2533.34
479.84	2453.47
480.04	2574.30
480.25	2897.88
480.45	2621.40
480.65	2539.48
480.85	2901.97
481.06	2629.59
481.26	2684.89
481.46	2734.04
481.66	2822.10
481.86	2580.44
482.06	2736.09
482.27	2627.54
482.47	2600.92
482.67	2803.67
482.87	2637.78
483.07	2748.37
483.28	2691.03
483.48	2605.02
483.68	2578.39
483.88	2514.91
484.08	2451.42
484.29	2619.35
484.49	2719.70
484.69	2572.25
484.89	2979.79
485.09	2879.44
485.29	2662.36
485.50	2693.08
485.70	2664.41
485.90	2969.55
486.10	2791.38
486.30	2615.26
486.50	2893.78
486.71	2809.81
486.91	2717.65
487.11	2830.29
487.31	2457.56
487.51	2768.85
487.71	2574.30
487.91	2555.86
488.12	2672.60
488.32	2402.27
488.52	2584.54
488.72	2426.84
488.92	2762.71
489.12	2867.16
489.32	2729.94
489.53	2621.40
489.73	2551.77
489.93	2961.36
490.13	2564.06
490.33	2471.90
490.53	2815.96
490.73	2897.88
490.94	2553.82
491.14	2779.09
491.34	2832.34
491.54	2942.93
491.74	3518.41
491.94	4034.50
492.14	4511.68
492.34	4421.56
492.54	4216.77
492.75	3526.60
492.95	3581.90
493.15	3491.79
493.35	3270.61
493.55	3209.17
493.75	3151.82
493.95	3203.02
494.15	2850.77
494.35	2738.13
494.56	2791.38
494.76	2602.97
494.96	2803.67
495.16	2596.82
495.36	2758.61
495.56	2775.00
495.76	2721.75
495.96	2602.97
496.16	2656.22
496.36	3047.38
496.56	2656.22
496.77	2791.38
496.97	2734.04
497.17	2936.79
497.37	2475.99
497.57	2703.32
497.77	2727.89
497.97	2613.21
498.17	2650.07
498.37	2668.50
498.57	2826.20
498.77	2633.69
498.97	2760.66
499.17	2824.15
499.38	2795.48
499.58	2752.47
499.78	2768.85
499.98	2815.96
500.18	2674.65
500.38	2625.50
500.58	2858.96
500.78	3264.46
500.98	5420.97
501.18	7227.28
501.38	8800.12
501.58	9568.11
501.78	9473.90
501.98	7585.68
502.18	6537.12
502.38	5652.39
502.58	5392.30
502.78	4757.43
502.98	4685.75
503.18	4427.71
503.38	4112.32
503.59	3596.23
503.79	3446.73
503.99	3321.81
504.19	3190.74
504.39	3114.96
504.59	3203.02
504.79	3088.34
504.99	3180.50
505.19	2908.12
505.39	2840.53
505.59	3094.48
505.79	3024.85
505.99	2914.26
506.19	2691.03
506.39	2975.70
506.59	2662.36
506.79	2740.18
506.99	2883.54
507.19	2674.65
507.39	2748.37
507.59	2580.44
507.79	2586.58
507.99	2576.34
508.19	2731.99
508.39	2678.74
508.59	2695.13
508.79	2760.66
508.99	3006.42
509.19	2594.78
509.39	2721.75
509.59	2584.54
509.79	2582.49
509.99	2785.24
510.19	2791.38
510.39	2795.48
510.59	2719.70
510.79	2680.79
510.99	2480.09
511.19	2654.17
511.39	2977.75
511.59	2942.93
511.79	2791.38
511.99	2662.36
512.19	2938.84
512.38	2652.12
512.58	2580.44
512.78	2639.83
512.98	2944.98
513.18	2928.60
513.38	2543.58
513.58	2756.57
513.78	2627.54
513.98	2664.41
514.18	2633.69
514.38	2596.82
514.58	2777.05
514.78	2648.02
514.98	2645.98
515.18	2605.02
515.38	2555.86
515.58	3010.51
515.78	2670.55
515.98	2633.69
516.18	2854.87
516.38	2748.37
516.57	2662.36
516.77	2578.39
516.97	2863.06
517.17	2633.69
517.37	2490.33
517.57	2658.26
517.77	2605.02
517.97	2637.78
518.17	2709.46
518.37	2621.40
518.57	2643.93
518.77	2668.50
518.97	2652.12
519.16	2699.22
519.36	2947.03
519.56	2656.22
519.76	2621.40
519.96	2645.98
520.16	2863.06
520.36	2641.88
520.56	2744.28
520.76	2559.96
520.96	2758.61
521.16	2904.02
521.35	2838.48
521.55	2848.72
521.75	2707.41
521.95	2627.54
522.15	2639.83
522.35	2504.67
522.55	2600.92
522.75	2766.81
522.95	2564.06
523.14	2523.10
523.34	2711.51
523.54	2625.50
523.74	2719.70
523.94	2678.74
524.14	2451.42
524.34	2740.18
524.54	2885.59
524.73	2666.46
524.93	2856.92
525.13	2738.13
525.33	2512.86
525.53	2865.11
525.73	2758.61
525.93	2772.95
526.13	2607.06
526.32	2656.22
526.52	2881.49
526.72	2811.86
526.92	2645.98
527.12	2639.83
527.32	2549.72
527.52	2740.18
527.71	2744.28
527.91	2686.94
528.11	2674.65
528.31	2742.23
528.51	2543.58
528.71	2686.94
528.90	2781.14
529.10	2893.78
529.30	2850.77
529.50	2402.27
529.70	2731.99
529.90	2715.61
530.09	2678.74
530.29	2594.78
530.49	2613.21
530.69	3229.65
530.89	2693.08
531.09	2699.22
531.28	2619.35
531.48	2934.74
531.68	2650.07
531.88	2578.39
532.08	2899.92
532.28	2645.98
532.47	2756.57
532.67	2772.95
532.87	2830.29
533.07	2613.21
533.27	2738.13
533.46	2770.90
533.66	2803.67
533.86	2629.59
534.06	2682.84
534.26	2691.03
534.45	2688.98
534.65	2895.83
534.85	2684.89
535.05	2629.59
535.25	2842.58
535.44	2475.99
535.64	2748.37
535.84	2619.35
536.04	2650.07
536.24	2721.75
536.43	2625.50
536.63	2650.07
536.83	2701.27
537.03	2658.26
537.22	2516.95
537.42	2514.91
537.62	2754.52
537.82	2602.97
538.02	2777.05
538.21	2754.52
538.41	3153.87
538.61	2901.97
538.81	2688.98
539.00	2811.86
539.20	2498.52
539.40	2674.65
539.60	2605.02
539.79	2828.24
539.99	2617.30
540.19	2584.54
540.39	2572.25
540.58	2662.36
540.78	2912.21
540.98	2697.17
541.18	2822.10
541.37	2766.81
541.57	2686.94
541.77	2768.85
541.97	2559.96
542.16	2514.91
542.36	2584.54
542.56	2715.61
542.76	2889.68
542.95	2760.66
543.15	2793.43
543.35	2932.69
543.54	2596.82
543.74	2537.43
543.94	2998.23
544.14	2627.54
544.33	2746.33
544.53	2617.30
544.73	2660.31
544.93	2633.69
545.12	2621.40
545.32	2590.68
545.52	2613.21
545.71	2639.83
545.91	2572.25
546.11	2570.20
546.30	2582.49
546.50	2705.37
546.70	2709.46
546.90	2666.46
547.09	2537.43
547.29	2703.32
547.49	2768.85
547.68	2619.35
547.88	2633.69
548.08	2899.92
548.27	3049.43
548.47	2594.78
548.67	2688.98
548.87	2777.05
549.06	2637.78
549.26	2660.31
549.46	2682.84
549.65	2631.64
549.85	2721.75
550.05	2637.78
550.24	2549.72
550.44	2752.47
550.64	2643.93
550.83	2676.70
551.03	3012.56
551.23	2871.25
551.42	2793.43
551.62	2686.94
551.82	2758.61
552.01	2770.90
552.21	2834.39
552.41	2656.22
552.60	2908.12
552.80	2621.40
553.00	2625.50
553.19	2709.46
553.39	2955.22
553.59	2516.95
553.78	2822.10
553.98	2682.84
554.17	2582.49
554.37	2725.85
554.57	2719.70
554.76	2521.05
554.96	2617.30
555.16	2691.03
555.35	2684.89
555.55	2787.29
555.75	2770.90
555.94	2828.24
556.14	2521.05
556.33	2641.88
556.53	2707.41
556.73	2662.36
556.92	2752.47
557.12	2676.70
557.32	3014.61
557.51	2971.60
557.71	2707.41
557.90	2848.72
558.10	2947.03
558.30	2781.14
558.49	2695.13
558.69	2633.69
558.88	2875.35
559.08	2725.85
559.28	2645.98
559.47	2654.17
559.67	2799.57
559.86	2959.31
560.06	2650.07
560.26	2693.08
560.45	2826.20
560.65	2688.98
560.84	2832.34
561.04	2562.01
561.24	2854.87
561.43	2568.15
561.63	2873.30
561.82	2738.13
562.02	2799.57
562.22	2574.30
562.41	2590.68
562.61	2574.30
562.80	2574.30
563.00	3149.78
563.19	2619.35
563.39	2768.85
563.59	2867.16
563.78	2639.83
563.98	2447.32
564.17	2605.02
564.37	2506.71
564.56	2666.46
564.76	2633.69
564.96	2826.20
565.15	2809.81
565.35	3039.19
565.54	2744.28
565.74	2738.13
565.93	2750.42
566.13	2672.60
566.32	2715.61
566.52	2772.95
566.71	2699.22
566.91	2846.68
567.11	2768.85
567.30	2594.78
567.50	2824.15
567.69	2799.57
567.89	2615.26
568.08	2580.44
568.28	2781.14
568.47	2564.06
568.67	2668.50
568.86	2637.78
569.06	2758.61
569.25	2662.36
569.45	2566.10
569.64	2631.64
569.84	2709.46
570.04	2797.53
570.23	2531.29
570.43	2688.98
570.62	2793.43
570.82	2949.08
571.01	2521.05
571.21	2645.98
571.40	2588.63
571.60	2813.91
571.79	2754.52
571.99	2711.51
572.18	2623.45
572.38	2703.32
572.57	2576.34
572.77	2711.51
572.96	3041.23
573.16	2707.41
573.35	2648.02
573.55	2826.20
573.74	2801.62
573.94	2639.83
574.13	2660.31
574.33	2842.58
574.52	2850.77
574.71	2783.19
574.91	2770.90
575.10	2529.24
575.30	2762.71
575.49	2635.74
575.69	2594.78
575.88	2641.88
576.08	2678.74
576.27	2901.97
576.47	2596.82
576.66	2803.67
576.86	2887.64
577.05	2785.24
577.25	2719.70
577.44	2846.68
577.64	2633.69
577.83	2826.20
578.02	2668.50
578.22	2891.73
578.41	3096.53
578.61	2668.50
578.80	2498.52
579.00	2693.08
579.19	2738.13
579.39	2785.24
579.58	2865.11
579.77	2684.89
579.97	2912.21
580.16	2932.69
580.36	2760.66
580.55	2746.33
580.75	2842.58
580.94	2799.57
581.13	2801.62
581.33	2809.81
581.52	2729.94
581.72	3000.27
581.91	2883.54
582.11	2664.41
582.30	2856.92
582.49	2858.96
582.69	2904.02
582.88	2772.95
583.08	2791.38
583.27	2936.79
583.47	2725.85
583.66	2668.50
583.85	2693.08
584.05	2740.18
584.24	2750.42
584.44	2727.89
584.63	2928.60
584.82	2953.17
585.02	2930.64
585.21	2760.66
585.41	2879.44
585.60	2826.20
585.79	2971.60
585.99	2932.69
586.18	2897.88
586.37	3520.46
586.57	5515.18
586.76	16127.75
586.96	35474.91
587.15	48823.58
587.34	57347.22
587.54	61480.02
587.73	55051.45
587.93	39046.57
588.12	29685.31
588.31	24032.91
588.51	21475.00
588.70	19433.18
588.89	17465.08
589.09	14737.18
589.28	12545.86
589.47	9985.90
589.67	7759.75
589.86	5906.34
590.06	4491.20
590.25	3993.54
590.44	3375.05
590.64	3067.86
590.83	2987.99
591.02	3022.80
591.22	2772.95
591.41	2756.57
591.60	2775.00
591.80	3145.68
591.99	2535.39
592.18	2676.70
592.38	2959.31
592.57	2703.32
592.76	2699.22
592.96	2715.61
593.15	2813.91
593.34	2883.54
593.54	2664.41
593.73	2760.66
593.92	2828.24
594.12	2858.96
594.31	2791.38
594.50	2852.82
594.70	2742.23
594.89	3155.92
595.08	2547.67
595.28	2711.51
595.47	3215.31
595.66	2906.07
595.86	2523.10
596.05	2643.93
596.24	2727.89
596.43	2955.22
596.63	2895.83
596.82	2842.58
597.01	2803.67
597.21	3067.86
597.40	2717.65
597.59	2703.32
597.79	2684.89
597.98	2775.00
598.17	2662.36
598.36	2615.26
598.56	2826.20
598.75	2596.82
598.94	2760.66
599.14	2697.17
599.33	2748.37
599.52	2795.48
599.71	2742.23
599.91	2721.75
600.10	2840.53
600.29	2793.43
600.48	2772.95
600.68	2752.47
600.87	2768.85
601.06	2672.60
601.26	2701.27
601.45	2752.47
601.64	2668.50
601.83	2979.79
602.03	2572.25
602.22	2572.25
602.41	2957.27
602.60	3049.43
602.80	2795.48
602.99	2740.18
603.18	2609.11
603.37	2854.87
603.57	2619.35
603.76	2727.89
603.95	2879.44
604.14	2637.78
604.34	2586.58
604.53	2609.11
604.72	2719.70
604.91	2801.62
605.10	2752.47
605.30	2496.47
605.49	3119.06
605.68	2758.61
605.87	2752.47
606.07	2580.44
606.26	2809.81
606.45	2840.53
606.64	2678.74
606.84	2535.39
607.03	2752.47
607.22	2848.72
607.41	2594.78
607.60	2711.51
607.80	2848.72
607.99	2775.00
608.18	2691.03
608.37	2666.46
608.56	2693.08
608.76	2908.12
608.95	2861.01
609.14	2648.02
609.33	2940.88
609.52	2998.23
609.72	2717.65
609.91	2795.48
610.10	2815.96
610.29	2912.21
610.48	2703.32
610.68	2727.89
610.87	2680.79
611.06	2863.06
611.25	2682.84
611.44	2813.91
611.63	2596.82
611.83	2955.22
612.02	2609.11
612.21	2813.91
612.40	2516.95
612.59	2566.10
612.79	2613.21
612.98	2729.94
613.17	2944.98
613.36	2701.27
613.55	2777.05
613.74	2686.94
613.93	2797.53
614.13	2830.29
614.32	2854.87
614.51	2826.20
614.70	2736.09
614.89	2666.46
615.08	2807.77
615.28	3041.23
615.47	2656.22
615.66	2777.05
615.85	2625.50
616.04	2830.29
616.23	2746.33
616.42	2768.85
616.62	2695.13
616.81	2762.71
617.00	2742.23
617.19	2877.40
617.38	2627.54
617.57	2691.03
617.76	2848.72
617.95	2791.38
618.15	2760.66
618.34	2826.20
618.53	2478.04
618.72	2840.53
618.91	2768.85
619.10	2818.00
619.29	2678.74
619.48	2789.33
619.68	2559.96
619.87	2629.59
620.06	2576.34
620.25	2834.39
620.44	2639.83
620.63	2576.34
620.82	2764.76
621.01	2756.57
621.20	2674.65
621.39	2762.71
621.59	2846.68
621.78	2713.56
621.97	2740.18
622.16	2756.57
622.35	2678.74
622.54	2846.68
622.73	2777.05
622.92	2451.42
623.11	2832.34
623.30	2748.37
623.49	2750.42
623.68	2660.31
623.88	2881.49
624.07	2705.37
624.26	2635.74
624.45	2664.41
624.64	2641.88
624.83	2777.05
625.02	2697.17
625.21	2684.89
625.40	2775.00
625.59	2955.22
625.78	2783.19
625.97	2826.20
626.16	2901.97
626.35	2871.25
626.54	2643.93
626.74	2852.82
626.93	2678.74
627.12	2701.27
627.31	2766.81
627.50	2729.94
627.69	2893.78
627.88	2516.95
628.07	2607.06
628.26	2531.29
628.45	2572.25
628.64	2588.63
628.83	2586.58
629.02	2566.10
629.21	2758.61
629.40	2777.05
629.59	2629.59
629.78	2611.16
629.97	2680.79
630.16	2734.04
630.35	2635.74
630.54	2670.55
630.73	2662.36
630.92	2717.65
631.11	2594.78
631.30	2666.46
631.49	2846.68
631.68	2705.37
631.87	2678.74
632.06	2527.19
632.25	3108.82
632.44	2752.47
632.63	2709.46
632.82	2656.22
633.01	2756.57
633.20	2756.57
633.39	2623.45
633.58	2455.51
633.77	2783.19
633.96	2906.07
634.15	2701.27
634.34	2721.75
634.53	2738.13
634.72	2672.60
634.91	2473.95
635.10	2643.93
635.29	2889.68
635.48	2723.80
635.67	2514.91
635.86	2506.71
636.05	2955.22
636.24	2676.70
636.43	2736.09
636.62	2678.74
636.81	2426.84
637.00	2701.27
637.19	2660.31
637.38	2592.73
637.57	2664.41
637.76	2711.51
637.95	2840.53
638.14	2740.18
638.33	2729.94
638.52	2758.61
638.71	2480.09
638.89	2543.58
639.08	3182.54
639.27	2916.31
639.46	2824.15
639.65	3184.59
639.84	3270.61
640.03	3311.57
640.22	3100.62
640.41	3086.29
640.60	2799.57
640.79	2944.98
640.98	2775.00
641.17	2889.68
641.36	2947.03
641.55	2887.64
641.74	2549.72
641.92	2602.97
642.11	2641.88
642.30	2662.36
642.49	2559.96
642.68	2533.34
642.87	2758.61
643.06	2875.35
643.25	2547.67
643.44	2473.95
643.63	2738.13
643.82	2795.48
644.00	2590.68
644.19	2619.35
644.38	2584.54
644.57	2760.66
644.76	2670.55
644.95	2637.78
645.14	2633.69
645.33	2639.83
645.52	2676.70
645.71	2557.91
645.89	2607.06
646.08	2701.27
646.27	2662.36
646.46	2924.50
646.65	2613.21
646.84	2766.81
647.03	2551.77
647.22	2858.96
647.40	2752.47
647.59	2658.26
647.78	2516.95
647.97	2586.58
648.16	2629.59
648.35	2858.96
648.54	2824.15
648.73	2652.12
648.91	2795.48
649.10	2691.03
649.29	2598.87
649.48	2621.40
649.67	2758.61
649.86	2836.44
650.05	2635.74
650.23	2805.72
650.42	2715.61
650.61	2920.40
650.80	2930.64
650.99	2891.73
651.18	2922.45
651.36	2899.92
651.55	2578.39
651.74	2768.85
651.93	2787.29
652.12	2635.74
652.31	2686.94
652.49	2719.70
652.68	2613.21
652.87	2908.12
653.06	2781.14
653.25	2885.59
653.44	2684.89
653.62	2959.31
653.81	2625.50
654.00	2662.36
654.19	2883.54
654.38	3147.73
654.56	2742.23
654.75	2615.26
654.94	2854.87
655.13	2785.24
655.32	2721.75
655.51	2731.99
655.69	2662.36
655.88	2846.68
656.07	2516.95
656.26	2719.70
656.45	2486.23
656.63	2752.47
656.82	2662.36
657.01	2803.67
657.20	2635.74
657.38	2990.03
657.57	2619.35
657.76	2602.97
657.95	2887.64
658.14	2676.70
658.32	2787.29
658.51	2527.19
658.70	2711.51
658.89	2748.37
659.08	2615.26
659.26	2858.96
659.45	2639.83
659.64	2869.20
659.83	2623.45
660.01	3078.10
660.20	2717.65
660.39	2940.88
660.58	2387.93
660.76	2813.91
660.95	2531.29
661.14	2643.93
661.33	2469.85
661.51	2678.74
661.70	2621.40
661.89	2815.96
662.08	2656.22
662.26	2566.10
662.45	2531.29
662.64	3006.42
662.83	2717.65
663.01	2494.43
663.20	2619.35
663.39	2885.59
663.58	2592.73
663.76	2633.69
663.95	2809.81
664.14	2609.11
664.32	2607.06
664.51	2576.34
664.70	2537.43
664.89	2668.50
665.07	2459.61
665.26	2809.81
665.45	2539.48
665.64	2727.89
665.82	2594.78
666.01	2799.57
666.20	2516.95
666.38	2918.36
666.57	2766.81
666.76	4329.41
666.95	9926.50
667.13	17032.96
667.32	21264.06
667.51	23926.42
667.69	25218.69
667.88	21843.63
668.07	15511.32
668.25	13104.95
668.44	10887.00
668.63	9607.02
668.81	8675.20
669.00	7444.37
669.19	6662.04
669.38	5738.41
669.56	5048.24
669.75	4290.49
669.94	3831.75
670.12	3313.61
670.31	3020.75
670.50	2858.96
670.68	2906.07
670.87	2891.73
671.06	2621.40
671.24	2736.09
671.43	2936.79
671.62	2836.44
671.80	2668.50
671.99	2744.28
672.18	2707.41
672.36	2852.82
672.55	2703.32
672.74	2711.51
672.92	2686.94
673.11	2818.00
673.29	2502.62
673.48	2844.63
673.67	2674.65
673.85	2842.58
674.04	2566.10
674.23	2697.17
674.41	2926.55
674.60	2582.49
674.79	2359.26
674.97	2531.29
675.16	2795.48
675.34	2803.67
675.53	2580.44
675.72	2721.75
675.90	2971.60
676.09	2727.89
676.28	2734.04
676.46	2551.77
676.65	2840.53
676.83	2598.87
677.02	2672.60
677.21	2777.05
677.39	2758.61
677.58	2639.83
677.77	2637.78
677.95	2553.82
678.14	2699.22
678.32	2818.00
678.51	2580.44
678.70	2987.99
678.88	2686.94
679.07	2721.75
679.25	2705.37
679.44	2693.08
679.63	2570.20
679.81	2756.57
680.00	2811.86
680.18	2680.79
680.37	2922.45
680.55	2768.85
680.74	2428.89
680.93	2508.76
681.11	2801.62
681.30	2754.52
681.48	2742.23
681.67	2627.54
681.85	2719.70
682.04	2586.58
682.23	2785.24
682.41	2801.62
682.60	2602.97
682.78	2709.46
682.97	2613.21
683.15	2684.89
683.34	2678.74
683.53	2916.31
683.71	2574.30
683.90	2775.00
684.08	2985.94
684.27	2744.28
684.45	2701.27
684.64	2850.77
684.82	2715.61
685.01	2811.86
685.19	2666.46
685.38	2885.59
685.57	2799.57
685.75	2625.50
685.94	2557.91
686.12	2494.43
686.31	2660.31
686.49	2885.59
686.68	2439.13
686.86	2662.36
687.05	2670.55
687.23	2916.31
687.42	2650.07
687.60	2469.85
687.79	2883.54
687.97	2914.26
688.16	2848.72
688.34	2836.44
688.53	2510.81
688.71	2772.95
688.90	2949.08
689.08	2731.99
689.27	2469.85
689.45	2832.34
689.64	2777.05
689.82	2760.66
690.01	2818.00
690.19	2791.38
690.38	2703.32
690.56	2766.81
690.75	2586.58
690.93	2615.26
691.12	2670.55
691.30	2703.32
691.49	2734.04
691.67	2686.94
691.86	2955.22
692.04	2650.07
692.23	2572.25
692.41	2715.61
692.60	2996.18
692.78	2897.88
692.97	2703.32
693.15	2863.06
693.34	2967.51
693.52	2807.77
693.71	2701.27
693.89	2625.50
694.08	2510.81
694.26	2691.03
694.44	2858.96
694.63	2754.52
694.81	2572.25
695.00	2656.22
695.18	2906.07
695.37	3084.24
695.55	2707.41
695.74	2666.46
695.92	2617.30
696.10	2904.02
696.29	2537.43
696.47	2596.82
696.66	2564.06
696.84	2576.34
697.03	2699.22
697.21	2930.64
697.40	4151.23
697.58	2877.40
697.76	2611.16
697.95	2641.88
698.13	2582.49
698.32	2660.31
698.50	2686.94
698.68	2752.47
698.87	2762.71
699.05	3018.71
699.24	2715.61
699.42	2553.82
699.61	2766.81
699.79	2723.80
699.97	2703.32
700.16	2525.15
700.34	2547.67
700.53	2744.28
700.71	2861.01
700.89	2785.24
701.08	2625.50
701.26	2695.13
701.45	3119.06
701.63	2545.63
701.81	2643.93
702.00	2572.25
702.18	2711.51
702.37	2625.50
702.55	2871.25
702.73	2799.57
702.92	2639.83
703.10	2961.36
703.28	2934.74
703.47	2635.74
703.65	2842.58
703.84	2727.89
704.02	2654.17
704.20	3008.47
704.39	2701.27
704.57	2629.59
704.75	2731.99
704.94	2840.53
705.12	2742.23
705.30	3176.40
705.49	5937.06
705.67	11974.47
705.86	17721.07
706.04	20528.84
706.22	23142.05
706.41	22728.36
706.59	17706.74
706.77	13150.01
706.96	11636.56
707.14	10391.39
707.32	8933.24
707.51	8073.09
707.69	6459.29
707.87	5511.08
708.06	4609.98
708.24	4001.73
708.42	3428.30
708.61	3463.12
708.79	2705.37
708.97	2830.29
709.16	2889.68
709.34	2793.43
709.52	2637.78
709.71	2713.56
709.89	2842.58
710.07	2590.68
710.26	2574.30
710.44	2658.26
710.62	2832.34
710.80	2688.98
710.99	2731.99
711.17	2848.72
711.35	2643.93
711.54	2521.05
711.72	2842.58
711.90	2637.78
712.09	2789.33
712.27	2635.74
712.45	2801.62
712.63	2527.19
712.82	2826.20
713.00	2701.27
713.18	2744.28
713.37	2815.96
713.55	2760.66
713.73	2781.14
713.91	2764.76
714.10	2617.30
714.28	2668.50
714.46	2734.04
714.65	2701.27
714.83	2777.05
715.01	2781.14
715.19	2742.23
715.38	2580.44
715.56	2746.33
715.74	2539.48
715.92	2596.82
716.11	2947.03
716.29	2478.04
716.47	2678.74
716.65	2623.45
716.84	2478.04
717.02	2815.96
717.20	2430.94
717.38	2629.59
717.57	2678.74
717.75	2656.22
717.93	2623.45
718.11	2758.61
718.30	2541.53
718.48	2680.79
718.66	2867.16
718.84	2867.16
719.03	2635.74
719.21	2500.57
719.39	2951.12
719.57	2803.67
719.75	2740.18
719.94	2639.83
720.12	2639.83
720.30	2729.94
720.48	2822.10
720.67	2641.88
720.85	2625.50
721.03	2621.40
721.21	2641.88
721.39	2772.95
721.58	2799.57
721.76	2752.47
721.94	2701.27
722.12	2795.48
722.30	2924.50
722.49	2672.60
722.67	2664.41
722.85	2691.03
723.03	2543.58
723.21	2627.54
723.40	2678.74
723.58	2789.33
723.76	2822.10
723.94	2895.83
724.12	2738.13
724.30	2789.33
724.49	2797.53
724.67	2598.87
724.85	2834.39
725.03	2600.92
725.21	2834.39
725.40	2856.92
725.58	2602.97
725.76	2820.05
725.94	2772.95
726.12	2598.87
726.30	2684.89
726.49	2619.35
726.67	2691.03
726.85	2832.34
727.03	3080.14
727.21	4061.12
727.39	5128.11
727.57	5552.04
727.76	5900.20
727.94	6199.20
728.12	5652.39
728.30	4575.16
728.48	4308.93
728.66	4032.45
728.84	3807.17
729.03	3448.78
729.21	3198.93
729.39	2947.03
729.57	2912.21
729.75	2813.91
729.93	2789.33
730.11	2629.59
730.30	2666.46
730.48	2756.57
730.66	2748.37
730.84	2725.85
731.02	2701.27
731.20	2598.87
731.38	2727.89
731.56	2529.24
731.74	2482.14
731.93	2754.52
732.11	2723.80
732.29	2637.78
732.47	2791.38
732.65	2738.13
732.83	2871.25
733.01	2787.29
733.19	2586.58
733.37	2850.77
733.56	2768.85
733.74	2586.58
733.92	2961.36
734.10	2658.26
734.28	2818.00
734.46	2553.82
734.64	2684.89
734.82	2693.08
735.00	2564.06
735.18	2590.68
735.36	2756.57
735.54	2750.42
735.73	2713.56
735.91	2707.41
736.09	2936.79
736.27	2731.99
736.45	2750.42
736.63	2465.75
736.81	2633.69
736.99	2899.92
737.17	2924.50
737.35	2559.96
737.53	2815.96
737.71	2688.98
737.89	2820.05
738.07	2596.82
738.25	2611.16
738.43	2539.48
738.61	2613.21
738.80	2486.23
738.98	2572.25
739.16	2658.26
739.34	2576.34
739.52	2889.68
739.70	2688.98
739.88	2832.34
740.06	2764.76
740.24	2471.90
740.42	2918.36
740.60	2508.76
740.78	2664.41
740.96	2457.56
741.14	2676.70
741.32	2787.29
741.50	2482.14
741.68	2854.87
741.86	2904.02
742.04	2596.82
742.22	2547.67
742.40	2629.59
742.58	2803.67
742.76	2609.11
742.94	2758.61
743.12	2492.38
743.30	2731.99
743.48	2723.80
743.66	2598.87
743.84	2719.70
744.02	2637.78
744.20	2635.74
744.38	2549.72
744.56	2582.49
744.74	2977.75
744.92	2766.81
745.10	2918.36
745.28	2721.75
745.46	2975.70
745.64	2746.33
745.82	2770.90
746.00	2686.94
746.18	2834.39
746.36	2605.02
746.54	2727.89
746.72	2775.00
746.90	2594.78
747.08	2899.92
747.26	2682.84
747.44	2742.23
747.62	2758.61
747.80	2809.81
747.98	2764.76
748.15	2652.12
748.33	2924.50
748.51	2768.85
748.69	2750.42
748.87	2545.63
749.05	2688.98
749.23	2703.32
749.41	2625.50
749.59	2611.16
749.77	2791.38
749.95	2693.08
750.13	2549.72
750.31	2760.66
750.49	2703.32
750.67	2826.20
750.85	2801.62
751.03	2525.15
751.20	3055.57
751.38	2711.51
751.56	2625.50
751.74	2668.50
751.92	2703.32
752.10	2570.20
752.28	2811.86
752.46	2609.11
752.64	2656.22
752.82	2742.23
753.00	2775.00
753.18	2600.92
753.35	2635.74
753.53	2770.90
753.71	2639.83
753.89	2697.17
754.07	2688.98
754.25	2852.82
754.43	2639.83
754.61	2516.95
754.79	2731.99
754.97	2682.84
755.14	2826.20
755.32	2510.81
755.50	2764.76
755.68	2691.03
755.86	2562.01
756.04	2598.87
756.22	2420.70
756.40	2750.42
756.57	2879.44
756.75	2570.20
756.93	2906.07
757.11	2875.35
757.29	2535.39
757.47	2613.21
757.65	2562.01
757.82	2500.57
758.00	2609.11
758.18	2664.41
758.36	2609.11
758.54	2936.79
758.72	2500.57
758.90	2842.58
759.07	2752.47
759.25	2568.15
759.43	2770.90
759.61	2537.43
759.79	3897.28
759.97	2727.89
760.15	2549.72
760.32	2684.89
760.50	2756.57
760.68	2901.97
760.86	2512.86
761.04	2791.38
761.22	2746.33
761.39	2760.66
761.57	2799.57
761.75	2695.13
761.93	2832.34
762.11	2623.45
762.28	2742.23
762.46	2555.86
762.64	2889.68
762.82	2582.49
763.00	2588.63
763.18	2828.24
763.35	2504.67
763.53	2748.37
763.71	2680.79
763.89	2637.78
764.07	2709.46
764.24	2670.55
764.42	2713.56
764.60	2594.78
764.78	2815.96
764.96	2854.87
765.13	2760.66
765.31	2551.77
765.49	2801.62
765.67	2617.30
765.84	2547.67
766.02	2588.63
766.20	2521.05
766.38	2824.15
766.56	2731.99
766.73	2711.51
766.91	2750.42
767.09	2727.89
767.27	2719.70
767.44	2596.82
767.62	2818.00
767.80	2826.20
767.98	2533.34
768.15	2686.94
768.33	2746.33
768.51	2908.12
768.69	2740.18
768.87	2691.03
769.04	2736.09
769.22	3147.73
769.40	2875.35
769.58	2842.58
769.75	2770.90
769.93	2885.59
770.11	2605.02
770.28	2590.68
770.46	2830.29
770.64	2738.13
770.82	2676.70
770.99	2543.58
771.17	2760.66
771.35	2695.13
771.53	2656.22
771.70	2613.21
771.88	2736.09
772.06	2750.42
772.23	2562.01
772.41	2750.42
772.59	2668.50
772.77	2600.92
772.94	2713.56
773.12	2668.50
773.30	2629.59
773.47	2717.65
773.65	2547.67
773.83	2754.52
774.01	2777.05
774.18	2512.86
774.36	2609.11
774.54	2533.34
774.71	2764.76
774.89	2506.71
775.07	2523.10
775.24	2572.25
775.42	2660.31
775.60	2957.27
775.78	2572.25
775.95	2537.43
776.13	2543.58
776.31	2437.08
776.48	2705.37
776.66	2752.47
776.84	2682.84
777.01	2584.54
777.19	2570.20
777.37	2519.00
777.54	2762.71
777.72	3016.66
777.90	2754.52
778.07	2637.78
778.25	3125.20
778.43	2762.71
778.60	2582.49
778.78	2695.13
778.96	2955.22
779.13	2539.48
779.31	2717.65
779.49	2648.02
779.66	2731.99
779.84	2674.65
780.01	2566.10
780.19	2555.86
780.37	2906.07
780.54	2832.34
780.72	2473.95
780.90	2648.02
781.07	2701.27
781.25	2570.20
781.43	2813.91
781.60	2695.13
781.78	2891.73
781.95	2721.75
782.13	2490.33
782.31	2516.95
782.48	2445.27
782.66	2740.18
782.83	2908.12
783.01	2736.09
783.19	2883.54
783.36	2648.02
783.54	2582.49
783.72	2768.85
783.89	2654.17
784.07	2789.33
784.24	2695.13
784.42	2824.15
784.60	2668.50
784.77	2664.41
784.95	2400.22
785.12	2623.45
785.30	2752.47
785.47	2650.07
785.65	2502.62
785.83	2605.02
786.00	2590.68
786.18	2639.83
786.35	2570.20
786.53	2547.67
786.71	2856.92
786.88	2799.57
787.06	2711.51
787.23	2713.56
787.41	2580.44
787.58	2682.84
787.76	2533.34
787.94	2605.02
788.11	2781.14
788.29	2514.91
788.46	2617.30
788.64	2559.96
788.81	2693.08
788.99	2498.52
789.16	2572.25
789.34	2697.17
789.52	2605.02
789.69	2588.63
789.87	2377.69
790.04	2605.02
790.22	2750.42
790.39	2996.18
790.57	2494.43
790.74	2588.63
790.92	2850.77
791.09	2367.45
791.27	2691.03
791.44	2748.37
791.62	2631.64
791.79	2901.97
791.97	2709.46
792.15	2944.98
792.32	2920.40
792.50	2746.33
792.67	2793.43
792.85	2848.72
793.02	2818.00
793.20	2666.46
793.37	2521.05
793.55	2678.74
793.72	2549.72
793.90	2768.85
794.07	2637.78
794.25	2564.06
794.42	2691.03
794.60	2699.22
794.77	2729.94
794.95	2775.00
795.12	2873.30
795.30	2760.66
795.47	2441.18
795.65	2985.94
795.82	2813.91
796.00	2555.86
796.17	2668.50
796.34	2547.67
796.52	2715.61
796.69	2844.63
796.87	2721.75
797.04	2701.27
797.22	2858.96
797.39	2717.65
797.57	2723.80
797.74	2742.23
797.92	2729.94
798.09	2559.96
798.27	2818.00
798.44	2596.82
798.62	2596.82
798.79	2754.52
798.96	2711.51
799.14	2715.61
799.31	3030.99
799.49	2668.50
799.66	2629.59
799.84	2676.70
800.01	2584.54
800.19	2772.95
800.36	2562.01
800.53	2699.22
800.71	2775.00
800.88	3014.61
801.06	2619.35
801.23	2605.02
801.41	2680.79
801.58	2629.59
801.75	2537.43
801.93	2686.94
802.10	2854.87
802.28	2617.30
802.45	2662.36
802.63	2658.26
802.80	2846.68
802.97	2617.30
803.15	2693.08
803.32	2617.30
803.50	2531.29
803.67	2650.07
803.84	2551.77
804.02	2699.22
804.19	2633.69
804.37	2402.27
804.54	2568.15
804.71	2553.82
804.89	2662.36
805.06	2607.06
805.24	2455.51
805.41	2553.82
805.58	2619.35
805.76	3098.58
805.93	2686.94
806.10	2777.05
806.28	2795.48
806.45	2719.70
806.63	2711.51
806.80	2686.94
806.97	2832.34
807.15	2742.23
807.32	2699.22
807.49	2629.59
807.67	2562.01
807.84	2822.10
808.01	2506.71
808.19	2875.35
808.36	3063.76
808.54	2627.54
808.71	2602.97
808.88	2670.55
809.06	2856.92
809.23	2897.88
809.40	2648.02
809.58	2762.71
809.75	2641.88
809.92	2555.86
810.10	2875.35
810.27	2629.59
810.44	2754.52
810.62	2746.33
810.79	2717.65
810.96	2619.35
811.14	2607.06
811.31	2850.77
811.48	2826.20
811.66	2641.88
811.83	2908.12
812.00	2725.85
812.18	2760.66
812.35	3041.23
812.52	2676.70
812.69	2680.79
812.87	2637.78
813.04	2627.54
813.21	2686.94
813.39	2555.86
813.56	2527.19
813.73	2842.58
813.91	2449.37
814.08	2801.62
814.25	2697.17
814.42	2449.37
814.60	2719.70
814.77	2699.22
814.94	2650.07
815.12	2656.22
815.29	2944.98
815.46	2578.39
815.63	2635.74
815.81	2674.65
815.98	2672.60
816.15	2688.98
816.33	2650.07
816.50	2656.22
816.67	2711.51
816.84	2680.79
817.02	2531.29
817.19	2627.54
817.36	2795.48
817.53	2854.87
817.71	2551.77
817.88	2699.22
818.05	2635.74
818.22	2658.26
818.40	2844.63
818.57	2627.54
818.74	2699.22
818.91	2709.46
819.09	2725.85
819.26	2781.14
819.43	2621.40
819.60	2695.13
819.78	2709.46
819.95	2779.09
820.12	2602.97
820.29	2940.88
820.47	2826.20
820.64	2568.15
820.81	2539.48
820.98	2539.48
821.15	2721.75
821.33	2727.89
821.50	2549.72
821.67	2738.13
821.84	2566.10
822.02	2727.89
822.19	2854.87
822.36	2697.17
822.53	2605.02
822.70	2572.25
822.88	2672.60
823.05	2904.02
823.22	2699.22
823.39	2652.12
823.56	2668.50
823.74	3028.95
823.91	2609.11
824.08	2648.02
824.25	2570.20
824.42	2973.65
824.60	2535.39
824.77	2705.37
824.94	2729.94
825.11	2799.57
825.28	2510.81
825.45	2746.33
825.63	2809.81
825.80	2648.02
825.97	2799.57
826.14	2656.22
826.31	2564.06
826.48	2676.70
826.66	2559.96
826.83	2598.87
827.00	2662.36
827.17	2578.39
827.34	2662.36
827.51	2629.59
827.69	2637.78
827.86	2572.25
828.03	2703.32
828.20	2676.70
828.37	2578.39
828.54	2783.19
828.71	2588.63
828.89	2858.96
829.06	2752.47
829.23	3002.32
829.40	2592.73
829.57	2682.84
829.74	2756.57
829.91	2617.30
830.09	2629.59
830.26	2680.79
830.43	2936.79
830.60	2645.98
830.77	2658.26
830.94	2801.62
831.11	2856.92
831.28	2652.12
831.46	2731.99
831.63	2549.72
831.80	2758.61
831.97	2533.34
832.14	2650.07
832.31	2648.02
832.48	2734.04
832.65	2912.21
832.82	2688.98
832.99	2719.70
833.17	2596.82
833.34	2975.70
833.51	2658.26
833.68	2361.31
833.85	2807.77
834.02	2551.77
834.19	2537.43
834.36	2512.86
834.53	2871.25
834.70	2879.44
834.87	2695.13
835.04	2500.57
835.22	2658.26
835.39	2578.39
835.56	2463.71
835.73	2590.68
835.90	2826.20
836.07	2621.40
836.24	2719.70
836.41	2504.67
836.58	2588.63
836.75	2842.58
836.92	2594.78
837.09	2523.10
837.26	2813.91
837.43	2830.29
837.60	2564.06
837.77	2541.53
837.94	2820.05
838.12	2914.26
838.29	2500.57
838.46	2490.33
838.63	2549.72
838.80	3004.37
838.97	2693.08
839.14	2531.29
839.31	2734.04
839.48	2844.63
839.65	2514.91
839.82	2621.40
839.99	2684.89
840.16	2748.37
840.33	2441.18
840.50	2494.43
840.67	2602.97
840.84	2320.35
841.01	2539.48
841.18	2539.48
841.35	2578.39
841.52	2783.19
841.69	2789.33
841.86	2598.87
842.03	2693.08
842.20	2815.96
842.37	2543.58
842.54	2602.97
842.71	2701.27
842.88	2574.30
843.05	2596.82
843.22	2584.54
843.39	2779.09
843.56	2613.21
843.73	2570.20
843.90	2617.30
844.07	2731.99
844.24	2799.57
844.41	2678.74
844.58	2578.39
844.75	2734.04
844.92	2791.38
845.09	2576.34
845.26	2523.10
845.43	2830.29
845.60	2668.50
845.77	2664.41
845.94	2645.98
846.10	2818.00
846.27	2562.01
846.44	2418.65
846.61	2447.32
846.78	2787.29
846.95	2869.20
847.12	2531.29
847.29	2582.49
847.46	2590.68
847.63	2856.92
847.80	2478.04
847.97	2557.91
848.14	3080.14
848.31	2662.36
848.48	2480.09
848.65	2678.74
848.82	2611.16
848.98	3127.25
849.15	2639.83
849.32	2623.45
849.49	2840.53
849.66	2822.10
849.83	2516.95
850.00	2475.99
850.17	2779.09
850.34	2623.45
850.51	2527.19
850.68	2660.31
850.85	3053.52
851.01	2691.03
851.18	2564.06
851.35	2555.86
851.52	2795.48
851.69	2926.55
851.86	2426.84
852.03	2551.77
852.20	2832.34
852.37	2656.22
852.53	2389.98
852.70	2492.38
852.87	2750.42
853.04	2791.38
853.21	2514.91
853.38	2693.08
853.55	2916.31
853.72	2934.74
853.89	2490.33
854.05	2467.80
854.22	2738.13
854.39	2658.26
854.56	2582.49
854.73	2723.80
854.90	2555.86
855.07	2686.94
855.23	2437.08
855.40	2500.57
855.57	2707.41
855.74	2373.60
855.91	2815.96
856.08	2412.51
856.25	2529.24
856.41	2686.94
856.58	2564.06
856.75	2582.49
856.92	2523.10
857.09	2850.77
857.26	2457.56
857.42	2562.01
857.59	2760.66
857.76	2627.54
857.93	2547.67
858.10	2611.16
858.27	2670.55
858.43	2770.90
858.60	2516.95
858.77	2385.88
858.94	2645.98
859.11	2871.25
859.27	2588.63
859.44	2535.39
859.61	3022.80
859.78	2824.15
859.95	2551.77
860.12	2510.81
860.28	2981.84
860.45	3047.38
860.62	2523.10
860.79	2650.07
860.95	2607.06
861.12	2641.88
861.29	2447.32
861.46	2488.28
861.63	2652.12
861.79	2785.24
861.96	2336.73
862.13	2584.54
862.30	2940.88
862.47	2637.78
862.63	2408.41
862.80	2617.30
862.97	2836.44
863.14	2803.67
863.30	2633.69
863.47	2514.91
863.64	2906.07
863.81	2682.84
863.97	2475.99
864.14	2645.98
864.31	2686.94
864.48	2766.81
864.65	2502.62
864.81	2750.42
864.98	2805.72
865.15	2906.07
865.32	2568.15
865.48	2596.82
865.65	2879.44
865.82	2668.50
865.98	2600.92
866.15	2625.50
866.32	2705.37
866.49	2635.74
866.65	2752.47
866.82	2578.39
866.99	2654.17
867.16	2627.54
867.32	2594.78
867.49	2535.39
867.66	2752.47
867.83	2691.03
867.99	2486.23
868.16	2502.62
868.33	2496.47
868.49	2734.04
868.66	2545.63
868.83	2625.50
868.99	2645.98
869.16	2799.57
869.33	2717.65
869.50	2635.74
869.66	2645.98
869.83	2629.59
870.00	2383.84
870.16	2635.74
870.33	2727.89
870.50	2834.39
870.66	2584.54
870.83	2693.08
871.00	2731.99
871.17	2836.44
871.33	2658.26
871.50	2531.29
871.67	2684.89
871.83	2482.14
872.00	2693.08
872.17	2621.40
872.33	3022.80
872.50	2809.81
872.67	2557.91
872.83	2478.04
873.00	2785.24
873.17	2680.79
873.33	2607.06
873.50	2572.25
873.67	2633.69
873.83	2684.89
874.00	2586.58
874.16	2660.31
874.33	2775.00
874.50	2537.43
874.66	2553.82
874.83	2625.50
875.00	2840.53
875.16	2836.44
875.33	2676.70
875.50	2322.40
875.66	2643.93
875.83	2693.08
875.99	2654.17
876.16	2658.26
876.33	2578.39
876.49	2695.13
876.66	2621.40
876.83	2615.26
876.99	2480.09
877.16	2684.89
877.32	2559.96
877.49	2549.72
877.66	2760.66
877.82	2867.16
877.99	2680.79
878.15	2752.47
878.32	2629.59
878.49	2736.09
878.65	2559.96
878.82	2729.94
878.98	2666.46
879.15	2895.83
879.32	2717.65
879.48	2678.74
879.65	2693.08
879.81	2711.51
879.98	2529.24
880.15	2568.15
880.31	2815.96
880.48	2695.13
880.64	2613.21
880.81	2691.03
880.97	2996.18
881.14	2891.73
881.31	2547.67
881.47	2744.28
881.64	2676.70
881.80	2547.67
881.97	2645.98
882.13	2582.49
882.30	2584.54
882.47	2617.30
882.63	2500.57
882.80	2486.23
882.96	2588.63
883.13	2836.44
883.29	2584.54
883.46	2547.67
883.62	3012.56
883.79	2781.14
883.95	2699.22
884.12	2514.91
884.29	2938.84
884.45	2754.52
884.62	2586.58
884.78	2486.23
884.95	2975.70
885.11	2613.21
885.28	2652.12
885.44	2555.86
885.61	2764.76
885.77	2826.20
885.94	2697.17
886.10	2584.54
886.27	2750.42
886.43	2967.51
886.60	2668.50
886.76	2504.67
886.93	2547.67
887.09	2707.41
887.26	2426.84
887.42	2596.82
887.59	2906.07
887.75	3071.95
887.92	2734.04
888.08	2664.41
888.25	2965.46
888.41	2789.33
888.58	2602.97
888.74	2539.48
888.91	2582.49
>>>>>End Processed Spectral Data<<<<<
