SpectraSuite Data File
++++++++++++++++++++++++++++++++++++
Date: Thu May 05 16:20:27 CEST 2016
User: root
Dark Spectrum Present: No
Reference Spectrum Present: No
Number of Sampled Component Spectra: 1
Spectrometers: USB4C02835
Integration Time (usec): 100000 (USB4C02835)
Spectra Averaged: 1 (USB4C02835)
Boxcar Smoothing: 0 (USB4C02835)
Correct for Electrical Dark: No (USB4C02835)
Strobe/Lamp Enabled: No (USB4C02835)
Correct for Detector Non-linearity: No (USB4C02835)
Correct for Stray Light: No (USB4C02835)
Number of Pixels in Processed Spectrum: 3648
>>>>>Begin Processed Spectral Data<<<<<
177.47	2023.39
177.69	2023.39
177.91	2023.39
178.13	2088.93
178.36	2041.82
178.58	2564.06
178.80	2691.03
179.02	2418.65
179.24	2525.15
179.46	2469.85
179.68	2551.77
179.90	2643.93
180.13	2766.81
180.35	2398.17
180.57	2490.33
180.79	2865.11
181.01	2664.41
181.23	2549.72
181.45	2609.11
181.67	2777.05
181.90	2766.81
182.12	2568.15
182.34	2435.03
182.56	2795.48
182.78	2777.05
183.00	2500.57
183.22	2582.49
183.44	2428.89
183.66	3106.77
183.89	2658.26
184.11	2535.39
184.33	2863.06
184.55	2834.39
184.77	2514.91
184.99	2531.29
185.21	2645.98
185.43	3094.48
185.65	2457.56
185.87	2453.47
186.10	3082.19
186.32	3035.09
186.54	2656.22
186.76	2586.58
186.98	2885.59
187.20	2713.56
187.42	2541.53
187.64	2488.28
187.86	2762.71
188.08	2916.31
188.30	2500.57
188.52	2598.87
188.75	2949.08
188.97	2981.84
189.19	2430.94
189.41	2428.89
189.63	2801.62
189.85	2605.02
190.07	2422.75
190.29	2406.36
190.51	2775.00
190.73	2461.66
190.95	2709.46
191.17	2547.67
191.39	2519.00
191.61	2674.65
191.84	2553.82
192.06	2650.07
192.28	2471.90
192.50	3127.25
192.72	2648.02
192.94	2588.63
193.16	2904.02
193.38	2803.67
193.60	2455.51
193.82	2580.44
194.04	2908.12
194.26	2711.51
194.48	2553.82
194.70	2555.86
194.92	2584.54
195.14	2836.44
195.36	2461.66
195.58	2564.06
195.80	2674.65
196.02	2596.82
196.24	2420.70
196.46	2637.78
196.69	2609.11
196.91	3102.67
197.13	2574.30
197.35	2463.71
197.57	2861.01
197.79	2852.82
198.01	2559.96
198.23	2516.95
198.45	2807.77
198.67	2549.72
198.89	2396.12
199.11	2641.88
199.33	2596.82
199.55	2371.55
199.77	2494.43
199.99	2605.02
200.21	2668.50
200.43	2666.46
200.65	2422.75
200.87	2375.64
201.09	2674.65
201.31	2691.03
201.53	2568.15
201.75	2598.87
201.97	2734.04
202.19	2682.84
202.41	2596.82
202.63	2670.55
202.85	2801.62
203.07	2803.67
203.29	2629.59
203.51	2502.62
203.73	2639.83
203.95	3131.34
204.17	2482.14
204.39	2621.40
204.61	2674.65
204.83	2688.98
205.05	2590.68
205.27	2611.16
205.49	3086.29
205.71	2658.26
205.93	2410.46
206.15	2445.27
206.37	2752.47
206.59	2760.66
206.81	2375.64
207.03	2396.12
207.25	2719.70
207.47	2766.81
207.69	2564.06
207.91	2746.33
208.13	2953.17
208.34	2609.11
208.56	2443.23
208.78	2455.51
209.00	2662.36
209.22	2629.59
209.44	2445.27
209.66	2457.56
209.88	2676.70
210.10	2656.22
210.32	2592.73
210.54	2590.68
210.76	2684.89
210.98	2861.01
211.20	2379.74
211.42	2705.37
211.64	2901.97
211.86	2770.90
212.08	2621.40
212.30	2549.72
212.52	2670.55
212.74	2762.71
212.96	2600.92
213.17	2617.30
213.39	2725.85
213.61	3051.47
213.83	2498.52
214.05	2389.98
214.27	2965.46
214.49	2611.16
214.71	2426.84
214.93	2596.82
215.15	2650.07
215.37	2852.82
215.59	2412.51
215.81	2539.48
216.03	2953.17
216.24	2754.52
216.46	2521.05
216.68	2471.90
216.90	2760.66
217.12	2785.24
217.34	2482.14
217.56	2660.31
217.78	2930.64
218.00	2758.61
218.22	2625.50
218.44	2584.54
218.66	2758.61
218.87	2910.16
219.09	2605.02
219.31	2578.39
219.53	2779.09
219.75	2615.26
219.97	2482.14
220.19	2570.20
220.41	2684.89
220.63	2926.55
220.85	2523.10
221.06	2607.06
221.28	2969.55
221.50	2848.72
221.72	2525.15
221.94	2408.41
222.16	2717.65
222.38	2828.24
222.60	2504.67
222.82	2594.78
223.03	2865.11
223.25	2521.05
223.47	2533.34
223.69	2670.55
223.91	2799.57
224.13	2652.12
224.35	2432.99
224.57	2666.46
224.78	2834.39
225.00	2668.50
225.22	2543.58
225.44	2473.95
225.66	2731.99
225.88	2619.35
226.10	2619.35
226.32	2566.10
226.53	2990.03
226.75	2637.78
226.97	2621.40
227.19	2521.05
227.41	2605.02
227.63	2617.30
227.85	2344.92
228.06	2459.61
228.28	2660.31
228.50	2873.30
228.72	2432.99
228.94	2389.98
229.16	2459.61
229.37	2592.73
229.59	2512.86
229.81	2676.70
230.03	2660.31
230.25	2547.67
230.47	2430.94
230.69	2551.77
230.90	2867.16
231.12	2639.83
231.34	2602.97
231.56	2551.77
231.78	2576.34
232.00	2691.03
232.21	2510.81
232.43	2600.92
232.65	2459.61
232.87	2727.89
233.09	2480.09
233.30	2555.86
233.52	2826.20
233.74	2705.37
233.96	2506.71
234.18	2602.97
234.40	2641.88
234.61	3028.95
234.83	2435.03
235.05	2482.14
235.27	3198.93
235.49	2908.12
235.70	2451.42
235.92	2586.58
236.14	2854.87
236.36	3141.58
236.58	2353.12
236.79	2627.54
237.01	2693.08
237.23	2752.47
237.45	2729.94
237.67	2539.48
237.88	2850.77
238.10	3071.95
238.32	2459.61
238.54	2463.71
238.76	2678.74
238.97	2600.92
239.19	2420.70
239.41	2500.57
239.63	2883.54
239.85	2623.45
240.06	2611.16
240.28	2504.67
240.50	2885.59
240.72	2727.89
240.93	2478.04
241.15	2621.40
241.37	2787.29
241.59	2916.31
241.81	2506.71
242.02	2562.01
242.24	2756.57
242.46	2785.24
242.68	2363.36
242.89	2494.43
243.11	2822.10
243.33	2668.50
243.55	2570.20
243.76	2555.86
243.98	2615.26
244.20	2715.61
244.42	2555.86
244.64	2514.91
244.85	2523.10
245.07	2598.87
245.29	2521.05
245.51	2512.86
245.72	2709.46
245.94	2856.92
246.16	2490.33
246.38	2521.05
246.59	2676.70
246.81	2605.02
247.03	2473.95
247.24	2439.13
247.46	2660.31
247.68	2736.09
247.90	2498.52
248.11	2504.67
248.33	2815.96
248.55	2672.60
248.77	2512.86
248.98	2594.78
249.20	2961.36
249.42	2813.91
249.64	2523.10
249.85	2496.47
250.07	2672.60
250.29	2826.20
250.50	2639.83
250.72	2478.04
250.94	2729.94
251.16	2930.64
251.37	2496.47
251.59	2564.06
251.81	2801.62
252.02	2971.60
252.24	2467.80
252.46	2680.79
252.68	2537.43
252.89	2609.11
253.11	2420.70
253.33	2715.61
253.54	2953.17
253.76	2449.37
253.98	2510.81
254.20	2488.28
254.41	2506.71
254.63	2738.13
254.85	2351.07
255.06	2621.40
255.28	2746.33
255.50	2695.13
255.71	2428.89
255.93	2396.12
256.15	2641.88
256.36	2674.65
256.58	2441.18
256.80	2521.05
257.02	2768.85
257.23	2547.67
257.45	2527.19
257.67	2629.59
257.88	2660.31
258.10	2801.62
258.32	2594.78
258.53	2502.62
258.75	2928.60
258.97	2545.63
259.18	2453.47
259.40	2475.99
259.62	2963.41
259.83	2856.92
260.05	2598.87
260.27	3184.59
260.48	2830.29
260.70	2553.82
260.92	2383.84
261.13	2605.02
261.35	2805.72
261.57	2691.03
261.78	2316.25
262.00	2486.23
262.22	2809.81
262.43	2592.73
262.65	2531.29
262.86	2559.96
263.08	3041.23
263.30	2750.42
263.51	2416.60
263.73	2502.62
263.95	2979.79
264.16	2650.07
264.38	2428.89
264.60	2455.51
264.81	2686.94
265.03	2848.72
265.25	2791.38
265.46	2496.47
265.68	2879.44
265.89	2822.10
266.11	2412.51
266.33	2500.57
266.54	2883.54
266.76	2723.80
266.98	2549.72
267.19	2629.59
267.41	2895.83
267.62	2654.17
267.84	2381.79
268.06	2658.26
268.27	2742.23
268.49	2793.43
268.70	2539.48
268.92	2488.28
269.14	2613.21
269.35	2488.28
269.57	2572.25
269.79	2619.35
270.00	2613.21
270.22	3022.80
270.43	2408.41
270.65	2396.12
270.87	2768.85
271.08	2920.40
271.30	2596.82
271.51	2545.63
271.73	2867.16
271.95	2914.26
272.16	2496.47
272.38	2637.78
272.59	2641.88
272.81	2793.43
273.02	2494.43
273.24	2465.75
273.46	2914.26
273.67	2523.10
273.89	2430.94
274.10	2457.56
274.32	2963.41
274.54	2715.61
274.75	2611.16
274.97	2555.86
275.18	2750.42
275.40	2756.57
275.61	2564.06
275.83	2650.07
276.05	2572.25
276.26	2699.22
276.48	2510.81
276.69	2617.30
276.91	2652.12
277.12	2914.26
277.34	2697.17
277.55	2738.13
277.77	2756.57
277.99	2605.02
278.20	2621.40
278.42	2467.80
278.63	2629.59
278.85	2580.44
279.06	2502.62
279.28	2711.51
279.49	2858.96
279.71	2867.16
279.93	2615.26
280.14	2639.83
280.36	2639.83
280.57	2789.33
280.79	2670.55
281.00	2447.32
281.22	2559.96
281.43	2838.48
281.65	2418.65
281.86	2551.77
282.08	2787.29
282.29	3065.81
282.51	2555.86
282.73	2566.10
282.94	2539.48
283.16	2775.00
283.37	2684.89
283.59	2611.16
283.80	2731.99
284.02	2711.51
284.23	2625.50
284.45	2600.92
284.66	2523.10
284.88	2672.60
285.09	2553.82
285.31	2674.65
285.52	2760.66
285.74	2564.06
285.95	2736.09
286.17	2654.17
286.38	2852.82
286.60	2654.17
286.81	2484.19
287.03	2674.65
287.24	2711.51
287.46	2746.33
287.67	2668.50
287.89	2863.06
288.10	2729.94
288.32	2736.09
288.53	2822.10
288.75	2684.89
288.96	2777.05
289.18	2627.54
289.39	2527.19
289.61	2684.89
289.82	2973.65
290.04	2916.31
290.25	2494.43
290.47	2695.13
290.68	2727.89
290.90	2803.67
291.11	2457.56
291.33	2699.22
291.54	2578.39
291.76	2645.98
291.97	2740.18
292.18	2600.92
292.40	2686.94
292.61	2615.26
292.83	2938.84
293.04	2648.02
293.26	2750.42
293.47	2703.32
293.69	2578.39
293.90	2584.54
294.12	2936.79
294.33	2756.57
294.55	2602.97
294.76	2758.61
294.97	2963.41
295.19	2957.27
295.40	2521.05
295.62	2719.70
295.83	2891.73
296.05	2596.82
296.26	2783.19
296.48	2584.54
296.69	2699.22
296.90	2709.46
297.12	2699.22
297.33	2715.61
297.55	2666.46
297.76	2789.33
297.98	2699.22
298.19	2607.06
298.41	2660.31
298.62	2611.16
298.83	2723.80
299.05	2660.31
299.26	2637.78
299.48	2588.63
299.69	2639.83
299.90	2588.63
300.12	2613.21
300.33	2869.20
300.55	2670.55
300.76	2656.22
300.98	2576.34
301.19	2793.43
301.40	2582.49
301.62	2592.73
301.83	2801.62
302.05	2734.04
302.26	2617.30
302.47	2621.40
302.69	2508.76
302.90	2764.76
303.12	2420.70
303.33	2723.80
303.54	3018.71
303.76	2697.17
303.97	2643.93
304.19	2680.79
304.40	2652.12
304.61	2777.05
304.83	2740.18
305.04	2682.84
305.26	2787.29
305.47	2688.98
305.68	2643.93
305.90	2410.46
306.11	2969.55
306.33	2748.37
306.54	2506.71
306.75	2555.86
306.97	2484.19
307.18	2660.31
307.39	2543.58
307.61	2693.08
307.82	2693.08
308.04	2791.38
308.25	2498.52
308.46	2707.41
308.68	2711.51
308.89	2652.12
309.10	2705.37
309.32	2625.50
309.53	2731.99
309.74	2846.68
309.96	2564.06
310.17	2723.80
310.39	2619.35
310.60	2834.39
310.81	2633.69
311.03	2559.96
311.24	2801.62
311.45	2758.61
311.67	2871.25
311.88	2699.22
312.09	2656.22
312.31	2592.73
312.52	2514.91
312.73	2553.82
312.95	2572.25
313.16	2645.98
313.37	2803.67
313.59	2772.95
313.80	2809.81
314.01	2906.07
314.23	2562.01
314.44	2500.57
314.65	2547.67
314.87	2629.59
315.08	2635.74
315.29	2666.46
315.51	2578.39
315.72	2502.62
315.93	2680.79
316.15	2660.31
316.36	2666.46
316.57	2684.89
316.79	2691.03
317.00	2539.48
317.21	2707.41
317.43	2600.92
317.64	2670.55
317.85	2519.00
318.07	2586.58
318.28	2596.82
318.49	2717.65
318.70	2875.35
318.92	2791.38
319.13	2838.48
319.34	2791.38
319.56	2617.30
319.77	2846.68
319.98	2789.33
320.20	2758.61
320.41	2719.70
320.62	2856.92
320.83	2555.86
321.05	2734.04
321.26	2635.74
321.47	2762.71
321.69	2760.66
321.90	2525.15
322.11	2551.77
322.32	2709.46
322.54	2955.22
322.75	2623.45
322.96	3192.78
323.18	2441.18
323.39	2490.33
323.60	2545.63
323.81	2742.23
324.03	2680.79
324.24	2766.81
324.45	2627.54
324.66	2535.39
324.88	2908.12
325.09	2924.50
325.30	2564.06
325.52	2609.11
325.73	2729.94
325.94	2592.73
326.15	2408.41
326.37	2521.05
326.58	2852.82
326.79	2994.13
327.00	2596.82
327.22	2648.02
327.43	2703.32
327.64	2674.65
327.85	2736.09
328.07	2605.02
328.28	2967.51
328.49	2627.54
328.70	2600.92
328.92	2627.54
329.13	2729.94
329.34	2764.76
329.55	2815.96
329.76	2707.41
329.98	2725.85
330.19	2818.00
330.40	2697.17
330.61	2668.50
330.83	2797.53
331.04	2627.54
331.25	2621.40
331.46	2625.50
331.68	2568.15
331.89	2830.29
332.10	2594.78
332.31	2545.63
332.52	2719.70
332.74	2883.54
332.95	2451.42
333.16	2637.78
333.37	2844.63
333.58	2588.63
333.80	2645.98
334.01	2453.47
334.22	2744.28
334.43	2654.17
334.64	2488.28
334.86	2535.39
335.07	2650.07
335.28	2944.98
335.49	2525.15
335.70	2762.71
335.92	2901.97
336.13	2992.08
336.34	2670.55
336.55	2674.65
336.76	2779.09
336.98	2379.74
337.19	2555.86
337.40	2705.37
337.61	3086.29
337.82	2719.70
338.04	2703.32
338.25	2461.66
338.46	2627.54
338.67	2590.68
338.88	2539.48
339.09	2545.63
339.31	2627.54
339.52	2541.53
339.73	2523.10
339.94	2670.55
340.15	2858.96
340.36	2598.87
340.58	2566.10
340.79	2551.77
341.00	2795.48
341.21	2480.09
341.42	2795.48
341.63	2625.50
341.85	2824.15
342.06	2848.72
342.27	2543.58
342.48	2705.37
342.69	2539.48
342.90	2777.05
343.12	2858.96
343.33	2512.86
343.54	2863.06
343.75	2899.92
343.96	2648.02
344.17	2539.48
344.38	2734.04
344.60	2605.02
344.81	2525.15
345.02	2537.43
345.23	2891.73
345.44	3055.57
345.65	2605.02
345.86	2666.46
346.07	2770.90
346.29	2643.93
346.50	2686.94
346.71	2643.93
346.92	2865.11
347.13	3076.05
347.34	2619.35
347.55	2590.68
347.76	2797.53
347.98	2537.43
348.19	2635.74
348.40	2719.70
348.61	2637.78
348.82	2926.55
349.03	2725.85
349.24	2535.39
349.45	3112.91
349.66	2414.56
349.88	2645.98
350.09	2660.31
350.30	2990.03
350.51	2887.64
350.72	2701.27
350.93	2639.83
351.14	2660.31
351.35	2828.24
351.56	2625.50
351.77	2584.54
351.99	2836.44
352.20	2973.65
352.41	2809.81
352.62	2394.08
352.83	2752.47
353.04	2678.74
353.25	2590.68
353.46	2635.74
353.67	2918.36
353.88	2416.60
354.09	2631.64
354.30	2672.60
354.52	2785.24
354.73	2719.70
354.94	2533.34
355.15	2697.17
355.36	2949.08
355.57	2637.78
355.78	2607.06
355.99	2545.63
356.20	2641.88
356.41	2846.68
356.62	2672.60
356.83	2543.58
357.04	2908.12
357.25	2514.91
357.46	2582.49
357.68	2439.13
357.89	2643.93
358.10	2650.07
358.31	2662.36
358.52	2602.97
358.73	2537.43
358.94	2584.54
359.15	2623.45
359.36	2803.67
359.57	2770.90
359.78	2725.85
359.99	2848.72
360.20	2508.76
360.41	2670.55
360.62	2777.05
360.83	2682.84
361.04	2668.50
361.25	2760.66
361.46	2971.60
361.67	2758.61
361.88	2684.89
362.09	2869.20
362.30	2801.62
362.51	2549.72
362.72	2670.55
362.93	2887.64
363.14	2719.70
363.35	2721.75
363.56	2539.48
363.78	2838.48
363.99	2861.01
364.20	2508.76
364.41	2680.79
364.62	3004.37
364.83	2744.28
365.04	2588.63
365.25	2609.11
365.46	3047.38
365.67	2539.48
365.88	2672.60
366.09	2596.82
366.30	2645.98
366.51	2748.37
366.72	2576.34
366.93	2568.15
367.14	2725.85
367.35	2963.41
367.56	2607.06
367.77	2731.99
367.98	2752.47
368.18	2719.70
368.39	2707.41
368.60	2592.73
368.81	2826.20
369.02	2807.77
369.23	2586.58
369.44	2494.43
369.65	2621.40
369.86	2734.04
370.07	2727.89
370.28	2496.47
370.49	2783.19
370.70	2752.47
370.91	2539.48
371.12	2496.47
371.33	2793.43
371.54	2623.45
371.75	2807.77
371.96	2394.08
372.17	2723.80
372.38	2682.84
372.59	2627.54
372.80	2611.16
373.01	2701.27
373.22	2641.88
373.43	2557.91
373.64	2578.39
373.85	2875.35
374.06	2916.31
374.26	2734.04
374.47	2738.13
374.68	2977.75
374.89	2713.56
375.10	2609.11
375.31	2643.93
375.52	2734.04
375.73	2781.14
375.94	2455.51
376.15	2830.29
376.36	2652.12
376.57	2635.74
376.78	2578.39
376.99	2648.02
377.20	3000.27
377.40	2693.08
377.61	2877.40
377.82	2475.99
378.03	2883.54
378.24	2834.39
378.45	2633.69
378.66	2693.08
378.87	2480.09
379.08	2535.39
379.29	2641.88
379.50	2795.48
379.71	2637.78
379.91	2840.53
380.12	2586.58
380.33	2678.74
380.54	2662.36
380.75	2744.28
380.96	2621.40
381.17	2756.57
381.38	2684.89
381.59	2770.90
381.80	2582.49
382.00	2789.33
382.21	2772.95
382.42	2936.79
382.63	2867.16
382.84	2721.75
383.05	2801.62
383.26	2965.46
383.47	2676.70
383.68	2676.70
383.88	2734.04
384.09	2684.89
384.30	2799.57
384.51	2691.03
384.72	2645.98
384.93	2566.10
385.14	2650.07
385.35	2836.44
385.55	2596.82
385.76	2826.20
385.97	2627.54
386.18	2516.95
386.39	2664.41
386.60	2660.31
386.81	2613.21
387.02	2574.30
387.22	2527.19
387.43	2824.15
387.64	2699.22
387.85	2842.58
388.06	2867.16
388.27	4067.27
388.48	7520.14
388.68	10968.92
388.89	13588.27
389.10	14477.09
389.31	13639.47
389.52	10899.29
389.73	9465.71
389.93	8607.61
390.14	7858.06
390.35	7139.22
390.56	6397.85
390.77	5337.01
390.98	4075.46
391.18	3428.30
391.39	3207.12
391.60	2809.81
391.81	2815.96
392.02	2605.02
392.23	3078.10
392.43	2693.08
392.64	2803.67
392.85	2654.17
393.06	2971.60
393.27	2762.71
393.47	2564.06
393.68	2637.78
393.89	2684.89
394.10	2959.31
394.31	2719.70
394.52	2539.48
394.72	2621.40
394.93	2979.79
395.14	2514.91
395.35	2719.70
395.56	2611.16
395.76	2768.85
395.97	2633.69
396.18	2744.28
396.39	2758.61
396.60	3227.60
396.80	3035.09
397.01	2834.39
397.22	2965.46
397.43	2977.75
397.64	2725.85
397.84	2699.22
398.05	3012.56
398.26	2684.89
398.47	2693.08
398.67	2822.10
398.88	2691.03
399.09	2897.88
399.30	2600.92
399.51	2717.65
399.71	2588.63
399.92	2717.65
400.13	2637.78
400.34	2617.30
400.54	2678.74
400.75	2959.31
400.96	2633.69
401.17	2846.68
401.37	2750.42
401.58	2697.17
401.79	2600.92
402.00	2787.29
402.21	3252.17
402.41	2934.74
402.62	2893.78
402.83	3018.71
403.04	3098.58
403.24	3299.28
403.45	2760.66
403.66	2916.31
403.87	2912.21
404.07	3026.90
404.28	2963.41
404.49	2906.07
404.70	2793.43
404.90	2824.15
405.11	2686.94
405.32	2766.81
405.52	2600.92
405.73	2625.50
405.94	2549.72
406.15	2686.94
406.35	2797.53
406.56	2752.47
406.77	2785.24
406.98	2670.55
407.18	2592.73
407.39	2936.79
407.60	2584.54
407.80	2723.80
408.01	2633.69
408.22	2723.80
408.43	2631.64
408.63	2703.32
408.84	2889.68
409.05	2869.20
409.25	2555.86
409.46	2568.15
409.67	2654.17
409.88	2590.68
410.08	2682.84
410.29	2602.97
410.50	2858.96
410.70	2811.86
410.91	2578.39
411.12	2678.74
411.32	2705.37
411.53	2512.86
411.74	2658.26
411.95	2693.08
412.15	2850.77
412.36	2760.66
412.57	2727.89
412.77	2818.00
412.98	2725.85
413.19	2605.02
413.39	2691.03
413.60	2641.88
413.81	2973.65
414.01	2576.34
414.22	2691.03
414.43	2805.72
414.63	2680.79
414.84	2871.25
415.05	2631.64
415.25	2533.34
415.46	2830.29
415.67	2594.78
415.87	2670.55
416.08	2652.12
416.29	2676.70
416.49	2793.43
416.70	2652.12
416.91	2596.82
417.11	2736.09
417.32	2799.57
417.53	2719.70
417.73	2725.85
417.94	2713.56
418.15	2762.71
418.35	2654.17
418.56	2580.44
418.77	2994.13
418.97	2740.18
419.18	2717.65
419.38	2271.20
419.59	2736.09
419.80	2949.08
420.00	2668.50
420.21	2725.85
420.42	3057.62
420.62	2750.42
420.83	2547.67
421.04	2668.50
421.24	2670.55
421.45	2867.16
421.65	2664.41
421.86	2568.15
422.07	2842.58
422.27	2711.51
422.48	2596.82
422.69	2430.94
422.89	2752.47
423.10	2693.08
423.30	2578.39
423.51	2775.00
423.72	2748.37
423.92	2824.15
424.13	2514.91
424.33	2656.22
424.54	2887.64
424.75	2709.46
424.95	2875.35
425.16	2678.74
425.36	2727.89
425.57	2861.01
425.78	2758.61
425.98	2807.77
426.19	2693.08
426.39	2586.58
426.60	2703.32
426.81	2736.09
427.01	2764.76
427.22	2693.08
427.42	2527.19
427.63	2643.93
427.83	2844.63
428.04	3006.42
428.25	2748.37
428.45	2848.72
428.66	2877.40
428.86	2656.22
429.07	2670.55
429.28	2660.31
429.48	2742.23
429.69	2533.34
429.89	2656.22
430.10	2500.57
430.30	2803.67
430.51	2881.49
430.71	2611.16
430.92	2682.84
431.13	2658.26
431.33	2750.42
431.54	2686.94
431.74	2834.39
431.95	3078.10
432.15	2617.30
432.36	2635.74
432.56	2703.32
432.77	3022.80
432.98	3026.90
433.18	2695.13
433.39	2643.93
433.59	2727.89
433.80	2971.60
434.00	2856.92
434.21	2559.96
434.41	2555.86
434.62	3045.33
434.82	2537.43
435.03	2613.21
435.23	2797.53
435.44	2523.10
435.64	2572.25
435.85	2707.41
436.06	2852.82
436.26	2871.25
436.47	2584.54
436.67	2607.06
436.88	2766.81
437.08	2895.83
437.29	2850.77
437.49	2760.66
437.70	2897.88
437.90	2727.89
438.11	2820.05
438.31	2701.27
438.52	2877.40
438.72	2932.69
438.93	2944.98
439.13	2617.30
439.34	2877.40
439.54	2736.09
439.75	2725.85
439.95	2742.23
440.16	2580.44
440.36	2777.05
440.57	2703.32
440.77	2623.45
440.98	2787.29
441.18	2891.73
441.39	2584.54
441.59	2510.81
441.80	2977.75
442.00	2746.33
442.21	2756.57
442.41	2584.54
442.62	2834.39
442.82	2645.98
443.02	2662.36
443.23	2641.88
443.43	2693.08
443.64	2875.35
443.84	2510.81
444.05	2830.29
444.25	2666.46
444.46	2686.94
444.66	2670.55
444.87	2838.48
445.07	2506.71
445.28	2650.07
445.48	2801.62
445.69	2768.85
445.89	3192.78
446.09	2697.17
446.30	2973.65
446.50	3102.67
446.71	4583.35
446.91	5599.15
447.12	6422.43
447.32	6616.99
447.53	6498.20
447.73	5425.07
447.93	4845.49
448.14	4548.54
448.34	4407.23
448.55	3776.45
448.75	3882.95
448.96	3659.72
449.16	3389.39
449.36	3274.70
449.57	2906.07
449.77	2674.65
449.98	2711.51
450.18	2826.20
450.39	2680.79
450.59	2711.51
450.79	2709.46
451.00	2631.64
451.20	2813.91
451.41	2699.22
451.61	2766.81
451.81	2756.57
452.02	2564.06
452.22	2697.17
452.43	2637.78
452.63	2574.30
452.84	2654.17
453.04	2576.34
453.24	2742.23
453.45	2576.34
453.65	2662.36
453.86	2680.79
454.06	2729.94
454.26	2836.44
454.47	2572.25
454.67	2832.34
454.87	2736.09
455.08	2662.36
455.28	2783.19
455.49	2670.55
455.69	2602.97
455.89	3028.95
456.10	2750.42
456.30	2590.68
456.51	2777.05
456.71	2746.33
456.91	2723.80
457.12	2666.46
457.32	2797.53
457.52	2484.19
457.73	2789.33
457.93	2736.09
458.14	2656.22
458.34	2539.48
458.54	2670.55
458.75	2662.36
458.95	2918.36
459.15	2748.37
459.36	2785.24
459.56	2643.93
459.76	3051.47
459.97	2693.08
460.17	2633.69
460.37	2754.52
460.58	2641.88
460.78	2889.68
460.99	2590.68
461.19	2652.12
461.39	2695.13
461.60	2607.06
461.80	2639.83
462.00	2519.00
462.21	2760.66
462.41	2605.02
462.61	2445.27
462.82	2480.09
463.02	2752.47
463.22	2801.62
463.43	2719.70
463.63	2672.60
463.83	2887.64
464.04	2826.20
464.24	2629.59
464.44	2562.01
464.64	2740.18
464.85	2822.10
465.05	2666.46
465.25	2676.70
465.46	2652.12
465.66	2828.24
465.86	2736.09
466.07	2594.78
466.27	2725.85
466.47	2557.91
466.68	2463.71
466.88	2897.88
467.08	2805.72
467.29	2840.53
467.49	2709.46
467.69	2734.04
467.89	2848.72
468.10	2686.94
468.30	2670.55
468.50	2850.77
468.71	2918.36
468.91	2557.91
469.11	2791.38
469.31	2695.13
469.52	2576.34
469.72	3035.09
469.92	2942.93
470.13	2643.93
470.33	2731.99
470.53	2752.47
470.73	3082.19
470.94	3268.56
471.14	3456.97
471.34	3919.81
471.54	3571.66
471.75	3336.14
471.95	3125.20
472.15	3131.34
472.36	3082.19
472.56	2934.74
472.76	3160.02
472.96	2961.36
473.17	2928.60
473.37	2801.62
473.57	2705.37
473.77	2838.48
473.98	2754.52
474.18	2482.14
474.38	3211.22
474.58	2643.93
474.79	2516.95
474.99	2744.28
475.19	2836.44
475.39	2500.57
475.60	2760.66
475.80	2643.93
476.00	2705.37
476.20	2695.13
476.41	2715.61
476.61	2768.85
476.81	2918.36
477.01	2652.12
477.21	2846.68
477.42	2750.42
477.62	2670.55
477.82	2947.03
478.02	2674.65
478.23	2672.60
478.43	2668.50
478.63	2684.89
478.83	2631.64
479.03	2682.84
479.24	2895.83
479.44	3084.24
479.64	2588.63
479.84	2459.61
480.04	2602.97
480.25	2875.35
480.45	2590.68
480.65	2625.50
480.85	3051.47
481.06	2664.41
481.26	2779.09
481.46	2607.06
481.66	2779.09
481.86	2580.44
482.06	2801.62
482.27	2691.03
482.47	2678.74
482.67	2834.39
482.87	2635.74
483.07	2693.08
483.28	2582.49
483.48	2531.29
483.68	2688.98
483.88	2572.25
484.08	2471.90
484.29	2617.30
484.49	2652.12
484.69	2523.10
484.89	2906.07
485.09	2877.40
485.29	2711.51
485.50	2693.08
485.70	2662.36
485.90	2936.79
486.10	2750.42
486.30	2701.27
486.50	2904.02
486.71	2772.95
486.91	2709.46
487.11	2797.53
487.31	2586.58
487.51	2777.05
487.71	2598.87
487.91	2514.91
488.12	2641.88
488.32	2365.40
488.52	2605.02
488.72	2469.85
488.92	2711.51
489.12	2891.73
489.32	2809.81
489.53	2731.99
489.73	2484.19
489.93	2994.13
490.13	2566.10
490.33	2502.62
490.53	2727.89
490.73	2916.31
490.94	2492.38
491.14	2734.04
491.34	2834.39
491.54	2881.49
491.74	3549.13
491.94	3993.54
492.14	4427.71
492.34	4413.37
492.54	4151.23
492.75	3502.03
492.95	3676.10
493.15	3321.81
493.35	3416.01
493.55	3217.36
493.75	3170.26
493.95	3170.26
494.15	2957.27
494.35	2762.71
494.56	2871.25
494.76	2580.44
494.96	2650.07
495.16	2645.98
495.36	2684.89
495.56	2699.22
495.76	2650.07
495.96	2551.77
496.16	2633.69
496.36	2936.79
496.56	2670.55
496.77	2719.70
496.97	2684.89
497.17	2854.87
497.37	2533.34
497.57	2686.94
497.77	2697.17
497.97	2580.44
498.17	2629.59
498.37	2594.78
498.57	2750.42
498.77	2643.93
498.97	2650.07
499.17	2922.45
499.38	2709.46
499.58	2793.43
499.78	2721.75
499.98	2858.96
500.18	2656.22
500.38	2668.50
500.58	2824.15
500.78	3104.72
500.98	5373.87
501.18	7196.56
501.38	8654.72
501.58	9451.38
501.78	9381.74
501.98	7651.21
502.18	6510.49
502.38	5584.81
502.58	5337.01
502.78	4812.73
502.98	4589.50
503.18	4372.41
503.38	4190.14
503.59	3618.76
503.79	3446.73
503.99	3264.46
504.19	3178.45
504.39	3235.79
504.59	3102.67
504.79	3108.82
504.99	3307.47
505.19	2916.31
505.39	2879.44
505.59	3047.38
505.79	2957.27
505.99	2848.72
506.19	2752.47
506.39	2883.54
506.59	2664.41
506.79	2621.40
506.99	2727.89
507.19	2701.27
507.39	2703.32
507.59	2492.38
507.79	2555.86
507.99	2547.67
508.19	2641.88
508.39	2744.28
508.59	2656.22
508.79	2758.61
508.99	3026.90
509.19	2613.21
509.39	2666.46
509.59	2465.75
509.79	2625.50
509.99	2762.71
510.19	2768.85
510.39	2729.94
510.59	2707.41
510.79	2758.61
510.99	2514.91
511.19	2635.74
511.39	3004.37
511.59	2990.03
511.79	2797.53
511.99	2648.02
512.19	3004.37
512.38	2717.65
512.58	2625.50
512.78	2590.68
512.98	2873.30
513.18	2914.26
513.38	2543.58
513.58	2695.13
513.78	2674.65
513.98	2650.07
514.18	2688.98
514.38	2652.12
514.58	2754.52
514.78	2639.83
514.98	2512.86
515.18	2650.07
515.38	2547.67
515.58	2965.46
515.78	2645.98
515.98	2623.45
516.18	2867.16
516.38	2740.18
516.57	2584.54
516.77	2688.98
516.97	2731.99
517.17	2629.59
517.37	2490.33
517.57	2727.89
517.77	2723.80
517.97	2619.35
518.17	2693.08
518.37	2570.20
518.57	2633.69
518.77	2664.41
518.97	2609.11
519.16	2719.70
519.36	2920.40
519.56	2662.36
519.76	2627.54
519.96	2637.78
520.16	2955.22
520.36	2525.15
520.56	2723.80
520.76	2559.96
520.96	2652.12
521.16	2897.88
521.35	2779.09
521.55	2820.05
521.75	2809.81
521.95	2668.50
522.15	2613.21
522.35	2494.43
522.55	2684.89
522.75	2891.73
522.95	2566.10
523.14	2543.58
523.34	2766.81
523.54	2615.26
523.74	2818.00
523.94	2688.98
524.14	2519.00
524.34	2775.00
524.54	2856.92
524.73	2688.98
524.93	2725.85
525.13	2734.04
525.33	2576.34
525.53	2895.83
525.73	2809.81
525.93	2668.50
526.13	2615.26
526.32	2617.30
526.52	2922.45
526.72	2883.54
526.92	2684.89
527.12	2658.26
527.32	2566.10
527.52	2818.00
527.71	2635.74
527.91	2693.08
528.11	2691.03
528.31	2631.64
528.51	2609.11
528.71	2758.61
528.90	2787.29
529.10	2846.68
529.30	2738.13
529.50	2387.93
529.70	2783.19
529.90	2727.89
530.09	2691.03
530.29	2473.95
530.49	2519.00
530.69	3153.87
530.89	2711.51
531.09	2713.56
531.28	2682.84
531.48	2926.55
531.68	2682.84
531.88	2654.17
532.08	2826.20
532.28	2775.00
532.47	2717.65
532.67	2746.33
532.87	2856.92
533.07	2596.82
533.27	2740.18
533.46	2727.89
533.66	2834.39
533.86	2793.43
534.06	2615.26
534.26	2639.83
534.45	2703.32
534.65	2811.86
534.85	2760.66
535.05	2615.26
535.25	2863.06
535.44	2514.91
535.64	2762.71
535.84	2643.93
536.04	2672.60
536.24	2641.88
536.43	2631.64
536.63	2684.89
536.83	2670.55
537.03	2615.26
537.22	2461.66
537.42	2504.67
537.62	2760.66
537.82	2588.63
538.02	2785.24
538.21	2781.14
538.41	3207.12
538.61	2748.37
538.81	2707.41
539.00	2740.18
539.20	2557.91
539.40	2693.08
539.60	2699.22
539.79	2861.01
539.99	2717.65
540.19	2609.11
540.39	2637.78
540.58	2709.46
540.78	2844.63
540.98	2723.80
541.18	2815.96
541.37	2746.33
541.57	2674.65
541.77	2824.15
541.97	2629.59
542.16	2469.85
542.36	2727.89
542.56	2660.31
542.76	2959.31
542.95	2697.17
543.15	2779.09
543.35	2824.15
543.54	2553.82
543.74	2584.54
543.94	2936.79
544.14	2637.78
544.33	2711.51
544.53	2613.21
544.73	2639.83
544.93	2682.84
545.12	2621.40
545.32	2676.70
545.52	2553.82
545.71	2623.45
545.91	2584.54
546.11	2592.73
546.30	2611.16
546.50	2752.47
546.70	2723.80
546.90	2670.55
547.09	2516.95
547.29	2703.32
547.49	2768.85
547.68	2664.41
547.88	2723.80
548.08	2838.48
548.27	3100.62
548.47	2607.06
548.67	2643.93
548.87	2783.19
549.06	2627.54
549.26	2611.16
549.46	2758.61
549.65	2615.26
549.85	2627.54
550.05	2719.70
550.24	2570.20
550.44	2729.94
550.64	2709.46
550.83	2670.55
551.03	2883.54
551.23	2844.63
551.42	2801.62
551.62	2645.98
551.82	2723.80
552.01	2731.99
552.21	2809.81
552.41	2678.74
552.60	2920.40
552.80	2713.56
553.00	2598.87
553.19	2709.46
553.39	3000.27
553.59	2541.53
553.78	2752.47
553.98	2629.59
554.17	2617.30
554.37	2815.96
554.57	2709.46
554.76	2576.34
554.96	2670.55
555.16	2760.66
555.35	2680.79
555.55	2760.66
555.75	2715.61
555.94	2785.24
556.14	2486.23
556.33	2721.75
556.53	2723.80
556.73	2662.36
556.92	2795.48
557.12	2750.42
557.32	2953.17
557.51	2908.12
557.71	2697.17
557.90	2832.34
558.10	2916.31
558.30	2662.36
558.49	2684.89
558.69	2658.26
558.88	2887.64
559.08	2748.37
559.28	2629.59
559.47	2727.89
559.67	2731.99
559.86	3051.47
560.06	2637.78
560.26	2678.74
560.45	2863.06
560.65	2736.09
560.84	2824.15
561.04	2482.14
561.24	2795.48
561.43	2566.10
561.63	2936.79
561.82	2727.89
562.02	2758.61
562.22	2555.86
562.41	2502.62
562.61	2619.35
562.80	2551.77
563.00	3106.77
563.19	2668.50
563.39	2738.13
563.59	2899.92
563.78	2594.78
563.98	2445.27
564.17	2703.32
564.37	2441.18
564.56	2693.08
564.76	2465.75
564.96	2789.33
565.15	2721.75
565.35	3067.86
565.54	2648.02
565.74	2746.33
565.93	2758.61
566.13	2756.57
566.32	2727.89
566.52	2736.09
566.71	2705.37
566.91	2801.62
567.11	2822.10
567.30	2525.15
567.50	2822.10
567.69	2840.53
567.89	2600.92
568.08	2623.45
568.28	2768.85
568.47	2592.73
568.67	2709.46
568.86	2609.11
569.06	2797.53
569.25	2731.99
569.45	2471.90
569.64	2541.53
569.84	2666.46
570.04	2832.34
570.23	2564.06
570.43	2688.98
570.62	2815.96
570.82	2922.45
571.01	2473.95
571.21	2666.46
571.40	2611.16
571.60	2940.88
571.79	2760.66
571.99	2656.22
572.18	2674.65
572.38	2865.11
572.57	2662.36
572.77	2756.57
572.96	3071.95
573.16	2772.95
573.35	2607.06
573.55	2787.29
573.74	2750.42
573.94	2676.70
574.13	2611.16
574.33	2742.23
574.52	2758.61
574.71	2731.99
574.91	2756.57
575.10	2514.91
575.30	2691.03
575.49	2660.31
575.69	2645.98
575.88	2580.44
576.08	2787.29
576.27	2775.00
576.47	2627.54
576.66	2824.15
576.86	2879.44
577.05	2795.48
577.25	2695.13
577.44	2899.92
577.64	2721.75
577.83	2815.96
578.02	2658.26
578.22	2887.64
578.41	2889.68
578.61	2701.27
578.80	2492.38
579.00	2660.31
579.19	2717.65
579.39	2785.24
579.58	2766.81
579.77	2660.31
579.97	2942.93
580.16	2904.02
580.36	2805.72
580.55	2750.42
580.75	2820.05
580.94	2766.81
581.13	2852.82
581.33	2801.62
581.52	2803.67
581.72	3061.71
581.91	2797.53
582.11	2566.10
582.30	2850.77
582.49	2822.10
582.69	2959.31
582.88	2760.66
583.08	2834.39
583.27	2904.02
583.47	2742.23
583.66	2555.86
583.85	2635.74
584.05	2760.66
584.24	2783.19
584.44	2711.51
584.63	2883.54
584.82	2820.05
585.02	2858.96
585.21	2801.62
585.41	2830.29
585.60	2867.16
585.79	2957.27
585.99	3016.66
586.18	2871.25
586.37	3559.37
586.57	5449.64
586.76	15965.96
586.96	35018.22
587.15	48459.04
587.34	56511.65
587.54	61152.35
587.73	54531.26
587.93	38499.76
588.12	29163.08
588.31	24004.24
588.51	21247.68
588.70	19259.10
588.89	17207.03
589.09	14483.24
589.28	12666.69
589.47	9807.72
589.67	7530.38
589.86	5998.50
590.06	4609.98
590.25	3876.80
590.44	3573.71
590.64	3082.19
590.83	3024.85
591.02	3071.95
591.22	2760.66
591.41	2760.66
591.60	2762.71
591.80	3145.68
591.99	2559.96
592.18	2662.36
592.38	2875.35
592.57	2656.22
592.76	2695.13
592.96	2752.47
593.15	2793.43
593.34	3000.27
593.54	2631.64
593.73	2736.09
593.92	2887.64
594.12	2791.38
594.31	2721.75
594.50	2815.96
594.70	2899.92
594.89	3119.06
595.08	2641.88
595.28	2740.18
595.47	3209.17
595.66	2867.16
595.86	2580.44
596.05	2627.54
596.24	2596.82
596.43	3008.47
596.63	2815.96
596.82	2793.43
597.01	2789.33
597.21	2928.60
597.40	2684.89
597.59	2721.75
597.79	2688.98
597.98	2787.29
598.17	2756.57
598.36	2639.83
598.56	2861.01
598.75	2652.12
598.94	2727.89
599.14	2766.81
599.33	2588.63
599.52	2807.77
599.71	2731.99
599.91	2738.13
600.10	2760.66
600.29	2746.33
600.48	2768.85
600.68	2777.05
600.87	2756.57
601.06	2650.07
601.26	2643.93
601.45	2758.61
601.64	2748.37
601.83	2938.84
602.03	2652.12
602.22	2539.48
602.41	2930.64
602.60	3055.57
602.80	2734.04
602.99	2750.42
603.18	2643.93
603.37	2787.29
603.57	2639.83
603.76	2756.57
603.95	2920.40
604.14	2613.21
604.34	2545.63
604.53	2641.88
604.72	2766.81
604.91	2822.10
605.10	2772.95
605.30	2461.66
605.49	2957.27
605.68	2725.85
605.87	2668.50
606.07	2559.96
606.26	2734.04
606.45	2836.44
606.64	2672.60
606.84	2611.16
607.03	2772.95
607.22	2879.44
607.41	2682.84
607.60	2609.11
607.80	2824.15
607.99	2705.37
608.18	2695.13
608.37	2633.69
608.56	2629.59
608.76	2871.25
608.95	2809.81
609.14	2660.31
609.33	2916.31
609.52	2908.12
609.72	2777.05
609.91	2789.33
610.10	2684.89
610.29	2955.22
610.48	2828.24
610.68	2793.43
610.87	2709.46
611.06	2863.06
611.25	2695.13
611.44	2783.19
611.63	2656.22
611.83	2955.22
612.02	2557.91
612.21	2723.80
612.40	2506.71
612.59	2582.49
612.79	2557.91
612.98	2762.71
613.17	2940.88
613.36	2736.09
613.55	2783.19
613.74	2705.37
613.93	2760.66
614.13	2844.63
614.32	2895.83
614.51	2762.71
614.70	2740.18
614.89	2693.08
615.08	2791.38
615.28	3166.16
615.47	2658.26
615.66	2797.53
615.85	2648.02
616.04	2766.81
616.23	2764.76
616.42	2756.57
616.62	2707.41
616.81	2746.33
617.00	2770.90
617.19	2785.24
617.38	2678.74
617.57	2748.37
617.76	2883.54
617.95	2783.19
618.15	2713.56
618.34	2901.97
618.53	2564.06
618.72	2848.72
618.91	2742.23
619.10	2754.52
619.29	2785.24
619.48	2801.62
619.68	2574.30
619.87	2586.58
620.06	2555.86
620.25	2709.46
620.44	2605.02
620.63	2613.21
620.82	2805.72
621.01	2717.65
621.20	2645.98
621.39	2650.07
621.59	2809.81
621.78	2707.41
621.97	2695.13
622.16	2727.89
622.35	2752.47
622.54	2889.68
622.73	2717.65
622.92	2494.43
623.11	2899.92
623.30	2760.66
623.49	2754.52
623.68	2680.79
623.88	2887.64
624.07	2740.18
624.26	2607.06
624.45	2588.63
624.64	2713.56
624.83	2760.66
625.02	2633.69
625.21	2578.39
625.40	2828.24
625.59	2959.31
625.78	2693.08
625.97	2766.81
626.16	2895.83
626.35	2867.16
626.54	2699.22
626.74	2949.08
626.93	2715.61
627.12	2633.69
627.31	2711.51
627.50	2727.89
627.69	2830.29
627.88	2551.77
628.07	2715.61
628.26	2424.80
628.45	2641.88
628.64	2615.26
628.83	2621.40
629.02	2562.01
629.21	2883.54
629.40	2756.57
629.59	2623.45
629.78	2582.49
629.97	2711.51
630.16	2789.33
630.35	2572.25
630.54	2686.94
630.73	2596.82
630.92	2633.69
631.11	2619.35
631.30	2711.51
631.49	2811.86
631.68	2736.09
631.87	2750.42
632.06	2594.78
632.25	3112.91
632.44	2711.51
632.63	2719.70
632.82	2633.69
633.01	2684.89
633.20	2740.18
633.39	2666.46
633.58	2533.34
633.77	2772.95
633.96	2869.20
634.15	2766.81
634.34	2727.89
634.53	2799.57
634.72	2658.26
634.91	2506.71
635.10	2629.59
635.29	2871.25
635.48	2781.14
635.67	2660.31
635.86	2478.04
636.05	2953.17
636.24	2668.50
636.43	2766.81
636.62	2775.00
636.81	2469.85
637.00	2752.47
637.19	2736.09
637.38	2627.54
637.57	2643.93
637.76	2766.81
637.95	2783.19
638.14	2701.27
638.33	2742.23
638.52	2785.24
638.71	2594.78
638.89	2553.82
639.08	3119.06
639.27	2856.92
639.46	2865.11
639.65	3080.14
639.84	3235.79
640.03	3340.24
640.22	3092.43
640.41	3188.69
640.60	2865.11
640.79	2981.84
640.98	2869.20
641.17	2836.44
641.36	2891.73
641.55	2881.49
641.74	2549.72
641.92	2637.78
642.11	2676.70
642.30	2750.42
642.49	2594.78
642.68	2605.02
642.87	2758.61
643.06	2826.20
643.25	2555.86
643.44	2615.26
643.63	2723.80
643.82	2863.06
644.00	2564.06
644.19	2650.07
644.38	2596.82
644.57	2820.05
644.76	2723.80
644.95	2688.98
645.14	2744.28
645.33	2672.60
645.52	2635.74
645.71	2574.30
645.89	2545.63
646.08	2742.23
646.27	2686.94
646.46	2865.11
646.65	2570.20
646.84	2736.09
647.03	2576.34
647.22	2813.91
647.40	2750.42
647.59	2650.07
647.78	2455.51
647.97	2652.12
648.16	2643.93
648.35	2926.55
648.54	2889.68
648.73	2602.97
648.91	2840.53
649.10	2686.94
649.29	2514.91
649.48	2645.98
649.67	2740.18
649.86	2799.57
650.05	2695.13
650.23	2861.01
650.42	2602.97
650.61	2953.17
650.80	2963.41
650.99	3022.80
651.18	2803.67
651.36	2869.20
651.55	2697.17
651.74	2799.57
651.93	2670.55
652.12	2693.08
652.31	2617.30
652.49	2670.55
652.68	2652.12
652.87	2953.17
653.06	2762.71
653.25	2949.08
653.44	2719.70
653.62	2965.46
653.81	2645.98
654.00	2650.07
654.19	2766.81
654.38	3102.67
654.56	2738.13
654.75	2631.64
654.94	2863.06
655.13	2824.15
655.32	2633.69
655.51	2764.76
655.69	2674.65
655.88	2813.91
656.07	2531.29
656.26	2699.22
656.45	2564.06
656.63	2809.81
656.82	2713.56
657.01	2844.63
657.20	2717.65
657.38	2920.40
657.57	2699.22
657.76	2463.71
657.95	2809.81
658.14	2682.84
658.32	2713.56
658.51	2547.67
658.70	2719.70
658.89	2789.33
659.08	2752.47
659.26	2936.79
659.45	2637.78
659.64	2830.29
659.83	2652.12
660.01	3022.80
660.20	2744.28
660.39	3059.67
660.58	2445.27
660.76	2609.11
660.95	2549.72
661.14	2719.70
661.33	2512.86
661.51	2617.30
661.70	2596.82
661.89	2799.57
662.08	2605.02
662.26	2447.32
662.45	2629.59
662.64	3053.52
662.83	2822.10
663.01	2469.85
663.20	2648.02
663.39	2955.22
663.58	2666.46
663.76	2643.93
663.95	2760.66
664.14	2533.34
664.32	2598.87
664.51	2598.87
664.70	2539.48
664.89	2865.11
665.07	2529.24
665.26	2838.48
665.45	2557.91
665.64	2736.09
665.82	2688.98
666.01	2686.94
666.20	2504.67
666.38	2785.24
666.57	2914.26
666.76	4259.78
666.95	10104.68
667.13	16951.04
667.32	20840.13
667.51	23985.81
667.69	24956.55
667.88	21307.07
668.07	15261.46
668.25	13039.42
668.44	11024.22
668.63	9373.55
668.81	8355.71
669.00	7321.49
669.19	6664.09
669.38	5730.22
669.56	4939.70
669.75	4235.20
669.94	3776.45
670.12	3276.75
670.31	2994.13
670.50	2947.03
670.68	2934.74
670.87	2871.25
671.06	2674.65
671.24	2756.57
671.43	2957.27
671.62	2748.37
671.80	2594.78
671.99	2709.46
672.18	2668.50
672.36	2912.21
672.55	2764.76
672.74	2684.89
672.92	2686.94
673.11	2775.00
673.29	2590.68
673.48	2838.48
673.67	2729.94
673.85	2850.77
674.04	2611.16
674.23	2717.65
674.41	3002.32
674.60	2580.44
674.79	2475.99
674.97	2594.78
675.16	2736.09
675.34	2813.91
675.53	2639.83
675.72	2746.33
675.90	2920.40
676.09	2711.51
676.28	2709.46
676.46	2471.90
676.65	2801.62
676.83	2490.33
677.02	2680.79
677.21	2725.85
677.39	2775.00
677.58	2572.25
677.77	2562.01
677.95	2535.39
678.14	2709.46
678.32	2758.61
678.51	2645.98
678.70	2914.26
678.88	2703.32
679.07	2734.04
679.25	2705.37
679.44	2727.89
679.63	2605.02
679.81	2744.28
680.00	2822.10
680.18	2717.65
680.37	2871.25
680.55	2791.38
680.74	2510.81
680.93	2400.22
681.11	2688.98
681.30	2695.13
681.48	2600.92
681.67	2703.32
681.85	2676.70
682.04	2580.44
682.23	2768.85
682.41	2760.66
682.60	2666.46
682.78	2635.74
682.97	2637.78
683.15	2719.70
683.34	2725.85
683.53	2871.25
683.71	2523.10
683.90	2736.09
684.08	2953.17
684.27	2652.12
684.45	2744.28
684.64	2863.06
684.82	2717.65
685.01	2770.90
685.19	2701.27
685.38	2914.26
685.57	2717.65
685.75	2555.86
685.94	2586.58
686.12	2519.00
686.31	2717.65
686.49	2998.23
686.68	2475.99
686.86	2777.05
687.05	2658.26
687.23	2953.17
687.42	2656.22
687.60	2486.23
687.79	2830.29
687.97	2967.51
688.16	2725.85
688.34	2768.85
688.53	2531.29
688.71	2818.00
688.90	2830.29
689.08	2748.37
689.27	2457.56
689.45	2772.95
689.64	2709.46
689.82	2707.41
690.01	2777.05
690.19	2764.76
690.38	2668.50
690.56	2785.24
690.75	2592.73
690.93	2652.12
691.12	2621.40
691.30	2688.98
691.49	2662.36
691.67	2680.79
691.86	2906.07
692.04	2557.91
692.23	2572.25
692.41	2666.46
692.60	3063.76
692.78	2711.51
692.97	2809.81
693.15	2807.77
693.34	2910.16
693.52	2844.63
693.71	2707.41
693.89	2666.46
694.08	2498.52
694.26	2754.52
694.44	2850.77
694.63	2899.92
694.81	2588.63
695.00	2584.54
695.18	2889.68
695.37	3219.41
695.55	2750.42
695.74	2668.50
695.92	2658.26
696.10	2883.54
696.29	2588.63
696.47	2578.39
696.66	2578.39
696.84	2668.50
697.03	2654.17
697.21	2815.96
697.40	4126.66
697.58	2877.40
697.76	2555.86
697.95	2623.45
698.13	2488.28
698.32	2588.63
698.50	2611.16
698.68	2711.51
698.87	2850.77
699.05	2908.12
699.24	2686.94
699.42	2484.19
699.61	2756.57
699.79	2648.02
699.97	2609.11
700.16	2521.05
700.34	2519.00
700.53	2797.53
700.71	2875.35
700.89	2772.95
701.08	2684.89
701.26	2674.65
701.45	3117.01
701.63	2512.86
701.81	2703.32
702.00	2621.40
702.18	2705.37
702.37	2545.63
702.55	2852.82
702.73	2754.52
702.92	2707.41
703.10	2942.93
703.28	2977.75
703.47	2676.70
703.65	2809.81
703.84	2832.34
704.02	2662.36
704.20	2920.40
704.39	2607.06
704.57	2547.67
704.75	2809.81
704.94	2799.57
705.12	2758.61
705.30	3071.95
705.49	5900.20
705.67	11835.21
705.86	17686.26
706.04	20258.51
706.22	22711.97
706.41	22501.03
706.59	17737.46
706.77	13238.07
706.96	11587.41
707.14	10491.74
707.32	9058.17
707.51	7901.06
707.69	6561.69
707.87	5482.41
708.06	4419.52
708.24	3909.57
708.42	3366.86
708.61	3325.90
708.79	2734.04
708.97	2795.48
709.16	2861.01
709.34	2746.33
709.52	2691.03
709.71	2652.12
709.89	2803.67
710.07	2672.60
710.26	2555.86
710.44	2613.21
710.62	2863.06
710.80	2725.85
710.99	2754.52
711.17	2779.09
711.35	2613.21
711.54	2602.97
711.72	2793.43
711.90	2779.09
712.09	2777.05
712.27	2631.64
712.45	2768.85
712.63	2631.64
712.82	2725.85
713.00	2703.32
713.18	2775.00
713.37	2742.23
713.55	2842.58
713.73	2793.43
713.91	2756.57
714.10	2650.07
714.28	2723.80
714.46	2772.95
714.65	2715.61
714.83	2752.47
715.01	2678.74
715.19	2764.76
715.38	2592.73
715.56	2727.89
715.74	2521.05
715.92	2508.76
716.11	2883.54
716.29	2469.85
716.47	2715.61
716.65	2658.26
716.84	2555.86
717.02	2813.91
717.20	2594.78
717.38	2629.59
717.57	2734.04
717.75	2662.36
717.93	2652.12
718.11	2826.20
718.30	2480.09
718.48	2723.80
718.66	2875.35
718.84	2934.74
719.03	2621.40
719.21	2492.38
719.39	2940.88
719.57	2723.80
719.75	2772.95
719.94	2586.58
720.12	2736.09
720.30	2727.89
720.48	2738.13
720.67	2650.07
720.85	2619.35
721.03	2699.22
721.21	2582.49
721.39	2752.47
721.58	2717.65
721.76	2637.78
721.94	2715.61
722.12	2701.27
722.30	2990.03
722.49	2668.50
722.67	2738.13
722.85	2643.93
723.03	2543.58
723.21	2639.83
723.40	2719.70
723.58	2834.39
723.76	2809.81
723.94	2846.68
724.12	2703.32
724.30	2922.45
724.49	2920.40
724.67	2564.06
724.85	2908.12
725.03	2496.47
725.21	2869.20
725.40	2963.41
725.58	2572.25
725.76	2815.96
725.94	2768.85
726.12	2535.39
726.30	2666.46
726.49	2682.84
726.67	2602.97
726.85	2746.33
727.03	3172.30
727.21	4157.38
727.39	5210.03
727.57	5545.90
727.76	5988.26
727.94	6354.85
728.12	5545.90
728.30	4409.28
728.48	4265.92
728.66	3971.01
728.84	3682.25
729.03	3344.33
729.21	3145.68
729.39	2932.69
729.57	2803.67
729.75	2822.10
729.93	2756.57
730.11	2625.50
730.30	2641.88
730.48	2635.74
730.66	2770.90
730.84	2705.37
731.02	2701.27
731.20	2611.16
731.38	2740.18
731.56	2600.92
731.74	2572.25
731.93	2797.53
732.11	2727.89
732.29	2662.36
732.47	2834.39
732.65	2768.85
732.83	2799.57
733.01	2719.70
733.19	2596.82
733.37	2803.67
733.56	2666.46
733.74	2670.55
733.92	2914.26
734.10	2658.26
734.28	2719.70
734.46	2527.19
734.64	2688.98
734.82	2625.50
735.00	2629.59
735.18	2557.91
735.36	2656.22
735.54	2756.57
735.73	2686.94
735.91	2623.45
736.09	2973.65
736.27	2742.23
736.45	2678.74
736.63	2488.28
736.81	2625.50
736.99	2858.96
737.17	2875.35
737.35	2562.01
737.53	2752.47
737.71	2705.37
737.89	2785.24
738.07	2564.06
738.25	2602.97
738.43	2555.86
738.61	2664.41
738.80	2580.44
738.98	2531.29
739.16	2635.74
739.34	2623.45
739.52	2940.88
739.70	2658.26
739.88	2801.62
740.06	2815.96
740.24	2385.88
740.42	2908.12
740.60	2486.23
740.78	2633.69
740.96	2457.56
741.14	2729.94
741.32	2752.47
741.50	2564.06
741.68	2883.54
741.86	2955.22
742.04	2498.52
742.22	2527.19
742.40	2633.69
742.58	2850.77
742.76	2588.63
742.94	2791.38
743.12	2430.94
743.30	2723.80
743.48	2791.38
743.66	2650.07
743.84	2738.13
744.02	2770.90
744.20	2660.31
744.38	2658.26
744.56	2605.02
744.74	2994.13
744.92	2838.48
745.10	2809.81
745.28	2744.28
745.46	2981.84
745.64	2674.65
745.82	2725.85
746.00	2691.03
746.18	2764.76
746.36	2570.20
746.54	2760.66
746.72	2691.03
746.90	2580.44
747.08	2883.54
747.26	2635.74
747.44	2799.57
747.62	2854.87
747.80	2795.48
747.98	2744.28
748.15	2639.83
748.33	2977.75
748.51	2766.81
748.69	2740.18
748.87	2541.53
749.05	2719.70
749.23	2725.85
749.41	2703.32
749.59	2611.16
749.77	2867.16
749.95	2684.89
750.13	2559.96
750.31	2666.46
750.49	2680.79
750.67	2830.29
750.85	2910.16
751.03	2666.46
751.20	3061.71
751.38	2736.09
751.56	2650.07
751.74	2670.55
751.92	2643.93
752.10	2586.58
752.28	2830.29
752.46	2547.67
752.64	2707.41
752.82	2678.74
753.00	2801.62
753.18	2523.10
753.35	2691.03
753.53	2748.37
753.71	2637.78
753.89	2734.04
754.07	2701.27
754.25	2818.00
754.43	2736.09
754.61	2566.10
754.79	2844.63
754.97	2719.70
755.14	2822.10
755.32	2594.78
755.50	2709.46
755.68	2744.28
755.86	2539.48
756.04	2693.08
756.22	2467.80
756.40	2820.05
756.57	2959.31
756.75	2580.44
756.93	2840.53
757.11	2863.06
757.29	2523.10
757.47	2535.39
757.65	2506.71
757.82	2467.80
758.00	2580.44
758.18	2568.15
758.36	2557.91
758.54	3018.71
758.72	2492.38
758.90	2805.72
759.07	2725.85
759.25	2588.63
759.43	2805.72
759.61	2486.23
759.79	3899.33
759.97	2789.33
760.15	2637.78
760.32	2666.46
760.50	2744.28
760.68	2918.36
760.86	2480.09
761.04	2779.09
761.22	2830.29
761.39	2750.42
761.57	2828.24
761.75	2670.55
761.93	2734.04
762.11	2775.00
762.28	2709.46
762.46	2629.59
762.64	2815.96
762.82	2559.96
763.00	2670.55
763.18	2762.71
763.35	2568.15
763.53	2770.90
763.71	2736.09
763.89	2629.59
764.07	2762.71
764.24	2680.79
764.42	2781.14
764.60	2605.02
764.78	2748.37
764.96	2805.72
765.13	2789.33
765.31	2609.11
765.49	2815.96
765.67	2506.71
765.84	2596.82
766.02	2564.06
766.20	2545.63
766.38	2744.28
766.56	2713.56
766.73	2691.03
766.91	2680.79
767.09	2738.13
767.27	2715.61
767.44	2590.68
767.62	2834.39
767.80	2854.87
767.98	2586.58
768.15	2611.16
768.33	2856.92
768.51	2875.35
768.69	2723.80
768.87	2703.32
769.04	2729.94
769.22	3112.91
769.40	2846.68
769.58	2826.20
769.75	2744.28
769.93	2910.16
770.11	2658.26
770.28	2586.58
770.46	2844.63
770.64	2731.99
770.82	2629.59
770.99	2613.21
771.17	2811.86
771.35	2625.50
771.53	2701.27
771.70	2602.97
771.88	2820.05
772.06	2750.42
772.23	2572.25
772.41	2654.17
772.59	2682.84
772.77	2551.77
772.94	2592.73
773.12	2672.60
773.30	2633.69
773.47	2699.22
773.65	2562.01
773.83	2766.81
774.01	2744.28
774.18	2514.91
774.36	2727.89
774.54	2547.67
774.71	2775.00
774.89	2506.71
775.07	2588.63
775.24	2625.50
775.42	2619.35
775.60	3010.51
775.78	2582.49
775.95	2496.47
776.13	2469.85
776.31	2473.95
776.48	2752.47
776.66	2772.95
776.84	2721.75
777.01	2566.10
777.19	2590.68
777.37	2662.36
777.54	2799.57
777.72	3026.90
777.90	2758.61
778.07	2668.50
778.25	3217.36
778.43	2904.02
778.60	2584.54
778.78	2746.33
778.96	2813.91
779.13	2578.39
779.31	2758.61
779.49	2627.54
779.66	2740.18
779.84	2619.35
780.01	2693.08
780.19	2605.02
780.37	2934.74
780.54	2803.67
780.72	2588.63
780.90	2641.88
781.07	2686.94
781.25	2584.54
781.43	2772.95
781.60	2621.40
781.78	2793.43
781.95	2793.43
782.13	2619.35
782.31	2617.30
782.48	2424.80
782.66	2746.33
782.83	2926.55
783.01	2711.51
783.19	2797.53
783.36	2613.21
783.54	2453.47
783.72	2748.37
783.89	2682.84
784.07	2750.42
784.24	2775.00
784.42	2836.44
784.60	2760.66
784.77	2672.60
784.95	2467.80
785.12	2615.26
785.30	2713.56
785.47	2619.35
785.65	2551.77
785.83	2711.51
786.00	2662.36
786.18	2717.65
786.35	2559.96
786.53	2555.86
786.71	2856.92
786.88	2756.57
787.06	2719.70
787.23	2699.22
787.41	2504.67
787.58	2703.32
787.76	2545.63
787.94	2744.28
788.11	2762.71
788.29	2588.63
788.46	2564.06
788.64	2525.15
788.81	2611.16
788.99	2617.30
789.16	2588.63
789.34	2697.17
789.52	2611.16
789.69	2643.93
789.87	2416.60
790.04	2715.61
790.22	2754.52
790.39	3084.24
790.57	2568.15
790.74	2570.20
790.92	2861.01
791.09	2445.27
791.27	2742.23
791.44	2744.28
791.62	2594.78
791.79	2856.92
791.97	2725.85
792.15	2957.27
792.32	2875.35
792.50	2830.29
792.67	2836.44
792.85	2834.39
793.02	2768.85
793.20	2598.87
793.37	2490.33
793.55	2592.73
793.72	2547.67
793.90	2811.86
794.07	2584.54
794.25	2469.85
794.42	2695.13
794.60	2693.08
794.77	2740.18
794.95	2754.52
795.12	2883.54
795.30	2648.02
795.47	2432.99
795.65	2965.46
795.82	2701.27
796.00	2551.77
796.17	2709.46
796.34	2613.21
796.52	2748.37
796.69	2832.34
796.87	2719.70
797.04	2680.79
797.22	2899.92
797.39	2826.20
797.57	2723.80
797.74	2725.85
797.92	2707.41
798.09	2568.15
798.27	2813.91
798.44	2623.45
798.62	2666.46
798.79	2723.80
798.96	2738.13
799.14	2691.03
799.31	3047.38
799.49	2736.09
799.66	2584.54
799.84	2725.85
800.01	2480.09
800.19	2752.47
800.36	2529.24
800.53	2682.84
800.71	2736.09
800.88	2959.31
801.06	2619.35
801.23	2559.96
801.41	2645.98
801.58	2590.68
801.75	2570.20
801.93	2799.57
802.10	2807.77
802.28	2664.41
802.45	2711.51
802.63	2695.13
802.80	2764.76
802.97	2623.45
803.15	2674.65
803.32	2613.21
803.50	2600.92
803.67	2631.64
803.84	2576.34
804.02	2654.17
804.19	2662.36
804.37	2394.08
804.54	2527.19
804.71	2523.10
804.89	2748.37
805.06	2611.16
805.24	2514.91
805.41	2490.33
805.58	2613.21
805.76	3117.01
805.93	2684.89
806.10	2750.42
806.28	2844.63
806.45	2680.79
806.63	2736.09
806.80	2748.37
806.97	2750.42
807.15	2805.72
807.32	2691.03
807.49	2652.12
807.67	2541.53
807.84	2734.04
808.01	2514.91
808.19	2871.25
808.36	2990.03
808.54	2678.74
808.71	2555.86
808.88	2711.51
809.06	2869.20
809.23	2930.64
809.40	2703.32
809.58	2662.36
809.75	2654.17
809.92	2572.25
810.10	2932.69
810.27	2688.98
810.44	2815.96
810.62	2854.87
810.79	2744.28
810.96	2656.22
811.14	2594.78
811.31	2785.24
811.48	2811.86
811.66	2691.03
811.83	2885.59
812.00	2697.17
812.18	2707.41
812.35	2965.46
812.52	2625.50
812.69	2631.64
812.87	2760.66
813.04	2564.06
813.21	2707.41
813.39	2570.20
813.56	2619.35
813.73	2881.49
813.91	2527.19
814.08	2723.80
814.25	2637.78
814.42	2439.13
814.60	2666.46
814.77	2713.56
814.94	2613.21
815.12	2715.61
815.29	2951.12
815.46	2639.83
815.63	2648.02
815.81	2686.94
815.98	2705.37
816.15	2650.07
816.33	2680.79
816.50	2668.50
816.67	2760.66
816.84	2656.22
817.02	2496.47
817.19	2594.78
817.36	2697.17
817.53	2770.90
817.71	2572.25
817.88	2717.65
818.05	2756.57
818.22	2596.82
818.40	2820.05
818.57	2609.11
818.74	2793.43
818.91	2766.81
819.09	2711.51
819.26	2760.66
819.43	2629.59
819.60	2578.39
819.78	2801.62
819.95	2701.27
820.12	2578.39
820.29	2895.83
820.47	2836.44
820.64	2519.00
820.81	2549.72
820.98	2508.76
821.15	2578.39
821.33	2680.79
821.50	2445.27
821.67	2815.96
821.84	2596.82
822.02	2688.98
822.19	2891.73
822.36	2635.74
822.53	2625.50
822.70	2510.81
822.88	2664.41
823.05	2936.79
823.22	2705.37
823.39	2670.55
823.56	2699.22
823.74	3016.66
823.91	2488.28
824.08	2549.72
824.25	2559.96
824.42	2908.12
824.60	2582.49
824.77	2715.61
824.94	2645.98
825.11	2830.29
825.28	2504.67
825.45	2766.81
825.63	2797.53
825.80	2510.81
825.97	2709.46
826.14	2719.70
826.31	2492.38
826.48	2760.66
826.66	2611.16
826.83	2594.78
827.00	2652.12
827.17	2541.53
827.34	2721.75
827.51	2525.15
827.69	2736.09
827.86	2512.86
828.03	2543.58
828.20	2660.31
828.37	2662.36
828.54	2822.10
828.71	2600.92
828.89	2824.15
829.06	2762.71
829.23	2867.16
829.40	2498.52
829.57	2613.21
829.74	2803.67
829.91	2627.54
830.09	2572.25
830.26	2750.42
830.43	2893.78
830.60	2750.42
830.77	2711.51
830.94	2748.37
831.11	2865.11
831.28	2791.38
831.46	2785.24
831.63	2680.79
831.80	2836.44
831.97	2619.35
832.14	2584.54
832.31	2715.61
832.48	2762.71
832.65	2852.82
832.82	2727.89
832.99	2662.36
833.17	2564.06
833.34	2865.11
833.51	2658.26
833.68	2455.51
833.85	2828.24
834.02	2527.19
834.19	2568.15
834.36	2525.15
834.53	2768.85
834.70	2832.34
834.87	2674.65
835.04	2516.95
835.22	2602.97
835.39	2693.08
835.56	2500.57
835.73	2496.47
835.90	2879.44
836.07	2627.54
836.24	2648.02
836.41	2523.10
836.58	2607.06
836.75	2818.00
836.92	2609.11
837.09	2502.62
837.26	2834.39
837.43	2734.04
837.60	2609.11
837.77	2508.76
837.94	2832.34
838.12	2875.35
838.29	2527.19
838.46	2441.18
838.63	2559.96
838.80	2891.73
838.97	2701.27
839.14	2557.91
839.31	2777.05
839.48	2848.72
839.65	2600.92
839.82	2633.69
839.99	2775.00
840.16	2688.98
840.33	2480.09
840.50	2584.54
840.67	2658.26
840.84	2457.56
841.01	2523.10
841.18	2482.14
841.35	2713.56
841.52	2801.62
841.69	2832.34
841.86	2572.25
842.03	2656.22
842.20	2928.60
842.37	2523.10
842.54	2566.10
842.71	2648.02
842.88	2512.86
843.05	2539.48
843.22	2572.25
843.39	2811.86
843.56	2670.55
843.73	2523.10
843.90	2588.63
844.07	2725.85
844.24	2863.06
844.41	2666.46
844.58	2658.26
844.75	2650.07
844.92	2740.18
845.09	2512.86
845.26	2578.39
845.43	2813.91
845.60	2697.17
845.77	2621.40
845.94	2576.34
846.10	2836.44
846.27	2383.84
846.44	2502.62
846.61	2453.47
846.78	2748.37
846.95	2850.77
847.12	2537.43
847.29	2619.35
847.46	2564.06
847.63	2787.29
847.80	2547.67
847.97	2535.39
848.14	3055.57
848.31	2682.84
848.48	2381.79
848.65	2641.88
848.82	2613.21
848.98	3059.67
849.15	2721.75
849.32	2645.98
849.49	2844.63
849.66	2686.94
849.83	2529.24
850.00	2494.43
850.17	2846.68
850.34	2637.78
850.51	2502.62
850.68	2580.44
850.85	3133.39
851.01	2680.79
851.18	2570.20
851.35	2523.10
851.52	2787.29
851.69	2877.40
851.86	2408.41
852.03	2607.06
852.20	2850.77
852.37	2762.71
852.53	2465.75
852.70	2516.95
852.87	2828.24
853.04	2801.62
853.21	2594.78
853.38	2760.66
853.55	2934.74
853.72	2924.50
853.89	2510.81
854.05	2506.71
854.22	2764.76
854.39	2658.26
854.56	2535.39
854.73	2725.85
854.90	2568.15
855.07	2691.03
855.23	2473.95
855.40	2461.66
855.57	2662.36
855.74	2430.94
855.91	2736.09
856.08	2480.09
856.25	2521.05
856.41	2629.59
856.58	2559.96
856.75	2607.06
856.92	2541.53
857.09	2840.53
857.26	2412.51
857.42	2562.01
857.59	2840.53
857.76	2613.21
857.93	2564.06
858.10	2686.94
858.27	2695.13
858.43	2731.99
858.60	2553.82
858.77	2355.16
858.94	2695.13
859.11	2850.77
859.27	2576.34
859.44	2547.67
859.61	2998.23
859.78	2818.00
859.95	2545.63
860.12	2512.86
860.28	2990.03
860.45	3000.27
860.62	2541.53
860.79	2566.10
860.95	2738.13
861.12	2537.43
861.29	2451.42
861.46	2482.14
861.63	2637.78
861.79	2834.39
861.96	2457.56
862.13	2586.58
862.30	2897.88
862.47	2721.75
862.63	2467.80
862.80	2605.02
862.97	2809.81
863.14	2756.57
863.30	2584.54
863.47	2541.53
863.64	2914.26
863.81	2734.04
863.97	2428.89
864.14	2588.63
864.31	2709.46
864.48	2785.24
864.65	2643.93
864.81	2680.79
864.98	2809.81
865.15	2938.84
865.32	2637.78
865.48	2549.72
865.65	2983.89
865.82	2574.30
865.98	2580.44
866.15	2709.46
866.32	2699.22
866.49	2586.58
866.65	2719.70
866.82	2435.03
866.99	2725.85
867.16	2539.48
867.32	2605.02
867.49	2537.43
867.66	2668.50
867.83	2533.34
867.99	2488.28
868.16	2508.76
868.33	2545.63
868.49	2707.41
868.66	2590.68
868.83	2670.55
868.99	2740.18
869.16	2705.37
869.33	2750.42
869.50	2629.59
869.66	2721.75
869.83	2693.08
870.00	2424.80
870.16	2676.70
870.33	2592.73
870.50	2766.81
870.66	2658.26
870.83	2562.01
871.00	2717.65
871.17	2838.48
871.33	2572.25
871.50	2508.76
871.67	2701.27
871.83	2488.28
872.00	2611.16
872.17	2570.20
872.33	2969.55
872.50	2914.26
872.67	2502.62
872.83	2562.01
873.00	2789.33
873.17	2785.24
873.33	2662.36
873.50	2588.63
873.67	2549.72
873.83	2566.10
874.00	2488.28
874.16	2668.50
874.33	2688.98
874.50	2453.47
874.66	2519.00
874.83	2623.45
875.00	2850.77
875.16	2906.07
875.33	2695.13
875.50	2449.37
875.66	2723.80
875.83	2734.04
875.99	2654.17
876.16	2654.17
876.33	2596.82
876.49	2568.15
876.66	2576.34
876.83	2580.44
876.99	2494.43
877.16	2637.78
877.32	2512.86
877.49	2660.31
877.66	2742.23
877.82	2944.98
877.99	2680.79
878.15	2762.71
878.32	2678.74
878.49	2637.78
878.65	2684.89
878.82	2746.33
878.98	2654.17
879.15	2801.62
879.32	2695.13
879.48	2725.85
879.65	2703.32
879.81	2660.31
879.98	2572.25
880.15	2533.34
880.31	2922.45
880.48	2600.92
880.64	2672.60
880.81	2711.51
880.97	2961.36
881.14	2891.73
881.31	2514.91
881.47	2746.33
881.64	2705.37
881.80	2506.71
881.97	2645.98
882.13	2598.87
882.30	2568.15
882.47	2625.50
882.63	2562.01
882.80	2545.63
882.96	2654.17
883.13	2914.26
883.29	2594.78
883.46	2609.11
883.62	3030.99
883.79	2783.19
883.95	2674.65
884.12	2551.77
884.29	2777.05
884.45	2742.23
884.62	2645.98
884.78	2486.23
884.95	2963.41
885.11	2637.78
885.28	2594.78
885.44	2615.26
885.61	2840.53
885.77	2881.49
885.94	2629.59
886.10	2635.74
886.27	2791.38
886.43	3006.42
886.60	2717.65
886.76	2592.73
886.93	2578.39
887.09	2721.75
887.26	2443.23
887.42	2633.69
887.59	2899.92
887.75	3018.71
887.92	2719.70
888.08	2648.02
888.25	2938.84
888.41	2752.47
888.58	2576.34
888.74	2449.37
888.91	2623.45
>>>>>End Processed Spectral Data<<<<<
