SpectraSuite Data File
++++++++++++++++++++++++++++++++++++
Date: Thu May 05 16:20:54 CEST 2016
User: root
Dark Spectrum Present: No
Reference Spectrum Present: No
Number of Sampled Component Spectra: 1
Spectrometers: USB4C02835
Integration Time (usec): 100000 (USB4C02835)
Spectra Averaged: 1 (USB4C02835)
Boxcar Smoothing: 0 (USB4C02835)
Correct for Electrical Dark: No (USB4C02835)
Strobe/Lamp Enabled: No (USB4C02835)
Correct for Detector Non-linearity: No (USB4C02835)
Correct for Stray Light: No (USB4C02835)
Number of Pixels in Processed Spectrum: 3648
>>>>>Begin Processed Spectral Data<<<<<
177.47	2000.87
177.69	2000.87
177.91	2000.87
178.13	2013.15
178.36	2039.78
178.58	2545.63
178.80	2682.84
179.02	2572.25
179.24	2592.73
179.46	2537.43
179.68	2482.14
179.90	2676.70
180.13	2793.43
180.35	2400.22
180.57	2471.90
180.79	2803.67
181.01	2713.56
181.23	2531.29
181.45	2594.78
181.67	2772.95
181.90	2764.76
182.12	2557.91
182.34	2316.25
182.56	2695.13
182.78	2676.70
183.00	2496.47
183.22	2547.67
183.44	2457.56
183.66	3192.78
183.89	2631.64
184.11	2551.77
184.33	2887.64
184.55	2875.35
184.77	2508.76
184.99	2564.06
185.21	2645.98
185.43	2998.23
185.65	2529.24
185.87	2537.43
186.10	2996.18
186.32	3069.91
186.54	2654.17
186.76	2660.31
186.98	2844.63
187.20	2754.52
187.42	2582.49
187.64	2471.90
187.86	2848.72
188.08	2815.96
188.30	2428.89
188.52	2516.95
188.75	2824.15
188.97	2881.49
189.19	2467.80
189.41	2441.18
189.63	2815.96
189.85	2678.74
190.07	2355.16
190.29	2342.88
190.51	2809.81
190.73	2473.95
190.95	2635.74
191.17	2557.91
191.39	2553.82
191.61	2699.22
191.84	2502.62
192.06	2627.54
192.28	2500.57
192.50	3131.34
192.72	2605.02
192.94	2582.49
193.16	2785.24
193.38	2770.90
193.60	2506.71
193.82	2592.73
194.04	2949.08
194.26	2703.32
194.48	2523.10
194.70	2488.28
194.92	2600.92
195.14	2787.29
195.36	2414.56
195.58	2617.30
195.80	2652.12
196.02	2568.15
196.24	2435.03
196.46	2594.78
196.69	2695.13
196.91	3035.09
197.13	2519.00
197.35	2576.34
197.57	2953.17
197.79	2861.01
198.01	2621.40
198.23	2486.23
198.45	2783.19
198.67	2588.63
198.89	2418.65
199.11	2648.02
199.33	2609.11
199.55	2408.41
199.77	2475.99
199.99	2641.88
200.21	2697.17
200.43	2803.67
200.65	2459.61
200.87	2367.45
201.09	2668.50
201.31	2715.61
201.53	2541.53
201.75	2557.91
201.97	2715.61
202.19	2770.90
202.41	2588.63
202.63	2568.15
202.85	2803.67
203.07	2752.47
203.29	2600.92
203.51	2445.27
203.73	2619.35
203.95	3180.50
204.17	2514.91
204.39	2602.97
204.61	2699.22
204.83	2598.87
205.05	2721.75
205.27	2529.24
205.49	3039.19
205.71	2750.42
205.93	2418.65
206.15	2420.70
206.37	2656.22
206.59	2631.64
206.81	2398.17
207.03	2432.99
207.25	2547.67
207.47	2799.57
207.69	2469.85
207.91	2719.70
208.13	2908.12
208.34	2572.25
208.56	2439.13
208.78	2496.47
209.00	2664.41
209.22	2709.46
209.44	2539.48
209.66	2443.23
209.88	2742.23
210.10	2662.36
210.32	2496.47
210.54	2596.82
210.76	2680.79
210.98	2787.29
211.20	2424.80
211.42	2643.93
211.64	2940.88
211.86	2813.91
212.08	2529.24
212.30	2506.71
212.52	2652.12
212.74	2740.18
212.96	2572.25
213.17	2529.24
213.39	2822.10
213.61	2977.75
213.83	2514.91
214.05	2424.80
214.27	2877.40
214.49	2545.63
214.71	2420.70
214.93	2645.98
215.15	2748.37
215.37	2791.38
215.59	2412.51
215.81	2598.87
216.03	2881.49
216.24	2760.66
216.46	2547.67
216.68	2617.30
216.90	2824.15
217.12	2822.10
217.34	2453.47
217.56	2682.84
217.78	2944.98
218.00	2803.67
218.22	2652.12
218.44	2590.68
218.66	2750.42
218.87	3057.62
219.09	2514.91
219.31	2564.06
219.53	2727.89
219.75	2709.46
219.97	2564.06
220.19	2531.29
220.41	2648.02
220.63	3026.90
220.85	2535.39
221.06	2508.76
221.28	2940.88
221.50	2865.11
221.72	2555.86
221.94	2459.61
222.16	2772.95
222.38	2785.24
222.60	2408.41
222.82	2592.73
223.03	2883.54
223.25	2539.48
223.47	2451.42
223.69	2707.41
223.91	2758.61
224.13	2701.27
224.35	2463.71
224.57	2709.46
224.78	2840.53
225.00	2633.69
225.22	2607.06
225.44	2463.71
225.66	2793.43
225.88	2666.46
226.10	2594.78
226.32	2484.19
226.53	3030.99
226.75	2697.17
226.97	2576.34
227.19	2529.24
227.41	2643.93
227.63	2600.92
227.85	2359.26
228.06	2615.26
228.28	2723.80
228.50	2940.88
228.72	2406.36
228.94	2516.95
229.16	2402.27
229.37	2469.85
229.59	2426.84
229.81	2725.85
230.03	2639.83
230.25	2555.86
230.47	2334.68
230.69	2514.91
230.90	2869.20
231.12	2598.87
231.34	2578.39
231.56	2566.10
231.78	2576.34
232.00	2736.09
232.21	2553.82
232.43	2492.38
232.65	2408.41
232.87	2738.13
233.09	2392.03
233.30	2441.18
233.52	2842.58
233.74	2680.79
233.96	2441.18
234.18	2582.49
234.40	2627.54
234.61	3022.80
234.83	2416.60
235.05	2424.80
235.27	3108.82
235.49	2926.55
235.70	2439.13
235.92	2617.30
236.14	2805.72
236.36	3033.04
236.58	2441.18
236.79	2545.63
237.01	2697.17
237.23	2805.72
237.45	2711.51
237.67	2465.75
237.88	2768.85
238.10	3076.05
238.32	2453.47
238.54	2486.23
238.76	2684.89
238.97	2592.73
239.19	2412.51
239.41	2623.45
239.63	2875.35
239.85	2580.44
240.06	2572.25
240.28	2463.71
240.50	2926.55
240.72	2772.95
240.93	2494.43
241.15	2637.78
241.37	2717.65
241.59	2920.40
241.81	2473.95
242.02	2625.50
242.24	2813.91
242.46	2813.91
242.68	2332.64
242.89	2523.10
243.11	2895.83
243.33	2703.32
243.55	2539.48
243.76	2551.77
243.98	2654.17
244.20	2678.74
244.42	2576.34
244.64	2590.68
244.85	2543.58
245.07	2502.62
245.29	2541.53
245.51	2566.10
245.72	2736.09
245.94	2881.49
246.16	2541.53
246.38	2523.10
246.59	2629.59
246.81	2662.36
247.03	2510.81
247.24	2346.97
247.46	2744.28
247.68	2723.80
247.90	2424.80
248.11	2420.70
248.33	2865.11
248.55	2693.08
248.77	2529.24
248.98	2625.50
249.20	2963.41
249.42	2750.42
249.64	2615.26
249.85	2551.77
250.07	2625.50
250.29	2822.10
250.50	2654.17
250.72	2379.74
250.94	2723.80
251.16	3059.67
251.37	2516.95
251.59	2635.74
251.81	2863.06
252.02	2947.03
252.24	2387.93
252.46	2641.88
252.68	2557.91
252.89	2621.40
253.11	2377.69
253.33	2697.17
253.54	2953.17
253.76	2508.76
253.98	2504.67
254.20	2500.57
254.41	2609.11
254.63	2627.54
254.85	2383.84
255.06	2580.44
255.28	2764.76
255.50	2719.70
255.71	2432.99
255.93	2422.75
256.15	2699.22
256.36	2807.77
256.58	2473.95
256.80	2510.81
257.02	2785.24
257.23	2695.13
257.45	2492.38
257.67	2592.73
257.88	2652.12
258.10	2869.20
258.32	2498.52
258.53	2627.54
258.75	2979.79
258.97	2623.45
259.18	2494.43
259.40	2478.04
259.62	2918.36
259.83	2904.02
260.05	2586.58
260.27	3096.53
260.48	2858.96
260.70	2592.73
260.92	2435.03
261.13	2504.67
261.35	2809.81
261.57	2832.34
261.78	2396.12
262.00	2428.89
262.22	2826.20
262.43	2637.78
262.65	2510.81
262.86	2514.91
263.08	3039.19
263.30	2779.09
263.51	2447.32
263.73	2496.47
263.95	2879.44
264.16	2602.97
264.38	2406.36
264.60	2426.84
264.81	2707.41
265.03	2873.30
265.25	2750.42
265.46	2500.57
265.68	2883.54
265.89	2873.30
266.11	2422.75
266.33	2492.38
266.54	2842.58
266.76	2807.77
266.98	2566.10
267.19	2713.56
267.41	2959.31
267.62	2631.64
267.84	2340.83
268.06	2549.72
268.27	2752.47
268.49	2957.27
268.70	2613.21
268.92	2486.23
269.14	2602.97
269.35	2494.43
269.57	2553.82
269.79	2555.86
270.00	2535.39
270.22	2994.13
270.43	2441.18
270.65	2465.75
270.87	2770.90
271.08	2820.05
271.30	2570.20
271.51	2539.48
271.73	2834.39
271.95	2934.74
272.16	2506.71
272.38	2590.68
272.59	2619.35
272.81	2834.39
273.02	2443.23
273.24	2600.92
273.46	2824.15
273.67	2498.52
273.89	2465.75
274.10	2486.23
274.32	2869.20
274.54	2750.42
274.75	2668.50
274.97	2428.89
275.18	2818.00
275.40	2813.91
275.61	2516.95
275.83	2652.12
276.05	2539.48
276.26	2719.70
276.48	2570.20
276.69	2588.63
276.91	2643.93
277.12	2961.36
277.34	2711.51
277.55	2727.89
277.77	2768.85
277.99	2662.36
278.20	2559.96
278.42	2506.71
278.63	2586.58
278.85	2531.29
279.06	2500.57
279.28	2629.59
279.49	2856.92
279.71	2844.63
279.93	2723.80
280.14	2619.35
280.36	2570.20
280.57	2895.83
280.79	2725.85
281.00	2590.68
281.22	2609.11
281.43	2826.20
281.65	2381.79
281.86	2576.34
282.08	2797.53
282.29	2961.36
282.51	2449.37
282.73	2488.28
282.94	2504.67
283.16	2799.57
283.37	2707.41
283.59	2600.92
283.80	2781.14
284.02	2770.90
284.23	2668.50
284.45	2547.67
284.66	2562.01
284.88	2549.72
285.09	2557.91
285.31	2729.94
285.52	2779.09
285.74	2494.43
285.95	2775.00
286.17	2697.17
286.38	2908.12
286.60	2639.83
286.81	2543.58
287.03	2596.82
287.24	2709.46
287.46	2809.81
287.67	2693.08
287.89	2836.44
288.10	2691.03
288.32	2693.08
288.53	2779.09
288.75	2629.59
288.96	2856.92
289.18	2615.26
289.39	2617.30
289.61	2662.36
289.82	3020.75
290.04	2985.94
290.25	2531.29
290.47	2658.26
290.68	2625.50
290.90	2832.34
291.11	2465.75
291.33	2605.02
291.54	2592.73
291.76	2731.99
291.97	2705.37
292.18	2613.21
292.40	2688.98
292.61	2543.58
292.83	2818.00
293.04	2623.45
293.26	2682.84
293.47	2731.99
293.69	2541.53
293.90	2553.82
294.12	2910.16
294.33	2781.14
294.55	2539.48
294.76	2688.98
294.97	2848.72
295.19	3049.43
295.40	2674.65
295.62	2635.74
295.83	2889.68
296.05	2631.64
296.26	2775.00
296.48	2600.92
296.69	2746.33
296.90	2715.61
297.12	2713.56
297.33	2725.85
297.55	2666.46
297.76	2828.24
297.98	2666.46
298.19	2740.18
298.41	2621.40
298.62	2617.30
298.83	2744.28
299.05	2680.79
299.26	2596.82
299.48	2654.17
299.69	2691.03
299.90	2598.87
300.12	2590.68
300.33	2852.82
300.55	2600.92
300.76	2691.03
300.98	2596.82
301.19	2875.35
301.40	2600.92
301.62	2582.49
301.83	2768.85
302.05	2695.13
302.26	2594.78
302.47	2656.22
302.69	2519.00
302.90	2740.18
303.12	2398.17
303.33	2711.51
303.54	2992.08
303.76	2633.69
303.97	2615.26
304.19	2779.09
304.40	2590.68
304.61	2818.00
304.83	2703.32
305.04	2705.37
305.26	2881.49
305.47	2654.17
305.68	2545.63
305.90	2482.14
306.11	2897.88
306.33	2635.74
306.54	2547.67
306.75	2615.26
306.97	2469.85
307.18	2578.39
307.39	2584.54
307.61	2699.22
307.82	2666.46
308.04	2789.33
308.25	2496.47
308.46	2660.31
308.68	2693.08
308.89	2764.76
309.10	2731.99
309.32	2707.41
309.53	2715.61
309.74	2785.24
309.96	2613.21
310.17	2742.23
310.39	2662.36
310.60	2787.29
310.81	2678.74
311.03	2461.66
311.24	2826.20
311.45	2713.56
311.67	2856.92
311.88	2660.31
312.09	2666.46
312.31	2635.74
312.52	2533.34
312.73	2547.67
312.95	2570.20
313.16	2639.83
313.37	2746.33
313.59	2838.48
313.80	2842.58
314.01	2971.60
314.23	2578.39
314.44	2566.10
314.65	2484.19
314.87	2625.50
315.08	2508.76
315.29	2572.25
315.51	2617.30
315.72	2525.15
315.93	2699.22
316.15	2617.30
316.36	2645.98
316.57	2693.08
316.79	2688.98
317.00	2613.21
317.21	2846.68
317.43	2668.50
317.64	2645.98
317.85	2582.49
318.07	2521.05
318.28	2645.98
318.49	2813.91
318.70	2875.35
318.92	2815.96
319.13	2797.53
319.34	2824.15
319.56	2633.69
319.77	2824.15
319.98	2738.13
320.20	2736.09
320.41	2682.84
320.62	2805.72
320.83	2537.43
321.05	2805.72
321.26	2609.11
321.47	2688.98
321.69	2856.92
321.90	2504.67
322.11	2584.54
322.32	2752.47
322.54	2942.93
322.75	2609.11
322.96	3225.55
323.18	2543.58
323.39	2432.99
323.60	2471.90
323.81	2648.02
324.03	2611.16
324.24	2623.45
324.45	2676.70
324.66	2586.58
324.88	2981.84
325.09	3026.90
325.30	2570.20
325.52	2559.96
325.73	2768.85
325.94	2633.69
326.15	2490.33
326.37	2529.24
326.58	2897.88
326.79	2944.98
327.00	2531.29
327.22	2693.08
327.43	2643.93
327.64	2613.21
327.85	2660.31
328.07	2568.15
328.28	3002.32
328.49	2699.22
328.70	2602.97
328.92	2633.69
329.13	2736.09
329.34	2799.57
329.55	2770.90
329.76	2699.22
329.98	2645.98
330.19	2912.21
330.40	2719.70
330.61	2656.22
330.83	2842.58
331.04	2562.01
331.25	2709.46
331.46	2545.63
331.68	2559.96
331.89	2850.77
332.10	2648.02
332.31	2451.42
332.52	2711.51
332.74	2881.49
332.95	2498.52
333.16	2631.64
333.37	2785.24
333.58	2686.94
333.80	2660.31
334.01	2486.23
334.22	2662.36
334.43	2703.32
334.64	2547.67
334.86	2473.95
335.07	2654.17
335.28	2908.12
335.49	2529.24
335.70	2676.70
335.92	2893.78
336.13	3102.67
336.34	2695.13
336.55	2615.26
336.76	2775.00
336.98	2478.04
337.19	2584.54
337.40	2680.79
337.61	3082.19
337.82	2762.71
338.04	2668.50
338.25	2514.91
338.46	2738.13
338.67	2715.61
338.88	2498.52
339.09	2521.05
339.31	2613.21
339.52	2525.15
339.73	2535.39
339.94	2717.65
340.15	2914.26
340.36	2680.79
340.58	2637.78
340.79	2514.91
341.00	2764.76
341.21	2519.00
341.42	2787.29
341.63	2555.86
341.85	2779.09
342.06	2815.96
342.27	2545.63
342.48	2750.42
342.69	2494.43
342.90	2805.72
343.12	2770.90
343.33	2568.15
343.54	2861.01
343.75	2949.08
343.96	2643.93
344.17	2484.19
344.38	2693.08
344.60	2705.37
344.81	2521.05
345.02	2635.74
345.23	2924.50
345.44	3119.06
345.65	2684.89
345.86	2703.32
346.07	2744.28
346.29	2582.49
346.50	2697.17
346.71	2605.02
346.92	2912.21
347.13	3018.71
347.34	2660.31
347.55	2570.20
347.76	2740.18
347.98	2531.29
348.19	2627.54
348.40	2809.81
348.61	2672.60
348.82	2973.65
349.03	2709.46
349.24	2578.39
349.45	2961.36
349.66	2549.72
349.88	2619.35
350.09	2506.71
350.30	2844.63
350.51	2938.84
350.72	2768.85
350.93	2672.60
351.14	2621.40
351.35	2719.70
351.56	2592.73
351.77	2637.78
351.99	2717.65
352.20	2967.51
352.41	2736.09
352.62	2457.56
352.83	2668.50
353.04	2670.55
353.25	2562.01
353.46	2711.51
353.67	2842.58
353.88	2435.03
354.09	2615.26
354.30	2656.22
354.52	2891.73
354.73	2752.47
354.94	2580.44
355.15	2652.12
355.36	2965.46
355.57	2641.88
355.78	2650.07
355.99	2504.67
356.20	2699.22
356.41	2928.60
356.62	2617.30
356.83	2633.69
357.04	2908.12
357.25	2555.86
357.46	2553.82
357.68	2475.99
357.89	2609.11
358.10	2723.80
358.31	2666.46
358.52	2631.64
358.73	2539.48
358.94	2533.34
359.15	2580.44
359.36	2641.88
359.57	2727.89
359.78	2660.31
359.99	2850.77
360.20	2562.01
360.41	2662.36
360.62	2766.81
360.83	2674.65
361.04	2672.60
361.25	2832.34
361.46	2967.51
361.67	2678.74
361.88	2654.17
362.09	2781.14
362.30	2725.85
362.51	2633.69
362.72	2633.69
362.93	2725.85
363.14	2809.81
363.35	2693.08
363.56	2529.24
363.78	2949.08
363.99	2838.48
364.20	2631.64
364.41	2697.17
364.62	3024.85
364.83	2719.70
365.04	2613.21
365.25	2660.31
365.46	3086.29
365.67	2629.59
365.88	2775.00
366.09	2582.49
366.30	2625.50
366.51	2709.46
366.72	2471.90
366.93	2695.13
367.14	2736.09
367.35	2885.59
367.56	2586.58
367.77	2678.74
367.98	2670.55
368.18	2756.57
368.39	2662.36
368.60	2617.30
368.81	2777.05
369.02	2742.23
369.23	2637.78
369.44	2527.19
369.65	2666.46
369.86	2789.33
370.07	2674.65
370.28	2537.43
370.49	2791.38
370.70	2758.61
370.91	2531.29
371.12	2531.29
371.33	2783.19
371.54	2619.35
371.75	2791.38
371.96	2445.27
372.17	2727.89
372.38	2674.65
372.59	2660.31
372.80	2586.58
373.01	2682.84
373.22	2791.38
373.43	2557.91
373.64	2471.90
373.85	2834.39
374.06	2871.25
374.26	2748.37
374.47	2701.27
374.68	2944.98
374.89	2789.33
375.10	2580.44
375.31	2777.05
375.52	2715.61
375.73	2701.27
375.94	2441.18
376.15	2746.33
376.36	2654.17
376.57	2650.07
376.78	2611.16
376.99	2691.03
377.20	2897.88
377.40	2645.98
377.61	2770.90
377.82	2654.17
378.03	2912.21
378.24	2824.15
378.45	2705.37
378.66	2760.66
378.87	2516.95
379.08	2461.66
379.29	2529.24
379.50	2805.72
379.71	2701.27
379.91	2785.24
380.12	2678.74
380.33	2678.74
380.54	2758.61
380.75	2678.74
380.96	2480.09
381.17	2672.60
381.38	2721.75
381.59	2752.47
381.80	2639.83
382.00	2799.57
382.21	2785.24
382.42	2947.03
382.63	2904.02
382.84	2691.03
383.05	2848.72
383.26	2967.51
383.47	2752.47
383.68	2602.97
383.88	2807.77
384.09	2629.59
384.30	2842.58
384.51	2723.80
384.72	2654.17
384.93	2545.63
385.14	2633.69
385.35	2809.81
385.55	2596.82
385.76	2887.64
385.97	2713.56
386.18	2461.66
386.39	2617.30
386.60	2549.72
386.81	2537.43
387.02	2559.96
387.22	2525.15
387.43	2828.24
387.64	2645.98
387.85	2783.19
388.06	2836.44
388.27	4014.02
388.48	7569.29
388.68	11106.13
388.89	13524.79
389.10	14528.29
389.31	13920.04
389.52	10954.58
389.73	9467.76
389.93	8626.04
390.14	7878.54
390.35	7147.41
390.56	6426.53
390.77	5375.92
390.98	4120.51
391.18	3450.83
391.39	3172.30
391.60	2852.82
391.81	2826.20
392.02	2582.49
392.23	3110.86
392.43	2768.85
392.64	2711.51
392.85	2762.71
393.06	2944.98
393.27	2648.02
393.47	2645.98
393.68	2553.82
393.89	2676.70
394.10	2871.25
394.31	2598.87
394.52	2586.58
394.72	2580.44
394.93	3010.51
395.14	2490.33
395.35	2674.65
395.56	2691.03
395.76	2670.55
395.97	2633.69
396.18	2858.96
396.39	2799.57
396.60	3297.23
396.80	2951.12
397.01	2748.37
397.22	2785.24
397.43	2934.74
397.64	2602.97
397.84	2727.89
398.05	2932.69
398.26	2703.32
398.47	2691.03
398.67	2906.07
398.88	2736.09
399.09	2836.44
399.30	2592.73
399.51	2744.28
399.71	2590.68
399.92	2783.19
400.13	2719.70
400.34	2654.17
400.54	2772.95
400.75	2990.03
400.96	2623.45
401.17	2908.12
401.37	2731.99
401.58	2656.22
401.79	2576.34
402.00	2785.24
402.21	3176.40
402.41	2959.31
402.62	2899.92
402.83	3026.90
403.04	3065.81
403.24	3317.71
403.45	2736.09
403.66	2846.68
403.87	2871.25
404.07	3000.27
404.28	2889.68
404.49	2893.78
404.70	2809.81
404.90	2787.29
405.11	2576.34
405.32	2736.09
405.52	2693.08
405.73	2744.28
405.94	2545.63
406.15	2602.97
406.35	2768.85
406.56	2869.20
406.77	2789.33
406.98	2619.35
407.18	2611.16
407.39	2965.46
407.60	2590.68
407.80	2754.52
408.01	2713.56
408.22	2834.39
408.43	2490.33
408.63	2682.84
408.84	2938.84
409.05	2838.48
409.25	2512.86
409.46	2600.92
409.67	2578.39
409.88	2602.97
410.08	2693.08
410.29	2617.30
410.50	2858.96
410.70	2891.73
410.91	2588.63
411.12	2625.50
411.32	2791.38
411.53	2578.39
411.74	2676.70
411.95	2740.18
412.15	2717.65
412.36	2791.38
412.57	2793.43
412.77	2738.13
412.98	2758.61
413.19	2680.79
413.39	2684.89
413.60	2717.65
413.81	2985.94
414.01	2564.06
414.22	2709.46
414.43	2742.23
414.63	2635.74
414.84	2942.93
415.05	2645.98
415.25	2527.19
415.46	2793.43
415.67	2670.55
415.87	2756.57
416.08	2625.50
416.29	2605.02
416.49	2846.68
416.70	2559.96
416.91	2578.39
417.11	2684.89
417.32	2947.03
417.53	2760.66
417.73	2680.79
417.94	2676.70
418.15	2746.33
418.35	2711.51
418.56	2682.84
418.77	3049.43
418.97	2803.67
419.18	2725.85
419.38	2351.07
419.59	2652.12
419.80	3035.09
420.00	2543.58
420.21	2668.50
420.42	2867.16
420.62	2830.29
420.83	2586.58
421.04	2664.41
421.24	2826.20
421.45	2832.34
421.65	2678.74
421.86	2670.55
422.07	2818.00
422.27	2793.43
422.48	2713.56
422.69	2539.48
422.89	2650.07
423.10	2670.55
423.30	2617.30
423.51	2664.41
423.72	2795.48
423.92	2877.40
424.13	2572.25
424.33	2637.78
424.54	2818.00
424.75	2760.66
424.95	2826.20
425.16	2678.74
425.36	2719.70
425.57	2926.55
425.78	2764.76
425.98	2752.47
426.19	2719.70
426.39	2645.98
426.60	2734.04
426.81	2772.95
427.01	2750.42
427.22	2568.15
427.42	2473.95
427.63	2572.25
427.83	2971.60
428.04	2955.22
428.25	2795.48
428.45	2699.22
428.66	2932.69
428.86	2664.41
429.07	2670.55
429.28	2719.70
429.48	2699.22
429.69	2656.22
429.89	2744.28
430.10	2441.18
430.30	2865.11
430.51	2830.29
430.71	2607.06
430.92	2682.84
431.13	2643.93
431.33	2846.68
431.54	2705.37
431.74	2822.10
431.95	3051.47
432.15	2566.10
432.36	2658.26
432.56	2723.80
432.77	3039.19
432.98	2979.79
433.18	2701.27
433.39	2639.83
433.59	2641.88
433.80	3086.29
434.00	2861.01
434.21	2613.21
434.41	2668.50
434.62	2975.70
434.82	2549.72
435.03	2580.44
435.23	2830.29
435.44	2480.09
435.64	2590.68
435.85	2668.50
436.06	2852.82
436.26	2822.10
436.47	2611.16
436.67	2588.63
436.88	2777.05
437.08	2942.93
437.29	2777.05
437.49	2742.23
437.70	2904.02
437.90	2629.59
438.11	2887.64
438.31	2684.89
438.52	2932.69
438.72	2908.12
438.93	2889.68
439.13	2629.59
439.34	2875.35
439.54	2658.26
439.75	2727.89
439.95	2676.70
440.16	2656.22
440.36	2643.93
440.57	2695.13
440.77	2641.88
440.98	2707.41
441.18	2791.38
441.39	2555.86
441.59	2537.43
441.80	3076.05
442.00	2709.46
442.21	2715.61
442.41	2568.15
442.62	2953.17
442.82	2715.61
443.02	2711.51
443.23	2643.93
443.43	2693.08
443.64	2906.07
443.84	2572.25
444.05	2842.58
444.25	2719.70
444.46	2695.13
444.66	2592.73
444.87	2883.54
445.07	2492.38
445.28	2648.02
445.48	2850.77
445.69	2764.76
445.89	3096.53
446.09	2707.41
446.30	2979.79
446.50	3137.49
446.71	4636.60
446.91	5760.94
447.12	6387.61
447.32	6864.79
447.53	6598.56
447.73	5470.12
447.93	4847.54
448.14	4515.77
448.34	4554.68
448.55	3989.44
448.75	3909.57
448.96	3631.05
449.16	3395.53
449.36	3297.23
449.57	2899.92
449.77	2740.18
449.98	2611.16
450.18	2918.36
450.39	2648.02
450.59	2828.24
450.79	2752.47
451.00	2623.45
451.20	2770.90
451.41	2713.56
451.61	2783.19
451.81	2715.61
452.02	2613.21
452.22	2705.37
452.43	2709.46
452.63	2568.15
452.84	2678.74
453.04	2543.58
453.24	2873.30
453.45	2678.74
453.65	2688.98
453.86	2674.65
454.06	2740.18
454.26	2750.42
454.47	2580.44
454.67	2838.48
454.87	2826.20
455.08	2684.89
455.28	2815.96
455.49	2742.23
455.69	2600.92
455.89	3100.62
456.10	2744.28
456.30	2691.03
456.51	2897.88
456.71	2711.51
456.91	2740.18
457.12	2666.46
457.32	2742.23
457.52	2562.01
457.73	2842.58
457.93	2744.28
458.14	2738.13
458.34	2510.81
458.54	2678.74
458.75	2621.40
458.95	2987.99
459.15	2734.04
459.36	2725.85
459.56	2695.13
459.76	3084.24
459.97	2723.80
460.17	2652.12
460.37	2699.22
460.58	2672.60
460.78	2752.47
460.99	2623.45
461.19	2666.46
461.39	2645.98
461.60	2697.17
461.80	2678.74
462.00	2588.63
462.21	2797.53
462.41	2605.02
462.61	2578.39
462.82	2441.18
463.02	2826.20
463.22	2639.83
463.43	2662.36
463.63	2668.50
463.83	2883.54
464.04	2832.34
464.24	2588.63
464.44	2639.83
464.64	2731.99
464.85	2801.62
465.05	2750.42
465.25	2631.64
465.46	2678.74
465.66	2824.15
465.86	2713.56
466.07	2686.94
466.27	2744.28
466.47	2494.43
466.68	2478.04
466.88	2863.06
467.08	2875.35
467.29	2899.92
467.49	2654.17
467.69	2697.17
467.89	2793.43
468.10	2760.66
468.30	2672.60
468.50	2756.57
468.71	2918.36
468.91	2478.04
469.11	2844.63
469.31	2664.41
469.52	2703.32
469.72	2926.55
469.92	2848.72
470.13	2650.07
470.33	2727.89
470.53	2764.76
470.73	2963.41
470.94	3207.12
471.14	3448.78
471.34	3768.26
471.54	3811.27
471.75	3276.75
471.95	3090.38
472.15	3043.28
472.36	3010.51
472.56	2951.12
472.76	3147.73
472.96	3086.29
473.17	2981.84
473.37	2842.58
473.57	2633.69
473.77	2850.77
473.98	2695.13
474.18	2553.82
474.38	3200.98
474.58	2799.57
474.79	2588.63
474.99	2785.24
475.19	2934.74
475.39	2557.91
475.60	2703.32
475.80	2719.70
476.00	2762.71
476.20	2736.09
476.41	2725.85
476.61	2750.42
476.81	2961.36
477.01	2625.50
477.21	2899.92
477.42	2836.44
477.62	2617.30
477.82	2791.38
478.02	2588.63
478.23	2688.98
478.43	2588.63
478.63	2680.79
478.83	2740.18
479.03	2688.98
479.24	2963.41
479.44	3045.33
479.64	2480.09
479.84	2441.18
480.04	2559.96
480.25	2838.48
480.45	2594.78
480.65	2631.64
480.85	2953.17
481.06	2652.12
481.26	2686.94
481.46	2656.22
481.66	2799.57
481.86	2615.26
482.06	2813.91
482.27	2648.02
482.47	2748.37
482.67	2779.09
482.87	2660.31
483.07	2744.28
483.28	2641.88
483.48	2547.67
483.68	2721.75
483.88	2537.43
484.08	2441.18
484.29	2578.39
484.49	2768.85
484.69	2527.19
484.89	2820.05
485.09	2818.00
485.29	2703.32
485.50	2752.47
485.70	2695.13
485.90	2975.70
486.10	2723.80
486.30	2695.13
486.50	2863.06
486.71	2783.19
486.91	2770.90
487.11	2777.05
487.31	2611.16
487.51	2858.96
487.71	2680.79
487.91	2582.49
488.12	2631.64
488.32	2432.99
488.52	2605.02
488.72	2441.18
488.92	2731.99
489.12	2912.21
489.32	2809.81
489.53	2721.75
489.73	2469.85
489.93	2951.12
490.13	2625.50
490.33	2469.85
490.53	2824.15
490.73	2822.10
490.94	2482.14
491.14	2813.91
491.34	2836.44
491.54	2967.51
491.74	3540.94
491.94	4044.74
492.14	4452.28
492.34	4462.52
492.54	4118.47
492.75	3620.81
492.95	3545.03
493.15	3411.92
493.35	3340.24
493.55	3233.74
493.75	3039.19
493.95	3170.26
494.15	2955.22
494.35	2670.55
494.56	2684.89
494.76	2639.83
494.96	2709.46
495.16	2693.08
495.36	2768.85
495.56	2678.74
495.76	2695.13
495.96	2760.66
496.16	2633.69
496.36	2969.55
496.56	2572.25
496.77	2762.71
496.97	2670.55
497.17	2889.68
497.37	2508.76
497.57	2789.33
497.77	2795.48
497.97	2590.68
498.17	2674.65
498.37	2682.84
498.57	2854.87
498.77	2676.70
498.97	2775.00
499.17	2889.68
499.38	2607.06
499.58	2803.67
499.78	2842.58
499.98	2832.34
500.18	2693.08
500.38	2586.58
500.58	2834.39
500.78	3170.26
500.98	5498.80
501.18	7245.71
501.38	8734.59
501.58	9584.49
501.78	9492.34
501.98	7696.27
502.18	6477.73
502.38	5582.76
502.58	5398.45
502.78	4779.96
502.98	4716.47
503.18	4427.71
503.38	4124.61
503.59	3504.07
503.79	3559.37
503.99	3252.17
504.19	3037.14
504.39	3166.16
504.59	3106.77
504.79	3018.71
504.99	3211.22
505.19	2914.26
505.39	2807.77
505.59	3030.99
505.79	3028.95
505.99	2904.02
506.19	2676.70
506.39	2922.45
506.59	2711.51
506.79	2656.22
506.99	2858.96
507.19	2707.41
507.39	2693.08
507.59	2510.81
507.79	2566.10
507.99	2611.16
508.19	2703.32
508.39	2666.46
508.59	2701.27
508.79	2799.57
508.99	3002.32
509.19	2643.93
509.39	2721.75
509.59	2584.54
509.79	2635.74
509.99	2791.38
510.19	2740.18
510.39	2707.41
510.59	2686.94
510.79	2652.12
510.99	2523.10
511.19	2641.88
511.39	3039.19
511.59	2914.26
511.79	2809.81
511.99	2609.11
512.19	3035.09
512.38	2736.09
512.58	2596.82
512.78	2609.11
512.98	2930.64
513.18	2961.36
513.38	2551.77
513.58	2785.24
513.78	2596.82
513.98	2740.18
514.18	2725.85
514.38	2645.98
514.58	2815.96
514.78	2643.93
514.98	2545.63
515.18	2697.17
515.38	2473.95
515.58	2979.79
515.78	2645.98
515.98	2705.37
516.18	2830.29
516.38	2768.85
516.57	2664.41
516.77	2572.25
516.97	2752.47
517.17	2619.35
517.37	2408.41
517.57	2719.70
517.77	2707.41
517.97	2555.86
518.17	2785.24
518.37	2523.10
518.57	2631.64
518.77	2717.65
518.97	2664.41
519.16	2686.94
519.36	2920.40
519.56	2666.46
519.76	2629.59
519.96	2643.93
520.16	2957.27
520.36	2623.45
520.56	2809.81
520.76	2613.21
520.96	2666.46
521.16	2875.35
521.35	2768.85
521.55	2791.38
521.75	2762.71
521.95	2619.35
522.15	2611.16
522.35	2555.86
522.55	2582.49
522.75	2887.64
522.95	2559.96
523.14	2527.19
523.34	2766.81
523.54	2592.73
523.74	2766.81
523.94	2629.59
524.14	2572.25
524.34	2695.13
524.54	2846.68
524.73	2598.87
524.93	2801.62
525.13	2684.89
525.33	2461.66
525.53	2858.96
525.73	2861.01
525.93	2779.09
526.13	2678.74
526.32	2668.50
526.52	2920.40
526.72	2848.72
526.92	2584.54
527.12	2566.10
527.32	2547.67
527.52	2795.48
527.71	2693.08
527.91	2613.21
528.11	2723.80
528.31	2715.61
528.51	2605.02
528.71	2764.76
528.90	2811.86
529.10	2891.73
529.30	2781.14
529.50	2371.55
529.70	2721.75
529.90	2707.41
530.09	2631.64
530.29	2537.43
530.49	2596.82
530.69	3119.06
530.89	2719.70
531.09	2779.09
531.28	2678.74
531.48	2824.15
531.68	2662.36
531.88	2686.94
532.08	2863.06
532.28	2703.32
532.47	2863.06
532.67	2705.37
532.87	2844.63
533.07	2617.30
533.27	2736.09
533.46	2682.84
533.66	2826.20
533.86	2674.65
534.06	2678.74
534.26	2633.69
534.45	2691.03
534.65	2822.10
534.85	2744.28
535.05	2570.20
535.25	2965.46
535.44	2566.10
535.64	2711.51
535.84	2672.60
536.04	2717.65
536.24	2686.94
536.43	2594.78
536.63	2672.60
536.83	2793.43
537.03	2686.94
537.22	2467.80
537.42	2527.19
537.62	2818.00
537.82	2629.59
538.02	2818.00
538.21	2789.33
538.41	3153.87
538.61	2811.86
538.81	2658.26
539.00	2756.57
539.20	2490.33
539.40	2643.93
539.60	2662.36
539.79	2744.28
539.99	2662.36
540.19	2590.68
540.39	2654.17
540.58	2699.22
540.78	2848.72
540.98	2748.37
541.18	2713.56
541.37	2674.65
541.57	2828.24
541.77	2766.81
541.97	2637.78
542.16	2510.81
542.36	2734.04
542.56	2662.36
542.76	2877.40
542.95	2783.19
543.15	2832.34
543.35	2717.65
543.54	2547.67
543.74	2586.58
543.94	3012.56
544.14	2629.59
544.33	2805.72
544.53	2650.07
544.73	2652.12
544.93	2693.08
545.12	2643.93
545.32	2617.30
545.52	2703.32
545.71	2615.26
545.91	2596.82
546.11	2621.40
546.30	2625.50
546.50	2703.32
546.70	2713.56
546.90	2678.74
547.09	2467.80
547.29	2648.02
547.49	2779.09
547.68	2650.07
547.88	2645.98
548.08	2881.49
548.27	3071.95
548.47	2525.15
548.67	2635.74
548.87	2744.28
549.06	2662.36
549.26	2650.07
549.46	2793.43
549.65	2691.03
549.85	2617.30
550.05	2660.31
550.24	2529.24
550.44	2660.31
550.64	2678.74
550.83	2727.89
551.03	2887.64
551.23	2815.96
551.42	2744.28
551.62	2697.17
551.82	2760.66
552.01	2744.28
552.21	2754.52
552.41	2695.13
552.60	2858.96
552.80	2707.41
553.00	2551.77
553.19	2662.36
553.39	3004.37
553.59	2555.86
553.78	2762.71
553.98	2658.26
554.17	2531.29
554.37	2744.28
554.57	2752.47
554.76	2490.33
554.96	2631.64
555.16	2742.23
555.35	2768.85
555.55	2688.98
555.75	2848.72
555.94	2840.53
556.14	2547.67
556.33	2719.70
556.53	2760.66
556.73	2725.85
556.92	2674.65
557.12	2680.79
557.32	2953.17
557.51	2922.45
557.71	2744.28
557.90	2789.33
558.10	2809.81
558.30	2611.16
558.49	2650.07
558.69	2631.64
558.88	2785.24
559.08	2750.42
559.28	2619.35
559.47	2719.70
559.67	2772.95
559.86	3026.90
560.06	2723.80
560.26	2568.15
560.45	2820.05
560.65	2725.85
560.84	2818.00
561.04	2576.34
561.24	2850.77
561.43	2566.10
561.63	2875.35
561.82	2725.85
562.02	2824.15
562.22	2611.16
562.41	2504.67
562.61	2600.92
562.80	2588.63
563.00	3024.85
563.19	2740.18
563.39	2701.27
563.59	2779.09
563.78	2652.12
563.98	2332.64
564.17	2613.21
564.37	2582.49
564.56	2678.74
564.76	2605.02
564.96	2764.76
565.15	2820.05
565.35	3096.53
565.54	2705.37
565.74	2684.89
565.93	2844.63
566.13	2668.50
566.32	2631.64
566.52	2695.13
566.71	2797.53
566.91	2901.97
567.11	2818.00
567.30	2564.06
567.50	2785.24
567.69	2836.44
567.89	2586.58
568.08	2533.34
568.28	2834.39
568.47	2643.93
568.67	2729.94
568.86	2645.98
569.06	2867.16
569.25	2715.61
569.45	2580.44
569.64	2572.25
569.84	2731.99
570.04	2725.85
570.23	2691.03
570.43	2611.16
570.62	2731.99
570.82	2953.17
571.01	2523.10
571.21	2588.63
571.40	2576.34
571.60	2883.54
571.79	2744.28
571.99	2648.02
572.18	2648.02
572.38	2801.62
572.57	2707.41
572.77	2695.13
572.96	3004.37
573.16	2789.33
573.35	2645.98
573.55	2840.53
573.74	2844.63
573.94	2674.65
574.13	2609.11
574.33	2875.35
574.52	2961.36
574.71	2752.47
574.91	2746.33
575.10	2502.62
575.30	2668.50
575.49	2615.26
575.69	2637.78
575.88	2713.56
576.08	2791.38
576.27	2932.69
576.47	2629.59
576.66	2832.34
576.86	3008.47
577.05	2770.90
577.25	2846.68
577.44	2799.57
577.64	2623.45
577.83	2801.62
578.02	2656.22
578.22	2889.68
578.41	2992.08
578.61	2742.23
578.80	2582.49
579.00	2629.59
579.19	2740.18
579.39	2828.24
579.58	2684.89
579.77	2674.65
579.97	2990.03
580.16	2926.55
580.36	2865.11
580.55	2750.42
580.75	2832.34
580.94	2813.91
581.13	2797.53
581.33	2922.45
581.52	2625.50
581.72	3035.09
581.91	2770.90
582.11	2643.93
582.30	2936.79
582.49	2781.14
582.69	2922.45
582.88	2721.75
583.08	2797.53
583.27	2846.68
583.47	2686.94
583.66	2633.69
583.85	2592.73
584.05	2686.94
584.24	2740.18
584.44	2777.05
584.63	2863.06
584.82	2912.21
585.02	2824.15
585.21	2850.77
585.41	2813.91
585.60	2772.95
585.79	2990.03
585.99	3006.42
586.18	2779.09
586.37	3547.08
586.57	5400.49
586.76	15957.77
586.96	35460.58
587.15	48743.70
587.34	57107.61
587.54	61439.06
587.73	55577.78
587.93	39208.36
588.12	29783.61
588.31	23938.71
588.51	21282.49
588.70	19273.43
588.89	17313.53
589.09	14894.88
589.28	12646.21
589.47	9936.74
589.67	7548.81
589.86	5898.15
590.06	4556.73
590.25	3948.48
590.44	3401.68
590.64	3061.71
590.83	2990.03
591.02	2916.31
591.22	2670.55
591.41	2738.13
591.60	2691.03
591.80	3088.34
591.99	2510.81
592.18	2678.74
592.38	2914.26
592.57	2658.26
592.76	2697.17
592.96	2729.94
593.15	2729.94
593.34	2906.07
593.54	2598.87
593.73	2777.05
593.92	2861.01
594.12	2770.90
594.31	2736.09
594.50	2840.53
594.70	2793.43
594.89	3174.35
595.08	2494.43
595.28	2791.38
595.47	3162.06
595.66	2961.36
595.86	2592.73
596.05	2637.78
596.24	2676.70
596.43	3026.90
596.63	2834.39
596.82	2793.43
597.01	2801.62
597.21	2971.60
597.40	2691.03
597.59	2686.94
597.79	2580.44
597.98	2861.01
598.17	2666.46
598.36	2695.13
598.56	2936.79
598.75	2731.99
598.94	2686.94
599.14	2703.32
599.33	2750.42
599.52	2879.44
599.71	2797.53
599.91	2736.09
600.10	2803.67
600.29	2789.33
600.48	2709.46
600.68	2725.85
600.87	2697.17
601.06	2619.35
601.26	2672.60
601.45	2701.27
601.64	2736.09
601.83	2961.36
602.03	2613.21
602.22	2494.43
602.41	2858.96
602.60	3123.15
602.80	2734.04
602.99	2789.33
603.18	2625.50
603.37	2734.04
603.57	2705.37
603.76	2707.41
603.95	2928.60
604.14	2605.02
604.34	2629.59
604.53	2590.68
604.72	2785.24
604.91	2768.85
605.10	2783.19
605.30	2496.47
605.49	2990.03
605.68	2848.72
605.87	2731.99
606.07	2586.58
606.26	2758.61
606.45	2779.09
606.64	2688.98
606.84	2574.30
607.03	2744.28
607.22	2836.44
607.41	2662.36
607.60	2621.40
607.80	2912.21
607.99	2693.08
608.18	2731.99
608.37	2678.74
608.56	2633.69
608.76	2897.88
608.95	2791.38
609.14	2734.04
609.33	2926.55
609.52	2867.16
609.72	2752.47
609.91	2750.42
610.10	2805.72
610.29	2944.98
610.48	2791.38
610.68	2717.65
610.87	2662.36
611.06	2944.98
611.25	2711.51
611.44	2785.24
611.63	2650.07
611.83	2914.26
612.02	2545.63
612.21	2740.18
612.40	2539.48
612.59	2592.73
612.79	2572.25
612.98	2717.65
613.17	3006.42
613.36	2695.13
613.55	2867.16
613.74	2645.98
613.93	2701.27
614.13	2791.38
614.32	2861.01
614.51	2777.05
614.70	2783.19
614.89	2750.42
615.08	2785.24
615.28	3221.45
615.47	2633.69
615.66	2830.29
615.85	2719.70
616.04	2770.90
616.23	2721.75
616.42	2766.81
616.62	2717.65
616.81	2668.50
617.00	2756.57
617.19	2822.10
617.38	2643.93
617.57	2719.70
617.76	2725.85
617.95	2783.19
618.15	2764.76
618.34	2918.36
618.53	2521.05
618.72	2881.49
618.91	2832.34
619.10	2820.05
619.29	2756.57
619.48	2721.75
619.68	2551.77
619.87	2617.30
620.06	2537.43
620.25	2813.91
620.44	2623.45
620.63	2664.41
620.82	2742.23
621.01	2764.76
621.20	2729.94
621.39	2731.99
621.59	2824.15
621.78	2721.75
621.97	2725.85
622.16	2727.89
622.35	2785.24
622.54	2871.25
622.73	2734.04
622.92	2463.71
623.11	2932.69
623.30	2676.70
623.49	2783.19
623.68	2539.48
623.88	2895.83
624.07	2693.08
624.26	2703.32
624.45	2734.04
624.64	2629.59
624.83	2697.17
625.02	2656.22
625.21	2658.26
625.40	2783.19
625.59	2826.20
625.78	2654.17
625.97	2779.09
626.16	2914.26
626.35	2828.24
626.54	2729.94
626.74	2873.30
626.93	2650.07
627.12	2666.46
627.31	2768.85
627.50	2678.74
627.69	2983.89
627.88	2572.25
628.07	2609.11
628.26	2510.81
628.45	2600.92
628.64	2580.44
628.83	2709.46
629.02	2559.96
629.21	2799.57
629.40	2742.23
629.59	2525.15
629.78	2527.19
629.97	2752.47
630.16	2734.04
630.35	2627.54
630.54	2643.93
630.73	2678.74
630.92	2738.13
631.11	2633.69
631.30	2684.89
631.49	2787.29
631.68	2711.51
631.87	2688.98
632.06	2494.43
632.25	3063.76
632.44	2729.94
632.63	2721.75
632.82	2598.87
633.01	2678.74
633.20	2801.62
633.39	2629.59
633.58	2529.24
633.77	2766.81
633.96	2826.20
634.15	2760.66
634.34	2809.81
634.53	2736.09
634.72	2670.55
634.91	2547.67
635.10	2781.14
635.29	2949.08
635.48	2766.81
635.67	2586.58
635.86	2508.76
636.05	2883.54
636.24	2785.24
636.43	2699.22
636.62	2691.03
636.81	2432.99
637.00	2703.32
637.19	2686.94
637.38	2625.50
637.57	2705.37
637.76	2785.24
637.95	2838.48
638.14	2635.74
638.33	2832.34
638.52	2727.89
638.71	2586.58
638.89	2545.63
639.08	3188.69
639.27	2924.50
639.46	2899.92
639.65	3209.17
639.84	3088.34
640.03	3186.64
640.22	3024.85
640.41	3196.88
640.60	2858.96
640.79	2881.49
640.98	2754.52
641.17	2881.49
641.36	2899.92
641.55	2854.87
641.74	2598.87
641.92	2596.82
642.11	2641.88
642.30	2750.42
642.49	2541.53
642.68	2672.60
642.87	2768.85
643.06	2803.67
643.25	2527.19
643.44	2482.14
643.63	2697.17
643.82	2805.72
644.00	2516.95
644.19	2723.80
644.38	2633.69
644.57	2858.96
644.76	2719.70
644.95	2729.94
645.14	2803.67
645.33	2772.95
645.52	2674.65
645.71	2514.91
645.89	2527.19
646.08	2742.23
646.27	2691.03
646.46	2811.86
646.65	2457.56
646.84	2881.49
647.03	2539.48
647.22	2760.66
647.40	2703.32
647.59	2727.89
647.78	2494.43
647.97	2594.78
648.16	2547.67
648.35	2947.03
648.54	2836.44
648.73	2625.50
648.91	2775.00
649.10	2709.46
649.29	2615.26
649.48	2652.12
649.67	2760.66
649.86	2748.37
650.05	2711.51
650.23	2861.01
650.42	2719.70
650.61	2949.08
650.80	2809.81
650.99	2936.79
651.18	2840.53
651.36	2930.64
651.55	2637.78
651.74	2777.05
651.93	2707.41
652.12	2738.13
652.31	2725.85
652.49	2656.22
652.68	2676.70
652.87	2924.50
653.06	2650.07
653.25	2906.07
653.44	2680.79
653.62	3045.33
653.81	2643.93
654.00	2643.93
654.19	2838.48
654.38	3084.24
654.56	2727.89
654.75	2590.68
654.94	2777.05
655.13	2742.23
655.32	2625.50
655.51	2639.83
655.69	2670.55
655.88	2799.57
656.07	2525.15
656.26	2725.85
656.45	2508.76
656.63	2830.29
656.82	2668.50
657.01	2858.96
657.20	2602.97
657.38	2944.98
657.57	2715.61
657.76	2478.04
657.95	2811.86
658.14	2654.17
658.32	2650.07
658.51	2580.44
658.70	2805.72
658.89	2764.76
659.08	2684.89
659.26	2850.77
659.45	2582.49
659.64	2875.35
659.83	2639.83
660.01	3088.34
660.20	2770.90
660.39	2957.27
660.58	2443.23
660.76	2811.86
660.95	2480.09
661.14	2731.99
661.33	2523.10
661.51	2705.37
661.70	2686.94
661.89	2897.88
662.08	2731.99
662.26	2422.75
662.45	2572.25
662.64	2979.79
662.83	2738.13
663.01	2527.19
663.20	2611.16
663.39	2834.39
663.58	2602.97
663.76	2596.82
663.95	2789.33
664.14	2539.48
664.32	2645.98
664.51	2529.24
664.70	2535.39
664.89	2746.33
665.07	2600.92
665.26	2781.14
665.45	2535.39
665.64	2758.61
665.82	2582.49
666.01	2787.29
666.20	2482.14
666.38	2914.26
666.57	2877.40
666.76	4306.88
666.95	9910.12
667.13	16955.13
667.32	21194.43
667.51	24098.45
667.69	25173.63
667.88	21733.04
668.07	15320.85
668.25	12998.46
668.44	11183.96
668.63	9643.88
668.81	8505.21
669.00	7452.56
669.19	6616.99
669.38	5793.70
669.56	4876.21
669.75	4218.82
669.94	3665.86
670.12	3301.33
670.31	3043.28
670.50	2965.46
670.68	2963.41
670.87	2777.05
671.06	2674.65
671.24	2787.29
671.43	3037.14
671.62	2803.67
671.80	2631.64
671.99	2744.28
672.18	2768.85
672.36	2852.82
672.55	2764.76
672.74	2676.70
672.92	2709.46
673.11	2826.20
673.29	2473.95
673.48	2807.77
673.67	2719.70
673.85	2889.68
674.04	2566.10
674.23	2740.18
674.41	2883.54
674.60	2596.82
674.79	2494.43
674.97	2580.44
675.16	2818.00
675.34	2858.96
675.53	2623.45
675.72	2660.31
675.90	3002.32
676.09	2652.12
676.28	2678.74
676.46	2457.56
676.65	2824.15
676.83	2584.54
677.02	2688.98
677.21	2715.61
677.39	2783.19
677.58	2703.32
677.77	2582.49
677.95	2547.67
678.14	2711.51
678.32	2688.98
678.51	2676.70
678.70	2985.94
678.88	2631.64
679.07	2787.29
679.25	2707.41
679.44	2744.28
679.63	2545.63
679.81	2705.37
680.00	2850.77
680.18	2707.41
680.37	2942.93
680.55	2791.38
680.74	2453.47
680.93	2428.89
681.11	2742.23
681.30	2650.07
681.48	2717.65
681.67	2656.22
681.85	2711.51
682.04	2514.91
682.23	2727.89
682.41	2592.73
682.60	2760.66
682.78	2625.50
682.97	2580.44
683.15	2688.98
683.34	2711.51
683.53	2908.12
683.71	2559.96
683.90	2858.96
684.08	2947.03
684.27	2719.70
684.45	2752.47
684.64	2912.21
684.82	2641.88
685.01	2801.62
685.19	2645.98
685.38	2953.17
685.57	2705.37
685.75	2639.83
685.94	2623.45
686.12	2615.26
686.31	2627.54
686.49	3008.47
686.68	2547.67
686.86	2736.09
687.05	2734.04
687.23	2951.12
687.42	2625.50
687.60	2416.60
687.79	2801.62
687.97	2932.69
688.16	2820.05
688.34	2834.39
688.53	2562.01
688.71	2756.57
688.90	2785.24
689.08	2629.59
689.27	2486.23
689.45	2824.15
689.64	2867.16
689.82	2740.18
690.01	2820.05
690.19	2770.90
690.38	2654.17
690.56	2838.48
690.75	2555.86
690.93	2607.06
691.12	2580.44
691.30	2717.65
691.49	2666.46
691.67	2711.51
691.86	3026.90
692.04	2660.31
692.23	2824.15
692.41	2772.95
692.60	2955.22
692.78	2879.44
692.97	2791.38
693.15	2830.29
693.34	2920.40
693.52	2828.24
693.71	2680.79
693.89	2684.89
694.08	2500.57
694.26	2754.52
694.44	2838.48
694.63	2781.14
694.81	2596.82
695.00	2645.98
695.18	2852.82
695.37	3117.01
695.55	2752.47
695.74	2676.70
695.92	2635.74
696.10	2914.26
696.29	2543.58
696.47	2578.39
696.66	2588.63
696.84	2535.39
697.03	2664.41
697.21	2895.83
697.40	4087.75
697.58	2889.68
697.76	2547.67
697.95	2580.44
698.13	2506.71
698.32	2586.58
698.50	2662.36
698.68	2662.36
698.87	2787.29
699.05	3018.71
699.24	2680.79
699.42	2582.49
699.61	2719.70
699.79	2697.17
699.97	2664.41
700.16	2559.96
700.34	2537.43
700.53	2666.46
700.71	2842.58
700.89	2760.66
701.08	2688.98
701.26	2830.29
701.45	3063.76
701.63	2607.06
701.81	2617.30
702.00	2641.88
702.18	2641.88
702.37	2566.10
702.55	2883.54
702.73	2871.25
702.92	2641.88
703.10	3057.62
703.28	2899.92
703.47	2592.73
703.65	2879.44
703.84	2791.38
704.02	2648.02
704.20	2961.36
704.39	2613.21
704.57	2641.88
704.75	2922.45
704.94	2850.77
705.12	2783.19
705.30	3243.98
705.49	5951.40
705.67	12091.21
705.86	17872.62
706.04	20563.65
706.22	22984.35
706.41	22920.87
706.59	17633.01
706.77	13266.74
706.96	11558.74
707.14	10475.36
707.32	8931.19
707.51	8062.85
707.69	6492.06
707.87	5357.49
708.06	4399.04
708.24	3905.48
708.42	3366.86
708.61	3454.92
708.79	2775.00
708.97	2709.46
709.16	2811.86
709.34	2731.99
709.52	2666.46
709.71	2719.70
709.89	2742.23
710.07	2600.92
710.26	2523.10
710.44	2590.68
710.62	2895.83
710.80	2729.94
710.99	2797.53
711.17	2684.89
711.35	2637.78
711.54	2637.78
711.72	2785.24
711.90	2807.77
712.09	2742.23
712.27	2623.45
712.45	2744.28
712.63	2693.08
712.82	2723.80
713.00	2650.07
713.18	2824.15
713.37	2822.10
713.55	2887.64
713.73	2863.06
713.91	2752.47
714.10	2617.30
714.28	2682.84
714.46	2832.34
714.65	2707.41
714.83	2676.70
715.01	2783.19
715.19	2723.80
715.38	2559.96
715.56	2729.94
715.74	2590.68
715.92	2613.21
716.11	2879.44
716.29	2451.42
716.47	2695.13
716.65	2674.65
716.84	2535.39
717.02	2791.38
717.20	2486.23
717.38	2693.08
717.57	2783.19
717.75	2617.30
717.93	2662.36
718.11	2836.44
718.30	2564.06
718.48	2627.54
718.66	2865.11
718.84	2834.39
719.03	2617.30
719.21	2529.24
719.39	2883.54
719.57	2828.24
719.75	2789.33
719.94	2547.67
720.12	2734.04
720.30	2711.51
720.48	2762.71
720.67	2631.64
720.85	2521.05
721.03	2691.03
721.21	2596.82
721.39	2801.62
721.58	2856.92
721.76	2709.46
721.94	2736.09
722.12	2762.71
722.30	3010.51
722.49	2654.17
722.67	2684.89
722.85	2719.70
723.03	2492.38
723.21	2650.07
723.40	2731.99
723.58	2818.00
723.76	2787.29
723.94	2973.65
724.12	2711.51
724.30	2856.92
724.49	2809.81
724.67	2600.92
724.85	2826.20
725.03	2512.86
725.21	2791.38
725.40	2904.02
725.58	2668.50
725.76	2744.28
725.94	2820.05
726.12	2627.54
726.30	2748.37
726.49	2594.78
726.67	2676.70
726.85	2736.09
727.03	3207.12
727.21	4112.32
727.39	5183.41
727.57	5744.55
727.76	6053.80
727.94	6186.91
728.12	5552.04
728.30	4675.51
728.48	4358.08
728.66	3999.68
728.84	3733.45
729.03	3342.28
729.21	3192.78
729.39	2992.08
729.57	2811.86
729.75	2768.85
729.93	2766.81
730.11	2662.36
730.30	2564.06
730.48	2684.89
730.66	2758.61
730.84	2844.63
731.02	2715.61
731.20	2658.26
731.38	2699.22
731.56	2504.67
731.74	2510.81
731.93	2781.14
732.11	2727.89
732.29	2615.26
732.47	2768.85
732.65	2770.90
732.83	2861.01
733.01	2797.53
733.19	2627.54
733.37	2828.24
733.56	2691.03
733.74	2623.45
733.92	2942.93
734.10	2672.60
734.28	2797.53
734.46	2523.10
734.64	2658.26
734.82	2693.08
735.00	2680.79
735.18	2670.55
735.36	2684.89
735.54	2723.80
735.73	2633.69
735.91	2707.41
736.09	2916.31
736.27	2666.46
736.45	2772.95
736.63	2465.75
736.81	2682.84
736.99	2836.44
737.17	2934.74
737.35	2498.52
737.53	2766.81
737.71	2682.84
737.89	2854.87
738.07	2564.06
738.25	2594.78
738.43	2592.73
738.61	2611.16
738.80	2578.39
738.98	2635.74
739.16	2617.30
739.34	2600.92
739.52	2944.98
739.70	2666.46
739.88	2824.15
740.06	2793.43
740.24	2406.36
740.42	2836.44
740.60	2475.99
740.78	2625.50
740.96	2539.48
741.14	2576.34
741.32	2660.31
741.50	2441.18
741.68	2953.17
741.86	2863.06
742.04	2473.95
742.22	2578.39
742.40	2697.17
742.58	2772.95
742.76	2582.49
742.94	2811.86
743.12	2478.04
743.30	2748.37
743.48	2715.61
743.66	2633.69
743.84	2625.50
744.02	2613.21
744.20	2688.98
744.38	2594.78
744.56	2566.10
744.74	2936.79
744.92	2770.90
745.10	2873.30
745.28	2750.42
745.46	2987.99
745.64	2746.33
745.82	2709.46
746.00	2643.93
746.18	2762.71
746.36	2602.97
746.54	2639.83
746.72	2803.67
746.90	2426.84
747.08	2854.87
747.26	2615.26
747.44	2762.71
747.62	2772.95
747.80	2830.29
747.98	2701.27
748.15	2605.02
748.33	2967.51
748.51	2668.50
748.69	2648.02
748.87	2568.15
749.05	2627.54
749.23	2701.27
749.41	2619.35
749.59	2615.26
749.77	2957.27
749.95	2731.99
750.13	2607.06
750.31	2744.28
750.49	2658.26
750.67	2885.59
750.85	2752.47
751.03	2654.17
751.20	2953.17
751.38	2787.29
751.56	2633.69
751.74	2707.41
751.92	2613.21
752.10	2533.34
752.28	2775.00
752.46	2623.45
752.64	2629.59
752.82	2660.31
753.00	2738.13
753.18	2615.26
753.35	2701.27
753.53	2664.41
753.71	2578.39
753.89	2731.99
754.07	2678.74
754.25	2873.30
754.43	2686.94
754.61	2523.10
754.79	2742.23
754.97	2674.65
755.14	2822.10
755.32	2553.82
755.50	2815.96
755.68	2772.95
755.86	2627.54
756.04	2619.35
756.22	2461.66
756.40	2897.88
756.57	2856.92
756.75	2598.87
756.93	2879.44
757.11	2881.49
757.29	2607.06
757.47	2611.16
757.65	2412.51
757.82	2441.18
758.00	2588.63
758.18	2629.59
758.36	2605.02
758.54	2949.08
758.72	2475.99
758.90	2701.27
759.07	2824.15
759.25	2578.39
759.43	2705.37
759.61	2480.09
759.79	3938.24
759.97	2793.43
760.15	2719.70
760.32	2654.17
760.50	2729.94
760.68	2953.17
760.86	2627.54
761.04	2799.57
761.22	2842.58
761.39	2711.51
761.57	2752.47
761.75	2555.86
761.93	2852.82
762.11	2650.07
762.28	2703.32
762.46	2588.63
762.64	2879.44
762.82	2527.19
763.00	2629.59
763.18	2772.95
763.35	2537.43
763.53	2738.13
763.71	2607.06
763.89	2664.41
764.07	2750.42
764.24	2719.70
764.42	2750.42
764.60	2648.02
764.78	2830.29
764.96	2877.40
765.13	2791.38
765.31	2664.41
765.49	2797.53
765.67	2699.22
765.84	2654.17
766.02	2535.39
766.20	2580.44
766.38	2727.89
766.56	2754.52
766.73	2801.62
766.91	2756.57
767.09	2744.28
767.27	2656.22
767.44	2566.10
767.62	2758.61
767.80	2770.90
767.98	2592.73
768.15	2562.01
768.33	2885.59
768.51	2856.92
768.69	2744.28
768.87	2648.02
769.04	2764.76
769.22	3067.86
769.40	2754.52
769.58	2891.73
769.75	2738.13
769.93	2897.88
770.11	2686.94
770.28	2621.40
770.46	2863.06
770.64	2760.66
770.82	2664.41
770.99	2607.06
771.17	2824.15
771.35	2668.50
771.53	2678.74
771.70	2668.50
771.88	2758.61
772.06	2682.84
772.23	2602.97
772.41	2736.09
772.59	2740.18
772.77	2592.73
772.94	2596.82
773.12	2762.71
773.30	2654.17
773.47	2744.28
773.65	2602.97
773.83	2875.35
774.01	2639.83
774.18	2475.99
774.36	2639.83
774.54	2512.86
774.71	2736.09
774.89	2582.49
775.07	2582.49
775.24	2539.48
775.42	2654.17
775.60	3022.80
775.78	2514.91
775.95	2486.23
776.13	2457.56
776.31	2508.76
776.48	2664.41
776.66	2852.82
776.84	2701.27
777.01	2672.60
777.19	2549.72
777.37	2580.44
777.54	2852.82
777.72	2977.75
777.90	2701.27
778.07	2559.96
778.25	3174.35
778.43	2797.53
778.60	2629.59
778.78	2682.84
778.96	2893.78
779.13	2557.91
779.31	2803.67
779.49	2654.17
779.66	2707.41
779.84	2672.60
780.01	2676.70
780.19	2547.67
780.37	2887.64
780.54	2809.81
780.72	2533.34
780.90	2602.97
781.07	2637.78
781.25	2588.63
781.43	2832.34
781.60	2676.70
781.78	2891.73
781.95	2707.41
782.13	2654.17
782.31	2633.69
782.48	2459.61
782.66	2731.99
782.83	2858.96
783.01	2719.70
783.19	2824.15
783.36	2725.85
783.54	2545.63
783.72	2742.23
783.89	2643.93
784.07	2721.75
784.24	2742.23
784.42	2834.39
784.60	2731.99
784.77	2725.85
784.95	2432.99
785.12	2631.64
785.30	2746.33
785.47	2631.64
785.65	2658.26
785.83	2645.98
786.00	2611.16
786.18	2713.56
786.35	2521.05
786.53	2570.20
786.71	2914.26
786.88	2854.87
787.06	2697.17
787.23	2611.16
787.41	2678.74
787.58	2660.31
787.76	2568.15
787.94	2613.21
788.11	2789.33
788.29	2592.73
788.46	2531.29
788.64	2478.04
788.81	2611.16
788.99	2588.63
789.16	2555.86
789.34	2627.54
789.52	2666.46
789.69	2650.07
789.87	2392.03
790.04	2590.68
790.22	2588.63
790.39	2957.27
790.57	2564.06
790.74	2559.96
790.92	2865.11
791.09	2482.14
791.27	2758.61
791.44	2783.19
791.62	2637.78
791.79	2830.29
791.97	2727.89
792.15	3010.51
792.32	2775.00
792.50	2881.49
792.67	2852.82
792.85	2885.59
793.02	2758.61
793.20	2627.54
793.37	2559.96
793.55	2607.06
793.72	2543.58
793.90	2779.09
794.07	2566.10
794.25	2615.26
794.42	2752.47
794.60	2682.84
794.77	2654.17
794.95	2729.94
795.12	2830.29
795.30	2584.54
795.47	2394.08
795.65	2973.65
795.82	2793.43
796.00	2609.11
796.17	2664.41
796.34	2600.92
796.52	2785.24
796.69	2912.21
796.87	2707.41
797.04	2760.66
797.22	2834.39
797.39	2799.57
797.57	2768.85
797.74	2629.59
797.92	2750.42
798.09	2588.63
798.27	2883.54
798.44	2656.22
798.62	2635.74
798.79	2738.13
798.96	2756.57
799.14	2652.12
799.31	3096.53
799.49	2668.50
799.66	2607.06
799.84	2719.70
800.01	2562.01
800.19	2772.95
800.36	2506.71
800.53	2688.98
800.71	2842.58
800.88	2932.69
801.06	2609.11
801.23	2643.93
801.41	2613.21
801.58	2674.65
801.75	2590.68
801.93	2672.60
802.10	2818.00
802.28	2645.98
802.45	2678.74
802.63	2672.60
802.80	2928.60
802.97	2711.51
803.15	2693.08
803.32	2621.40
803.50	2615.26
803.67	2662.36
803.84	2545.63
804.02	2662.36
804.19	2600.92
804.37	2441.18
804.54	2590.68
804.71	2623.45
804.89	2719.70
805.06	2643.93
805.24	2545.63
805.41	2492.38
805.58	2602.97
805.76	3076.05
805.93	2619.35
806.10	2838.48
806.28	2791.38
806.45	2742.23
806.63	2795.48
806.80	2734.04
806.97	2789.33
807.15	2740.18
807.32	2695.13
807.49	2748.37
807.67	2574.30
807.84	2752.47
808.01	2498.52
808.19	2887.64
808.36	3018.71
808.54	2656.22
808.71	2600.92
808.88	2713.56
809.06	2883.54
809.23	2940.88
809.40	2564.06
809.58	2664.41
809.75	2684.89
809.92	2514.91
810.10	2838.48
810.27	2652.12
810.44	2731.99
810.62	2775.00
810.79	2764.76
810.96	2602.97
811.14	2650.07
811.31	2836.44
811.48	2822.10
811.66	2691.03
811.83	2834.39
812.00	2772.95
812.18	2617.30
812.35	2959.31
812.52	2648.02
812.69	2600.92
812.87	2637.78
813.04	2645.98
813.21	2635.74
813.39	2584.54
813.56	2551.77
813.73	2832.34
813.91	2535.39
814.08	2715.61
814.25	2678.74
814.42	2504.67
814.60	2648.02
814.77	2725.85
814.94	2723.80
815.12	2643.93
815.29	2981.84
815.46	2611.16
815.63	2697.17
815.81	2611.16
815.98	2582.49
816.15	2707.41
816.33	2715.61
816.50	2658.26
816.67	2623.45
816.84	2691.03
817.02	2633.69
817.19	2586.58
817.36	2734.04
817.53	2748.37
817.71	2609.11
817.88	2740.18
818.05	2691.03
818.22	2656.22
818.40	2922.45
818.57	2629.59
818.74	2826.20
818.91	2731.99
819.09	2768.85
819.26	2818.00
819.43	2574.30
819.60	2656.22
819.78	2785.24
819.95	2813.91
820.12	2596.82
820.29	2887.64
820.47	2842.58
820.64	2602.97
820.81	2514.91
820.98	2562.01
821.15	2660.31
821.33	2865.11
821.50	2465.75
821.67	2818.00
821.84	2545.63
822.02	2621.40
822.19	2916.31
822.36	2650.07
822.53	2666.46
822.70	2562.01
822.88	2680.79
823.05	2869.20
823.22	2717.65
823.39	2703.32
823.56	2625.50
823.74	2914.26
823.91	2529.24
824.08	2529.24
824.25	2500.57
824.42	3039.19
824.60	2494.43
824.77	2781.14
824.94	2729.94
825.11	2861.01
825.28	2498.52
825.45	2727.89
825.63	2674.65
825.80	2498.52
825.97	2779.09
826.14	2645.98
826.31	2527.19
826.48	2781.14
826.66	2541.53
826.83	2557.91
827.00	2678.74
827.17	2578.39
827.34	2703.32
827.51	2602.97
827.69	2631.64
827.86	2590.68
828.03	2596.82
828.20	2688.98
828.37	2580.44
828.54	2719.70
828.71	2541.53
828.89	2832.34
829.06	2789.33
829.23	2891.73
829.40	2605.02
829.57	2590.68
829.74	2856.92
829.91	2637.78
830.09	2621.40
830.26	2754.52
830.43	2965.46
830.60	2637.78
830.77	2727.89
830.94	2830.29
831.11	2791.38
831.28	2611.16
831.46	2748.37
831.63	2633.69
831.80	2877.40
831.97	2609.11
832.14	2615.26
832.31	2650.07
832.48	2756.57
832.65	2842.58
832.82	2701.27
832.99	2664.41
833.17	2570.20
833.34	2990.03
833.51	2729.94
833.68	2424.80
833.85	2879.44
834.02	2549.72
834.19	2592.73
834.36	2498.52
834.53	2727.89
834.70	2891.73
834.87	2717.65
835.04	2551.77
835.22	2596.82
835.39	2682.84
835.56	2447.32
835.73	2582.49
835.90	2940.88
836.07	2551.77
836.24	2709.46
836.41	2453.47
836.58	2555.86
836.75	2815.96
836.92	2566.10
837.09	2471.90
837.26	2781.14
837.43	2775.00
837.60	2588.63
837.77	2494.43
837.94	2779.09
838.12	2877.40
838.29	2543.58
838.46	2430.94
838.63	2564.06
838.80	2887.64
838.97	2645.98
839.14	2535.39
839.31	2770.90
839.48	2873.30
839.65	2519.00
839.82	2637.78
839.99	2740.18
840.16	2727.89
840.33	2508.76
840.50	2582.49
840.67	2551.77
840.84	2359.26
841.01	2551.77
841.18	2465.75
841.35	2734.04
841.52	2840.53
841.69	2873.30
841.86	2580.44
842.03	2711.51
842.20	2846.68
842.37	2564.06
842.54	2568.15
842.71	2711.51
842.88	2584.54
843.05	2668.50
843.22	2490.33
843.39	2875.35
843.56	2588.63
843.73	2602.97
843.90	2613.21
844.07	2756.57
844.24	2850.77
844.41	2590.68
844.58	2590.68
844.75	2645.98
844.92	2719.70
845.09	2611.16
845.26	2510.81
845.43	2844.63
845.60	2605.02
845.77	2742.23
845.94	2631.64
846.10	2781.14
846.27	2469.85
846.44	2389.98
846.61	2441.18
846.78	2738.13
846.95	2787.29
847.12	2484.19
847.29	2555.86
847.46	2592.73
847.63	2850.77
847.80	2541.53
847.97	2564.06
848.14	3076.05
848.31	2615.26
848.48	2451.42
848.65	2533.34
848.82	2680.79
848.98	3094.48
849.15	2686.94
849.32	2746.33
849.49	2906.07
849.66	2654.17
849.83	2547.67
850.00	2496.47
850.17	2848.72
850.34	2686.94
850.51	2547.67
850.68	2551.77
850.85	2992.08
851.01	2727.89
851.18	2506.71
851.35	2559.96
851.52	2654.17
851.69	2854.87
851.86	2373.60
852.03	2512.86
852.20	2756.57
852.37	2715.61
852.53	2387.93
852.70	2568.15
852.87	2672.60
853.04	2781.14
853.21	2545.63
853.38	2688.98
853.55	2850.77
853.72	2834.39
853.89	2521.05
854.05	2531.29
854.22	2615.26
854.39	2762.71
854.56	2568.15
854.73	2652.12
854.90	2594.78
855.07	2662.36
855.23	2490.33
855.40	2566.10
855.57	2676.70
855.74	2428.89
855.91	2731.99
856.08	2408.41
856.25	2557.91
856.41	2641.88
856.58	2512.86
856.75	2527.19
856.92	2551.77
857.09	2828.24
857.26	2455.51
857.42	2613.21
857.59	2744.28
857.76	2592.73
857.93	2551.77
858.10	2625.50
858.27	2578.39
858.43	2736.09
858.60	2562.01
858.77	2547.67
858.94	2643.93
859.11	2940.88
859.27	2633.69
859.44	2486.23
859.61	2990.03
859.78	2744.28
859.95	2506.71
860.12	2455.51
860.28	2998.23
860.45	3018.71
860.62	2465.75
860.79	2664.41
860.95	2555.86
861.12	2594.78
861.29	2547.67
861.46	2605.02
861.63	2643.93
861.79	2643.93
861.96	2480.09
862.13	2551.77
862.30	2934.74
862.47	2697.17
862.63	2480.09
862.80	2695.13
862.97	2848.72
863.14	2799.57
863.30	2588.63
863.47	2519.00
863.64	2932.69
863.81	2686.94
863.97	2428.89
864.14	2592.73
864.31	2637.78
864.48	2639.83
864.65	2564.06
864.81	2744.28
864.98	2854.87
865.15	2826.20
865.32	2615.26
865.48	2664.41
865.65	2914.26
865.82	2623.45
865.98	2611.16
866.15	2625.50
866.32	2660.31
866.49	2615.26
866.65	2731.99
866.82	2488.28
866.99	2699.22
867.16	2637.78
867.32	2566.10
867.49	2516.95
867.66	2715.61
867.83	2564.06
867.99	2457.56
868.16	2592.73
868.33	2576.34
868.49	2650.07
868.66	2514.91
868.83	2672.60
868.99	2713.56
869.16	2621.40
869.33	2770.90
869.50	2648.02
869.66	2678.74
869.83	2637.78
870.00	2471.90
870.16	2682.84
870.33	2654.17
870.50	2760.66
870.66	2617.30
870.83	2670.55
871.00	2670.55
871.17	2822.10
871.33	2570.20
871.50	2566.10
871.67	2686.94
871.83	2574.30
872.00	2691.03
872.17	2543.58
872.33	2977.75
872.50	2867.16
872.67	2451.42
872.83	2523.10
873.00	2766.81
873.17	2723.80
873.33	2605.02
873.50	2652.12
873.67	2670.55
873.83	2607.06
874.00	2559.96
874.16	2639.83
874.33	2758.61
874.50	2621.40
874.66	2596.82
874.83	2545.63
875.00	2799.57
875.16	2865.11
875.33	2684.89
875.50	2340.83
875.66	2660.31
875.83	2740.18
875.99	2631.64
876.16	2607.06
876.33	2572.25
876.49	2625.50
876.66	2582.49
876.83	2562.01
876.99	2533.34
877.16	2721.75
877.32	2482.14
877.49	2621.40
877.66	2711.51
877.82	2899.92
877.99	2652.12
878.15	2701.27
878.32	2648.02
878.49	2809.81
878.65	2570.20
878.82	2754.52
878.98	2666.46
879.15	2858.96
879.32	2688.98
879.48	2711.51
879.65	2684.89
879.81	2635.74
879.98	2607.06
880.15	2586.58
880.31	2785.24
880.48	2555.86
880.64	2666.46
880.81	2637.78
880.97	2928.60
881.14	2858.96
881.31	2572.25
881.47	2758.61
881.64	2627.54
881.80	2494.43
881.97	2731.99
882.13	2555.86
882.30	2621.40
882.47	2648.02
882.63	2504.67
882.80	2529.24
882.96	2627.54
883.13	2881.49
883.29	2525.15
883.46	2557.91
883.62	2971.60
883.79	2656.22
883.95	2709.46
884.12	2535.39
884.29	2856.92
884.45	2738.13
884.62	2645.98
884.78	2453.47
884.95	2926.55
885.11	2637.78
885.28	2668.50
885.44	2602.97
885.61	2785.24
885.77	2940.88
885.94	2633.69
886.10	2625.50
886.27	2654.17
886.43	2949.08
886.60	2791.38
886.76	2488.28
886.93	2535.39
887.09	2695.13
887.26	2439.13
887.42	2691.03
887.59	2863.06
887.75	3090.38
887.92	2744.28
888.08	2641.88
888.25	2942.93
888.41	2809.81
888.58	2621.40
888.74	2486.23
888.91	2555.86
>>>>>End Processed Spectral Data<<<<<
