SpectraSuite Data File
++++++++++++++++++++++++++++++++++++
Date: Thu May 05 16:21:04 CEST 2016
User: root
Dark Spectrum Present: No
Reference Spectrum Present: No
Number of Sampled Component Spectra: 1
Spectrometers: USB4C02835
Integration Time (usec): 100000 (USB4C02835)
Spectra Averaged: 1 (USB4C02835)
Boxcar Smoothing: 0 (USB4C02835)
Correct for Electrical Dark: No (USB4C02835)
Strobe/Lamp Enabled: No (USB4C02835)
Correct for Detector Non-linearity: No (USB4C02835)
Correct for Stray Light: No (USB4C02835)
Number of Pixels in Processed Spectrum: 3648
>>>>>Begin Processed Spectral Data<<<<<
177.47	2047.97
177.69	2047.97
177.91	2047.97
178.13	1974.24
178.36	2015.20
178.58	2580.44
178.80	2688.98
179.02	2525.15
179.24	2582.49
179.46	2408.41
179.68	2535.39
179.90	2746.33
180.13	2744.28
180.35	2326.49
180.57	2539.48
180.79	2869.20
181.01	2670.55
181.23	2643.93
181.45	2533.34
181.67	2754.52
181.90	2789.33
182.12	2527.19
182.34	2336.73
182.56	2803.67
182.78	2793.43
183.00	2459.61
183.22	2564.06
183.44	2488.28
183.66	3096.53
183.89	2594.78
184.11	2570.20
184.33	2840.53
184.55	2865.11
184.77	2529.24
184.99	2533.34
185.21	2617.30
185.43	3160.02
185.65	2523.10
185.87	2529.24
186.10	3071.95
186.32	3051.47
186.54	2578.39
186.76	2633.69
186.98	2873.30
187.20	2705.37
187.42	2600.92
187.64	2566.10
187.86	2840.53
188.08	2856.92
188.30	2449.37
188.52	2490.33
188.75	2805.72
188.97	2811.86
189.19	2490.33
189.41	2492.38
189.63	2875.35
189.85	2709.46
190.07	2389.98
190.29	2400.22
190.51	2742.23
190.73	2559.96
190.95	2666.46
191.17	2553.82
191.39	2562.01
191.61	2742.23
191.84	2551.77
192.06	2623.45
192.28	2449.37
192.50	3211.22
192.72	2643.93
192.94	2549.72
193.16	2848.72
193.38	2822.10
193.60	2461.66
193.82	2629.59
194.04	2877.40
194.26	2881.49
194.48	2584.54
194.70	2543.58
194.92	2609.11
195.14	2844.63
195.36	2422.75
195.58	2539.48
195.80	2682.84
196.02	2676.70
196.24	2406.36
196.46	2519.00
196.69	2592.73
196.91	3106.77
197.13	2469.85
197.35	2504.67
197.57	2836.44
197.79	2852.82
198.01	2594.78
198.23	2562.01
198.45	2723.80
198.67	2482.14
198.89	2410.46
199.11	2613.21
199.33	2697.17
199.55	2361.31
199.77	2494.43
199.99	2703.32
200.21	2553.82
200.43	2740.18
200.65	2420.70
200.87	2402.27
201.09	2713.56
201.31	2686.94
201.53	2574.30
201.75	2533.34
201.97	2768.85
202.19	2641.88
202.41	2582.49
202.63	2660.31
202.85	2822.10
203.07	2777.05
203.29	2502.62
203.51	2473.95
203.73	2613.21
203.95	3090.38
204.17	2498.52
204.39	2576.34
204.61	2658.26
204.83	2607.06
205.05	2633.69
205.27	2537.43
205.49	2969.55
205.71	2731.99
205.93	2406.36
206.15	2449.37
206.37	2674.65
206.59	2709.46
206.81	2392.03
207.03	2402.27
207.25	2553.82
207.47	2809.81
207.69	2578.39
207.91	2723.80
208.13	2924.50
208.34	2691.03
208.56	2506.71
208.78	2641.88
209.00	2703.32
209.22	2637.78
209.44	2504.67
209.66	2484.19
209.88	2711.51
210.10	2678.74
210.32	2498.52
210.54	2602.97
210.76	2678.74
210.98	2906.07
211.20	2365.40
211.42	2543.58
211.64	3006.42
211.86	2752.47
212.08	2553.82
212.30	2500.57
212.52	2713.56
212.74	2785.24
212.96	2547.67
213.17	2576.34
213.39	2836.44
213.61	2973.65
213.83	2500.57
214.05	2416.60
214.27	2848.72
214.49	2625.50
214.71	2469.85
214.93	2668.50
215.15	2588.63
215.37	2871.25
215.59	2416.60
215.81	2625.50
216.03	2877.40
216.24	2695.13
216.46	2514.91
216.68	2572.25
216.90	2891.73
217.12	2836.44
217.34	2535.39
217.56	2629.59
217.78	2897.88
218.00	2775.00
218.22	2609.11
218.44	2684.89
218.66	2727.89
218.87	3033.04
219.09	2498.52
219.31	2490.33
219.53	2707.41
219.75	2627.54
219.97	2643.93
220.19	2570.20
220.41	2619.35
220.63	2990.03
220.85	2471.90
221.06	2551.77
221.28	2926.55
221.50	2822.10
221.72	2496.47
221.94	2420.70
222.16	2754.52
222.38	2811.86
222.60	2539.48
222.82	2519.00
223.03	2830.29
223.25	2555.86
223.47	2514.91
223.69	2668.50
223.91	2873.30
224.13	2707.41
224.35	2424.80
224.57	2752.47
224.78	2850.77
225.00	2666.46
225.22	2523.10
225.44	2492.38
225.66	2793.43
225.88	2731.99
226.10	2568.15
226.32	2502.62
226.53	3004.37
226.75	2717.65
226.97	2600.92
227.19	2506.71
227.41	2559.96
227.63	2695.13
227.85	2385.88
228.06	2537.43
228.28	2727.89
228.50	2858.96
228.72	2449.37
228.94	2457.56
229.16	2416.60
229.37	2562.01
229.59	2463.71
229.81	2734.04
230.03	2703.32
230.25	2523.10
230.47	2359.26
230.69	2441.18
230.90	2850.77
231.12	2576.34
231.34	2523.10
231.56	2521.05
231.78	2551.77
232.00	2688.98
232.21	2504.67
232.43	2562.01
232.65	2463.71
232.87	2809.81
233.09	2422.75
233.30	2475.99
233.52	2815.96
233.74	2727.89
233.96	2502.62
234.18	2537.43
234.40	2731.99
234.61	3049.43
234.83	2430.94
235.05	2416.60
235.27	3061.71
235.49	2850.77
235.70	2375.64
235.92	2543.58
236.14	2725.85
236.36	3108.82
236.58	2363.36
236.79	2686.94
237.01	2734.04
237.23	2709.46
237.45	2711.51
237.67	2482.14
237.88	2770.90
238.10	2961.36
238.32	2478.04
238.54	2420.70
238.76	2635.74
238.97	2553.82
239.19	2410.46
239.41	2598.87
239.63	2895.83
239.85	2691.03
240.06	2457.56
240.28	2519.00
240.50	2842.58
240.72	2666.46
240.93	2486.23
241.15	2613.21
241.37	2789.33
241.59	2990.03
241.81	2465.75
242.02	2549.72
242.24	2785.24
242.46	2779.09
242.68	2408.41
242.89	2478.04
243.11	2838.48
243.33	2844.63
243.55	2566.10
243.76	2633.69
243.98	2658.26
244.20	2662.36
244.42	2508.76
244.64	2584.54
244.85	2514.91
245.07	2531.29
245.29	2512.86
245.51	2623.45
245.72	2768.85
245.94	2838.48
246.16	2519.00
246.38	2572.25
246.59	2615.26
246.81	2611.16
247.03	2525.15
247.24	2359.26
247.46	2668.50
247.68	2744.28
247.90	2426.84
248.11	2539.48
248.33	2840.53
248.55	2764.76
248.77	2521.05
248.98	2613.21
249.20	2955.22
249.42	2738.13
249.64	2504.67
249.85	2416.60
250.07	2643.93
250.29	2830.29
250.50	2584.54
250.72	2435.03
250.94	2766.81
251.16	2932.69
251.37	2504.67
251.59	2584.54
251.81	2818.00
252.02	2985.94
252.24	2484.19
252.46	2645.98
252.68	2625.50
252.89	2545.63
253.11	2385.88
253.33	2701.27
253.54	2938.84
253.76	2490.33
253.98	2457.56
254.20	2576.34
254.41	2596.82
254.63	2654.17
254.85	2371.55
255.06	2523.10
255.28	2772.95
255.50	2674.65
255.71	2498.52
255.93	2369.50
256.15	2650.07
256.36	2805.72
256.58	2432.99
256.80	2504.67
257.02	2707.41
257.23	2576.34
257.45	2562.01
257.67	2670.55
257.88	2600.92
258.10	2758.61
258.32	2457.56
258.53	2574.30
258.75	2918.36
258.97	2637.78
259.18	2490.33
259.40	2445.27
259.62	3026.90
259.83	2904.02
260.05	2602.97
260.27	3166.16
260.48	2887.64
260.70	2602.97
260.92	2437.08
261.13	2426.84
261.35	2756.57
261.57	2797.53
261.78	2349.02
262.00	2480.09
262.22	2789.33
262.43	2602.97
262.65	2490.33
262.86	2529.24
263.08	3014.61
263.30	2654.17
263.51	2318.30
263.73	2473.95
263.95	2994.13
264.16	2564.06
264.38	2428.89
264.60	2461.66
264.81	2676.70
265.03	2912.21
265.25	2779.09
265.46	2486.23
265.68	2932.69
265.89	2820.05
266.11	2428.89
266.33	2484.19
266.54	2844.63
266.76	2789.33
266.98	2570.20
267.19	2693.08
267.41	2916.31
267.62	2760.66
267.84	2361.31
268.06	2588.63
268.27	2721.75
268.49	2934.74
268.70	2582.49
268.92	2605.02
269.14	2564.06
269.35	2605.02
269.57	2652.12
269.79	2551.77
270.00	2682.84
270.22	3039.19
270.43	2420.70
270.65	2299.87
270.87	2711.51
271.08	2920.40
271.30	2615.26
271.51	2539.48
271.73	2799.57
271.95	3006.42
272.16	2469.85
272.38	2566.10
272.59	2693.08
272.81	2822.10
273.02	2498.52
273.24	2650.07
273.46	2863.06
273.67	2588.63
273.89	2398.17
274.10	2512.86
274.32	2867.16
274.54	2799.57
274.75	2621.40
274.97	2553.82
275.18	2795.48
275.40	2787.29
275.61	2572.25
275.83	2693.08
276.05	2492.38
276.26	2625.50
276.48	2611.16
276.69	2605.02
276.91	2645.98
277.12	2897.88
277.34	2674.65
277.55	2736.09
277.77	2658.26
277.99	2666.46
278.20	2629.59
278.42	2541.53
278.63	2562.01
278.85	2639.83
279.06	2539.48
279.28	2652.12
279.49	2834.39
279.71	2842.58
279.93	2736.09
280.14	2666.46
280.36	2623.45
280.57	2846.68
280.79	2648.02
281.00	2580.44
281.22	2699.22
281.43	2850.77
281.65	2353.12
281.86	2441.18
282.08	2760.66
282.29	2992.08
282.51	2496.47
282.73	2459.61
282.94	2465.75
283.16	2768.85
283.37	2758.61
283.59	2619.35
283.80	2795.48
284.02	2752.47
284.23	2654.17
284.45	2660.31
284.66	2580.44
284.88	2592.73
285.09	2701.27
285.31	2686.94
285.52	2779.09
285.74	2549.72
285.95	2768.85
286.17	2664.41
286.38	2811.86
286.60	2697.17
286.81	2545.63
287.03	2578.39
287.24	2717.65
287.46	2793.43
287.67	2588.63
287.89	2861.01
288.10	2662.36
288.32	2779.09
288.53	2809.81
288.75	2695.13
288.96	2850.77
289.18	2602.97
289.39	2545.63
289.61	2631.64
289.82	3086.29
290.04	2944.98
290.25	2545.63
290.47	2619.35
290.68	2639.83
290.90	2842.58
291.11	2447.32
291.33	2680.79
291.54	2598.87
291.76	2648.02
291.97	2680.79
292.18	2658.26
292.40	2635.74
292.61	2592.73
292.83	2858.96
293.04	2697.17
293.26	2707.41
293.47	2684.89
293.69	2514.91
293.90	2521.05
294.12	2861.01
294.33	2734.04
294.55	2666.46
294.76	2723.80
294.97	2938.84
295.19	3035.09
295.40	2562.01
295.62	2721.75
295.83	2846.68
296.05	2576.34
296.26	2818.00
296.48	2523.10
296.69	2654.17
296.90	2738.13
297.12	2832.34
297.33	2740.18
297.55	2744.28
297.76	2766.81
297.98	2629.59
298.19	2709.46
298.41	2727.89
298.62	2627.54
298.83	2795.48
299.05	2684.89
299.26	2670.55
299.48	2600.92
299.69	2719.70
299.90	2611.16
300.12	2588.63
300.33	2805.72
300.55	2676.70
300.76	2662.36
300.98	2592.73
301.19	2789.33
301.40	2676.70
301.62	2680.79
301.83	2850.77
302.05	2758.61
302.26	2615.26
302.47	2582.49
302.69	2584.54
302.90	2746.33
303.12	2392.03
303.33	2713.56
303.54	2998.23
303.76	2658.26
303.97	2590.68
304.19	2746.33
304.40	2588.63
304.61	2820.05
304.83	2758.61
305.04	2742.23
305.26	2783.19
305.47	2623.45
305.68	2664.41
305.90	2451.42
306.11	2885.59
306.33	2785.24
306.54	2529.24
306.75	2543.58
306.97	2521.05
307.18	2590.68
307.39	2645.98
307.61	2658.26
307.82	2666.46
308.04	2801.62
308.25	2553.82
308.46	2744.28
308.68	2736.09
308.89	2731.99
309.10	2676.70
309.32	2656.22
309.53	2682.84
309.74	2711.51
309.96	2625.50
310.17	2830.29
310.39	2643.93
310.60	2740.18
310.81	2564.06
311.03	2445.27
311.24	2805.72
311.45	2803.67
311.67	2768.85
311.88	2725.85
312.09	2740.18
312.31	2543.58
312.52	2619.35
312.73	2547.67
312.95	2559.96
313.16	2602.97
313.37	2801.62
313.59	2758.61
313.80	2838.48
314.01	2979.79
314.23	2676.70
314.44	2535.39
314.65	2619.35
314.87	2639.83
315.08	2598.87
315.29	2559.96
315.51	2613.21
315.72	2514.91
315.93	2697.17
316.15	2562.01
316.36	2625.50
316.57	2721.75
316.79	2684.89
317.00	2566.10
317.21	2850.77
317.43	2605.02
317.64	2619.35
317.85	2504.67
318.07	2625.50
318.28	2650.07
318.49	2682.84
318.70	2830.29
318.92	2787.29
319.13	2863.06
319.34	2770.90
319.56	2613.21
319.77	2768.85
319.98	2815.96
320.20	2772.95
320.41	2775.00
320.62	2840.53
320.83	2611.16
321.05	2883.54
321.26	2701.27
321.47	2731.99
321.69	2920.40
321.90	2471.90
322.11	2553.82
322.32	2691.03
322.54	2963.41
322.75	2656.22
322.96	3213.26
323.18	2576.34
323.39	2469.85
323.60	2523.10
323.81	2772.95
324.03	2576.34
324.24	2713.56
324.45	2562.01
324.66	2525.15
324.88	2938.84
325.09	2879.44
325.30	2543.58
325.52	2596.82
325.73	2809.81
325.94	2609.11
326.15	2457.56
326.37	2539.48
326.58	2891.73
326.79	3004.37
327.00	2613.21
327.22	2574.30
327.43	2654.17
327.64	2473.95
327.85	2688.98
328.07	2668.50
328.28	3020.75
328.49	2658.26
328.70	2637.78
328.92	2654.17
329.13	2666.46
329.34	2836.44
329.55	2813.91
329.76	2666.46
329.98	2801.62
330.19	2832.34
330.40	2691.03
330.61	2652.12
330.83	2795.48
331.04	2570.20
331.25	2629.59
331.46	2602.97
331.68	2500.57
331.89	2881.49
332.10	2629.59
332.31	2523.10
332.52	2742.23
332.74	2912.21
332.95	2392.03
333.16	2656.22
333.37	2824.15
333.58	2590.68
333.80	2666.46
334.01	2412.51
334.22	2711.51
334.43	2596.82
334.64	2590.68
334.86	2494.43
335.07	2600.92
335.28	2877.40
335.49	2461.66
335.70	2721.75
335.92	2912.21
336.13	3090.38
336.34	2652.12
336.55	2631.64
336.76	2772.95
336.98	2484.19
337.19	2623.45
337.40	2682.84
337.61	3026.90
337.82	2658.26
338.04	2695.13
338.25	2445.27
338.46	2711.51
338.67	2717.65
338.88	2523.10
339.09	2514.91
339.31	2686.94
339.52	2555.86
339.73	2547.67
339.94	2596.82
340.15	2893.78
340.36	2703.32
340.58	2660.31
340.79	2547.67
341.00	2850.77
341.21	2572.25
341.42	2846.68
341.63	2578.39
341.85	2854.87
342.06	2734.04
342.27	2475.99
342.48	2783.19
342.69	2562.01
342.90	2748.37
343.12	2850.77
343.33	2576.34
343.54	2938.84
343.75	2961.36
343.96	2596.82
344.17	2600.92
344.38	2598.87
344.60	2676.70
344.81	2547.67
345.02	2617.30
345.23	2756.57
345.44	3125.20
345.65	2658.26
345.86	2660.31
346.07	2777.05
346.29	2627.54
346.50	2740.18
346.71	2725.85
346.92	2836.44
347.13	3137.49
347.34	2594.78
347.55	2576.34
347.76	2680.79
347.98	2510.81
348.19	2641.88
348.40	2803.67
348.61	2643.93
348.82	2914.26
349.03	2736.09
349.24	2539.48
349.45	2961.36
349.66	2445.27
349.88	2621.40
350.09	2637.78
350.30	2953.17
350.51	2881.49
350.72	2748.37
350.93	2645.98
351.14	2631.64
351.35	2781.14
351.56	2523.10
351.77	2629.59
351.99	2840.53
352.20	2936.79
352.41	2670.55
352.62	2516.95
352.83	2709.46
353.04	2783.19
353.25	2652.12
353.46	2734.04
353.67	2901.97
353.88	2414.56
354.09	2643.93
354.30	2637.78
354.52	2758.61
354.73	2715.61
354.94	2627.54
355.15	2629.59
355.36	3002.32
355.57	2656.22
355.78	2605.02
355.99	2564.06
356.20	2725.85
356.41	2801.62
356.62	2658.26
356.83	2684.89
357.04	2981.84
357.25	2506.71
357.46	2576.34
357.68	2445.27
357.89	2572.25
358.10	2672.60
358.31	2615.26
358.52	2615.26
358.73	2531.29
358.94	2543.58
359.15	2598.87
359.36	2688.98
359.57	2678.74
359.78	2656.22
359.99	2695.13
360.20	2500.57
360.41	2656.22
360.62	2723.80
360.83	2691.03
361.04	2650.07
361.25	2828.24
361.46	3004.37
361.67	2748.37
361.88	2670.55
362.09	2793.43
362.30	2756.57
362.51	2527.19
362.72	2666.46
362.93	2891.73
363.14	2781.14
363.35	2672.60
363.56	2490.33
363.78	2873.30
363.99	2875.35
364.20	2600.92
364.41	2695.13
364.62	2920.40
364.83	2752.47
365.04	2545.63
365.25	2641.88
365.46	3063.76
365.67	2584.54
365.88	2674.65
366.09	2574.30
366.30	2662.36
366.51	2703.32
366.72	2449.37
366.93	2594.78
367.14	2760.66
367.35	2992.08
367.56	2582.49
367.77	2750.42
367.98	2727.89
368.18	2742.23
368.39	2686.94
368.60	2519.00
368.81	2742.23
369.02	2826.20
369.23	2580.44
369.44	2445.27
369.65	2678.74
369.86	2734.04
370.07	2703.32
370.28	2562.01
370.49	2826.20
370.70	2740.18
370.91	2535.39
371.12	2465.75
371.33	2932.69
371.54	2537.43
371.75	2783.19
371.96	2355.16
372.17	2824.15
372.38	2686.94
372.59	2611.16
372.80	2584.54
373.01	2695.13
373.22	2752.47
373.43	2547.67
373.64	2469.85
373.85	2889.68
374.06	2957.27
374.26	2693.08
374.47	2711.51
374.68	2899.92
374.89	2772.95
375.10	2521.05
375.31	2736.09
375.52	2709.46
375.73	2826.20
375.94	2480.09
376.15	2756.57
376.36	2564.06
376.57	2596.82
376.78	2637.78
376.99	2678.74
377.20	2908.12
377.40	2717.65
377.61	2764.76
377.82	2512.86
378.03	2975.70
378.24	2799.57
378.45	2670.55
378.66	2695.13
378.87	2527.19
379.08	2492.38
379.29	2605.02
379.50	2777.05
379.71	2770.90
379.91	2918.36
380.12	2580.44
380.33	2654.17
380.54	2736.09
380.75	2691.03
380.96	2559.96
381.17	2656.22
381.38	2793.43
381.59	2799.57
381.80	2691.03
382.00	2852.82
382.21	2824.15
382.42	2879.44
382.63	2899.92
382.84	2711.51
383.05	2799.57
383.26	2893.78
383.47	2693.08
383.68	2602.97
383.88	2828.24
384.09	2637.78
384.30	2846.68
384.51	2674.65
384.72	2645.98
384.93	2535.39
385.14	2645.98
385.35	2813.91
385.55	2543.58
385.76	2824.15
385.97	2697.17
386.18	2527.19
386.39	2637.78
386.60	2660.31
386.81	2592.73
387.02	2473.95
387.22	2564.06
387.43	2832.34
387.64	2777.05
387.85	2887.64
388.06	2840.53
388.27	3956.68
388.48	7440.27
388.68	10954.58
388.89	13334.32
389.10	14253.86
389.31	13797.17
389.52	10657.63
389.73	9387.89
389.93	8482.69
390.14	7907.21
390.35	7112.60
390.56	6256.54
390.77	5263.28
390.98	4067.27
391.18	3416.01
391.39	3157.97
391.60	2775.00
391.81	2824.15
392.02	2648.02
392.23	2992.08
392.43	2777.05
392.64	2770.90
392.85	2695.13
393.06	2983.89
393.27	2709.46
393.47	2551.77
393.68	2670.55
393.89	2650.07
394.10	2947.03
394.31	2461.66
394.52	2547.67
394.72	2574.30
394.93	2938.84
395.14	2482.14
395.35	2676.70
395.56	2588.63
395.76	2729.94
395.97	2635.74
396.18	2680.79
396.39	2775.00
396.60	3211.22
396.80	2863.06
397.01	2887.64
397.22	2818.00
397.43	2842.58
397.64	2625.50
397.84	2707.41
398.05	3051.47
398.26	2670.55
398.47	2711.51
398.67	2858.96
398.88	2777.05
399.09	2818.00
399.30	2607.06
399.51	2682.84
399.71	2611.16
399.92	2709.46
400.13	2777.05
400.34	2703.32
400.54	2754.52
400.75	2953.17
400.96	2662.36
401.17	2897.88
401.37	2766.81
401.58	2717.65
401.79	2615.26
402.00	2846.68
402.21	3160.02
402.41	2910.16
402.62	2912.21
402.83	2934.74
403.04	3094.48
403.24	3440.59
403.45	2727.89
403.66	2916.31
403.87	2789.33
404.07	3008.47
404.28	2858.96
404.49	2996.18
404.70	2838.48
404.90	2871.25
405.11	2676.70
405.32	2764.76
405.52	2678.74
405.73	2686.94
405.94	2539.48
406.15	2715.61
406.35	2873.30
406.56	2867.16
406.77	2676.70
406.98	2674.65
407.18	2613.21
407.39	2930.64
407.60	2680.79
407.80	2785.24
408.01	2658.26
408.22	2809.81
408.43	2662.36
408.63	2713.56
408.84	2805.72
409.05	2879.44
409.25	2559.96
409.46	2553.82
409.67	2650.07
409.88	2619.35
410.08	2645.98
410.29	2539.48
410.50	2850.77
410.70	2779.09
410.91	2572.25
411.12	2664.41
411.32	2758.61
411.53	2639.83
411.74	2668.50
411.95	2691.03
412.15	2772.95
412.36	2805.72
412.57	2768.85
412.77	2815.96
412.98	2783.19
413.19	2676.70
413.39	2703.32
413.60	2727.89
413.81	2906.07
414.01	2539.48
414.22	2736.09
414.43	2844.63
414.63	2635.74
414.84	2885.59
415.05	2637.78
415.25	2516.95
415.46	2861.01
415.67	2629.59
415.87	2715.61
416.08	2574.30
416.29	2664.41
416.49	2824.15
416.70	2691.03
416.91	2613.21
417.11	2664.41
417.32	2840.53
417.53	2746.33
417.73	2715.61
417.94	2721.75
418.15	2779.09
418.35	2650.07
418.56	2631.64
418.77	3096.53
418.97	2758.61
419.18	2752.47
419.38	2387.93
419.59	2760.66
419.80	2977.75
420.00	2584.54
420.21	2588.63
420.42	2928.60
420.62	2742.23
420.83	2588.63
421.04	2643.93
421.24	2723.80
421.45	2850.77
421.65	2645.98
421.86	2654.17
422.07	2813.91
422.27	2799.57
422.48	2668.50
422.69	2519.00
422.89	2598.87
423.10	2664.41
423.30	2519.00
423.51	2590.68
423.72	2809.81
423.92	2826.20
424.13	2445.27
424.33	2754.52
424.54	2797.53
424.75	2740.18
424.95	2881.49
425.16	2688.98
425.36	2750.42
425.57	2867.16
425.78	2791.38
425.98	2758.61
426.19	2680.79
426.39	2559.96
426.60	2686.94
426.81	2781.14
427.01	2697.17
427.22	2574.30
427.42	2514.91
427.63	2531.29
427.83	2947.03
428.04	2981.84
428.25	2762.71
428.45	2834.39
428.66	2928.60
428.86	2707.41
429.07	2543.58
429.28	2668.50
429.48	2707.41
429.69	2613.21
429.89	2709.46
430.10	2592.73
430.30	2856.92
430.51	2787.29
430.71	2559.96
430.92	2639.83
431.13	2680.79
431.33	2758.61
431.54	2697.17
431.74	2844.63
431.95	3092.43
432.15	2564.06
432.36	2711.51
432.56	2654.17
432.77	2912.21
432.98	3002.32
433.18	2652.12
433.39	2627.54
433.59	2727.89
433.80	2942.93
434.00	2897.88
434.21	2652.12
434.41	2586.58
434.62	2961.36
434.82	2576.34
435.03	2605.02
435.23	2750.42
435.44	2500.57
435.64	2682.84
435.85	2711.51
436.06	2828.24
436.26	2949.08
436.47	2648.02
436.67	2594.78
436.88	2623.45
437.08	2949.08
437.29	2770.90
437.49	2736.09
437.70	2863.06
437.90	2729.94
438.11	2879.44
438.31	2752.47
438.52	2924.50
438.72	2881.49
438.93	2973.65
439.13	2746.33
439.34	2891.73
439.54	2717.65
439.75	2781.14
439.95	2744.28
440.16	2717.65
440.36	2772.95
440.57	2742.23
440.77	2588.63
440.98	2695.13
441.18	2777.05
441.39	2621.40
441.59	2527.19
441.80	2949.08
442.00	2740.18
442.21	2760.66
442.41	2527.19
442.62	2844.63
442.82	2729.94
443.02	2680.79
443.23	2688.98
443.43	2596.82
443.64	2934.74
443.84	2582.49
444.05	2725.85
444.25	2688.98
444.46	2670.55
444.66	2660.31
444.87	2871.25
445.07	2422.75
445.28	2668.50
445.48	2785.24
445.69	2731.99
445.89	3030.99
446.09	2740.18
446.30	2899.92
446.50	3123.15
446.71	4589.50
446.91	5615.53
447.12	6363.04
447.32	6813.59
447.53	6647.71
447.73	5449.64
447.93	4761.53
448.14	4460.48
448.34	4472.76
448.55	3895.24
448.75	3792.84
448.96	3710.92
449.16	3465.16
449.36	3221.45
449.57	2891.73
449.77	2760.66
449.98	2643.93
450.18	2777.05
450.39	2676.70
450.59	2758.61
450.79	2797.53
451.00	2600.92
451.20	2783.19
451.41	2680.79
451.61	2809.81
451.81	2699.22
452.02	2596.82
452.22	2586.58
452.43	2623.45
452.63	2607.06
452.84	2688.98
453.04	2619.35
453.24	2785.24
453.45	2596.82
453.65	2666.46
453.86	2652.12
454.06	2793.43
454.26	2738.13
454.47	2529.24
454.67	2848.72
454.87	2793.43
455.08	2705.37
455.28	2848.72
455.49	2711.51
455.69	2695.13
455.89	3010.51
456.10	2775.00
456.30	2670.55
456.51	2783.19
456.71	2711.51
456.91	2727.89
457.12	2596.82
457.32	2727.89
457.52	2519.00
457.73	2844.63
457.93	2742.23
458.14	2613.21
458.34	2486.23
458.54	2645.98
458.75	2635.74
458.95	2832.34
459.15	2820.05
459.36	2756.57
459.56	2695.13
459.76	3047.38
459.97	2688.98
460.17	2715.61
460.37	2793.43
460.58	2754.52
460.78	2852.82
460.99	2510.81
461.19	2701.27
461.39	2652.12
461.60	2731.99
461.80	2686.94
462.00	2506.71
462.21	2686.94
462.41	2547.67
462.61	2537.43
462.82	2467.80
463.02	2781.14
463.22	2791.38
463.43	2777.05
463.63	2654.17
463.83	2936.79
464.04	2731.99
464.24	2643.93
464.44	2572.25
464.64	2729.94
464.85	2875.35
465.05	2674.65
465.25	2617.30
465.46	2625.50
465.66	2818.00
465.86	2789.33
466.07	2648.02
466.27	2727.89
466.47	2404.32
466.68	2488.28
466.88	2824.15
467.08	2832.34
467.29	2822.10
467.49	2719.70
467.69	2695.13
467.89	2799.57
468.10	2639.83
468.30	2707.41
468.50	2766.81
468.71	2981.84
468.91	2600.92
469.11	2799.57
469.31	2607.06
469.52	2619.35
469.72	2996.18
469.92	2883.54
470.13	2633.69
470.33	2787.29
470.53	2801.62
470.73	3030.99
470.94	3313.61
471.14	3373.00
471.34	3817.41
471.54	3629.00
471.75	3397.58
471.95	3135.44
472.15	3155.92
472.36	3170.26
472.56	3033.04
472.76	3133.39
472.96	3055.57
473.17	2893.78
473.37	2826.20
473.57	2734.04
473.77	2815.96
473.98	2731.99
474.18	2504.67
474.38	3162.06
474.58	2627.54
474.79	2555.86
474.99	2736.09
475.19	2975.70
475.39	2557.91
475.60	2781.14
475.80	2613.21
476.00	2783.19
476.20	2627.54
476.41	2668.50
476.61	2756.57
476.81	2942.93
477.01	2633.69
477.21	2895.83
477.42	2785.24
477.62	2551.77
477.82	2830.29
478.02	2609.11
478.23	2760.66
478.43	2592.73
478.63	2660.31
478.83	2668.50
479.03	2723.80
479.24	2932.69
479.44	2992.08
479.64	2578.39
479.84	2459.61
480.04	2576.34
480.25	2922.45
480.45	2594.78
480.65	2654.17
480.85	2996.18
481.06	2709.46
481.26	2768.85
481.46	2703.32
481.66	2801.62
481.86	2629.59
482.06	2809.81
482.27	2598.87
482.47	2678.74
482.67	2750.42
482.87	2656.22
483.07	2709.46
483.28	2658.26
483.48	2496.47
483.68	2688.98
483.88	2549.72
484.08	2482.14
484.29	2613.21
484.49	2654.17
484.69	2584.54
484.89	2977.75
485.09	2813.91
485.29	2697.17
485.50	2736.09
485.70	2682.84
485.90	2975.70
486.10	2693.08
486.30	2662.36
486.50	2922.45
486.71	2789.33
486.91	2715.61
487.11	2746.33
487.31	2557.91
487.51	2795.48
487.71	2672.60
487.91	2486.23
488.12	2566.10
488.32	2359.26
488.52	2637.78
488.72	2426.84
488.92	2752.47
489.12	2801.62
489.32	2764.76
489.53	2766.81
489.73	2471.90
489.93	3088.34
490.13	2617.30
490.33	2383.84
490.53	2793.43
490.73	2924.50
490.94	2445.27
491.14	2772.95
491.34	2838.48
491.54	2883.54
491.74	3465.16
491.94	4085.70
492.14	4362.17
492.34	4407.23
492.54	4200.38
492.75	3639.24
492.95	3571.66
493.15	3413.96
493.35	3227.60
493.55	3172.30
493.75	3160.02
493.95	3237.84
494.15	2879.44
494.35	2721.75
494.56	2631.64
494.76	2594.78
494.96	2783.19
495.16	2574.30
495.36	2734.04
495.56	2715.61
495.76	2703.32
495.96	2686.94
496.16	2609.11
496.36	2985.94
496.56	2596.82
496.77	2707.41
496.97	2662.36
497.17	2883.54
497.37	2500.57
497.57	2756.57
497.77	2815.96
497.97	2648.02
498.17	2705.37
498.37	2635.74
498.57	2766.81
498.77	2625.50
498.97	2734.04
499.17	2918.36
499.38	2652.12
499.58	2797.53
499.78	2856.92
499.98	2764.76
500.18	2666.46
500.38	2594.78
500.58	2932.69
500.78	3301.33
500.98	5341.10
501.18	7059.35
501.38	8677.24
501.58	9549.68
501.78	9342.83
501.98	7559.05
502.18	6498.20
502.38	5646.25
502.58	5380.01
502.78	4906.93
502.98	4585.40
503.18	4478.91
503.38	4091.84
503.59	3553.23
503.79	3450.83
503.99	3235.79
504.19	3149.78
504.39	3143.63
504.59	3110.86
504.79	3076.05
504.99	3155.92
505.19	2947.03
505.39	2807.77
505.59	2912.21
505.79	3020.75
505.99	2830.29
506.19	2715.61
506.39	2883.54
506.59	2602.97
506.79	2594.78
506.99	2850.77
507.19	2695.13
507.39	2744.28
507.59	2590.68
507.79	2637.78
507.99	2611.16
508.19	2631.64
508.39	2705.37
508.59	2729.94
508.79	2750.42
508.99	2969.55
509.19	2680.79
509.39	2752.47
509.59	2570.20
509.79	2639.83
509.99	2760.66
510.19	2867.16
510.39	2805.72
510.59	2703.32
510.79	2586.58
510.99	2564.06
511.19	2676.70
511.39	2953.17
511.59	2936.79
511.79	2736.09
511.99	2641.88
512.19	3047.38
512.38	2748.37
512.58	2668.50
512.78	2709.46
512.98	2879.44
513.18	2928.60
513.38	2512.86
513.58	2762.71
513.78	2738.13
513.98	2607.06
514.18	2650.07
514.38	2650.07
514.58	2824.15
514.78	2619.35
514.98	2578.39
515.18	2713.56
515.38	2600.92
515.58	2963.41
515.78	2605.02
515.98	2641.88
516.18	2865.11
516.38	2740.18
516.57	2592.73
516.77	2699.22
516.97	2834.39
517.17	2602.97
517.37	2430.94
517.57	2754.52
517.77	2676.70
517.97	2613.21
518.17	2801.62
518.37	2527.19
518.57	2629.59
518.77	2611.16
518.97	2637.78
519.16	2762.71
519.36	2830.29
519.56	2619.35
519.76	2643.93
519.96	2637.78
520.16	2891.73
520.36	2559.96
520.56	2768.85
520.76	2615.26
520.96	2760.66
521.16	2856.92
521.35	2940.88
521.55	2791.38
521.75	2713.56
521.95	2641.88
522.15	2680.79
522.35	2512.86
522.55	2611.16
522.75	2854.87
522.95	2605.02
523.14	2504.67
523.34	2777.05
523.54	2652.12
523.74	2736.09
523.94	2709.46
524.14	2594.78
524.34	2785.24
524.54	2834.39
524.73	2641.88
524.93	2684.89
525.13	2709.46
525.33	2531.29
525.53	2951.12
525.73	2815.96
525.93	2783.19
526.13	2615.26
526.32	2535.39
526.52	2957.27
526.72	2818.00
526.92	2619.35
527.12	2699.22
527.32	2592.73
527.52	2832.34
527.71	2684.89
527.91	2594.78
528.11	2613.21
528.31	2744.28
528.51	2533.34
528.71	2766.81
528.90	2830.29
529.10	2883.54
529.30	2756.57
529.50	2432.99
529.70	2760.66
529.90	2721.75
530.09	2637.78
530.29	2492.38
530.49	2586.58
530.69	3114.96
530.89	2631.64
531.09	2805.72
531.28	2615.26
531.48	2865.11
531.68	2652.12
531.88	2697.17
532.08	2820.05
532.28	2738.13
532.47	2797.53
532.67	2682.84
532.87	2805.72
533.07	2652.12
533.27	2760.66
533.46	2707.41
533.66	2820.05
533.86	2678.74
534.06	2684.89
534.26	2658.26
534.45	2629.59
534.65	2871.25
534.85	2686.94
535.05	2613.21
535.25	2908.12
535.44	2504.67
535.64	2783.19
535.84	2619.35
536.04	2602.97
536.24	2682.84
536.43	2619.35
536.63	2711.51
536.83	2748.37
537.03	2693.08
537.22	2490.33
537.42	2486.23
537.62	2801.62
537.82	2633.69
538.02	2818.00
538.21	2768.85
538.41	3123.15
538.61	2777.05
538.81	2686.94
539.00	2811.86
539.20	2609.11
539.40	2711.51
539.60	2629.59
539.79	2791.38
539.99	2693.08
540.19	2607.06
540.39	2650.07
540.58	2703.32
540.78	2863.06
540.98	2736.09
541.18	2818.00
541.37	2727.89
541.57	2793.43
541.77	2795.48
541.97	2572.25
542.16	2480.09
542.36	2635.74
542.56	2742.23
542.76	2842.58
542.95	2746.33
543.15	2777.05
543.35	2809.81
543.54	2566.10
543.74	2553.82
543.94	2963.41
544.14	2693.08
544.33	2754.52
544.53	2662.36
544.73	2678.74
544.93	2664.41
545.12	2619.35
545.32	2731.99
545.52	2707.41
545.71	2594.78
545.91	2627.54
546.11	2588.63
546.30	2555.86
546.50	2787.29
546.70	2678.74
546.90	2684.89
547.09	2578.39
547.29	2756.57
547.49	2807.77
547.68	2746.33
547.88	2570.20
548.08	2793.43
548.27	3053.52
548.47	2555.86
548.67	2533.34
548.87	2785.24
549.06	2592.73
549.26	2701.27
549.46	2846.68
549.65	2662.36
549.85	2656.22
550.05	2719.70
550.24	2457.56
550.44	2691.03
550.64	2691.03
550.83	2727.89
551.03	3028.95
551.23	2875.35
551.42	2682.84
551.62	2701.27
551.82	2695.13
552.01	2697.17
552.21	2897.88
552.41	2703.32
552.60	2936.79
552.80	2740.18
553.00	2602.97
553.19	2635.74
553.39	3006.42
553.59	2539.48
553.78	2764.76
553.98	2701.27
554.17	2629.59
554.37	2719.70
554.57	2736.09
554.76	2584.54
554.96	2656.22
555.16	2768.85
555.35	2680.79
555.55	2789.33
555.75	2787.29
555.94	2842.58
556.14	2471.90
556.33	2705.37
556.53	2764.76
556.73	2723.80
556.92	2787.29
557.12	2654.17
557.32	3006.42
557.51	2985.94
557.71	2770.90
557.90	2805.72
558.10	2983.89
558.30	2701.27
558.49	2693.08
558.69	2605.02
558.88	2850.77
559.08	2807.77
559.28	2678.74
559.47	2756.57
559.67	2777.05
559.86	3094.48
560.06	2525.15
560.26	2605.02
560.45	2760.66
560.65	2701.27
560.84	2856.92
561.04	2654.17
561.24	2768.85
561.43	2562.01
561.63	2836.44
561.82	2721.75
562.02	2852.82
562.22	2699.22
562.41	2555.86
562.61	2588.63
562.80	2570.20
563.00	3049.43
563.19	2721.75
563.39	2715.61
563.59	2844.63
563.78	2652.12
563.98	2373.60
564.17	2602.97
564.37	2527.19
564.56	2721.75
564.76	2572.25
564.96	2777.05
565.15	2752.47
565.35	3129.30
565.54	2584.54
565.74	2711.51
565.93	2746.33
566.13	2772.95
566.32	2793.43
566.52	2772.95
566.71	2777.05
566.91	2854.87
567.11	2775.00
567.30	2592.73
567.50	2795.48
567.69	2777.05
567.89	2643.93
568.08	2564.06
568.28	2801.62
568.47	2570.20
568.67	2676.70
568.86	2654.17
569.06	2858.96
569.25	2688.98
569.45	2572.25
569.64	2602.97
569.84	2703.32
570.04	2750.42
570.23	2596.82
570.43	2637.78
570.62	2715.61
570.82	2996.18
571.01	2541.53
571.21	2629.59
571.40	2621.40
571.60	2850.77
571.79	2719.70
571.99	2670.55
572.18	2570.20
572.38	2723.80
572.57	2719.70
572.77	2662.36
572.96	3184.59
573.16	2688.98
573.35	2660.31
573.55	2781.14
573.74	2826.20
573.94	2633.69
574.13	2703.32
574.33	2762.71
574.52	2942.93
574.71	2678.74
574.91	2652.12
575.10	2435.03
575.30	2643.93
575.49	2613.21
575.69	2543.58
575.88	2666.46
576.08	2666.46
576.27	2863.06
576.47	2605.02
576.66	2818.00
576.86	2947.03
577.05	2703.32
577.25	2748.37
577.44	2879.44
577.64	2645.98
577.83	2881.49
578.02	2676.70
578.22	2775.00
578.41	3022.80
578.61	2721.75
578.80	2490.33
579.00	2568.15
579.19	2736.09
579.39	2795.48
579.58	2740.18
579.77	2711.51
579.97	2924.50
580.16	2797.53
580.36	2797.53
580.55	2852.82
580.75	2809.81
580.94	2727.89
581.13	2891.73
581.33	2869.20
581.52	2740.18
581.72	3028.95
581.91	2779.09
582.11	2611.16
582.30	2818.00
582.49	2750.42
582.69	2951.12
582.88	2707.41
583.08	2772.95
583.27	2867.16
583.47	2738.13
583.66	2617.30
583.85	2605.02
584.05	2695.13
584.24	2772.95
584.44	2752.47
584.63	2861.01
584.82	2916.31
585.02	2873.30
585.21	2729.94
585.41	2809.81
585.60	2828.24
585.79	3047.38
585.99	2906.07
586.18	2803.67
586.37	3545.03
586.57	5431.21
586.76	15865.61
586.96	34956.78
587.15	48178.46
587.34	56956.06
587.54	60712.03
587.73	54699.20
587.93	38407.61
588.12	29175.36
588.31	23658.14
588.51	20911.81
588.70	19310.30
588.89	17141.50
589.09	14587.68
589.28	12482.37
589.47	9809.77
589.67	7491.47
589.86	5867.43
590.06	4583.35
590.25	3874.76
590.44	3444.68
590.64	3114.96
590.83	3012.56
591.02	3028.95
591.22	2723.80
591.41	2791.38
591.60	2762.71
591.80	3063.76
591.99	2572.25
592.18	2641.88
592.38	2865.11
592.57	2639.83
592.76	2686.94
592.96	2801.62
593.15	2746.33
593.34	2940.88
593.54	2611.16
593.73	2754.52
593.92	2805.72
594.12	2846.68
594.31	2830.29
594.50	2787.29
594.70	2846.68
594.89	3182.54
595.08	2547.67
595.28	2858.96
595.47	3188.69
595.66	2912.21
595.86	2572.25
596.05	2629.59
596.24	2764.76
596.43	2985.94
596.63	2797.53
596.82	2777.05
597.01	2803.67
597.21	2977.75
597.40	2686.94
597.59	2756.57
597.79	2711.51
597.98	2877.40
598.17	2684.89
598.36	2686.94
598.56	2885.59
598.75	2674.65
598.94	2711.51
599.14	2695.13
599.33	2596.82
599.52	2805.72
599.71	2693.08
599.91	2684.89
600.10	2818.00
600.29	2713.56
600.48	2777.05
600.68	2772.95
600.87	2846.68
601.06	2664.41
601.26	2688.98
601.45	2729.94
601.64	2598.87
601.83	2957.27
602.03	2605.02
602.22	2580.44
602.41	2838.48
602.60	3069.91
602.80	2824.15
602.99	2695.13
603.18	2621.40
603.37	2713.56
603.57	2650.07
603.76	2756.57
603.95	2863.06
604.14	2660.31
604.34	2645.98
604.53	2678.74
604.72	2793.43
604.91	2912.21
605.10	2750.42
605.30	2555.86
605.49	3160.02
605.68	2734.04
605.87	2621.40
606.07	2551.77
606.26	2768.85
606.45	2809.81
606.64	2645.98
606.84	2580.44
607.03	2664.41
607.22	2832.34
607.41	2740.18
607.60	2693.08
607.80	2854.87
607.99	2758.61
608.18	2637.78
608.37	2641.88
608.56	2693.08
608.76	2940.88
608.95	2854.87
609.14	2668.50
609.33	2916.31
609.52	3020.75
609.72	2725.85
609.91	2815.96
610.10	2762.71
610.29	2985.94
610.48	2787.29
610.68	2760.66
610.87	2658.26
611.06	2873.30
611.25	2678.74
611.44	2772.95
611.63	2668.50
611.83	2873.30
612.02	2572.25
612.21	2858.96
612.40	2535.39
612.59	2629.59
612.79	2643.93
612.98	2648.02
613.17	3061.71
613.36	2719.70
613.55	2801.62
613.74	2611.16
613.93	2777.05
614.13	2719.70
614.32	2908.12
614.51	2762.71
614.70	2738.13
614.89	2721.75
615.08	2740.18
615.28	3041.23
615.47	2637.78
615.66	2871.25
615.85	2654.17
616.04	2801.62
616.23	2736.09
616.42	2764.76
616.62	2688.98
616.81	2611.16
617.00	2748.37
617.19	2836.44
617.38	2607.06
617.57	2719.70
617.76	2770.90
617.95	2791.38
618.15	2818.00
618.34	2924.50
618.53	2547.67
618.72	2897.88
618.91	2883.54
619.10	2807.77
619.29	2807.77
619.48	2707.41
619.68	2551.77
619.87	2625.50
620.06	2580.44
620.25	2758.61
620.44	2602.97
620.63	2648.02
620.82	2740.18
621.01	2781.14
621.20	2627.54
621.39	2736.09
621.59	2850.77
621.78	2701.27
621.97	2670.55
622.16	2811.86
622.35	2777.05
622.54	2813.91
622.73	2721.75
622.92	2510.81
623.11	2996.18
623.30	2664.41
623.49	2738.13
623.68	2541.53
623.88	2904.02
624.07	2746.33
624.26	2662.36
624.45	2631.64
624.64	2695.13
624.83	2725.85
625.02	2594.78
625.21	2686.94
625.40	2756.57
625.59	2973.65
625.78	2738.13
625.97	2764.76
626.16	2897.88
626.35	2904.02
626.54	2609.11
626.74	2793.43
626.93	2637.78
627.12	2764.76
627.31	2768.85
627.50	2789.33
627.69	2897.88
627.88	2543.58
628.07	2613.21
628.26	2486.23
628.45	2654.17
628.64	2568.15
628.83	2594.78
629.02	2543.58
629.21	2824.15
629.40	2756.57
629.59	2600.92
629.78	2584.54
629.97	2756.57
630.16	2686.94
630.35	2674.65
630.54	2650.07
630.73	2693.08
630.92	2746.33
631.11	2621.40
631.30	2766.81
631.49	2805.72
631.68	2680.79
631.87	2760.66
632.06	2607.06
632.25	3074.00
632.44	2781.14
632.63	2750.42
632.82	2678.74
633.01	2641.88
633.20	2731.99
633.39	2615.26
633.58	2445.27
633.77	2781.14
633.96	2805.72
634.15	2762.71
634.34	2723.80
634.53	2844.63
634.72	2637.78
634.91	2519.00
635.10	2658.26
635.29	2832.34
635.48	2826.20
635.67	2562.01
635.86	2547.67
636.05	2955.22
636.24	2656.22
636.43	2654.17
636.62	2682.84
636.81	2455.51
637.00	2707.41
637.19	2723.80
637.38	2695.13
637.57	2668.50
637.76	2686.94
637.95	2826.20
638.14	2723.80
638.33	2725.85
638.52	2805.72
638.71	2566.10
638.89	2553.82
639.08	3059.67
639.27	2883.54
639.46	2873.30
639.65	3157.97
639.84	3127.25
640.03	3323.85
640.22	3090.38
640.41	3160.02
640.60	2856.92
640.79	2899.92
640.98	2795.48
641.17	2904.02
641.36	2922.45
641.55	2871.25
641.74	2617.30
641.92	2635.74
642.11	2658.26
642.30	2652.12
642.49	2615.26
642.68	2570.20
642.87	2713.56
643.06	2861.01
643.25	2600.92
643.44	2537.43
643.63	2664.41
643.82	2824.15
644.00	2516.95
644.19	2691.03
644.38	2625.50
644.57	2863.06
644.76	2699.22
644.95	2594.78
645.14	2727.89
645.33	2688.98
645.52	2701.27
645.71	2480.09
645.89	2623.45
646.08	2725.85
646.27	2701.27
646.46	2891.73
646.65	2471.90
646.84	2691.03
647.03	2547.67
647.22	2801.62
647.40	2764.76
647.59	2721.75
647.78	2447.32
647.97	2637.78
648.16	2611.16
648.35	2918.36
648.54	2795.48
648.73	2654.17
648.91	2867.16
649.10	2705.37
649.29	2566.10
649.48	2682.84
649.67	2766.81
649.86	2658.26
650.05	2645.98
650.23	2942.93
650.42	2697.17
650.61	2899.92
650.80	2891.73
650.99	2928.60
651.18	2949.08
651.36	2914.26
651.55	2594.78
651.74	2740.18
651.93	2682.84
652.12	2725.85
652.31	2666.46
652.49	2598.87
652.68	2641.88
652.87	2938.84
653.06	2707.41
653.25	2947.03
653.44	2709.46
653.62	2926.55
653.81	2666.46
654.00	2760.66
654.19	2770.90
654.38	3200.98
654.56	2740.18
654.75	2607.06
654.94	2858.96
655.13	2777.05
655.32	2576.34
655.51	2713.56
655.69	2672.60
655.88	2779.09
656.07	2535.39
656.26	2623.45
656.45	2598.87
656.63	2744.28
656.82	2711.51
657.01	2791.38
657.20	2652.12
657.38	2926.55
657.57	2625.50
657.76	2516.95
657.95	2836.44
658.14	2643.93
658.32	2742.23
658.51	2478.04
658.70	2738.13
658.89	2760.66
659.08	2676.70
659.26	2867.16
659.45	2568.15
659.64	2875.35
659.83	2609.11
660.01	3008.47
660.20	2795.48
660.39	2961.36
660.58	2402.27
660.76	2736.09
660.95	2504.67
661.14	2717.65
661.33	2484.19
661.51	2594.78
661.70	2686.94
661.89	2764.76
662.08	2717.65
662.26	2500.57
662.45	2564.06
662.64	3028.95
662.83	2736.09
663.01	2541.53
663.20	2654.17
663.39	2928.60
663.58	2611.16
663.76	2613.21
663.95	2861.01
664.14	2551.77
664.32	2760.66
664.51	2527.19
664.70	2353.12
664.89	2770.90
665.07	2592.73
665.26	2791.38
665.45	2529.24
665.64	2775.00
665.82	2592.73
666.01	2791.38
666.20	2529.24
666.38	2893.78
666.57	2797.53
666.76	4124.61
666.95	9740.14
667.13	16992.00
667.32	21049.02
667.51	23897.75
667.69	24884.87
667.88	21485.24
668.07	15161.11
668.25	12703.55
668.44	10862.43
668.63	9482.10
668.81	8492.93
669.00	7323.54
669.19	6530.97
669.38	5828.52
669.56	5007.28
669.75	4229.06
669.94	3700.68
670.12	3295.18
670.31	2996.18
670.50	2920.40
670.68	2820.05
670.87	2863.06
671.06	2717.65
671.24	2666.46
671.43	2940.88
671.62	2764.76
671.80	2678.74
671.99	2729.94
672.18	2760.66
672.36	2887.64
672.55	2744.28
672.74	2688.98
672.92	2668.50
673.11	2834.39
673.29	2514.91
673.48	2834.39
673.67	2691.03
673.85	2809.81
674.04	2572.25
674.23	2656.22
674.41	2973.65
674.60	2572.25
674.79	2467.80
674.97	2547.67
675.16	2791.38
675.34	2801.62
675.53	2652.12
675.72	2746.33
675.90	2969.55
676.09	2643.93
676.28	2695.13
676.46	2492.38
676.65	2881.49
676.83	2506.71
677.02	2686.94
677.21	2686.94
677.39	2785.24
677.58	2611.16
677.77	2578.39
677.95	2596.82
678.14	2744.28
678.32	2674.65
678.51	2652.12
678.70	2996.18
678.88	2623.45
679.07	2695.13
679.25	2629.59
679.44	2680.79
679.63	2531.29
679.81	2734.04
680.00	2861.01
680.18	2645.98
680.37	2994.13
680.55	2756.57
680.74	2428.89
680.93	2432.99
681.11	2756.57
681.30	2803.67
681.48	2719.70
681.67	2607.06
681.85	2746.33
682.04	2566.10
682.23	2748.37
682.41	2670.55
682.60	2731.99
682.78	2713.56
682.97	2580.44
683.15	2779.09
683.34	2826.20
683.53	2871.25
683.71	2478.04
683.90	2777.05
684.08	2957.27
684.27	2707.41
684.45	2734.04
684.64	2865.11
684.82	2727.89
685.01	2867.16
685.19	2701.27
685.38	2850.77
685.57	2668.50
685.75	2672.60
685.94	2656.22
686.12	2582.49
686.31	2572.25
686.49	2867.16
686.68	2502.62
686.86	2639.83
687.05	2695.13
687.23	2918.36
687.42	2656.22
687.60	2478.04
687.79	2820.05
687.97	2959.31
688.16	2768.85
688.34	2781.14
688.53	2545.63
688.71	2727.89
688.90	2830.29
689.08	2602.97
689.27	2502.62
689.45	2797.53
689.64	2793.43
689.82	2645.98
690.01	2779.09
690.19	2791.38
690.38	2670.55
690.56	2746.33
690.75	2621.40
690.93	2621.40
691.12	2611.16
691.30	2721.75
691.49	2592.73
691.67	2580.44
691.86	2944.98
692.04	2648.02
692.23	2674.65
692.41	2760.66
692.60	2953.17
692.78	2910.16
692.97	2693.08
693.15	2795.48
693.34	2815.96
693.52	2830.29
693.71	2641.88
693.89	2705.37
694.08	2459.61
694.26	2725.85
694.44	2844.63
694.63	2824.15
694.81	2523.10
695.00	2625.50
695.18	2889.68
695.37	3100.62
695.55	2791.38
695.74	2684.89
695.92	2625.50
696.10	2953.17
696.29	2504.67
696.47	2680.79
696.66	2578.39
696.84	2623.45
697.03	2715.61
697.21	2924.50
697.40	4173.76
697.58	2924.50
697.76	2619.35
697.95	2658.26
698.13	2582.49
698.32	2668.50
698.50	2654.17
698.68	2719.70
698.87	2779.09
699.05	2955.22
699.24	2678.74
699.42	2574.30
699.61	2719.70
699.79	2777.05
699.97	2682.84
700.16	2529.24
700.34	2607.06
700.53	2699.22
700.71	2805.72
700.89	2807.77
701.08	2731.99
701.26	2777.05
701.45	3225.55
701.63	2615.26
701.81	2633.69
702.00	2562.01
702.18	2709.46
702.37	2629.59
702.55	2889.68
702.73	2752.47
702.92	2684.89
703.10	2967.51
703.28	2936.79
703.47	2660.31
703.65	2791.38
703.84	2824.15
704.02	2787.29
704.20	3008.47
704.39	2598.87
704.57	2662.36
704.75	2830.29
704.94	2836.44
705.12	2740.18
705.30	3143.63
705.49	5797.80
705.67	11667.28
705.86	17446.65
706.04	20047.57
706.22	22431.40
706.41	22376.11
706.59	17460.98
706.77	13276.98
706.96	11327.32
707.14	10389.35
707.32	8914.81
707.51	7950.21
707.69	6420.38
707.87	5312.43
708.06	4364.22
708.24	3831.75
708.42	3325.90
708.61	3422.16
708.79	2699.22
708.97	2666.46
709.16	2883.54
709.34	2813.91
709.52	2723.80
709.71	2688.98
709.89	2850.77
710.07	2557.91
710.26	2549.72
710.44	2639.83
710.62	2875.35
710.80	2721.75
710.99	2744.28
711.17	2820.05
711.35	2592.73
711.54	2715.61
711.72	2834.39
711.90	2736.09
712.09	2750.42
712.27	2609.11
712.45	2799.57
712.63	2635.74
712.82	2731.99
713.00	2682.84
713.18	2711.51
713.37	2824.15
713.55	2840.53
713.73	2799.57
713.91	2709.46
714.10	2650.07
714.28	2619.35
714.46	2777.05
714.65	2725.85
714.83	2723.80
715.01	2731.99
715.19	2709.46
715.38	2629.59
715.56	2760.66
715.74	2758.61
715.92	2617.30
716.11	2889.68
716.29	2445.27
716.47	2686.94
716.65	2693.08
716.84	2490.33
717.02	2709.46
717.20	2482.14
717.38	2592.73
717.57	2777.05
717.75	2660.31
717.93	2637.78
718.11	2811.86
718.30	2471.90
718.48	2715.61
718.66	2834.39
718.84	2959.31
719.03	2688.98
719.21	2541.53
719.39	2949.08
719.57	2811.86
719.75	2775.00
719.94	2637.78
720.12	2658.26
720.30	2756.57
720.48	2809.81
720.67	2605.02
720.85	2643.93
721.03	2625.50
721.21	2594.78
721.39	2830.29
721.58	2727.89
721.76	2748.37
721.94	2703.32
722.12	2822.10
722.30	2949.08
722.49	2666.46
722.67	2688.98
722.85	2688.98
723.03	2449.37
723.21	2643.93
723.40	2697.17
723.58	2750.42
723.76	2848.72
723.94	2924.50
724.12	2740.18
724.30	2930.64
724.49	2840.53
724.67	2598.87
724.85	2791.38
725.03	2506.71
725.21	2777.05
725.40	2891.73
725.58	2605.02
725.76	2813.91
725.94	2752.47
726.12	2568.15
726.30	2719.70
726.49	2623.45
726.67	2707.41
726.85	2824.15
727.03	3012.56
727.21	4124.61
727.39	5265.33
727.57	5676.97
727.76	6119.33
727.94	6186.91
728.12	5595.05
728.30	4487.10
728.48	4321.21
728.66	3944.39
728.84	3745.73
729.03	3235.79
729.21	3166.16
729.39	2969.55
729.57	2815.96
729.75	2873.30
729.93	2756.57
730.11	2590.68
730.30	2666.46
730.48	2684.89
730.66	2815.96
730.84	2711.51
731.02	2795.48
731.20	2682.84
731.38	2662.36
731.56	2500.57
731.74	2553.82
731.93	2793.43
732.11	2662.36
732.29	2695.13
732.47	2805.72
732.65	2709.46
732.83	2869.20
733.01	2740.18
733.19	2602.97
733.37	2834.39
733.56	2699.22
733.74	2621.40
733.92	2891.73
734.10	2695.13
734.28	2846.68
734.46	2465.75
734.64	2645.98
734.82	2621.40
735.00	2529.24
735.18	2613.21
735.36	2691.03
735.54	2686.94
735.73	2695.13
735.91	2703.32
736.09	2965.46
736.27	2793.43
736.45	2713.56
736.63	2414.56
736.81	2639.83
736.99	2865.11
737.17	2811.86
737.35	2654.17
737.53	2693.08
737.71	2682.84
737.89	2815.96
738.07	2588.63
738.25	2588.63
738.43	2506.71
738.61	2652.12
738.80	2555.86
738.98	2643.93
739.16	2684.89
739.34	2574.30
739.52	2863.06
739.70	2660.31
739.88	2779.09
740.06	2844.63
740.24	2478.04
740.42	2846.68
740.60	2523.10
740.78	2623.45
740.96	2381.79
741.14	2617.30
741.32	2662.36
741.50	2521.05
741.68	2965.46
741.86	2858.96
742.04	2547.67
742.22	2504.67
742.40	2719.70
742.58	2787.29
742.76	2619.35
742.94	2840.53
743.12	2475.99
743.30	2740.18
743.48	2822.10
743.66	2619.35
743.84	2711.51
744.02	2672.60
744.20	2602.97
744.38	2650.07
744.56	2643.93
744.74	2973.65
744.92	2781.14
745.10	2908.12
745.28	2701.27
745.46	2846.68
745.64	2707.41
745.82	2729.94
746.00	2691.03
746.18	2783.19
746.36	2621.40
746.54	2717.65
746.72	2691.03
746.90	2576.34
747.08	2863.06
747.26	2703.32
747.44	2818.00
747.62	2781.14
747.80	2750.42
747.98	2768.85
748.15	2613.21
748.33	3059.67
748.51	2850.77
748.69	2731.99
748.87	2496.47
749.05	2680.79
749.23	2615.26
749.41	2719.70
749.59	2584.54
749.77	2881.49
749.95	2688.98
750.13	2547.67
750.31	2719.70
750.49	2672.60
750.67	2795.48
750.85	2893.78
751.03	2676.70
751.20	3104.72
751.38	2766.81
751.56	2648.02
751.74	2674.65
751.92	2664.41
752.10	2576.34
752.28	2858.96
752.46	2592.73
752.64	2721.75
752.82	2723.80
753.00	2768.85
753.18	2607.06
753.35	2701.27
753.53	2684.89
753.71	2641.88
753.89	2670.55
754.07	2766.81
754.25	2768.85
754.43	2828.24
754.61	2506.71
754.79	2775.00
754.97	2703.32
755.14	2848.72
755.32	2543.58
755.50	2772.95
755.68	2809.81
755.86	2607.06
756.04	2637.78
756.22	2428.89
756.40	2813.91
756.57	2936.79
756.75	2562.01
756.93	2895.83
757.11	2848.72
757.29	2527.19
757.47	2559.96
757.65	2539.48
757.82	2420.70
758.00	2555.86
758.18	2568.15
758.36	2512.86
758.54	2959.31
758.72	2455.51
758.90	2760.66
759.07	2850.77
759.25	2506.71
759.43	2742.23
759.61	2430.94
759.79	3921.86
759.97	2805.72
760.15	2643.93
760.32	2660.31
760.50	2731.99
760.68	2924.50
760.86	2525.15
761.04	2944.98
761.22	2813.91
761.39	2775.00
761.57	2701.27
761.75	2658.26
761.93	2811.86
762.11	2635.74
762.28	2721.75
762.46	2512.86
762.64	2881.49
762.82	2527.19
763.00	2625.50
763.18	2846.68
763.35	2521.05
763.53	2820.05
763.71	2664.41
763.89	2656.22
764.07	2676.70
764.24	2785.24
764.42	2752.47
764.60	2658.26
764.78	2809.81
764.96	2801.62
765.13	2742.23
765.31	2555.86
765.49	2813.91
765.67	2588.63
765.84	2521.05
766.02	2680.79
766.20	2490.33
766.38	2742.23
766.56	2777.05
766.73	2744.28
766.91	2703.32
767.09	2654.17
767.27	2740.18
767.44	2529.24
767.62	2873.30
767.80	2789.33
767.98	2584.54
768.15	2674.65
768.33	2811.86
768.51	2770.90
768.69	2785.24
768.87	2666.46
769.04	2772.95
769.22	3016.66
769.40	2711.51
769.58	2912.21
769.75	2805.72
769.93	2887.64
770.11	2656.22
770.28	2559.96
770.46	2801.62
770.64	2750.42
770.82	2641.88
770.99	2623.45
771.17	2873.30
771.35	2705.37
771.53	2684.89
771.70	2574.30
771.88	2826.20
772.06	2727.89
772.23	2602.97
772.41	2699.22
772.59	2662.36
772.77	2519.00
772.94	2762.71
773.12	2770.90
773.30	2602.97
773.47	2760.66
773.65	2584.54
773.83	2789.33
774.01	2783.19
774.18	2473.95
774.36	2664.41
774.54	2465.75
774.71	2789.33
774.89	2445.27
775.07	2559.96
775.24	2580.44
775.42	2680.79
775.60	2985.94
775.78	2641.88
775.95	2543.58
776.13	2422.75
776.31	2453.47
776.48	2713.56
776.66	2848.72
776.84	2668.50
777.01	2588.63
777.19	2547.67
777.37	2621.40
777.54	2867.16
777.72	3098.58
777.90	2736.09
778.07	2496.47
778.25	3129.30
778.43	2889.68
778.60	2557.91
778.78	2746.33
778.96	2885.59
779.13	2584.54
779.31	2783.19
779.49	2602.97
779.66	2695.13
779.84	2684.89
780.01	2666.46
780.19	2584.54
780.37	2916.31
780.54	2832.34
780.72	2455.51
780.90	2623.45
781.07	2719.70
781.25	2611.16
781.43	2850.77
781.60	2637.78
781.78	2926.55
781.95	2789.33
782.13	2584.54
782.31	2693.08
782.48	2531.29
782.66	2793.43
782.83	2871.25
783.01	2740.18
783.19	2850.77
783.36	2750.42
783.54	2617.30
783.72	2793.43
783.89	2654.17
784.07	2801.62
784.24	2727.89
784.42	2822.10
784.60	2762.71
784.77	2721.75
784.95	2392.03
785.12	2596.82
785.30	2688.98
785.47	2611.16
785.65	2615.26
785.83	2639.83
786.00	2627.54
786.18	2736.09
786.35	2496.47
786.53	2553.82
786.71	2783.19
786.88	2834.39
787.06	2652.12
787.23	2650.07
787.41	2580.44
787.58	2639.83
787.76	2633.69
787.94	2619.35
788.11	2770.90
788.29	2613.21
788.46	2539.48
788.64	2500.57
788.81	2658.26
788.99	2504.67
789.16	2607.06
789.34	2582.49
789.52	2652.12
789.69	2629.59
789.87	2496.47
790.04	2590.68
790.22	2727.89
790.39	3067.86
790.57	2621.40
790.74	2602.97
790.92	2772.95
791.09	2508.76
791.27	2631.64
791.44	2734.04
791.62	2596.82
791.79	2830.29
791.97	2719.70
792.15	2969.55
792.32	2785.24
792.50	2805.72
792.67	2813.91
792.85	2877.40
793.02	2801.62
793.20	2602.97
793.37	2553.82
793.55	2609.11
793.72	2506.71
793.90	2801.62
794.07	2525.15
794.25	2621.40
794.42	2750.42
794.60	2637.78
794.77	2719.70
794.95	2750.42
795.12	2858.96
795.30	2674.65
795.47	2506.71
795.65	2990.03
795.82	2818.00
796.00	2525.15
796.17	2666.46
796.34	2508.76
796.52	2686.94
796.69	2863.06
796.87	2813.91
797.04	2684.89
797.22	2818.00
797.39	2682.84
797.57	2678.74
797.74	2705.37
797.92	2734.04
798.09	2643.93
798.27	2736.09
798.44	2668.50
798.62	2627.54
798.79	2779.09
798.96	2666.46
799.14	2625.50
799.31	3078.10
799.49	2645.98
799.66	2592.73
799.84	2641.88
800.01	2543.58
800.19	2807.77
800.36	2451.42
800.53	2697.17
800.71	2854.87
800.88	2996.18
801.06	2635.74
801.23	2592.73
801.41	2650.07
801.58	2684.89
801.75	2600.92
801.93	2695.13
802.10	2815.96
802.28	2670.55
802.45	2625.50
802.63	2766.81
802.80	2977.75
802.97	2645.98
803.15	2703.32
803.32	2639.83
803.50	2605.02
803.67	2641.88
803.84	2473.95
804.02	2725.85
804.19	2631.64
804.37	2416.60
804.54	2465.75
804.71	2598.87
804.89	2695.13
805.06	2580.44
805.24	2557.91
805.41	2430.94
805.58	2588.63
805.76	3184.59
805.93	2684.89
806.10	2777.05
806.28	2742.23
806.45	2768.85
806.63	2820.05
806.80	2731.99
806.97	2752.47
807.15	2746.33
807.32	2699.22
807.49	2705.37
807.67	2525.15
807.84	2775.00
808.01	2498.52
808.19	2838.48
808.36	2953.17
808.54	2650.07
808.71	2598.87
808.88	2658.26
809.06	2838.48
809.23	2942.93
809.40	2523.10
809.58	2699.22
809.75	2779.09
809.92	2519.00
810.10	2910.16
810.27	2619.35
810.44	2846.68
810.62	2863.06
810.79	2736.09
810.96	2615.26
811.14	2629.59
811.31	2713.56
811.48	2854.87
811.66	2623.45
811.83	2842.58
812.00	2785.24
812.18	2746.33
812.35	2932.69
812.52	2744.28
812.69	2666.46
812.87	2613.21
813.04	2592.73
813.21	2723.80
813.39	2521.05
813.56	2639.83
813.73	2842.58
813.91	2486.23
814.08	2818.00
814.25	2740.18
814.42	2512.86
814.60	2705.37
814.77	2742.23
814.94	2650.07
815.12	2682.84
815.29	2912.21
815.46	2562.01
815.63	2715.61
815.81	2668.50
815.98	2617.30
816.15	2621.40
816.33	2699.22
816.50	2658.26
816.67	2686.94
816.84	2705.37
817.02	2592.73
817.19	2656.22
817.36	2777.05
817.53	2725.85
817.71	2539.48
817.88	2719.70
818.05	2648.02
818.22	2674.65
818.40	2848.72
818.57	2572.25
818.74	2785.24
818.91	2766.81
819.09	2789.33
819.26	2721.75
819.43	2613.21
819.60	2607.06
819.78	2754.52
819.95	2727.89
820.12	2607.06
820.29	2867.16
820.47	2858.96
820.64	2627.54
820.81	2496.47
820.98	2555.86
821.15	2635.74
821.33	2791.38
821.50	2527.19
821.67	2795.48
821.84	2691.03
822.02	2713.56
822.19	2869.20
822.36	2727.89
822.53	2656.22
822.70	2562.01
822.88	2637.78
823.05	2893.78
823.22	2693.08
823.39	2723.80
823.56	2709.46
823.74	3006.42
823.91	2539.48
824.08	2545.63
824.25	2586.58
824.42	2979.79
824.60	2437.08
824.77	2736.09
824.94	2686.94
825.11	2813.91
825.28	2510.81
825.45	2723.80
825.63	2693.08
825.80	2633.69
825.97	2637.78
826.14	2672.60
826.31	2428.89
826.48	2764.76
826.66	2598.87
826.83	2635.74
827.00	2668.50
827.17	2605.02
827.34	2662.36
827.51	2570.20
827.69	2621.40
827.86	2631.64
828.03	2734.04
828.20	2676.70
828.37	2656.22
828.54	2785.24
828.71	2543.58
828.89	2865.11
829.06	2715.61
829.23	2850.77
829.40	2559.96
829.57	2611.16
829.74	2852.82
829.91	2617.30
830.09	2594.78
830.26	2711.51
830.43	3002.32
830.60	2676.70
830.77	2707.41
830.94	2828.24
831.11	2787.29
831.28	2645.98
831.46	2772.95
831.63	2596.82
831.80	2885.59
831.97	2531.29
832.14	2695.13
832.31	2725.85
832.48	2711.51
832.65	2938.84
832.82	2693.08
832.99	2674.65
833.17	2543.58
833.34	2998.23
833.51	2707.41
833.68	2379.74
833.85	2801.62
834.02	2584.54
834.19	2625.50
834.36	2615.26
834.53	2789.33
834.70	2848.72
834.87	2682.84
835.04	2621.40
835.22	2512.86
835.39	2662.36
835.56	2498.52
835.73	2594.78
835.90	2875.35
836.07	2570.20
836.24	2609.11
836.41	2531.29
836.58	2527.19
836.75	2908.12
836.92	2627.54
837.09	2482.14
837.26	2826.20
837.43	2703.32
837.60	2559.96
837.77	2582.49
837.94	2838.48
838.12	2838.48
838.29	2500.57
838.46	2416.60
838.63	2539.48
838.80	3024.85
838.97	2596.82
839.14	2588.63
839.31	2711.51
839.48	2883.54
839.65	2500.57
839.82	2654.17
839.99	2756.57
840.16	2693.08
840.33	2531.29
840.50	2527.19
840.67	2584.54
840.84	2316.25
841.01	2514.91
841.18	2467.80
841.35	2678.74
841.52	2815.96
841.69	2848.72
841.86	2611.16
842.03	2727.89
842.20	2764.76
842.37	2555.86
842.54	2543.58
842.71	2725.85
842.88	2500.57
843.05	2586.58
843.22	2609.11
843.39	2863.06
843.56	2578.39
843.73	2568.15
843.90	2633.69
844.07	2658.26
844.24	2756.57
844.41	2693.08
844.58	2666.46
844.75	2697.17
844.92	2775.00
845.09	2576.34
845.26	2496.47
845.43	2844.63
845.60	2643.93
845.77	2623.45
845.94	2684.89
846.10	2881.49
846.27	2533.34
846.44	2463.71
846.61	2486.23
846.78	2826.20
846.95	2893.78
847.12	2473.95
847.29	2496.47
847.46	2678.74
847.63	2838.48
847.80	2467.80
847.97	2613.21
848.14	3018.71
848.31	2691.03
848.48	2459.61
848.65	2574.30
848.82	2611.16
848.98	3022.80
849.15	2650.07
849.32	2656.22
849.49	2815.96
849.66	2756.57
849.83	2508.76
850.00	2471.90
850.17	2750.42
850.34	2787.29
850.51	2502.62
850.68	2541.53
850.85	3049.43
851.01	2731.99
851.18	2564.06
851.35	2650.07
851.52	2752.47
851.69	2908.12
851.86	2498.52
852.03	2553.82
852.20	2850.77
852.37	2648.02
852.53	2449.37
852.70	2523.10
852.87	2742.23
853.04	2832.34
853.21	2633.69
853.38	2746.33
853.55	2928.60
853.72	2861.01
853.89	2555.86
854.05	2586.58
854.22	2670.55
854.39	2652.12
854.56	2527.19
854.73	2701.27
854.90	2547.67
855.07	2656.22
855.23	2414.56
855.40	2572.25
855.57	2660.31
855.74	2488.28
855.91	2723.80
856.08	2457.56
856.25	2529.24
856.41	2584.54
856.58	2613.21
856.75	2590.68
856.92	2570.20
857.09	2760.66
857.26	2449.37
857.42	2566.10
857.59	2779.09
857.76	2621.40
857.93	2525.15
858.10	2607.06
858.27	2598.87
858.43	2721.75
858.60	2447.32
858.77	2428.89
858.94	2656.22
859.11	2793.43
859.27	2627.54
859.44	2535.39
859.61	3008.47
859.78	2781.14
859.95	2547.67
860.12	2510.81
860.28	3006.42
860.45	3010.51
860.62	2482.14
860.79	2666.46
860.95	2721.75
861.12	2637.78
861.29	2492.38
861.46	2459.61
861.63	2731.99
861.79	2697.17
861.96	2420.70
862.13	2566.10
862.30	2949.08
862.47	2564.06
862.63	2519.00
862.80	2584.54
862.97	2797.53
863.14	2758.61
863.30	2578.39
863.47	2549.72
863.64	2930.64
863.81	2643.93
863.97	2459.61
864.14	2650.07
864.31	2654.17
864.48	2734.04
864.65	2559.96
864.81	2729.94
864.98	2785.24
865.15	2805.72
865.32	2613.21
865.48	2631.64
865.65	2955.22
865.82	2605.02
865.98	2566.10
866.15	2678.74
866.32	2625.50
866.49	2693.08
866.65	2695.13
866.82	2574.30
866.99	2727.89
867.16	2584.54
867.32	2605.02
867.49	2465.75
867.66	2615.26
867.83	2592.73
867.99	2478.04
868.16	2570.20
868.33	2586.58
868.49	2746.33
868.66	2521.05
868.83	2600.92
868.99	2736.09
869.16	2746.33
869.33	2717.65
869.50	2586.58
869.66	2731.99
869.83	2658.26
870.00	2482.14
870.16	2670.55
870.33	2678.74
870.50	2844.63
870.66	2645.98
870.83	2641.88
871.00	2731.99
871.17	2805.72
871.33	2637.78
871.50	2523.10
871.67	2711.51
871.83	2762.71
872.00	2691.03
872.17	2559.96
872.33	3000.27
872.50	2906.07
872.67	2512.86
872.83	2615.26
873.00	2805.72
873.17	2629.59
873.33	2568.15
873.50	2602.97
873.67	2617.30
873.83	2557.91
874.00	2592.73
874.16	2678.74
874.33	2719.70
874.50	2559.96
874.66	2555.86
874.83	2580.44
875.00	2789.33
875.16	2781.14
875.33	2664.41
875.50	2330.59
875.66	2668.50
875.83	2705.37
875.99	2658.26
876.16	2609.11
876.33	2592.73
876.49	2666.46
876.66	2674.65
876.83	2574.30
876.99	2471.90
877.16	2684.89
877.32	2445.27
877.49	2596.82
877.66	2818.00
877.82	2924.50
877.99	2598.87
878.15	2746.33
878.32	2719.70
878.49	2723.80
878.65	2619.35
878.82	2752.47
878.98	2715.61
879.15	2754.52
879.32	2660.31
879.48	2652.12
879.65	2676.70
879.81	2691.03
879.98	2580.44
880.15	2615.26
880.31	2752.47
880.48	2566.10
880.64	2629.59
880.81	2645.98
880.97	2977.75
881.14	2883.54
881.31	2521.05
881.47	2736.09
881.64	2693.08
881.80	2492.38
881.97	2719.70
882.13	2650.07
882.30	2539.48
882.47	2627.54
882.63	2512.86
882.80	2549.72
882.96	2506.71
883.13	2883.54
883.29	2613.21
883.46	2570.20
883.62	3030.99
883.79	2688.98
883.95	2676.70
884.12	2584.54
884.29	2840.53
884.45	2721.75
884.62	2676.70
884.78	2539.48
884.95	2936.79
885.11	2531.29
885.28	2658.26
885.44	2541.53
885.61	2818.00
885.77	2940.88
885.94	2652.12
886.10	2553.82
886.27	2734.04
886.43	2944.98
886.60	2711.51
886.76	2588.63
886.93	2527.19
887.09	2738.13
887.26	2447.32
887.42	2600.92
887.59	2908.12
887.75	3024.85
887.92	2731.99
888.08	2686.94
888.25	2885.59
888.41	2828.24
888.58	2588.63
888.74	2490.33
888.91	2611.16
>>>>>End Processed Spectral Data<<<<<
