SpectraSuite Data File
++++++++++++++++++++++++++++++++++++
Date: Thu May 05 16:21:03 CEST 2016
User: root
Dark Spectrum Present: No
Reference Spectrum Present: No
Number of Sampled Component Spectra: 1
Spectrometers: USB4C02835
Integration Time (usec): 100000 (USB4C02835)
Spectra Averaged: 1 (USB4C02835)
Boxcar Smoothing: 0 (USB4C02835)
Correct for Electrical Dark: No (USB4C02835)
Strobe/Lamp Enabled: No (USB4C02835)
Correct for Detector Non-linearity: No (USB4C02835)
Correct for Stray Light: No (USB4C02835)
Number of Pixels in Processed Spectrum: 3648
>>>>>Begin Processed Spectral Data<<<<<
177.47	2029.54
177.69	2029.54
177.91	2029.54
178.13	2027.49
178.36	1998.82
178.58	2537.43
178.80	2711.51
179.02	2475.99
179.24	2590.68
179.46	2488.28
179.68	2547.67
179.90	2699.22
180.13	2680.79
180.35	2351.07
180.57	2545.63
180.79	2760.66
181.01	2744.28
181.23	2535.39
181.45	2633.69
181.67	2731.99
181.90	2856.92
182.12	2533.34
182.34	2332.64
182.56	2768.85
182.78	2813.91
183.00	2439.13
183.22	2543.58
183.44	2451.42
183.66	3190.74
183.89	2596.82
184.11	2539.48
184.33	2848.72
184.55	2801.62
184.77	2570.20
184.99	2531.29
185.21	2570.20
185.43	3088.34
185.65	2580.44
185.87	2426.84
186.10	3049.43
186.32	3076.05
186.54	2574.30
186.76	2613.21
186.98	2815.96
187.20	2736.09
187.42	2609.11
187.64	2508.76
187.86	2834.39
188.08	2846.68
188.30	2502.62
188.52	2559.96
188.75	2879.44
188.97	2926.55
189.19	2535.39
189.41	2521.05
189.63	2801.62
189.85	2744.28
190.07	2381.79
190.29	2435.03
190.51	2744.28
190.73	2559.96
190.95	2658.26
191.17	2621.40
191.39	2537.43
191.61	2705.37
191.84	2535.39
192.06	2580.44
192.28	2514.91
192.50	3129.30
192.72	2635.74
192.94	2596.82
193.16	2928.60
193.38	2660.31
193.60	2437.08
193.82	2639.83
194.04	2815.96
194.26	2768.85
194.48	2537.43
194.70	2482.14
194.92	2707.41
195.14	2781.14
195.36	2494.43
195.58	2537.43
195.80	2703.32
196.02	2588.63
196.24	2510.81
196.46	2586.58
196.69	2592.73
196.91	3086.29
197.13	2473.95
197.35	2496.47
197.57	2969.55
197.79	2848.72
198.01	2619.35
198.23	2490.33
198.45	2768.85
198.67	2605.02
198.89	2471.90
199.11	2584.54
199.33	2545.63
199.55	2443.23
199.77	2519.00
199.99	2746.33
200.21	2635.74
200.43	2811.86
200.65	2400.22
200.87	2342.88
201.09	2793.43
201.31	2668.50
201.53	2568.15
201.75	2555.86
201.97	2820.05
202.19	2734.04
202.41	2580.44
202.63	2707.41
202.85	2830.29
203.07	2850.77
203.29	2547.67
203.51	2363.36
203.73	2578.39
203.95	3016.66
204.17	2502.62
204.39	2682.84
204.61	2738.13
204.83	2688.98
205.05	2695.13
205.27	2576.34
205.49	2996.18
205.71	2727.89
205.93	2408.41
206.15	2453.47
206.37	2709.46
206.59	2627.54
206.81	2365.40
207.03	2469.85
207.25	2566.10
207.47	2793.43
207.69	2502.62
207.91	2731.99
208.13	2955.22
208.34	2664.41
208.56	2486.23
208.78	2559.96
209.00	2703.32
209.22	2703.32
209.44	2533.34
209.66	2514.91
209.88	2641.88
210.10	2650.07
210.32	2512.86
210.54	2600.92
210.76	2695.13
210.98	2832.34
211.20	2400.22
211.42	2496.47
211.64	2840.53
211.86	2768.85
212.08	2590.68
212.30	2576.34
212.52	2695.13
212.74	2815.96
212.96	2535.39
213.17	2590.68
213.39	2914.26
213.61	2957.27
213.83	2519.00
214.05	2383.84
214.27	2881.49
214.49	2521.05
214.71	2506.71
214.93	2695.13
215.15	2705.37
215.37	2846.68
215.59	2443.23
215.81	2551.77
216.03	2912.21
216.24	2756.57
216.46	2475.99
216.68	2607.06
216.90	2879.44
217.12	2848.72
217.34	2508.76
217.56	2691.03
217.78	2928.60
218.00	2836.44
218.22	2600.92
218.44	2572.25
218.66	2807.77
218.87	2998.23
219.09	2469.85
219.31	2527.19
219.53	2805.72
219.75	2600.92
219.97	2539.48
220.19	2600.92
220.41	2699.22
220.63	2957.27
220.85	2490.33
221.06	2621.40
221.28	2936.79
221.50	2877.40
221.72	2506.71
221.94	2469.85
222.16	2779.09
222.38	2789.33
222.60	2576.34
222.82	2519.00
223.03	2805.72
223.25	2506.71
223.47	2490.33
223.69	2711.51
223.91	2832.34
224.13	2775.00
224.35	2422.75
224.57	2654.17
224.78	2775.00
225.00	2514.91
225.22	2643.93
225.44	2504.67
225.66	2785.24
225.88	2672.60
226.10	2609.11
226.32	2564.06
226.53	2955.22
226.75	2770.90
226.97	2508.76
227.19	2531.29
227.41	2670.55
227.63	2686.94
227.85	2310.11
228.06	2580.44
228.28	2797.53
228.50	2820.05
228.72	2379.74
228.94	2525.15
229.16	2465.75
229.37	2541.53
229.59	2449.37
229.81	2711.51
230.03	2596.82
230.25	2551.77
230.47	2351.07
230.69	2416.60
230.90	2787.29
231.12	2637.78
231.34	2623.45
231.56	2566.10
231.78	2609.11
232.00	2723.80
232.21	2506.71
232.43	2572.25
232.65	2465.75
232.87	2824.15
233.09	2392.03
233.30	2496.47
233.52	2858.96
233.74	2709.46
233.96	2498.52
234.18	2600.92
234.40	2674.65
234.61	2975.70
234.83	2379.74
235.05	2463.71
235.27	3121.10
235.49	2887.64
235.70	2445.27
235.92	2557.91
236.14	2789.33
236.36	3069.91
236.58	2469.85
236.79	2568.15
237.01	2645.98
237.23	2703.32
237.45	2686.94
237.67	2484.19
237.88	2734.04
238.10	2996.18
238.32	2439.13
238.54	2473.95
238.76	2736.09
238.97	2572.25
239.19	2420.70
239.41	2586.58
239.63	2889.68
239.85	2619.35
240.06	2502.62
240.28	2531.29
240.50	2805.72
240.72	2670.55
240.93	2519.00
241.15	2605.02
241.37	2699.22
241.59	2889.68
241.81	2588.63
242.02	2592.73
242.24	2779.09
242.46	2822.10
242.68	2424.80
242.89	2574.30
243.11	2861.01
243.33	2725.85
243.55	2545.63
243.76	2586.58
243.98	2660.31
244.20	2609.11
244.42	2545.63
244.64	2533.34
244.85	2521.05
245.07	2631.64
245.29	2488.28
245.51	2547.67
245.72	2754.52
245.94	2785.24
246.16	2547.67
246.38	2525.15
246.59	2596.82
246.81	2682.84
247.03	2383.84
247.24	2422.75
247.46	2639.83
247.68	2781.14
247.90	2463.71
248.11	2553.82
248.33	2867.16
248.55	2701.27
248.77	2582.49
248.98	2592.73
249.20	2908.12
249.42	2715.61
249.64	2500.57
249.85	2422.75
250.07	2633.69
250.29	2871.25
250.50	2537.43
250.72	2408.41
250.94	2783.19
251.16	3039.19
251.37	2531.29
251.59	2615.26
251.81	2785.24
252.02	2969.55
252.24	2383.84
252.46	2723.80
252.68	2654.17
252.89	2602.97
253.11	2365.40
253.33	2674.65
253.54	3000.27
253.76	2533.34
253.98	2451.42
254.20	2516.95
254.41	2637.78
254.63	2746.33
254.85	2377.69
255.06	2568.15
255.28	2772.95
255.50	2652.12
255.71	2486.23
255.93	2371.55
256.15	2797.53
256.36	2813.91
256.58	2420.70
256.80	2490.33
257.02	2832.34
257.23	2648.02
257.45	2600.92
257.67	2623.45
257.88	2650.07
258.10	2803.67
258.32	2525.15
258.53	2619.35
258.75	2973.65
258.97	2566.10
259.18	2428.89
259.40	2473.95
259.62	2979.79
259.83	2906.07
260.05	2559.96
260.27	3194.83
260.48	2865.11
260.70	2531.29
260.92	2465.75
261.13	2512.86
261.35	2736.09
261.57	2707.41
261.78	2457.56
262.00	2525.15
262.22	2805.72
262.43	2686.94
262.65	2594.78
262.86	2576.34
263.08	3061.71
263.30	2791.38
263.51	2408.41
263.73	2551.77
263.95	2967.51
264.16	2572.25
264.38	2412.51
264.60	2426.84
264.81	2709.46
265.03	2965.46
265.25	2807.77
265.46	2453.47
265.68	2834.39
265.89	2789.33
266.11	2410.46
266.33	2529.24
266.54	2891.73
266.76	2813.91
266.98	2580.44
267.19	2635.74
267.41	2838.48
267.62	2643.93
267.84	2295.77
268.06	2607.06
268.27	2754.52
268.49	2811.86
268.70	2576.34
268.92	2488.28
269.14	2545.63
269.35	2486.23
269.57	2570.20
269.79	2545.63
270.00	2580.44
270.22	3008.47
270.43	2408.41
270.65	2324.44
270.87	2748.37
271.08	2889.68
271.30	2578.39
271.51	2529.24
271.73	2801.62
271.95	2908.12
272.16	2473.95
272.38	2592.73
272.59	2703.32
272.81	2818.00
273.02	2535.39
273.24	2570.20
273.46	2928.60
273.67	2553.82
273.89	2361.31
274.10	2451.42
274.32	2938.84
274.54	2838.48
274.75	2621.40
274.97	2645.98
275.18	2818.00
275.40	2768.85
275.61	2570.20
275.83	2652.12
276.05	2553.82
276.26	2766.81
276.48	2594.78
276.69	2621.40
276.91	2629.59
277.12	2867.16
277.34	2666.46
277.55	2729.94
277.77	2715.61
277.99	2637.78
278.20	2553.82
278.42	2473.95
278.63	2584.54
278.85	2625.50
279.06	2529.24
279.28	2664.41
279.49	2930.64
279.71	2803.67
279.93	2666.46
280.14	2621.40
280.36	2615.26
280.57	2832.34
280.79	2717.65
281.00	2553.82
281.22	2639.83
281.43	2914.26
281.65	2420.70
281.86	2451.42
282.08	2785.24
282.29	3078.10
282.51	2443.23
282.73	2533.34
282.94	2527.19
283.16	2871.25
283.37	2703.32
283.59	2658.26
283.80	2832.34
284.02	2701.27
284.23	2672.60
284.45	2508.76
284.66	2613.21
284.88	2715.61
285.09	2680.79
285.31	2721.75
285.52	2764.76
285.74	2439.13
285.95	2699.22
286.17	2688.98
286.38	2871.25
286.60	2701.27
286.81	2502.62
287.03	2592.73
287.24	2705.37
287.46	2867.16
287.67	2654.17
287.89	2832.34
288.10	2691.03
288.32	2670.55
288.53	2781.14
288.75	2625.50
288.96	2744.28
289.18	2594.78
289.39	2572.25
289.61	2682.84
289.82	3123.15
290.04	3049.43
290.25	2514.91
290.47	2607.06
290.68	2742.23
290.90	2844.63
291.11	2406.36
291.33	2756.57
291.54	2596.82
291.76	2529.24
291.97	2752.47
292.18	2703.32
292.40	2670.55
292.61	2582.49
292.83	2838.48
293.04	2621.40
293.26	2777.05
293.47	2637.78
293.69	2498.52
293.90	2514.91
294.12	2906.07
294.33	2697.17
294.55	2707.41
294.76	2758.61
294.97	2822.10
295.19	3063.76
295.40	2639.83
295.62	2613.21
295.83	2824.15
296.05	2639.83
296.26	2772.95
296.48	2566.10
296.69	2713.56
296.90	2658.26
297.12	2697.17
297.33	2701.27
297.55	2670.55
297.76	2838.48
297.98	2709.46
298.19	2664.41
298.41	2717.65
298.62	2600.92
298.83	2725.85
299.05	2691.03
299.26	2645.98
299.48	2596.82
299.69	2688.98
299.90	2570.20
300.12	2641.88
300.33	2789.33
300.55	2734.04
300.76	2613.21
300.98	2537.43
301.19	2813.91
301.40	2678.74
301.62	2619.35
301.83	2750.42
302.05	2609.11
302.26	2555.86
302.47	2793.43
302.69	2506.71
302.90	2777.05
303.12	2361.31
303.33	2748.37
303.54	3102.67
303.76	2658.26
303.97	2582.49
304.19	2756.57
304.40	2568.15
304.61	2813.91
304.83	2723.80
305.04	2797.53
305.26	2803.67
305.47	2674.65
305.68	2586.58
305.90	2492.38
306.11	2879.44
306.33	2678.74
306.54	2535.39
306.75	2588.63
306.97	2523.10
307.18	2598.87
307.39	2541.53
307.61	2701.27
307.82	2676.70
308.04	2815.96
308.25	2611.16
308.46	2662.36
308.68	2754.52
308.89	2740.18
309.10	2797.53
309.32	2717.65
309.53	2660.31
309.74	2715.61
309.96	2582.49
310.17	2727.89
310.39	2619.35
310.60	2832.34
310.81	2686.94
311.03	2525.15
311.24	2815.96
311.45	2768.85
311.67	2797.53
311.88	2674.65
312.09	2660.31
312.31	2627.54
312.52	2547.67
312.73	2631.64
312.95	2547.67
313.16	2658.26
313.37	2740.18
313.59	2596.82
313.80	2916.31
314.01	2904.02
314.23	2543.58
314.44	2545.63
314.65	2580.44
314.87	2611.16
315.08	2629.59
315.29	2607.06
315.51	2615.26
315.72	2494.43
315.93	2676.70
316.15	2699.22
316.36	2609.11
316.57	2691.03
316.79	2625.50
317.00	2559.96
317.21	2785.24
317.43	2607.06
317.64	2648.02
317.85	2582.49
318.07	2525.15
318.28	2703.32
318.49	2691.03
318.70	2848.72
318.92	2863.06
319.13	2762.71
319.34	2811.86
319.56	2715.61
319.77	2826.20
319.98	2893.78
320.20	2875.35
320.41	2721.75
320.62	2760.66
320.83	2580.44
321.05	2783.19
321.26	2656.22
321.47	2731.99
321.69	2906.07
321.90	2486.23
322.11	2570.20
322.32	2805.72
322.54	2961.36
322.75	2627.54
322.96	3166.16
323.18	2523.10
323.39	2533.34
323.60	2592.73
323.81	2664.41
324.03	2645.98
324.24	2770.90
324.45	2619.35
324.66	2600.92
324.88	2936.79
325.09	2977.75
325.30	2637.78
325.52	2611.16
325.73	2740.18
325.94	2594.78
326.15	2525.15
326.37	2553.82
326.58	2820.05
326.79	2975.70
327.00	2510.81
327.22	2633.69
327.43	2695.13
327.64	2531.29
327.85	2740.18
328.07	2641.88
328.28	2949.08
328.49	2645.98
328.70	2613.21
328.92	2629.59
329.13	2645.98
329.34	2770.90
329.55	2721.75
329.76	2695.13
329.98	2684.89
330.19	2912.21
330.40	2783.19
330.61	2729.94
330.83	2924.50
331.04	2596.82
331.25	2697.17
331.46	2566.10
331.68	2551.77
331.89	2963.41
332.10	2633.69
332.31	2478.04
332.52	2772.95
332.74	2836.44
332.95	2439.13
333.16	2641.88
333.37	2815.96
333.58	2703.32
333.80	2701.27
334.01	2439.13
334.22	2643.93
334.43	2572.25
334.64	2535.39
334.86	2463.71
335.07	2621.40
335.28	2916.31
335.49	2506.71
335.70	2707.41
335.92	2938.84
336.13	3078.10
336.34	2582.49
336.55	2676.70
336.76	2801.62
336.98	2437.08
337.19	2605.02
337.40	2750.42
337.61	3121.10
337.82	2662.36
338.04	2672.60
338.25	2475.99
338.46	2717.65
338.67	2750.42
338.88	2592.73
339.09	2486.23
339.31	2602.97
339.52	2500.57
339.73	2502.62
339.94	2592.73
340.15	2791.38
340.36	2691.03
340.58	2682.84
340.79	2637.78
341.00	2815.96
341.21	2533.34
341.42	2807.77
341.63	2576.34
341.85	2918.36
342.06	2758.61
342.27	2529.24
342.48	2674.65
342.69	2535.39
342.90	2770.90
343.12	2873.30
343.33	2498.52
343.54	2906.07
343.75	2973.65
343.96	2637.78
344.17	2570.20
344.38	2697.17
344.60	2617.30
344.81	2523.10
345.02	2623.45
345.23	2912.21
345.44	3088.34
345.65	2775.00
345.86	2613.21
346.07	2838.48
346.29	2643.93
346.50	2691.03
346.71	2719.70
346.92	2869.20
347.13	3065.81
347.34	2648.02
347.55	2510.81
347.76	2713.56
347.98	2504.67
348.19	2635.74
348.40	2807.77
348.61	2711.51
348.82	3053.52
349.03	2625.50
349.24	2570.20
349.45	2975.70
349.66	2496.47
349.88	2658.26
350.09	2586.58
350.30	2916.31
350.51	2832.34
350.72	2666.46
350.93	2645.98
351.14	2729.94
351.35	2840.53
351.56	2719.70
351.77	2691.03
351.99	2813.91
352.20	2924.50
352.41	2697.17
352.62	2351.07
352.83	2650.07
353.04	2715.61
353.25	2648.02
353.46	2668.50
353.67	2834.39
353.88	2494.43
354.09	2529.24
354.30	2650.07
354.52	2879.44
354.73	2703.32
354.94	2559.96
355.15	2572.25
355.36	2994.13
355.57	2629.59
355.78	2627.54
355.99	2576.34
356.20	2619.35
356.41	2904.02
356.62	2742.23
356.83	2623.45
357.04	2944.98
357.25	2504.67
357.46	2623.45
357.68	2447.32
357.89	2607.06
358.10	2637.78
358.31	2609.11
358.52	2592.73
358.73	2557.91
358.94	2592.73
359.15	2605.02
359.36	2668.50
359.57	2693.08
359.78	2688.98
359.99	2756.57
360.20	2484.19
360.41	2752.47
360.62	2752.47
360.83	2691.03
361.04	2670.55
361.25	2777.05
361.46	2971.60
361.67	2779.09
361.88	2635.74
362.09	2871.25
362.30	2783.19
362.51	2572.25
362.72	2637.78
362.93	2848.72
363.14	2797.53
363.35	2715.61
363.56	2582.49
363.78	2889.68
363.99	2818.00
364.20	2617.30
364.41	2662.36
364.62	2973.65
364.83	2805.72
365.04	2639.83
365.25	2623.45
365.46	2998.23
365.67	2592.73
365.88	2727.89
366.09	2586.58
366.30	2580.44
366.51	2619.35
366.72	2467.80
366.93	2621.40
367.14	2721.75
367.35	2850.77
367.56	2627.54
367.77	2754.52
367.98	2715.61
368.18	2836.44
368.39	2725.85
368.60	2516.95
368.81	2799.57
369.02	2734.04
369.23	2678.74
369.44	2451.42
369.65	2736.09
369.86	2781.14
370.07	2764.76
370.28	2492.38
370.49	2805.72
370.70	2742.23
370.91	2535.39
371.12	2506.71
371.33	2863.06
371.54	2637.78
371.75	2822.10
371.96	2381.79
372.17	2748.37
372.38	2654.17
372.59	2682.84
372.80	2588.63
373.01	2658.26
373.22	2682.84
373.43	2613.21
373.64	2432.99
373.85	2875.35
374.06	2914.26
374.26	2680.79
374.47	2721.75
374.68	2965.46
374.89	2813.91
375.10	2529.24
375.31	2750.42
375.52	2707.41
375.73	2691.03
375.94	2498.52
376.15	2770.90
376.36	2650.07
376.57	2676.70
376.78	2611.16
376.99	2611.16
377.20	2928.60
377.40	2781.14
377.61	2805.72
377.82	2529.24
378.03	2910.16
378.24	2770.90
378.45	2680.79
378.66	2703.32
378.87	2514.91
379.08	2568.15
379.29	2516.95
379.50	2752.47
379.71	2701.27
379.91	2783.19
380.12	2691.03
380.33	2678.74
380.54	2723.80
380.75	2736.09
380.96	2619.35
381.17	2684.89
381.38	2584.54
381.59	2686.94
381.80	2734.04
382.00	2768.85
382.21	2834.39
382.42	2926.55
382.63	2918.36
382.84	2699.22
383.05	2856.92
383.26	2932.69
383.47	2676.70
383.68	2652.12
383.88	2783.19
384.09	2744.28
384.30	2770.90
384.51	2668.50
384.72	2731.99
384.93	2537.43
385.14	2676.70
385.35	2854.87
385.55	2535.39
385.76	2895.83
385.97	2586.58
386.18	2439.13
386.39	2637.78
386.60	2666.46
386.81	2613.21
387.02	2541.53
387.22	2543.58
387.43	2879.44
387.64	2729.94
387.85	2746.33
388.06	2830.29
388.27	3962.82
388.48	7563.15
388.68	10975.06
388.89	13379.38
389.10	14423.84
389.31	13692.72
389.52	10800.99
389.73	9523.05
389.93	8529.79
390.14	7845.77
390.35	7106.45
390.56	6451.10
390.77	5341.10
390.98	4001.73
391.18	3420.11
391.39	3145.68
391.60	2707.41
391.81	2809.81
392.02	2512.86
392.23	3059.67
392.43	2770.90
392.64	2750.42
392.85	2645.98
393.06	2967.51
393.27	2742.23
393.47	2594.78
393.68	2648.02
393.89	2625.50
394.10	2920.40
394.31	2568.15
394.52	2588.63
394.72	2592.73
394.93	2885.59
395.14	2582.49
395.35	2723.80
395.56	2623.45
395.76	2727.89
395.97	2654.17
396.18	2678.74
396.39	2779.09
396.60	3170.26
396.80	2881.49
397.01	2844.63
397.22	2791.38
397.43	2852.82
397.64	2654.17
397.84	2695.13
398.05	3065.81
398.26	2705.37
398.47	2783.19
398.67	2715.61
398.88	2756.57
399.09	2848.72
399.30	2602.97
399.51	2684.89
399.71	2586.58
399.92	2699.22
400.13	2703.32
400.34	2631.64
400.54	2752.47
400.75	2928.60
400.96	2658.26
401.17	2926.55
401.37	2834.39
401.58	2670.55
401.79	2584.54
402.00	2740.18
402.21	3182.54
402.41	2863.06
402.62	2969.55
402.83	3010.51
403.04	3063.76
403.24	3323.85
403.45	2684.89
403.66	2850.77
403.87	2936.79
404.07	3045.33
404.28	2885.59
404.49	2904.02
404.70	2783.19
404.90	2858.96
405.11	2748.37
405.32	2740.18
405.52	2623.45
405.73	2658.26
405.94	2570.20
406.15	2592.73
406.35	2824.15
406.56	2789.33
406.77	2686.94
406.98	2648.02
407.18	2590.68
407.39	2856.92
407.60	2691.03
407.80	2756.57
408.01	2674.65
408.22	2770.90
408.43	2586.58
408.63	2691.03
408.84	2848.72
409.05	2846.68
409.25	2545.63
409.46	2559.96
409.67	2703.32
409.88	2680.79
410.08	2707.41
410.29	2605.02
410.50	2848.72
410.70	2813.91
410.91	2578.39
411.12	2656.22
411.32	2709.46
411.53	2670.55
411.74	2775.00
411.95	2760.66
412.15	2785.24
412.36	2818.00
412.57	2752.47
412.77	2791.38
412.98	2762.71
413.19	2633.69
413.39	2703.32
413.60	2674.65
413.81	2928.60
414.01	2547.67
414.22	2645.98
414.43	2850.77
414.63	2594.78
414.84	2861.01
415.05	2695.13
415.25	2512.86
415.46	2764.76
415.67	2615.26
415.87	2695.13
416.08	2678.74
416.29	2637.78
416.49	2830.29
416.70	2684.89
416.91	2641.88
417.11	2744.28
417.32	2863.06
417.53	2727.89
417.73	2691.03
417.94	2828.24
418.15	2744.28
418.35	2629.59
418.56	2658.26
418.77	2957.27
418.97	2762.71
419.18	2662.36
419.38	2441.18
419.59	2750.42
419.80	2957.27
420.00	2684.89
420.21	2721.75
420.42	2949.08
420.62	2852.82
420.83	2531.29
421.04	2637.78
421.24	2703.32
421.45	2783.19
421.65	2715.61
421.86	2605.02
422.07	2906.07
422.27	2725.85
422.48	2652.12
422.69	2527.19
422.89	2688.98
423.10	2695.13
423.30	2559.96
423.51	2672.60
423.72	2861.01
423.92	2899.92
424.13	2572.25
424.33	2709.46
424.54	2820.05
424.75	2725.85
424.95	2865.11
425.16	2621.40
425.36	2772.95
425.57	2934.74
425.78	2770.90
425.98	2752.47
426.19	2719.70
426.39	2680.79
426.60	2789.33
426.81	2744.28
427.01	2721.75
427.22	2609.11
427.42	2492.38
427.63	2617.30
427.83	2836.44
428.04	2848.72
428.25	2715.61
428.45	2750.42
428.66	2920.40
428.86	2777.05
429.07	2660.31
429.28	2703.32
429.48	2637.78
429.69	2584.54
429.89	2717.65
430.10	2486.23
430.30	2750.42
430.51	2871.25
430.71	2641.88
430.92	2715.61
431.13	2678.74
431.33	2897.88
431.54	2662.36
431.74	2881.49
431.95	3047.38
432.15	2639.83
432.36	2662.36
432.56	2713.56
432.77	3037.14
432.98	3024.85
433.18	2664.41
433.39	2617.30
433.59	2750.42
433.80	2963.41
434.00	2897.88
434.21	2648.02
434.41	2547.67
434.62	2998.23
434.82	2602.97
435.03	2576.34
435.23	2813.91
435.44	2506.71
435.64	2615.26
435.85	2736.09
436.06	2932.69
436.26	2858.96
436.47	2559.96
436.67	2600.92
436.88	2652.12
437.08	2901.97
437.29	2836.44
437.49	2779.09
437.70	2918.36
437.90	2719.70
438.11	2818.00
438.31	2672.60
438.52	2910.16
438.72	2875.35
438.93	2918.36
439.13	2748.37
439.34	2973.65
439.54	2723.80
439.75	2754.52
439.95	2672.60
440.16	2602.97
440.36	2670.55
440.57	2731.99
440.77	2584.54
440.98	2740.18
441.18	2836.44
441.39	2613.21
441.59	2564.06
441.80	3047.38
442.00	2770.90
442.21	2793.43
442.41	2512.86
442.62	2863.06
442.82	2652.12
443.02	2598.87
443.23	2731.99
443.43	2717.65
443.64	2881.49
443.84	2549.72
444.05	2787.29
444.25	2719.70
444.46	2627.54
444.66	2596.82
444.87	2881.49
445.07	2512.86
445.28	2701.27
445.48	2815.96
445.69	2670.55
445.89	3033.04
446.09	2703.32
446.30	3006.42
446.50	3098.58
446.71	4530.11
446.91	5506.99
447.12	6481.82
447.32	6819.74
447.53	6510.49
447.73	5470.12
447.93	4700.09
448.14	4491.20
448.34	4591.55
448.55	3854.28
448.75	3743.69
448.96	3692.49
449.16	3389.39
449.36	3276.75
449.57	2916.31
449.77	2748.37
449.98	2752.47
450.18	2785.24
450.39	2586.58
450.59	2846.68
450.79	2725.85
451.00	2607.06
451.20	2785.24
451.41	2600.92
451.61	2768.85
451.81	2750.42
452.02	2619.35
452.22	2641.88
452.43	2615.26
452.63	2625.50
452.84	2625.50
453.04	2557.91
453.24	2785.24
453.45	2686.94
453.65	2674.65
453.86	2670.55
454.06	2815.96
454.26	2797.53
454.47	2545.63
454.67	2815.96
454.87	2830.29
455.08	2641.88
455.28	2822.10
455.49	2848.72
455.69	2598.87
455.89	3018.71
456.10	2830.29
456.30	2607.06
456.51	2848.72
456.71	2705.37
456.91	2838.48
457.12	2701.27
457.32	2807.77
457.52	2527.19
457.73	2813.91
457.93	2742.23
458.14	2645.98
458.34	2480.09
458.54	2635.74
458.75	2635.74
458.95	2863.06
459.15	2748.37
459.36	2654.17
459.56	2688.98
459.76	3051.47
459.97	2680.79
460.17	2662.36
460.37	2752.47
460.58	2721.75
460.78	2818.00
460.99	2637.78
461.19	2543.58
461.39	2658.26
461.60	2725.85
461.80	2746.33
462.00	2555.86
462.21	2670.55
462.41	2652.12
462.61	2588.63
462.82	2484.19
463.02	2770.90
463.22	2734.04
463.43	2793.43
463.63	2623.45
463.83	2867.16
464.04	2795.48
464.24	2709.46
464.44	2619.35
464.64	2715.61
464.85	2856.92
465.05	2723.80
465.25	2686.94
465.46	2613.21
465.66	2856.92
465.86	2719.70
466.07	2566.10
466.27	2637.78
466.47	2566.10
466.68	2486.23
466.88	2858.96
467.08	2826.20
467.29	2992.08
467.49	2695.13
467.69	2703.32
467.89	2889.68
468.10	2666.46
468.30	2678.74
468.50	2813.91
468.71	2895.83
468.91	2519.00
469.11	2828.24
469.31	2707.41
469.52	2600.92
469.72	2891.73
469.92	2879.44
470.13	2701.27
470.33	2756.57
470.53	2746.33
470.73	3026.90
470.94	3311.57
471.14	3440.59
471.34	3772.36
471.54	3635.14
471.75	3420.11
471.95	3186.64
472.15	3074.00
472.36	3069.91
472.56	3055.57
472.76	3129.30
472.96	3018.71
473.17	2844.63
473.37	2805.72
473.57	2738.13
473.77	2865.11
473.98	2725.85
474.18	2570.20
474.38	3213.26
474.58	2650.07
474.79	2504.67
474.99	2840.53
475.19	2826.20
475.39	2609.11
475.60	2734.04
475.80	2686.94
476.00	2766.81
476.20	2697.17
476.41	2621.40
476.61	2672.60
476.81	2922.45
477.01	2605.02
477.21	2848.72
477.42	2731.99
477.62	2576.34
477.82	2899.92
478.02	2627.54
478.23	2752.47
478.43	2637.78
478.63	2686.94
478.83	2705.37
479.03	2666.46
479.24	2926.55
479.44	3049.43
479.64	2613.21
479.84	2430.94
480.04	2633.69
480.25	2852.82
480.45	2617.30
480.65	2592.73
480.85	2916.31
481.06	2695.13
481.26	2777.05
481.46	2686.94
481.66	2826.20
481.86	2578.39
482.06	2785.24
482.27	2596.82
482.47	2770.90
482.67	2813.91
482.87	2676.70
483.07	2705.37
483.28	2664.41
483.48	2654.17
483.68	2654.17
483.88	2510.81
484.08	2486.23
484.29	2658.26
484.49	2684.89
484.69	2512.86
484.89	2920.40
485.09	2889.68
485.29	2668.50
485.50	2719.70
485.70	2699.22
485.90	2897.88
486.10	2756.57
486.30	2643.93
486.50	2914.26
486.71	2729.94
486.91	2643.93
487.11	2789.33
487.31	2535.39
487.51	2797.53
487.71	2602.97
487.91	2488.28
488.12	2660.31
488.32	2375.64
488.52	2574.30
488.72	2400.22
488.92	2734.04
489.12	2891.73
489.32	2760.66
489.53	2715.61
489.73	2506.71
489.93	2992.08
490.13	2654.17
490.33	2576.34
490.53	2639.83
490.73	2828.24
490.94	2500.57
491.14	2742.23
491.34	2752.47
491.54	2932.69
491.74	3489.74
491.94	3958.72
492.14	4399.04
492.34	4478.91
492.54	4116.42
492.75	3553.23
492.95	3567.56
493.15	3411.92
493.35	3336.14
493.55	3219.41
493.75	3092.43
493.95	3166.16
494.15	2938.84
494.35	2758.61
494.56	2686.94
494.76	2686.94
494.96	2744.28
495.16	2648.02
495.36	2760.66
495.56	2805.72
495.76	2650.07
495.96	2621.40
496.16	2584.54
496.36	3074.00
496.56	2662.36
496.77	2740.18
496.97	2713.56
497.17	2944.98
497.37	2480.09
497.57	2758.61
497.77	2727.89
497.97	2570.20
498.17	2674.65
498.37	2670.55
498.57	2803.67
498.77	2754.52
498.97	2760.66
499.17	2926.55
499.38	2736.09
499.58	2832.34
499.78	2775.00
499.98	2686.94
500.18	2672.60
500.38	2590.68
500.58	2836.44
500.78	3196.88
500.98	5371.82
501.18	7241.62
501.38	8712.06
501.58	9478.00
501.78	9342.83
501.98	7692.17
502.18	6614.94
502.38	5439.40
502.58	5357.49
502.78	4900.79
502.98	4691.90
503.18	4351.93
503.38	4192.19
503.59	3579.85
503.79	3469.26
503.99	3256.27
504.19	3211.22
504.39	3157.97
504.59	3256.27
504.79	3125.20
504.99	3153.87
505.19	2990.03
505.39	2818.00
505.59	3090.38
505.79	3030.99
505.99	2875.35
506.19	2676.70
506.39	2904.02
506.59	2715.61
506.79	2713.56
506.99	2789.33
507.19	2678.74
507.39	2768.85
507.59	2525.15
507.79	2576.34
507.99	2668.50
508.19	2715.61
508.39	2674.65
508.59	2648.02
508.79	2801.62
508.99	3057.62
509.19	2686.94
509.39	2701.27
509.59	2592.73
509.79	2666.46
509.99	2846.68
510.19	2760.66
510.39	2793.43
510.59	2731.99
510.79	2680.79
510.99	2523.10
511.19	2645.98
511.39	3004.37
511.59	2840.53
511.79	2781.14
511.99	2617.30
512.19	3018.71
512.38	2781.14
512.58	2613.21
512.78	2662.36
512.98	2883.54
513.18	2904.02
513.38	2547.67
513.58	2727.89
513.78	2717.65
513.98	2635.74
514.18	2611.16
514.38	2666.46
514.58	2762.71
514.78	2641.88
514.98	2580.44
515.18	2645.98
515.38	2586.58
515.58	3020.75
515.78	2682.84
515.98	2686.94
516.18	2770.90
516.38	2785.24
516.57	2602.97
516.77	2594.78
516.97	2777.05
517.17	2643.93
517.37	2490.33
517.57	2713.56
517.77	2691.03
517.97	2678.74
518.17	2680.79
518.37	2531.29
518.57	2652.12
518.77	2650.07
518.97	2652.12
519.16	2668.50
519.36	2979.79
519.56	2588.63
519.76	2654.17
519.96	2629.59
520.16	2920.40
520.36	2580.44
520.56	2744.28
520.76	2553.82
520.96	2721.75
521.16	2856.92
521.35	2777.05
521.55	2871.25
521.75	2777.05
521.95	2705.37
522.15	2574.30
522.35	2502.62
522.55	2629.59
522.75	2885.59
522.95	2598.87
523.14	2564.06
523.34	2807.77
523.54	2691.03
523.74	2781.14
523.94	2680.79
524.14	2512.86
524.34	2799.57
524.54	2838.48
524.73	2670.55
524.93	2820.05
525.13	2731.99
525.33	2484.19
525.53	2969.55
525.73	2850.77
525.93	2779.09
526.13	2600.92
526.32	2596.82
526.52	2963.41
526.72	2850.77
526.92	2547.67
527.12	2650.07
527.32	2551.77
527.52	2787.29
527.71	2723.80
527.91	2725.85
528.11	2678.74
528.31	2680.79
528.51	2613.21
528.71	2754.52
528.90	2772.95
529.10	2875.35
529.30	2809.81
529.50	2361.31
529.70	2719.70
529.90	2707.41
530.09	2678.74
530.29	2512.86
530.49	2562.01
530.69	3092.43
530.89	2746.33
531.09	2754.52
531.28	2779.09
531.48	2924.50
531.68	2613.21
531.88	2635.74
532.08	2895.83
532.28	2740.18
532.47	2754.52
532.67	2748.37
532.87	2746.33
533.07	2598.87
533.27	2738.13
533.46	2711.51
533.66	2770.90
533.86	2736.09
534.06	2674.65
534.26	2617.30
534.45	2658.26
534.65	2815.96
534.85	2748.37
535.05	2527.19
535.25	2850.77
535.44	2457.56
535.64	2742.23
535.84	2658.26
536.04	2662.36
536.24	2705.37
536.43	2656.22
536.63	2639.83
536.83	2721.75
537.03	2748.37
537.22	2482.14
537.42	2430.94
537.62	2789.33
537.82	2516.95
538.02	2811.86
538.21	2801.62
538.41	3133.39
538.61	2787.29
538.81	2627.54
539.00	2701.27
539.20	2531.29
539.40	2600.92
539.60	2686.94
539.79	2760.66
539.99	2674.65
540.19	2611.16
540.39	2670.55
540.58	2789.33
540.78	2832.34
540.98	2717.65
541.18	2791.38
541.37	2764.76
541.57	2682.84
541.77	2742.23
541.97	2510.81
542.16	2463.71
542.36	2654.17
542.56	2678.74
542.76	2869.20
542.95	2703.32
543.15	2770.90
543.35	2820.05
543.54	2594.78
543.74	2559.96
543.94	2891.73
544.14	2662.36
544.33	2785.24
544.53	2701.27
544.73	2678.74
544.93	2725.85
545.12	2645.98
545.32	2691.03
545.52	2744.28
545.71	2527.19
545.91	2605.02
546.11	2635.74
546.30	2633.69
546.50	2721.75
546.70	2643.93
546.90	2600.92
547.09	2494.43
547.29	2611.16
547.49	2750.42
547.68	2633.69
547.88	2760.66
548.08	2822.10
548.27	3088.34
548.47	2623.45
548.67	2674.65
548.87	2785.24
549.06	2570.20
549.26	2637.78
549.46	2766.81
549.65	2652.12
549.85	2688.98
550.05	2680.79
550.24	2533.34
550.44	2750.42
550.64	2676.70
550.83	2711.51
551.03	2920.40
551.23	2832.34
551.42	2789.33
551.62	2740.18
551.82	2652.12
552.01	2711.51
552.21	2820.05
552.41	2738.13
552.60	2899.92
552.80	2813.91
553.00	2619.35
553.19	2650.07
553.39	3016.66
553.59	2580.44
553.78	2662.36
553.98	2711.51
554.17	2566.10
554.37	2785.24
554.57	2715.61
554.76	2473.95
554.96	2682.84
555.16	2830.29
555.35	2772.95
555.55	2854.87
555.75	2740.18
555.94	2801.62
556.14	2469.85
556.33	2736.09
556.53	2695.13
556.73	2695.13
556.92	2725.85
557.12	2703.32
557.32	2990.03
557.51	2969.55
557.71	2711.51
557.90	2820.05
558.10	2883.54
558.30	2619.35
558.49	2672.60
558.69	2637.78
558.88	2846.68
559.08	2791.38
559.28	2678.74
559.47	2688.98
559.67	2797.53
559.86	2969.55
560.06	2605.02
560.26	2674.65
560.45	2908.12
560.65	2574.30
560.84	2858.96
561.04	2623.45
561.24	2869.20
561.43	2592.73
561.63	2887.64
561.82	2727.89
562.02	2793.43
562.22	2654.17
562.41	2623.45
562.61	2641.88
562.80	2592.73
563.00	3024.85
563.19	2768.85
563.39	2785.24
563.59	2811.86
563.78	2586.58
563.98	2426.84
564.17	2658.26
564.37	2514.91
564.56	2703.32
564.76	2504.67
564.96	2834.39
565.15	2764.76
565.35	3071.95
565.54	2572.25
565.74	2731.99
565.93	2842.58
566.13	2686.94
566.32	2731.99
566.52	2721.75
566.71	2768.85
566.91	2811.86
567.11	2670.55
567.30	2613.21
567.50	2748.37
567.69	2766.81
567.89	2703.32
568.08	2539.48
568.28	2822.10
568.47	2592.73
568.67	2658.26
568.86	2691.03
569.06	2848.72
569.25	2656.22
569.45	2582.49
569.64	2600.92
569.84	2584.54
570.04	2793.43
570.23	2660.31
570.43	2662.36
570.62	2760.66
570.82	3028.95
571.01	2611.16
571.21	2590.68
571.40	2605.02
571.60	2799.57
571.79	2684.89
571.99	2605.02
572.18	2619.35
572.38	2750.42
572.57	2660.31
572.77	2715.61
572.96	3143.63
573.16	2750.42
573.35	2680.79
573.55	2838.48
573.74	2928.60
573.94	2695.13
574.13	2613.21
574.33	2758.61
574.52	2928.60
574.71	2725.85
574.91	2797.53
575.10	2490.33
575.30	2629.59
575.49	2670.55
575.69	2609.11
575.88	2740.18
576.08	2717.65
576.27	2801.62
576.47	2654.17
576.66	2846.68
576.86	2908.12
577.05	2764.76
577.25	2703.32
577.44	2889.68
577.64	2668.50
577.83	2873.30
578.02	2648.02
578.22	2752.47
578.41	2979.79
578.61	2686.94
578.80	2447.32
579.00	2643.93
579.19	2746.33
579.39	2768.85
579.58	2736.09
579.77	2607.06
579.97	2998.23
580.16	2934.74
580.36	2871.25
580.55	2699.22
580.75	2744.28
580.94	2783.19
581.13	2840.53
581.33	2815.96
581.52	2777.05
581.72	3063.76
581.91	2781.14
582.11	2650.07
582.30	2897.88
582.49	2756.57
582.69	2924.50
582.88	2678.74
583.08	2785.24
583.27	2875.35
583.47	2738.13
583.66	2566.10
583.85	2666.46
584.05	2703.32
584.24	2840.53
584.44	2707.41
584.63	2916.31
584.82	2846.68
585.02	2908.12
585.21	2770.90
585.41	2850.77
585.60	2830.29
585.79	2912.21
585.99	2922.45
586.18	2840.53
586.37	3633.10
586.57	5369.77
586.76	15769.36
586.96	34991.59
587.15	48272.67
587.34	56624.29
587.54	60851.30
587.73	54435.01
587.93	38790.58
588.12	29386.30
588.31	23832.21
588.51	21118.65
588.70	19226.33
588.89	17211.13
589.09	14614.30
589.28	12465.99
589.47	9660.27
589.67	7587.72
589.86	6004.64
590.06	4523.96
590.25	3932.10
590.44	3477.45
590.64	3094.48
590.83	2977.75
591.02	3002.32
591.22	2750.42
591.41	2811.86
591.60	2744.28
591.80	3074.00
591.99	2609.11
592.18	2738.13
592.38	2895.83
592.57	2678.74
592.76	2711.51
592.96	2758.61
593.15	2758.61
593.34	2973.65
593.54	2744.28
593.73	2752.47
593.92	2801.62
594.12	2770.90
594.31	2777.05
594.50	2877.40
594.70	2740.18
594.89	3121.10
595.08	2537.43
595.28	2809.81
595.47	3270.61
595.66	2904.02
595.86	2578.39
596.05	2564.06
596.24	2668.50
596.43	3028.95
596.63	2873.30
596.82	2781.14
597.01	2834.39
597.21	2973.65
597.40	2721.75
597.59	2695.13
597.79	2711.51
597.98	2981.84
598.17	2779.09
598.36	2645.98
598.56	2858.96
598.75	2641.88
598.94	2772.95
599.14	2686.94
599.33	2613.21
599.52	2772.95
599.71	2727.89
599.91	2793.43
600.10	2879.44
600.29	2717.65
600.48	2795.48
600.68	2793.43
600.87	2848.72
601.06	2674.65
601.26	2637.78
601.45	2727.89
601.64	2615.26
601.83	2977.75
602.03	2629.59
602.22	2553.82
602.41	2936.79
602.60	3080.14
602.80	2775.00
602.99	2850.77
603.18	2594.78
603.37	2789.33
603.57	2736.09
603.76	2686.94
603.95	2838.48
604.14	2664.41
604.34	2574.30
604.53	2654.17
604.72	2752.47
604.91	2899.92
605.10	2678.74
605.30	2549.72
605.49	3049.43
605.68	2795.48
605.87	2731.99
606.07	2588.63
606.26	2770.90
606.45	2822.10
606.64	2668.50
606.84	2615.26
607.03	2787.29
607.22	2883.54
607.41	2654.17
607.60	2686.94
607.80	2897.88
607.99	2662.36
608.18	2664.41
608.37	2658.26
608.56	2602.97
608.76	2901.97
608.95	2764.76
609.14	2688.98
609.33	2916.31
609.52	2883.54
609.72	2734.04
609.91	2760.66
610.10	2811.86
610.29	2951.12
610.48	2856.92
610.68	2736.09
610.87	2662.36
611.06	2836.44
611.25	2701.27
611.44	2748.37
611.63	2662.36
611.83	2912.21
612.02	2539.48
612.21	2750.42
612.40	2447.32
612.59	2576.34
612.79	2547.67
612.98	2682.84
613.17	2934.74
613.36	2691.03
613.55	2873.30
613.74	2668.50
613.93	2783.19
614.13	2856.92
614.32	2830.29
614.51	2830.29
614.70	2813.91
614.89	2707.41
615.08	2758.61
615.28	3090.38
615.47	2617.30
615.66	2775.00
615.85	2742.23
616.04	2725.85
616.23	2721.75
616.42	2746.33
616.62	2736.09
616.81	2711.51
617.00	2770.90
617.19	2854.87
617.38	2668.50
617.57	2660.31
617.76	2846.68
617.95	2791.38
618.15	2820.05
618.34	2942.93
618.53	2488.28
618.72	2875.35
618.91	2818.00
619.10	2838.48
619.29	2662.36
619.48	2801.62
619.68	2627.54
619.87	2635.74
620.06	2570.20
620.25	2719.70
620.44	2584.54
620.63	2752.47
620.82	2678.74
621.01	2645.98
621.20	2693.08
621.39	2719.70
621.59	2770.90
621.78	2707.41
621.97	2662.36
622.16	2766.81
622.35	2815.96
622.54	2832.34
622.73	2783.19
622.92	2435.03
623.11	2957.27
623.30	2734.04
623.49	2758.61
623.68	2572.25
623.88	2971.60
624.07	2727.89
624.26	2623.45
624.45	2699.22
624.64	2742.23
624.83	2768.85
625.02	2592.73
625.21	2688.98
625.40	2764.76
625.59	2961.36
625.78	2772.95
625.97	2787.29
626.16	2830.29
626.35	2951.12
626.54	2676.70
626.74	2852.82
626.93	2740.18
627.12	2715.61
627.31	2709.46
627.50	2723.80
627.69	2834.39
627.88	2537.43
628.07	2564.06
628.26	2482.14
628.45	2660.31
628.64	2648.02
628.83	2684.89
629.02	2525.15
629.21	2824.15
629.40	2785.24
629.59	2652.12
629.78	2578.39
629.97	2779.09
630.16	2756.57
630.35	2619.35
630.54	2672.60
630.73	2695.13
630.92	2705.37
631.11	2557.91
631.30	2664.41
631.49	2822.10
631.68	2764.76
631.87	2760.66
632.06	2613.21
632.25	3018.71
632.44	2803.67
632.63	2670.55
632.82	2611.16
633.01	2674.65
633.20	2744.28
633.39	2605.02
633.58	2523.10
633.77	2738.13
633.96	2775.00
634.15	2834.39
634.34	2822.10
634.53	2746.33
634.72	2682.84
634.91	2486.23
635.10	2688.98
635.29	2871.25
635.48	2785.24
635.67	2621.40
635.86	2512.86
636.05	2957.27
636.24	2719.70
636.43	2670.55
636.62	2752.47
636.81	2475.99
637.00	2742.23
637.19	2668.50
637.38	2650.07
637.57	2680.79
637.76	2678.74
637.95	2906.07
638.14	2707.41
638.33	2775.00
638.52	2752.47
638.71	2498.52
638.89	2613.21
639.08	3149.78
639.27	2883.54
639.46	2861.01
639.65	3198.93
639.84	3188.69
640.03	3229.65
640.22	3076.05
640.41	3178.45
640.60	2899.92
640.79	2899.92
640.98	2756.57
641.17	2869.20
641.36	2846.68
641.55	2967.51
641.74	2611.16
641.92	2572.25
642.11	2619.35
642.30	2617.30
642.49	2588.63
642.68	2633.69
642.87	2703.32
643.06	2867.16
643.25	2596.82
643.44	2564.06
643.63	2711.51
643.82	2766.81
644.00	2537.43
644.19	2654.17
644.38	2545.63
644.57	2775.00
644.76	2748.37
644.95	2658.26
645.14	2805.72
645.33	2713.56
645.52	2668.50
645.71	2564.06
645.89	2557.91
646.08	2744.28
646.27	2648.02
646.46	2861.01
646.65	2527.19
646.84	2621.40
647.03	2590.68
647.22	2760.66
647.40	2746.33
647.59	2693.08
647.78	2502.62
647.97	2648.02
648.16	2637.78
648.35	2873.30
648.54	2889.68
648.73	2629.59
648.91	2818.00
649.10	2791.38
649.29	2594.78
649.48	2619.35
649.67	2799.57
649.86	2723.80
650.05	2738.13
650.23	2906.07
650.42	2695.13
650.61	2973.65
650.80	2901.97
650.99	3018.71
651.18	2926.55
651.36	2957.27
651.55	2582.49
651.74	2766.81
651.93	2699.22
652.12	2699.22
652.31	2738.13
652.49	2672.60
652.68	2725.85
652.87	2938.84
653.06	2703.32
653.25	2912.21
653.44	2682.84
653.62	2990.03
653.81	2670.55
654.00	2619.35
654.19	2881.49
654.38	3123.15
654.56	2781.14
654.75	2639.83
654.94	2838.48
655.13	2727.89
655.32	2625.50
655.51	2813.91
655.69	2688.98
655.88	2744.28
656.07	2527.19
656.26	2695.13
656.45	2516.95
656.63	2813.91
656.82	2662.36
657.01	2873.30
657.20	2619.35
657.38	2932.69
657.57	2643.93
657.76	2428.89
657.95	2793.43
658.14	2695.13
658.32	2695.13
658.51	2500.57
658.70	2758.61
658.89	2643.93
659.08	2772.95
659.26	2871.25
659.45	2594.78
659.64	2904.02
659.83	2674.65
660.01	3004.37
660.20	2705.37
660.39	2961.36
660.58	2422.75
660.76	2744.28
660.95	2537.43
661.14	2742.23
661.33	2533.34
661.51	2684.89
661.70	2652.12
661.89	2736.09
662.08	2766.81
662.26	2508.76
662.45	2605.02
662.64	2973.65
662.83	2686.94
663.01	2500.57
663.20	2570.20
663.39	3000.27
663.58	2678.74
663.76	2631.64
663.95	2891.73
664.14	2582.49
664.32	2629.59
664.51	2596.82
664.70	2523.10
664.89	2791.38
665.07	2555.86
665.26	2803.67
665.45	2551.77
665.64	2789.33
665.82	2662.36
666.01	2731.99
666.20	2547.67
666.38	2813.91
666.57	2885.59
666.76	4200.38
666.95	9887.59
667.13	17026.81
667.32	20946.62
667.51	23789.20
667.69	24942.21
667.88	21507.77
668.07	15202.07
668.25	12785.47
668.44	11030.36
668.63	9535.34
668.81	8482.69
669.00	7167.89
669.19	6580.12
669.38	5740.46
669.56	4876.21
669.75	4239.30
669.94	3700.68
670.12	3221.45
670.31	3078.10
670.50	2893.78
670.68	2914.26
670.87	2789.33
671.06	2605.02
671.24	2719.70
671.43	2998.23
671.62	2801.62
671.80	2652.12
671.99	2736.09
672.18	2760.66
672.36	2836.44
672.55	2717.65
672.74	2639.83
672.92	2658.26
673.11	2828.24
673.29	2557.91
673.48	2842.58
673.67	2660.31
673.85	2932.69
674.04	2537.43
674.23	2686.94
674.41	3053.52
674.60	2533.34
674.79	2447.32
674.97	2531.29
675.16	2930.64
675.34	2799.57
675.53	2588.63
675.72	2686.94
675.90	2987.99
676.09	2734.04
676.28	2738.13
676.46	2496.47
676.65	2867.16
676.83	2559.96
677.02	2709.46
677.21	2764.76
677.39	2775.00
677.58	2637.78
677.77	2607.06
677.95	2564.06
678.14	2652.12
678.32	2693.08
678.51	2590.68
678.70	2895.83
678.88	2664.41
679.07	2725.85
679.25	2672.60
679.44	2643.93
679.63	2547.67
679.81	2731.99
680.00	2809.81
680.18	2695.13
680.37	2854.87
680.55	2668.50
680.74	2584.54
680.93	2447.32
681.11	2721.75
681.30	2807.77
681.48	2633.69
681.67	2656.22
681.85	2793.43
682.04	2564.06
682.23	2785.24
682.41	2682.84
682.60	2623.45
682.78	2738.13
682.97	2551.77
683.15	2629.59
683.34	2850.77
683.53	2846.68
683.71	2461.66
683.90	2750.42
684.08	2973.65
684.27	2654.17
684.45	2693.08
684.64	2785.24
684.82	2676.70
685.01	2799.57
685.19	2684.89
685.38	2863.06
685.57	2662.36
685.75	2537.43
685.94	2582.49
686.12	2559.96
686.31	2641.88
686.49	2959.31
686.68	2572.25
686.86	2670.55
687.05	2664.41
687.23	2953.17
687.42	2693.08
687.60	2447.32
687.79	2840.53
687.97	2932.69
688.16	2777.05
688.34	2746.33
688.53	2387.93
688.71	2815.96
688.90	2889.68
689.08	2693.08
689.27	2529.24
689.45	2805.72
689.64	2842.58
689.82	2727.89
690.01	2820.05
690.19	2760.66
690.38	2703.32
690.56	2781.14
690.75	2568.15
690.93	2672.60
691.12	2686.94
691.30	2719.70
691.49	2617.30
691.67	2731.99
691.86	2967.51
692.04	2621.40
692.23	2658.26
692.41	2580.44
692.60	2987.99
692.78	2908.12
692.97	2775.00
693.15	2779.09
693.34	2918.36
693.52	2807.77
693.71	2703.32
693.89	2680.79
694.08	2596.82
694.26	2736.09
694.44	2901.97
694.63	2834.39
694.81	2598.87
695.00	2619.35
695.18	2856.92
695.37	3192.78
695.55	2760.66
695.74	2701.27
695.92	2705.37
696.10	2867.16
696.29	2498.52
696.47	2605.02
696.66	2502.62
696.84	2602.97
697.03	2643.93
697.21	2871.25
697.40	4114.37
697.58	2932.69
697.76	2600.92
697.95	2615.26
698.13	2533.34
698.32	2678.74
698.50	2736.09
698.68	2729.94
698.87	2807.77
699.05	2992.08
699.24	2691.03
699.42	2529.24
699.61	2777.05
699.79	2756.57
699.97	2652.12
700.16	2490.33
700.34	2557.91
700.53	2793.43
700.71	2840.53
700.89	2744.28
701.08	2639.83
701.26	2742.23
701.45	3145.68
701.63	2572.25
701.81	2594.78
702.00	2588.63
702.18	2734.04
702.37	2596.82
702.55	2951.12
702.73	2830.29
702.92	2686.94
703.10	2942.93
703.28	2875.35
703.47	2658.26
703.65	2846.68
703.84	2777.05
704.02	2674.65
704.20	3045.33
704.39	2539.48
704.57	2627.54
704.75	2861.01
704.94	2729.94
705.12	2758.61
705.30	3018.71
705.49	5840.81
705.67	11890.51
705.86	17583.86
706.04	20012.75
706.22	22701.73
706.41	22326.96
706.59	17612.53
706.77	13113.14
706.96	11419.47
707.14	10280.80
707.32	8910.71
707.51	7735.18
707.69	6326.18
707.87	5273.52
708.06	4519.87
708.24	3950.53
708.42	3399.63
708.61	3350.48
708.79	2734.04
708.97	2703.32
709.16	2856.92
709.34	2709.46
709.52	2637.78
709.71	2629.59
709.89	2832.34
710.07	2602.97
710.26	2523.10
710.44	2668.50
710.62	2885.59
710.80	2766.81
710.99	2768.85
711.17	2834.39
711.35	2590.68
711.54	2678.74
711.72	2842.58
711.90	2772.95
712.09	2727.89
712.27	2627.54
712.45	2764.76
712.63	2623.45
712.82	2668.50
713.00	2627.54
713.18	2734.04
713.37	2799.57
713.55	2799.57
713.73	2775.00
713.91	2736.09
714.10	2645.98
714.28	2662.36
714.46	2756.57
714.65	2738.13
714.83	2777.05
715.01	2635.74
715.19	2686.94
715.38	2613.21
715.56	2713.56
715.74	2611.16
715.92	2574.30
716.11	2877.40
716.29	2447.32
716.47	2742.23
716.65	2662.36
716.84	2553.82
717.02	2742.23
717.20	2455.51
717.38	2629.59
717.57	2760.66
717.75	2697.17
717.93	2602.97
718.11	2824.15
718.30	2512.86
718.48	2748.37
718.66	2871.25
718.84	2955.22
719.03	2662.36
719.21	2445.27
719.39	3039.19
719.57	2783.19
719.75	2824.15
719.94	2609.11
720.12	2611.16
720.30	2787.29
720.48	2750.42
720.67	2688.98
720.85	2559.96
721.03	2723.80
721.21	2547.67
721.39	2830.29
721.58	2775.00
721.76	2734.04
721.94	2738.13
722.12	2709.46
722.30	2990.03
722.49	2697.17
722.67	2676.70
722.85	2617.30
723.03	2545.63
723.21	2682.84
723.40	2684.89
723.58	2805.72
723.76	2813.91
723.94	2938.84
724.12	2758.61
724.30	2858.96
724.49	2910.16
724.67	2570.20
724.85	2740.18
725.03	2555.86
725.21	2844.63
725.40	2942.93
725.58	2543.58
725.76	2840.53
725.94	2805.72
726.12	2510.81
726.30	2691.03
726.49	2639.83
726.67	2652.12
726.85	2736.09
727.03	3055.57
727.21	4108.23
727.39	5212.08
727.57	5566.38
727.76	5953.45
727.94	6078.37
728.12	5400.49
728.30	4560.83
728.48	4243.39
728.66	4032.45
728.84	3772.36
729.03	3307.47
729.21	3127.25
729.39	3117.01
729.57	2744.28
729.75	2836.44
729.93	2865.11
730.11	2613.21
730.30	2672.60
730.48	2641.88
730.66	2721.75
730.84	2822.10
731.02	2748.37
731.20	2617.30
731.38	2688.98
731.56	2482.14
731.74	2572.25
731.93	2635.74
732.11	2701.27
732.29	2670.55
732.47	2787.29
732.65	2795.48
732.83	2781.14
733.01	2746.33
733.19	2592.73
733.37	2748.37
733.56	2695.13
733.74	2609.11
733.92	2842.58
734.10	2600.92
734.28	2734.04
734.46	2488.28
734.64	2613.21
734.82	2633.69
735.00	2654.17
735.18	2605.02
735.36	2686.94
735.54	2717.65
735.73	2676.70
735.91	2684.89
736.09	2891.73
736.27	2676.70
736.45	2762.71
736.63	2473.95
736.81	2676.70
736.99	2836.44
737.17	2938.84
737.35	2652.12
737.53	2715.61
737.71	2744.28
737.89	2863.06
738.07	2611.16
738.25	2650.07
738.43	2482.14
738.61	2643.93
738.80	2557.91
738.98	2578.39
739.16	2668.50
739.34	2588.63
739.52	2932.69
739.70	2715.61
739.88	2775.00
740.06	2703.32
740.24	2441.18
740.42	2955.22
740.60	2539.48
740.78	2637.78
740.96	2484.19
741.14	2631.64
741.32	2662.36
741.50	2535.39
741.68	2914.26
741.86	2928.60
742.04	2547.67
742.22	2566.10
742.40	2658.26
742.58	2764.76
742.76	2643.93
742.94	2699.22
743.12	2496.47
743.30	2740.18
743.48	2807.77
743.66	2643.93
743.84	2691.03
744.02	2637.78
744.20	2686.94
744.38	2488.28
744.56	2576.34
744.74	2959.31
744.92	2762.71
745.10	2928.60
745.28	2729.94
745.46	2953.17
745.64	2660.31
745.82	2723.80
746.00	2664.41
746.18	2760.66
746.36	2574.30
746.54	2731.99
746.72	2676.70
746.90	2596.82
747.08	2883.54
747.26	2750.42
747.44	2803.67
747.62	2793.43
747.80	2748.37
747.98	2795.48
748.15	2682.84
748.33	2938.84
748.51	2731.99
748.69	2762.71
748.87	2539.48
749.05	2635.74
749.23	2695.13
749.41	2635.74
749.59	2666.46
749.77	2887.64
749.95	2605.02
750.13	2623.45
750.31	2715.61
750.49	2750.42
750.67	2775.00
750.85	2809.81
751.03	2715.61
751.20	3000.27
751.38	2656.22
751.56	2693.08
751.74	2719.70
751.92	2668.50
752.10	2596.82
752.28	2826.20
752.46	2629.59
752.64	2725.85
752.82	2791.38
753.00	2709.46
753.18	2568.15
753.35	2666.46
753.53	2752.47
753.71	2543.58
753.89	2764.76
754.07	2752.47
754.25	2883.54
754.43	2695.13
754.61	2592.73
754.79	2764.76
754.97	2734.04
755.14	2785.24
755.32	2471.90
755.50	2725.85
755.68	2715.61
755.86	2539.48
756.04	2662.36
756.22	2459.61
756.40	2826.20
756.57	2901.97
756.75	2564.06
756.93	2918.36
757.11	2875.35
757.29	2506.71
757.47	2564.06
757.65	2414.56
757.82	2467.80
758.00	2539.48
758.18	2654.17
758.36	2617.30
758.54	2994.13
758.72	2508.76
758.90	2740.18
759.07	2754.52
759.25	2566.10
759.43	2701.27
759.61	2430.94
759.79	3852.23
759.97	2828.24
760.15	2670.55
760.32	2613.21
760.50	2709.46
760.68	2916.31
760.86	2535.39
761.04	2873.30
761.22	2809.81
761.39	2797.53
761.57	2770.90
761.75	2627.54
761.93	2908.12
762.11	2680.79
762.28	2674.65
762.46	2576.34
762.64	2844.63
762.82	2492.38
763.00	2615.26
763.18	2832.34
763.35	2619.35
763.53	2844.63
763.71	2727.89
763.89	2656.22
764.07	2744.28
764.24	2719.70
764.42	2783.19
764.60	2695.13
764.78	2742.23
764.96	2822.10
765.13	2779.09
765.31	2678.74
765.49	2822.10
765.67	2541.53
765.84	2559.96
766.02	2654.17
766.20	2510.81
766.38	2787.29
766.56	2772.95
766.73	2789.33
766.91	2699.22
767.09	2717.65
767.27	2760.66
767.44	2533.34
767.62	2854.87
767.80	2686.94
767.98	2562.01
768.15	2619.35
768.33	2840.53
768.51	2791.38
768.69	2684.89
768.87	2729.94
769.04	2719.70
769.22	3071.95
769.40	2863.06
769.58	2928.60
769.75	2752.47
769.93	2899.92
770.11	2596.82
770.28	2598.87
770.46	2877.40
770.64	2711.51
770.82	2731.99
770.99	2609.11
771.17	2908.12
771.35	2645.98
771.53	2680.79
771.70	2605.02
771.88	2713.56
772.06	2682.84
772.23	2615.26
772.41	2744.28
772.59	2662.36
772.77	2674.65
772.94	2588.63
773.12	2711.51
773.30	2664.41
773.47	2770.90
773.65	2557.91
773.83	2809.81
774.01	2758.61
774.18	2486.23
774.36	2717.65
774.54	2527.19
774.71	2779.09
774.89	2514.91
775.07	2504.67
775.24	2598.87
775.42	2602.97
775.60	2983.89
775.78	2555.86
775.95	2463.71
776.13	2531.29
776.31	2410.46
776.48	2725.85
776.66	2785.24
776.84	2668.50
777.01	2551.77
777.19	2535.39
777.37	2564.06
777.54	2764.76
777.72	3012.56
777.90	2637.78
778.07	2576.34
778.25	3166.16
778.43	2906.07
778.60	2582.49
778.78	2752.47
778.96	2947.03
779.13	2566.10
779.31	2752.47
779.49	2670.55
779.66	2680.79
779.84	2715.61
780.01	2645.98
780.19	2516.95
780.37	2818.00
780.54	2801.62
780.72	2537.43
780.90	2564.06
781.07	2748.37
781.25	2617.30
781.43	2811.86
781.60	2625.50
781.78	2914.26
781.95	2684.89
782.13	2639.83
782.31	2619.35
782.48	2506.71
782.66	2682.84
782.83	2922.45
783.01	2703.32
783.19	2787.29
783.36	2699.22
783.54	2580.44
783.72	2836.44
783.89	2555.86
784.07	2754.52
784.24	2815.96
784.42	2811.86
784.60	2717.65
784.77	2799.57
784.95	2412.51
785.12	2617.30
785.30	2805.72
785.47	2600.92
785.65	2516.95
785.83	2658.26
786.00	2688.98
786.18	2652.12
786.35	2471.90
786.53	2541.53
786.71	2768.85
786.88	2740.18
787.06	2875.35
787.23	2768.85
787.41	2576.34
787.58	2672.60
787.76	2588.63
787.94	2721.75
788.11	2711.51
788.29	2545.63
788.46	2611.16
788.64	2523.10
788.81	2645.98
788.99	2555.86
789.16	2592.73
789.34	2654.17
789.52	2617.30
789.69	2584.54
789.87	2416.60
790.04	2688.98
790.22	2734.04
790.39	3010.51
790.57	2586.58
790.74	2617.30
790.92	2703.32
791.09	2457.56
791.27	2672.60
791.44	2738.13
791.62	2695.13
791.79	2842.58
791.97	2664.41
792.15	2963.41
792.32	2848.72
792.50	2830.29
792.67	2897.88
792.85	2834.39
793.02	2742.23
793.20	2662.36
793.37	2473.95
793.55	2617.30
793.72	2533.34
793.90	2824.15
794.07	2570.20
794.25	2549.72
794.42	2713.56
794.60	2613.21
794.77	2717.65
794.95	2844.63
795.12	2861.01
795.30	2658.26
795.47	2486.23
795.65	2918.36
795.82	2785.24
796.00	2588.63
796.17	2666.46
796.34	2562.01
796.52	2731.99
796.69	2772.95
796.87	2785.24
797.04	2695.13
797.22	2799.57
797.39	2762.71
797.57	2815.96
797.74	2772.95
797.92	2809.81
798.09	2701.27
798.27	2832.34
798.44	2588.63
798.62	2660.31
798.79	2725.85
798.96	2750.42
799.14	2686.94
799.31	3123.15
799.49	2684.89
799.66	2582.49
799.84	2688.98
800.01	2461.66
800.19	2645.98
800.36	2451.42
800.53	2682.84
800.71	2744.28
800.88	2961.36
801.06	2623.45
801.23	2660.31
801.41	2648.02
801.58	2717.65
801.75	2670.55
801.93	2652.12
802.10	2846.68
802.28	2676.70
802.45	2654.17
802.63	2742.23
802.80	2926.55
802.97	2625.50
803.15	2648.02
803.32	2592.73
803.50	2617.30
803.67	2662.36
803.84	2549.72
804.02	2609.11
804.19	2727.89
804.37	2398.17
804.54	2512.86
804.71	2629.59
804.89	2723.80
805.06	2562.01
805.24	2551.77
805.41	2506.71
805.58	2625.50
805.76	3045.33
805.93	2621.40
806.10	2779.09
806.28	2828.24
806.45	2736.09
806.63	2705.37
806.80	2752.47
806.97	2731.99
807.15	2725.85
807.32	2703.32
807.49	2629.59
807.67	2506.71
807.84	2805.72
808.01	2488.28
808.19	2826.20
808.36	3018.71
808.54	2625.50
808.71	2590.68
808.88	2678.74
809.06	2904.02
809.23	2873.30
809.40	2668.50
809.58	2719.70
809.75	2727.89
809.92	2635.74
810.10	2873.30
810.27	2598.87
810.44	2738.13
810.62	2834.39
810.79	2711.51
810.96	2559.96
811.14	2635.74
811.31	2760.66
811.48	2703.32
811.66	2686.94
811.83	2856.92
812.00	2772.95
812.18	2766.81
812.35	2877.40
812.52	2629.59
812.69	2652.12
812.87	2617.30
813.04	2521.05
813.21	2691.03
813.39	2633.69
813.56	2582.49
813.73	2775.00
813.91	2533.34
814.08	2748.37
814.25	2623.45
814.42	2412.51
814.60	2643.93
814.77	2719.70
814.94	2592.73
815.12	2645.98
815.29	3010.51
815.46	2586.58
815.63	2658.26
815.81	2701.27
815.98	2674.65
816.15	2592.73
816.33	2650.07
816.50	2672.60
816.67	2695.13
816.84	2674.65
817.02	2572.25
817.19	2623.45
817.36	2758.61
817.53	2846.68
817.71	2514.91
817.88	2725.85
818.05	2664.41
818.22	2731.99
818.40	2791.38
818.57	2641.88
818.74	2783.19
818.91	2734.04
819.09	2756.57
819.26	2805.72
819.43	2615.26
819.60	2645.98
819.78	2736.09
819.95	2754.52
820.12	2535.39
820.29	2940.88
820.47	2793.43
820.64	2631.64
820.81	2484.19
820.98	2684.89
821.15	2615.26
821.33	2754.52
821.50	2529.24
821.67	2797.53
821.84	2605.02
822.02	2713.56
822.19	2838.48
822.36	2594.78
822.53	2701.27
822.70	2490.33
822.88	2668.50
823.05	2908.12
823.22	2668.50
823.39	2672.60
823.56	2635.74
823.74	3008.47
823.91	2562.01
824.08	2613.21
824.25	2527.19
824.42	2965.46
824.60	2549.72
824.77	2664.41
824.94	2707.41
825.11	2752.47
825.28	2545.63
825.45	2676.70
825.63	2684.89
825.80	2623.45
825.97	2738.13
826.14	2686.94
826.31	2473.95
826.48	2756.57
826.66	2645.98
826.83	2576.34
827.00	2676.70
827.17	2551.77
827.34	2617.30
827.51	2613.21
827.69	2731.99
827.86	2539.48
828.03	2697.17
828.20	2707.41
828.37	2623.45
828.54	2674.65
828.71	2531.29
828.89	2760.66
829.06	2731.99
829.23	2912.21
829.40	2598.87
829.57	2576.34
829.74	2832.34
829.91	2602.97
830.09	2580.44
830.26	2725.85
830.43	2934.74
830.60	2713.56
830.77	2785.24
830.94	2875.35
831.11	2813.91
831.28	2658.26
831.46	2723.80
831.63	2559.96
831.80	2875.35
831.97	2605.02
832.14	2691.03
832.31	2787.29
832.48	2777.05
832.65	2850.77
832.82	2635.74
832.99	2742.23
833.17	2557.91
833.34	2836.44
833.51	2727.89
833.68	2480.09
833.85	2838.48
834.02	2629.59
834.19	2590.68
834.36	2529.24
834.53	2822.10
834.70	2842.58
834.87	2684.89
835.04	2537.43
835.22	2498.52
835.39	2738.13
835.56	2510.81
835.73	2557.91
835.90	2854.87
836.07	2600.92
836.24	2684.89
836.41	2562.01
836.58	2641.88
836.75	2848.72
836.92	2615.26
837.09	2537.43
837.26	2764.76
837.43	2744.28
837.60	2609.11
837.77	2564.06
837.94	2854.87
838.12	2815.96
838.29	2500.57
838.46	2437.08
838.63	2611.16
838.80	2865.11
838.97	2664.41
839.14	2492.38
839.31	2799.57
839.48	2873.30
839.65	2570.20
839.82	2625.50
839.99	2740.18
840.16	2746.33
840.33	2521.05
840.50	2541.53
840.67	2648.02
840.84	2445.27
841.01	2549.72
841.18	2537.43
841.35	2695.13
841.52	2867.16
841.69	2914.26
841.86	2578.39
842.03	2723.80
842.20	2842.58
842.37	2555.86
842.54	2570.20
842.71	2670.55
842.88	2506.71
843.05	2635.74
843.22	2498.52
843.39	2850.77
843.56	2623.45
843.73	2496.47
843.90	2670.55
844.07	2668.50
844.24	2861.01
844.41	2611.16
844.58	2666.46
844.75	2736.09
844.92	2858.96
845.09	2582.49
845.26	2576.34
845.43	2824.15
845.60	2686.94
845.77	2725.85
845.94	2654.17
846.10	2813.91
846.27	2533.34
846.44	2455.51
846.61	2478.04
846.78	2785.24
846.95	2871.25
847.12	2545.63
847.29	2541.53
847.46	2633.69
847.63	2863.06
847.80	2525.15
847.97	2553.82
848.14	3045.33
848.31	2609.11
848.48	2441.18
848.65	2551.77
848.82	2631.64
848.98	3063.76
849.15	2629.59
849.32	2668.50
849.49	2844.63
849.66	2727.89
849.83	2475.99
850.00	2494.43
850.17	2805.72
850.34	2670.55
850.51	2539.48
850.68	2588.63
850.85	3018.71
851.01	2795.48
851.18	2519.00
851.35	2602.97
851.52	2818.00
851.69	2955.22
851.86	2420.70
852.03	2564.06
852.20	2801.62
852.37	2658.26
852.53	2408.41
852.70	2492.38
852.87	2768.85
853.04	2863.06
853.21	2568.15
853.38	2709.46
853.55	2908.12
853.72	2850.77
853.89	2420.70
854.05	2496.47
854.22	2707.41
854.39	2641.88
854.56	2519.00
854.73	2752.47
854.90	2586.58
855.07	2635.74
855.23	2461.66
855.40	2525.15
855.57	2641.88
855.74	2418.65
855.91	2699.22
856.08	2469.85
856.25	2404.32
856.41	2652.12
856.58	2555.86
856.75	2512.86
856.92	2576.34
857.09	2838.48
857.26	2443.23
857.42	2592.73
857.59	2809.81
857.76	2625.50
857.93	2551.77
858.10	2678.74
858.27	2619.35
858.43	2746.33
858.60	2514.91
858.77	2428.89
858.94	2605.02
859.11	2793.43
859.27	2635.74
859.44	2516.95
859.61	3014.61
859.78	2805.72
859.95	2521.05
860.12	2590.68
860.28	3063.76
860.45	3055.57
860.62	2521.05
860.79	2543.58
860.95	2611.16
861.12	2584.54
861.29	2531.29
861.46	2496.47
861.63	2699.22
861.79	2715.61
861.96	2490.33
862.13	2543.58
862.30	2940.88
862.47	2625.50
862.63	2463.71
862.80	2617.30
862.97	2867.16
863.14	2713.56
863.30	2580.44
863.47	2461.66
863.64	2891.73
863.81	2725.85
863.97	2586.58
864.14	2602.97
864.31	2674.65
864.48	2779.09
864.65	2549.72
864.81	2682.84
864.98	2748.37
865.15	2863.06
865.32	2684.89
865.48	2742.23
865.65	2936.79
865.82	2586.58
865.98	2645.98
866.15	2492.38
866.32	2637.78
866.49	2629.59
866.65	2686.94
866.82	2596.82
866.99	2727.89
867.16	2613.21
867.32	2588.63
867.49	2543.58
867.66	2711.51
867.83	2564.06
867.99	2441.18
868.16	2566.10
868.33	2568.15
868.49	2752.47
868.66	2588.63
868.83	2670.55
868.99	2801.62
869.16	2803.67
869.33	2740.18
869.50	2627.54
869.66	2699.22
869.83	2678.74
870.00	2498.52
870.16	2613.21
870.33	2621.40
870.50	2785.24
870.66	2566.10
870.83	2582.49
871.00	2643.93
871.17	2807.77
871.33	2666.46
871.50	2588.63
871.67	2662.36
871.83	2543.58
872.00	2691.03
872.17	2586.58
872.33	2926.55
872.50	2785.24
872.67	2559.96
872.83	2582.49
873.00	2840.53
873.17	2717.65
873.33	2641.88
873.50	2609.11
873.67	2652.12
873.83	2582.49
874.00	2549.72
874.16	2695.13
874.33	2725.85
874.50	2529.24
874.66	2512.86
874.83	2600.92
875.00	2762.71
875.16	2779.09
875.33	2613.21
875.50	2381.79
875.66	2631.64
875.83	2768.85
875.99	2625.50
876.16	2613.21
876.33	2551.77
876.49	2682.84
876.66	2564.06
876.83	2623.45
876.99	2465.75
877.16	2664.41
877.32	2512.86
877.49	2611.16
877.66	2777.05
877.82	2897.88
877.99	2619.35
878.15	2768.85
878.32	2703.32
878.49	2822.10
878.65	2592.73
878.82	2734.04
878.98	2643.93
879.15	2826.20
879.32	2658.26
879.48	2627.54
879.65	2662.36
879.81	2703.32
879.98	2543.58
880.15	2557.91
880.31	2822.10
880.48	2576.34
880.64	2658.26
880.81	2662.36
880.97	2975.70
881.14	2818.00
881.31	2506.71
881.47	2764.76
881.64	2678.74
881.80	2568.15
881.97	2707.41
882.13	2572.25
882.30	2619.35
882.47	2643.93
882.63	2490.33
882.80	2506.71
882.96	2631.64
883.13	2871.25
883.29	2637.78
883.46	2529.24
883.62	2961.36
883.79	2682.84
883.95	2731.99
884.12	2523.10
884.29	2822.10
884.45	2721.75
884.62	2639.83
884.78	2572.25
884.95	2906.07
885.11	2688.98
885.28	2621.40
885.44	2658.26
885.61	2815.96
885.77	2953.17
885.94	2643.93
886.10	2592.73
886.27	2703.32
886.43	2965.46
886.60	2729.94
886.76	2543.58
886.93	2545.63
887.09	2723.80
887.26	2459.61
887.42	2613.21
887.59	2848.72
887.75	3010.51
887.92	2699.22
888.08	2715.61
888.25	2957.27
888.41	2815.96
888.58	2611.16
888.74	2570.20
888.91	2637.78
>>>>>End Processed Spectral Data<<<<<
