SpectraSuite Data File
++++++++++++++++++++++++++++++++++++
Date: Thu May 05 16:20:30 CEST 2016
User: root
Dark Spectrum Present: No
Reference Spectrum Present: No
Number of Sampled Component Spectra: 1
Spectrometers: USB4C02835
Integration Time (usec): 100000 (USB4C02835)
Spectra Averaged: 1 (USB4C02835)
Boxcar Smoothing: 0 (USB4C02835)
Correct for Electrical Dark: No (USB4C02835)
Strobe/Lamp Enabled: No (USB4C02835)
Correct for Detector Non-linearity: No (USB4C02835)
Correct for Stray Light: No (USB4C02835)
Number of Pixels in Processed Spectrum: 3648
>>>>>Begin Processed Spectral Data<<<<<
177.47	2039.78
177.69	2039.78
177.91	2039.78
178.13	2052.06
178.36	2093.02
178.58	2570.20
178.80	2662.36
179.02	2537.43
179.24	2570.20
179.46	2437.08
179.68	2545.63
179.90	2680.79
180.13	2748.37
180.35	2412.51
180.57	2478.04
180.79	2834.39
181.01	2668.50
181.23	2535.39
181.45	2572.25
181.67	2840.53
181.90	2844.63
182.12	2525.15
182.34	2328.54
182.56	2828.24
182.78	2813.91
183.00	2496.47
183.22	2516.95
183.44	2420.70
183.66	3151.82
183.89	2607.06
184.11	2568.15
184.33	2801.62
184.55	2889.68
184.77	2502.62
184.99	2469.85
185.21	2729.94
185.43	3096.53
185.65	2557.91
185.87	2459.61
186.10	3041.23
186.32	3098.58
186.54	2592.73
186.76	2600.92
186.98	2871.25
187.20	2695.13
187.42	2502.62
187.64	2469.85
187.86	2760.66
188.08	2830.29
188.30	2463.71
188.52	2576.34
188.75	2965.46
188.97	2891.73
189.19	2523.10
189.41	2492.38
189.63	2895.83
189.85	2658.26
190.07	2353.12
190.29	2363.36
190.51	2729.94
190.73	2516.95
190.95	2645.98
191.17	2543.58
191.39	2508.76
191.61	2711.51
191.84	2594.78
192.06	2635.74
192.28	2572.25
192.50	3248.08
192.72	2637.78
192.94	2580.44
193.16	2883.54
193.38	2719.70
193.60	2412.51
193.82	2666.46
194.04	2914.26
194.26	2797.53
194.48	2564.06
194.70	2525.15
194.92	2686.94
195.14	2799.57
195.36	2430.94
195.58	2572.25
195.80	2699.22
196.02	2576.34
196.24	2420.70
196.46	2609.11
196.69	2707.41
196.91	2981.84
197.13	2605.02
197.35	2447.32
197.57	2955.22
197.79	2861.01
198.01	2535.39
198.23	2512.86
198.45	2799.57
198.67	2514.91
198.89	2398.17
199.11	2543.58
199.33	2695.13
199.55	2432.99
199.77	2467.80
199.99	2658.26
200.21	2697.17
200.43	2762.71
200.65	2469.85
200.87	2351.07
201.09	2709.46
201.31	2658.26
201.53	2545.63
201.75	2584.54
201.97	2727.89
202.19	2705.37
202.41	2531.29
202.63	2666.46
202.85	2822.10
203.07	2738.13
203.29	2488.28
203.51	2406.36
203.73	2637.78
203.95	3139.54
204.17	2455.51
204.39	2586.58
204.61	2768.85
204.83	2635.74
205.05	2662.36
205.27	2529.24
205.49	3026.90
205.71	2672.60
205.93	2449.37
206.15	2432.99
206.37	2736.09
206.59	2695.13
206.81	2424.80
207.03	2457.56
207.25	2521.05
207.47	2762.71
207.69	2525.15
207.91	2699.22
208.13	2908.12
208.34	2678.74
208.56	2445.27
208.78	2523.10
209.00	2594.78
209.22	2648.02
209.44	2525.15
209.66	2463.71
209.88	2695.13
210.10	2746.33
210.32	2523.10
210.54	2527.19
210.76	2619.35
210.98	2787.29
211.20	2406.36
211.42	2633.69
211.64	2879.44
211.86	2772.95
212.08	2578.39
212.30	2523.10
212.52	2641.88
212.74	2901.97
212.96	2600.92
213.17	2576.34
213.39	2729.94
213.61	2940.88
213.83	2600.92
214.05	2353.12
214.27	2879.44
214.49	2609.11
214.71	2412.51
214.93	2551.77
215.15	2744.28
215.37	2826.20
215.59	2396.12
215.81	2559.96
216.03	2977.75
216.24	2711.51
216.46	2502.62
216.68	2510.81
216.90	2924.50
217.12	2891.73
217.34	2486.23
217.56	2639.83
217.78	2940.88
218.00	2781.14
218.22	2590.68
218.44	2650.07
218.66	2709.46
218.87	3047.38
219.09	2543.58
219.31	2529.24
219.53	2750.42
219.75	2629.59
219.97	2578.39
220.19	2541.53
220.41	2688.98
220.63	3010.51
220.85	2605.02
221.06	2543.58
221.28	2914.26
221.50	2777.05
221.72	2557.91
221.94	2482.14
222.16	2797.53
222.38	2936.79
222.60	2463.71
222.82	2557.91
223.03	2873.30
223.25	2596.82
223.47	2566.10
223.69	2662.36
223.91	2910.16
224.13	2738.13
224.35	2482.14
224.57	2693.08
224.78	2891.73
225.00	2574.30
225.22	2650.07
225.44	2473.95
225.66	2881.49
225.88	2613.21
226.10	2588.63
226.32	2564.06
226.53	2885.59
226.75	2695.13
226.97	2523.10
227.19	2564.06
227.41	2658.26
227.63	2594.78
227.85	2344.92
228.06	2557.91
228.28	2766.81
228.50	2723.80
228.72	2381.79
228.94	2514.91
229.16	2506.71
229.37	2578.39
229.59	2437.08
229.81	2750.42
230.03	2678.74
230.25	2467.80
230.47	2338.78
230.69	2465.75
230.90	2826.20
231.12	2633.69
231.34	2572.25
231.56	2549.72
231.78	2617.30
232.00	2740.18
232.21	2500.57
232.43	2551.77
232.65	2389.98
232.87	2756.57
233.09	2402.27
233.30	2424.80
233.52	2836.44
233.74	2654.17
233.96	2541.53
234.18	2652.12
234.40	2756.57
234.61	3076.05
234.83	2394.08
235.05	2463.71
235.27	3121.10
235.49	2932.69
235.70	2412.51
235.92	2555.86
236.14	2809.81
236.36	3127.25
236.58	2396.12
236.79	2586.58
237.01	2691.03
237.23	2729.94
237.45	2701.27
237.67	2478.04
237.88	2764.76
238.10	3078.10
238.32	2486.23
238.54	2527.19
238.76	2711.51
238.97	2586.58
239.19	2435.03
239.41	2609.11
239.63	2944.98
239.85	2641.88
240.06	2482.14
240.28	2473.95
240.50	2897.88
240.72	2772.95
240.93	2449.37
241.15	2658.26
241.37	2842.58
241.59	3014.61
241.81	2545.63
242.02	2586.58
242.24	2731.99
242.46	2848.72
242.68	2432.99
242.89	2482.14
243.11	2861.01
243.33	2731.99
243.55	2607.06
243.76	2537.43
243.98	2541.53
244.20	2609.11
244.42	2521.05
244.64	2473.95
244.85	2521.05
245.07	2627.54
245.29	2539.48
245.51	2564.06
245.72	2744.28
245.94	2848.72
246.16	2502.62
246.38	2566.10
246.59	2611.16
246.81	2582.49
247.03	2453.47
247.24	2351.07
247.46	2719.70
247.68	2695.13
247.90	2521.05
248.11	2592.73
248.33	2818.00
248.55	2760.66
248.77	2562.01
248.98	2625.50
249.20	2918.36
249.42	2670.55
249.64	2441.18
249.85	2451.42
250.07	2658.26
250.29	2797.53
250.50	2596.82
250.72	2469.85
250.94	2727.89
251.16	2979.79
251.37	2502.62
251.59	2639.83
251.81	2795.48
252.02	2856.92
252.24	2426.84
252.46	2678.74
252.68	2580.44
252.89	2641.88
253.11	2385.88
253.33	2643.93
253.54	2867.16
253.76	2576.34
253.98	2459.61
254.20	2471.90
254.41	2527.19
254.63	2691.03
254.85	2408.41
255.06	2512.86
255.28	2826.20
255.50	2686.94
255.71	2490.33
255.93	2426.84
256.15	2695.13
256.36	2764.76
256.58	2322.40
256.80	2521.05
257.02	2670.55
257.23	2758.61
257.45	2584.54
257.67	2555.86
257.88	2631.64
258.10	2723.80
258.32	2496.47
258.53	2551.77
258.75	3000.27
258.97	2619.35
259.18	2539.48
259.40	2506.71
259.62	2949.08
259.83	2957.27
260.05	2545.63
260.27	3168.21
260.48	2906.07
260.70	2521.05
260.92	2439.13
261.13	2494.43
261.35	2822.10
261.57	2807.77
261.78	2437.08
262.00	2422.75
262.22	2889.68
262.43	2637.78
262.65	2449.37
262.86	2475.99
263.08	3053.52
263.30	2703.32
263.51	2363.36
263.73	2496.47
263.95	2951.12
264.16	2627.54
264.38	2430.94
264.60	2514.91
264.81	2754.52
265.03	2908.12
265.25	2836.44
265.46	2500.57
265.68	2942.93
265.89	2799.57
266.11	2396.12
266.33	2525.15
266.54	2875.35
266.76	2746.33
266.98	2537.43
267.19	2623.45
267.41	2820.05
267.62	2693.08
267.84	2445.27
268.06	2617.30
268.27	2731.99
268.49	2856.92
268.70	2523.10
268.92	2498.52
269.14	2605.02
269.35	2500.57
269.57	2537.43
269.79	2553.82
270.00	2662.36
270.22	2947.03
270.43	2437.08
270.65	2289.63
270.87	2750.42
271.08	2871.25
271.30	2623.45
271.51	2535.39
271.73	2807.77
271.95	2912.21
272.16	2465.75
272.38	2656.22
272.59	2768.85
272.81	2856.92
273.02	2498.52
273.24	2586.58
273.46	2879.44
273.67	2625.50
273.89	2346.97
274.10	2539.48
274.32	2904.02
274.54	2752.47
274.75	2588.63
274.97	2613.21
275.18	2789.33
275.40	2832.34
275.61	2488.28
275.83	2699.22
276.05	2490.33
276.26	2666.46
276.48	2570.20
276.69	2605.02
276.91	2711.51
277.12	2951.12
277.34	2762.71
277.55	2783.19
277.77	2731.99
277.99	2750.42
278.20	2521.05
278.42	2555.86
278.63	2555.86
278.85	2541.53
279.06	2461.66
279.28	2723.80
279.49	2883.54
279.71	2844.63
279.93	2740.18
280.14	2621.40
280.36	2559.96
280.57	2795.48
280.79	2619.35
281.00	2543.58
281.22	2619.35
281.43	2887.64
281.65	2383.84
281.86	2537.43
282.08	2854.87
282.29	3022.80
282.51	2449.37
282.73	2471.90
282.94	2519.00
283.16	2793.43
283.37	2807.77
283.59	2588.63
283.80	2799.57
284.02	2705.37
284.23	2645.98
284.45	2645.98
284.66	2596.82
284.88	2625.50
285.09	2660.31
285.31	2654.17
285.52	2770.90
285.74	2590.68
285.95	2711.51
286.17	2672.60
286.38	2852.82
286.60	2596.82
286.81	2557.91
287.03	2596.82
287.24	2734.04
287.46	2803.67
287.67	2709.46
287.89	2873.30
288.10	2654.17
288.32	2744.28
288.53	2762.71
288.75	2619.35
288.96	2867.16
289.18	2633.69
289.39	2617.30
289.61	2584.54
289.82	2951.12
290.04	2990.03
290.25	2490.33
290.47	2643.93
290.68	2725.85
290.90	2879.44
291.11	2521.05
291.33	2723.80
291.54	2693.08
291.76	2660.31
291.97	2660.31
292.18	2709.46
292.40	2611.16
292.61	2600.92
292.83	2924.50
293.04	2656.22
293.26	2820.05
293.47	2684.89
293.69	2521.05
293.90	2543.58
294.12	2838.48
294.33	2715.61
294.55	2672.60
294.76	2770.90
294.97	2912.21
295.19	2990.03
295.40	2609.11
295.62	2744.28
295.83	2846.68
296.05	2580.44
296.26	2815.96
296.48	2594.78
296.69	2631.64
296.90	2707.41
297.12	2684.89
297.33	2701.27
297.55	2729.94
297.76	2803.67
297.98	2688.98
298.19	2723.80
298.41	2650.07
298.62	2574.30
298.83	2797.53
299.05	2711.51
299.26	2688.98
299.48	2588.63
299.69	2756.57
299.90	2656.22
300.12	2645.98
300.33	2856.92
300.55	2631.64
300.76	2680.79
300.98	2635.74
301.19	2836.44
301.40	2578.39
301.62	2605.02
301.83	2703.32
302.05	2729.94
302.26	2572.25
302.47	2670.55
302.69	2582.49
302.90	2707.41
303.12	2408.41
303.33	2686.94
303.54	3057.62
303.76	2607.06
303.97	2637.78
304.19	2811.86
304.40	2605.02
304.61	2830.29
304.83	2744.28
305.04	2701.27
305.26	2801.62
305.47	2729.94
305.68	2631.64
305.90	2539.48
306.11	2899.92
306.33	2695.13
306.54	2465.75
306.75	2564.06
306.97	2559.96
307.18	2586.58
307.39	2615.26
307.61	2629.59
307.82	2674.65
308.04	2760.66
308.25	2543.58
308.46	2648.02
308.68	2797.53
308.89	2666.46
309.10	2746.33
309.32	2656.22
309.53	2738.13
309.74	2762.71
309.96	2559.96
310.17	2738.13
310.39	2570.20
310.60	2797.53
310.81	2760.66
311.03	2559.96
311.24	2744.28
311.45	2684.89
311.67	2842.58
311.88	2648.02
312.09	2711.51
312.31	2588.63
312.52	2598.87
312.73	2639.83
312.95	2498.52
313.16	2662.36
313.37	2809.81
313.59	2695.13
313.80	2818.00
314.01	2967.51
314.23	2605.02
314.44	2553.82
314.65	2596.82
314.87	2607.06
315.08	2621.40
315.29	2486.23
315.51	2617.30
315.72	2545.63
315.93	2725.85
316.15	2701.27
316.36	2605.02
316.57	2772.95
316.79	2731.99
317.00	2559.96
317.21	2787.29
317.43	2584.54
317.64	2682.84
317.85	2523.10
318.07	2594.78
318.28	2645.98
318.49	2717.65
318.70	2926.55
318.92	2756.57
319.13	2764.76
319.34	2734.04
319.56	2635.74
319.77	2830.29
319.98	2881.49
320.20	2842.58
320.41	2666.46
320.62	2770.90
320.83	2467.80
321.05	2842.58
321.26	2668.50
321.47	2760.66
321.69	2858.96
321.90	2545.63
322.11	2545.63
322.32	2772.95
322.54	3051.47
322.75	2607.06
322.96	3200.98
323.18	2486.23
323.39	2465.75
323.60	2486.23
323.81	2699.22
324.03	2564.06
324.24	2664.41
324.45	2715.61
324.66	2574.30
324.88	2930.64
325.09	2930.64
325.30	2570.20
325.52	2559.96
325.73	2770.90
325.94	2672.60
326.15	2437.08
326.37	2576.34
326.58	2797.53
326.79	3012.56
327.00	2523.10
327.22	2660.31
327.43	2617.30
327.64	2586.58
327.85	2695.13
328.07	2668.50
328.28	3028.95
328.49	2672.60
328.70	2592.73
328.92	2633.69
329.13	2693.08
329.34	2713.56
329.55	2783.19
329.76	2799.57
329.98	2717.65
330.19	2930.64
330.40	2713.56
330.61	2691.03
330.83	2768.85
331.04	2637.78
331.25	2768.85
331.46	2594.78
331.68	2596.82
331.89	2824.15
332.10	2662.36
332.31	2488.28
332.52	2670.55
332.74	2820.05
332.95	2535.39
333.16	2627.54
333.37	2871.25
333.58	2643.93
333.80	2625.50
334.01	2408.41
334.22	2686.94
334.43	2613.21
334.64	2527.19
334.86	2488.28
335.07	2627.54
335.28	2934.74
335.49	2463.71
335.70	2674.65
335.92	2922.45
336.13	3012.56
336.34	2760.66
336.55	2613.21
336.76	2768.85
336.98	2424.80
337.19	2643.93
337.40	2775.00
337.61	3051.47
337.82	2637.78
338.04	2768.85
338.25	2418.65
338.46	2678.74
338.67	2740.18
338.88	2488.28
339.09	2559.96
339.31	2643.93
339.52	2541.53
339.73	2432.99
339.94	2570.20
340.15	2797.53
340.36	2682.84
340.58	2627.54
340.79	2570.20
341.00	2799.57
341.21	2590.68
341.42	2844.63
341.63	2572.25
341.85	2801.62
342.06	2705.37
342.27	2596.82
342.48	2748.37
342.69	2568.15
342.90	2775.00
343.12	2809.81
343.33	2625.50
343.54	2869.20
343.75	2955.22
343.96	2629.59
344.17	2543.58
344.38	2633.69
344.60	2564.06
344.81	2424.80
345.02	2629.59
345.23	2936.79
345.44	3088.34
345.65	2656.22
345.86	2684.89
346.07	2656.22
346.29	2662.36
346.50	2670.55
346.71	2736.09
346.92	2973.65
347.13	3030.99
347.34	2602.97
347.55	2484.19
347.76	2793.43
347.98	2467.80
348.19	2557.91
348.40	2758.61
348.61	2615.26
348.82	2990.03
349.03	2654.17
349.24	2527.19
349.45	2992.08
349.66	2471.90
349.88	2535.39
350.09	2531.29
350.30	2916.31
350.51	2924.50
350.72	2742.23
350.93	2533.34
351.14	2641.88
351.35	2777.05
351.56	2582.49
351.77	2643.93
351.99	2662.36
352.20	2918.36
352.41	2793.43
352.62	2471.90
352.83	2709.46
353.04	2695.13
353.25	2588.63
353.46	2594.78
353.67	2908.12
353.88	2439.13
354.09	2629.59
354.30	2713.56
354.52	2807.77
354.73	2686.94
354.94	2510.81
355.15	2682.84
355.36	3047.38
355.57	2676.70
355.78	2648.02
355.99	2559.96
356.20	2660.31
356.41	2891.73
356.62	2719.70
356.83	2574.30
357.04	2893.78
357.25	2516.95
357.46	2539.48
357.68	2488.28
357.89	2580.44
358.10	2658.26
358.31	2539.48
358.52	2672.60
358.73	2525.15
358.94	2533.34
359.15	2611.16
359.36	2680.79
359.57	2668.50
359.78	2731.99
359.99	2711.51
360.20	2541.53
360.41	2744.28
360.62	2762.71
360.83	2717.65
361.04	2711.51
361.25	2807.77
361.46	3014.61
361.67	2738.13
361.88	2643.93
362.09	2893.78
362.30	2736.09
362.51	2564.06
362.72	2688.98
362.93	2873.30
363.14	2822.10
363.35	2672.60
363.56	2473.95
363.78	2922.45
363.99	2850.77
364.20	2621.40
364.41	2670.55
364.62	3080.14
364.83	2772.95
365.04	2576.34
365.25	2578.39
365.46	2994.13
365.67	2658.26
365.88	2645.98
366.09	2535.39
366.30	2703.32
366.51	2668.50
366.72	2562.01
366.93	2654.17
367.14	2676.70
367.35	2899.92
367.56	2656.22
367.77	2717.65
367.98	2719.70
368.18	2742.23
368.39	2764.76
368.60	2557.91
368.81	2863.06
369.02	2731.99
369.23	2662.36
369.44	2525.15
369.65	2623.45
369.86	2832.34
370.07	2740.18
370.28	2475.99
370.49	2725.85
370.70	2832.34
370.91	2537.43
371.12	2402.27
371.33	2805.72
371.54	2590.68
371.75	2744.28
371.96	2379.74
372.17	2731.99
372.38	2695.13
372.59	2711.51
372.80	2539.48
373.01	2656.22
373.22	2738.13
373.43	2619.35
373.64	2400.22
373.85	2912.21
374.06	2961.36
374.26	2783.19
374.47	2727.89
374.68	2949.08
374.89	2678.74
375.10	2645.98
375.31	2697.17
375.52	2705.37
375.73	2734.04
375.94	2484.19
376.15	2777.05
376.36	2635.74
376.57	2627.54
376.78	2637.78
376.99	2635.74
377.20	2899.92
377.40	2797.53
377.61	2904.02
377.82	2641.88
378.03	2901.97
378.24	2832.34
378.45	2664.41
378.66	2641.88
378.87	2482.14
379.08	2514.91
379.29	2557.91
379.50	2781.14
379.71	2754.52
379.91	2768.85
380.12	2688.98
380.33	2664.41
380.54	2772.95
380.75	2637.78
380.96	2592.73
381.17	2660.31
381.38	2705.37
381.59	2758.61
381.80	2639.83
382.00	2809.81
382.21	2742.23
382.42	2965.46
382.63	2916.31
382.84	2670.55
383.05	2883.54
383.26	2920.40
383.47	2678.74
383.68	2639.83
383.88	2670.55
384.09	2686.94
384.30	2818.00
384.51	2637.78
384.72	2676.70
384.93	2482.14
385.14	2676.70
385.35	2824.15
385.55	2490.33
385.76	2848.72
385.97	2545.63
386.18	2533.34
386.39	2580.44
386.60	2752.47
386.81	2629.59
387.02	2566.10
387.22	2564.06
387.43	2826.20
387.64	2658.26
387.85	2875.35
388.06	2838.48
388.27	3973.06
388.48	7532.43
388.68	11032.41
388.89	13360.95
389.10	14522.15
389.31	13741.87
389.52	10839.90
389.73	9611.12
389.93	8470.40
390.14	7993.22
390.35	7075.73
390.56	6352.80
390.77	5287.86
390.98	4054.98
391.18	3420.11
391.39	3127.25
391.60	2764.76
391.81	2795.48
392.02	2703.32
392.23	3014.61
392.43	2809.81
392.64	2736.09
392.85	2791.38
393.06	2971.60
393.27	2701.27
393.47	2650.07
393.68	2711.51
393.89	2654.17
394.10	2883.54
394.31	2611.16
394.52	2596.82
394.72	2713.56
394.93	2944.98
395.14	2582.49
395.35	2754.52
395.56	2484.19
395.76	2754.52
395.97	2654.17
396.18	2709.46
396.39	2820.05
396.60	3221.45
396.80	2936.79
397.01	2797.53
397.22	2949.08
397.43	3047.38
397.64	2662.36
397.84	2676.70
398.05	3016.66
398.26	2672.60
398.47	2688.98
398.67	2801.62
398.88	2713.56
399.09	2904.02
399.30	2600.92
399.51	2709.46
399.71	2719.70
399.92	2656.22
400.13	2705.37
400.34	2623.45
400.54	2701.27
400.75	3018.71
400.96	2684.89
401.17	2926.55
401.37	2791.38
401.58	2680.79
401.79	2680.79
402.00	2748.37
402.21	3125.20
402.41	2973.65
402.62	2906.07
402.83	3004.37
403.04	3117.01
403.24	3338.19
403.45	2711.51
403.66	2971.60
403.87	2883.54
404.07	2932.69
404.28	2830.29
404.49	2856.92
404.70	2856.92
404.90	2912.21
405.11	2691.03
405.32	2705.37
405.52	2633.69
405.73	2641.88
405.94	2572.25
406.15	2650.07
406.35	2854.87
406.56	2893.78
406.77	2680.79
406.98	2619.35
407.18	2639.83
407.39	2899.92
407.60	2674.65
407.80	2740.18
408.01	2691.03
408.22	2799.57
408.43	2529.24
408.63	2711.51
408.84	2838.48
409.05	2881.49
409.25	2545.63
409.46	2494.43
409.67	2711.51
409.88	2605.02
410.08	2660.31
410.29	2578.39
410.50	2826.20
410.70	2820.05
410.91	2523.10
411.12	2684.89
411.32	2719.70
411.53	2605.02
411.74	2643.93
411.95	2772.95
412.15	2717.65
412.36	2897.88
412.57	2740.18
412.77	2873.30
412.98	2697.17
413.19	2643.93
413.39	2693.08
413.60	2701.27
413.81	2928.60
414.01	2496.47
414.22	2734.04
414.43	2807.77
414.63	2744.28
414.84	2908.12
415.05	2611.16
415.25	2504.67
415.46	2801.62
415.67	2676.70
415.87	2643.93
416.08	2607.06
416.29	2668.50
416.49	2854.87
416.70	2697.17
416.91	2623.45
417.11	2781.14
417.32	2899.92
417.53	2801.62
417.73	2736.09
417.94	2703.32
418.15	2688.98
418.35	2672.60
418.56	2656.22
418.77	3170.26
418.97	2686.94
419.18	2654.17
419.38	2420.70
419.59	2752.47
419.80	2875.35
420.00	2656.22
420.21	2668.50
420.42	2981.84
420.62	2758.61
420.83	2578.39
421.04	2613.21
421.24	2674.65
421.45	2854.87
421.65	2662.36
421.86	2598.87
422.07	2885.59
422.27	2729.94
422.48	2668.50
422.69	2482.14
422.89	2779.09
423.10	2725.85
423.30	2631.64
423.51	2772.95
423.72	2781.14
423.92	2832.34
424.13	2496.47
424.33	2678.74
424.54	2928.60
424.75	2686.94
424.95	2953.17
425.16	2654.17
425.36	2656.22
425.57	2805.72
425.78	2791.38
425.98	2711.51
426.19	2711.51
426.39	2615.26
426.60	2717.65
426.81	2789.33
427.01	2803.67
427.22	2650.07
427.42	2506.71
427.63	2598.87
427.83	2908.12
428.04	3022.80
428.25	2750.42
428.45	2818.00
428.66	2854.87
428.86	2676.70
429.07	2680.79
429.28	2676.70
429.48	2721.75
429.69	2617.30
429.89	2752.47
430.10	2613.21
430.30	2797.53
430.51	2856.92
430.71	2645.98
430.92	2695.13
431.13	2652.12
431.33	2832.34
431.54	2656.22
431.74	2809.81
431.95	2973.65
432.15	2559.96
432.36	2629.59
432.56	2756.57
432.77	3061.71
432.98	2994.13
433.18	2664.41
433.39	2637.78
433.59	2691.03
433.80	3104.72
434.00	2897.88
434.21	2559.96
434.41	2600.92
434.62	3035.09
434.82	2502.62
435.03	2607.06
435.23	2805.72
435.44	2523.10
435.64	2596.82
435.85	2676.70
436.06	2918.36
436.26	2813.91
436.47	2656.22
436.67	2580.44
436.88	2668.50
437.08	2889.68
437.29	2775.00
437.49	2723.80
437.70	2854.87
437.90	2719.70
438.11	2889.68
438.31	2807.77
438.52	2879.44
438.72	2914.26
438.93	2957.27
439.13	2674.65
439.34	2906.07
439.54	2717.65
439.75	2805.72
439.95	2719.70
440.16	2627.54
440.36	2686.94
440.57	2734.04
440.77	2688.98
440.98	2664.41
441.18	2873.30
441.39	2564.06
441.59	2512.86
441.80	3121.10
442.00	2684.89
442.21	2752.47
442.41	2527.19
442.62	2908.12
442.82	2660.31
443.02	2611.16
443.23	2719.70
443.43	2738.13
443.64	2871.25
443.84	2504.67
444.05	2691.03
444.25	2725.85
444.46	2713.56
444.66	2621.40
444.87	2942.93
445.07	2531.29
445.28	2680.79
445.48	2830.29
445.69	2654.17
445.89	3061.71
446.09	2643.93
446.30	2934.74
446.50	3114.96
446.71	4612.03
446.91	5832.62
447.12	6561.69
447.32	6801.30
447.53	6567.84
447.73	5537.71
447.93	4800.44
448.14	4499.39
448.34	4579.26
448.55	3862.47
448.75	3823.56
448.96	3651.53
449.16	3479.50
449.36	3246.03
449.57	2910.16
449.77	2693.08
449.98	2609.11
450.18	2781.14
450.39	2693.08
450.59	2766.81
450.79	2684.89
451.00	2695.13
451.20	2824.15
451.41	2654.17
451.61	2834.39
451.81	2672.60
452.02	2719.70
452.22	2639.83
452.43	2635.74
452.63	2686.94
452.84	2613.21
453.04	2541.53
453.24	2719.70
453.45	2564.06
453.65	2617.30
453.86	2750.42
454.06	2746.33
454.26	2752.47
454.47	2568.15
454.67	2867.16
454.87	2820.05
455.08	2686.94
455.28	2785.24
455.49	2775.00
455.69	2547.67
455.89	3043.28
456.10	2738.13
456.30	2650.07
456.51	2846.68
456.71	2852.82
456.91	2699.22
457.12	2727.89
457.32	2809.81
457.52	2557.91
457.73	2752.47
457.93	2740.18
458.14	2619.35
458.34	2455.51
458.54	2693.08
458.75	2684.89
458.95	2904.02
459.15	2850.77
459.36	2693.08
459.56	2711.51
459.76	3047.38
459.97	2801.62
460.17	2707.41
460.37	2756.57
460.58	2666.46
460.78	2883.54
460.99	2547.67
461.19	2650.07
461.39	2619.35
461.60	2660.31
461.80	2654.17
462.00	2562.01
462.21	2715.61
462.41	2598.87
462.61	2574.30
462.82	2514.91
463.02	2701.27
463.22	2719.70
463.43	2736.09
463.63	2645.98
463.83	2867.16
464.04	2850.77
464.24	2703.32
464.44	2531.29
464.64	2760.66
464.85	2764.76
465.05	2740.18
465.25	2672.60
465.46	2635.74
465.66	2858.96
465.86	2762.71
466.07	2627.54
466.27	2650.07
466.47	2461.66
466.68	2531.29
466.88	2809.81
467.08	2818.00
467.29	2844.63
467.49	2600.92
467.69	2754.52
467.89	2809.81
468.10	2641.88
468.30	2705.37
468.50	2770.90
468.71	2985.94
468.91	2422.75
469.11	2785.24
469.31	2703.32
469.52	2611.16
469.72	2967.51
469.92	2881.49
470.13	2641.88
470.33	2787.29
470.53	2838.48
470.73	3006.42
470.94	3370.96
471.14	3370.96
471.34	3878.85
471.54	3594.19
471.75	3375.05
471.95	3135.44
472.15	2987.99
472.36	3112.91
472.56	2893.78
472.76	3170.26
472.96	3076.05
473.17	2865.11
473.37	2848.72
473.57	2672.60
473.77	2832.34
473.98	2717.65
474.18	2535.39
474.38	3117.01
474.58	2602.97
474.79	2570.20
474.99	2795.48
475.19	2873.30
475.39	2617.30
475.60	2639.83
475.80	2768.85
476.00	2731.99
476.20	2691.03
476.41	2766.81
476.61	2793.43
476.81	2865.11
477.01	2639.83
477.21	2904.02
477.42	2801.62
477.62	2602.97
477.82	2813.91
478.02	2635.74
478.23	2680.79
478.43	2650.07
478.63	2703.32
478.83	2711.51
479.03	2643.93
479.24	2920.40
479.44	3155.92
479.64	2607.06
479.84	2461.66
480.04	2684.89
480.25	2811.86
480.45	2609.11
480.65	2625.50
480.85	2955.22
481.06	2713.56
481.26	2727.89
481.46	2727.89
481.66	2846.68
481.86	2541.53
482.06	2793.43
482.27	2645.98
482.47	2596.82
482.67	2719.70
482.87	2645.98
483.07	2783.19
483.28	2613.21
483.48	2555.86
483.68	2627.54
483.88	2549.72
484.08	2439.13
484.29	2535.39
484.49	2801.62
484.69	2392.03
484.89	2910.16
485.09	2852.82
485.29	2744.28
485.50	2721.75
485.70	2617.30
485.90	2891.73
486.10	2693.08
486.30	2707.41
486.50	2918.36
486.71	2799.57
486.91	2688.98
487.11	2772.95
487.31	2541.53
487.51	2848.72
487.71	2582.49
487.91	2533.34
488.12	2605.02
488.32	2422.75
488.52	2586.58
488.72	2430.94
488.92	2834.39
489.12	2863.06
489.32	2785.24
489.53	2611.16
489.73	2449.37
489.93	2955.22
490.13	2615.26
490.33	2465.75
490.53	2764.76
490.73	2914.26
490.94	2490.33
491.14	2793.43
491.34	2785.24
491.54	2967.51
491.74	3588.04
491.94	4112.32
492.14	4413.37
492.34	4341.69
492.54	4151.23
492.75	3456.97
492.95	3698.63
493.15	3403.72
493.35	3213.26
493.55	3237.84
493.75	3084.24
493.95	3186.64
494.15	2875.35
494.35	2750.42
494.56	2684.89
494.76	2701.27
494.96	2688.98
495.16	2672.60
495.36	2744.28
495.56	2711.51
495.76	2715.61
495.96	2691.03
496.16	2664.41
496.36	2957.27
496.56	2557.91
496.77	2598.87
496.97	2674.65
497.17	2906.07
497.37	2529.24
497.57	2738.13
497.77	2734.04
497.97	2564.06
498.17	2697.17
498.37	2607.06
498.57	2832.34
498.77	2654.17
498.97	2748.37
499.17	2895.83
499.38	2688.98
499.58	2766.81
499.78	2781.14
499.98	2787.29
500.18	2744.28
500.38	2637.78
500.58	2881.49
500.78	3194.83
500.98	5281.71
501.18	7139.22
501.38	8712.06
501.58	9478.00
501.78	9410.42
501.98	7798.66
502.18	6432.67
502.38	5595.05
502.58	5380.01
502.78	4886.45
502.98	4618.17
503.18	4362.17
503.38	4085.70
503.59	3567.56
503.79	3549.13
503.99	3256.27
504.19	3233.74
504.39	3213.26
504.59	3129.30
504.79	3098.58
504.99	3190.74
505.19	2973.65
505.39	2861.01
505.59	3020.75
505.79	3039.19
505.99	2895.83
506.19	2650.07
506.39	2885.59
506.59	2607.06
506.79	2691.03
506.99	2826.20
507.19	2697.17
507.39	2719.70
507.59	2525.15
507.79	2533.34
507.99	2564.06
508.19	2717.65
508.39	2717.65
508.59	2707.41
508.79	2797.53
508.99	3067.86
509.19	2693.08
509.39	2764.76
509.59	2564.06
509.79	2629.59
509.99	2809.81
510.19	2772.95
510.39	2746.33
510.59	2709.46
510.79	2588.63
510.99	2516.95
511.19	2496.47
511.39	2961.36
511.59	2887.64
511.79	2744.28
511.99	2617.30
512.19	2975.70
512.38	2789.33
512.58	2529.24
512.78	2633.69
512.98	2908.12
513.18	2926.55
513.38	2584.54
513.58	2654.17
513.78	2670.55
513.98	2709.46
514.18	2654.17
514.38	2670.55
514.58	2709.46
514.78	2701.27
514.98	2580.44
515.18	2672.60
515.38	2584.54
515.58	2910.16
515.78	2490.33
515.98	2684.89
516.18	2809.81
516.38	2768.85
516.57	2516.95
516.77	2668.50
516.97	2815.96
517.17	2678.74
517.37	2463.71
517.57	2688.98
517.77	2824.15
517.97	2578.39
518.17	2715.61
518.37	2611.16
518.57	2592.73
518.77	2645.98
518.97	2637.78
519.16	2650.07
519.36	2848.72
519.56	2619.35
519.76	2613.21
519.96	2660.31
520.16	2934.74
520.36	2645.98
520.56	2809.81
520.76	2586.58
520.96	2756.57
521.16	2899.92
521.35	2824.15
521.55	2850.77
521.75	2738.13
521.95	2695.13
522.15	2586.58
522.35	2521.05
522.55	2574.30
522.75	2869.20
522.95	2578.39
523.14	2406.36
523.34	2795.48
523.54	2639.83
523.74	2719.70
523.94	2666.46
524.14	2559.96
524.34	2682.84
524.54	2809.81
524.73	2637.78
524.93	2897.88
525.13	2736.09
525.33	2521.05
525.53	2881.49
525.73	2844.63
525.93	2682.84
526.13	2629.59
526.32	2584.54
526.52	2873.30
526.72	2914.26
526.92	2596.82
527.12	2678.74
527.32	2488.28
527.52	2764.76
527.71	2727.89
527.91	2654.17
528.11	2658.26
528.31	2680.79
528.51	2625.50
528.71	2705.37
528.90	2787.29
529.10	2811.86
529.30	2670.55
529.50	2375.64
529.70	2725.85
529.90	2654.17
530.09	2674.65
530.29	2562.01
530.49	2533.34
530.69	3166.16
530.89	2783.19
531.09	2760.66
531.28	2664.41
531.48	2961.36
531.68	2668.50
531.88	2711.51
532.08	2914.26
532.28	2662.36
532.47	2789.33
532.67	2793.43
532.87	2785.24
533.07	2676.70
533.27	2811.86
533.46	2752.47
533.66	2813.91
533.86	2717.65
534.06	2627.54
534.26	2695.13
534.45	2766.81
534.65	2906.07
534.85	2674.65
535.05	2623.45
535.25	2787.29
535.44	2465.75
535.64	2766.81
535.84	2639.83
536.04	2684.89
536.24	2629.59
536.43	2658.26
536.63	2637.78
536.83	2686.94
537.03	2721.75
537.22	2480.09
537.42	2351.07
537.62	2791.38
537.82	2576.34
538.02	2777.05
538.21	2756.57
538.41	3172.30
538.61	2764.76
538.81	2650.07
539.00	2822.10
539.20	2514.91
539.40	2693.08
539.60	2660.31
539.79	2805.72
539.99	2740.18
540.19	2576.34
540.39	2674.65
540.58	2693.08
540.78	2861.01
540.98	2721.75
541.18	2764.76
541.37	2623.45
541.57	2746.33
541.77	2850.77
541.97	2578.39
542.16	2494.43
542.36	2736.09
542.56	2650.07
542.76	2852.82
542.95	2725.85
543.15	2770.90
543.35	2830.29
543.54	2562.01
543.74	2631.64
543.94	2899.92
544.14	2576.34
544.33	2695.13
544.53	2625.50
544.73	2678.74
544.93	2637.78
545.12	2607.06
545.32	2648.02
545.52	2740.18
545.71	2551.77
545.91	2539.48
546.11	2609.11
546.30	2617.30
546.50	2713.56
546.70	2709.46
546.90	2697.17
547.09	2469.85
547.29	2779.09
547.49	2824.15
547.68	2637.78
547.88	2588.63
548.08	2830.29
548.27	3121.10
548.47	2627.54
548.67	2619.35
548.87	2725.85
549.06	2670.55
549.26	2619.35
549.46	2803.67
549.65	2629.59
549.85	2686.94
550.05	2740.18
550.24	2596.82
550.44	2695.13
550.64	2723.80
550.83	2674.65
551.03	2897.88
551.23	2887.64
551.42	2705.37
551.62	2682.84
551.82	2772.95
552.01	2637.78
552.21	2785.24
552.41	2670.55
552.60	2981.84
552.80	2746.33
553.00	2633.69
553.19	2674.65
553.39	3045.33
553.59	2539.48
553.78	2797.53
553.98	2670.55
554.17	2643.93
554.37	2803.67
554.57	2742.23
554.76	2478.04
554.96	2648.02
555.16	2775.00
555.35	2707.41
555.55	2746.33
555.75	2826.20
555.94	2820.05
556.14	2412.51
556.33	2693.08
556.53	2678.74
556.73	2680.79
556.92	2695.13
557.12	2723.80
557.32	3026.90
557.51	2844.63
557.71	2744.28
557.90	2887.64
558.10	2930.64
558.30	2719.70
558.49	2727.89
558.69	2598.87
558.88	2736.09
559.08	2717.65
559.28	2637.78
559.47	2768.85
559.67	2813.91
559.86	2994.13
560.06	2674.65
560.26	2600.92
560.45	2889.68
560.65	2682.84
560.84	2844.63
561.04	2613.21
561.24	2750.42
561.43	2582.49
561.63	2861.01
561.82	2676.70
562.02	2809.81
562.22	2602.97
562.41	2516.95
562.61	2590.68
562.80	2674.65
563.00	3117.01
563.19	2697.17
563.39	2723.80
563.59	2775.00
563.78	2602.97
563.98	2422.75
564.17	2641.88
564.37	2492.38
564.56	2686.94
564.76	2543.58
564.96	2772.95
565.15	2811.86
565.35	3065.81
565.54	2648.02
565.74	2695.13
565.93	2834.39
566.13	2705.37
566.32	2693.08
566.52	2707.41
566.71	2783.19
566.91	2887.64
567.11	2764.76
567.30	2547.67
567.50	2789.33
567.69	2686.94
567.89	2670.55
568.08	2562.01
568.28	2756.57
568.47	2596.82
568.67	2719.70
568.86	2625.50
569.06	2848.72
569.25	2645.98
569.45	2566.10
569.64	2568.15
569.84	2686.94
570.04	2768.85
570.23	2625.50
570.43	2668.50
570.62	2764.76
570.82	2883.54
571.01	2432.99
571.21	2512.86
571.40	2506.71
571.60	2844.63
571.79	2750.42
571.99	2777.05
572.18	2609.11
572.38	2783.19
572.57	2643.93
572.77	2668.50
572.96	3098.58
573.16	2799.57
573.35	2635.74
573.55	2832.34
573.74	2867.16
573.94	2699.22
574.13	2707.41
574.33	2848.72
574.52	2924.50
574.71	2768.85
574.91	2701.27
575.10	2473.95
575.30	2711.51
575.49	2574.30
575.69	2588.63
575.88	2588.63
576.08	2699.22
576.27	2930.64
576.47	2629.59
576.66	2844.63
576.86	2930.64
577.05	2822.10
577.25	2760.66
577.44	2848.72
577.64	2715.61
577.83	2858.96
578.02	2717.65
578.22	2818.00
578.41	3033.04
578.61	2703.32
578.80	2506.71
579.00	2695.13
579.19	2797.53
579.39	2783.19
579.58	2797.53
579.77	2711.51
579.97	2873.30
580.16	2949.08
580.36	2822.10
580.55	2674.65
580.75	2873.30
580.94	2770.90
581.13	2815.96
581.33	2822.10
581.52	2654.17
581.72	2947.03
581.91	2838.48
582.11	2666.46
582.30	2846.68
582.49	2727.89
582.69	2920.40
582.88	2750.42
583.08	2803.67
583.27	2887.64
583.47	2734.04
583.66	2598.87
583.85	2564.06
584.05	2684.89
584.24	2768.85
584.44	2764.76
584.63	2873.30
584.82	2944.98
585.02	2895.83
585.21	2822.10
585.41	2944.98
585.60	2723.80
585.79	2953.17
585.99	2975.70
586.18	2848.72
586.37	3540.94
586.57	5506.99
586.76	15972.11
586.96	35104.23
587.15	48446.75
587.34	57107.61
587.54	61047.90
587.73	55018.68
587.93	38915.50
588.12	29439.55
588.31	23940.75
588.51	21028.54
588.70	19554.01
588.89	17389.30
589.09	14325.54
589.28	12574.53
589.47	9807.72
589.67	7782.28
589.86	6061.99
590.06	4462.52
590.25	3909.57
590.44	3448.78
590.64	3174.35
590.83	3047.38
591.02	2990.03
591.22	2822.10
591.41	2787.29
591.60	2766.81
591.80	3166.16
591.99	2535.39
592.18	2686.94
592.38	2838.48
592.57	2707.41
592.76	2697.17
592.96	2695.13
593.15	2760.66
593.34	2936.79
593.54	2633.69
593.73	2777.05
593.92	2830.29
594.12	2824.15
594.31	2731.99
594.50	2824.15
594.70	2858.96
594.89	3084.24
595.08	2588.63
595.28	2826.20
595.47	3209.17
595.66	2916.31
595.86	2523.10
596.05	2633.69
596.24	2682.84
596.43	3049.43
596.63	2779.09
596.82	2897.88
597.01	2791.38
597.21	3071.95
597.40	2742.23
597.59	2723.80
597.79	2686.94
597.98	2846.68
598.17	2744.28
598.36	2662.36
598.56	2863.06
598.75	2688.98
598.94	2752.47
599.14	2643.93
599.33	2637.78
599.52	2815.96
599.71	2760.66
599.91	2703.32
600.10	2815.96
600.29	2863.06
600.48	2801.62
600.68	2740.18
600.87	2838.48
601.06	2602.97
601.26	2639.83
601.45	2758.61
601.64	2731.99
601.83	2916.31
602.03	2619.35
602.22	2607.06
602.41	2842.58
602.60	3055.57
602.80	2830.29
602.99	2750.42
603.18	2633.69
603.37	2824.15
603.57	2635.74
603.76	2707.41
603.95	2889.68
604.14	2645.98
604.34	2598.87
604.53	2590.68
604.72	2768.85
604.91	2762.71
605.10	2715.61
605.30	2498.52
605.49	3112.91
605.68	2811.86
605.87	2711.51
606.07	2553.82
606.26	2727.89
606.45	2809.81
606.64	2717.65
606.84	2551.77
607.03	2795.48
607.22	2801.62
607.41	2662.36
607.60	2555.86
607.80	2820.05
607.99	2777.05
608.18	2670.55
608.37	2727.89
608.56	2641.88
608.76	2895.83
608.95	2912.21
609.14	2684.89
609.33	2996.18
609.52	2869.20
609.72	2740.18
609.91	2834.39
610.10	2750.42
610.29	2914.26
610.48	2684.89
610.68	2770.90
610.87	2711.51
611.06	2760.66
611.25	2699.22
611.44	2772.95
611.63	2701.27
611.83	2934.74
612.02	2510.81
612.21	2772.95
612.40	2492.38
612.59	2572.25
612.79	2519.00
612.98	2688.98
613.17	2904.02
613.36	2762.71
613.55	2863.06
613.74	2652.12
613.93	2768.85
614.13	2938.84
614.32	2834.39
614.51	2848.72
614.70	2815.96
614.89	2637.78
615.08	2738.13
615.28	3205.07
615.47	2592.73
615.66	2756.57
615.85	2777.05
616.04	2811.86
616.23	2723.80
616.42	2772.95
616.62	2605.02
616.81	2777.05
617.00	2725.85
617.19	2842.58
617.38	2656.22
617.57	2760.66
617.76	2848.72
617.95	2842.58
618.15	2801.62
618.34	2820.05
618.53	2557.91
618.72	2889.68
618.91	2711.51
619.10	2752.47
619.29	2756.57
619.48	2736.09
619.68	2570.20
619.87	2574.30
620.06	2562.01
620.25	2881.49
620.44	2514.91
620.63	2643.93
620.82	2764.76
621.01	2709.46
621.20	2682.84
621.39	2693.08
621.59	2746.33
621.78	2670.55
621.97	2717.65
622.16	2815.96
622.35	2815.96
622.54	2928.60
622.73	2746.33
622.92	2445.27
623.11	2848.72
623.30	2707.41
623.49	2742.23
623.68	2598.87
623.88	2990.03
624.07	2725.85
624.26	2578.39
624.45	2693.08
624.64	2701.27
624.83	2805.72
625.02	2688.98
625.21	2723.80
625.40	2777.05
625.59	2944.98
625.78	2746.33
625.97	2809.81
626.16	3035.09
626.35	2809.81
626.54	2695.13
626.74	2807.77
626.93	2645.98
627.12	2781.14
627.31	2811.86
627.50	2699.22
627.69	2842.58
627.88	2592.73
628.07	2549.72
628.26	2494.43
628.45	2648.02
628.64	2615.26
628.83	2768.85
629.02	2557.91
629.21	2932.69
629.40	2768.85
629.59	2572.25
629.78	2596.82
629.97	2713.56
630.16	2746.33
630.35	2643.93
630.54	2703.32
630.73	2627.54
630.92	2703.32
631.11	2545.63
631.30	2711.51
631.49	2865.11
631.68	2715.61
631.87	2703.32
632.06	2525.15
632.25	3100.62
632.44	2766.81
632.63	2762.71
632.82	2684.89
633.01	2590.68
633.20	2762.71
633.39	2578.39
633.58	2478.04
633.77	2766.81
633.96	2832.34
634.15	2713.56
634.34	2715.61
634.53	2805.72
634.72	2623.45
634.91	2475.99
635.10	2686.94
635.29	2838.48
635.48	2711.51
635.67	2596.82
635.86	2502.62
636.05	2924.50
636.24	2684.89
636.43	2697.17
636.62	2772.95
636.81	2406.36
637.00	2709.46
637.19	2682.84
637.38	2613.21
637.57	2717.65
637.76	2686.94
637.95	2736.09
638.14	2678.74
638.33	2836.44
638.52	2797.53
638.71	2492.38
638.89	2547.67
639.08	3084.24
639.27	2891.73
639.46	2873.30
639.65	3162.06
639.84	3223.50
640.03	3325.90
640.22	3078.10
640.41	3151.82
640.60	2791.38
640.79	2928.60
640.98	2801.62
641.17	2844.63
641.36	2893.78
641.55	2865.11
641.74	2650.07
641.92	2568.15
642.11	2621.40
642.30	2643.93
642.49	2545.63
642.68	2570.20
642.87	2789.33
643.06	2760.66
643.25	2654.17
643.44	2549.72
643.63	2621.40
643.82	2768.85
644.00	2543.58
644.19	2611.16
644.38	2580.44
644.57	2805.72
644.76	2668.50
644.95	2633.69
645.14	2727.89
645.33	2707.41
645.52	2648.02
645.71	2607.06
645.89	2539.48
646.08	2582.49
646.27	2719.70
646.46	2883.54
646.65	2547.67
646.84	2727.89
647.03	2613.21
647.22	2789.33
647.40	2713.56
647.59	2666.46
647.78	2416.60
647.97	2539.48
648.16	2605.02
648.35	2979.79
648.54	2901.97
648.73	2605.02
648.91	2897.88
649.10	2719.70
649.29	2658.26
649.48	2674.65
649.67	2863.06
649.86	2779.09
650.05	2629.59
650.23	2867.16
650.42	2670.55
650.61	2850.77
650.80	2871.25
650.99	2955.22
651.18	2867.16
651.36	2949.08
651.55	2621.40
651.74	2729.94
651.93	2736.09
652.12	2684.89
652.31	2711.51
652.49	2682.84
652.68	2635.74
652.87	2899.92
653.06	2684.89
653.25	2918.36
653.44	2693.08
653.62	2949.08
653.81	2643.93
654.00	2660.31
654.19	2832.34
654.38	3141.58
654.56	2648.02
654.75	2674.65
654.94	2824.15
655.13	2791.38
655.32	2699.22
655.51	2676.70
655.69	2711.51
655.88	2791.38
656.07	2451.42
656.26	2680.79
656.45	2580.44
656.63	2727.89
656.82	2717.65
657.01	2852.82
657.20	2686.94
657.38	2942.93
657.57	2590.68
657.76	2510.81
657.95	2813.91
658.14	2627.54
658.32	2703.32
658.51	2447.32
658.70	2701.27
658.89	2779.09
659.08	2748.37
659.26	2867.16
659.45	2670.55
659.64	2846.68
659.83	2611.16
660.01	3028.95
660.20	2748.37
660.39	2910.16
660.58	2402.27
660.76	2748.37
660.95	2521.05
661.14	2635.74
661.33	2564.06
661.51	2625.50
661.70	2684.89
661.89	2777.05
662.08	2670.55
662.26	2504.67
662.45	2572.25
662.64	3022.80
662.83	2715.61
663.01	2584.54
663.20	2717.65
663.39	2928.60
663.58	2697.17
663.76	2611.16
663.95	2801.62
664.14	2551.77
664.32	2680.79
664.51	2510.81
664.70	2461.66
664.89	2785.24
665.07	2506.71
665.26	2729.94
665.45	2541.53
665.64	2815.96
665.82	2633.69
666.01	2723.80
666.20	2662.36
666.38	2820.05
666.57	2785.24
666.76	4335.55
666.95	10131.30
667.13	17245.94
667.32	21014.21
667.51	23903.89
667.69	25273.98
667.88	21804.72
668.07	15509.27
668.25	12996.41
668.44	11016.02
668.63	9756.52
668.81	8560.51
669.00	7245.71
669.19	6541.21
669.38	5685.16
669.56	5011.38
669.75	4231.10
669.94	3760.07
670.12	3256.27
670.31	2973.65
670.50	2916.31
670.68	2856.92
670.87	2777.05
671.06	2602.97
671.24	2746.33
671.43	2971.60
671.62	2721.75
671.80	2664.41
671.99	2787.29
672.18	2779.09
672.36	2889.68
672.55	2809.81
672.74	2662.36
672.92	2725.85
673.11	2830.29
673.29	2551.77
673.48	2731.99
673.67	2711.51
673.85	2840.53
674.04	2557.91
674.23	2717.65
674.41	2930.64
674.60	2498.52
674.79	2508.76
674.97	2576.34
675.16	2861.01
675.34	2865.11
675.53	2617.30
675.72	2668.50
675.90	2924.50
676.09	2750.42
676.28	2717.65
676.46	2502.62
676.65	2781.14
676.83	2629.59
677.02	2670.55
677.21	2736.09
677.39	2731.99
677.58	2648.02
677.77	2580.44
677.95	2615.26
678.14	2721.75
678.32	2607.06
678.51	2658.26
678.70	2924.50
678.88	2574.30
679.07	2783.19
679.25	2701.27
679.44	2701.27
679.63	2588.63
679.81	2729.94
680.00	2881.49
680.18	2715.61
680.37	2916.31
680.55	2713.56
680.74	2582.49
680.93	2471.90
681.11	2760.66
681.30	2674.65
681.48	2660.31
681.67	2695.13
681.85	2789.33
682.04	2580.44
682.23	2738.13
682.41	2766.81
682.60	2645.98
682.78	2723.80
682.97	2512.86
683.15	2688.98
683.34	2762.71
683.53	2934.74
683.71	2488.28
683.90	2781.14
684.08	3022.80
684.27	2713.56
684.45	2713.56
684.64	2813.91
684.82	2707.41
685.01	2748.37
685.19	2713.56
685.38	2848.72
685.57	2701.27
685.75	2643.93
685.94	2562.01
686.12	2658.26
686.31	2629.59
686.49	2912.21
686.68	2482.14
686.86	2662.36
687.05	2660.31
687.23	2957.27
687.42	2717.65
687.60	2422.75
687.79	2832.34
687.97	2873.30
688.16	2844.63
688.34	2906.07
688.53	2496.47
688.71	2787.29
688.90	2899.92
689.08	2602.97
689.27	2502.62
689.45	2764.76
689.64	2795.48
689.82	2836.44
690.01	2801.62
690.19	2832.34
690.38	2686.94
690.56	2893.78
690.75	2590.68
690.93	2613.21
691.12	2678.74
691.30	2695.13
691.49	2617.30
691.67	2764.76
691.86	2908.12
692.04	2598.87
692.23	2705.37
692.41	2725.85
692.60	2969.55
692.78	2828.24
692.97	2744.28
693.15	2781.14
693.34	2856.92
693.52	2803.67
693.71	2686.94
693.89	2744.28
694.08	2576.34
694.26	2842.58
694.44	2760.66
694.63	2809.81
694.81	2596.82
695.00	2666.46
695.18	2875.35
695.37	3037.14
695.55	2697.17
695.74	2717.65
695.92	2639.83
696.10	2940.88
696.29	2549.72
696.47	2578.39
696.66	2668.50
696.84	2662.36
697.03	2697.17
697.21	2920.40
697.40	4155.33
697.58	2848.72
697.76	2594.78
697.95	2580.44
698.13	2545.63
698.32	2713.56
698.50	2731.99
698.68	2619.35
698.87	2754.52
699.05	2879.44
699.24	2656.22
699.42	2602.97
699.61	2711.51
699.79	2633.69
699.97	2678.74
700.16	2449.37
700.34	2602.97
700.53	2701.27
700.71	2873.30
700.89	2764.76
701.08	2660.31
701.26	2695.13
701.45	3160.02
701.63	2629.59
701.81	2725.85
702.00	2615.26
702.18	2623.45
702.37	2637.78
702.55	2910.16
702.73	2811.86
702.92	2645.98
703.10	2977.75
703.28	2910.16
703.47	2602.97
703.65	2844.63
703.84	2826.20
704.02	2699.22
704.20	2912.21
704.39	2611.16
704.57	2619.35
704.75	2793.43
704.94	2826.20
705.12	2742.23
705.30	3121.10
705.49	5840.81
705.67	11853.64
705.86	17757.94
706.04	20313.80
706.22	22673.06
706.41	22609.58
706.59	17727.22
706.77	13319.99
706.96	11468.62
707.14	10340.19
707.32	9086.84
707.51	7817.10
707.69	6573.98
707.87	5238.70
708.06	4485.05
708.24	3905.48
708.42	3389.39
708.61	3438.54
708.79	2766.81
708.97	2699.22
709.16	2856.92
709.34	2770.90
709.52	2691.03
709.71	2734.04
709.89	2885.59
710.07	2637.78
710.26	2562.01
710.44	2658.26
710.62	2791.38
710.80	2770.90
710.99	2760.66
711.17	2777.05
711.35	2586.58
711.54	2596.82
711.72	2809.81
711.90	2813.91
712.09	2758.61
712.27	2602.97
712.45	2832.34
712.63	2605.02
712.82	2715.61
713.00	2766.81
713.18	2760.66
713.37	2725.85
713.55	2768.85
713.73	2775.00
713.91	2797.53
714.10	2615.26
714.28	2701.27
714.46	2789.33
714.65	2783.19
714.83	2762.71
715.01	2691.03
715.19	2725.85
715.38	2617.30
715.56	2729.94
715.74	2648.02
715.92	2564.06
716.11	2809.81
716.29	2432.99
716.47	2713.56
716.65	2740.18
716.84	2484.19
717.02	2826.20
717.20	2459.61
717.38	2551.77
717.57	2740.18
717.75	2619.35
717.93	2631.64
718.11	2797.53
718.30	2478.04
718.48	2742.23
718.66	2852.82
718.84	2832.34
719.03	2709.46
719.21	2486.23
719.39	2961.36
719.57	2809.81
719.75	2832.34
719.94	2525.15
720.12	2635.74
720.30	2701.27
720.48	2746.33
720.67	2605.02
720.85	2602.97
721.03	2637.78
721.21	2453.47
721.39	2869.20
721.58	2752.47
721.76	2717.65
721.94	2785.24
722.12	2762.71
722.30	2908.12
722.49	2637.78
722.67	2678.74
722.85	2715.61
723.03	2553.82
723.21	2682.84
723.40	2729.94
723.58	2813.91
723.76	2805.72
723.94	2858.96
724.12	2705.37
724.30	2920.40
724.49	2916.31
724.67	2559.96
724.85	2783.19
725.03	2543.58
725.21	2762.71
725.40	2848.72
725.58	2590.68
725.76	2807.77
725.94	2744.28
726.12	2568.15
726.30	2660.31
726.49	2652.12
726.67	2695.13
726.85	2785.24
727.03	3096.53
727.21	4059.07
727.39	5158.83
727.57	5621.67
727.76	6076.32
727.94	6295.46
728.12	5562.28
728.30	4620.22
728.48	4255.68
728.66	3973.06
728.84	3798.98
729.03	3383.24
729.21	3301.33
729.39	2973.65
729.57	2848.72
729.75	2848.72
729.93	2707.41
730.11	2592.73
730.30	2627.54
730.48	2719.70
730.66	2734.04
730.84	2795.48
731.02	2688.98
731.20	2619.35
731.38	2709.46
731.56	2596.82
731.74	2582.49
731.93	2727.89
732.11	2731.99
732.29	2656.22
732.47	2813.91
732.65	2826.20
732.83	2887.64
733.01	2758.61
733.19	2545.63
733.37	2789.33
733.56	2707.41
733.74	2586.58
733.92	2895.83
734.10	2602.97
734.28	2840.53
734.46	2484.19
734.64	2633.69
734.82	2680.79
735.00	2619.35
735.18	2602.97
735.36	2717.65
735.54	2666.46
735.73	2643.93
735.91	2791.38
736.09	2897.88
736.27	2693.08
736.45	2779.09
736.63	2488.28
736.81	2637.78
736.99	2842.58
737.17	2932.69
737.35	2557.91
737.53	2840.53
737.71	2639.83
737.89	2799.57
738.07	2592.73
738.25	2670.55
738.43	2461.66
738.61	2711.51
738.80	2617.30
738.98	2533.34
739.16	2652.12
739.34	2584.54
739.52	2942.93
739.70	2680.79
739.88	2813.91
740.06	2777.05
740.24	2482.14
740.42	2918.36
740.60	2494.43
740.78	2598.87
740.96	2525.15
741.14	2680.79
741.32	2660.31
741.50	2580.44
741.68	2926.55
741.86	2832.34
742.04	2588.63
742.22	2611.16
742.40	2658.26
742.58	2744.28
742.76	2682.84
742.94	2826.20
743.12	2494.43
743.30	2686.94
743.48	2736.09
743.66	2564.06
743.84	2705.37
744.02	2666.46
744.20	2695.13
744.38	2537.43
744.56	2545.63
744.74	3000.27
744.92	2791.38
745.10	2809.81
745.28	2713.56
745.46	2858.96
745.64	2629.59
745.82	2731.99
746.00	2668.50
746.18	2775.00
746.36	2617.30
746.54	2674.65
746.72	2611.16
746.90	2600.92
747.08	2897.88
747.26	2619.35
747.44	2744.28
747.62	2807.77
747.80	2772.95
747.98	2750.42
748.15	2691.03
748.33	3004.37
748.51	2678.74
748.69	2715.61
748.87	2580.44
749.05	2660.31
749.23	2686.94
749.41	2670.55
749.59	2592.73
749.77	2873.30
749.95	2631.64
750.13	2619.35
750.31	2787.29
750.49	2662.36
750.67	2873.30
750.85	2852.82
751.03	2668.50
751.20	2953.17
751.38	2723.80
751.56	2617.30
751.74	2650.07
751.92	2775.00
752.10	2582.49
752.28	2854.87
752.46	2617.30
752.64	2676.70
752.82	2795.48
753.00	2758.61
753.18	2590.68
753.35	2691.03
753.53	2641.88
753.71	2600.92
753.89	2748.37
754.07	2740.18
754.25	2789.33
754.43	2697.17
754.61	2537.43
754.79	2760.66
754.97	2666.46
755.14	2803.67
755.32	2514.91
755.50	2754.52
755.68	2701.27
755.86	2590.68
756.04	2519.00
756.22	2471.90
756.40	2832.34
756.57	2916.31
756.75	2654.17
756.93	2895.83
757.11	2850.77
757.29	2549.72
757.47	2555.86
757.65	2463.71
757.82	2445.27
758.00	2586.58
758.18	2582.49
758.36	2602.97
758.54	2922.45
758.72	2496.47
758.90	2854.87
759.07	2793.43
759.25	2559.96
759.43	2738.13
759.61	2449.37
759.79	3817.41
759.97	2834.39
760.15	2684.89
760.32	2693.08
760.50	2635.74
760.68	2955.22
760.86	2498.52
761.04	2840.53
761.22	2858.96
761.39	2713.56
761.57	2699.22
761.75	2633.69
761.93	2760.66
762.11	2723.80
762.28	2744.28
762.46	2586.58
762.64	2949.08
762.82	2564.06
763.00	2656.22
763.18	2789.33
763.35	2498.52
763.53	2779.09
763.71	2711.51
763.89	2713.56
764.07	2801.62
764.24	2658.26
764.42	2844.63
764.60	2607.06
764.78	2676.70
764.96	2879.44
765.13	2826.20
765.31	2635.74
765.49	2791.38
765.67	2533.34
765.84	2623.45
766.02	2605.02
766.20	2555.86
766.38	2760.66
766.56	2748.37
766.73	2740.18
766.91	2691.03
767.09	2783.19
767.27	2727.89
767.44	2695.13
767.62	2830.29
767.80	2719.70
767.98	2629.59
768.15	2652.12
768.33	2795.48
768.51	2871.25
768.69	2793.43
768.87	2670.55
769.04	2709.46
769.22	3117.01
769.40	2760.66
769.58	2863.06
769.75	2805.72
769.93	2877.40
770.11	2641.88
770.28	2545.63
770.46	2928.60
770.64	2797.53
770.82	2633.69
770.99	2594.78
771.17	2772.95
771.35	2676.70
771.53	2650.07
771.70	2555.86
771.88	2727.89
772.06	2723.80
772.23	2590.68
772.41	2693.08
772.59	2662.36
772.77	2623.45
772.94	2672.60
773.12	2719.70
773.30	2719.70
773.47	2744.28
773.65	2545.63
773.83	2832.34
774.01	2731.99
774.18	2459.61
774.36	2705.37
774.54	2590.68
774.71	2811.86
774.89	2469.85
775.07	2457.56
775.24	2709.46
775.42	2627.54
775.60	2965.46
775.78	2555.86
775.95	2541.53
776.13	2553.82
776.31	2443.23
776.48	2799.57
776.66	2881.49
776.84	2678.74
777.01	2529.24
777.19	2559.96
777.37	2523.10
777.54	2836.44
777.72	2975.70
777.90	2740.18
778.07	2523.10
778.25	3215.31
778.43	2856.92
778.60	2586.58
778.78	2736.09
778.96	2912.21
779.13	2537.43
779.31	2723.80
779.49	2748.37
779.66	2695.13
779.84	2670.55
780.01	2648.02
780.19	2582.49
780.37	2830.29
780.54	2867.16
780.72	2625.50
780.90	2629.59
781.07	2695.13
781.25	2631.64
781.43	2795.48
781.60	2637.78
781.78	2865.11
781.95	2719.70
782.13	2590.68
782.31	2639.83
782.48	2502.62
782.66	2760.66
782.83	2928.60
783.01	2742.23
783.19	2813.91
783.36	2682.84
783.54	2572.25
783.72	2781.14
783.89	2736.09
784.07	2731.99
784.24	2795.48
784.42	2793.43
784.60	2818.00
784.77	2717.65
784.95	2482.14
785.12	2559.96
785.30	2787.29
785.47	2611.16
785.65	2541.53
785.83	2682.84
786.00	2592.73
786.18	2717.65
786.35	2547.67
786.53	2598.87
786.71	2752.47
786.88	2775.00
787.06	2756.57
787.23	2615.26
787.41	2559.96
787.58	2762.71
787.76	2543.58
787.94	2719.70
788.11	2756.57
788.29	2555.86
788.46	2635.74
788.64	2508.76
788.81	2629.59
788.99	2584.54
789.16	2572.25
789.34	2605.02
789.52	2666.46
789.69	2650.07
789.87	2480.09
790.04	2619.35
790.22	2740.18
790.39	3008.47
790.57	2525.15
790.74	2557.91
790.92	2861.01
791.09	2539.48
791.27	2676.70
791.44	2815.96
791.62	2660.31
791.79	2830.29
791.97	2631.64
792.15	2934.74
792.32	2801.62
792.50	2846.68
792.67	2830.29
792.85	2815.96
793.02	2770.90
793.20	2684.89
793.37	2478.04
793.55	2662.36
793.72	2500.57
793.90	2805.72
794.07	2557.91
794.25	2596.82
794.42	2723.80
794.60	2658.26
794.77	2719.70
794.95	2793.43
795.12	2807.77
795.30	2717.65
795.47	2383.84
795.65	2987.99
795.82	2785.24
796.00	2557.91
796.17	2660.31
796.34	2572.25
796.52	2748.37
796.69	2838.48
796.87	2781.14
797.04	2746.33
797.22	2764.76
797.39	2766.81
797.57	2715.61
797.74	2699.22
797.92	2750.42
798.09	2600.92
798.27	2801.62
798.44	2566.10
798.62	2600.92
798.79	2725.85
798.96	2709.46
799.14	2619.35
799.31	3065.81
799.49	2695.13
799.66	2617.30
799.84	2709.46
800.01	2490.33
800.19	2770.90
800.36	2498.52
800.53	2668.50
800.71	2813.91
800.88	2899.92
801.06	2635.74
801.23	2521.05
801.41	2670.55
801.58	2658.26
801.75	2631.64
801.93	2738.13
802.10	2815.96
802.28	2674.65
802.45	2611.16
802.63	2691.03
802.80	2908.12
802.97	2688.98
803.15	2662.36
803.32	2543.58
803.50	2584.54
803.67	2605.02
803.84	2600.92
804.02	2691.03
804.19	2676.70
804.37	2426.84
804.54	2519.00
804.71	2607.06
804.89	2658.26
805.06	2510.81
805.24	2514.91
805.41	2551.77
805.58	2527.19
805.76	3092.43
805.93	2688.98
806.10	2787.29
806.28	2731.99
806.45	2713.56
806.63	2775.00
806.80	2744.28
806.97	2766.81
807.15	2736.09
807.32	2695.13
807.49	2736.09
807.67	2576.34
807.84	2750.42
808.01	2486.23
808.19	2889.68
808.36	3020.75
808.54	2711.51
808.71	2670.55
808.88	2711.51
809.06	2815.96
809.23	2873.30
809.40	2660.31
809.58	2746.33
809.75	2734.04
809.92	2521.05
810.10	2875.35
810.27	2617.30
810.44	2824.15
810.62	2795.48
810.79	2674.65
810.96	2621.40
811.14	2652.12
811.31	2746.33
811.48	2791.38
811.66	2611.16
811.83	2961.36
812.00	2772.95
812.18	2705.37
812.35	2893.78
812.52	2650.07
812.69	2621.40
812.87	2621.40
813.04	2537.43
813.21	2676.70
813.39	2660.31
813.56	2562.01
813.73	2815.96
813.91	2510.81
814.08	2723.80
814.25	2678.74
814.42	2500.57
814.60	2695.13
814.77	2779.09
814.94	2633.69
815.12	2721.75
815.29	2934.74
815.46	2605.02
815.63	2711.51
815.81	2602.97
815.98	2758.61
816.15	2695.13
816.33	2666.46
816.50	2568.15
816.67	2641.88
816.84	2662.36
817.02	2521.05
817.19	2678.74
817.36	2734.04
817.53	2719.70
817.71	2580.44
817.88	2760.66
818.05	2654.17
818.22	2650.07
818.40	2881.49
818.57	2621.40
818.74	2719.70
818.91	2656.22
819.09	2746.33
819.26	2785.24
819.43	2592.73
819.60	2549.72
819.78	2799.57
819.95	2750.42
820.12	2559.96
820.29	2901.97
820.47	2811.86
820.64	2570.20
820.81	2564.06
820.98	2545.63
821.15	2621.40
821.33	2777.05
821.50	2508.76
821.67	2834.39
821.84	2635.74
822.02	2658.26
822.19	2891.73
822.36	2699.22
822.53	2580.44
822.70	2551.77
822.88	2715.61
823.05	3002.32
823.22	2664.41
823.39	2813.91
823.56	2754.52
823.74	2938.84
823.91	2549.72
824.08	2580.44
824.25	2527.19
824.42	2901.97
824.60	2420.70
824.77	2695.13
824.94	2682.84
825.11	2807.77
825.28	2496.47
825.45	2637.78
825.63	2766.81
825.80	2521.05
825.97	2717.65
826.14	2645.98
826.31	2457.56
826.48	2762.71
826.66	2598.87
826.83	2596.82
827.00	2670.55
827.17	2574.30
827.34	2654.17
827.51	2496.47
827.69	2723.80
827.86	2504.67
828.03	2656.22
828.20	2656.22
828.37	2650.07
828.54	2738.13
828.71	2617.30
828.89	2785.24
829.06	2727.89
829.23	2922.45
829.40	2596.82
829.57	2623.45
829.74	2852.82
829.91	2541.53
830.09	2674.65
830.26	2748.37
830.43	2914.26
830.60	2645.98
830.77	2713.56
830.94	2830.29
831.11	2858.96
831.28	2656.22
831.46	2873.30
831.63	2576.34
831.80	2850.77
831.97	2641.88
832.14	2521.05
832.31	2686.94
832.48	2738.13
832.65	2871.25
832.82	2695.13
832.99	2678.74
833.17	2568.15
833.34	2871.25
833.51	2719.70
833.68	2469.85
833.85	2858.96
834.02	2559.96
834.19	2547.67
834.36	2521.05
834.53	2809.81
834.70	2924.50
834.87	2691.03
835.04	2553.82
835.22	2627.54
835.39	2674.65
835.56	2453.47
835.73	2617.30
835.90	2815.96
836.07	2559.96
836.24	2703.32
836.41	2482.14
836.58	2590.68
836.75	2779.09
836.92	2578.39
837.09	2510.81
837.26	2789.33
837.43	2723.80
837.60	2627.54
837.77	2580.44
837.94	2873.30
838.12	2842.58
838.29	2512.86
838.46	2420.70
838.63	2621.40
838.80	2947.03
838.97	2627.54
839.14	2555.86
839.31	2660.31
839.48	2846.68
839.65	2535.39
839.82	2633.69
839.99	2740.18
840.16	2779.09
840.33	2514.91
840.50	2658.26
840.67	2600.92
840.84	2355.16
841.01	2584.54
841.18	2521.05
841.35	2738.13
841.52	2793.43
841.69	2840.53
841.86	2652.12
842.03	2682.84
842.20	2830.29
842.37	2496.47
842.54	2564.06
842.71	2711.51
842.88	2568.15
843.05	2549.72
843.22	2557.91
843.39	2805.72
843.56	2617.30
843.73	2482.14
843.90	2562.01
844.07	2799.57
844.24	2891.73
844.41	2691.03
844.58	2609.11
844.75	2809.81
844.92	2799.57
845.09	2600.92
845.26	2506.71
845.43	2891.73
845.60	2637.78
845.77	2727.89
845.94	2654.17
846.10	2840.53
846.27	2609.11
846.44	2475.99
846.61	2455.51
846.78	2709.46
846.95	2856.92
847.12	2490.33
847.29	2637.78
847.46	2564.06
847.63	2826.20
847.80	2531.29
847.97	2570.20
848.14	3043.28
848.31	2650.07
848.48	2523.10
848.65	2619.35
848.82	2668.50
848.98	3084.24
849.15	2609.11
849.32	2680.79
849.49	2846.68
849.66	2680.79
849.83	2549.72
850.00	2498.52
850.17	2734.04
850.34	2727.89
850.51	2523.10
850.68	2594.78
850.85	3092.43
851.01	2688.98
851.18	2566.10
851.35	2547.67
851.52	2799.57
851.69	2971.60
851.86	2547.67
852.03	2584.54
852.20	2818.00
852.37	2734.04
852.53	2365.40
852.70	2514.91
852.87	2699.22
853.04	2809.81
853.21	2654.17
853.38	2746.33
853.55	2906.07
853.72	2838.48
853.89	2441.18
854.05	2533.34
854.22	2736.09
854.39	2727.89
854.56	2514.91
854.73	2711.51
854.90	2609.11
855.07	2691.03
855.23	2506.71
855.40	2488.28
855.57	2695.13
855.74	2473.95
855.91	2723.80
856.08	2529.24
856.25	2553.82
856.41	2639.83
856.58	2613.21
856.75	2543.58
856.92	2537.43
857.09	2875.35
857.26	2453.47
857.42	2523.10
857.59	2760.66
857.76	2695.13
857.93	2572.25
858.10	2625.50
858.27	2541.53
858.43	2783.19
858.60	2543.58
858.77	2471.90
858.94	2701.27
859.11	2877.40
859.27	2586.58
859.44	2512.86
859.61	2973.65
859.78	2772.95
859.95	2545.63
860.12	2594.78
860.28	3030.99
860.45	3028.95
860.62	2496.47
860.79	2512.86
860.95	2598.87
861.12	2574.30
861.29	2469.85
861.46	2453.47
861.63	2648.02
861.79	2674.65
861.96	2523.10
862.13	2580.44
862.30	2869.20
862.47	2584.54
862.63	2519.00
862.80	2701.27
862.97	2869.20
863.14	2682.84
863.30	2664.41
863.47	2500.57
863.64	2955.22
863.81	2805.72
863.97	2453.47
864.14	2662.36
864.31	2740.18
864.48	2668.50
864.65	2473.95
864.81	2650.07
864.98	2779.09
865.15	2805.72
865.32	2549.72
865.48	2588.63
865.65	2916.31
865.82	2654.17
865.98	2592.73
866.15	2621.40
866.32	2736.09
866.49	2648.02
866.65	2805.72
866.82	2504.67
866.99	2709.46
867.16	2590.68
867.32	2578.39
867.49	2547.67
867.66	2697.17
867.83	2631.64
867.99	2418.65
868.16	2557.91
868.33	2598.87
868.49	2629.59
868.66	2547.67
868.83	2709.46
868.99	2691.03
869.16	2736.09
869.33	2594.78
869.50	2615.26
869.66	2721.75
869.83	2695.13
870.00	2437.08
870.16	2711.51
870.33	2670.55
870.50	2832.34
870.66	2623.45
870.83	2668.50
871.00	2703.32
871.17	2820.05
871.33	2668.50
871.50	2557.91
871.67	2682.84
871.83	2500.57
872.00	2641.88
872.17	2529.24
872.33	2994.13
872.50	2824.15
872.67	2605.02
872.83	2592.73
873.00	2746.33
873.17	2789.33
873.33	2688.98
873.50	2654.17
873.67	2576.34
873.83	2627.54
874.00	2578.39
874.16	2650.07
874.33	2725.85
874.50	2502.62
874.66	2486.23
874.83	2615.26
875.00	2836.44
875.16	2701.27
875.33	2627.54
875.50	2318.30
875.66	2617.30
875.83	2705.37
875.99	2617.30
876.16	2623.45
876.33	2588.63
876.49	2637.78
876.66	2570.20
876.83	2570.20
876.99	2568.15
877.16	2703.32
877.32	2570.20
877.49	2613.21
877.66	2764.76
877.82	2899.92
877.99	2568.15
878.15	2695.13
878.32	2752.47
878.49	2742.23
878.65	2537.43
878.82	2781.14
878.98	2676.70
879.15	2801.62
879.32	2762.71
879.48	2693.08
879.65	2744.28
879.81	2654.17
879.98	2498.52
880.15	2519.00
880.31	2777.05
880.48	2617.30
880.64	2721.75
880.81	2686.94
880.97	2979.79
881.14	2947.03
881.31	2568.15
881.47	2731.99
881.64	2682.84
881.80	2553.82
881.97	2635.74
882.13	2613.21
882.30	2584.54
882.47	2557.91
882.63	2504.67
882.80	2637.78
882.96	2721.75
883.13	2936.79
883.29	2508.76
883.46	2559.96
883.62	3022.80
883.79	2695.13
883.95	2682.84
884.12	2559.96
884.29	2908.12
884.45	2793.43
884.62	2631.64
884.78	2576.34
884.95	2924.50
885.11	2615.26
885.28	2617.30
885.44	2578.39
885.61	2705.37
885.77	2932.69
885.94	2674.65
886.10	2670.55
886.27	2684.89
886.43	3026.90
886.60	2686.94
886.76	2525.15
886.93	2619.35
887.09	2717.65
887.26	2465.75
887.42	2619.35
887.59	2818.00
887.75	3100.62
887.92	2742.23
888.08	2746.33
888.25	2979.79
888.41	2795.48
888.58	2580.44
888.74	2463.71
888.91	2609.11
>>>>>End Processed Spectral Data<<<<<
