SpectraSuite Data File
++++++++++++++++++++++++++++++++++++
Date: Thu May 05 16:20:13 CEST 2016
User: root
Dark Spectrum Present: No
Reference Spectrum Present: No
Number of Sampled Component Spectra: 1
Spectrometers: USB4C02835
Integration Time (usec): 100000 (USB4C02835)
Spectra Averaged: 1 (USB4C02835)
Boxcar Smoothing: 0 (USB4C02835)
Correct for Electrical Dark: No (USB4C02835)
Strobe/Lamp Enabled: No (USB4C02835)
Correct for Detector Non-linearity: No (USB4C02835)
Correct for Stray Light: No (USB4C02835)
Number of Pixels in Processed Spectrum: 3648
>>>>>Begin Processed Spectral Data<<<<<
177.47	2007.01
177.69	2007.01
177.91	2007.01
178.13	2072.54
178.36	2076.64
178.58	2512.86
178.80	2799.57
179.02	2576.34
179.24	2566.10
179.46	2512.86
179.68	2516.95
179.90	2688.98
180.13	2680.79
180.35	2408.41
180.57	2508.76
180.79	2834.39
181.01	2680.79
181.23	2514.91
181.45	2592.73
181.67	2822.10
181.90	2760.66
182.12	2566.10
182.34	2398.17
182.56	2824.15
182.78	2762.71
183.00	2463.71
183.22	2494.43
183.44	2445.27
183.66	3114.96
183.89	2557.91
184.11	2502.62
184.33	2791.38
184.55	2850.77
184.77	2424.80
184.99	2531.29
185.21	2654.17
185.43	3104.72
185.65	2523.10
185.87	2473.95
186.10	3084.24
186.32	3043.28
186.54	2521.05
186.76	2650.07
186.98	2869.20
187.20	2643.93
187.42	2602.97
187.64	2523.10
187.86	2723.80
188.08	2967.51
188.30	2447.32
188.52	2490.33
188.75	3012.56
188.97	2951.12
189.19	2549.72
189.41	2482.14
189.63	2748.37
189.85	2701.27
190.07	2351.07
190.29	2379.74
190.51	2789.33
190.73	2557.91
190.95	2623.45
191.17	2514.91
191.39	2494.43
191.61	2699.22
191.84	2527.19
192.06	2582.49
192.28	2455.51
192.50	3186.64
192.72	2641.88
192.94	2619.35
193.16	2863.06
193.38	2703.32
193.60	2510.81
193.82	2611.16
194.04	2899.92
194.26	2783.19
194.48	2514.91
194.70	2473.95
194.92	2617.30
195.14	2826.20
195.36	2535.39
195.58	2582.49
195.80	2676.70
196.02	2658.26
196.24	2553.82
196.46	2564.06
196.69	2666.46
196.91	3030.99
197.13	2525.15
197.35	2584.54
197.57	2854.87
197.79	2865.11
198.01	2596.82
198.23	2531.29
198.45	2783.19
198.67	2500.57
198.89	2398.17
199.11	2590.68
199.33	2635.74
199.55	2424.80
199.77	2437.08
199.99	2637.78
200.21	2676.70
200.43	2803.67
200.65	2408.41
200.87	2359.26
201.09	2723.80
201.31	2611.16
201.53	2508.76
201.75	2637.78
201.97	2766.81
202.19	2738.13
202.41	2664.41
202.63	2664.41
202.85	2758.61
203.07	2688.98
203.29	2539.48
203.51	2455.51
203.73	2580.44
203.95	3139.54
204.17	2432.99
204.39	2629.59
204.61	2707.41
204.83	2693.08
205.05	2641.88
205.27	2570.20
205.49	3055.57
205.71	2596.82
205.93	2375.64
206.15	2523.10
206.37	2672.60
206.59	2670.55
206.81	2451.42
207.03	2412.51
207.25	2576.34
207.47	2842.58
207.69	2580.44
207.91	2707.41
208.13	2914.26
208.34	2555.86
208.56	2420.70
208.78	2496.47
209.00	2654.17
209.22	2691.03
209.44	2568.15
209.66	2496.47
209.88	2693.08
210.10	2670.55
210.32	2502.62
210.54	2600.92
210.76	2645.98
210.98	2867.16
211.20	2418.65
211.42	2578.39
211.64	2924.50
211.86	2803.67
212.08	2551.77
212.30	2600.92
212.52	2674.65
212.74	2822.10
212.96	2635.74
213.17	2498.52
213.39	2797.53
213.61	2858.96
213.83	2410.46
214.05	2342.88
214.27	2895.83
214.49	2543.58
214.71	2410.46
214.93	2633.69
215.15	2768.85
215.37	2836.44
215.59	2367.45
215.81	2566.10
216.03	2842.58
216.24	2723.80
216.46	2473.95
216.68	2588.63
216.90	2863.06
217.12	2936.79
217.34	2488.28
217.56	2559.96
217.78	2942.93
218.00	2746.33
218.22	2564.06
218.44	2506.71
218.66	2779.09
218.87	3008.47
219.09	2514.91
219.31	2574.30
219.53	2797.53
219.75	2635.74
219.97	2578.39
220.19	2484.19
220.41	2717.65
220.63	2959.31
220.85	2521.05
221.06	2566.10
221.28	2914.26
221.50	2785.24
221.72	2496.47
221.94	2469.85
222.16	2779.09
222.38	2899.92
222.60	2527.19
222.82	2543.58
223.03	2826.20
223.25	2598.87
223.47	2451.42
223.69	2682.84
223.91	2869.20
224.13	2719.70
224.35	2437.08
224.57	2627.54
224.78	2797.53
225.00	2529.24
225.22	2547.67
225.44	2402.27
225.66	2885.59
225.88	2645.98
226.10	2529.24
226.32	2519.00
226.53	3018.71
226.75	2703.32
226.97	2600.92
227.19	2551.77
227.41	2592.73
227.63	2641.88
227.85	2389.98
228.06	2529.24
228.28	2711.51
228.50	2891.73
228.72	2361.31
228.94	2435.03
229.16	2504.67
229.37	2562.01
229.59	2465.75
229.81	2705.37
230.03	2736.09
230.25	2502.62
230.47	2406.36
230.69	2441.18
230.90	2918.36
231.12	2613.21
231.34	2617.30
231.56	2553.82
231.78	2619.35
232.00	2783.19
232.21	2527.19
232.43	2451.42
232.65	2344.92
232.87	2805.72
233.09	2402.27
233.30	2355.16
233.52	2789.33
233.74	2725.85
233.96	2439.13
234.18	2717.65
234.40	2721.75
234.61	3121.10
234.83	2453.47
235.05	2449.37
235.27	3078.10
235.49	2895.83
235.70	2402.27
235.92	2592.73
236.14	2768.85
236.36	3155.92
236.58	2396.12
236.79	2631.64
237.01	2607.06
237.23	2754.52
237.45	2711.51
237.67	2545.63
237.88	2777.05
238.10	2998.23
238.32	2512.86
238.54	2504.67
238.76	2703.32
238.97	2488.28
239.19	2502.62
239.41	2551.77
239.63	2858.96
239.85	2578.39
240.06	2506.71
240.28	2566.10
240.50	2881.49
240.72	2697.17
240.93	2457.56
241.15	2564.06
241.37	2664.41
241.59	2899.92
241.81	2447.32
242.02	2553.82
242.24	2740.18
242.46	2861.01
242.68	2430.94
242.89	2531.29
243.11	2877.40
243.33	2678.74
243.55	2457.56
243.76	2559.96
243.98	2652.12
244.20	2682.84
244.42	2459.61
244.64	2529.24
244.85	2510.81
245.07	2562.01
245.29	2447.32
245.51	2494.43
245.72	2688.98
245.94	2897.88
246.16	2568.15
246.38	2531.29
246.59	2596.82
246.81	2664.41
247.03	2445.27
247.24	2379.74
247.46	2605.02
247.68	2752.47
247.90	2465.75
248.11	2459.61
248.33	2785.24
248.55	2711.51
248.77	2588.63
248.98	2627.54
249.20	2936.79
249.42	2750.42
249.64	2562.01
249.85	2537.43
250.07	2615.26
250.29	2895.83
250.50	2537.43
250.72	2437.08
250.94	2789.33
251.16	3039.19
251.37	2490.33
251.59	2629.59
251.81	2772.95
252.02	2906.07
252.24	2441.18
252.46	2625.50
252.68	2562.01
252.89	2627.54
253.11	2406.36
253.33	2639.83
253.54	2967.51
253.76	2564.06
253.98	2496.47
254.20	2494.43
254.41	2611.16
254.63	2674.65
254.85	2379.74
255.06	2557.91
255.28	2695.13
255.50	2736.09
255.71	2475.99
255.93	2412.51
256.15	2709.46
256.36	2766.81
256.58	2418.65
256.80	2457.56
257.02	2623.45
257.23	2658.26
257.45	2527.19
257.67	2549.72
257.88	2629.59
258.10	2746.33
258.32	2482.14
258.53	2678.74
258.75	2944.98
258.97	2582.49
259.18	2461.66
259.40	2512.86
259.62	2990.03
259.83	2848.72
260.05	2572.25
260.27	3194.83
260.48	2826.20
260.70	2586.58
260.92	2428.89
261.13	2555.86
261.35	2711.51
261.57	2805.72
261.78	2396.12
262.00	2531.29
262.22	2766.81
262.43	2645.98
262.65	2420.70
262.86	2523.10
263.08	3133.39
263.30	2744.28
263.51	2359.26
263.73	2523.10
263.95	2961.36
264.16	2652.12
264.38	2482.14
264.60	2416.60
264.81	2680.79
265.03	2885.59
265.25	2799.57
265.46	2568.15
265.68	2932.69
265.89	2858.96
266.11	2383.84
266.33	2349.02
266.54	2775.00
266.76	2789.33
266.98	2596.82
267.19	2658.26
267.41	2815.96
267.62	2725.85
267.84	2306.01
268.06	2555.86
268.27	2768.85
268.49	2865.11
268.70	2574.30
268.92	2523.10
269.14	2586.58
269.35	2502.62
269.57	2553.82
269.79	2564.06
270.00	2750.42
270.22	2979.79
270.43	2435.03
270.65	2387.93
270.87	2801.62
271.08	2803.67
271.30	2617.30
271.51	2453.47
271.73	2736.09
271.95	2936.79
272.16	2471.90
272.38	2643.93
272.59	2627.54
272.81	2785.24
273.02	2473.95
273.24	2494.43
273.46	2867.16
273.67	2469.85
273.89	2426.84
274.10	2500.57
274.32	2879.44
274.54	2768.85
274.75	2617.30
274.97	2484.19
275.18	2863.06
275.40	2760.66
275.61	2584.54
275.83	2664.41
276.05	2590.68
276.26	2596.82
276.48	2609.11
276.69	2592.73
276.91	2691.03
277.12	2899.92
277.34	2613.21
277.55	2752.47
277.77	2729.94
277.99	2686.94
278.20	2545.63
278.42	2551.77
278.63	2578.39
278.85	2555.86
279.06	2607.06
279.28	2748.37
279.49	2865.11
279.71	2793.43
279.93	2656.22
280.14	2557.91
280.36	2652.12
280.57	2772.95
280.79	2713.56
281.00	2480.09
281.22	2664.41
281.43	2908.12
281.65	2414.56
281.86	2496.47
282.08	2789.33
282.29	2996.18
282.51	2473.95
282.73	2514.91
282.94	2500.57
283.16	2834.39
283.37	2711.51
283.59	2654.17
283.80	2830.29
284.02	2725.85
284.23	2600.92
284.45	2564.06
284.66	2611.16
284.88	2555.86
285.09	2629.59
285.31	2684.89
285.52	2777.05
285.74	2453.47
285.95	2770.90
286.17	2637.78
286.38	2949.08
286.60	2611.16
286.81	2570.20
287.03	2621.40
287.24	2695.13
287.46	2795.48
287.67	2645.98
287.89	2897.88
288.10	2703.32
288.32	2713.56
288.53	2858.96
288.75	2607.06
288.96	2793.43
289.18	2662.36
289.39	2588.63
289.61	2600.92
289.82	2998.23
290.04	2969.55
290.25	2564.06
290.47	2654.17
290.68	2666.46
290.90	2813.91
291.11	2408.41
291.33	2729.94
291.54	2627.54
291.76	2695.13
291.97	2656.22
292.18	2660.31
292.40	2588.63
292.61	2623.45
292.83	2883.54
293.04	2627.54
293.26	2717.65
293.47	2672.60
293.69	2564.06
293.90	2562.01
294.12	2846.68
294.33	2764.76
294.55	2637.78
294.76	2750.42
294.97	2947.03
295.19	2977.75
295.40	2607.06
295.62	2686.94
295.83	2906.07
296.05	2635.74
296.26	2770.90
296.48	2525.15
296.69	2715.61
296.90	2742.23
297.12	2709.46
297.33	2682.84
297.55	2729.94
297.76	2809.81
297.98	2703.32
298.19	2678.74
298.41	2711.51
298.62	2643.93
298.83	2725.85
299.05	2668.50
299.26	2666.46
299.48	2637.78
299.69	2613.21
299.90	2609.11
300.12	2645.98
300.33	2858.96
300.55	2648.02
300.76	2697.17
300.98	2516.95
301.19	2818.00
301.40	2570.20
301.62	2596.82
301.83	2785.24
302.05	2670.55
302.26	2619.35
302.47	2701.27
302.69	2514.91
302.90	2775.00
303.12	2467.80
303.33	2729.94
303.54	3022.80
303.76	2727.89
303.97	2592.73
304.19	2861.01
304.40	2607.06
304.61	2807.77
304.83	2662.36
305.04	2738.13
305.26	2760.66
305.47	2678.74
305.68	2623.45
305.90	2496.47
306.11	2877.40
306.33	2768.85
306.54	2521.05
306.75	2572.25
306.97	2529.24
307.18	2525.15
307.39	2516.95
307.61	2609.11
307.82	2758.61
308.04	2766.81
308.25	2508.76
308.46	2672.60
308.68	2727.89
308.89	2697.17
309.10	2750.42
309.32	2631.64
309.53	2723.80
309.74	2818.00
309.96	2572.25
310.17	2703.32
310.39	2623.45
310.60	2848.72
310.81	2637.78
311.03	2492.38
311.24	2803.67
311.45	2668.50
311.67	2783.19
311.88	2711.51
312.09	2650.07
312.31	2611.16
312.52	2555.86
312.73	2635.74
312.95	2480.09
313.16	2609.11
313.37	2729.94
313.59	2807.77
313.80	2791.38
314.01	2967.51
314.23	2547.67
314.44	2492.38
314.65	2555.86
314.87	2670.55
315.08	2623.45
315.29	2512.86
315.51	2641.88
315.72	2469.85
315.93	2676.70
316.15	2631.64
316.36	2637.78
316.57	2705.37
316.79	2590.68
317.00	2547.67
317.21	2779.09
317.43	2623.45
317.64	2637.78
317.85	2510.81
318.07	2703.32
318.28	2734.04
318.49	2684.89
318.70	2781.14
318.92	2818.00
319.13	2799.57
319.34	2777.05
319.56	2623.45
319.77	2697.17
319.98	2869.20
320.20	2824.15
320.41	2746.33
320.62	2795.48
320.83	2559.96
321.05	2803.67
321.26	2645.98
321.47	2824.15
321.69	2914.26
321.90	2529.24
322.11	2555.86
322.32	2781.14
322.54	3016.66
322.75	2594.78
322.96	3119.06
323.18	2412.51
323.39	2498.52
323.60	2414.56
323.81	2676.70
324.03	2672.60
324.24	2701.27
324.45	2664.41
324.66	2617.30
324.88	2924.50
325.09	3010.51
325.30	2637.78
325.52	2654.17
325.73	2842.58
325.94	2594.78
326.15	2478.04
326.37	2490.33
326.58	2811.86
326.79	2916.31
327.00	2551.77
327.22	2672.60
327.43	2662.36
327.64	2582.49
327.85	2711.51
328.07	2643.93
328.28	3002.32
328.49	2678.74
328.70	2572.25
328.92	2639.83
329.13	2736.09
329.34	2822.10
329.55	2809.81
329.76	2787.29
329.98	2684.89
330.19	2928.60
330.40	2664.41
330.61	2678.74
330.83	2832.34
331.04	2625.50
331.25	2678.74
331.46	2535.39
331.68	2555.86
331.89	2815.96
332.10	2660.31
332.31	2535.39
332.52	2795.48
332.74	2922.45
332.95	2498.52
333.16	2582.49
333.37	2834.39
333.58	2629.59
333.80	2670.55
334.01	2428.89
334.22	2719.70
334.43	2539.48
334.64	2543.58
334.86	2502.62
335.07	2602.97
335.28	2955.22
335.49	2533.34
335.70	2588.63
335.92	2908.12
336.13	3028.95
336.34	2570.20
336.55	2678.74
336.76	2785.24
336.98	2389.98
337.19	2594.78
337.40	2752.47
337.61	3004.37
337.82	2682.84
338.04	2658.26
338.25	2402.27
338.46	2662.36
338.67	2609.11
338.88	2619.35
339.09	2463.71
339.31	2678.74
339.52	2594.78
339.73	2521.05
339.94	2607.06
340.15	2834.39
340.36	2705.37
340.58	2615.26
340.79	2570.20
341.00	2775.00
341.21	2562.01
341.42	2850.77
341.63	2607.06
341.85	2807.77
342.06	2695.13
342.27	2494.43
342.48	2711.51
342.69	2523.10
342.90	2721.75
343.12	2742.23
343.33	2596.82
343.54	2842.58
343.75	2875.35
343.96	2695.13
344.17	2512.86
344.38	2684.89
344.60	2586.58
344.81	2500.57
345.02	2619.35
345.23	2850.77
345.44	3096.53
345.65	2678.74
345.86	2602.97
346.07	2740.18
346.29	2643.93
346.50	2740.18
346.71	2625.50
346.92	2910.16
347.13	3055.57
347.34	2676.70
347.55	2541.53
347.76	2830.29
347.98	2469.85
348.19	2629.59
348.40	2922.45
348.61	2664.41
348.82	2922.45
349.03	2629.59
349.24	2580.44
349.45	3028.95
349.66	2371.55
349.88	2570.20
350.09	2570.20
350.30	2861.01
350.51	2856.92
350.72	2705.37
350.93	2660.31
351.14	2576.34
351.35	2772.95
351.56	2623.45
351.77	2635.74
351.99	2791.38
352.20	2928.60
352.41	2715.61
352.62	2451.42
352.83	2719.70
353.04	2703.32
353.25	2578.39
353.46	2707.41
353.67	2955.22
353.88	2519.00
354.09	2584.54
354.30	2619.35
354.52	2854.87
354.73	2648.02
354.94	2580.44
355.15	2709.46
355.36	2990.03
355.57	2578.39
355.78	2607.06
355.99	2605.02
356.20	2596.82
356.41	2934.74
356.62	2695.13
356.83	2592.73
357.04	2881.49
357.25	2461.66
357.46	2611.16
357.68	2420.70
357.89	2539.48
358.10	2770.90
358.31	2666.46
358.52	2584.54
358.73	2525.15
358.94	2475.99
359.15	2555.86
359.36	2598.87
359.57	2725.85
359.78	2686.94
359.99	2768.85
360.20	2504.67
360.41	2731.99
360.62	2711.51
360.83	2607.06
361.04	2635.74
361.25	2815.96
361.46	3024.85
361.67	2621.40
361.88	2641.88
362.09	2899.92
362.30	2727.89
362.51	2547.67
362.72	2709.46
362.93	2932.69
363.14	2713.56
363.35	2641.88
363.56	2463.71
363.78	2883.54
363.99	2781.14
364.20	2572.25
364.41	2680.79
364.62	2981.84
364.83	2725.85
365.04	2654.17
365.25	2684.89
365.46	3147.73
365.67	2588.63
365.88	2598.87
366.09	2553.82
366.30	2666.46
366.51	2707.41
366.72	2482.14
366.93	2557.91
367.14	2727.89
367.35	2883.54
367.56	2637.78
367.77	2734.04
367.98	2719.70
368.18	2672.60
368.39	2697.17
368.60	2586.58
368.81	2846.68
369.02	2752.47
369.23	2613.21
369.44	2451.42
369.65	2588.63
369.86	2832.34
370.07	2793.43
370.28	2478.04
370.49	2766.81
370.70	2856.92
370.91	2473.95
371.12	2410.46
371.33	2881.49
371.54	2631.64
371.75	2836.44
371.96	2359.26
372.17	2727.89
372.38	2688.98
372.59	2643.93
372.80	2547.67
373.01	2715.61
373.22	2752.47
373.43	2594.78
373.64	2459.61
373.85	2846.68
374.06	2975.70
374.26	2758.61
374.47	2723.80
374.68	2971.60
374.89	2762.71
375.10	2594.78
375.31	2650.07
375.52	2709.46
375.73	2693.08
375.94	2537.43
376.15	2723.80
376.36	2645.98
376.57	2525.15
376.78	2510.81
376.99	2654.17
377.20	2906.07
377.40	2629.59
377.61	2807.77
377.82	2576.34
378.03	2861.01
378.24	2832.34
378.45	2727.89
378.66	2680.79
378.87	2486.23
379.08	2572.25
379.29	2611.16
379.50	2822.10
379.71	2717.65
379.91	2828.24
380.12	2586.58
380.33	2631.64
380.54	2645.98
380.75	2736.09
380.96	2553.82
381.17	2756.57
381.38	2799.57
381.59	2742.23
381.80	2621.40
382.00	2836.44
382.21	2842.58
382.42	2947.03
382.63	2871.25
382.84	2756.57
383.05	2856.92
383.26	2914.26
383.47	2678.74
383.68	2619.35
383.88	2750.42
384.09	2729.94
384.30	2867.16
384.51	2660.31
384.72	2623.45
384.93	2600.92
385.14	2643.93
385.35	2719.70
385.55	2559.96
385.76	2842.58
385.97	2678.74
386.18	2537.43
386.39	2541.53
386.60	2648.02
386.81	2629.59
387.02	2410.46
387.22	2578.39
387.43	2772.95
387.64	2711.51
387.85	2842.58
388.06	2793.43
388.27	3979.20
388.48	7493.52
388.68	10981.21
388.89	13416.24
389.10	14602.02
389.31	14022.44
389.52	10786.65
389.73	9559.92
389.93	8527.74
390.14	7913.35
390.35	7128.98
390.56	6340.51
390.77	5222.32
390.98	4130.75
391.18	3452.88
391.39	3178.45
391.60	2760.66
391.81	2809.81
392.02	2641.88
392.23	3022.80
392.43	2779.09
392.64	2752.47
392.85	2672.60
393.06	2957.27
393.27	2691.03
393.47	2547.67
393.68	2691.03
393.89	2613.21
394.10	2908.12
394.31	2570.20
394.52	2533.34
394.72	2609.11
394.93	2928.60
395.14	2527.19
395.35	2752.47
395.56	2686.94
395.76	2719.70
395.97	2703.32
396.18	2791.38
396.39	2818.00
396.60	3258.32
396.80	2916.31
397.01	2883.54
397.22	2836.44
397.43	2832.34
397.64	2600.92
397.84	2740.18
398.05	3006.42
398.26	2772.95
398.47	2752.47
398.67	2781.14
398.88	2707.41
399.09	2883.54
399.30	2539.48
399.51	2670.55
399.71	2574.30
399.92	2727.89
400.13	2658.26
400.34	2656.22
400.54	2686.94
400.75	2947.03
400.96	2629.59
401.17	2916.31
401.37	2805.72
401.58	2668.50
401.79	2691.03
402.00	2797.53
402.21	3090.38
402.41	2883.54
402.62	2975.70
402.83	2973.65
403.04	3211.22
403.24	3264.46
403.45	2697.17
403.66	2895.83
403.87	2887.64
404.07	3035.09
404.28	2865.11
404.49	2924.50
404.70	2811.86
404.90	2826.20
405.11	2676.70
405.32	2746.33
405.52	2686.94
405.73	2639.83
405.94	2570.20
406.15	2686.94
406.35	2750.42
406.56	2901.97
406.77	2772.95
406.98	2660.31
407.18	2586.58
407.39	2981.84
407.60	2568.15
407.80	2645.98
408.01	2637.78
408.22	2742.23
408.43	2578.39
408.63	2752.47
408.84	2779.09
409.05	2869.20
409.25	2625.50
409.46	2508.76
409.67	2676.70
409.88	2623.45
410.08	2645.98
410.29	2641.88
410.50	2828.24
410.70	2785.24
410.91	2535.39
411.12	2682.84
411.32	2648.02
411.53	2572.25
411.74	2660.31
411.95	2777.05
412.15	2754.52
412.36	2854.87
412.57	2719.70
412.77	2772.95
412.98	2781.14
413.19	2611.16
413.39	2701.27
413.60	2635.74
413.81	2928.60
414.01	2576.34
414.22	2637.78
414.43	2783.19
414.63	2711.51
414.84	2899.92
415.05	2684.89
415.25	2500.57
415.46	2822.10
415.67	2658.26
415.87	2748.37
416.08	2631.64
416.29	2662.36
416.49	2850.77
416.70	2682.84
416.91	2641.88
417.11	2779.09
417.32	2897.88
417.53	2727.89
417.73	2707.41
417.94	2729.94
418.15	2731.99
418.35	2648.02
418.56	2584.54
418.77	3121.10
418.97	2787.29
419.18	2721.75
419.38	2383.84
419.59	2758.61
419.80	2996.18
420.00	2578.39
420.21	2672.60
420.42	3000.27
420.62	2744.28
420.83	2617.30
421.04	2576.34
421.24	2664.41
421.45	2904.02
421.65	2762.71
421.86	2580.44
422.07	2838.48
422.27	2822.10
422.48	2600.92
422.69	2480.09
422.89	2725.85
423.10	2676.70
423.30	2543.58
423.51	2734.04
423.72	2824.15
423.92	2865.11
424.13	2478.04
424.33	2711.51
424.54	2914.26
424.75	2731.99
424.95	2883.54
425.16	2586.58
425.36	2684.89
425.57	2856.92
425.78	2742.23
425.98	2791.38
426.19	2639.83
426.39	2531.29
426.60	2662.36
426.81	2824.15
427.01	2809.81
427.22	2631.64
427.42	2437.08
427.63	2537.43
427.83	2846.68
428.04	2858.96
428.25	2797.53
428.45	2842.58
428.66	2877.40
428.86	2813.91
429.07	2662.36
429.28	2666.46
429.48	2660.31
429.69	2596.82
429.89	2721.75
430.10	2584.54
430.30	2809.81
430.51	2846.68
430.71	2586.58
430.92	2641.88
431.13	2721.75
431.33	2809.81
431.54	2736.09
431.74	2764.76
431.95	3022.80
432.15	2576.34
432.36	2654.17
432.56	2717.65
432.77	2985.94
432.98	2920.40
433.18	2719.70
433.39	2498.52
433.59	2777.05
433.80	3055.57
434.00	2856.92
434.21	2535.39
434.41	2529.24
434.62	3092.43
434.82	2545.63
435.03	2625.50
435.23	2756.57
435.44	2461.66
435.64	2625.50
435.85	2721.75
436.06	2881.49
436.26	2942.93
436.47	2650.07
436.67	2598.87
436.88	2654.17
437.08	2891.73
437.29	2775.00
437.49	2670.55
437.70	2863.06
437.90	2691.03
438.11	2842.58
438.31	2772.95
438.52	2901.97
438.72	3018.71
438.93	2924.50
439.13	2787.29
439.34	2873.30
439.54	2727.89
439.75	2824.15
439.95	2799.57
440.16	2678.74
440.36	2695.13
440.57	2592.73
440.77	2641.88
440.98	2785.24
441.18	2789.33
441.39	2553.82
441.59	2584.54
441.80	2971.60
442.00	2654.17
442.21	2717.65
442.41	2566.10
442.62	2858.96
442.82	2584.54
443.02	2613.21
443.23	2760.66
443.43	2729.94
443.64	2914.26
443.84	2486.23
444.05	2725.85
444.25	2785.24
444.46	2609.11
444.66	2688.98
444.87	2922.45
445.07	2463.71
445.28	2680.79
445.48	2873.30
445.69	2729.94
445.89	3131.34
446.09	2764.76
446.30	3045.33
446.50	3139.54
446.71	4585.40
446.91	5599.15
447.12	6354.85
447.32	6780.82
447.53	6557.60
447.73	5437.36
447.93	4687.80
448.14	4669.37
448.34	4509.63
448.55	3844.04
448.75	3831.75
448.96	3612.62
449.16	3391.44
449.36	3254.22
449.57	2897.88
449.77	2721.75
449.98	2691.03
450.18	2809.81
450.39	2664.41
450.59	2869.20
450.79	2629.59
451.00	2584.54
451.20	2803.67
451.41	2674.65
451.61	2813.91
451.81	2795.48
452.02	2596.82
452.22	2652.12
452.43	2602.97
452.63	2584.54
452.84	2711.51
453.04	2602.97
453.24	2703.32
453.45	2625.50
453.65	2736.09
453.86	2787.29
454.06	2742.23
454.26	2807.77
454.47	2613.21
454.67	2824.15
454.87	2805.72
455.08	2709.46
455.28	2801.62
455.49	2711.51
455.69	2631.64
455.89	3018.71
456.10	2750.42
456.30	2637.78
456.51	2734.04
456.71	2731.99
456.91	2785.24
457.12	2625.50
457.32	2801.62
457.52	2598.87
457.73	2711.51
457.93	2760.66
458.14	2592.73
458.34	2486.23
458.54	2609.11
458.75	2588.63
458.95	2883.54
459.15	2746.33
459.36	2734.04
459.56	2695.13
459.76	3088.34
459.97	2709.46
460.17	2645.98
460.37	2797.53
460.58	2758.61
460.78	2746.33
460.99	2660.31
461.19	2637.78
461.39	2727.89
461.60	2699.22
461.80	2727.89
462.00	2523.10
462.21	2676.70
462.41	2615.26
462.61	2514.91
462.82	2500.57
463.02	2840.53
463.22	2707.41
463.43	2744.28
463.63	2588.63
463.83	2889.68
464.04	2805.72
464.24	2648.02
464.44	2621.40
464.64	2764.76
464.85	2811.86
465.05	2719.70
465.25	2643.93
465.46	2559.96
465.66	2754.52
465.86	2711.51
466.07	2619.35
466.27	2693.08
466.47	2551.77
466.68	2432.99
466.88	2811.86
467.08	2772.95
467.29	2830.29
467.49	2660.31
467.69	2686.94
467.89	2815.96
468.10	2666.46
468.30	2717.65
468.50	2793.43
468.71	2940.88
468.91	2543.58
469.11	2813.91
469.31	2725.85
469.52	2596.82
469.72	3047.38
469.92	2885.59
470.13	2643.93
470.33	2729.94
470.53	2756.57
470.73	2961.36
470.94	3276.75
471.14	3469.26
471.34	3796.93
471.54	3518.41
471.75	3334.09
471.95	3198.93
472.15	3096.53
472.36	3170.26
472.56	3037.14
472.76	3256.27
472.96	3045.33
473.17	2914.26
473.37	2815.96
473.57	2772.95
473.77	2793.43
473.98	2729.94
474.18	2621.40
474.38	3211.22
474.58	2631.64
474.79	2611.16
474.99	2838.48
475.19	2897.88
475.39	2615.26
475.60	2760.66
475.80	2691.03
476.00	2756.57
476.20	2688.98
476.41	2670.55
476.61	2731.99
476.81	2906.07
477.01	2705.37
477.21	2826.20
477.42	2697.17
477.62	2582.49
477.82	2869.20
478.02	2619.35
478.23	2736.09
478.43	2537.43
478.63	2734.04
478.83	2648.02
479.03	2701.27
479.24	2908.12
479.44	3051.47
479.64	2615.26
479.84	2453.47
480.04	2549.72
480.25	2873.30
480.45	2590.68
480.65	2619.35
480.85	3000.27
481.06	2615.26
481.26	2775.00
481.46	2621.40
481.66	2824.15
481.86	2672.60
482.06	2818.00
482.27	2680.79
482.47	2674.65
482.67	2746.33
482.87	2625.50
483.07	2809.81
483.28	2619.35
483.48	2496.47
483.68	2719.70
483.88	2512.86
484.08	2410.46
484.29	2566.10
484.49	2744.28
484.69	2523.10
484.89	2920.40
485.09	2818.00
485.29	2758.61
485.50	2734.04
485.70	2660.31
485.90	2924.50
486.10	2832.34
486.30	2666.46
486.50	2889.68
486.71	2818.00
486.91	2801.62
487.11	2793.43
487.31	2508.76
487.51	2797.53
487.71	2607.06
487.91	2559.96
488.12	2627.54
488.32	2473.95
488.52	2619.35
488.72	2447.32
488.92	2707.41
489.12	2844.63
489.32	2799.57
489.53	2596.82
489.73	2551.77
489.93	3010.51
490.13	2602.97
490.33	2570.20
490.53	2736.09
490.73	2856.92
490.94	2441.18
491.14	2785.24
491.34	2760.66
491.54	2908.12
491.74	3438.54
491.94	4061.12
492.14	4368.32
492.34	4364.22
492.54	4136.90
492.75	3579.85
492.95	3665.86
493.15	3424.20
493.35	3307.47
493.55	3213.26
493.75	3047.38
493.95	3280.85
494.15	2893.78
494.35	2742.23
494.56	2768.85
494.76	2666.46
494.96	2703.32
495.16	2613.21
495.36	2684.89
495.56	2691.03
495.76	2719.70
495.96	2711.51
496.16	2621.40
496.36	3071.95
496.56	2566.10
496.77	2725.85
496.97	2729.94
497.17	2932.69
497.37	2504.67
497.57	2799.57
497.77	2758.61
497.97	2594.78
498.17	2611.16
498.37	2609.11
498.57	2832.34
498.77	2658.26
498.97	2711.51
499.17	2926.55
499.38	2703.32
499.58	2826.20
499.78	2791.38
499.98	2815.96
500.18	2637.78
500.38	2605.02
500.58	2811.86
500.78	3229.65
500.98	5343.15
501.18	7100.31
501.38	8648.57
501.58	9541.49
501.78	9420.66
501.98	7782.28
502.18	6487.96
502.38	5597.10
502.58	5400.49
502.78	4775.86
502.98	4644.79
503.18	4411.32
503.38	4138.94
503.59	3559.37
503.79	3461.07
503.99	3207.12
504.19	3086.29
504.39	3129.30
504.59	3239.89
504.79	3112.91
504.99	3211.22
505.19	2934.74
505.39	2766.81
505.59	3059.67
505.79	2990.03
505.99	2881.49
506.19	2643.93
506.39	2899.92
506.59	2666.46
506.79	2682.84
506.99	2768.85
507.19	2656.22
507.39	2818.00
507.59	2568.15
507.79	2668.50
507.99	2535.39
508.19	2697.17
508.39	2701.27
508.59	2742.23
508.79	2701.27
508.99	3121.10
509.19	2607.06
509.39	2764.76
509.59	2662.36
509.79	2658.26
509.99	2740.18
510.19	2734.04
510.39	2740.18
510.59	2801.62
510.79	2576.34
510.99	2547.67
511.19	2645.98
511.39	2977.75
511.59	2904.02
511.79	2795.48
511.99	2654.17
512.19	3014.61
512.38	2744.28
512.58	2596.82
512.78	2670.55
512.98	2901.97
513.18	3010.51
513.38	2488.28
513.58	2750.42
513.78	2734.04
513.98	2715.61
514.18	2652.12
514.38	2715.61
514.58	2762.71
514.78	2742.23
514.98	2586.58
515.18	2578.39
515.38	2592.73
515.58	2998.23
515.78	2600.92
515.98	2645.98
516.18	2834.39
516.38	2750.42
516.57	2619.35
516.77	2551.77
516.97	2805.72
517.17	2662.36
517.37	2504.67
517.57	2678.74
517.77	2754.52
517.97	2625.50
518.17	2666.46
518.37	2502.62
518.57	2580.44
518.77	2654.17
518.97	2762.71
519.16	2725.85
519.36	2916.31
519.56	2631.64
519.76	2654.17
519.96	2594.78
520.16	2957.27
520.36	2490.33
520.56	2799.57
520.76	2539.48
520.96	2629.59
521.16	2879.44
521.35	2912.21
521.55	2770.90
521.75	2760.66
521.95	2660.31
522.15	2557.91
522.35	2465.75
522.55	2600.92
522.75	2777.05
522.95	2607.06
523.14	2490.33
523.34	2818.00
523.54	2693.08
523.74	2736.09
523.94	2744.28
524.14	2564.06
524.34	2787.29
524.54	2805.72
524.73	2629.59
524.93	2781.14
525.13	2768.85
525.33	2570.20
525.53	2969.55
525.73	2805.72
525.93	2707.41
526.13	2635.74
526.32	2541.53
526.52	2867.16
526.72	2781.14
526.92	2660.31
527.12	2586.58
527.32	2588.63
527.52	2867.16
527.71	2643.93
527.91	2748.37
528.11	2666.46
528.31	2678.74
528.51	2725.85
528.71	2752.47
528.90	2775.00
529.10	2916.31
529.30	2781.14
529.50	2351.07
529.70	2772.95
529.90	2734.04
530.09	2660.31
530.29	2504.67
530.49	2613.21
530.69	3096.53
530.89	2695.13
531.09	2748.37
531.28	2660.31
531.48	2854.87
531.68	2693.08
531.88	2584.54
532.08	2772.95
532.28	2678.74
532.47	2713.56
532.67	2729.94
532.87	2867.16
533.07	2656.22
533.27	2742.23
533.46	2715.61
533.66	2758.61
533.86	2709.46
534.06	2707.41
534.26	2650.07
534.45	2682.84
534.65	2934.74
534.85	2736.09
535.05	2635.74
535.25	2813.91
535.44	2455.51
535.64	2740.18
535.84	2637.78
536.04	2635.74
536.24	2623.45
536.43	2629.59
536.63	2654.17
536.83	2762.71
537.03	2684.89
537.22	2506.71
537.42	2506.71
537.62	2760.66
537.82	2584.54
538.02	2795.48
538.21	2783.19
538.41	3149.78
538.61	2858.96
538.81	2631.64
539.00	2748.37
539.20	2514.91
539.40	2658.26
539.60	2701.27
539.79	2731.99
539.99	2707.41
540.19	2652.12
540.39	2639.83
540.58	2688.98
540.78	2826.20
540.98	2707.41
541.18	2734.04
541.37	2676.70
541.57	2695.13
541.77	2764.76
541.97	2559.96
542.16	2537.43
542.36	2727.89
542.56	2674.65
542.76	2807.77
542.95	2760.66
543.15	2834.39
543.35	2832.34
543.54	2645.98
543.74	2531.29
543.94	2914.26
544.14	2617.30
544.33	2729.94
544.53	2627.54
544.73	2727.89
544.93	2750.42
545.12	2635.74
545.32	2686.94
545.52	2623.45
545.71	2600.92
545.91	2531.29
546.11	2586.58
546.30	2586.58
546.50	2731.99
546.70	2752.47
546.90	2680.79
547.09	2543.58
547.29	2668.50
547.49	2756.57
547.68	2709.46
547.88	2672.60
548.08	2803.67
548.27	3067.86
548.47	2623.45
548.67	2693.08
548.87	2772.95
549.06	2629.59
549.26	2625.50
549.46	2727.89
549.65	2627.54
549.85	2680.79
550.05	2662.36
550.24	2562.01
550.44	2658.26
550.64	2555.86
550.83	2693.08
551.03	2893.78
551.23	2973.65
551.42	2777.05
551.62	2633.69
551.82	2744.28
552.01	2717.65
552.21	2875.35
552.41	2682.84
552.60	2985.94
552.80	2699.22
553.00	2648.02
553.19	2684.89
553.39	3035.09
553.59	2617.30
553.78	2752.47
553.98	2686.94
554.17	2527.19
554.37	2799.57
554.57	2777.05
554.76	2500.57
554.96	2777.05
555.16	2795.48
555.35	2666.46
555.55	2695.13
555.75	2766.81
555.94	2815.96
556.14	2506.71
556.33	2731.99
556.53	2668.50
556.73	2746.33
556.92	2695.13
557.12	2662.36
557.32	3110.86
557.51	2901.97
557.71	2654.17
557.90	2865.11
558.10	2912.21
558.30	2699.22
558.49	2699.22
558.69	2652.12
558.88	2717.65
559.08	2752.47
559.28	2629.59
559.47	2674.65
559.67	2791.38
559.86	3033.04
560.06	2609.11
560.26	2719.70
560.45	2797.53
560.65	2725.85
560.84	2924.50
561.04	2605.02
561.24	2727.89
561.43	2590.68
561.63	2848.72
561.82	2639.83
562.02	2838.48
562.22	2639.83
562.41	2525.15
562.61	2629.59
562.80	2598.87
563.00	3096.53
563.19	2742.23
563.39	2736.09
563.59	2742.23
563.78	2574.30
563.98	2424.80
564.17	2611.16
564.37	2445.27
564.56	2762.71
564.76	2549.72
564.96	2768.85
565.15	2854.87
565.35	3088.34
565.54	2695.13
565.74	2717.65
565.93	2826.20
566.13	2772.95
566.32	2727.89
566.52	2740.18
566.71	2744.28
566.91	2871.25
567.11	2809.81
567.30	2613.21
567.50	2740.18
567.69	2748.37
567.89	2580.44
568.08	2568.15
568.28	2858.96
568.47	2510.81
568.67	2727.89
568.86	2619.35
569.06	2809.81
569.25	2652.12
569.45	2482.14
569.64	2584.54
569.84	2588.63
570.04	2746.33
570.23	2596.82
570.43	2654.17
570.62	2799.57
570.82	3010.51
571.01	2564.06
571.21	2617.30
571.40	2541.53
571.60	2871.25
571.79	2654.17
571.99	2662.36
572.18	2613.21
572.38	2746.33
572.57	2613.21
572.77	2699.22
572.96	3106.77
573.16	2736.09
573.35	2664.41
573.55	2840.53
573.74	2791.38
573.94	2670.55
574.13	2725.85
574.33	2777.05
574.52	2861.01
574.71	2725.85
574.91	2691.03
575.10	2553.82
575.30	2639.83
575.49	2551.77
575.69	2549.72
575.88	2703.32
576.08	2695.13
576.27	2828.24
576.47	2645.98
576.66	2908.12
576.86	2951.12
577.05	2785.24
577.25	2723.80
577.44	2848.72
577.64	2705.37
577.83	2854.87
578.02	2672.60
578.22	2879.44
578.41	2926.55
578.61	2719.70
578.80	2588.63
579.00	2717.65
579.19	2768.85
579.39	2861.01
579.58	2840.53
579.77	2650.07
579.97	2867.16
580.16	2975.70
580.36	2899.92
580.55	2779.09
580.75	2746.33
580.94	2723.80
581.13	2877.40
581.33	2869.20
581.52	2660.31
581.72	3074.00
581.91	2826.20
582.11	2752.47
582.30	2887.64
582.49	2836.44
582.69	2940.88
582.88	2674.65
583.08	2797.53
583.27	2861.01
583.47	2723.80
583.66	2578.39
583.85	2637.78
584.05	2742.23
584.24	2772.95
584.44	2627.54
584.63	2904.02
584.82	2965.46
585.02	2803.67
585.21	2772.95
585.41	2822.10
585.60	2807.77
585.79	2922.45
585.99	2955.22
586.18	2813.91
586.37	3526.60
586.57	5420.97
586.76	15838.99
586.96	35010.03
587.15	48338.21
587.34	56738.97
587.54	61275.22
587.73	54854.84
587.93	38800.82
588.12	29771.32
588.31	24032.91
588.51	21120.70
588.70	19480.28
588.89	17469.17
589.09	14647.07
589.28	12642.11
589.47	9863.02
589.67	7606.16
589.86	5971.88
590.06	4628.41
590.25	4001.73
590.44	3399.63
590.64	3133.39
590.83	2969.55
591.02	3035.09
591.22	2699.22
591.41	2748.37
591.60	2785.24
591.80	3166.16
591.99	2611.16
592.18	2625.50
592.38	2875.35
592.57	2705.37
592.76	2811.86
592.96	2756.57
593.15	2721.75
593.34	2936.79
593.54	2736.09
593.73	2850.77
593.92	2863.06
594.12	2832.34
594.31	2705.37
594.50	2848.72
594.70	2809.81
594.89	3166.16
595.08	2682.84
595.28	2770.90
595.47	3071.95
595.66	2844.63
595.86	2500.57
596.05	2625.50
596.24	2676.70
596.43	3028.95
596.63	2807.77
596.82	2701.27
597.01	2797.53
597.21	3014.61
597.40	2768.85
597.59	2731.99
597.79	2795.48
597.98	2887.64
598.17	2824.15
598.36	2678.74
598.56	2893.78
598.75	2654.17
598.94	2662.36
599.14	2697.17
599.33	2598.87
599.52	2838.48
599.71	2691.03
599.91	2740.18
600.10	2820.05
600.29	2666.46
600.48	2830.29
600.68	2795.48
600.87	2760.66
601.06	2619.35
601.26	2754.52
601.45	2697.17
601.64	2672.60
601.83	2949.08
602.03	2619.35
602.22	2527.19
602.41	2811.86
602.60	3121.10
602.80	2840.53
602.99	2789.33
603.18	2643.93
603.37	2719.70
603.57	2611.16
603.76	2717.65
603.95	2863.06
604.14	2658.26
604.34	2666.46
604.53	2633.69
604.72	2727.89
604.91	2836.44
605.10	2695.13
605.30	2531.29
605.49	3112.91
605.68	2846.68
605.87	2760.66
606.07	2580.44
606.26	2764.76
606.45	2820.05
606.64	2711.51
606.84	2639.83
607.03	2781.14
607.22	2914.26
607.41	2590.68
607.60	2641.88
607.80	2904.02
607.99	2670.55
608.18	2738.13
608.37	2709.46
608.56	2680.79
608.76	2928.60
608.95	2842.58
609.14	2609.11
609.33	2967.51
609.52	2936.79
609.72	2832.34
609.91	2791.38
610.10	2824.15
610.29	2910.16
610.48	2852.82
610.68	2762.71
610.87	2744.28
611.06	2744.28
611.25	2623.45
611.44	2766.81
611.63	2648.02
611.83	2844.63
612.02	2494.43
612.21	2809.81
612.40	2478.04
612.59	2584.54
612.79	2553.82
612.98	2742.23
613.17	3035.09
613.36	2697.17
613.55	2850.77
613.74	2652.12
613.93	2818.00
614.13	2861.01
614.32	2875.35
614.51	2789.33
614.70	2836.44
614.89	2783.19
615.08	2793.43
615.28	3153.87
615.47	2615.26
615.66	2838.48
615.85	2674.65
616.04	2885.59
616.23	2754.52
616.42	2699.22
616.62	2736.09
616.81	2725.85
617.00	2789.33
617.19	2885.59
617.38	2600.92
617.57	2760.66
617.76	2791.38
617.95	2799.57
618.15	2818.00
618.34	2908.12
618.53	2605.02
618.72	2891.73
618.91	2828.24
619.10	2725.85
619.29	2715.61
619.48	2709.46
619.68	2570.20
619.87	2613.21
620.06	2525.15
620.25	2789.33
620.44	2564.06
620.63	2641.88
620.82	2768.85
621.01	2799.57
621.20	2715.61
621.39	2731.99
621.59	2781.14
621.78	2770.90
621.97	2682.84
622.16	2813.91
622.35	2762.71
622.54	2770.90
622.73	2772.95
622.92	2521.05
623.11	2861.01
623.30	2697.17
623.49	2752.47
623.68	2600.92
623.88	2912.21
624.07	2736.09
624.26	2582.49
624.45	2668.50
624.64	2727.89
624.83	2807.77
625.02	2680.79
625.21	2719.70
625.40	2666.46
625.59	3006.42
625.78	2729.94
625.97	2811.86
626.16	2918.36
626.35	2818.00
626.54	2777.05
626.74	2828.24
626.93	2705.37
627.12	2746.33
627.31	2715.61
627.50	2715.61
627.69	2797.53
627.88	2602.97
628.07	2645.98
628.26	2537.43
628.45	2592.73
628.64	2588.63
628.83	2584.54
629.02	2609.11
629.21	2854.87
629.40	2818.00
629.59	2598.87
629.78	2633.69
629.97	2709.46
630.16	2707.41
630.35	2613.21
630.54	2695.13
630.73	2680.79
630.92	2674.65
631.11	2533.34
631.30	2723.80
631.49	2895.83
631.68	2756.57
631.87	2668.50
632.06	2572.25
632.25	3086.29
632.44	2662.36
632.63	2676.70
632.82	2676.70
633.01	2613.21
633.20	2693.08
633.39	2602.97
633.58	2514.91
633.77	2797.53
633.96	2861.01
634.15	2662.36
634.34	2793.43
634.53	2799.57
634.72	2588.63
634.91	2463.71
635.10	2670.55
635.29	2887.64
635.48	2756.57
635.67	2562.01
635.86	2527.19
636.05	2863.06
636.24	2766.81
636.43	2613.21
636.62	2752.47
636.81	2404.32
637.00	2744.28
637.19	2736.09
637.38	2645.98
637.57	2576.34
637.76	2709.46
637.95	2856.92
638.14	2760.66
638.33	2787.29
638.52	2815.96
638.71	2613.21
638.89	2564.06
639.08	3188.69
639.27	2930.64
639.46	2846.68
639.65	3225.55
639.84	3256.27
640.03	3352.52
640.22	3082.19
640.41	3102.67
640.60	2920.40
640.79	2926.55
640.98	2809.81
641.17	2844.63
641.36	2908.12
641.55	2828.24
641.74	2596.82
641.92	2623.45
642.11	2621.40
642.30	2656.22
642.49	2488.28
642.68	2674.65
642.87	2764.76
643.06	2785.24
643.25	2594.78
643.44	2504.67
643.63	2723.80
643.82	2809.81
644.00	2521.05
644.19	2678.74
644.38	2568.15
644.57	2805.72
644.76	2684.89
644.95	2674.65
645.14	2748.37
645.33	2709.46
645.52	2744.28
645.71	2512.86
645.89	2619.35
646.08	2643.93
646.27	2645.98
646.46	2832.34
646.65	2635.74
646.84	2713.56
647.03	2516.95
647.22	2836.44
647.40	2799.57
647.59	2619.35
647.78	2469.85
647.97	2621.40
648.16	2662.36
648.35	2901.97
648.54	2787.29
648.73	2623.45
648.91	2875.35
649.10	2678.74
649.29	2596.82
649.48	2643.93
649.67	2820.05
649.86	2697.17
650.05	2719.70
650.23	2834.39
650.42	2652.12
650.61	2887.64
650.80	2836.44
650.99	2916.31
651.18	2899.92
651.36	2947.03
651.55	2639.83
651.74	2752.47
651.93	2758.61
652.12	2691.03
652.31	2697.17
652.49	2705.37
652.68	2672.60
652.87	2971.60
653.06	2791.38
653.25	2865.11
653.44	2676.70
653.62	2934.74
653.81	2662.36
654.00	2750.42
654.19	2772.95
654.38	2998.23
654.56	2719.70
654.75	2588.63
654.94	2863.06
655.13	2707.41
655.32	2627.54
655.51	2793.43
655.69	2637.78
655.88	2854.87
656.07	2543.58
656.26	2676.70
656.45	2584.54
656.63	2752.47
656.82	2670.55
657.01	2877.40
657.20	2598.87
657.38	2871.25
657.57	2611.16
657.76	2502.62
657.95	2881.49
658.14	2627.54
658.32	2631.64
658.51	2537.43
658.70	2783.19
658.89	2750.42
659.08	2703.32
659.26	2891.73
659.45	2574.30
659.64	2832.34
659.83	2627.54
660.01	3039.19
660.20	2736.09
660.39	2940.88
660.58	2457.56
660.76	2777.05
660.95	2482.14
661.14	2731.99
661.33	2539.48
661.51	2613.21
661.70	2699.22
661.89	2785.24
662.08	2652.12
662.26	2555.86
662.45	2547.67
662.64	2949.08
662.83	2754.52
663.01	2533.34
663.20	2729.94
663.39	2953.17
663.58	2576.34
663.76	2586.58
663.95	2815.96
664.14	2650.07
664.32	2633.69
664.51	2545.63
664.70	2392.03
664.89	2775.00
665.07	2480.09
665.26	2723.80
665.45	2500.57
665.64	2766.81
665.82	2627.54
666.01	2707.41
666.20	2568.15
666.38	2936.79
666.57	2936.79
666.76	4317.12
666.95	9969.51
667.13	17086.20
667.32	21073.60
667.51	23885.46
667.69	25310.85
667.88	21429.94
668.07	15425.30
668.25	12756.80
668.44	11190.10
668.63	9604.97
668.81	8540.03
669.00	7286.67
669.19	6557.60
669.38	5754.79
669.56	5005.24
669.75	4280.25
669.94	3796.93
670.12	3200.98
670.31	2856.92
670.50	2914.26
670.68	2947.03
670.87	2824.15
671.06	2639.83
671.24	2731.99
671.43	2963.41
671.62	2805.72
671.80	2594.78
671.99	2813.91
672.18	2748.37
672.36	2805.72
672.55	2725.85
672.74	2697.17
672.92	2764.76
673.11	2762.71
673.29	2527.19
673.48	2789.33
673.67	2678.74
673.85	2846.68
674.04	2588.63
674.23	2621.40
674.41	2990.03
674.60	2553.82
674.79	2492.38
674.97	2545.63
675.16	2842.58
675.34	2850.77
675.53	2551.77
675.72	2662.36
675.90	3030.99
676.09	2627.54
676.28	2699.22
676.46	2547.67
676.65	2848.72
676.83	2533.34
677.02	2684.89
677.21	2684.89
677.39	2828.24
677.58	2596.82
677.77	2650.07
677.95	2551.77
678.14	2684.89
678.32	2729.94
678.51	2611.16
678.70	2885.59
678.88	2719.70
679.07	2668.50
679.25	2564.06
679.44	2670.55
679.63	2607.06
679.81	2729.94
680.00	2865.11
680.18	2717.65
680.37	2936.79
680.55	2707.41
680.74	2449.37
680.93	2435.03
681.11	2772.95
681.30	2711.51
681.48	2711.51
681.67	2650.07
681.85	2680.79
682.04	2559.96
682.23	2764.76
682.41	2752.47
682.60	2682.84
682.78	2783.19
682.97	2516.95
683.15	2711.51
683.34	2772.95
683.53	2973.65
683.71	2600.92
683.90	2805.72
684.08	3002.32
684.27	2695.13
684.45	2752.47
684.64	2787.29
684.82	2729.94
685.01	2797.53
685.19	2645.98
685.38	2924.50
685.57	2709.46
685.75	2551.77
685.94	2594.78
686.12	2576.34
686.31	2711.51
686.49	2918.36
686.68	2500.57
686.86	2625.50
687.05	2695.13
687.23	2940.88
687.42	2643.93
687.60	2545.63
687.79	2854.87
687.97	2869.20
688.16	2805.72
688.34	2793.43
688.53	2488.28
688.71	2793.43
688.90	2818.00
689.08	2635.74
689.27	2506.71
689.45	2875.35
689.64	2721.75
689.82	2791.38
690.01	2775.00
690.19	2693.08
690.38	2664.41
690.56	2729.94
690.75	2621.40
690.93	2691.03
691.12	2605.02
691.30	2658.26
691.49	2654.17
691.67	2686.94
691.86	2891.73
692.04	2627.54
692.23	2705.37
692.41	2713.56
692.60	2875.35
692.78	2854.87
692.97	2744.28
693.15	2801.62
693.34	2873.30
693.52	2785.24
693.71	2643.93
693.89	2711.51
694.08	2475.99
694.26	2740.18
694.44	2858.96
694.63	2844.63
694.81	2576.34
695.00	2572.25
695.18	2846.68
695.37	3078.10
695.55	2707.41
695.74	2629.59
695.92	2602.97
696.10	2983.89
696.29	2480.09
696.47	2633.69
696.66	2576.34
696.84	2598.87
697.03	2705.37
697.21	2881.49
697.40	4177.86
697.58	2875.35
697.76	2576.34
697.95	2615.26
698.13	2553.82
698.32	2637.78
698.50	2713.56
698.68	2691.03
698.87	2785.24
699.05	2916.31
699.24	2723.80
699.42	2602.97
699.61	2760.66
699.79	2703.32
699.97	2592.73
700.16	2525.15
700.34	2516.95
700.53	2674.65
700.71	2858.96
700.89	2795.48
701.08	2656.22
701.26	2779.09
701.45	3026.90
701.63	2594.78
701.81	2654.17
702.00	2578.39
702.18	2723.80
702.37	2568.15
702.55	3006.42
702.73	2748.37
702.92	2654.17
703.10	2904.02
703.28	2916.31
703.47	2650.07
703.65	2920.40
703.84	2799.57
704.02	2727.89
704.20	2932.69
704.39	2539.48
704.57	2588.63
704.75	2852.82
704.94	2787.29
705.12	2697.17
705.30	3045.33
705.49	5853.09
705.67	12019.53
705.86	17643.25
706.04	20383.43
706.22	22984.35
706.41	22488.74
706.59	17870.58
706.77	13215.54
706.96	11523.92
707.14	10422.11
707.32	8935.29
707.51	7817.10
707.69	6586.27
707.87	5375.92
708.06	4399.04
708.24	3827.65
708.42	3301.33
708.61	3559.37
708.79	2830.29
708.97	2736.09
709.16	2846.68
709.34	2697.17
709.52	2617.30
709.71	2680.79
709.89	2746.33
710.07	2611.16
710.26	2533.34
710.44	2629.59
710.62	2873.30
710.80	2670.55
710.99	2809.81
711.17	2770.90
711.35	2613.21
711.54	2615.26
711.72	2846.68
711.90	2736.09
712.09	2772.95
712.27	2684.89
712.45	2775.00
712.63	2609.11
712.82	2652.12
713.00	2717.65
713.18	2738.13
713.37	2818.00
713.55	2799.57
713.73	2867.16
713.91	2705.37
714.10	2633.69
714.28	2670.55
714.46	2793.43
714.65	2744.28
714.83	2717.65
715.01	2777.05
715.19	2723.80
715.38	2600.92
715.56	2795.48
715.74	2684.89
715.92	2600.92
716.11	2828.24
716.29	2441.18
716.47	2721.75
716.65	2697.17
716.84	2535.39
717.02	2713.56
717.20	2455.51
717.38	2623.45
717.57	2684.89
717.75	2723.80
717.93	2635.74
718.11	2801.62
718.30	2555.86
718.48	2697.17
718.66	2791.38
718.84	2863.06
719.03	2693.08
719.21	2559.96
719.39	2971.60
719.57	2789.33
719.75	2811.86
719.94	2549.72
720.12	2643.93
720.30	2703.32
720.48	2785.24
720.67	2664.41
720.85	2664.41
721.03	2637.78
721.21	2445.27
721.39	2772.95
721.58	2783.19
721.76	2695.13
721.94	2701.27
722.12	2731.99
722.30	2947.03
722.49	2602.97
722.67	2686.94
722.85	2666.46
723.03	2488.28
723.21	2584.54
723.40	2731.99
723.58	2779.09
723.76	2822.10
723.94	2891.73
724.12	2693.08
724.30	2803.67
724.49	2818.00
724.67	2582.49
724.85	2858.96
725.03	2580.44
725.21	2856.92
725.40	2914.26
725.58	2596.82
725.76	2764.76
725.94	2764.76
726.12	2598.87
726.30	2584.54
726.49	2674.65
726.67	2693.08
726.85	2803.67
727.03	3129.30
727.21	4091.84
727.39	5158.83
727.57	5576.62
727.76	6234.02
727.94	6174.63
728.12	5558.19
728.30	4624.31
728.48	4282.30
728.66	3983.30
728.84	3712.97
729.03	3381.20
729.21	3178.45
729.39	3053.52
729.57	2828.24
729.75	2846.68
729.93	2768.85
730.11	2600.92
730.30	2760.66
730.48	2654.17
730.66	2824.15
730.84	2703.32
731.02	2717.65
731.20	2637.78
731.38	2676.70
731.56	2490.33
731.74	2588.63
731.93	2834.39
732.11	2803.67
732.29	2613.21
732.47	2809.81
732.65	2828.24
732.83	2893.78
733.01	2815.96
733.19	2615.26
733.37	2805.72
733.56	2824.15
733.74	2598.87
733.92	2947.03
734.10	2672.60
734.28	2809.81
734.46	2383.84
734.64	2668.50
734.82	2695.13
735.00	2629.59
735.18	2596.82
735.36	2670.55
735.54	2686.94
735.73	2721.75
735.91	2658.26
736.09	2928.60
736.27	2717.65
736.45	2734.04
736.63	2449.37
736.81	2734.04
736.99	2867.16
737.17	2842.58
737.35	2535.39
737.53	2756.57
737.71	2713.56
737.89	2824.15
738.07	2623.45
738.25	2641.88
738.43	2504.67
738.61	2584.54
738.80	2533.34
738.98	2605.02
739.16	2678.74
739.34	2541.53
739.52	2830.29
739.70	2680.79
739.88	2840.53
740.06	2701.27
740.24	2398.17
740.42	2889.68
740.60	2531.29
740.78	2576.34
740.96	2441.18
741.14	2678.74
741.32	2736.09
741.50	2514.91
741.68	2965.46
741.86	2889.68
742.04	2654.17
742.22	2506.71
742.40	2766.81
742.58	2775.00
742.76	2594.78
742.94	2787.29
743.12	2478.04
743.30	2777.05
743.48	2768.85
743.66	2607.06
743.84	2691.03
744.02	2705.37
744.20	2762.71
744.38	2580.44
744.56	2633.69
744.74	3004.37
744.92	2836.44
745.10	2930.64
745.28	2791.38
745.46	2975.70
745.64	2711.51
745.82	2789.33
746.00	2645.98
746.18	2803.67
746.36	2635.74
746.54	2699.22
746.72	2678.74
746.90	2551.77
747.08	2883.54
747.26	2637.78
747.44	2781.14
747.62	2850.77
747.80	2818.00
747.98	2775.00
748.15	2582.49
748.33	2875.35
748.51	2752.47
748.69	2850.77
748.87	2602.97
749.05	2592.73
749.23	2738.13
749.41	2625.50
749.59	2631.64
749.77	2906.07
749.95	2752.47
750.13	2654.17
750.31	2758.61
750.49	2662.36
750.67	2809.81
750.85	2787.29
751.03	2699.22
751.20	3030.99
751.38	2699.22
751.56	2613.21
751.74	2748.37
751.92	2615.26
752.10	2539.48
752.28	2809.81
752.46	2609.11
752.64	2674.65
752.82	2752.47
753.00	2760.66
753.18	2658.26
753.35	2666.46
753.53	2674.65
753.71	2645.98
753.89	2684.89
754.07	2775.00
754.25	2748.37
754.43	2691.03
754.61	2533.34
754.79	2775.00
754.97	2658.26
755.14	2809.81
755.32	2519.00
755.50	2772.95
755.68	2697.17
755.86	2529.24
756.04	2688.98
756.22	2498.52
756.40	2901.97
756.57	2961.36
756.75	2533.34
756.93	2906.07
757.11	2897.88
757.29	2557.91
757.47	2568.15
757.65	2498.52
757.82	2461.66
758.00	2555.86
758.18	2621.40
758.36	2594.78
758.54	2961.36
758.72	2492.38
758.90	2748.37
759.07	2750.42
759.25	2578.39
759.43	2719.70
759.61	2572.25
759.79	3899.33
759.97	2822.10
760.15	2697.17
760.32	2516.95
760.50	2783.19
760.68	3020.75
760.86	2588.63
761.04	2809.81
761.22	2901.97
761.39	2709.46
761.57	2772.95
761.75	2613.21
761.93	2797.53
762.11	2650.07
762.28	2658.26
762.46	2580.44
762.64	2944.98
762.82	2500.57
763.00	2639.83
763.18	2844.63
763.35	2531.29
763.53	2805.72
763.71	2676.70
763.89	2668.50
764.07	2750.42
764.24	2623.45
764.42	2731.99
764.60	2637.78
764.78	2785.24
764.96	2805.72
765.13	2811.86
765.31	2559.96
765.49	2822.10
765.67	2576.34
765.84	2654.17
766.02	2668.50
766.20	2510.81
766.38	2707.41
766.56	2713.56
766.73	2779.09
766.91	2750.42
767.09	2762.71
767.27	2676.70
767.44	2574.30
767.62	2752.47
767.80	2688.98
767.98	2596.82
768.15	2660.31
768.33	2834.39
768.51	2781.14
768.69	2717.65
768.87	2652.12
769.04	2738.13
769.22	3094.48
769.40	2863.06
769.58	2775.00
769.75	2760.66
769.93	2897.88
770.11	2607.06
770.28	2611.16
770.46	2818.00
770.64	2811.86
770.82	2611.16
770.99	2635.74
771.17	2740.18
771.35	2670.55
771.53	2682.84
771.70	2635.74
771.88	2795.48
772.06	2695.13
772.23	2670.55
772.41	2725.85
772.59	2668.50
772.77	2498.52
772.94	2633.69
773.12	2719.70
773.30	2611.16
773.47	2693.08
773.65	2572.25
773.83	2818.00
774.01	2717.65
774.18	2467.80
774.36	2684.89
774.54	2500.57
774.71	2740.18
774.89	2484.19
775.07	2525.15
775.24	2566.10
775.42	2648.02
775.60	2961.36
775.78	2594.78
775.95	2527.19
776.13	2502.62
776.31	2478.04
776.48	2787.29
776.66	2832.34
776.84	2635.74
777.01	2600.92
777.19	2564.06
777.37	2602.97
777.54	2750.42
777.72	2940.88
777.90	2752.47
778.07	2590.68
778.25	3182.54
778.43	2899.92
778.60	2594.78
778.78	2758.61
778.96	2949.08
779.13	2539.48
779.31	2668.50
779.49	2660.31
779.66	2793.43
779.84	2652.12
780.01	2697.17
780.19	2545.63
780.37	2899.92
780.54	2781.14
780.72	2551.77
780.90	2711.51
781.07	2686.94
781.25	2629.59
781.43	2836.44
781.60	2580.44
781.78	3004.37
781.95	2736.09
782.13	2605.02
782.31	2621.40
782.48	2408.41
782.66	2711.51
782.83	2947.03
783.01	2691.03
783.19	2826.20
783.36	2693.08
783.54	2537.43
783.72	2723.80
783.89	2656.22
784.07	2701.27
784.24	2762.71
784.42	2809.81
784.60	2770.90
784.77	2793.43
784.95	2418.65
785.12	2562.01
785.30	2725.85
785.47	2519.00
785.65	2545.63
785.83	2674.65
786.00	2734.04
786.18	2713.56
786.35	2574.30
786.53	2625.50
786.71	2883.54
786.88	2834.39
787.06	2711.51
787.23	2639.83
787.41	2596.82
787.58	2736.09
787.76	2521.05
787.94	2666.46
788.11	2775.00
788.29	2617.30
788.46	2525.15
788.64	2488.28
788.81	2699.22
788.99	2629.59
789.16	2553.82
789.34	2746.33
789.52	2627.54
789.69	2613.21
789.87	2346.97
790.04	2660.31
790.22	2691.03
790.39	2965.46
790.57	2559.96
790.74	2549.72
790.92	2848.72
791.09	2416.60
791.27	2678.74
791.44	2832.34
791.62	2731.99
791.79	2836.44
791.97	2731.99
792.15	2908.12
792.32	2867.16
792.50	2764.76
792.67	2934.74
792.85	2858.96
793.02	2762.71
793.20	2590.68
793.37	2512.86
793.55	2576.34
793.72	2521.05
793.90	2820.05
794.07	2639.83
794.25	2553.82
794.42	2695.13
794.60	2695.13
794.77	2750.42
794.95	2797.53
795.12	2791.38
795.30	2754.52
795.47	2449.37
795.65	3028.95
795.82	2799.57
796.00	2572.25
796.17	2609.11
796.34	2535.39
796.52	2662.36
796.69	2822.10
796.87	2856.92
797.04	2756.57
797.22	2858.96
797.39	2785.24
797.57	2785.24
797.74	2721.75
797.92	2785.24
798.09	2600.92
798.27	2781.14
798.44	2562.01
798.62	2510.81
798.79	2797.53
798.96	2691.03
799.14	2643.93
799.31	3090.38
799.49	2766.81
799.66	2584.54
799.84	2670.55
800.01	2535.39
800.19	2795.48
800.36	2486.23
800.53	2717.65
800.71	2832.34
800.88	2975.70
801.06	2600.92
801.23	2656.22
801.41	2703.32
801.58	2656.22
801.75	2652.12
801.93	2725.85
802.10	2789.33
802.28	2711.51
802.45	2600.92
802.63	2727.89
802.80	2895.83
802.97	2686.94
803.15	2645.98
803.32	2578.39
803.50	2605.02
803.67	2557.91
803.84	2592.73
804.02	2707.41
804.19	2662.36
804.37	2465.75
804.54	2484.19
804.71	2621.40
804.89	2764.76
805.06	2621.40
805.24	2512.86
805.41	2535.39
805.58	2621.40
805.76	3088.34
805.93	2564.06
806.10	2775.00
806.28	2711.51
806.45	2703.32
806.63	2756.57
806.80	2742.23
806.97	2717.65
807.15	2756.57
807.32	2676.70
807.49	2670.55
807.67	2494.43
807.84	2758.61
808.01	2533.34
808.19	2842.58
808.36	3074.00
808.54	2668.50
808.71	2637.78
808.88	2736.09
809.06	2873.30
809.23	2897.88
809.40	2586.58
809.58	2691.03
809.75	2738.13
809.92	2615.26
810.10	2895.83
810.27	2559.96
810.44	2760.66
810.62	2803.67
810.79	2723.80
810.96	2576.34
811.14	2631.64
811.31	2740.18
811.48	2748.37
811.66	2619.35
811.83	2883.54
812.00	2744.28
812.18	2699.22
812.35	2981.84
812.52	2686.94
812.69	2719.70
812.87	2731.99
813.04	2572.25
813.21	2703.32
813.39	2582.49
813.56	2519.00
813.73	2777.05
813.91	2508.76
814.08	2674.65
814.25	2668.50
814.42	2441.18
814.60	2662.36
814.77	2678.74
814.94	2662.36
815.12	2709.46
815.29	3012.56
815.46	2631.64
815.63	2631.64
815.81	2645.98
815.98	2660.31
816.15	2691.03
816.33	2691.03
816.50	2582.49
816.67	2631.64
816.84	2682.84
817.02	2537.43
817.19	2615.26
817.36	2826.20
817.53	2750.42
817.71	2572.25
817.88	2684.89
818.05	2674.65
818.22	2693.08
818.40	2879.44
818.57	2623.45
818.74	2750.42
818.91	2701.27
819.09	2805.72
819.26	2815.96
819.43	2652.12
819.60	2605.02
819.78	2795.48
819.95	2809.81
820.12	2568.15
820.29	2951.12
820.47	2848.72
820.64	2582.49
820.81	2574.30
820.98	2602.97
821.15	2678.74
821.33	2772.95
821.50	2516.95
821.67	2795.48
821.84	2602.97
822.02	2705.37
822.19	2789.33
822.36	2613.21
822.53	2643.93
822.70	2508.76
822.88	2670.55
823.05	2916.31
823.22	2609.11
823.39	2729.94
823.56	2754.52
823.74	2977.75
823.91	2455.51
824.08	2605.02
824.25	2521.05
824.42	2957.27
824.60	2496.47
824.77	2768.85
824.94	2711.51
825.11	2828.24
825.28	2570.20
825.45	2719.70
825.63	2686.94
825.80	2588.63
825.97	2707.41
826.14	2713.56
826.31	2539.48
826.48	2764.76
826.66	2564.06
826.83	2623.45
827.00	2682.84
827.17	2539.48
827.34	2641.88
827.51	2637.78
827.69	2760.66
827.86	2551.77
828.03	2697.17
828.20	2588.63
828.37	2688.98
828.54	2705.37
828.71	2650.07
828.89	2803.67
829.06	2748.37
829.23	2983.89
829.40	2658.26
829.57	2594.78
829.74	2807.77
829.91	2545.63
830.09	2580.44
830.26	2666.46
830.43	2906.07
830.60	2643.93
830.77	2674.65
830.94	2852.82
831.11	2826.20
831.28	2627.54
831.46	2791.38
831.63	2619.35
831.80	2815.96
831.97	2600.92
832.14	2666.46
832.31	2703.32
832.48	2822.10
832.65	2916.31
832.82	2650.07
832.99	2656.22
833.17	2559.96
833.34	2914.26
833.51	2670.55
833.68	2461.66
833.85	2828.24
834.02	2512.86
834.19	2574.30
834.36	2521.05
834.53	2748.37
834.70	2889.68
834.87	2686.94
835.04	2609.11
835.22	2574.30
835.39	2719.70
835.56	2559.96
835.73	2566.10
835.90	2836.44
836.07	2537.43
836.24	2731.99
836.41	2627.54
836.58	2623.45
836.75	2875.35
836.92	2637.78
837.09	2508.76
837.26	2906.07
837.43	2762.71
837.60	2578.39
837.77	2586.58
837.94	2865.11
838.12	2797.53
838.29	2473.95
838.46	2457.56
838.63	2615.26
838.80	2912.21
838.97	2674.65
839.14	2529.24
839.31	2699.22
839.48	2856.92
839.65	2523.10
839.82	2660.31
839.99	2795.48
840.16	2815.96
840.33	2547.67
840.50	2596.82
840.67	2570.20
840.84	2400.22
841.01	2512.86
841.18	2541.53
841.35	2719.70
841.52	2828.24
841.69	2805.72
841.86	2531.29
842.03	2711.51
842.20	2901.97
842.37	2600.92
842.54	2609.11
842.71	2684.89
842.88	2531.29
843.05	2510.81
843.22	2443.23
843.39	2822.10
843.56	2637.78
843.73	2490.33
843.90	2615.26
844.07	2738.13
844.24	2770.90
844.41	2668.50
844.58	2652.12
844.75	2686.94
844.92	2846.68
845.09	2637.78
845.26	2506.71
845.43	2844.63
845.60	2637.78
845.77	2711.51
845.94	2574.30
846.10	2836.44
846.27	2449.37
846.44	2486.23
846.61	2465.75
846.78	2727.89
846.95	2850.77
847.12	2510.81
847.29	2541.53
847.46	2555.86
847.63	2858.96
847.80	2478.04
847.97	2525.15
848.14	2998.23
848.31	2701.27
848.48	2430.94
848.65	2580.44
848.82	2639.83
848.98	3020.75
849.15	2609.11
849.32	2691.03
849.49	2822.10
849.66	2699.22
849.83	2529.24
850.00	2398.17
850.17	2844.63
850.34	2639.83
850.51	2500.57
850.68	2609.11
850.85	3082.19
851.01	2736.09
851.18	2582.49
851.35	2605.02
851.52	2699.22
851.69	2904.02
851.86	2549.72
852.03	2564.06
852.20	2867.16
852.37	2731.99
852.53	2461.66
852.70	2404.32
852.87	2736.09
853.04	2775.00
853.21	2537.43
853.38	2721.75
853.55	2971.60
853.72	2875.35
853.89	2506.71
854.05	2498.52
854.22	2639.83
854.39	2734.04
854.56	2580.44
854.73	2736.09
854.90	2637.78
855.07	2715.61
855.23	2508.76
855.40	2478.04
855.57	2662.36
855.74	2451.42
855.91	2674.65
856.08	2414.56
856.25	2455.51
856.41	2676.70
856.58	2592.73
856.75	2586.58
856.92	2572.25
857.09	2854.87
857.26	2398.17
857.42	2619.35
857.59	2856.92
857.76	2660.31
857.93	2650.07
858.10	2586.58
858.27	2590.68
858.43	2697.17
858.60	2586.58
858.77	2465.75
858.94	2619.35
859.11	2783.19
859.27	2553.82
859.44	2494.43
859.61	2949.08
859.78	2793.43
859.95	2521.05
860.12	2523.10
860.28	3014.61
860.45	2957.27
860.62	2506.71
860.79	2629.59
860.95	2697.17
861.12	2539.48
861.29	2463.71
861.46	2535.39
861.63	2736.09
861.79	2789.33
861.96	2512.86
862.13	2566.10
862.30	2863.06
862.47	2525.15
862.63	2502.62
862.80	2596.82
862.97	2793.43
863.14	2756.57
863.30	2586.58
863.47	2478.04
863.64	2899.92
863.81	2641.88
863.97	2465.75
864.14	2547.67
864.31	2709.46
864.48	2701.27
864.65	2572.25
864.81	2635.74
864.98	2832.34
865.15	2863.06
865.32	2637.78
865.48	2684.89
865.65	2953.17
865.82	2594.78
865.98	2609.11
866.15	2637.78
866.32	2621.40
866.49	2650.07
866.65	2686.94
866.82	2543.58
866.99	2658.26
867.16	2611.16
867.32	2600.92
867.49	2490.33
867.66	2637.78
867.83	2693.08
867.99	2400.22
868.16	2619.35
868.33	2574.30
868.49	2760.66
868.66	2533.34
868.83	2695.13
868.99	2807.77
869.16	2729.94
869.33	2631.64
869.50	2678.74
869.66	2703.32
869.83	2777.05
870.00	2406.36
870.16	2740.18
870.33	2605.02
870.50	2840.53
870.66	2592.73
870.83	2582.49
871.00	2705.37
871.17	2795.48
871.33	2654.17
871.50	2543.58
871.67	2746.33
871.83	2537.43
872.00	2658.26
872.17	2584.54
872.33	2971.60
872.50	2947.03
872.67	2562.01
872.83	2576.34
873.00	2609.11
873.17	2793.43
873.33	2686.94
873.50	2578.39
873.67	2678.74
873.83	2551.77
874.00	2586.58
874.16	2715.61
874.33	2756.57
874.50	2621.40
874.66	2533.34
874.83	2629.59
875.00	2795.48
875.16	2899.92
875.33	2613.21
875.50	2377.69
875.66	2666.46
875.83	2770.90
875.99	2643.93
876.16	2654.17
876.33	2596.82
876.49	2686.94
876.66	2602.97
876.83	2594.78
876.99	2504.67
877.16	2723.80
877.32	2551.77
877.49	2535.39
877.66	2793.43
877.82	2875.35
877.99	2553.82
878.15	2764.76
878.32	2801.62
878.49	2756.57
878.65	2555.86
878.82	2719.70
878.98	2645.98
879.15	2818.00
879.32	2777.05
879.48	2707.41
879.65	2678.74
879.81	2719.70
879.98	2537.43
880.15	2613.21
880.31	2797.53
880.48	2562.01
880.64	2662.36
880.81	2758.61
880.97	2910.16
881.14	2871.25
881.31	2510.81
881.47	2740.18
881.64	2672.60
881.80	2521.05
881.97	2734.04
882.13	2625.50
882.30	2580.44
882.47	2605.02
882.63	2521.05
882.80	2471.90
882.96	2598.87
883.13	2899.92
883.29	2562.01
883.46	2605.02
883.62	3047.38
883.79	2695.13
883.95	2686.94
884.12	2512.86
884.29	2854.87
884.45	2705.37
884.62	2572.25
884.78	2516.95
884.95	2934.74
885.11	2592.73
885.28	2627.54
885.44	2541.53
885.61	2803.67
885.77	2842.58
885.94	2666.46
886.10	2611.16
886.27	2672.60
886.43	2998.23
886.60	2789.33
886.76	2613.21
886.93	2572.25
887.09	2752.47
887.26	2506.71
887.42	2596.82
887.59	2822.10
887.75	3080.14
887.92	2783.19
888.08	2668.50
888.25	2947.03
888.41	2844.63
888.58	2664.41
888.74	2478.04
888.91	2617.30
>>>>>End Processed Spectral Data<<<<<
