SpectraSuite Data File
++++++++++++++++++++++++++++++++++++
Date: Thu May 05 16:20:56 CEST 2016
User: root
Dark Spectrum Present: No
Reference Spectrum Present: No
Number of Sampled Component Spectra: 1
Spectrometers: USB4C02835
Integration Time (usec): 100000 (USB4C02835)
Spectra Averaged: 1 (USB4C02835)
Boxcar Smoothing: 0 (USB4C02835)
Correct for Electrical Dark: No (USB4C02835)
Strobe/Lamp Enabled: No (USB4C02835)
Correct for Detector Non-linearity: No (USB4C02835)
Correct for Stray Light: No (USB4C02835)
Number of Pixels in Processed Spectrum: 3648
>>>>>Begin Processed Spectral Data<<<<<
177.47	2017.25
177.69	2017.25
177.91	2017.25
178.13	2002.91
178.36	2082.78
178.58	2527.19
178.80	2744.28
179.02	2523.10
179.24	2598.87
179.46	2457.56
179.68	2551.77
179.90	2738.13
180.13	2803.67
180.35	2416.60
180.57	2471.90
180.79	2875.35
181.01	2766.81
181.23	2588.63
181.45	2625.50
181.67	2807.77
181.90	2873.30
182.12	2529.24
182.34	2494.43
182.56	2840.53
182.78	2781.14
183.00	2486.23
183.22	2506.71
183.44	2490.33
183.66	3180.50
183.89	2688.98
184.11	2543.58
184.33	2818.00
184.55	2906.07
184.77	2482.14
184.99	2506.71
185.21	2631.64
185.43	3117.01
185.65	2488.28
185.87	2478.04
186.10	3022.80
186.32	3123.15
186.54	2633.69
186.76	2568.15
186.98	2799.57
187.20	2734.04
187.42	2514.91
187.64	2514.91
187.86	2826.20
188.08	2801.62
188.30	2441.18
188.52	2596.82
188.75	2895.83
188.97	2934.74
189.19	2465.75
189.41	2488.28
189.63	2873.30
189.85	2701.27
190.07	2459.61
190.29	2285.53
190.51	2768.85
190.73	2510.81
190.95	2658.26
191.17	2578.39
191.39	2514.91
191.61	2666.46
191.84	2547.67
192.06	2564.06
192.28	2473.95
192.50	3123.15
192.72	2625.50
192.94	2523.10
193.16	2863.06
193.38	2844.63
193.60	2412.51
193.82	2568.15
194.04	2881.49
194.26	2828.24
194.48	2537.43
194.70	2545.63
194.92	2652.12
195.14	2824.15
195.36	2490.33
195.58	2670.55
195.80	2695.13
196.02	2650.07
196.24	2506.71
196.46	2566.10
196.69	2777.05
196.91	3063.76
197.13	2504.67
197.35	2543.58
197.57	2924.50
197.79	2820.05
198.01	2576.34
198.23	2523.10
198.45	2762.71
198.67	2519.00
198.89	2414.56
199.11	2650.07
199.33	2648.02
199.55	2471.90
199.77	2441.18
199.99	2719.70
200.21	2629.59
200.43	2748.37
200.65	2402.27
200.87	2361.31
201.09	2682.84
201.31	2672.60
201.53	2572.25
201.75	2580.44
201.97	2719.70
202.19	2750.42
202.41	2598.87
202.63	2656.22
202.85	2785.24
203.07	2750.42
203.29	2570.20
203.51	2447.32
203.73	2596.82
203.95	3186.64
204.17	2570.20
204.39	2557.91
204.61	2744.28
204.83	2607.06
205.05	2559.96
205.27	2547.67
205.49	3012.56
205.71	2738.13
205.93	2439.13
206.15	2410.46
206.37	2746.33
206.59	2645.98
206.81	2359.26
207.03	2445.27
207.25	2564.06
207.47	2854.87
207.69	2533.34
207.91	2731.99
208.13	2985.94
208.34	2662.36
208.56	2447.32
208.78	2506.71
209.00	2707.41
209.22	2746.33
209.44	2605.02
209.66	2478.04
209.88	2734.04
210.10	2672.60
210.32	2459.61
210.54	2645.98
210.76	2701.27
210.98	2871.25
211.20	2400.22
211.42	2664.41
211.64	2863.06
211.86	2750.42
212.08	2617.30
212.30	2621.40
212.52	2666.46
212.74	2781.14
212.96	2619.35
213.17	2617.30
213.39	2881.49
213.61	2949.08
213.83	2494.43
214.05	2398.17
214.27	2793.43
214.49	2545.63
214.71	2465.75
214.93	2645.98
215.15	2742.23
215.37	2789.33
215.59	2437.08
215.81	2553.82
216.03	2994.13
216.24	2725.85
216.46	2529.24
216.68	2623.45
216.90	2846.68
217.12	2867.16
217.34	2482.14
217.56	2529.24
217.78	2938.84
218.00	2869.20
218.22	2559.96
218.44	2582.49
218.66	2674.65
218.87	3039.19
219.09	2504.67
219.31	2529.24
219.53	2701.27
219.75	2627.54
219.97	2551.77
220.19	2576.34
220.41	2709.46
220.63	3014.61
220.85	2596.82
221.06	2504.67
221.28	2893.78
221.50	2818.00
221.72	2533.34
221.94	2414.56
222.16	2760.66
222.38	2916.31
222.60	2555.86
222.82	2549.72
223.03	2850.77
223.25	2658.26
223.47	2492.38
223.69	2742.23
223.91	2858.96
224.13	2703.32
224.35	2480.09
224.57	2637.78
224.78	2721.75
225.00	2475.99
225.22	2602.97
225.44	2492.38
225.66	2838.48
225.88	2668.50
226.10	2592.73
226.32	2555.86
226.53	2834.39
226.75	2566.10
226.97	2514.91
227.19	2549.72
227.41	2582.49
227.63	2660.31
227.85	2318.30
228.06	2508.76
228.28	2740.18
228.50	2838.48
228.72	2402.27
228.94	2506.71
229.16	2523.10
229.37	2551.77
229.59	2422.75
229.81	2686.94
230.03	2602.97
230.25	2547.67
230.47	2359.26
230.69	2459.61
230.90	2881.49
231.12	2645.98
231.34	2521.05
231.56	2531.29
231.78	2570.20
232.00	2666.46
232.21	2588.63
232.43	2557.91
232.65	2394.08
232.87	2824.15
233.09	2324.44
233.30	2471.90
233.52	2871.25
233.74	2715.61
233.96	2449.37
234.18	2633.69
234.40	2729.94
234.61	3090.38
234.83	2441.18
235.05	2488.28
235.27	3137.49
235.49	2838.48
235.70	2443.23
235.92	2559.96
236.14	2781.14
236.36	3035.09
236.58	2441.18
236.79	2627.54
237.01	2678.74
237.23	2727.89
237.45	2721.75
237.67	2590.68
237.88	2760.66
238.10	2963.41
238.32	2506.71
238.54	2490.33
238.76	2682.84
238.97	2602.97
239.19	2445.27
239.41	2559.96
239.63	2838.48
239.85	2637.78
240.06	2641.88
240.28	2492.38
240.50	2807.77
240.72	2682.84
240.93	2480.09
241.15	2664.41
241.37	2688.98
241.59	2912.21
241.81	2504.67
242.02	2559.96
242.24	2795.48
242.46	2805.72
242.68	2416.60
242.89	2457.56
243.11	2910.16
243.33	2746.33
243.55	2514.91
243.76	2490.33
243.98	2621.40
244.20	2699.22
244.42	2551.77
244.64	2478.04
244.85	2510.81
245.07	2576.34
245.29	2523.10
245.51	2574.30
245.72	2748.37
245.94	2924.50
246.16	2514.91
246.38	2506.71
246.59	2621.40
246.81	2635.74
247.03	2387.93
247.24	2414.56
247.46	2684.89
247.68	2756.57
247.90	2383.84
248.11	2455.51
248.33	2863.06
248.55	2754.52
248.77	2605.02
248.98	2592.73
249.20	2992.08
249.42	2725.85
249.64	2447.32
249.85	2584.54
250.07	2586.58
250.29	2799.57
250.50	2570.20
250.72	2473.95
250.94	2744.28
251.16	3088.34
251.37	2600.92
251.59	2539.48
251.81	2824.15
252.02	2914.26
252.24	2512.86
252.46	2621.40
252.68	2617.30
252.89	2645.98
253.11	2375.64
253.33	2693.08
253.54	2920.40
253.76	2570.20
253.98	2510.81
254.20	2471.90
254.41	2535.39
254.63	2611.16
254.85	2377.69
255.06	2557.91
255.28	2789.33
255.50	2629.59
255.71	2478.04
255.93	2367.45
256.15	2674.65
256.36	2840.53
256.58	2449.37
256.80	2475.99
257.02	2717.65
257.23	2588.63
257.45	2557.91
257.67	2570.20
257.88	2650.07
258.10	2834.39
258.32	2498.52
258.53	2547.67
258.75	2899.92
258.97	2711.51
259.18	2492.38
259.40	2504.67
259.62	2963.41
259.83	2891.73
260.05	2568.15
260.27	3114.96
260.48	2834.39
260.70	2590.68
260.92	2443.23
261.13	2549.72
261.35	2772.95
261.57	2740.18
261.78	2412.51
262.00	2422.75
262.22	2682.84
262.43	2596.82
262.65	2514.91
262.86	2525.15
263.08	3104.72
263.30	2752.47
263.51	2394.08
263.73	2482.14
263.95	2875.35
264.16	2570.20
264.38	2424.80
264.60	2392.03
264.81	2744.28
265.03	2881.49
265.25	2750.42
265.46	2478.04
265.68	2934.74
265.89	2813.91
266.11	2457.56
266.33	2533.34
266.54	2889.68
266.76	2820.05
266.98	2617.30
267.19	2674.65
267.41	2873.30
267.62	2674.65
267.84	2355.16
268.06	2672.60
268.27	2772.95
268.49	2914.26
268.70	2559.96
268.92	2557.91
269.14	2613.21
269.35	2555.86
269.57	2596.82
269.79	2629.59
270.00	2602.97
270.22	2918.36
270.43	2412.51
270.65	2389.98
270.87	2785.24
271.08	2799.57
271.30	2648.02
271.51	2527.19
271.73	2836.44
271.95	2887.64
272.16	2475.99
272.38	2664.41
272.59	2641.88
272.81	2842.58
273.02	2596.82
273.24	2510.81
273.46	2977.75
273.67	2568.15
273.89	2443.23
274.10	2465.75
274.32	2856.92
274.54	2746.33
274.75	2600.92
274.97	2584.54
275.18	2836.44
275.40	2791.38
275.61	2572.25
275.83	2621.40
276.05	2562.01
276.26	2691.03
276.48	2594.78
276.69	2576.34
276.91	2588.63
277.12	2928.60
277.34	2709.46
277.55	2791.38
277.77	2734.04
277.99	2731.99
278.20	2629.59
278.42	2521.05
278.63	2527.19
278.85	2598.87
279.06	2533.34
279.28	2719.70
279.49	2916.31
279.71	2772.95
279.93	2713.56
280.14	2631.64
280.36	2527.19
280.57	2834.39
280.79	2686.94
281.00	2500.57
281.22	2586.58
281.43	2818.00
281.65	2412.51
281.86	2525.15
282.08	2775.00
282.29	3037.14
282.51	2535.39
282.73	2449.37
282.94	2502.62
283.16	2879.44
283.37	2777.05
283.59	2674.65
283.80	2764.76
284.02	2766.81
284.23	2623.45
284.45	2539.48
284.66	2568.15
284.88	2580.44
285.09	2648.02
285.31	2715.61
285.52	2807.77
285.74	2486.23
285.95	2731.99
286.17	2652.12
286.38	2883.54
286.60	2605.02
286.81	2625.50
287.03	2568.15
287.24	2701.27
287.46	2856.92
287.67	2643.93
287.89	2836.44
288.10	2652.12
288.32	2727.89
288.53	2772.95
288.75	2731.99
288.96	2725.85
289.18	2633.69
289.39	2658.26
289.61	2641.88
289.82	3018.71
290.04	2959.31
290.25	2469.85
290.47	2633.69
290.68	2707.41
290.90	2889.68
291.11	2455.51
291.33	2734.04
291.54	2619.35
291.76	2654.17
291.97	2729.94
292.18	2662.36
292.40	2633.69
292.61	2621.40
292.83	2928.60
293.04	2713.56
293.26	2818.00
293.47	2676.70
293.69	2576.34
293.90	2519.00
294.12	2897.88
294.33	2660.31
294.55	2572.25
294.76	2791.38
294.97	2947.03
295.19	3153.87
295.40	2625.50
295.62	2662.36
295.83	2809.81
296.05	2676.70
296.26	2842.58
296.48	2506.71
296.69	2668.50
296.90	2678.74
297.12	2777.05
297.33	2758.61
297.55	2699.22
297.76	2707.41
297.98	2678.74
298.19	2723.80
298.41	2709.46
298.62	2588.63
298.83	2748.37
299.05	2609.11
299.26	2695.13
299.48	2525.15
299.69	2682.84
299.90	2600.92
300.12	2582.49
300.33	2764.76
300.55	2686.94
300.76	2613.21
300.98	2592.73
301.19	2815.96
301.40	2584.54
301.62	2637.78
301.83	2797.53
302.05	2715.61
302.26	2527.19
302.47	2697.17
302.69	2535.39
302.90	2729.94
303.12	2439.13
303.33	2752.47
303.54	3004.37
303.76	2666.46
303.97	2660.31
304.19	2754.52
304.40	2609.11
304.61	2797.53
304.83	2721.75
305.04	2670.55
305.26	2858.96
305.47	2637.78
305.68	2625.50
305.90	2455.51
306.11	2965.46
306.33	2629.59
306.54	2555.86
306.75	2576.34
306.97	2555.86
307.18	2613.21
307.39	2543.58
307.61	2643.93
307.82	2607.06
308.04	2834.39
308.25	2547.67
308.46	2701.27
308.68	2682.84
308.89	2723.80
309.10	2783.19
309.32	2674.65
309.53	2715.61
309.74	2787.29
309.96	2572.25
310.17	2734.04
310.39	2656.22
310.60	2801.62
310.81	2652.12
311.03	2502.62
311.24	2809.81
311.45	2791.38
311.67	2795.48
311.88	2670.55
312.09	2602.97
312.31	2633.69
312.52	2590.68
312.73	2553.82
312.95	2475.99
313.16	2652.12
313.37	2772.95
313.59	2695.13
313.80	2920.40
314.01	2914.26
314.23	2578.39
314.44	2576.34
314.65	2557.91
314.87	2613.21
315.08	2617.30
315.29	2586.58
315.51	2615.26
315.72	2523.10
315.93	2744.28
316.15	2656.22
316.36	2643.93
316.57	2678.74
316.79	2625.50
317.00	2531.29
317.21	2797.53
317.43	2617.30
317.64	2648.02
317.85	2588.63
318.07	2615.26
318.28	2615.26
318.49	2678.74
318.70	2875.35
318.92	2807.77
319.13	2895.83
319.34	2848.72
319.56	2707.41
319.77	2848.72
319.98	2879.44
320.20	2818.00
320.41	2684.89
320.62	2910.16
320.83	2541.53
321.05	2834.39
321.26	2594.78
321.47	2713.56
321.69	2930.64
321.90	2467.80
322.11	2559.96
322.32	2791.38
322.54	2928.60
322.75	2596.82
322.96	3131.34
323.18	2512.86
323.39	2498.52
323.60	2486.23
323.81	2709.46
324.03	2574.30
324.24	2641.88
324.45	2719.70
324.66	2643.93
324.88	2815.96
325.09	2979.79
325.30	2670.55
325.52	2541.53
325.73	2725.85
325.94	2580.44
326.15	2478.04
326.37	2453.47
326.58	2899.92
326.79	2996.18
327.00	2547.67
327.22	2570.20
327.43	2625.50
327.64	2564.06
327.85	2742.23
328.07	2658.26
328.28	3006.42
328.49	2621.40
328.70	2635.74
328.92	2648.02
329.13	2637.78
329.34	2768.85
329.55	2848.72
329.76	2785.24
329.98	2725.85
330.19	2992.08
330.40	2752.47
330.61	2729.94
330.83	2813.91
331.04	2600.92
331.25	2715.61
331.46	2623.45
331.68	2482.14
331.89	2885.59
332.10	2662.36
332.31	2484.19
332.52	2701.27
332.74	2918.36
332.95	2451.42
333.16	2602.97
333.37	2844.63
333.58	2645.98
333.80	2666.46
334.01	2424.80
334.22	2654.17
334.43	2705.37
334.64	2519.00
334.86	2500.57
335.07	2568.15
335.28	2983.89
335.49	2500.57
335.70	2699.22
335.92	2922.45
336.13	3022.80
336.34	2643.93
336.55	2637.78
336.76	2734.04
336.98	2424.80
337.19	2674.65
337.40	2672.60
337.61	3071.95
337.82	2691.03
338.04	2674.65
338.25	2457.56
338.46	2717.65
338.67	2670.55
338.88	2490.33
339.09	2557.91
339.31	2609.11
339.52	2580.44
339.73	2547.67
339.94	2623.45
340.15	2805.72
340.36	2559.96
340.58	2688.98
340.79	2471.90
341.00	2875.35
341.21	2594.78
341.42	2768.85
341.63	2645.98
341.85	2891.73
342.06	2779.09
342.27	2508.76
342.48	2799.57
342.69	2576.34
342.90	2813.91
343.12	2822.10
343.33	2549.72
343.54	2887.64
343.75	2926.55
343.96	2670.55
344.17	2537.43
344.38	2709.46
344.60	2627.54
344.81	2494.43
345.02	2674.65
345.23	2928.60
345.44	3033.04
345.65	2719.70
345.86	2641.88
346.07	2775.00
346.29	2594.78
346.50	2715.61
346.71	2684.89
346.92	2871.25
347.13	3014.61
347.34	2691.03
347.55	2482.14
347.76	2731.99
347.98	2533.34
348.19	2615.26
348.40	2719.70
348.61	2607.06
348.82	2936.79
349.03	2697.17
349.24	2545.63
349.45	2990.03
349.66	2422.75
349.88	2596.82
350.09	2557.91
350.30	2934.74
350.51	2924.50
350.72	2693.08
350.93	2637.78
351.14	2719.70
351.35	2781.14
351.56	2547.67
351.77	2639.83
351.99	2850.77
352.20	2908.12
352.41	2725.85
352.62	2379.74
352.83	2676.70
353.04	2758.61
353.25	2519.00
353.46	2727.89
353.67	2901.97
353.88	2428.89
354.09	2609.11
354.30	2645.98
354.52	2791.38
354.73	2688.98
354.94	2553.82
355.15	2678.74
355.36	3063.76
355.57	2633.69
355.78	2582.49
355.99	2662.36
356.20	2631.64
356.41	2895.83
356.62	2643.93
356.83	2684.89
357.04	2930.64
357.25	2480.09
357.46	2592.73
357.68	2475.99
357.89	2631.64
358.10	2723.80
358.31	2605.02
358.52	2590.68
358.73	2629.59
358.94	2592.73
359.15	2549.72
359.36	2713.56
359.57	2754.52
359.78	2693.08
359.99	2711.51
360.20	2473.95
360.41	2688.98
360.62	2834.39
360.83	2633.69
361.04	2600.92
361.25	2807.77
361.46	2996.18
361.67	2736.09
361.88	2654.17
362.09	2815.96
362.30	2734.04
362.51	2535.39
362.72	2641.88
362.93	2785.24
363.14	2797.53
363.35	2611.16
363.56	2514.91
363.78	2865.11
363.99	2881.49
364.20	2596.82
364.41	2707.41
364.62	2967.51
364.83	2736.09
365.04	2572.25
365.25	2619.35
365.46	3026.90
365.67	2631.64
365.88	2654.17
366.09	2639.83
366.30	2619.35
366.51	2709.46
366.72	2543.58
366.93	2607.06
367.14	2684.89
367.35	2969.55
367.56	2619.35
367.77	2723.80
367.98	2762.71
368.18	2652.12
368.39	2709.46
368.60	2574.30
368.81	2867.16
369.02	2725.85
369.23	2658.26
369.44	2465.75
369.65	2584.54
369.86	2781.14
370.07	2719.70
370.28	2596.82
370.49	2756.57
370.70	2807.77
370.91	2531.29
371.12	2490.33
371.33	2887.64
371.54	2648.02
371.75	2725.85
371.96	2342.88
372.17	2752.47
372.38	2631.64
372.59	2643.93
372.80	2551.77
373.01	2701.27
373.22	2654.17
373.43	2584.54
373.64	2521.05
373.85	2934.74
374.06	2981.84
374.26	2746.33
374.47	2709.46
374.68	2918.36
374.89	2768.85
375.10	2562.01
375.31	2678.74
375.52	2731.99
375.73	2793.43
375.94	2482.14
376.15	2705.37
376.36	2609.11
376.57	2637.78
376.78	2645.98
376.99	2586.58
377.20	2959.31
377.40	2670.55
377.61	2877.40
377.82	2596.82
378.03	2987.99
378.24	2863.06
378.45	2719.70
378.66	2641.88
378.87	2469.85
379.08	2486.23
379.29	2539.48
379.50	2799.57
379.71	2686.94
379.91	2858.96
380.12	2680.79
380.33	2672.60
380.54	2684.89
380.75	2736.09
380.96	2641.88
381.17	2707.41
381.38	2748.37
381.59	2729.94
381.80	2621.40
382.00	2830.29
382.21	2764.76
382.42	3000.27
382.63	2865.11
382.84	2729.94
383.05	2822.10
383.26	2936.79
383.47	2635.74
383.68	2707.41
383.88	2844.63
384.09	2719.70
384.30	2818.00
384.51	2736.09
384.72	2652.12
384.93	2514.91
385.14	2619.35
385.35	2893.78
385.55	2478.04
385.76	2869.20
385.97	2637.78
386.18	2502.62
386.39	2537.43
386.60	2703.32
386.81	2627.54
387.02	2568.15
387.22	2537.43
387.43	2863.06
387.64	2645.98
387.85	2912.21
388.06	2818.00
388.27	4005.83
388.48	7610.25
388.68	11061.08
388.89	13428.53
389.10	14550.82
389.31	13758.25
389.52	10909.53
389.73	9559.92
389.93	8669.05
390.14	7901.06
390.35	7083.92
390.56	6438.81
390.77	5269.42
390.98	4085.70
391.18	3405.77
391.39	3180.50
391.60	2650.07
391.81	2799.57
392.02	2643.93
392.23	3063.76
392.43	2686.94
392.64	2777.05
392.85	2559.96
393.06	2985.94
393.27	2699.22
393.47	2584.54
393.68	2697.17
393.89	2559.96
394.10	2924.50
394.31	2613.21
394.52	2643.93
394.72	2668.50
394.93	2865.11
395.14	2562.01
395.35	2691.03
395.56	2619.35
395.76	2713.56
395.97	2605.02
396.18	2746.33
396.39	2834.39
396.60	3282.89
396.80	2957.27
397.01	2854.87
397.22	2834.39
397.43	2865.11
397.64	2605.02
397.84	2787.29
398.05	3104.72
398.26	2674.65
398.47	2768.85
398.67	2856.92
398.88	2742.23
399.09	2836.44
399.30	2588.63
399.51	2736.09
399.71	2668.50
399.92	2670.55
400.13	2684.89
400.34	2623.45
400.54	2777.05
400.75	2861.01
400.96	2731.99
401.17	2895.83
401.37	2756.57
401.58	2637.78
401.79	2641.88
402.00	2736.09
402.21	3112.91
402.41	2973.65
402.62	2914.26
402.83	3043.28
403.04	3012.56
403.24	3370.96
403.45	2752.47
403.66	2914.26
403.87	2957.27
404.07	3030.99
404.28	2889.68
404.49	2875.35
404.70	2840.53
404.90	2861.01
405.11	2660.31
405.32	2742.23
405.52	2555.86
405.73	2609.11
405.94	2557.91
406.15	2654.17
406.35	2830.29
406.56	2865.11
406.77	2615.26
406.98	2672.60
407.18	2562.01
407.39	3022.80
407.60	2598.87
407.80	2637.78
408.01	2594.78
408.22	2842.58
408.43	2580.44
408.63	2787.29
408.84	2840.53
409.05	2809.81
409.25	2562.01
409.46	2602.97
409.67	2635.74
409.88	2600.92
410.08	2727.89
410.29	2592.73
410.50	2799.57
410.70	2707.41
410.91	2539.48
411.12	2684.89
411.32	2707.41
411.53	2580.44
411.74	2688.98
411.95	2740.18
412.15	2803.67
412.36	2772.95
412.57	2807.77
412.77	2838.48
412.98	2742.23
413.19	2768.85
413.39	2750.42
413.60	2674.65
413.81	2922.45
414.01	2541.53
414.22	2762.71
414.43	2668.50
414.63	2621.40
414.84	2840.53
415.05	2660.31
415.25	2551.77
415.46	2811.86
415.67	2596.82
415.87	2721.75
416.08	2643.93
416.29	2736.09
416.49	2783.19
416.70	2727.89
416.91	2617.30
417.11	2756.57
417.32	2904.02
417.53	2789.33
417.73	2789.33
417.94	2746.33
418.15	2772.95
418.35	2666.46
418.56	2652.12
418.77	3010.51
418.97	2748.37
419.18	2686.94
419.38	2398.17
419.59	2635.74
419.80	2930.64
420.00	2564.06
420.21	2670.55
420.42	2852.82
420.62	2830.29
420.83	2625.50
421.04	2650.07
421.24	2711.51
421.45	2820.05
421.65	2607.06
421.86	2670.55
422.07	2858.96
422.27	2838.48
422.48	2590.68
422.69	2531.29
422.89	2789.33
423.10	2682.84
423.30	2523.10
423.51	2666.46
423.72	2729.94
423.92	2791.38
424.13	2613.21
424.33	2727.89
424.54	2875.35
424.75	2680.79
424.95	2863.06
425.16	2652.12
425.36	2713.56
425.57	2871.25
425.78	2648.02
425.98	2779.09
426.19	2678.74
426.39	2568.15
426.60	2742.23
426.81	2801.62
427.01	2799.57
427.22	2559.96
427.42	2488.28
427.63	2598.87
427.83	2838.48
428.04	2996.18
428.25	2766.81
428.45	2785.24
428.66	2858.96
428.86	2752.47
429.07	2631.64
429.28	2674.65
429.48	2764.76
429.69	2566.10
429.89	2652.12
430.10	2537.43
430.30	2828.24
430.51	2897.88
430.71	2523.10
430.92	2643.93
431.13	2643.93
431.33	2791.38
431.54	2723.80
431.74	2858.96
431.95	3043.28
432.15	2553.82
432.36	2695.13
432.56	2711.51
432.77	3018.71
432.98	2912.21
433.18	2682.84
433.39	2613.21
433.59	2697.17
433.80	2967.51
434.00	2836.44
434.21	2584.54
434.41	2672.60
434.62	3155.92
434.82	2555.86
435.03	2545.63
435.23	2811.86
435.44	2471.90
435.64	2543.58
435.85	2731.99
436.06	2932.69
436.26	2842.58
436.47	2617.30
436.67	2637.78
436.88	2586.58
437.08	2883.54
437.29	2785.24
437.49	2709.46
437.70	2928.60
437.90	2731.99
438.11	2887.64
438.31	2666.46
438.52	3043.28
438.72	2963.41
438.93	2996.18
439.13	2674.65
439.34	2914.26
439.54	2680.79
439.75	2699.22
439.95	2731.99
440.16	2602.97
440.36	2727.89
440.57	2684.89
440.77	2697.17
440.98	2723.80
441.18	2785.24
441.39	2627.54
441.59	2527.19
441.80	2987.99
442.00	2783.19
442.21	2711.51
442.41	2533.34
442.62	2891.73
442.82	2617.30
443.02	2652.12
443.23	2736.09
443.43	2637.78
443.64	2879.44
443.84	2594.78
444.05	2818.00
444.25	2768.85
444.46	2709.46
444.66	2574.30
444.87	2822.10
445.07	2490.33
445.28	2734.04
445.48	2785.24
445.69	2723.80
445.89	3102.67
446.09	2709.46
446.30	2951.12
446.50	3041.23
446.71	4581.31
446.91	5664.68
447.12	6518.68
447.32	6922.13
447.53	6573.98
447.73	5447.60
447.93	4790.20
448.14	4528.06
448.34	4456.38
448.55	3930.05
448.75	3946.44
448.96	3575.75
449.16	3375.05
449.36	3289.04
449.57	3039.19
449.77	2693.08
449.98	2652.12
450.18	2830.29
450.39	2662.36
450.59	2852.82
450.79	2711.51
451.00	2682.84
451.20	2709.46
451.41	2705.37
451.61	2801.62
451.81	2688.98
452.02	2645.98
452.22	2572.25
452.43	2656.22
452.63	2553.82
452.84	2588.63
453.04	2594.78
453.24	2768.85
453.45	2643.93
453.65	2715.61
453.86	2713.56
454.06	2750.42
454.26	2764.76
454.47	2557.91
454.67	2818.00
454.87	2809.81
455.08	2674.65
455.28	2856.92
455.49	2703.32
455.69	2662.36
455.89	3014.61
456.10	2750.42
456.30	2584.54
456.51	2815.96
456.71	2766.81
456.91	2736.09
457.12	2645.98
457.32	2875.35
457.52	2482.14
457.73	2731.99
457.93	2842.58
458.14	2650.07
458.34	2482.14
458.54	2648.02
458.75	2623.45
458.95	2867.16
459.15	2791.38
459.36	2691.03
459.56	2686.94
459.76	3047.38
459.97	2731.99
460.17	2678.74
460.37	2709.46
460.58	2748.37
460.78	2871.25
460.99	2654.17
461.19	2684.89
461.39	2656.22
461.60	2631.64
461.80	2717.65
462.00	2572.25
462.21	2768.85
462.41	2660.31
462.61	2582.49
462.82	2514.91
463.02	2871.25
463.22	2688.98
463.43	2754.52
463.63	2656.22
463.83	2912.21
464.04	2850.77
464.24	2658.26
464.44	2609.11
464.64	2799.57
464.85	2873.30
465.05	2770.90
465.25	2619.35
465.46	2600.92
465.66	2791.38
465.86	2688.98
466.07	2658.26
466.27	2719.70
466.47	2543.58
466.68	2457.56
466.88	2830.29
467.08	2867.16
467.29	2871.25
467.49	2742.23
467.69	2760.66
467.89	2836.44
468.10	2701.27
468.30	2703.32
468.50	2701.27
468.71	2914.26
468.91	2547.67
469.11	2824.15
469.31	2670.55
469.52	2625.50
469.72	3035.09
469.92	2846.68
470.13	2658.26
470.33	2731.99
470.53	2858.96
470.73	2965.46
470.94	3360.72
471.14	3383.24
471.34	3901.38
471.54	3672.01
471.75	3315.66
471.95	3100.62
472.15	3063.76
472.36	3162.06
472.56	3045.33
472.76	3192.78
472.96	3047.38
473.17	2922.45
473.37	2777.05
473.57	2807.77
473.77	2858.96
473.98	2750.42
474.18	2523.10
474.38	3252.17
474.58	2617.30
474.79	2568.15
474.99	2756.57
475.19	2873.30
475.39	2578.39
475.60	2691.03
475.80	2699.22
476.00	2695.13
476.20	2645.98
476.41	2674.65
476.61	2670.55
476.81	2926.55
477.01	2607.06
477.21	2867.16
477.42	2672.60
477.62	2650.07
477.82	2834.39
478.02	2586.58
478.23	2750.42
478.43	2670.55
478.63	2641.88
478.83	2668.50
479.03	2619.35
479.24	2969.55
479.44	3088.34
479.64	2660.31
479.84	2455.51
480.04	2629.59
480.25	2783.19
480.45	2555.86
480.65	2598.87
480.85	2979.79
481.06	2686.94
481.26	2736.09
481.46	2617.30
481.66	2813.91
481.86	2572.25
482.06	2822.10
482.27	2619.35
482.47	2688.98
482.67	2797.53
482.87	2650.07
483.07	2760.66
483.28	2586.58
483.48	2578.39
483.68	2645.98
483.88	2529.24
484.08	2455.51
484.29	2557.91
484.49	2682.84
484.69	2523.10
484.89	2871.25
485.09	2858.96
485.29	2748.37
485.50	2777.05
485.70	2686.94
485.90	2961.36
486.10	2719.70
486.30	2643.93
486.50	2969.55
486.71	2785.24
486.91	2727.89
487.11	2752.47
487.31	2594.78
487.51	2832.34
487.71	2600.92
487.91	2588.63
488.12	2568.15
488.32	2416.60
488.52	2598.87
488.72	2396.12
488.92	2670.55
489.12	2914.26
489.32	2744.28
489.53	2656.22
489.73	2572.25
489.93	2981.84
490.13	2686.94
490.33	2428.89
490.53	2764.76
490.73	2967.51
490.94	2545.63
491.14	2807.77
491.34	2777.05
491.54	2854.87
491.74	3506.12
491.94	4155.33
492.14	4497.34
492.34	4388.80
492.54	4167.62
492.75	3565.51
492.95	3600.33
493.15	3428.30
493.35	3293.13
493.55	3209.17
493.75	3028.95
493.95	3227.60
494.15	2869.20
494.35	2770.90
494.56	2748.37
494.76	2641.88
494.96	2740.18
495.16	2639.83
495.36	2783.19
495.56	2820.05
495.76	2709.46
495.96	2648.02
496.16	2576.34
496.36	3086.29
496.56	2674.65
496.77	2760.66
496.97	2744.28
497.17	2936.79
497.37	2492.38
497.57	2764.76
497.77	2711.51
497.97	2582.49
498.17	2719.70
498.37	2600.92
498.57	2723.80
498.77	2633.69
498.97	2865.11
499.17	2901.97
499.38	2695.13
499.58	2789.33
499.78	2770.90
499.98	2813.91
500.18	2672.60
500.38	2668.50
500.58	2865.11
500.78	3166.16
500.98	5373.87
501.18	7290.77
501.38	8783.74
501.58	9625.45
501.78	9496.43
501.98	7663.50
502.18	6578.08
502.38	5691.31
502.58	5318.57
502.78	4818.87
502.98	4595.64
503.18	4308.93
503.38	4054.98
503.59	3493.83
503.79	3481.55
503.99	3293.13
504.19	3119.06
504.39	3192.78
504.59	3137.49
504.79	3035.09
504.99	3217.36
505.19	2990.03
505.39	2846.68
505.59	3041.23
505.79	3114.96
505.99	2842.58
506.19	2754.52
506.39	2828.24
506.59	2666.46
506.79	2645.98
506.99	2840.53
507.19	2695.13
507.39	2772.95
507.59	2656.22
507.79	2580.44
507.99	2580.44
508.19	2727.89
508.39	2688.98
508.59	2623.45
508.79	2772.95
508.99	3055.57
509.19	2701.27
509.39	2625.50
509.59	2629.59
509.79	2607.06
509.99	2697.17
510.19	2846.68
510.39	2781.14
510.59	2756.57
510.79	2639.83
510.99	2570.20
511.19	2605.02
511.39	2944.98
511.59	2809.81
511.79	2887.64
511.99	2697.17
512.19	2934.74
512.38	2686.94
512.58	2570.20
512.78	2533.34
512.98	2889.68
513.18	2887.64
513.38	2527.19
513.58	2713.56
513.78	2686.94
513.98	2793.43
514.18	2594.78
514.38	2625.50
514.58	2758.61
514.78	2629.59
514.98	2570.20
515.18	2637.78
515.38	2562.01
515.58	2981.84
515.78	2594.78
515.98	2639.83
516.18	2822.10
516.38	2783.19
516.57	2611.16
516.77	2693.08
516.97	2775.00
517.17	2658.26
517.37	2465.75
517.57	2838.48
517.77	2758.61
517.97	2609.11
518.17	2781.14
518.37	2570.20
518.57	2703.32
518.77	2631.64
518.97	2582.49
519.16	2701.27
519.36	2889.68
519.56	2697.17
519.76	2654.17
519.96	2637.78
520.16	2953.17
520.36	2557.91
520.56	2762.71
520.76	2648.02
520.96	2686.94
521.16	2871.25
521.35	2828.24
521.55	2834.39
521.75	2715.61
521.95	2705.37
522.15	2576.34
522.35	2461.66
522.55	2596.82
522.75	2820.05
522.95	2588.63
523.14	2547.67
523.34	2752.47
523.54	2658.26
523.74	2832.34
523.94	2738.13
524.14	2555.86
524.34	2744.28
524.54	2758.61
524.73	2623.45
524.93	2697.17
525.13	2772.95
525.33	2482.14
525.53	2942.93
525.73	2867.16
525.93	2701.27
526.13	2676.70
526.32	2668.50
526.52	2916.31
526.72	2924.50
526.92	2686.94
527.12	2580.44
527.32	2506.71
527.52	2754.52
527.71	2678.74
527.91	2727.89
528.11	2645.98
528.31	2815.96
528.51	2576.34
528.71	2789.33
528.90	2809.81
529.10	2811.86
529.30	2770.90
529.50	2439.13
529.70	2764.76
529.90	2666.46
530.09	2688.98
530.29	2492.38
530.49	2580.44
530.69	3172.30
530.89	2695.13
531.09	2766.81
531.28	2703.32
531.48	2883.54
531.68	2637.78
531.88	2695.13
532.08	2891.73
532.28	2693.08
532.47	2715.61
532.67	2723.80
532.87	2836.44
533.07	2570.20
533.27	2707.41
533.46	2658.26
533.66	2750.42
533.86	2744.28
534.06	2727.89
534.26	2662.36
534.45	2676.70
534.65	2818.00
534.85	2723.80
535.05	2547.67
535.25	2766.81
535.44	2537.43
535.64	2664.41
535.84	2674.65
536.04	2625.50
536.24	2662.36
536.43	2652.12
536.63	2639.83
536.83	2703.32
537.03	2777.05
537.22	2480.09
537.42	2482.14
537.62	2801.62
537.82	2629.59
538.02	2795.48
538.21	2766.81
538.41	3145.68
538.61	2758.61
538.81	2654.17
539.00	2795.48
539.20	2498.52
539.40	2748.37
539.60	2723.80
539.79	2797.53
539.99	2719.70
540.19	2650.07
540.39	2711.51
540.58	2719.70
540.78	2940.88
540.98	2723.80
541.18	2777.05
541.37	2809.81
541.57	2678.74
541.77	2820.05
541.97	2555.86
542.16	2449.37
542.36	2727.89
542.56	2664.41
542.76	2906.07
542.95	2734.04
543.15	2758.61
543.35	2865.11
543.54	2619.35
543.74	2619.35
543.94	2850.77
544.14	2664.41
544.33	2650.07
544.53	2629.59
544.73	2725.85
544.93	2678.74
545.12	2697.17
545.32	2627.54
545.52	2639.83
545.71	2564.06
545.91	2670.55
546.11	2650.07
546.30	2537.43
546.50	2750.42
546.70	2725.85
546.90	2762.71
547.09	2535.39
547.29	2738.13
547.49	2818.00
547.68	2600.92
547.88	2617.30
548.08	2813.91
548.27	3100.62
548.47	2615.26
548.67	2619.35
548.87	2768.85
549.06	2629.59
549.26	2662.36
549.46	2777.05
549.65	2627.54
549.85	2723.80
550.05	2674.65
550.24	2568.15
550.44	2828.24
550.64	2713.56
550.83	2707.41
551.03	2934.74
551.23	2832.34
551.42	2688.98
551.62	2633.69
551.82	2742.23
552.01	2674.65
552.21	2789.33
552.41	2688.98
552.60	2873.30
552.80	2740.18
553.00	2570.20
553.19	2650.07
553.39	2979.79
553.59	2564.06
553.78	2758.61
553.98	2625.50
554.17	2572.25
554.37	2762.71
554.57	2680.79
554.76	2564.06
554.96	2656.22
555.16	2729.94
555.35	2750.42
555.55	2744.28
555.75	2854.87
555.94	2824.15
556.14	2465.75
556.33	2688.98
556.53	2664.41
556.73	2715.61
556.92	2744.28
557.12	2666.46
557.32	3014.61
557.51	2863.06
557.71	2744.28
557.90	2803.67
558.10	2955.22
558.30	2645.98
558.49	2705.37
558.69	2605.02
558.88	2762.71
559.08	2705.37
559.28	2584.54
559.47	2719.70
559.67	2811.86
559.86	3086.29
560.06	2635.74
560.26	2670.55
560.45	2742.23
560.65	2693.08
560.84	2871.25
561.04	2533.34
561.24	2797.53
561.43	2586.58
561.63	2922.45
561.82	2744.28
562.02	2885.59
562.22	2605.02
562.41	2580.44
562.61	2588.63
562.80	2660.31
563.00	3071.95
563.19	2686.94
563.39	2664.41
563.59	2879.44
563.78	2613.21
563.98	2486.23
564.17	2623.45
564.37	2486.23
564.56	2691.03
564.76	2457.56
564.96	2779.09
565.15	2805.72
565.35	3112.91
565.54	2613.21
565.74	2727.89
565.93	2815.96
566.13	2738.13
566.32	2727.89
566.52	2791.38
566.71	2744.28
566.91	2938.84
567.11	2727.89
567.30	2605.02
567.50	2795.48
567.69	2813.91
567.89	2645.98
568.08	2510.81
568.28	2752.47
568.47	2576.34
568.67	2699.22
568.86	2607.06
569.06	2818.00
569.25	2750.42
569.45	2537.43
569.64	2584.54
569.84	2668.50
570.04	2770.90
570.23	2627.54
570.43	2611.16
570.62	2713.56
570.82	2910.16
571.01	2551.77
571.21	2650.07
571.40	2545.63
571.60	2844.63
571.79	2686.94
571.99	2721.75
572.18	2641.88
572.38	2830.29
572.57	2586.58
572.77	2740.18
572.96	3051.47
573.16	2701.27
573.35	2627.54
573.55	2824.15
573.74	2842.58
573.94	2660.31
574.13	2629.59
574.33	2869.20
574.52	2826.20
574.71	2799.57
574.91	2645.98
575.10	2502.62
575.30	2643.93
575.49	2631.64
575.69	2594.78
575.88	2729.94
576.08	2727.89
576.27	2934.74
576.47	2619.35
576.66	2662.36
576.86	2867.16
577.05	2803.67
577.25	2672.60
577.44	2863.06
577.64	2701.27
577.83	2899.92
578.02	2656.22
578.22	2807.77
578.41	3037.14
578.61	2676.70
578.80	2576.34
579.00	2695.13
579.19	2807.77
579.39	2818.00
579.58	2760.66
579.77	2635.74
579.97	2863.06
580.16	2942.93
580.36	2809.81
580.55	2768.85
580.75	2803.67
580.94	2744.28
581.13	2887.64
581.33	2932.69
581.52	2693.08
581.72	3104.72
581.91	2920.40
582.11	2645.98
582.30	2910.16
582.49	2748.37
582.69	2957.27
582.88	2723.80
583.08	2760.66
583.27	2883.54
583.47	2727.89
583.66	2650.07
583.85	2625.50
584.05	2727.89
584.24	2762.71
584.44	2746.33
584.63	2883.54
584.82	2881.49
585.02	2906.07
585.21	2820.05
585.41	2879.44
585.60	2832.34
585.79	3006.42
585.99	2975.70
586.18	2729.94
586.37	3487.69
586.57	5371.82
586.76	16070.41
586.96	35278.31
587.15	49052.95
587.34	57341.08
587.54	61645.91
587.73	55325.88
587.93	39140.78
588.12	29349.44
588.31	24053.39
588.51	21257.92
588.70	19472.09
588.89	17352.44
589.09	14593.83
589.28	12627.78
589.47	9858.92
589.67	7622.54
589.86	5885.86
590.06	4501.44
590.25	3983.30
590.44	3442.64
590.64	3049.43
590.83	2990.03
591.02	2908.12
591.22	2658.26
591.41	2781.14
591.60	2684.89
591.80	3096.53
591.99	2654.17
592.18	2664.41
592.38	2873.30
592.57	2691.03
592.76	2695.13
592.96	2725.85
593.15	2748.37
593.34	2818.00
593.54	2619.35
593.73	2828.24
593.92	2842.58
594.12	2861.01
594.31	2740.18
594.50	2820.05
594.70	2848.72
594.89	3147.73
595.08	2547.67
595.28	2752.47
595.47	3162.06
595.66	2899.92
595.86	2609.11
596.05	2562.01
596.24	2633.69
596.43	2961.36
596.63	2762.71
596.82	2762.71
597.01	2760.66
597.21	3037.14
597.40	2707.41
597.59	2711.51
597.79	2748.37
597.98	2842.58
598.17	2703.32
598.36	2664.41
598.56	2875.35
598.75	2691.03
598.94	2715.61
599.14	2768.85
599.33	2731.99
599.52	2811.86
599.71	2746.33
599.91	2664.41
600.10	2764.76
600.29	2727.89
600.48	2805.72
600.68	2785.24
600.87	2822.10
601.06	2592.73
601.26	2654.17
601.45	2758.61
601.64	2746.33
601.83	2963.41
602.03	2668.50
602.22	2506.71
602.41	2842.58
602.60	3112.91
602.80	2691.03
602.99	2809.81
603.18	2707.41
603.37	2744.28
603.57	2666.46
603.76	2721.75
603.95	2824.15
604.14	2715.61
604.34	2598.87
604.53	2676.70
604.72	2772.95
604.91	2826.20
605.10	2756.57
605.30	2510.81
605.49	3039.19
605.68	2795.48
605.87	2764.76
606.07	2613.21
606.26	2770.90
606.45	2824.15
606.64	2742.23
606.84	2623.45
607.03	2672.60
607.22	2828.24
607.41	2684.89
607.60	2629.59
607.80	2863.06
607.99	2691.03
608.18	2713.56
608.37	2645.98
608.56	2664.41
608.76	2914.26
608.95	2906.07
609.14	2680.79
609.33	2920.40
609.52	2961.36
609.72	2703.32
609.91	2826.20
610.10	2820.05
610.29	3004.37
610.48	2719.70
610.68	2746.33
610.87	2760.66
611.06	2846.68
611.25	2650.07
611.44	2752.47
611.63	2707.41
611.83	2906.07
612.02	2529.24
612.21	2820.05
612.40	2539.48
612.59	2572.25
612.79	2551.77
612.98	2721.75
613.17	2955.22
613.36	2731.99
613.55	2858.96
613.74	2707.41
613.93	2752.47
614.13	2873.30
614.32	2858.96
614.51	2781.14
614.70	2734.04
614.89	2742.23
615.08	2725.85
615.28	3080.14
615.47	2645.98
615.66	2885.59
615.85	2680.79
616.04	2766.81
616.23	2715.61
616.42	2770.90
616.62	2797.53
616.81	2699.22
617.00	2803.67
617.19	2770.90
617.38	2658.26
617.57	2701.27
617.76	2748.37
617.95	2895.83
618.15	2693.08
618.34	2856.92
618.53	2510.81
618.72	2887.64
618.91	2842.58
619.10	2734.04
619.29	2764.76
619.48	2701.27
619.68	2562.01
619.87	2621.40
620.06	2582.49
620.25	2734.04
620.44	2602.97
620.63	2623.45
620.82	2758.61
621.01	2766.81
621.20	2605.02
621.39	2686.94
621.59	2822.10
621.78	2785.24
621.97	2707.41
622.16	2805.72
622.35	2901.97
622.54	2877.40
622.73	2672.60
622.92	2449.37
623.11	2840.53
623.30	2617.30
623.49	2809.81
623.68	2570.20
623.88	2832.34
624.07	2725.85
624.26	2598.87
624.45	2699.22
624.64	2793.43
624.83	2789.33
625.02	2693.08
625.21	2596.82
625.40	2772.95
625.59	2889.68
625.78	2670.55
625.97	2840.53
626.16	2881.49
626.35	2842.58
626.54	2703.32
626.74	2865.11
626.93	2734.04
627.12	2727.89
627.31	2824.15
627.50	2768.85
627.69	2846.68
627.88	2602.97
628.07	2631.64
628.26	2519.00
628.45	2529.24
628.64	2592.73
628.83	2670.55
629.02	2521.05
629.21	2873.30
629.40	2717.65
629.59	2627.54
629.78	2631.64
629.97	2699.22
630.16	2777.05
630.35	2598.87
630.54	2701.27
630.73	2688.98
630.92	2715.61
631.11	2547.67
631.30	2596.82
631.49	2777.05
631.68	2670.55
631.87	2635.74
632.06	2551.77
632.25	3092.43
632.44	2723.80
632.63	2617.30
632.82	2648.02
633.01	2662.36
633.20	2807.77
633.39	2631.64
633.58	2506.71
633.77	2830.29
633.96	2840.53
634.15	2801.62
634.34	2684.89
634.53	2826.20
634.72	2701.27
634.91	2488.28
635.10	2719.70
635.29	2873.30
635.48	2713.56
635.67	2506.71
635.86	2465.75
636.05	2875.35
636.24	2731.99
636.43	2648.02
636.62	2707.41
636.81	2394.08
637.00	2717.65
637.19	2662.36
637.38	2594.78
637.57	2576.34
637.76	2717.65
637.95	2768.85
638.14	2637.78
638.33	2826.20
638.52	2756.57
638.71	2572.25
638.89	2572.25
639.08	3137.49
639.27	2932.69
639.46	2865.11
639.65	3145.68
639.84	3141.58
640.03	3278.80
640.22	3080.14
640.41	3260.37
640.60	2844.63
640.79	2949.08
640.98	2830.29
641.17	2934.74
641.36	2809.81
641.55	2873.30
641.74	2625.50
641.92	2576.34
642.11	2637.78
642.30	2711.51
642.49	2586.58
642.68	2586.58
642.87	2787.29
643.06	2828.24
643.25	2549.72
643.44	2543.58
643.63	2703.32
643.82	2824.15
644.00	2588.63
644.19	2629.59
644.38	2523.10
644.57	2875.35
644.76	2691.03
644.95	2648.02
645.14	2723.80
645.33	2756.57
645.52	2676.70
645.71	2539.48
645.89	2576.34
646.08	2731.99
646.27	2693.08
646.46	2908.12
646.65	2537.43
646.84	2631.64
647.03	2553.82
647.22	2770.90
647.40	2768.85
647.59	2695.13
647.78	2457.56
647.97	2555.86
648.16	2607.06
648.35	3004.37
648.54	2840.53
648.73	2699.22
648.91	2797.53
649.10	2789.33
649.29	2639.83
649.48	2609.11
649.67	2736.09
649.86	2678.74
650.05	2629.59
650.23	2791.38
650.42	2621.40
650.61	2971.60
650.80	2789.33
650.99	2979.79
651.18	2914.26
651.36	2899.92
651.55	2680.79
651.74	2820.05
651.93	2717.65
652.12	2715.61
652.31	2691.03
652.49	2801.62
652.68	2736.09
652.87	2834.39
653.06	2715.61
653.25	2891.73
653.44	2742.23
653.62	2959.31
653.81	2643.93
654.00	2695.13
654.19	2875.35
654.38	3096.53
654.56	2731.99
654.75	2555.86
654.94	2883.54
655.13	2752.47
655.32	2678.74
655.51	2781.14
655.69	2625.50
655.88	2781.14
656.07	2545.63
656.26	2670.55
656.45	2531.29
656.63	2660.31
656.82	2707.41
657.01	2936.79
657.20	2613.21
657.38	3010.51
657.57	2551.77
657.76	2527.19
657.95	2834.39
658.14	2605.02
658.32	2703.32
658.51	2514.91
658.70	2799.57
658.89	2707.41
659.08	2748.37
659.26	2918.36
659.45	2619.35
659.64	2799.57
659.83	2580.44
660.01	3155.92
660.20	2723.80
660.39	2926.55
660.58	2420.70
660.76	2682.84
660.95	2541.53
661.14	2836.44
661.33	2453.47
661.51	2564.06
661.70	2629.59
661.89	2801.62
662.08	2717.65
662.26	2527.19
662.45	2627.54
662.64	3059.67
662.83	2781.14
663.01	2527.19
663.20	2711.51
663.39	3043.28
663.58	2598.87
663.76	2658.26
663.95	2815.96
664.14	2588.63
664.32	2691.03
664.51	2605.02
664.70	2514.91
664.89	2748.37
665.07	2381.79
665.26	2795.48
665.45	2514.91
665.64	2873.30
665.82	2619.35
666.01	2744.28
666.20	2602.97
666.38	2906.07
666.57	2922.45
666.76	4351.93
666.95	9875.31
667.13	17069.82
667.32	21231.29
667.51	24059.54
667.69	25144.96
667.88	21585.59
668.07	15650.58
668.25	13059.90
668.44	11054.94
668.63	9619.31
668.81	8621.95
669.00	7430.03
669.19	6479.77
669.38	5756.84
669.56	4900.79
669.75	4280.25
669.94	3706.82
670.12	3252.17
670.31	3004.37
670.50	2957.27
670.68	2938.84
670.87	2785.24
671.06	2643.93
671.24	2596.82
671.43	2932.69
671.62	2772.95
671.80	2658.26
671.99	2705.37
672.18	2785.24
672.36	2842.58
672.55	2830.29
672.74	2658.26
672.92	2623.45
673.11	2901.97
673.29	2541.53
673.48	2748.37
673.67	2684.89
673.85	2844.63
674.04	2662.36
674.23	2617.30
674.41	2990.03
674.60	2564.06
674.79	2455.51
674.97	2519.00
675.16	2865.11
675.34	2881.49
675.53	2547.67
675.72	2750.42
675.90	2996.18
676.09	2627.54
676.28	2711.51
676.46	2498.52
676.65	2818.00
676.83	2672.60
677.02	2652.12
677.21	2699.22
677.39	2877.40
677.58	2586.58
677.77	2660.31
677.95	2643.93
678.14	2725.85
678.32	2643.93
678.51	2676.70
678.70	2924.50
678.88	2719.70
679.07	2744.28
679.25	2695.13
679.44	2652.12
679.63	2555.86
679.81	2754.52
680.00	2830.29
680.18	2725.85
680.37	2938.84
680.55	2770.90
680.74	2519.00
680.93	2435.03
681.11	2787.29
681.30	2703.32
681.48	2752.47
681.67	2654.17
681.85	2779.09
682.04	2541.53
682.23	2811.86
682.41	2678.74
682.60	2639.83
682.78	2715.61
682.97	2529.24
683.15	2734.04
683.34	2633.69
683.53	2912.21
683.71	2525.15
683.90	2744.28
684.08	3035.09
684.27	2684.89
684.45	2654.17
684.64	2809.81
684.82	2703.32
685.01	2729.94
685.19	2676.70
685.38	2875.35
685.57	2731.99
685.75	2654.17
685.94	2531.29
686.12	2592.73
686.31	2748.37
686.49	2901.97
686.68	2459.61
686.86	2654.17
687.05	2688.98
687.23	2916.31
687.42	2621.40
687.60	2471.90
687.79	2869.20
687.97	2996.18
688.16	2793.43
688.34	2785.24
688.53	2500.57
688.71	2809.81
688.90	2842.58
689.08	2678.74
689.27	2496.47
689.45	2928.60
689.64	2711.51
689.82	2725.85
690.01	2858.96
690.19	2795.48
690.38	2744.28
690.56	2787.29
690.75	2568.15
690.93	2637.78
691.12	2619.35
691.30	2734.04
691.49	2654.17
691.67	2643.93
691.86	2973.65
692.04	2717.65
692.23	2688.98
692.41	2762.71
692.60	2938.84
692.78	2764.76
692.97	2785.24
693.15	2736.09
693.34	2832.34
693.52	2852.82
693.71	2664.41
693.89	2695.13
694.08	2498.52
694.26	2725.85
694.44	2818.00
694.63	2834.39
694.81	2613.21
695.00	2621.40
695.18	2834.39
695.37	3071.95
695.55	2742.23
695.74	2713.56
695.92	2590.68
696.10	2949.08
696.29	2490.33
696.47	2641.88
696.66	2539.48
696.84	2541.53
697.03	2719.70
697.21	2940.88
697.40	4100.03
697.58	2965.46
697.76	2686.94
697.95	2625.50
698.13	2551.77
698.32	2635.74
698.50	2670.55
698.68	2727.89
698.87	2760.66
699.05	2922.45
699.24	2609.11
699.42	2588.63
699.61	2701.27
699.79	2721.75
699.97	2680.79
700.16	2537.43
700.34	2562.01
700.53	2670.55
700.71	2789.33
700.89	2801.62
701.08	2674.65
701.26	2686.94
701.45	3192.78
701.63	2549.72
701.81	2617.30
702.00	2639.83
702.18	2676.70
702.37	2588.63
702.55	2932.69
702.73	2813.91
702.92	2719.70
703.10	2926.55
703.28	2858.96
703.47	2611.16
703.65	2926.55
703.84	2805.72
704.02	2645.98
704.20	3030.99
704.39	2650.07
704.57	2617.30
704.75	2897.88
704.94	2834.39
705.12	2801.62
705.30	3037.14
705.49	5844.90
705.67	11900.75
705.86	17897.20
706.04	20438.73
706.22	22826.66
706.41	22740.64
706.59	17759.98
706.77	13295.41
706.96	11442.00
707.14	10209.12
707.32	9068.41
707.51	7847.82
707.69	6453.15
707.87	5388.21
708.06	4462.52
708.24	3778.50
708.42	3391.44
708.61	3377.10
708.79	2729.94
708.97	2734.04
709.16	2838.48
709.34	2744.28
709.52	2637.78
709.71	2670.55
709.89	2775.00
710.07	2588.63
710.26	2582.49
710.44	2633.69
710.62	2840.53
710.80	2666.46
710.99	2795.48
711.17	2750.42
711.35	2617.30
711.54	2592.73
711.72	2852.82
711.90	2760.66
712.09	2734.04
712.27	2666.46
712.45	2764.76
712.63	2566.10
712.82	2736.09
713.00	2701.27
713.18	2748.37
713.37	2766.81
713.55	2861.01
713.73	2893.78
713.91	2783.19
714.10	2592.73
714.28	2766.81
714.46	2813.91
714.65	2727.89
714.83	2684.89
715.01	2672.60
715.19	2785.24
715.38	2598.87
715.56	2768.85
715.74	2592.73
715.92	2668.50
716.11	2830.29
716.29	2449.37
716.47	2770.90
716.65	2756.57
716.84	2457.56
717.02	2795.48
717.20	2512.86
717.38	2543.58
717.57	2772.95
717.75	2678.74
717.93	2619.35
718.11	2791.38
718.30	2488.28
718.48	2752.47
718.66	2826.20
718.84	2889.68
719.03	2678.74
719.21	2516.95
719.39	2990.03
719.57	2791.38
719.75	2736.09
719.94	2510.81
720.12	2686.94
720.30	2740.18
720.48	2764.76
720.67	2545.63
720.85	2568.15
721.03	2633.69
721.21	2609.11
721.39	2748.37
721.58	2760.66
721.76	2717.65
721.94	2779.09
722.12	2697.17
722.30	2934.74
722.49	2705.37
722.67	2662.36
722.85	2654.17
723.03	2602.97
723.21	2641.88
723.40	2619.35
723.58	2858.96
723.76	2803.67
723.94	2910.16
724.12	2736.09
724.30	2930.64
724.49	2895.83
724.67	2629.59
724.85	2779.09
725.03	2506.71
725.21	2799.57
725.40	2904.02
725.58	2691.03
725.76	2856.92
725.94	2777.05
726.12	2625.50
726.30	2711.51
726.49	2684.89
726.67	2617.30
726.85	2893.78
727.03	3039.19
727.21	4022.21
727.39	5111.73
727.57	5586.86
727.76	6057.89
727.94	6242.21
728.12	5533.61
728.30	4685.75
728.48	4392.89
728.66	3987.40
728.84	3782.60
729.03	3364.81
729.21	3235.79
729.39	2932.69
729.57	2820.05
729.75	2813.91
729.93	2842.58
730.11	2695.13
730.30	2693.08
730.48	2686.94
730.66	2777.05
730.84	2701.27
731.02	2691.03
731.20	2607.06
731.38	2670.55
731.56	2557.91
731.74	2621.40
731.93	2754.52
732.11	2686.94
732.29	2596.82
732.47	2738.13
732.65	2783.19
732.83	2830.29
733.01	2770.90
733.19	2641.88
733.37	2781.14
733.56	2686.94
733.74	2596.82
733.92	2918.36
734.10	2596.82
734.28	2840.53
734.46	2529.24
734.64	2691.03
734.82	2672.60
735.00	2619.35
735.18	2607.06
735.36	2729.94
735.54	2736.09
735.73	2688.98
735.91	2727.89
736.09	2979.79
736.27	2775.00
736.45	2809.81
736.63	2428.89
736.81	2717.65
736.99	2797.53
737.17	2953.17
737.35	2623.45
737.53	2820.05
737.71	2703.32
737.89	2805.72
738.07	2639.83
738.25	2680.79
738.43	2467.80
738.61	2678.74
738.80	2467.80
738.98	2617.30
739.16	2605.02
739.34	2656.22
739.52	3033.04
739.70	2695.13
739.88	2914.26
740.06	2750.42
740.24	2416.60
740.42	2815.96
740.60	2449.37
740.78	2656.22
740.96	2547.67
741.14	2697.17
741.32	2738.13
741.50	2502.62
741.68	2856.92
741.86	2877.40
742.04	2564.06
742.22	2566.10
742.40	2705.37
742.58	2713.56
742.76	2582.49
742.94	2744.28
743.12	2457.56
743.30	2709.46
743.48	2828.24
743.66	2602.97
743.84	2707.41
744.02	2670.55
744.20	2713.56
744.38	2531.29
744.56	2557.91
744.74	2987.99
744.92	2789.33
745.10	2914.26
745.28	2740.18
745.46	3002.32
745.64	2680.79
745.82	2760.66
746.00	2596.82
746.18	2738.13
746.36	2586.58
746.54	2654.17
746.72	2717.65
746.90	2635.74
747.08	2926.55
747.26	2535.39
747.44	2789.33
747.62	2797.53
747.80	2752.47
747.98	2703.32
748.15	2684.89
748.33	2996.18
748.51	2781.14
748.69	2742.23
748.87	2582.49
749.05	2688.98
749.23	2691.03
749.41	2662.36
749.59	2633.69
749.77	2842.58
749.95	2670.55
750.13	2572.25
750.31	2736.09
750.49	2721.75
750.67	2822.10
750.85	2897.88
751.03	2725.85
751.20	3006.42
751.38	2654.17
751.56	2674.65
751.74	2674.65
751.92	2617.30
752.10	2621.40
752.28	2764.76
752.46	2680.79
752.64	2750.42
752.82	2688.98
753.00	2838.48
753.18	2578.39
753.35	2701.27
753.53	2791.38
753.71	2654.17
753.89	2682.84
754.07	2736.09
754.25	2895.83
754.43	2652.12
754.61	2582.49
754.79	2729.94
754.97	2723.80
755.14	2830.29
755.32	2512.86
755.50	2752.47
755.68	2756.57
755.86	2543.58
756.04	2625.50
756.22	2449.37
756.40	2791.38
756.57	2881.49
756.75	2588.63
756.93	2840.53
757.11	2904.02
757.29	2498.52
757.47	2525.15
757.65	2459.61
757.82	2447.32
758.00	2564.06
758.18	2701.27
758.36	2535.39
758.54	2918.36
758.72	2514.91
758.90	2828.24
759.07	2805.72
759.25	2580.44
759.43	2766.81
759.61	2578.39
759.79	3889.09
759.97	2766.81
760.15	2594.78
760.32	2670.55
760.50	2775.00
760.68	2924.50
760.86	2535.39
761.04	2856.92
761.22	2875.35
761.39	2711.51
761.57	2797.53
761.75	2666.46
761.93	2799.57
762.11	2633.69
762.28	2680.79
762.46	2539.48
762.64	2840.53
762.82	2570.20
763.00	2576.34
763.18	2828.24
763.35	2461.66
763.53	2832.34
763.71	2678.74
763.89	2695.13
764.07	2717.65
764.24	2660.31
764.42	2738.13
764.60	2691.03
764.78	2762.71
764.96	2777.05
765.13	2818.00
765.31	2627.54
765.49	2783.19
765.67	2516.95
765.84	2662.36
766.02	2543.58
766.20	2465.75
766.38	2783.19
766.56	2744.28
766.73	2760.66
766.91	2693.08
767.09	2709.46
767.27	2797.53
767.44	2527.19
767.62	2766.81
767.80	2711.51
767.98	2668.50
768.15	2660.31
768.33	2805.72
768.51	2815.96
768.69	2781.14
768.87	2731.99
769.04	2791.38
769.22	3053.52
769.40	2850.77
769.58	2897.88
769.75	2752.47
769.93	2934.74
770.11	2650.07
770.28	2592.73
770.46	2828.24
770.64	2631.64
770.82	2666.46
770.99	2572.25
771.17	2836.44
771.35	2699.22
771.53	2656.22
771.70	2684.89
771.88	2820.05
772.06	2734.04
772.23	2594.78
772.41	2709.46
772.59	2662.36
772.77	2600.92
772.94	2658.26
773.12	2815.96
773.30	2637.78
773.47	2787.29
773.65	2609.11
773.83	2873.30
774.01	2605.02
774.18	2410.46
774.36	2691.03
774.54	2525.15
774.71	2738.13
774.89	2514.91
775.07	2596.82
775.24	2625.50
775.42	2633.69
775.60	3020.75
775.78	2578.39
775.95	2562.01
776.13	2445.27
776.31	2428.89
776.48	2772.95
776.66	2824.15
776.84	2695.13
777.01	2627.54
777.19	2547.67
777.37	2557.91
777.54	2783.19
777.72	2979.79
777.90	2676.70
778.07	2611.16
778.25	3272.65
778.43	2871.25
778.60	2525.15
778.78	2711.51
778.96	2820.05
779.13	2508.76
779.31	2678.74
779.49	2635.74
779.66	2637.78
779.84	2746.33
780.01	2639.83
780.19	2519.00
780.37	2863.06
780.54	2871.25
780.72	2533.34
780.90	2635.74
781.07	2709.46
781.25	2656.22
781.43	2801.62
781.60	2619.35
781.78	2932.69
781.95	2660.31
782.13	2588.63
782.31	2574.30
782.48	2447.32
782.66	2713.56
782.83	2834.39
783.01	2787.29
783.19	2873.30
783.36	2686.94
783.54	2619.35
783.72	2729.94
783.89	2662.36
784.07	2723.80
784.24	2824.15
784.42	2826.20
784.60	2752.47
784.77	2740.18
784.95	2420.70
785.12	2576.34
785.30	2699.22
785.47	2596.82
785.65	2580.44
785.83	2635.74
786.00	2652.12
786.18	2770.90
786.35	2555.86
786.53	2535.39
786.71	2850.77
786.88	2834.39
787.06	2654.17
787.23	2637.78
787.41	2607.06
787.58	2715.61
787.76	2666.46
787.94	2592.73
788.11	2803.67
788.29	2580.44
788.46	2594.78
788.64	2463.71
788.81	2633.69
788.99	2596.82
789.16	2607.06
789.34	2680.79
789.52	2629.59
789.69	2670.55
789.87	2439.13
790.04	2703.32
790.22	2752.47
790.39	2994.13
790.57	2549.72
790.74	2613.21
790.92	2944.98
791.09	2533.34
791.27	2744.28
791.44	2768.85
791.62	2729.94
791.79	2803.67
791.97	2656.22
792.15	3039.19
792.32	2826.20
792.50	2836.44
792.67	2779.09
792.85	2791.38
793.02	2666.46
793.20	2656.22
793.37	2543.58
793.55	2666.46
793.72	2473.95
793.90	2895.83
794.07	2627.54
794.25	2545.63
794.42	2789.33
794.60	2723.80
794.77	2756.57
794.95	2811.86
795.12	2865.11
795.30	2756.57
795.47	2488.28
795.65	2940.88
795.82	2795.48
796.00	2641.88
796.17	2691.03
796.34	2549.72
796.52	2670.55
796.69	2797.53
796.87	2748.37
797.04	2750.42
797.22	2873.30
797.39	2754.52
797.57	2775.00
797.74	2723.80
797.92	2754.52
798.09	2717.65
798.27	2799.57
798.44	2650.07
798.62	2639.83
798.79	2699.22
798.96	2717.65
799.14	2693.08
799.31	3053.52
799.49	2609.11
799.66	2596.82
799.84	2658.26
800.01	2549.72
800.19	2797.53
800.36	2484.19
800.53	2664.41
800.71	2787.29
800.88	2967.51
801.06	2625.50
801.23	2645.98
801.41	2793.43
801.58	2627.54
801.75	2578.39
801.93	2648.02
802.10	2793.43
802.28	2670.55
802.45	2645.98
802.63	2711.51
802.80	2865.11
802.97	2668.50
803.15	2658.26
803.32	2594.78
803.50	2625.50
803.67	2600.92
803.84	2514.91
804.02	2711.51
804.19	2701.27
804.37	2469.85
804.54	2475.99
804.71	2619.35
804.89	2742.23
805.06	2531.29
805.24	2531.29
805.41	2510.81
805.58	2623.45
805.76	3067.86
805.93	2693.08
806.10	2826.20
806.28	2793.43
806.45	2750.42
806.63	2709.46
806.80	2770.90
806.97	2768.85
807.15	2828.24
807.32	2652.12
807.49	2637.78
807.67	2490.33
807.84	2713.56
808.01	2486.23
808.19	2856.92
808.36	2987.99
808.54	2609.11
808.71	2521.05
808.88	2703.32
809.06	2834.39
809.23	2961.36
809.40	2584.54
809.58	2611.16
809.75	2781.14
809.92	2490.33
810.10	2926.55
810.27	2602.97
810.44	2783.19
810.62	2797.53
810.79	2752.47
810.96	2547.67
811.14	2592.73
811.31	2746.33
811.48	2834.39
811.66	2639.83
811.83	2867.16
812.00	2883.54
812.18	2670.55
812.35	2955.22
812.52	2645.98
812.69	2654.17
812.87	2619.35
813.04	2572.25
813.21	2678.74
813.39	2627.54
813.56	2555.86
813.73	2891.73
813.91	2478.04
814.08	2709.46
814.25	2660.31
814.42	2531.29
814.60	2707.41
814.77	2693.08
814.94	2549.72
815.12	2750.42
815.29	2957.27
815.46	2619.35
815.63	2596.82
815.81	2686.94
815.98	2654.17
816.15	2709.46
816.33	2709.46
816.50	2613.21
816.67	2744.28
816.84	2611.16
817.02	2510.81
817.19	2678.74
817.36	2770.90
817.53	2799.57
817.71	2525.15
817.88	2709.46
818.05	2629.59
818.22	2639.83
818.40	2807.77
818.57	2580.44
818.74	2772.95
818.91	2678.74
819.09	2785.24
819.26	2791.38
819.43	2529.24
819.60	2643.93
819.78	2775.00
819.95	2758.61
820.12	2494.43
820.29	2858.96
820.47	2856.92
820.64	2619.35
820.81	2545.63
820.98	2615.26
821.15	2637.78
821.33	2740.18
821.50	2490.33
821.67	2740.18
821.84	2670.55
822.02	2691.03
822.19	2899.92
822.36	2736.09
822.53	2611.16
822.70	2543.58
822.88	2691.03
823.05	2908.12
823.22	2766.81
823.39	2725.85
823.56	2727.89
823.74	2965.46
823.91	2572.25
824.08	2564.06
824.25	2506.71
824.42	2990.03
824.60	2482.14
824.77	2740.18
824.94	2711.51
825.11	2791.38
825.28	2498.52
825.45	2744.28
825.63	2658.26
825.80	2641.88
825.97	2725.85
826.14	2725.85
826.31	2482.14
826.48	2793.43
826.66	2547.67
826.83	2693.08
827.00	2656.22
827.17	2584.54
827.34	2652.12
827.51	2617.30
827.69	2703.32
827.86	2531.29
828.03	2594.78
828.20	2678.74
828.37	2547.67
828.54	2652.12
828.71	2559.96
828.89	2801.62
829.06	2609.11
829.23	2973.65
829.40	2531.29
829.57	2625.50
829.74	2775.00
829.91	2605.02
830.09	2539.48
830.26	2764.76
830.43	2920.40
830.60	2719.70
830.77	2699.22
830.94	2842.58
831.11	2824.15
831.28	2670.55
831.46	2742.23
831.63	2674.65
831.80	2818.00
831.97	2586.58
832.14	2580.44
832.31	2736.09
832.48	2727.89
832.65	2844.63
832.82	2742.23
832.99	2734.04
833.17	2533.34
833.34	2885.59
833.51	2707.41
833.68	2408.41
833.85	2775.00
834.02	2586.58
834.19	2498.52
834.36	2580.44
834.53	2721.75
834.70	2795.48
834.87	2764.76
835.04	2586.58
835.22	2590.68
835.39	2680.79
835.56	2539.48
835.73	2613.21
835.90	2895.83
836.07	2625.50
836.24	2623.45
836.41	2570.20
836.58	2703.32
836.75	2799.57
836.92	2600.92
837.09	2510.81
837.26	2785.24
837.43	2676.70
837.60	2637.78
837.77	2652.12
837.94	2805.72
838.12	2873.30
838.29	2496.47
838.46	2428.89
838.63	2500.57
838.80	2961.36
838.97	2701.27
839.14	2541.53
839.31	2727.89
839.48	2813.91
839.65	2568.15
839.82	2717.65
839.99	2719.70
840.16	2742.23
840.33	2545.63
840.50	2598.87
840.67	2562.01
840.84	2426.84
841.01	2494.43
841.18	2475.99
841.35	2686.94
841.52	2772.95
841.69	2850.77
841.86	2576.34
842.03	2772.95
842.20	2852.82
842.37	2490.33
842.54	2600.92
842.71	2676.70
842.88	2465.75
843.05	2605.02
843.22	2572.25
843.39	2838.48
843.56	2676.70
843.73	2543.58
843.90	2617.30
844.07	2715.61
844.24	2758.61
844.41	2619.35
844.58	2645.98
844.75	2703.32
844.92	2799.57
845.09	2582.49
845.26	2586.58
845.43	2758.61
845.60	2750.42
845.77	2658.26
845.94	2688.98
846.10	2811.86
846.27	2559.96
846.44	2435.03
846.61	2484.19
846.78	2727.89
846.95	2879.44
847.12	2539.48
847.29	2519.00
847.46	2629.59
847.63	2830.29
847.80	2490.33
847.97	2471.90
848.14	3008.47
848.31	2625.50
848.48	2484.19
848.65	2637.78
848.82	2682.84
848.98	3071.95
849.15	2693.08
849.32	2662.36
849.49	2795.48
849.66	2691.03
849.83	2559.96
850.00	2527.19
850.17	2807.77
850.34	2637.78
850.51	2523.10
850.68	2559.96
850.85	3030.99
851.01	2756.57
851.18	2586.58
851.35	2570.20
851.52	2727.89
851.69	2965.46
851.86	2467.80
852.03	2514.91
852.20	2762.71
852.37	2672.60
852.53	2447.32
852.70	2547.67
852.87	2727.89
853.04	2922.45
853.21	2543.58
853.38	2793.43
853.55	2768.85
853.72	2912.21
853.89	2432.99
854.05	2559.96
854.22	2621.40
854.39	2742.23
854.56	2580.44
854.73	2801.62
854.90	2613.21
855.07	2656.22
855.23	2529.24
855.40	2543.58
855.57	2658.26
855.74	2387.93
855.91	2740.18
856.08	2449.37
856.25	2439.13
856.41	2631.64
856.58	2508.76
856.75	2559.96
856.92	2572.25
857.09	2838.48
857.26	2420.70
857.42	2695.13
857.59	2809.81
857.76	2697.17
857.93	2596.82
858.10	2578.39
858.27	2633.69
858.43	2701.27
858.60	2559.96
858.77	2461.66
858.94	2654.17
859.11	2838.48
859.27	2568.15
859.44	2426.84
859.61	3008.47
859.78	2805.72
859.95	2441.18
860.12	2607.06
860.28	2940.88
860.45	2979.79
860.62	2543.58
860.79	2633.69
860.95	2662.36
861.12	2588.63
861.29	2432.99
861.46	2504.67
861.63	2697.17
861.79	2754.52
861.96	2498.52
862.13	2553.82
862.30	2908.12
862.47	2662.36
862.63	2488.28
862.80	2627.54
862.97	2906.07
863.14	2791.38
863.30	2531.29
863.47	2521.05
863.64	2899.92
863.81	2766.81
863.97	2516.95
864.14	2645.98
864.31	2650.07
864.48	2691.03
864.65	2553.82
864.81	2605.02
864.98	2785.24
865.15	2826.20
865.32	2580.44
865.48	2631.64
865.65	2959.31
865.82	2627.54
865.98	2637.78
866.15	2592.73
866.32	2678.74
866.49	2695.13
866.65	2750.42
866.82	2531.29
866.99	2600.92
867.16	2529.24
867.32	2623.45
867.49	2545.63
867.66	2633.69
867.83	2607.06
867.99	2473.95
868.16	2535.39
868.33	2490.33
868.49	2697.17
868.66	2490.33
868.83	2703.32
868.99	2783.19
869.16	2736.09
869.33	2699.22
869.50	2674.65
869.66	2740.18
869.83	2664.41
870.00	2496.47
870.16	2650.07
870.33	2785.24
870.50	2824.15
870.66	2602.97
870.83	2615.26
871.00	2643.93
871.17	2789.33
871.33	2643.93
871.50	2521.05
871.67	2693.08
871.83	2680.79
872.00	2674.65
872.17	2627.54
872.33	3041.23
872.50	2912.21
872.67	2584.54
872.83	2570.20
873.00	2779.09
873.17	2682.84
873.33	2588.63
873.50	2688.98
873.67	2588.63
873.83	2635.74
874.00	2602.97
874.16	2650.07
874.33	2736.09
874.50	2549.72
874.66	2465.75
874.83	2600.92
875.00	2930.64
875.16	2897.88
875.33	2711.51
875.50	2332.64
875.66	2590.68
875.83	2731.99
875.99	2680.79
876.16	2662.36
876.33	2578.39
876.49	2686.94
876.66	2645.98
876.83	2615.26
876.99	2514.91
877.16	2723.80
877.32	2645.98
877.49	2586.58
877.66	2775.00
877.82	2973.65
877.99	2519.00
878.15	2777.05
878.32	2756.57
878.49	2731.99
878.65	2613.21
878.82	2852.82
878.98	2625.50
879.15	2918.36
879.32	2627.54
879.48	2723.80
879.65	2752.47
879.81	2705.37
879.98	2566.10
880.15	2494.43
880.31	2758.61
880.48	2574.30
880.64	2650.07
880.81	2578.39
880.97	2918.36
881.14	2965.46
881.31	2568.15
881.47	2721.75
881.64	2553.82
881.80	2471.90
881.97	2637.78
882.13	2584.54
882.30	2514.91
882.47	2613.21
882.63	2559.96
882.80	2562.01
882.96	2654.17
883.13	2908.12
883.29	2613.21
883.46	2631.64
883.62	3014.61
883.79	2623.45
883.95	2701.27
884.12	2504.67
884.29	2834.39
884.45	2715.61
884.62	2602.97
884.78	2502.62
884.95	2932.69
885.11	2658.26
885.28	2662.36
885.44	2543.58
885.61	2789.33
885.77	2932.69
885.94	2666.46
886.10	2592.73
886.27	2674.65
886.43	2940.88
886.60	2672.60
886.76	2543.58
886.93	2529.24
887.09	2779.09
887.26	2439.13
887.42	2576.34
887.59	2856.92
887.75	3135.44
887.92	2760.66
888.08	2701.27
888.25	2996.18
888.41	2805.72
888.58	2621.40
888.74	2519.00
888.91	2635.74
>>>>>End Processed Spectral Data<<<<<
