SpectraSuite Data File
++++++++++++++++++++++++++++++++++++
Date: Thu May 05 16:20:52 CEST 2016
User: root
Dark Spectrum Present: No
Reference Spectrum Present: No
Number of Sampled Component Spectra: 1
Spectrometers: USB4C02835
Integration Time (usec): 100000 (USB4C02835)
Spectra Averaged: 1 (USB4C02835)
Boxcar Smoothing: 0 (USB4C02835)
Correct for Electrical Dark: No (USB4C02835)
Strobe/Lamp Enabled: No (USB4C02835)
Correct for Detector Non-linearity: No (USB4C02835)
Correct for Stray Light: No (USB4C02835)
Number of Pixels in Processed Spectrum: 3648
>>>>>Begin Processed Spectral Data<<<<<
177.47	1974.24
177.69	1974.24
177.91	1974.24
178.13	2078.69
178.36	1957.86
178.58	2545.63
178.80	2783.19
179.02	2537.43
179.24	2549.72
179.46	2408.41
179.68	2519.00
179.90	2715.61
180.13	2705.37
180.35	2373.60
180.57	2455.51
180.79	2852.82
181.01	2686.94
181.23	2566.10
181.45	2652.12
181.67	2820.05
181.90	2836.44
182.12	2543.58
182.34	2342.88
182.56	2793.43
182.78	2768.85
183.00	2494.43
183.22	2555.86
183.44	2430.94
183.66	3123.15
183.89	2625.50
184.11	2492.38
184.33	2799.57
184.55	2824.15
184.77	2420.70
184.99	2490.33
185.21	2654.17
185.43	3086.29
185.65	2521.05
185.87	2480.09
186.10	3162.06
186.32	3018.71
186.54	2605.02
186.76	2602.97
186.98	2850.77
187.20	2607.06
187.42	2516.95
187.64	2453.47
187.86	2688.98
188.08	2850.77
188.30	2457.56
188.52	2592.73
188.75	2863.06
188.97	2885.59
189.19	2480.09
189.41	2484.19
189.63	2703.32
189.85	2691.03
190.07	2447.32
190.29	2318.30
190.51	2793.43
190.73	2545.63
190.95	2631.64
191.17	2537.43
191.39	2574.30
191.61	2744.28
191.84	2547.67
192.06	2533.34
192.28	2461.66
192.50	3166.16
192.72	2590.68
192.94	2533.34
193.16	2934.74
193.38	2787.29
193.60	2480.09
193.82	2635.74
194.04	2887.64
194.26	2815.96
194.48	2541.53
194.70	2543.58
194.92	2705.37
195.14	2818.00
195.36	2490.33
195.58	2605.02
195.80	2668.50
196.02	2594.78
196.24	2510.81
196.46	2531.29
196.69	2621.40
196.91	3090.38
197.13	2514.91
197.35	2576.34
197.57	2996.18
197.79	2777.05
198.01	2539.48
198.23	2535.39
198.45	2727.89
198.67	2590.68
198.89	2369.50
199.11	2607.06
199.33	2645.98
199.55	2447.32
199.77	2508.76
199.99	2674.65
200.21	2731.99
200.43	2748.37
200.65	2469.85
200.87	2392.03
201.09	2664.41
201.31	2643.93
201.53	2613.21
201.75	2611.16
201.97	2783.19
202.19	2777.05
202.41	2590.68
202.63	2705.37
202.85	2772.95
203.07	2740.18
203.29	2596.82
203.51	2394.08
203.73	2658.26
203.95	3084.24
204.17	2465.75
204.39	2586.58
204.61	2701.27
204.83	2648.02
205.05	2617.30
205.27	2617.30
205.49	3039.19
205.71	2740.18
205.93	2342.88
206.15	2482.14
206.37	2711.51
206.59	2750.42
206.81	2389.98
207.03	2322.40
207.25	2555.86
207.47	2789.33
207.69	2621.40
207.91	2723.80
208.13	2979.79
208.34	2609.11
208.56	2451.42
208.78	2570.20
209.00	2615.26
209.22	2676.70
209.44	2531.29
209.66	2455.51
209.88	2621.40
210.10	2605.02
210.32	2514.91
210.54	2639.83
210.76	2670.55
210.98	2848.72
211.20	2320.35
211.42	2551.77
211.64	2959.31
211.86	2826.20
212.08	2557.91
212.30	2559.96
212.52	2621.40
212.74	2766.81
212.96	2598.87
213.17	2602.97
213.39	2828.24
213.61	3008.47
213.83	2588.63
214.05	2459.61
214.27	2801.62
214.49	2572.25
214.71	2535.39
214.93	2641.88
215.15	2709.46
215.37	2858.96
215.59	2396.12
215.81	2596.82
216.03	2914.26
216.24	2725.85
216.46	2527.19
216.68	2564.06
216.90	2760.66
217.12	2871.25
217.34	2482.14
217.56	2602.97
217.78	2897.88
218.00	2824.15
218.22	2557.91
218.44	2555.86
218.66	2713.56
218.87	2996.18
219.09	2527.19
219.31	2510.81
219.53	2797.53
219.75	2736.09
219.97	2586.58
220.19	2582.49
220.41	2695.13
220.63	2928.60
220.85	2484.19
221.06	2514.91
221.28	2938.84
221.50	2770.90
221.72	2525.15
221.94	2406.36
222.16	2645.98
222.38	2965.46
222.60	2469.85
222.82	2578.39
223.03	2791.38
223.25	2527.19
223.47	2488.28
223.69	2752.47
223.91	2846.68
224.13	2777.05
224.35	2422.75
224.57	2680.79
224.78	2748.37
225.00	2594.78
225.22	2531.29
225.44	2484.19
225.66	2760.66
225.88	2680.79
226.10	2600.92
226.32	2545.63
226.53	2916.31
226.75	2664.41
226.97	2545.63
227.19	2566.10
227.41	2617.30
227.63	2699.22
227.85	2363.36
228.06	2467.80
228.28	2734.04
228.50	2889.68
228.72	2361.31
228.94	2422.75
229.16	2478.04
229.37	2643.93
229.59	2457.56
229.81	2721.75
230.03	2633.69
230.25	2482.14
230.47	2441.18
230.69	2521.05
230.90	2854.87
231.12	2664.41
231.34	2641.88
231.56	2596.82
231.78	2562.01
232.00	2691.03
232.21	2490.33
232.43	2564.06
232.65	2441.18
232.87	2750.42
233.09	2396.12
233.30	2424.80
233.52	2922.45
233.74	2660.31
233.96	2432.99
234.18	2666.46
234.40	2654.17
234.61	3055.57
234.83	2412.51
235.05	2408.41
235.27	3067.86
235.49	2869.20
235.70	2478.04
235.92	2613.21
236.14	2824.15
236.36	3125.20
236.58	2422.75
236.79	2516.95
237.01	2711.51
237.23	2600.92
237.45	2744.28
237.67	2541.53
237.88	2791.38
238.10	2998.23
238.32	2480.09
238.54	2459.61
238.76	2748.37
238.97	2594.78
239.19	2457.56
239.41	2521.05
239.63	2764.76
239.85	2613.21
240.06	2545.63
240.28	2465.75
240.50	2885.59
240.72	2691.03
240.93	2441.18
241.15	2635.74
241.37	2738.13
241.59	2865.11
241.81	2537.43
242.02	2514.91
242.24	2715.61
242.46	2867.16
242.68	2338.78
242.89	2539.48
243.11	2828.24
243.33	2736.09
243.55	2521.05
243.76	2602.97
243.98	2570.20
244.20	2748.37
244.42	2498.52
244.64	2543.58
244.85	2512.86
245.07	2553.82
245.29	2525.15
245.51	2545.63
245.72	2750.42
245.94	2809.81
246.16	2559.96
246.38	2531.29
246.59	2703.32
246.81	2650.07
247.03	2443.23
247.24	2379.74
247.46	2562.01
247.68	2701.27
247.90	2449.37
248.11	2508.76
248.33	2736.09
248.55	2699.22
248.77	2580.44
248.98	2666.46
249.20	2996.18
249.42	2705.37
249.64	2467.80
249.85	2426.84
250.07	2564.06
250.29	2871.25
250.50	2629.59
250.72	2406.36
250.94	2772.95
251.16	3043.28
251.37	2492.38
251.59	2508.76
251.81	2830.29
252.02	2865.11
252.24	2471.90
252.46	2660.31
252.68	2621.40
252.89	2637.78
253.11	2408.41
253.33	2631.64
253.54	2975.70
253.76	2527.19
253.98	2543.58
254.20	2471.90
254.41	2551.77
254.63	2697.17
254.85	2408.41
255.06	2607.06
255.28	2756.57
255.50	2688.98
255.71	2512.86
255.93	2373.60
256.15	2711.51
256.36	2744.28
256.58	2432.99
256.80	2463.71
257.02	2725.85
257.23	2652.12
257.45	2551.77
257.67	2625.50
257.88	2578.39
258.10	2758.61
258.32	2469.85
258.53	2600.92
258.75	3037.14
258.97	2623.45
259.18	2480.09
259.40	2461.66
259.62	2965.46
259.83	2934.74
260.05	2592.73
260.27	3151.82
260.48	2828.24
260.70	2592.73
260.92	2422.75
261.13	2506.71
261.35	2799.57
261.57	2766.81
261.78	2416.60
262.00	2416.60
262.22	2760.66
262.43	2555.86
262.65	2496.47
262.86	2588.63
263.08	3045.33
263.30	2631.64
263.51	2410.46
263.73	2449.37
263.95	2916.31
264.16	2607.06
264.38	2414.56
264.60	2494.43
264.81	2654.17
265.03	2861.01
265.25	2820.05
265.46	2447.32
265.68	2916.31
265.89	2834.39
266.11	2383.84
266.33	2422.75
266.54	2856.92
266.76	2844.63
266.98	2516.95
267.19	2678.74
267.41	2879.44
267.62	2686.94
267.84	2297.82
268.06	2617.30
268.27	2740.18
268.49	2938.84
268.70	2572.25
268.92	2529.24
269.14	2633.69
269.35	2492.38
269.57	2588.63
269.79	2584.54
270.00	2625.50
270.22	2955.22
270.43	2428.89
270.65	2398.17
270.87	2791.38
271.08	2832.34
271.30	2625.50
271.51	2529.24
271.73	2791.38
271.95	2887.64
272.16	2469.85
272.38	2617.30
272.59	2699.22
272.81	2807.77
273.02	2516.95
273.24	2631.64
273.46	2850.77
273.67	2631.64
273.89	2357.21
274.10	2498.52
274.32	2838.48
274.54	2736.09
274.75	2635.74
274.97	2596.82
275.18	2846.68
275.40	2785.24
275.61	2533.34
275.83	2629.59
276.05	2574.30
276.26	2703.32
276.48	2635.74
276.69	2525.15
276.91	2664.41
277.12	2918.36
277.34	2637.78
277.55	2729.94
277.77	2797.53
277.99	2736.09
278.20	2564.06
278.42	2473.95
278.63	2645.98
278.85	2570.20
279.06	2594.78
279.28	2725.85
279.49	2842.58
279.71	2863.06
279.93	2713.56
280.14	2654.17
280.36	2639.83
280.57	2844.63
280.79	2668.50
281.00	2519.00
281.22	2674.65
281.43	2863.06
281.65	2355.16
281.86	2582.49
282.08	2805.72
282.29	2944.98
282.51	2482.14
282.73	2430.94
282.94	2547.67
283.16	2869.20
283.37	2715.61
283.59	2666.46
283.80	2695.13
284.02	2746.33
284.23	2660.31
284.45	2596.82
284.66	2559.96
284.88	2605.02
285.09	2582.49
285.31	2719.70
285.52	2803.67
285.74	2453.47
285.95	2748.37
286.17	2672.60
286.38	2830.29
286.60	2684.89
286.81	2494.43
287.03	2580.44
287.24	2742.23
287.46	2850.77
287.67	2717.65
287.89	2844.63
288.10	2697.17
288.32	2713.56
288.53	2752.47
288.75	2633.69
288.96	2770.90
289.18	2656.22
289.39	2570.20
289.61	2668.50
289.82	3043.28
290.04	3002.32
290.25	2506.71
290.47	2523.10
290.68	2727.89
290.90	2826.20
291.11	2430.94
291.33	2711.51
291.54	2674.65
291.76	2703.32
291.97	2635.74
292.18	2660.31
292.40	2725.85
292.61	2668.50
292.83	2867.16
293.04	2662.36
293.26	2691.03
293.47	2625.50
293.69	2496.47
293.90	2533.34
294.12	2830.29
294.33	2662.36
294.55	2676.70
294.76	2834.39
294.97	2951.12
295.19	2977.75
295.40	2598.87
295.62	2609.11
295.83	2834.39
296.05	2611.16
296.26	2762.71
296.48	2562.01
296.69	2715.61
296.90	2711.51
297.12	2742.23
297.33	2789.33
297.55	2764.76
297.76	2826.20
297.98	2662.36
298.19	2703.32
298.41	2731.99
298.62	2510.81
298.83	2803.67
299.05	2707.41
299.26	2631.64
299.48	2572.25
299.69	2643.93
299.90	2596.82
300.12	2594.78
300.33	2871.25
300.55	2621.40
300.76	2676.70
300.98	2578.39
301.19	2840.53
301.40	2519.00
301.62	2492.38
301.83	2811.86
302.05	2738.13
302.26	2590.68
302.47	2668.50
302.69	2547.67
302.90	2711.51
303.12	2439.13
303.33	2740.18
303.54	2987.99
303.76	2615.26
303.97	2631.64
304.19	2854.87
304.40	2568.15
304.61	2742.23
304.83	2797.53
305.04	2691.03
305.26	2834.39
305.47	2621.40
305.68	2652.12
305.90	2525.15
306.11	2932.69
306.33	2660.31
306.54	2494.43
306.75	2510.81
306.97	2482.14
307.18	2631.64
307.39	2580.44
307.61	2660.31
307.82	2731.99
308.04	2807.77
308.25	2504.67
308.46	2648.02
308.68	2721.75
308.89	2715.61
309.10	2758.61
309.32	2684.89
309.53	2731.99
309.74	2777.05
309.96	2580.44
310.17	2734.04
310.39	2637.78
310.60	2729.94
310.81	2611.16
311.03	2457.56
311.24	2838.48
311.45	2715.61
311.67	2871.25
311.88	2656.22
312.09	2705.37
312.31	2629.59
312.52	2600.92
312.73	2557.91
312.95	2539.48
313.16	2617.30
313.37	2670.55
313.59	2676.70
313.80	2793.43
314.01	2961.36
314.23	2572.25
314.44	2471.90
314.65	2523.10
314.87	2535.39
315.08	2549.72
315.29	2645.98
315.51	2602.97
315.72	2510.81
315.93	2625.50
316.15	2674.65
316.36	2555.86
316.57	2740.18
316.79	2605.02
317.00	2473.95
317.21	2807.77
317.43	2611.16
317.64	2678.74
317.85	2650.07
318.07	2615.26
318.28	2621.40
318.49	2688.98
318.70	2813.91
318.92	2758.61
319.13	2789.33
319.34	2764.76
319.56	2699.22
319.77	2744.28
319.98	2867.16
320.20	2785.24
320.41	2799.57
320.62	2777.05
320.83	2617.30
321.05	2797.53
321.26	2656.22
321.47	2711.51
321.69	2942.93
321.90	2441.18
322.11	2541.53
322.32	2705.37
322.54	2953.17
322.75	2578.39
322.96	3241.93
323.18	2486.23
323.39	2473.95
323.60	2506.71
323.81	2623.45
324.03	2703.32
324.24	2731.99
324.45	2686.94
324.66	2635.74
324.88	2891.73
325.09	2955.22
325.30	2582.49
325.52	2625.50
325.73	2699.22
325.94	2594.78
326.15	2498.52
326.37	2578.39
326.58	2844.63
326.79	2994.13
327.00	2492.38
327.22	2664.41
327.43	2537.43
327.64	2553.82
327.85	2709.46
328.07	2613.21
328.28	3006.42
328.49	2666.46
328.70	2619.35
328.92	2662.36
329.13	2672.60
329.34	2899.92
329.55	2789.33
329.76	2703.32
329.98	2686.94
330.19	2906.07
330.40	2731.99
330.61	2580.44
330.83	2887.64
331.04	2598.87
331.25	2717.65
331.46	2582.49
331.68	2510.81
331.89	2891.73
332.10	2654.17
332.31	2498.52
332.52	2664.41
332.74	2879.44
332.95	2488.28
333.16	2635.74
333.37	2818.00
333.58	2748.37
333.80	2680.79
334.01	2351.07
334.22	2713.56
334.43	2576.34
334.64	2586.58
334.86	2541.53
335.07	2625.50
335.28	2979.79
335.49	2529.24
335.70	2703.32
335.92	2930.64
336.13	3088.34
336.34	2688.98
336.55	2619.35
336.76	2842.58
336.98	2439.13
337.19	2697.17
337.40	2666.46
337.61	3110.86
337.82	2695.13
338.04	2680.79
338.25	2443.23
338.46	2723.80
338.67	2621.40
338.88	2549.72
339.09	2551.77
339.31	2654.17
339.52	2531.29
339.73	2498.52
339.94	2639.83
340.15	2801.62
340.36	2590.68
340.58	2684.89
340.79	2527.19
341.00	2811.86
341.21	2467.80
341.42	2789.33
341.63	2629.59
341.85	2828.24
342.06	2734.04
342.27	2578.39
342.48	2727.89
342.69	2557.91
342.90	2752.47
343.12	2723.80
343.33	2537.43
343.54	2834.39
343.75	2869.20
343.96	2668.50
344.17	2564.06
344.38	2668.50
344.60	2625.50
344.81	2529.24
345.02	2625.50
345.23	2899.92
345.44	3063.76
345.65	2740.18
345.86	2641.88
346.07	2799.57
346.29	2615.26
346.50	2742.23
346.71	2695.13
346.92	2899.92
347.13	3133.39
347.34	2678.74
347.55	2488.28
347.76	2791.38
347.98	2478.04
348.19	2637.78
348.40	2729.94
348.61	2654.17
348.82	2942.93
349.03	2748.37
349.24	2461.66
349.45	3002.32
349.66	2490.33
349.88	2562.01
350.09	2537.43
350.30	2951.12
350.51	2877.40
350.72	2656.22
350.93	2688.98
351.14	2717.65
351.35	2731.99
351.56	2645.98
351.77	2682.84
351.99	2762.71
352.20	2863.06
352.41	2709.46
352.62	2357.21
352.83	2736.09
353.04	2750.42
353.25	2607.06
353.46	2641.88
353.67	2893.78
353.88	2490.33
354.09	2557.91
354.30	2652.12
354.52	2756.57
354.73	2658.26
354.94	2541.53
355.15	2693.08
355.36	3076.05
355.57	2650.07
355.78	2627.54
355.99	2490.33
356.20	2666.46
356.41	2879.44
356.62	2662.36
356.83	2670.55
357.04	2899.92
357.25	2475.99
357.46	2572.25
357.68	2488.28
357.89	2613.21
358.10	2744.28
358.31	2586.58
358.52	2598.87
358.73	2555.86
358.94	2523.10
359.15	2564.06
359.36	2658.26
359.57	2744.28
359.78	2693.08
359.99	2746.33
360.20	2519.00
360.41	2686.94
360.62	2762.71
360.83	2719.70
361.04	2613.21
361.25	2723.80
361.46	2932.69
361.67	2768.85
361.88	2666.46
362.09	2815.96
362.30	2764.76
362.51	2627.54
362.72	2648.02
362.93	2832.34
363.14	2818.00
363.35	2645.98
363.56	2527.19
363.78	2889.68
363.99	2832.34
364.20	2629.59
364.41	2727.89
364.62	3051.47
364.83	2785.24
365.04	2600.92
365.25	2578.39
365.46	3026.90
365.67	2494.43
365.88	2697.17
366.09	2490.33
366.30	2703.32
366.51	2793.43
366.72	2469.85
366.93	2629.59
367.14	2738.13
367.35	2973.65
367.56	2750.42
367.77	2811.86
367.98	2754.52
368.18	2758.61
368.39	2750.42
368.60	2506.71
368.81	2852.82
369.02	2781.14
369.23	2648.02
369.44	2525.15
369.65	2721.75
369.86	2789.33
370.07	2717.65
370.28	2502.62
370.49	2807.77
370.70	2766.81
370.91	2514.91
371.12	2498.52
371.33	2875.35
371.54	2664.41
371.75	2764.76
371.96	2400.22
372.17	2746.33
372.38	2672.60
372.59	2623.45
372.80	2574.30
373.01	2688.98
373.22	2764.76
373.43	2625.50
373.64	2539.48
373.85	2891.73
374.06	2975.70
374.26	2764.76
374.47	2688.98
374.68	3006.42
374.89	2754.52
375.10	2525.15
375.31	2693.08
375.52	2670.55
375.73	2703.32
375.94	2484.19
376.15	2715.61
376.36	2629.59
376.57	2625.50
376.78	2641.88
376.99	2637.78
377.20	2936.79
377.40	2660.31
377.61	2848.72
377.82	2566.10
378.03	2971.60
378.24	2850.77
378.45	2703.32
378.66	2721.75
378.87	2428.89
379.08	2535.39
379.29	2527.19
379.50	2844.63
379.71	2670.55
379.91	2748.37
380.12	2617.30
380.33	2662.36
380.54	2645.98
380.75	2777.05
380.96	2570.20
381.17	2645.98
381.38	2711.51
381.59	2736.09
381.80	2658.26
382.00	2760.66
382.21	2736.09
382.42	2899.92
382.63	2981.84
382.84	2717.65
383.05	2863.06
383.26	2977.75
383.47	2760.66
383.68	2639.83
383.88	2772.95
384.09	2791.38
384.30	2834.39
384.51	2627.54
384.72	2656.22
384.93	2553.82
385.14	2658.26
385.35	2787.29
385.55	2584.54
385.76	2879.44
385.97	2723.80
386.18	2471.90
386.39	2555.86
386.60	2750.42
386.81	2637.78
387.02	2564.06
387.22	2559.96
387.43	2877.40
387.64	2756.57
387.85	2887.64
388.06	2756.57
388.27	3960.77
388.48	7505.81
388.68	10762.08
388.89	13395.76
389.10	14346.02
389.31	13680.43
389.52	10702.68
389.73	9400.18
389.93	8599.42
390.14	7884.68
390.35	7024.53
390.56	6404.00
390.77	5234.61
390.98	4061.12
391.18	3456.97
391.39	3168.21
391.60	2748.37
391.81	2842.58
392.02	2656.22
392.23	2992.08
392.43	2785.24
392.64	2768.85
392.85	2695.13
393.06	3033.04
393.27	2715.61
393.47	2578.39
393.68	2643.93
393.89	2699.22
394.10	2813.91
394.31	2568.15
394.52	2535.39
394.72	2598.87
394.93	2957.27
395.14	2551.77
395.35	2756.57
395.56	2592.73
395.76	2738.13
395.97	2625.50
396.18	2787.29
396.39	2795.48
396.60	3233.74
396.80	2942.93
397.01	2797.53
397.22	2899.92
397.43	2930.64
397.64	2557.91
397.84	2791.38
398.05	3088.34
398.26	2717.65
398.47	2772.95
398.67	2805.72
398.88	2707.41
399.09	2832.34
399.30	2611.16
399.51	2731.99
399.71	2559.96
399.92	2666.46
400.13	2760.66
400.34	2656.22
400.54	2676.70
400.75	2891.73
400.96	2672.60
401.17	2883.54
401.37	2818.00
401.58	2760.66
401.79	2609.11
402.00	2721.75
402.21	3022.80
402.41	2975.70
402.62	2938.84
402.83	3022.80
403.04	3102.67
403.24	3350.48
403.45	2727.89
403.66	2940.88
403.87	2848.72
404.07	3033.04
404.28	2942.93
404.49	2858.96
404.70	2824.15
404.90	2768.85
405.11	2701.27
405.32	2686.94
405.52	2623.45
405.73	2678.74
405.94	2586.58
406.15	2707.41
406.35	2807.77
406.56	2775.00
406.77	2658.26
406.98	2678.74
407.18	2641.88
407.39	3041.23
407.60	2656.22
407.80	2748.37
408.01	2666.46
408.22	2838.48
408.43	2627.54
408.63	2787.29
408.84	2793.43
409.05	2932.69
409.25	2555.86
409.46	2582.49
409.67	2680.79
409.88	2578.39
410.08	2721.75
410.29	2672.60
410.50	2807.77
410.70	2852.82
410.91	2582.49
411.12	2793.43
411.32	2801.62
411.53	2592.73
411.74	2725.85
411.95	2740.18
412.15	2717.65
412.36	2770.90
412.57	2818.00
412.77	2813.91
412.98	2666.46
413.19	2682.84
413.39	2666.46
413.60	2625.50
413.81	2924.50
414.01	2547.67
414.22	2627.54
414.43	2783.19
414.63	2680.79
414.84	2918.36
415.05	2596.82
415.25	2494.43
415.46	2908.12
415.67	2633.69
415.87	2707.41
416.08	2631.64
416.29	2699.22
416.49	2908.12
416.70	2586.58
416.91	2654.17
417.11	2648.02
417.32	2873.30
417.53	2760.66
417.73	2748.37
417.94	2688.98
418.15	2758.61
418.35	2729.94
418.56	2717.65
418.77	3065.81
418.97	2756.57
419.18	2717.65
419.38	2349.02
419.59	2787.29
419.80	2912.21
420.00	2584.54
420.21	2664.41
420.42	2959.31
420.62	2781.14
420.83	2635.74
421.04	2654.17
421.24	2684.89
421.45	2801.62
421.65	2756.57
421.86	2629.59
422.07	2807.77
422.27	2809.81
422.48	2641.88
422.69	2494.43
422.89	2748.37
423.10	2617.30
423.30	2531.29
423.51	2719.70
423.72	2758.61
423.92	2830.29
424.13	2543.58
424.33	2772.95
424.54	2875.35
424.75	2758.61
424.95	2820.05
425.16	2680.79
425.36	2662.36
425.57	2883.54
425.78	2686.94
425.98	2740.18
426.19	2619.35
426.39	2629.59
426.60	2686.94
426.81	2775.00
427.01	2797.53
427.22	2586.58
427.42	2465.75
427.63	2584.54
427.83	2793.43
428.04	2916.31
428.25	2811.86
428.45	2842.58
428.66	2830.29
428.86	2693.08
429.07	2572.25
429.28	2719.70
429.48	2695.13
429.69	2602.97
429.89	2643.93
430.10	2510.81
430.30	2793.43
430.51	2895.83
430.71	2545.63
430.92	2615.26
431.13	2695.13
431.33	2807.77
431.54	2731.99
431.74	2846.68
431.95	3080.14
432.15	2617.30
432.36	2576.34
432.56	2658.26
432.77	3020.75
432.98	2955.22
433.18	2678.74
433.39	2611.16
433.59	2721.75
433.80	3008.47
434.00	2793.43
434.21	2652.12
434.41	2660.31
434.62	3055.57
434.82	2539.48
435.03	2596.82
435.23	2789.33
435.44	2480.09
435.64	2637.78
435.85	2746.33
436.06	2844.63
436.26	2809.81
436.47	2596.82
436.67	2568.15
436.88	2721.75
437.08	2955.22
437.29	2660.31
437.49	2752.47
437.70	2912.21
437.90	2711.51
438.11	2883.54
438.31	2738.13
438.52	2912.21
438.72	2807.77
438.93	2992.08
439.13	2705.37
439.34	2822.10
439.54	2738.13
439.75	2715.61
439.95	2727.89
440.16	2617.30
440.36	2740.18
440.57	2658.26
440.77	2611.16
440.98	2643.93
441.18	2848.72
441.39	2635.74
441.59	2590.68
441.80	3082.19
442.00	2676.70
442.21	2777.05
442.41	2457.56
442.62	2840.53
442.82	2594.78
443.02	2586.58
443.23	2713.56
443.43	2650.07
443.64	2918.36
443.84	2574.30
444.05	2746.33
444.25	2807.77
444.46	2635.74
444.66	2654.17
444.87	2844.63
445.07	2461.66
445.28	2715.61
445.48	2840.53
445.69	2766.81
445.89	3071.95
446.09	2635.74
446.30	2928.60
446.50	3063.76
446.71	4485.05
446.91	5554.09
447.12	6528.92
447.32	6838.17
447.53	6565.79
447.73	5380.01
447.93	4730.81
448.14	4550.59
448.34	4509.63
448.55	3745.73
448.75	3809.22
448.96	3635.14
449.16	3424.20
449.36	3227.60
449.57	2893.78
449.77	2746.33
449.98	2703.32
450.18	2848.72
450.39	2615.26
450.59	2795.48
450.79	2670.55
451.00	2699.22
451.20	2834.39
451.41	2688.98
451.61	2740.18
451.81	2750.42
452.02	2590.68
452.22	2684.89
452.43	2660.31
452.63	2754.52
452.84	2674.65
453.04	2627.54
453.24	2697.17
453.45	2609.11
453.65	2686.94
453.86	2723.80
454.06	2838.48
454.26	2709.46
454.47	2496.47
454.67	2748.37
454.87	2789.33
455.08	2740.18
455.28	2865.11
455.49	2713.56
455.69	2717.65
455.89	2971.60
456.10	2688.98
456.30	2660.31
456.51	2856.92
456.71	2731.99
456.91	2699.22
457.12	2629.59
457.32	2758.61
457.52	2498.52
457.73	2801.62
457.93	2830.29
458.14	2670.55
458.34	2424.80
458.54	2670.55
458.75	2639.83
458.95	2783.19
459.15	2752.47
459.36	2736.09
459.56	2676.70
459.76	2998.23
459.97	2721.75
460.17	2672.60
460.37	2734.04
460.58	2717.65
460.78	2811.86
460.99	2658.26
461.19	2613.21
461.39	2654.17
461.60	2574.30
461.80	2723.80
462.00	2467.80
462.21	2713.56
462.41	2633.69
462.61	2508.76
462.82	2445.27
463.02	2742.23
463.22	2695.13
463.43	2723.80
463.63	2596.82
463.83	2922.45
464.04	2729.94
464.24	2668.50
464.44	2537.43
464.64	2678.74
464.85	2809.81
465.05	2707.41
465.25	2670.55
465.46	2621.40
465.66	2846.68
465.86	2648.02
466.07	2662.36
466.27	2713.56
466.47	2531.29
466.68	2490.33
466.88	2736.09
467.08	2809.81
467.29	2842.58
467.49	2754.52
467.69	2658.26
467.89	2832.34
468.10	2727.89
468.30	2789.33
468.50	2787.29
468.71	2932.69
468.91	2531.29
469.11	2875.35
469.31	2709.46
469.52	2650.07
469.72	2906.07
469.92	2940.88
470.13	2701.27
470.33	2746.33
470.53	2805.72
470.73	3065.81
470.94	3334.09
471.14	3366.86
471.34	3794.89
471.54	3645.38
471.75	3416.01
471.95	3106.77
472.15	3133.39
472.36	3178.45
472.56	2994.13
472.76	3215.31
472.96	3119.06
473.17	2920.40
473.37	2799.57
473.57	2744.28
473.77	2873.30
473.98	2717.65
474.18	2459.61
474.38	3145.68
474.58	2695.13
474.79	2557.91
474.99	2668.50
475.19	2826.20
475.39	2543.58
475.60	2707.41
475.80	2654.17
476.00	2785.24
476.20	2686.94
476.41	2734.04
476.61	2740.18
476.81	2949.08
477.01	2656.22
477.21	2895.83
477.42	2777.05
477.62	2553.82
477.82	2858.96
478.02	2600.92
478.23	2705.37
478.43	2617.30
478.63	2658.26
478.83	2725.85
479.03	2635.74
479.24	2934.74
479.44	3010.51
479.64	2480.09
479.84	2426.84
480.04	2596.82
480.25	2908.12
480.45	2664.41
480.65	2629.59
480.85	2967.51
481.06	2717.65
481.26	2693.08
481.46	2672.60
481.66	2727.89
481.86	2576.34
482.06	2758.61
482.27	2674.65
482.47	2760.66
482.67	2828.24
482.87	2684.89
483.07	2658.26
483.28	2695.13
483.48	2541.53
483.68	2713.56
483.88	2504.67
484.08	2498.52
484.29	2535.39
484.49	2629.59
484.69	2527.19
484.89	2963.41
485.09	2920.40
485.29	2693.08
485.50	2777.05
485.70	2713.56
485.90	2840.53
486.10	2760.66
486.30	2637.78
486.50	2828.24
486.71	2707.41
486.91	2729.94
487.11	2848.72
487.31	2527.19
487.51	2770.90
487.71	2521.05
487.91	2510.81
488.12	2686.94
488.32	2361.31
488.52	2590.68
488.72	2451.42
488.92	2709.46
489.12	2846.68
489.32	2721.75
489.53	2670.55
489.73	2574.30
489.93	3018.71
490.13	2625.50
490.33	2478.04
490.53	2793.43
490.73	2922.45
490.94	2502.62
491.14	2850.77
491.34	2813.91
491.54	2965.46
491.74	3481.55
491.94	4075.46
492.14	4466.62
492.34	4554.68
492.54	4149.18
492.75	3549.13
492.95	3598.28
493.15	3282.89
493.35	3348.43
493.55	3190.74
493.75	3069.91
493.95	3248.08
494.15	2936.79
494.35	2793.43
494.56	2807.77
494.76	2670.55
494.96	2793.43
495.16	2619.35
495.36	2764.76
495.56	2785.24
495.76	2686.94
495.96	2537.43
496.16	2596.82
496.36	2983.89
496.56	2695.13
496.77	2750.42
496.97	2731.99
497.17	2895.83
497.37	2523.10
497.57	2701.27
497.77	2729.94
497.97	2564.06
498.17	2648.02
498.37	2600.92
498.57	2813.91
498.77	2719.70
498.97	2699.22
499.17	2977.75
499.38	2678.74
499.58	2858.96
499.78	2809.81
499.98	2766.81
500.18	2668.50
500.38	2594.78
500.58	2826.20
500.78	3139.54
500.98	5314.48
501.18	7243.67
501.38	8720.25
501.58	9523.05
501.78	9566.06
501.98	7755.66
502.18	6520.73
502.38	5615.53
502.58	5363.63
502.78	4788.15
502.98	4591.55
503.18	4437.95
503.38	4028.35
503.59	3620.81
503.79	3377.10
503.99	3293.13
504.19	3184.59
504.39	3188.69
504.59	3137.49
504.79	3065.81
504.99	3282.89
505.19	2947.03
505.39	2824.15
505.59	3078.10
505.79	2987.99
505.99	2879.44
506.19	2658.26
506.39	2856.92
506.59	2719.70
506.79	2637.78
506.99	2721.75
507.19	2658.26
507.39	2693.08
507.59	2584.54
507.79	2584.54
507.99	2572.25
508.19	2719.70
508.39	2654.17
508.59	2660.31
508.79	2820.05
508.99	2969.55
509.19	2729.94
509.39	2772.95
509.59	2533.34
509.79	2682.84
509.99	2785.24
510.19	2762.71
510.39	2805.72
510.59	2734.04
510.79	2619.35
510.99	2473.95
511.19	2648.02
511.39	2987.99
511.59	2875.35
511.79	2820.05
511.99	2721.75
512.19	3051.47
512.38	2746.33
512.58	2670.55
512.78	2596.82
512.98	2901.97
513.18	2920.40
513.38	2490.33
513.58	2707.41
513.78	2703.32
513.98	2695.13
514.18	2660.31
514.38	2701.27
514.58	2742.23
514.78	2643.93
514.98	2504.67
515.18	2680.79
515.38	2551.77
515.58	2895.83
515.78	2645.98
515.98	2725.85
516.18	2815.96
516.38	2650.07
516.57	2605.02
516.77	2576.34
516.97	2781.14
517.17	2623.45
517.37	2498.52
517.57	2766.81
517.77	2818.00
517.97	2631.64
518.17	2764.76
518.37	2531.29
518.57	2666.46
518.77	2631.64
518.97	2623.45
519.16	2682.84
519.36	2889.68
519.56	2615.26
519.76	2637.78
519.96	2707.41
520.16	2987.99
520.36	2625.50
520.56	2734.04
520.76	2660.31
520.96	2762.71
521.16	2789.33
521.35	2809.81
521.55	2766.81
521.75	2652.12
521.95	2684.89
522.15	2611.16
522.35	2545.63
522.55	2596.82
522.75	2856.92
522.95	2555.86
523.14	2559.96
523.34	2785.24
523.54	2746.33
523.74	2688.98
523.94	2654.17
524.14	2641.88
524.34	2764.76
524.54	2809.81
524.73	2674.65
524.93	2834.39
525.13	2822.10
525.33	2537.43
525.53	2875.35
525.73	2858.96
525.93	2756.57
526.13	2635.74
526.32	2615.26
526.52	2863.06
526.72	2846.68
526.92	2639.83
527.12	2539.48
527.32	2535.39
527.52	2703.32
527.71	2750.42
527.91	2641.88
528.11	2658.26
528.31	2707.41
528.51	2576.34
528.71	2795.48
528.90	2852.82
529.10	2877.40
529.30	2768.85
529.50	2306.01
529.70	2783.19
529.90	2590.68
530.09	2598.87
530.29	2529.24
530.49	2598.87
530.69	3166.16
530.89	2766.81
531.09	2772.95
531.28	2662.36
531.48	2848.72
531.68	2701.27
531.88	2684.89
532.08	2867.16
532.28	2723.80
532.47	2842.58
532.67	2809.81
532.87	2856.92
533.07	2598.87
533.27	2777.05
533.46	2744.28
533.66	2842.58
533.86	2768.85
534.06	2598.87
534.26	2627.54
534.45	2686.94
534.65	2852.82
534.85	2723.80
535.05	2562.01
535.25	2947.03
535.44	2510.81
535.64	2785.24
535.84	2598.87
536.04	2719.70
536.24	2645.98
536.43	2631.64
536.63	2582.49
536.83	2772.95
537.03	2670.55
537.22	2527.19
537.42	2430.94
537.62	2738.13
537.82	2555.86
538.02	2777.05
538.21	2770.90
538.41	3192.78
538.61	2736.09
538.81	2623.45
539.00	2793.43
539.20	2506.71
539.40	2740.18
539.60	2668.50
539.79	2838.48
539.99	2713.56
540.19	2650.07
540.39	2641.88
540.58	2725.85
540.78	2863.06
540.98	2738.13
541.18	2682.84
541.37	2736.09
541.57	2697.17
541.77	2666.46
541.97	2441.18
542.16	2602.97
542.36	2607.06
542.56	2695.13
542.76	2895.83
542.95	2766.81
543.15	2793.43
543.35	2824.15
543.54	2668.50
543.74	2559.96
543.94	2924.50
544.14	2629.59
544.33	2799.57
544.53	2648.02
544.73	2664.41
544.93	2668.50
545.12	2596.82
545.32	2635.74
545.52	2602.97
545.71	2580.44
545.91	2598.87
546.11	2605.02
546.30	2576.34
546.50	2678.74
546.70	2744.28
546.90	2674.65
547.09	2478.04
547.29	2781.14
547.49	2766.81
547.68	2723.80
547.88	2598.87
548.08	2815.96
548.27	3108.82
548.47	2566.10
548.67	2670.55
548.87	2791.38
549.06	2650.07
549.26	2576.34
549.46	2801.62
549.65	2643.93
549.85	2721.75
550.05	2686.94
550.24	2572.25
550.44	2721.75
550.64	2723.80
550.83	2682.84
551.03	2949.08
551.23	2848.72
551.42	2760.66
551.62	2631.64
551.82	2750.42
552.01	2674.65
552.21	2914.26
552.41	2615.26
552.60	2928.60
552.80	2693.08
553.00	2607.06
553.19	2670.55
553.39	2928.60
553.59	2547.67
553.78	2834.39
553.98	2621.40
554.17	2588.63
554.37	2713.56
554.57	2736.09
554.76	2488.28
554.96	2707.41
555.16	2836.44
555.35	2623.45
555.55	2764.76
555.75	2701.27
555.94	2877.40
556.14	2496.47
556.33	2682.84
556.53	2723.80
556.73	2742.23
556.92	2746.33
557.12	2756.57
557.32	3020.75
557.51	3000.27
557.71	2715.61
557.90	2844.63
558.10	2897.88
558.30	2641.88
558.49	2670.55
558.69	2613.21
558.88	2881.49
559.08	2805.72
559.28	2650.07
559.47	2756.57
559.67	2781.14
559.86	3041.23
560.06	2600.92
560.26	2688.98
560.45	2754.52
560.65	2709.46
560.84	2875.35
561.04	2600.92
561.24	2762.71
561.43	2584.54
561.63	2869.20
561.82	2811.86
562.02	2719.70
562.22	2641.88
562.41	2580.44
562.61	2656.22
562.80	2670.55
563.00	3065.81
563.19	2682.84
563.39	2781.14
563.59	2807.77
563.78	2564.06
563.98	2445.27
564.17	2602.97
564.37	2504.67
564.56	2721.75
564.76	2525.15
564.96	2838.48
565.15	2770.90
565.35	3110.86
565.54	2701.27
565.74	2760.66
565.93	2709.46
566.13	2820.05
566.32	2715.61
566.52	2807.77
566.71	2772.95
566.91	2854.87
567.11	2813.91
567.30	2484.19
567.50	2826.20
567.69	2715.61
567.89	2611.16
568.08	2531.29
568.28	2719.70
568.47	2625.50
568.67	2686.94
568.86	2629.59
569.06	2891.73
569.25	2676.70
569.45	2564.06
569.64	2686.94
569.84	2674.65
570.04	2772.95
570.23	2580.44
570.43	2652.12
570.62	2752.47
570.82	2906.07
571.01	2537.43
571.21	2627.54
571.40	2596.82
571.60	2809.81
571.79	2715.61
571.99	2678.74
572.18	2643.93
572.38	2832.34
572.57	2629.59
572.77	2684.89
572.96	3074.00
573.16	2734.04
573.35	2707.41
573.55	2734.04
573.74	2850.77
573.94	2691.03
574.13	2559.96
574.33	2797.53
574.52	2887.64
574.71	2750.42
574.91	2752.47
575.10	2615.26
575.30	2654.17
575.49	2643.93
575.69	2549.72
575.88	2674.65
576.08	2703.32
576.27	2871.25
576.47	2660.31
576.66	2803.67
576.86	2899.92
577.05	2861.01
577.25	2736.09
577.44	2850.77
577.64	2713.56
577.83	2818.00
578.02	2637.78
578.22	2764.76
578.41	3037.14
578.61	2562.01
578.80	2539.48
579.00	2596.82
579.19	2703.32
579.39	2777.05
579.58	2770.90
579.77	2713.56
579.97	2908.12
580.16	2895.83
580.36	2779.09
580.55	2770.90
580.75	2830.29
580.94	2789.33
581.13	2820.05
581.33	2887.64
581.52	2680.79
581.72	3030.99
581.91	2822.10
582.11	2596.82
582.30	2897.88
582.49	2713.56
582.69	2928.60
582.88	2727.89
583.08	2785.24
583.27	2969.55
583.47	2711.51
583.66	2635.74
583.85	2607.06
584.05	2643.93
584.24	2750.42
584.44	2725.85
584.63	2893.78
584.82	2981.84
585.02	2973.65
585.21	2766.81
585.41	2873.30
585.60	2781.14
585.79	2918.36
585.99	2858.96
586.18	2897.88
586.37	3557.32
586.57	5406.64
586.76	15791.89
586.96	34985.45
587.15	48055.59
587.34	56741.02
587.54	61199.45
587.73	54723.77
587.93	38686.13
588.12	29255.23
588.31	23613.08
588.51	20909.76
588.70	19119.84
588.89	17225.47
589.09	14651.17
589.28	12330.82
589.47	9768.81
589.67	7704.46
589.86	6004.64
590.06	4667.32
590.25	3917.76
590.44	3454.92
590.64	3117.01
590.83	2920.40
591.02	2899.92
591.22	2752.47
591.41	2658.26
591.60	2740.18
591.80	3110.86
591.99	2562.01
592.18	2621.40
592.38	2899.92
592.57	2678.74
592.76	2719.70
592.96	2869.20
593.15	2678.74
593.34	2871.25
593.54	2637.78
593.73	2826.20
593.92	2836.44
594.12	2844.63
594.31	2711.51
594.50	2830.29
594.70	2871.25
594.89	3229.65
595.08	2584.54
595.28	2775.00
595.47	3145.68
595.66	2996.18
595.86	2582.49
596.05	2654.17
596.24	2641.88
596.43	2944.98
596.63	2828.24
596.82	2740.18
597.01	2832.34
597.21	3020.75
597.40	2750.42
597.59	2654.17
597.79	2719.70
597.98	2811.86
598.17	2772.95
598.36	2727.89
598.56	2949.08
598.75	2691.03
598.94	2705.37
599.14	2709.46
599.33	2674.65
599.52	2897.88
599.71	2740.18
599.91	2719.70
600.10	2897.88
600.29	2787.29
600.48	2826.20
600.68	2752.47
600.87	2791.38
601.06	2588.63
601.26	2670.55
601.45	2783.19
601.64	2697.17
601.83	2936.79
602.03	2559.96
602.22	2527.19
602.41	2875.35
602.60	2992.08
602.80	2750.42
602.99	2793.43
603.18	2695.13
603.37	2777.05
603.57	2645.98
603.76	2746.33
603.95	2932.69
604.14	2674.65
604.34	2547.67
604.53	2629.59
604.72	2705.37
604.91	2791.38
605.10	2725.85
605.30	2580.44
605.49	3006.42
605.68	2897.88
605.87	2752.47
606.07	2559.96
606.26	2746.33
606.45	2818.00
606.64	2688.98
606.84	2617.30
607.03	2736.09
607.22	2824.15
607.41	2635.74
607.60	2600.92
607.80	2889.68
607.99	2709.46
608.18	2672.60
608.37	2701.27
608.56	2592.73
608.76	2979.79
608.95	2834.39
609.14	2731.99
609.33	2936.79
609.52	2955.22
609.72	2705.37
609.91	2764.76
610.10	2856.92
610.29	2926.55
610.48	2758.61
610.68	2754.52
610.87	2793.43
611.06	2863.06
611.25	2697.17
611.44	2854.87
611.63	2676.70
611.83	2987.99
612.02	2562.01
612.21	2770.90
612.40	2531.29
612.59	2588.63
612.79	2576.34
612.98	2641.88
613.17	2994.13
613.36	2707.41
613.55	2881.49
613.74	2574.30
613.93	2775.00
614.13	2899.92
614.32	2879.44
614.51	2703.32
614.70	2664.41
614.89	2635.74
615.08	2809.81
615.28	3084.24
615.47	2617.30
615.66	2809.81
615.85	2654.17
616.04	2760.66
616.23	2787.29
616.42	2637.78
616.62	2695.13
616.81	2695.13
617.00	2727.89
617.19	2805.72
617.38	2686.94
617.57	2717.65
617.76	2813.91
617.95	2955.22
618.15	2752.47
618.34	2848.72
618.53	2543.58
618.72	2920.40
618.91	2834.39
619.10	2799.57
619.29	2713.56
619.48	2760.66
619.68	2539.48
619.87	2631.64
620.06	2506.71
620.25	2930.64
620.44	2711.51
620.63	2697.17
620.82	2705.37
621.01	2725.85
621.20	2596.82
621.39	2756.57
621.59	2865.11
621.78	2736.09
621.97	2676.70
622.16	2740.18
622.35	2826.20
622.54	2858.96
622.73	2736.09
622.92	2490.33
623.11	2867.16
623.30	2688.98
623.49	2805.72
623.68	2586.58
623.88	2916.31
624.07	2607.06
624.26	2596.82
624.45	2715.61
624.64	2586.58
624.83	2826.20
625.02	2666.46
625.21	2684.89
625.40	2797.53
625.59	2940.88
625.78	2699.22
625.97	2764.76
626.16	3026.90
626.35	2904.02
626.54	2797.53
626.74	2822.10
626.93	2717.65
627.12	2691.03
627.31	2801.62
627.50	2727.89
627.69	2881.49
627.88	2572.25
628.07	2598.87
628.26	2500.57
628.45	2600.92
628.64	2650.07
628.83	2615.26
629.02	2455.51
629.21	2869.20
629.40	2770.90
629.59	2615.26
629.78	2582.49
629.97	2750.42
630.16	2678.74
630.35	2572.25
630.54	2680.79
630.73	2615.26
630.92	2686.94
631.11	2619.35
631.30	2576.34
631.49	2818.00
631.68	2668.50
631.87	2719.70
632.06	2562.01
632.25	3071.95
632.44	2824.15
632.63	2668.50
632.82	2686.94
633.01	2688.98
633.20	2721.75
633.39	2613.21
633.58	2562.01
633.77	2799.57
633.96	2842.58
634.15	2734.04
634.34	2813.91
634.53	2789.33
634.72	2598.87
634.91	2502.62
635.10	2658.26
635.29	2807.77
635.48	2787.29
635.67	2506.71
635.86	2439.13
636.05	2887.64
636.24	2736.09
636.43	2703.32
636.62	2744.28
636.81	2408.41
637.00	2719.70
637.19	2731.99
637.38	2674.65
637.57	2682.84
637.76	2811.86
637.95	2727.89
638.14	2693.08
638.33	2834.39
638.52	2734.04
638.71	2602.97
638.89	2488.28
639.08	3151.82
639.27	2891.73
639.46	2918.36
639.65	3147.73
639.84	3215.31
640.03	3276.75
640.22	3084.24
640.41	3143.63
640.60	2836.44
640.79	2801.62
640.98	2758.61
641.17	2871.25
641.36	2873.30
641.55	2856.92
641.74	2545.63
641.92	2580.44
642.11	2682.84
642.30	2707.41
642.49	2531.29
642.68	2607.06
642.87	2783.19
643.06	2787.29
643.25	2568.15
643.44	2621.40
643.63	2727.89
643.82	2863.06
644.00	2568.15
644.19	2686.94
644.38	2590.68
644.57	2842.58
644.76	2582.49
644.95	2666.46
645.14	2725.85
645.33	2674.65
645.52	2607.06
645.71	2516.95
645.89	2559.96
646.08	2623.45
646.27	2686.94
646.46	2822.10
646.65	2629.59
646.84	2709.46
647.03	2541.53
647.22	2734.04
647.40	2754.52
647.59	2650.07
647.78	2480.09
647.97	2605.02
648.16	2539.48
648.35	2906.07
648.54	2813.91
648.73	2615.26
648.91	2799.57
649.10	2688.98
649.29	2664.41
649.48	2686.94
649.67	2768.85
649.86	2785.24
650.05	2719.70
650.23	2848.72
650.42	2621.40
650.61	2947.03
650.80	2803.67
650.99	2973.65
651.18	2813.91
651.36	2861.01
651.55	2633.69
651.74	2809.81
651.93	2736.09
652.12	2660.31
652.31	2684.89
652.49	2629.59
652.68	2723.80
652.87	2916.31
653.06	2719.70
653.25	2928.60
653.44	2703.32
653.62	2998.23
653.81	2684.89
654.00	2637.78
654.19	2801.62
654.38	3166.16
654.56	2731.99
654.75	2666.46
654.94	2838.48
655.13	2770.90
655.32	2625.50
655.51	2791.38
655.69	2580.44
655.88	2842.58
656.07	2486.23
656.26	2645.98
656.45	2592.73
656.63	2715.61
656.82	2670.55
657.01	2883.54
657.20	2600.92
657.38	3018.71
657.57	2590.68
657.76	2535.39
657.95	2803.67
658.14	2602.97
658.32	2772.95
658.51	2592.73
658.70	2705.37
658.89	2826.20
659.08	2662.36
659.26	2838.48
659.45	2584.54
659.64	2777.05
659.83	2707.41
660.01	3084.24
660.20	2723.80
660.39	2983.89
660.58	2461.66
660.76	2713.56
660.95	2490.33
661.14	2764.76
661.33	2545.63
661.51	2580.44
661.70	2719.70
661.89	2809.81
662.08	2676.70
662.26	2467.80
662.45	2584.54
662.64	2938.84
662.83	2721.75
663.01	2516.95
663.20	2629.59
663.39	2928.60
663.58	2562.01
663.76	2586.58
663.95	2805.72
664.14	2545.63
664.32	2631.64
664.51	2570.20
664.70	2504.67
664.89	2721.75
665.07	2514.91
665.26	2803.67
665.45	2531.29
665.64	2858.96
665.82	2674.65
666.01	2781.14
666.20	2566.10
666.38	2852.82
666.57	2787.29
666.76	4261.82
666.95	9951.08
667.13	16987.90
667.32	21100.22
667.51	23881.36
667.69	25126.53
667.88	21845.68
668.07	15384.34
668.25	13018.94
668.44	11005.78
668.63	9510.77
668.81	8390.53
669.00	7327.63
669.19	6569.88
669.38	5722.02
669.56	4865.97
669.75	4163.52
669.94	3735.50
670.12	3289.04
670.31	3016.66
670.50	2873.30
670.68	2961.36
670.87	2893.78
671.06	2705.37
671.24	2674.65
671.43	2965.46
671.62	2731.99
671.80	2635.74
671.99	2740.18
672.18	2785.24
672.36	2869.20
672.55	2760.66
672.74	2691.03
672.92	2670.55
673.11	2815.96
673.29	2516.95
673.48	2793.43
673.67	2797.53
673.85	2910.16
674.04	2627.54
674.23	2695.13
674.41	3067.86
674.60	2600.92
674.79	2451.42
674.97	2551.77
675.16	2754.52
675.34	2928.60
675.53	2609.11
675.72	2639.83
675.90	2992.08
676.09	2652.12
676.28	2719.70
676.46	2484.19
676.65	2742.23
676.83	2602.97
677.02	2725.85
677.21	2711.51
677.39	2785.24
677.58	2721.75
677.77	2539.48
677.95	2555.86
678.14	2693.08
678.32	2654.17
678.51	2641.88
678.70	2906.07
678.88	2666.46
679.07	2731.99
679.25	2693.08
679.44	2650.07
679.63	2545.63
679.81	2824.15
680.00	2885.59
680.18	2736.09
680.37	2924.50
680.55	2717.65
680.74	2486.23
680.93	2512.86
681.11	2727.89
681.30	2699.22
681.48	2668.50
681.67	2635.74
681.85	2637.78
682.04	2572.25
682.23	2797.53
682.41	2709.46
682.60	2668.50
682.78	2662.36
682.97	2426.84
683.15	2670.55
683.34	2680.79
683.53	2912.21
683.71	2523.10
683.90	2752.47
684.08	2928.60
684.27	2701.27
684.45	2744.28
684.64	2865.11
684.82	2713.56
685.01	2850.77
685.19	2607.06
685.38	2910.16
685.57	2633.69
685.75	2641.88
685.94	2625.50
686.12	2578.39
686.31	2588.63
686.49	2940.88
686.68	2480.09
686.86	2623.45
687.05	2699.22
687.23	2928.60
687.42	2592.73
687.60	2441.18
687.79	2852.82
687.97	2936.79
688.16	2789.33
688.34	2858.96
688.53	2516.95
688.71	2777.05
688.90	2932.69
689.08	2605.02
689.27	2523.10
689.45	2762.71
689.64	2783.19
689.82	2758.61
690.01	2840.53
690.19	2752.47
690.38	2709.46
690.56	2785.24
690.75	2596.82
690.93	2713.56
691.12	2617.30
691.30	2658.26
691.49	2668.50
691.67	2717.65
691.86	2942.93
692.04	2654.17
692.23	2682.84
692.41	2748.37
692.60	2994.13
692.78	2852.82
692.97	2715.61
693.15	2811.86
693.34	2877.40
693.52	2834.39
693.71	2674.65
693.89	2703.32
694.08	2410.46
694.26	2754.52
694.44	2904.02
694.63	2861.01
694.81	2596.82
695.00	2547.67
695.18	2883.54
695.37	3106.77
695.55	2785.24
695.74	2674.65
695.92	2684.89
696.10	2904.02
696.29	2547.67
696.47	2625.50
696.66	2559.96
696.84	2525.15
697.03	2697.17
697.21	2904.02
697.40	4079.55
697.58	2877.40
697.76	2553.82
697.95	2676.70
698.13	2566.10
698.32	2619.35
698.50	2660.31
698.68	2691.03
698.87	2785.24
699.05	2883.54
699.24	2699.22
699.42	2549.72
699.61	2676.70
699.79	2719.70
699.97	2678.74
700.16	2504.67
700.34	2570.20
700.53	2715.61
700.71	2863.06
700.89	2826.20
701.08	2645.98
701.26	2697.17
701.45	3141.58
701.63	2635.74
701.81	2602.97
702.00	2676.70
702.18	2711.51
702.37	2643.93
702.55	2924.50
702.73	2826.20
702.92	2643.93
703.10	2895.83
703.28	2850.77
703.47	2623.45
703.65	2897.88
703.84	2772.95
704.02	2686.94
704.20	2926.55
704.39	2609.11
704.57	2602.97
704.75	2873.30
704.94	2725.85
705.12	2652.12
705.30	3092.43
705.49	5736.36
705.67	11851.60
705.86	17620.72
706.04	20383.43
706.22	22628.01
706.41	22738.60
706.59	17575.67
706.77	13289.27
706.96	11327.32
707.14	10313.57
707.32	8857.46
707.51	8001.41
707.69	6346.66
707.87	5322.67
708.06	4513.72
708.24	3848.13
708.42	3387.34
708.61	3387.34
708.79	2818.00
708.97	2748.37
709.16	2746.33
709.34	2764.76
709.52	2662.36
709.71	2602.97
709.89	2779.09
710.07	2580.44
710.26	2619.35
710.44	2629.59
710.62	2852.82
710.80	2734.04
710.99	2822.10
711.17	2828.24
711.35	2672.60
711.54	2674.65
711.72	2901.97
711.90	2695.13
712.09	2711.51
712.27	2652.12
712.45	2785.24
712.63	2621.40
712.82	2725.85
713.00	2703.32
713.18	2781.14
713.37	2803.67
713.55	2772.95
713.73	2791.38
713.91	2682.84
714.10	2621.40
714.28	2719.70
714.46	2719.70
714.65	2731.99
714.83	2641.88
715.01	2826.20
715.19	2781.14
715.38	2609.11
715.56	2768.85
715.74	2705.37
715.92	2588.63
716.11	2955.22
716.29	2453.47
716.47	2668.50
716.65	2682.84
716.84	2527.19
717.02	2742.23
717.20	2457.56
717.38	2617.30
717.57	2752.47
717.75	2662.36
717.93	2607.06
718.11	2787.29
718.30	2519.00
718.48	2703.32
718.66	2914.26
718.84	2789.33
719.03	2684.89
719.21	2484.19
719.39	3000.27
719.57	2875.35
719.75	2731.99
719.94	2598.87
720.12	2680.79
720.30	2758.61
720.48	2772.95
720.67	2631.64
720.85	2594.78
721.03	2668.50
721.21	2482.14
721.39	2736.09
721.58	2803.67
721.76	2746.33
721.94	2740.18
722.12	2713.56
722.30	2965.46
722.49	2674.65
722.67	2697.17
722.85	2654.17
723.03	2543.58
723.21	2682.84
723.40	2695.13
723.58	2793.43
723.76	2760.66
723.94	2873.30
724.12	2709.46
724.30	2897.88
724.49	2858.96
724.67	2553.82
724.85	2805.72
725.03	2514.91
725.21	2861.01
725.40	2897.88
725.58	2594.78
725.76	2891.73
725.94	2924.50
726.12	2553.82
726.30	2703.32
726.49	2662.36
726.67	2631.64
726.85	2764.76
727.03	3190.74
727.21	4087.75
727.39	5152.69
727.57	5668.78
727.76	5998.50
727.94	6174.63
728.12	5482.41
728.30	4591.55
728.48	4313.02
728.66	3942.34
728.84	3780.55
729.03	3305.42
729.21	3160.02
729.39	3014.61
729.57	2842.58
729.75	2895.83
729.93	2772.95
730.11	2586.58
730.30	2719.70
730.48	2856.92
730.66	2629.59
730.84	2693.08
731.02	2701.27
731.20	2635.74
731.38	2758.61
731.56	2564.06
731.74	2537.43
731.93	2738.13
732.11	2719.70
732.29	2633.69
732.47	2807.77
732.65	2705.37
732.83	2881.49
733.01	2727.89
733.19	2629.59
733.37	2789.33
733.56	2807.77
733.74	2574.30
733.92	2904.02
734.10	2635.74
734.28	2768.85
734.46	2416.60
734.64	2686.94
734.82	2703.32
735.00	2570.20
735.18	2648.02
735.36	2756.57
735.54	2594.78
735.73	2650.07
735.91	2770.90
736.09	2865.11
736.27	2748.37
736.45	2643.93
736.63	2480.09
736.81	2654.17
736.99	2861.01
737.17	2891.73
737.35	2660.31
737.53	2742.23
737.71	2617.30
737.89	2760.66
738.07	2547.67
738.25	2623.45
738.43	2514.91
738.61	2652.12
738.80	2478.04
738.98	2625.50
739.16	2656.22
739.34	2650.07
739.52	2883.54
739.70	2707.41
739.88	2789.33
740.06	2799.57
740.24	2473.95
740.42	2873.30
740.60	2506.71
740.78	2674.65
740.96	2467.80
741.14	2740.18
741.32	2701.27
741.50	2519.00
741.68	2854.87
741.86	2867.16
742.04	2494.43
742.22	2568.15
742.40	2711.51
742.58	2811.86
742.76	2658.26
742.94	2848.72
743.12	2529.24
743.30	2740.18
743.48	2791.38
743.66	2617.30
743.84	2828.24
744.02	2564.06
744.20	2721.75
744.38	2568.15
744.56	2562.01
744.74	2924.50
744.92	2842.58
745.10	2856.92
745.28	2752.47
745.46	2957.27
745.64	2670.55
745.82	2717.65
746.00	2631.64
746.18	2717.65
746.36	2633.69
746.54	2652.12
746.72	2723.80
746.90	2600.92
747.08	2957.27
747.26	2660.31
747.44	2768.85
747.62	2801.62
747.80	2752.47
747.98	2801.62
748.15	2590.68
748.33	3024.85
748.51	2678.74
748.69	2756.57
748.87	2492.38
749.05	2699.22
749.23	2656.22
749.41	2748.37
749.59	2688.98
749.77	2852.82
749.95	2662.36
750.13	2633.69
750.31	2746.33
750.49	2693.08
750.67	2777.05
750.85	2783.19
751.03	2672.60
751.20	3069.91
751.38	2686.94
751.56	2695.13
751.74	2695.13
751.92	2666.46
752.10	2564.06
752.28	2809.81
752.46	2635.74
752.64	2705.37
752.82	2777.05
753.00	2809.81
753.18	2648.02
753.35	2621.40
753.53	2605.02
753.71	2658.26
753.89	2758.61
754.07	2701.27
754.25	2813.91
754.43	2760.66
754.61	2639.83
754.79	2840.53
754.97	2666.46
755.14	2725.85
755.32	2539.48
755.50	2742.23
755.68	2824.15
755.86	2568.15
756.04	2602.97
756.22	2463.71
756.40	2799.57
756.57	2924.50
756.75	2596.82
756.93	2895.83
757.11	2820.05
757.29	2553.82
757.47	2600.92
757.65	2527.19
757.82	2418.65
758.00	2609.11
758.18	2607.06
758.36	2594.78
758.54	2936.79
758.72	2482.14
758.90	2820.05
759.07	2834.39
759.25	2521.05
759.43	2605.02
759.61	2547.67
759.79	3897.28
759.97	2779.09
760.15	2703.32
760.32	2637.78
760.50	2740.18
760.68	3000.27
760.86	2519.00
761.04	2891.73
761.22	2908.12
761.39	2688.98
761.57	2703.32
761.75	2600.92
761.93	2789.33
762.11	2658.26
762.28	2615.26
762.46	2543.58
762.64	2822.10
762.82	2543.58
763.00	2621.40
763.18	2830.29
763.35	2568.15
763.53	2760.66
763.71	2662.36
763.89	2666.46
764.07	2711.51
764.24	2731.99
764.42	2742.23
764.60	2672.60
764.78	2793.43
764.96	2906.07
765.13	2826.20
765.31	2605.02
765.49	2809.81
765.67	2480.09
765.84	2686.94
766.02	2553.82
766.20	2508.76
766.38	2809.81
766.56	2777.05
766.73	2717.65
766.91	2742.23
767.09	2631.64
767.27	2791.38
767.44	2545.63
767.62	2805.72
767.80	2791.38
767.98	2598.87
768.15	2734.04
768.33	2770.90
768.51	2873.30
768.69	2766.81
768.87	2629.59
769.04	2754.52
769.22	3108.82
769.40	2809.81
769.58	2797.53
769.75	2779.09
769.93	2865.11
770.11	2623.45
770.28	2562.01
770.46	2822.10
770.64	2779.09
770.82	2662.36
770.99	2613.21
771.17	2775.00
771.35	2680.79
771.53	2662.36
771.70	2596.82
771.88	2803.67
772.06	2635.74
772.23	2592.73
772.41	2695.13
772.59	2721.75
772.77	2598.87
772.94	2631.64
773.12	2664.41
773.30	2670.55
773.47	2746.33
773.65	2596.82
773.83	2768.85
774.01	2697.17
774.18	2492.38
774.36	2635.74
774.54	2535.39
774.71	2789.33
774.89	2508.76
775.07	2547.67
775.24	2512.86
775.42	2594.78
775.60	2957.27
775.78	2533.34
775.95	2580.44
776.13	2582.49
776.31	2473.95
776.48	2686.94
776.66	2815.96
776.84	2695.13
777.01	2584.54
777.19	2531.29
777.37	2531.29
777.54	2797.53
777.72	3055.57
777.90	2719.70
778.07	2535.39
778.25	3143.63
778.43	2926.55
778.60	2602.97
778.78	2723.80
778.96	2891.73
779.13	2496.47
779.31	2703.32
779.49	2652.12
779.66	2805.72
779.84	2658.26
780.01	2594.78
780.19	2510.81
780.37	2908.12
780.54	2863.06
780.72	2547.67
780.90	2574.30
781.07	2641.88
781.25	2676.70
781.43	2807.77
781.60	2613.21
781.78	2879.44
781.95	2684.89
782.13	2635.74
782.31	2609.11
782.48	2490.33
782.66	2672.60
782.83	2895.83
783.01	2682.84
783.19	2785.24
783.36	2666.46
783.54	2555.86
783.72	2756.57
783.89	2629.59
784.07	2715.61
784.24	2775.00
784.42	2803.67
784.60	2678.74
784.77	2777.05
784.95	2426.84
785.12	2572.25
785.30	2756.57
785.47	2576.34
785.65	2633.69
785.83	2609.11
786.00	2623.45
786.18	2711.51
786.35	2562.01
786.53	2582.49
786.71	2852.82
786.88	2865.11
787.06	2701.27
787.23	2678.74
787.41	2586.58
787.58	2691.03
787.76	2615.26
787.94	2695.13
788.11	2760.66
788.29	2539.48
788.46	2635.74
788.64	2523.10
788.81	2590.68
788.99	2564.06
789.16	2543.58
789.34	2600.92
789.52	2590.68
789.69	2674.65
789.87	2512.86
790.04	2594.78
790.22	2709.46
790.39	3108.82
790.57	2510.81
790.74	2539.48
790.92	2873.30
791.09	2471.90
791.27	2695.13
791.44	2799.57
791.62	2611.16
791.79	2758.61
791.97	2709.46
792.15	3035.09
792.32	2807.77
792.50	2760.66
792.67	2818.00
792.85	2916.31
793.02	2674.65
793.20	2699.22
793.37	2506.71
793.55	2619.35
793.72	2529.24
793.90	2754.52
794.07	2596.82
794.25	2578.39
794.42	2811.86
794.60	2680.79
794.77	2740.18
794.95	2840.53
795.12	2791.38
795.30	2682.84
795.47	2418.65
795.65	2983.89
795.82	2676.70
796.00	2600.92
796.17	2668.50
796.34	2529.24
796.52	2813.91
796.69	2824.15
796.87	2693.08
797.04	2766.81
797.22	2824.15
797.39	2727.89
797.57	2781.14
797.74	2660.31
797.92	2764.76
798.09	2611.16
798.27	2867.16
798.44	2613.21
798.62	2578.39
798.79	2752.47
798.96	2660.31
799.14	2637.78
799.31	3098.58
799.49	2693.08
799.66	2562.01
799.84	2705.37
800.01	2516.95
800.19	2731.99
800.36	2445.27
800.53	2709.46
800.71	2768.85
800.88	2889.68
801.06	2607.06
801.23	2654.17
801.41	2643.93
801.58	2668.50
801.75	2547.67
801.93	2709.46
802.10	2842.58
802.28	2725.85
802.45	2596.82
802.63	2693.08
802.80	2893.78
802.97	2648.02
803.15	2621.40
803.32	2676.70
803.50	2662.36
803.67	2637.78
803.84	2488.28
804.02	2613.21
804.19	2645.98
804.37	2428.89
804.54	2586.58
804.71	2648.02
804.89	2725.85
805.06	2652.12
805.24	2559.96
805.41	2516.95
805.58	2582.49
805.76	3026.90
805.93	2633.69
806.10	2809.81
806.28	2799.57
806.45	2707.41
806.63	2785.24
806.80	2695.13
806.97	2723.80
807.15	2727.89
807.32	2662.36
807.49	2578.39
807.67	2562.01
807.84	2631.64
808.01	2461.66
808.19	2807.77
808.36	3090.38
808.54	2574.30
808.71	2559.96
808.88	2686.94
809.06	2861.01
809.23	2990.03
809.40	2613.21
809.58	2750.42
809.75	2686.94
809.92	2596.82
810.10	2914.26
810.27	2635.74
810.44	2813.91
810.62	2811.86
810.79	2717.65
810.96	2623.45
811.14	2666.46
811.31	2793.43
811.48	2707.41
811.66	2668.50
811.83	2813.91
812.00	2775.00
812.18	2740.18
812.35	2955.22
812.52	2666.46
812.69	2664.41
812.87	2625.50
813.04	2576.34
813.21	2779.09
813.39	2602.97
813.56	2598.87
813.73	2893.78
813.91	2545.63
814.08	2676.70
814.25	2719.70
814.42	2469.85
814.60	2635.74
814.77	2766.81
814.94	2590.68
815.12	2678.74
815.29	2940.88
815.46	2680.79
815.63	2750.42
815.81	2652.12
815.98	2662.36
816.15	2742.23
816.33	2637.78
816.50	2643.93
816.67	2643.93
816.84	2645.98
817.02	2576.34
817.19	2635.74
817.36	2766.81
817.53	2699.22
817.71	2523.10
817.88	2746.33
818.05	2713.56
818.22	2691.03
818.40	2854.87
818.57	2645.98
818.74	2797.53
818.91	2803.67
819.09	2818.00
819.26	2742.23
819.43	2562.01
819.60	2543.58
819.78	2746.33
819.95	2779.09
820.12	2627.54
820.29	2924.50
820.47	2846.68
820.64	2639.83
820.81	2566.10
820.98	2492.38
821.15	2658.26
821.33	2781.14
821.50	2465.75
821.67	2826.20
821.84	2656.22
822.02	2813.91
822.19	2852.82
822.36	2652.12
822.53	2568.15
822.70	2510.81
822.88	2680.79
823.05	2854.87
823.22	2740.18
823.39	2703.32
823.56	2756.57
823.74	2955.22
823.91	2523.10
824.08	2514.91
824.25	2605.02
824.42	3010.51
824.60	2506.71
824.77	2783.19
824.94	2680.79
825.11	2801.62
825.28	2494.43
825.45	2672.60
825.63	2717.65
825.80	2623.45
825.97	2693.08
826.14	2674.65
826.31	2471.90
826.48	2740.18
826.66	2572.25
826.83	2584.54
827.00	2734.04
827.17	2650.07
827.34	2650.07
827.51	2570.20
827.69	2711.51
827.86	2592.73
828.03	2580.44
828.20	2713.56
828.37	2605.02
828.54	2707.41
828.71	2574.30
828.89	2852.82
829.06	2727.89
829.23	2975.70
829.40	2502.62
829.57	2596.82
829.74	2793.43
829.91	2615.26
830.09	2627.54
830.26	2719.70
830.43	2920.40
830.60	2705.37
830.77	2770.90
830.94	2879.44
831.11	2801.62
831.28	2731.99
831.46	2760.66
831.63	2641.88
831.80	2803.67
831.97	2533.34
832.14	2658.26
832.31	2701.27
832.48	2731.99
832.65	2906.07
832.82	2748.37
832.99	2750.42
833.17	2523.10
833.34	2924.50
833.51	2695.13
833.68	2408.41
833.85	2904.02
834.02	2543.58
834.19	2621.40
834.36	2553.82
834.53	2748.37
834.70	2861.01
834.87	2727.89
835.04	2521.05
835.22	2678.74
835.39	2650.07
835.56	2492.38
835.73	2654.17
835.90	2758.61
836.07	2539.48
836.24	2686.94
836.41	2435.03
836.58	2578.39
836.75	2850.77
836.92	2613.21
837.09	2506.71
837.26	2879.44
837.43	2691.03
837.60	2619.35
837.77	2631.64
837.94	2901.97
838.12	2938.84
838.29	2537.43
838.46	2488.28
838.63	2529.24
838.80	2961.36
838.97	2543.58
839.14	2551.77
839.31	2791.38
839.48	2904.02
839.65	2531.29
839.82	2643.93
839.99	2691.03
840.16	2770.90
840.33	2461.66
840.50	2627.54
840.67	2596.82
840.84	2398.17
841.01	2570.20
841.18	2549.72
841.35	2668.50
841.52	2809.81
841.69	2879.44
841.86	2525.15
842.03	2662.36
842.20	2883.54
842.37	2598.87
842.54	2590.68
842.71	2701.27
842.88	2516.95
843.05	2588.63
843.22	2519.00
843.39	2873.30
843.56	2602.97
843.73	2594.78
843.90	2551.77
844.07	2686.94
844.24	2795.48
844.41	2623.45
844.58	2547.67
844.75	2668.50
844.92	2789.33
845.09	2615.26
845.26	2551.77
845.43	2783.19
845.60	2734.04
845.77	2654.17
845.94	2617.30
846.10	2842.58
846.27	2506.71
846.44	2484.19
846.61	2439.13
846.78	2781.14
846.95	2875.35
847.12	2539.48
847.29	2621.40
847.46	2674.65
847.63	2740.18
847.80	2535.39
847.97	2533.34
848.14	3035.09
848.31	2742.23
848.48	2502.62
848.65	2705.37
848.82	2666.46
848.98	3082.19
849.15	2652.12
849.32	2699.22
849.49	2824.15
849.66	2670.55
849.83	2559.96
850.00	2443.23
850.17	2873.30
850.34	2633.69
850.51	2482.14
850.68	2598.87
850.85	3016.66
851.01	2748.37
851.18	2557.91
851.35	2617.30
851.52	2793.43
851.69	2918.36
851.86	2488.28
852.03	2478.04
852.20	2848.72
852.37	2736.09
852.53	2408.41
852.70	2521.05
852.87	2746.33
853.04	2781.14
853.21	2527.19
853.38	2680.79
853.55	2985.94
853.72	2904.02
853.89	2512.86
854.05	2549.72
854.22	2705.37
854.39	2719.70
854.56	2439.13
854.73	2674.65
854.90	2590.68
855.07	2645.98
855.23	2525.15
855.40	2596.82
855.57	2674.65
855.74	2414.56
855.91	2695.13
856.08	2400.22
856.25	2527.19
856.41	2670.55
856.58	2500.57
856.75	2570.20
856.92	2541.53
857.09	2824.15
857.26	2443.23
857.42	2525.15
857.59	2826.20
857.76	2662.36
857.93	2582.49
858.10	2670.55
858.27	2512.86
858.43	2699.22
858.60	2514.91
858.77	2443.23
858.94	2598.87
859.11	2861.01
859.27	2641.88
859.44	2467.80
859.61	3051.47
859.78	2775.00
859.95	2596.82
860.12	2514.91
860.28	3063.76
860.45	2998.23
860.62	2463.71
860.79	2666.46
860.95	2648.02
861.12	2555.86
861.29	2441.18
861.46	2494.43
861.63	2643.93
861.79	2703.32
861.96	2500.57
862.13	2508.76
862.30	2865.11
862.47	2533.34
862.63	2471.90
862.80	2547.67
862.97	2764.76
863.14	2703.32
863.30	2680.79
863.47	2508.76
863.64	2938.84
863.81	2742.23
863.97	2486.23
864.14	2572.25
864.31	2656.22
864.48	2643.93
864.65	2531.29
864.81	2688.98
864.98	2742.23
865.15	2879.44
865.32	2645.98
865.48	2619.35
865.65	2975.70
865.82	2658.26
865.98	2643.93
866.15	2666.46
866.32	2762.71
866.49	2611.16
866.65	2715.61
866.82	2621.40
866.99	2721.75
867.16	2557.91
867.32	2555.86
867.49	2478.04
867.66	2652.12
867.83	2609.11
867.99	2441.18
868.16	2531.29
868.33	2512.86
868.49	2670.55
868.66	2519.00
868.83	2674.65
868.99	2736.09
869.16	2695.13
869.33	2662.36
869.50	2635.74
869.66	2684.89
869.83	2643.93
870.00	2484.19
870.16	2668.50
870.33	2658.26
870.50	2793.43
870.66	2705.37
870.83	2633.69
871.00	2641.88
871.17	2787.29
871.33	2568.15
871.50	2478.04
871.67	2719.70
871.83	2635.74
872.00	2697.17
872.17	2514.91
872.33	2973.65
872.50	2858.96
872.67	2574.30
872.83	2543.58
873.00	2818.00
873.17	2742.23
873.33	2598.87
873.50	2617.30
873.67	2641.88
873.83	2613.21
874.00	2496.47
874.16	2703.32
874.33	2707.41
874.50	2512.86
874.66	2580.44
874.83	2576.34
875.00	2858.96
875.16	2830.29
875.33	2658.26
875.50	2400.22
875.66	2709.46
875.83	2734.04
875.99	2650.07
876.16	2613.21
876.33	2578.39
876.49	2719.70
876.66	2645.98
876.83	2625.50
876.99	2516.95
877.16	2678.74
877.32	2439.13
877.49	2531.29
877.66	2762.71
877.82	2818.00
877.99	2580.44
878.15	2697.17
878.32	2705.37
878.49	2748.37
878.65	2629.59
878.82	2779.09
878.98	2611.16
879.15	2867.16
879.32	2670.55
879.48	2674.65
879.65	2682.84
879.81	2717.65
879.98	2543.58
880.15	2533.34
880.31	2793.43
880.48	2641.88
880.64	2695.13
880.81	2660.31
880.97	2901.97
881.14	2779.09
881.31	2465.75
881.47	2748.37
881.64	2660.31
881.80	2471.90
881.97	2629.59
882.13	2562.01
882.30	2645.98
882.47	2566.10
882.63	2516.95
882.80	2600.92
882.96	2666.46
883.13	2934.74
883.29	2555.86
883.46	2650.07
883.62	3028.95
883.79	2715.61
883.95	2672.60
884.12	2600.92
884.29	2746.33
884.45	2760.66
884.62	2600.92
884.78	2506.71
884.95	2865.11
885.11	2633.69
885.28	2658.26
885.44	2596.82
885.61	2779.09
885.77	2889.68
885.94	2670.55
886.10	2602.97
886.27	2727.89
886.43	3010.51
886.60	2748.37
886.76	2521.05
886.93	2625.50
887.09	2807.77
887.26	2373.60
887.42	2588.63
887.59	2850.77
887.75	3086.29
887.92	2717.65
888.08	2648.02
888.25	2969.55
888.41	2867.16
888.58	2564.06
888.74	2490.33
888.91	2711.51
>>>>>End Processed Spectral Data<<<<<
