SpectraSuite Data File
++++++++++++++++++++++++++++++++++++
Date: Thu May 05 16:20:57 CEST 2016
User: root
Dark Spectrum Present: No
Reference Spectrum Present: No
Number of Sampled Component Spectra: 1
Spectrometers: USB4C02835
Integration Time (usec): 100000 (USB4C02835)
Spectra Averaged: 1 (USB4C02835)
Boxcar Smoothing: 0 (USB4C02835)
Correct for Electrical Dark: No (USB4C02835)
Strobe/Lamp Enabled: No (USB4C02835)
Correct for Detector Non-linearity: No (USB4C02835)
Correct for Stray Light: No (USB4C02835)
Number of Pixels in Processed Spectrum: 3648
>>>>>Begin Processed Spectral Data<<<<<
177.47	2041.82
177.69	2041.82
177.91	2041.82
178.13	1955.81
178.36	2021.35
178.58	2629.59
178.80	2731.99
179.02	2451.42
179.24	2451.42
179.46	2414.56
179.68	2533.34
179.90	2705.37
180.13	2674.65
180.35	2353.12
180.57	2426.84
180.79	2832.34
181.01	2664.41
181.23	2506.71
181.45	2613.21
181.67	2754.52
181.90	2895.83
182.12	2623.45
182.34	2357.21
182.56	2803.67
182.78	2820.05
183.00	2455.51
183.22	2508.76
183.44	2406.36
183.66	3149.78
183.89	2701.27
184.11	2430.94
184.33	2791.38
184.55	2844.63
184.77	2498.52
184.99	2535.39
185.21	2645.98
185.43	3176.40
185.65	2500.57
185.87	2387.93
186.10	3080.14
186.32	3082.19
186.54	2611.16
186.76	2596.82
186.98	2889.68
187.20	2746.33
187.42	2590.68
187.64	2545.63
187.86	2746.33
188.08	2822.10
188.30	2447.32
188.52	2523.10
188.75	2875.35
188.97	2901.97
189.19	2475.99
189.41	2531.29
189.63	2772.95
189.85	2643.93
190.07	2432.99
190.29	2465.75
190.51	2846.68
190.73	2582.49
190.95	2629.59
191.17	2449.37
191.39	2514.91
191.61	2680.79
191.84	2496.47
192.06	2576.34
192.28	2588.63
192.50	3088.34
192.72	2617.30
192.94	2555.86
193.16	2961.36
193.38	2731.99
193.60	2424.80
193.82	2619.35
194.04	2951.12
194.26	2826.20
194.48	2471.90
194.70	2492.38
194.92	2621.40
195.14	2877.40
195.36	2510.81
195.58	2605.02
195.80	2688.98
196.02	2652.12
196.24	2490.33
196.46	2607.06
196.69	2688.98
196.91	3090.38
197.13	2553.82
197.35	2537.43
197.57	2969.55
197.79	2785.24
198.01	2586.58
198.23	2490.33
198.45	2785.24
198.67	2557.91
198.89	2400.22
199.11	2600.92
199.33	2576.34
199.55	2451.42
199.77	2543.58
199.99	2666.46
200.21	2609.11
200.43	2727.89
200.65	2383.84
200.87	2336.73
201.09	2754.52
201.31	2629.59
201.53	2549.72
201.75	2619.35
201.97	2803.67
202.19	2734.04
202.41	2562.01
202.63	2664.41
202.85	2797.53
203.07	2731.99
203.29	2559.96
203.51	2389.98
203.73	2684.89
203.95	3188.69
204.17	2555.86
204.39	2650.07
204.61	2736.09
204.83	2684.89
205.05	2607.06
205.27	2557.91
205.49	3082.19
205.71	2674.65
205.93	2389.98
206.15	2432.99
206.37	2772.95
206.59	2637.78
206.81	2416.60
207.03	2379.74
207.25	2609.11
207.47	2820.05
207.69	2545.63
207.91	2789.33
208.13	2889.68
208.34	2584.54
208.56	2428.89
208.78	2543.58
209.00	2643.93
209.22	2613.21
209.44	2531.29
209.66	2416.60
209.88	2799.57
210.10	2662.36
210.32	2420.70
210.54	2607.06
210.76	2775.00
210.98	2840.53
211.20	2478.04
211.42	2572.25
211.64	2936.79
211.86	2734.04
212.08	2529.24
212.30	2557.91
212.52	2750.42
212.74	2818.00
212.96	2545.63
213.17	2609.11
213.39	2789.33
213.61	2934.74
213.83	2484.19
214.05	2414.56
214.27	2850.77
214.49	2600.92
214.71	2475.99
214.93	2648.02
215.15	2746.33
215.37	2834.39
215.59	2398.17
215.81	2633.69
216.03	2840.53
216.24	2637.78
216.46	2541.53
216.68	2615.26
216.90	2863.06
217.12	2930.64
217.34	2543.58
217.56	2641.88
217.78	2985.94
218.00	2746.33
218.22	2572.25
218.44	2582.49
218.66	2723.80
218.87	2979.79
219.09	2533.34
219.31	2537.43
219.53	2727.89
219.75	2613.21
219.97	2588.63
220.19	2500.57
220.41	2764.76
220.63	2944.98
220.85	2525.15
221.06	2480.09
221.28	2891.73
221.50	2854.87
221.72	2490.33
221.94	2445.27
222.16	2731.99
222.38	2818.00
222.60	2471.90
222.82	2537.43
223.03	2953.17
223.25	2557.91
223.47	2506.71
223.69	2648.02
223.91	2850.77
224.13	2711.51
224.35	2441.18
224.57	2727.89
224.78	2889.68
225.00	2553.82
225.22	2590.68
225.44	2498.52
225.66	2725.85
225.88	2654.17
226.10	2588.63
226.32	2498.52
226.53	2891.73
226.75	2668.50
226.97	2543.58
227.19	2455.51
227.41	2576.34
227.63	2594.78
227.85	2316.25
228.06	2463.71
228.28	2779.09
228.50	2848.72
228.72	2367.45
228.94	2461.66
229.16	2430.94
229.37	2480.09
229.59	2502.62
229.81	2686.94
230.03	2637.78
230.25	2514.91
230.47	2389.98
230.69	2504.67
230.90	2838.48
231.12	2547.67
231.34	2506.71
231.56	2557.91
231.78	2609.11
232.00	2670.55
232.21	2471.90
232.43	2496.47
232.65	2387.93
232.87	2861.01
233.09	2445.27
233.30	2443.23
233.52	2836.44
233.74	2660.31
233.96	2523.10
234.18	2660.31
234.40	2768.85
234.61	3008.47
234.83	2486.23
235.05	2441.18
235.27	3018.71
235.49	2832.34
235.70	2471.90
235.92	2660.31
236.14	2830.29
236.36	3069.91
236.58	2314.20
236.79	2580.44
237.01	2695.13
237.23	2740.18
237.45	2697.17
237.67	2580.44
237.88	2717.65
238.10	2990.03
238.32	2406.36
238.54	2519.00
238.76	2676.70
238.97	2539.48
239.19	2416.60
239.41	2557.91
239.63	2906.07
239.85	2635.74
240.06	2506.71
240.28	2514.91
240.50	2856.92
240.72	2703.32
240.93	2404.32
241.15	2658.26
241.37	2758.61
241.59	2916.31
241.81	2492.38
242.02	2539.48
242.24	2729.94
242.46	2846.68
242.68	2445.27
242.89	2480.09
243.11	2842.58
243.33	2705.37
243.55	2531.29
243.76	2584.54
243.98	2662.36
244.20	2809.81
244.42	2506.71
244.64	2557.91
244.85	2568.15
245.07	2459.61
245.29	2531.29
245.51	2559.96
245.72	2822.10
245.94	2924.50
246.16	2480.09
246.38	2568.15
246.59	2725.85
246.81	2592.73
247.03	2449.37
247.24	2430.94
247.46	2643.93
247.68	2709.46
247.90	2484.19
248.11	2461.66
248.33	2904.02
248.55	2703.32
248.77	2559.96
248.98	2508.76
249.20	2994.13
249.42	2709.46
249.64	2543.58
249.85	2488.28
250.07	2670.55
250.29	2836.44
250.50	2564.06
250.72	2457.56
250.94	2785.24
251.16	3037.14
251.37	2494.43
251.59	2598.87
251.81	2822.10
252.02	2877.40
252.24	2435.03
252.46	2664.41
252.68	2676.70
252.89	2639.83
253.11	2375.64
253.33	2693.08
253.54	2959.31
253.76	2512.86
253.98	2512.86
254.20	2430.94
254.41	2566.10
254.63	2701.27
254.85	2428.89
255.06	2506.71
255.28	2750.42
255.50	2607.06
255.71	2531.29
255.93	2432.99
256.15	2648.02
256.36	2809.81
256.58	2375.64
256.80	2432.99
257.02	2693.08
257.23	2680.79
257.45	2588.63
257.67	2641.88
257.88	2672.60
258.10	2686.94
258.32	2488.28
258.53	2605.02
258.75	2979.79
258.97	2639.83
259.18	2498.52
259.40	2523.10
259.62	2998.23
259.83	2897.88
260.05	2629.59
260.27	3170.26
260.48	2830.29
260.70	2521.05
260.92	2439.13
261.13	2512.86
261.35	2797.53
261.57	2762.71
261.78	2439.13
262.00	2463.71
262.22	2744.28
262.43	2643.93
262.65	2471.90
262.86	2557.91
263.08	3092.43
263.30	2760.66
263.51	2389.98
263.73	2473.95
263.95	2867.16
264.16	2619.35
264.38	2439.13
264.60	2482.14
264.81	2727.89
265.03	2844.63
265.25	2752.47
265.46	2447.32
265.68	2910.16
265.89	2750.42
266.11	2445.27
266.33	2494.43
266.54	2865.11
266.76	2791.38
266.98	2633.69
267.19	2609.11
267.41	2830.29
267.62	2750.42
267.84	2381.79
268.06	2580.44
268.27	2734.04
268.49	2912.21
268.70	2652.12
268.92	2531.29
269.14	2641.88
269.35	2574.30
269.57	2686.94
269.79	2639.83
270.00	2580.44
270.22	2920.40
270.43	2424.80
270.65	2443.23
270.87	2797.53
271.08	2848.72
271.30	2678.74
271.51	2547.67
271.73	2838.48
271.95	2914.26
272.16	2492.38
272.38	2605.02
272.59	2582.49
272.81	2670.55
273.02	2508.76
273.24	2492.38
273.46	2881.49
273.67	2514.91
273.89	2480.09
274.10	2484.19
274.32	2879.44
274.54	2799.57
274.75	2637.78
274.97	2537.43
275.18	2793.43
275.40	2801.62
275.61	2523.10
275.83	2629.59
276.05	2562.01
276.26	2750.42
276.48	2645.98
276.69	2572.25
276.91	2637.78
277.12	2895.83
277.34	2709.46
277.55	2705.37
277.77	2795.48
277.99	2676.70
278.20	2551.77
278.42	2449.37
278.63	2596.82
278.85	2607.06
279.06	2469.85
279.28	2686.94
279.49	2844.63
279.71	2875.35
279.93	2670.55
280.14	2625.50
280.36	2693.08
280.57	2975.70
280.79	2654.17
281.00	2494.43
281.22	2625.50
281.43	2922.45
281.65	2420.70
281.86	2529.24
282.08	2809.81
282.29	2967.51
282.51	2432.99
282.73	2529.24
282.94	2432.99
283.16	2904.02
283.37	2789.33
283.59	2643.93
283.80	2824.15
284.02	2674.65
284.23	2650.07
284.45	2668.50
284.66	2596.82
284.88	2650.07
285.09	2506.71
285.31	2658.26
285.52	2834.39
285.74	2463.71
285.95	2801.62
286.17	2652.12
286.38	2822.10
286.60	2707.41
286.81	2629.59
287.03	2557.91
287.24	2768.85
287.46	2750.42
287.67	2744.28
287.89	2815.96
288.10	2691.03
288.32	2711.51
288.53	2764.76
288.75	2611.16
288.96	2834.39
289.18	2613.21
289.39	2531.29
289.61	2617.30
289.82	3012.56
290.04	3051.47
290.25	2480.09
290.47	2738.13
290.68	2715.61
290.90	2760.66
291.11	2426.84
291.33	2725.85
291.54	2635.74
291.76	2637.78
291.97	2645.98
292.18	2678.74
292.40	2688.98
292.61	2559.96
292.83	2844.63
293.04	2639.83
293.26	2779.09
293.47	2664.41
293.69	2564.06
293.90	2586.58
294.12	2918.36
294.33	2740.18
294.55	2637.78
294.76	2750.42
294.97	2897.88
295.19	2996.18
295.40	2654.17
295.62	2645.98
295.83	2904.02
296.05	2619.35
296.26	2719.70
296.48	2586.58
296.69	2686.94
296.90	2650.07
297.12	2719.70
297.33	2727.89
297.55	2762.71
297.76	2717.65
297.98	2666.46
298.19	2740.18
298.41	2721.75
298.62	2570.20
298.83	2691.03
299.05	2674.65
299.26	2666.46
299.48	2611.16
299.69	2723.80
299.90	2637.78
300.12	2588.63
300.33	2858.96
300.55	2660.31
300.76	2654.17
300.98	2510.81
301.19	2809.81
301.40	2578.39
301.62	2551.77
301.83	2830.29
302.05	2701.27
302.26	2633.69
302.47	2586.58
302.69	2582.49
302.90	2846.68
303.12	2359.26
303.33	2707.41
303.54	3014.61
303.76	2650.07
303.97	2629.59
304.19	2801.62
304.40	2623.45
304.61	2775.00
304.83	2736.09
305.04	2738.13
305.26	2797.53
305.47	2740.18
305.68	2619.35
305.90	2510.81
306.11	3000.27
306.33	2701.27
306.54	2482.14
306.75	2596.82
306.97	2457.56
307.18	2539.48
307.39	2566.10
307.61	2635.74
307.82	2686.94
308.04	2799.57
308.25	2412.51
308.46	2703.32
308.68	2703.32
308.89	2772.95
309.10	2719.70
309.32	2639.83
309.53	2764.76
309.74	2721.75
309.96	2545.63
310.17	2758.61
310.39	2643.93
310.60	2815.96
310.81	2576.34
311.03	2494.43
311.24	2832.34
311.45	2701.27
311.67	2791.38
311.88	2688.98
312.09	2717.65
312.31	2580.44
312.52	2478.04
312.73	2617.30
312.95	2551.77
313.16	2574.30
313.37	2781.14
313.59	2744.28
313.80	2818.00
314.01	2977.75
314.23	2596.82
314.44	2514.91
314.65	2555.86
314.87	2592.73
315.08	2666.46
315.29	2572.25
315.51	2584.54
315.72	2537.43
315.93	2746.33
316.15	2670.55
316.36	2637.78
316.57	2676.70
316.79	2693.08
317.00	2615.26
317.21	2729.94
317.43	2596.82
317.64	2658.26
317.85	2506.71
318.07	2570.20
318.28	2639.83
318.49	2629.59
318.70	2846.68
318.92	2830.29
319.13	2791.38
319.34	2840.53
319.56	2625.50
319.77	2760.66
319.98	2818.00
320.20	2838.48
320.41	2645.98
320.62	2783.19
320.83	2639.83
321.05	2869.20
321.26	2729.94
321.47	2738.13
321.69	2936.79
321.90	2568.15
322.11	2547.67
322.32	2807.77
322.54	2908.12
322.75	2543.58
322.96	3174.35
323.18	2555.86
323.39	2523.10
323.60	2568.15
323.81	2727.89
324.03	2570.20
324.24	2670.55
324.45	2697.17
324.66	2607.06
324.88	2928.60
325.09	2971.60
325.30	2594.78
325.52	2551.77
325.73	2713.56
325.94	2643.93
326.15	2465.75
326.37	2553.82
326.58	2850.77
326.79	2971.60
327.00	2590.68
327.22	2580.44
327.43	2660.31
327.64	2527.19
327.85	2641.88
328.07	2582.49
328.28	2992.08
328.49	2586.58
328.70	2619.35
328.92	2539.48
329.13	2652.12
329.34	2789.33
329.55	2873.30
329.76	2762.71
329.98	2738.13
330.19	2944.98
330.40	2758.61
330.61	2719.70
330.83	2822.10
331.04	2570.20
331.25	2691.03
331.46	2562.01
331.68	2529.24
331.89	2832.34
332.10	2631.64
332.31	2500.57
332.52	2750.42
332.74	2856.92
332.95	2504.67
333.16	2549.72
333.37	2775.00
333.58	2674.65
333.80	2611.16
334.01	2445.27
334.22	2699.22
334.43	2594.78
334.64	2512.86
334.86	2453.47
335.07	2559.96
335.28	2998.23
335.49	2498.52
335.70	2754.52
335.92	2953.17
336.13	3020.75
336.34	2715.61
336.55	2641.88
336.76	2777.05
336.98	2461.66
337.19	2697.17
337.40	2785.24
337.61	3055.57
337.82	2615.26
338.04	2684.89
338.25	2510.81
338.46	2654.17
338.67	2746.33
338.88	2539.48
339.09	2490.33
339.31	2686.94
339.52	2521.05
339.73	2490.33
339.94	2605.02
340.15	2820.05
340.36	2668.50
340.58	2621.40
340.79	2578.39
341.00	2826.20
341.21	2588.63
341.42	2850.77
341.63	2627.54
341.85	2867.16
342.06	2672.60
342.27	2510.81
342.48	2711.51
342.69	2488.28
342.90	2731.99
343.12	2781.14
343.33	2617.30
343.54	2781.14
343.75	2840.53
343.96	2746.33
344.17	2541.53
344.38	2861.01
344.60	2531.29
344.81	2510.81
345.02	2613.21
345.23	2869.20
345.44	3061.71
345.65	2686.94
345.86	2693.08
346.07	2842.58
346.29	2605.02
346.50	2697.17
346.71	2717.65
346.92	2871.25
347.13	2983.89
347.34	2623.45
347.55	2549.72
347.76	2824.15
347.98	2488.28
348.19	2682.84
348.40	2762.71
348.61	2562.01
348.82	2953.17
349.03	2686.94
349.24	2514.91
349.45	3039.19
349.66	2496.47
349.88	2621.40
350.09	2549.72
350.30	2914.26
350.51	2930.64
350.72	2664.41
350.93	2621.40
351.14	2631.64
351.35	2824.15
351.56	2609.11
351.77	2637.78
351.99	2768.85
352.20	2918.36
352.41	2748.37
352.62	2441.18
352.83	2738.13
353.04	2674.65
353.25	2613.21
353.46	2707.41
353.67	2916.31
353.88	2432.99
354.09	2625.50
354.30	2680.79
354.52	2801.62
354.73	2693.08
354.94	2510.81
355.15	2594.78
355.36	2975.70
355.57	2684.89
355.78	2613.21
355.99	2453.47
356.20	2713.56
356.41	2867.16
356.62	2600.92
356.83	2666.46
357.04	2916.31
357.25	2406.36
357.46	2615.26
357.68	2482.14
357.89	2572.25
358.10	2672.60
358.31	2562.01
358.52	2664.41
358.73	2519.00
358.94	2562.01
359.15	2615.26
359.36	2721.75
359.57	2795.48
359.78	2670.55
359.99	2703.32
360.20	2521.05
360.41	2670.55
360.62	2850.77
360.83	2670.55
361.04	2684.89
361.25	2717.65
361.46	2893.78
361.67	2719.70
361.88	2639.83
362.09	2914.26
362.30	2807.77
362.51	2521.05
362.72	2629.59
362.93	2918.36
363.14	2815.96
363.35	2588.63
363.56	2572.25
363.78	2863.06
363.99	2748.37
364.20	2623.45
364.41	2654.17
364.62	3022.80
364.83	2781.14
365.04	2533.34
365.25	2566.10
365.46	3045.33
365.67	2572.25
365.88	2674.65
366.09	2600.92
366.30	2574.30
366.51	2697.17
366.72	2502.62
366.93	2576.34
367.14	2746.33
367.35	2883.54
367.56	2543.58
367.77	2701.27
367.98	2650.07
368.18	2797.53
368.39	2701.27
368.60	2555.86
368.81	2818.00
369.02	2873.30
369.23	2688.98
369.44	2435.03
369.65	2660.31
369.86	2781.14
370.07	2777.05
370.28	2535.39
370.49	2768.85
370.70	2820.05
370.91	2498.52
371.12	2482.14
371.33	2824.15
371.54	2588.63
371.75	2725.85
371.96	2402.27
372.17	2787.29
372.38	2650.07
372.59	2750.42
372.80	2580.44
373.01	2731.99
373.22	2668.50
373.43	2670.55
373.64	2523.10
373.85	2842.58
374.06	2926.55
374.26	2768.85
374.47	2744.28
374.68	2918.36
374.89	2711.51
375.10	2600.92
375.31	2746.33
375.52	2756.57
375.73	2629.59
375.94	2486.23
376.15	2684.89
376.36	2572.25
376.57	2627.54
376.78	2627.54
376.99	2629.59
377.20	2908.12
377.40	2688.98
377.61	2789.33
377.82	2529.24
378.03	2951.12
378.24	2727.89
378.45	2691.03
378.66	2676.70
378.87	2516.95
379.08	2553.82
379.29	2555.86
379.50	2746.33
379.71	2658.26
379.91	2830.29
380.12	2545.63
380.33	2729.94
380.54	2648.02
380.75	2717.65
380.96	2611.16
381.17	2676.70
381.38	2666.46
381.59	2719.70
381.80	2668.50
382.00	2863.06
382.21	2705.37
382.42	2951.12
382.63	2918.36
382.84	2754.52
383.05	2920.40
383.26	2908.12
383.47	2641.88
383.68	2615.26
383.88	2838.48
384.09	2783.19
384.30	2789.33
384.51	2758.61
384.72	2631.64
384.93	2514.91
385.14	2684.89
385.35	2836.44
385.55	2559.96
385.76	2930.64
385.97	2686.94
386.18	2525.15
386.39	2629.59
386.60	2680.79
386.81	2643.93
387.02	2576.34
387.22	2535.39
387.43	2852.82
387.64	2793.43
387.85	2830.29
388.06	2863.06
388.27	3917.76
388.48	7567.24
388.68	10944.34
388.89	13430.58
389.10	14389.03
389.31	13702.96
389.52	10925.91
389.73	9424.75
389.93	8654.72
390.14	7837.58
390.35	7004.05
390.56	6465.44
390.77	5283.76
390.98	4050.88
391.18	3424.20
391.39	3104.72
391.60	2768.85
391.81	2826.20
392.02	2629.59
392.23	3010.51
392.43	2697.17
392.64	2731.99
392.85	2711.51
393.06	3012.56
393.27	2775.00
393.47	2562.01
393.68	2619.35
393.89	2740.18
394.10	2879.44
394.31	2613.21
394.52	2553.82
394.72	2662.36
394.93	2922.45
395.14	2480.09
395.35	2697.17
395.56	2600.92
395.76	2738.13
395.97	2641.88
396.18	2760.66
396.39	2772.95
396.60	3225.55
396.80	2961.36
397.01	2787.29
397.22	2850.77
397.43	2904.02
397.64	2578.39
397.84	2756.57
398.05	2926.55
398.26	2699.22
398.47	2684.89
398.67	2858.96
398.88	2650.07
399.09	2793.43
399.30	2525.15
399.51	2719.70
399.71	2557.91
399.92	2791.38
400.13	2799.57
400.34	2609.11
400.54	2684.89
400.75	2899.92
400.96	2635.74
401.17	2953.17
401.37	2789.33
401.58	2695.13
401.79	2672.60
402.00	2818.00
402.21	3147.73
402.41	2949.08
402.62	2910.16
402.83	3012.56
403.04	3129.30
403.24	3303.37
403.45	2715.61
403.66	2938.84
403.87	2803.67
404.07	3037.14
404.28	2867.16
404.49	2983.89
404.70	2740.18
404.90	2861.01
405.11	2594.78
405.32	2799.57
405.52	2762.71
405.73	2619.35
405.94	2576.34
406.15	2629.59
406.35	2858.96
406.56	2893.78
406.77	2592.73
406.98	2707.41
407.18	2650.07
407.39	2875.35
407.60	2682.84
407.80	2688.98
408.01	2686.94
408.22	2828.24
408.43	2553.82
408.63	2762.71
408.84	2852.82
409.05	2889.68
409.25	2545.63
409.46	2598.87
409.67	2705.37
409.88	2617.30
410.08	2662.36
410.29	2602.97
410.50	2899.92
410.70	2850.77
410.91	2469.85
411.12	2750.42
411.32	2734.04
411.53	2545.63
411.74	2725.85
411.95	2758.61
412.15	2832.34
412.36	2801.62
412.57	2717.65
412.77	2779.09
412.98	2672.60
413.19	2711.51
413.39	2758.61
413.60	2740.18
413.81	2912.21
414.01	2617.30
414.22	2656.22
414.43	2781.14
414.63	2721.75
414.84	2818.00
415.05	2623.45
415.25	2521.05
415.46	2832.34
415.67	2654.17
415.87	2680.79
416.08	2619.35
416.29	2664.41
416.49	2744.28
416.70	2584.54
416.91	2588.63
417.11	2734.04
417.32	2856.92
417.53	2744.28
417.73	2764.76
417.94	2711.51
418.15	2734.04
418.35	2756.57
418.56	2654.17
418.77	3078.10
418.97	2670.55
419.18	2688.98
419.38	2344.92
419.59	2662.36
419.80	2899.92
420.00	2678.74
420.21	2666.46
420.42	2944.98
420.62	2791.38
420.83	2609.11
421.04	2623.45
421.24	2695.13
421.45	2775.00
421.65	2625.50
421.86	2596.82
422.07	2836.44
422.27	2715.61
422.48	2607.06
422.69	2504.67
422.89	2641.88
423.10	2686.94
423.30	2541.53
423.51	2578.39
423.72	2760.66
423.92	2846.68
424.13	2535.39
424.33	2699.22
424.54	2875.35
424.75	2766.81
424.95	2818.00
425.16	2613.21
425.36	2666.46
425.57	2836.44
425.78	2705.37
425.98	2770.90
426.19	2697.17
426.39	2621.40
426.60	2752.47
426.81	2801.62
427.01	2768.85
427.22	2521.05
427.42	2443.23
427.63	2641.88
427.83	2781.14
428.04	2938.84
428.25	2717.65
428.45	2818.00
428.66	2869.20
428.86	2699.22
429.07	2623.45
429.28	2699.22
429.48	2742.23
429.69	2582.49
429.89	2674.65
430.10	2521.05
430.30	2742.23
430.51	2932.69
430.71	2555.86
430.92	2635.74
431.13	2670.55
431.33	2834.39
431.54	2686.94
431.74	2809.81
431.95	3043.28
432.15	2541.53
432.36	2662.36
432.56	2703.32
432.77	3010.51
432.98	2967.51
433.18	2678.74
433.39	2553.82
433.59	2686.94
433.80	3053.52
434.00	2916.31
434.21	2613.21
434.41	2676.70
434.62	3041.23
434.82	2475.99
435.03	2564.06
435.23	2754.52
435.44	2508.76
435.64	2625.50
435.85	2650.07
436.06	2908.12
436.26	2867.16
436.47	2676.70
436.67	2637.78
436.88	2664.41
437.08	2863.06
437.29	2858.96
437.49	2641.88
437.70	2953.17
437.90	2715.61
438.11	2828.24
438.31	2750.42
438.52	2949.08
438.72	2811.86
438.93	2906.07
439.13	2699.22
439.34	2881.49
439.54	2707.41
439.75	2754.52
439.95	2715.61
440.16	2623.45
440.36	2736.09
440.57	2762.71
440.77	2727.89
440.98	2637.78
441.18	2799.57
441.39	2680.79
441.59	2531.29
441.80	3112.91
442.00	2703.32
442.21	2779.09
442.41	2514.91
442.62	2885.59
442.82	2592.73
443.02	2697.17
443.23	2648.02
443.43	2709.46
443.64	2904.02
443.84	2490.33
444.05	2777.05
444.25	2746.33
444.46	2699.22
444.66	2611.16
444.87	2865.11
445.07	2463.71
445.28	2695.13
445.48	2811.86
445.69	2731.99
445.89	3057.62
446.09	2701.27
446.30	2969.55
446.50	3039.19
446.71	4648.89
446.91	5717.93
447.12	6451.10
447.32	6784.92
447.53	6461.34
447.73	5418.93
447.93	4804.53
448.14	4530.11
448.34	4478.91
448.55	3887.04
448.75	3876.80
448.96	3585.99
449.16	3366.86
449.36	3248.08
449.57	2889.68
449.77	2754.52
449.98	2693.08
450.18	2772.95
450.39	2633.69
450.59	2885.59
450.79	2658.26
451.00	2635.74
451.20	2783.19
451.41	2566.10
451.61	2721.75
451.81	2760.66
452.02	2643.93
452.22	2680.79
452.43	2729.94
452.63	2645.98
452.84	2656.22
453.04	2605.02
453.24	2785.24
453.45	2588.63
453.65	2645.98
453.86	2713.56
454.06	2824.15
454.26	2818.00
454.47	2629.59
454.67	2801.62
454.87	2856.92
455.08	2670.55
455.28	2811.86
455.49	2748.37
455.69	2551.77
455.89	3008.47
456.10	2775.00
456.30	2596.82
456.51	2863.06
456.71	2758.61
456.91	2660.31
457.12	2717.65
457.32	2824.15
457.52	2635.74
457.73	2775.00
457.93	2828.24
458.14	2633.69
458.34	2521.05
458.54	2643.93
458.75	2572.25
458.95	2795.48
459.15	2777.05
459.36	2699.22
459.56	2678.74
459.76	3100.62
459.97	2715.61
460.17	2654.17
460.37	2723.80
460.58	2695.13
460.78	2844.63
460.99	2570.20
461.19	2684.89
461.39	2549.72
461.60	2674.65
461.80	2697.17
462.00	2588.63
462.21	2717.65
462.41	2613.21
462.61	2572.25
462.82	2478.04
463.02	2858.96
463.22	2711.51
463.43	2723.80
463.63	2594.78
463.83	2916.31
464.04	2807.77
464.24	2635.74
464.44	2566.10
464.64	2797.53
464.85	2840.53
465.05	2711.51
465.25	2641.88
465.46	2656.22
465.66	2752.47
465.86	2719.70
466.07	2635.74
466.27	2754.52
466.47	2486.23
466.68	2451.42
466.88	2772.95
467.08	2856.92
467.29	2856.92
467.49	2670.55
467.69	2631.64
467.89	2809.81
468.10	2695.13
468.30	2678.74
468.50	2824.15
468.71	2867.16
468.91	2572.25
469.11	2799.57
469.31	2711.51
469.52	2562.01
469.72	2879.44
469.92	2893.78
470.13	2625.50
470.33	2686.94
470.53	2770.90
470.73	3028.95
470.94	3262.41
471.14	3514.31
471.34	3784.65
471.54	3581.90
471.75	3366.86
471.95	3094.48
472.15	3024.85
472.36	3129.30
472.56	3059.67
472.76	3153.87
472.96	2992.08
473.17	2938.84
473.37	2828.24
473.57	2695.13
473.77	2832.34
473.98	2764.76
474.18	2557.91
474.38	3225.55
474.58	2648.02
474.79	2551.77
474.99	2777.05
475.19	2897.88
475.39	2621.40
475.60	2772.95
475.80	2574.30
476.00	2744.28
476.20	2695.13
476.41	2713.56
476.61	2715.61
476.81	2920.40
477.01	2594.78
477.21	2811.86
477.42	2781.14
477.62	2586.58
477.82	2955.22
478.02	2654.17
478.23	2684.89
478.43	2635.74
478.63	2654.17
478.83	2686.94
479.03	2670.55
479.24	2944.98
479.44	3086.29
479.64	2514.91
479.84	2488.28
480.04	2660.31
480.25	2854.87
480.45	2596.82
480.65	2670.55
480.85	2940.88
481.06	2586.58
481.26	2723.80
481.46	2605.02
481.66	2838.48
481.86	2562.01
482.06	2797.53
482.27	2656.22
482.47	2684.89
482.67	2789.33
482.87	2684.89
483.07	2789.33
483.28	2621.40
483.48	2480.09
483.68	2652.12
483.88	2611.16
484.08	2467.80
484.29	2537.43
484.49	2633.69
484.69	2498.52
484.89	2969.55
485.09	2846.68
485.29	2738.13
485.50	2744.28
485.70	2662.36
485.90	2861.01
486.10	2715.61
486.30	2742.23
486.50	2865.11
486.71	2758.61
486.91	2738.13
487.11	2723.80
487.31	2521.05
487.51	2824.15
487.71	2568.15
487.91	2662.36
488.12	2551.77
488.32	2445.27
488.52	2629.59
488.72	2455.51
488.92	2775.00
489.12	2818.00
489.32	2877.40
489.53	2768.85
489.73	2486.23
489.93	2920.40
490.13	2633.69
490.33	2519.00
490.53	2734.04
490.73	2936.79
490.94	2490.33
491.14	2768.85
491.34	2815.96
491.54	2883.54
491.74	3518.41
491.94	4059.07
492.14	4388.80
492.34	4497.34
492.54	4136.90
492.75	3540.94
492.95	3598.28
493.15	3401.68
493.35	3282.89
493.55	3248.08
493.75	3129.30
493.95	3188.69
494.15	2873.30
494.35	2768.85
494.56	2766.81
494.76	2678.74
494.96	2785.24
495.16	2627.54
495.36	2723.80
495.56	2807.77
495.76	2719.70
495.96	2643.93
496.16	2613.21
496.36	3018.71
496.56	2693.08
496.77	2707.41
496.97	2795.48
497.17	2947.03
497.37	2531.29
497.57	2686.94
497.77	2711.51
497.97	2568.15
498.17	2662.36
498.37	2641.88
498.57	2760.66
498.77	2656.22
498.97	2803.67
499.17	2897.88
499.38	2711.51
499.58	2750.42
499.78	2807.77
499.98	2672.60
500.18	2611.16
500.38	2662.36
500.58	2848.72
500.78	3284.94
500.98	5380.01
501.18	7266.19
501.38	8804.22
501.58	9578.35
501.78	9418.61
501.98	7806.86
502.18	6420.38
502.38	5519.28
502.58	5330.86
502.78	4810.68
502.98	4620.22
503.18	4427.71
503.38	4118.47
503.59	3649.48
503.79	3407.82
503.99	3297.23
504.19	3221.45
504.39	3270.61
504.59	3045.33
504.79	3030.99
504.99	3192.78
505.19	2914.26
505.39	2815.96
505.59	3010.51
505.79	2998.23
505.99	2834.39
506.19	2666.46
506.39	2885.59
506.59	2756.57
506.79	2645.98
506.99	2785.24
507.19	2682.84
507.39	2830.29
507.59	2584.54
507.79	2629.59
507.99	2605.02
508.19	2740.18
508.39	2750.42
508.59	2654.17
508.79	2750.42
508.99	3004.37
509.19	2701.27
509.39	2770.90
509.59	2605.02
509.79	2596.82
509.99	2768.85
510.19	2775.00
510.39	2789.33
510.59	2770.90
510.79	2662.36
510.99	2537.43
511.19	2654.17
511.39	2901.97
511.59	2785.24
511.79	2850.77
511.99	2709.46
512.19	2990.03
512.38	2701.27
512.58	2572.25
512.78	2598.87
512.98	2865.11
513.18	2926.55
513.38	2482.14
513.58	2693.08
513.78	2738.13
513.98	2654.17
514.18	2678.74
514.38	2682.84
514.58	2889.68
514.78	2635.74
514.98	2559.96
515.18	2664.41
515.38	2559.96
515.58	3022.80
515.78	2674.65
515.98	2635.74
516.18	2875.35
516.38	2740.18
516.57	2607.06
516.77	2613.21
516.97	2783.19
517.17	2645.98
517.37	2471.90
517.57	2772.95
517.77	2731.99
517.97	2717.65
518.17	2770.90
518.37	2541.53
518.57	2666.46
518.77	2541.53
518.97	2670.55
519.16	2676.70
519.36	2912.21
519.56	2666.46
519.76	2611.16
519.96	2674.65
520.16	2901.97
520.36	2525.15
520.56	2783.19
520.76	2580.44
520.96	2695.13
521.16	2887.64
521.35	2793.43
521.55	2764.76
521.75	2684.89
521.95	2686.94
522.15	2682.84
522.35	2574.30
522.55	2568.15
522.75	2842.58
522.95	2555.86
523.14	2535.39
523.34	2822.10
523.54	2670.55
523.74	2746.33
523.94	2719.70
524.14	2521.05
524.34	2740.18
524.54	2881.49
524.73	2611.16
524.93	2828.24
525.13	2764.76
525.33	2539.48
525.53	2883.54
525.73	2891.73
525.93	2768.85
526.13	2658.26
526.32	2645.98
526.52	2879.44
526.72	2854.87
526.92	2695.13
527.12	2592.73
527.32	2562.01
527.52	2779.09
527.71	2744.28
527.91	2627.54
528.11	2664.41
528.31	2781.14
528.51	2543.58
528.71	2740.18
528.90	2842.58
529.10	2856.92
529.30	2785.24
529.50	2428.89
529.70	2789.33
529.90	2676.70
530.09	2627.54
530.29	2486.23
530.49	2648.02
530.69	3131.34
530.89	2719.70
531.09	2752.47
531.28	2617.30
531.48	2838.48
531.68	2715.61
531.88	2695.13
532.08	2852.82
532.28	2658.26
532.47	2760.66
532.67	2754.52
532.87	2863.06
533.07	2715.61
533.27	2686.94
533.46	2721.75
533.66	2787.29
533.86	2785.24
534.06	2643.93
534.26	2654.17
534.45	2697.17
534.65	2754.52
534.85	2766.81
535.05	2611.16
535.25	2861.01
535.44	2539.48
535.64	2768.85
535.84	2598.87
536.04	2686.94
536.24	2613.21
536.43	2635.74
536.63	2664.41
536.83	2709.46
537.03	2639.83
537.22	2471.90
537.42	2514.91
537.62	2777.05
537.82	2682.84
538.02	2818.00
538.21	2762.71
538.41	3108.82
538.61	2863.06
538.81	2731.99
539.00	2748.37
539.20	2506.71
539.40	2639.83
539.60	2650.07
539.79	2752.47
539.99	2725.85
540.19	2592.73
540.39	2578.39
540.58	2744.28
540.78	2861.01
540.98	2691.03
541.18	2754.52
541.37	2711.51
541.57	2801.62
541.77	2748.37
541.97	2537.43
542.16	2547.67
542.36	2652.12
542.56	2703.32
542.76	2822.10
542.95	2680.79
543.15	2768.85
543.35	2824.15
543.54	2572.25
543.74	2617.30
543.94	2887.64
544.14	2674.65
544.33	2797.53
544.53	2609.11
544.73	2699.22
544.93	2643.93
545.12	2609.11
545.32	2629.59
545.52	2619.35
545.71	2605.02
545.91	2637.78
546.11	2607.06
546.30	2594.78
546.50	2738.13
546.70	2693.08
546.90	2701.27
547.09	2572.25
547.29	2731.99
547.49	2729.94
547.68	2639.83
547.88	2654.17
548.08	2775.00
548.27	3047.38
548.47	2545.63
548.67	2633.69
548.87	2744.28
549.06	2600.92
549.26	2664.41
549.46	2711.51
549.65	2695.13
549.85	2625.50
550.05	2772.95
550.24	2602.97
550.44	2734.04
550.64	2760.66
550.83	2670.55
551.03	3059.67
551.23	2820.05
551.42	2703.32
551.62	2688.98
551.82	2701.27
552.01	2717.65
552.21	2828.24
552.41	2699.22
552.60	2852.82
552.80	2731.99
553.00	2566.10
553.19	2666.46
553.39	2969.55
553.59	2553.82
553.78	2752.47
553.98	2660.31
554.17	2527.19
554.37	2648.02
554.57	2721.75
554.76	2543.58
554.96	2621.40
555.16	2639.83
555.35	2637.78
555.55	2801.62
555.75	2775.00
555.94	2815.96
556.14	2512.86
556.33	2711.51
556.53	2680.79
556.73	2693.08
556.92	2641.88
557.12	2713.56
557.32	2959.31
557.51	2826.20
557.71	2682.84
557.90	2813.91
558.10	2861.01
558.30	2680.79
558.49	2637.78
558.69	2613.21
558.88	2838.48
559.08	2828.24
559.28	2652.12
559.47	2729.94
559.67	2846.68
559.86	2965.46
560.06	2676.70
560.26	2623.45
560.45	2797.53
560.65	2662.36
560.84	2752.47
561.04	2588.63
561.24	2826.20
561.43	2553.82
561.63	2793.43
561.82	2768.85
562.02	2828.24
562.22	2576.34
562.41	2570.20
562.61	2637.78
562.80	2576.34
563.00	3129.30
563.19	2656.22
563.39	2750.42
563.59	2801.62
563.78	2555.86
563.98	2473.95
564.17	2637.78
564.37	2486.23
564.56	2594.78
564.76	2537.43
564.96	2834.39
565.15	2826.20
565.35	3114.96
565.54	2609.11
565.74	2738.13
565.93	2791.38
566.13	2635.74
566.32	2760.66
566.52	2772.95
566.71	2813.91
566.91	2826.20
567.11	2678.74
567.30	2613.21
567.50	2807.77
567.69	2748.37
567.89	2629.59
568.08	2562.01
568.28	2711.51
568.47	2549.72
568.67	2701.27
568.86	2590.68
569.06	2846.68
569.25	2662.36
569.45	2559.96
569.64	2588.63
569.84	2680.79
570.04	2678.74
570.23	2588.63
570.43	2701.27
570.62	2707.41
570.82	3008.47
571.01	2564.06
571.21	2607.06
571.40	2594.78
571.60	2844.63
571.79	2744.28
571.99	2633.69
572.18	2623.45
572.38	2707.41
572.57	2715.61
572.77	2676.70
572.96	3106.77
573.16	2734.04
573.35	2611.16
573.55	2815.96
573.74	2850.77
573.94	2645.98
574.13	2625.50
574.33	2865.11
574.52	2885.59
574.71	2758.61
574.91	2699.22
575.10	2437.08
575.30	2695.13
575.49	2547.67
575.69	2594.78
575.88	2729.94
576.08	2738.13
576.27	2918.36
576.47	2613.21
576.66	2918.36
576.86	2961.36
577.05	2766.81
577.25	2684.89
577.44	2932.69
577.64	2629.59
577.83	2875.35
578.02	2701.27
578.22	2822.10
578.41	2942.93
578.61	2693.08
578.80	2498.52
579.00	2740.18
579.19	2754.52
579.39	2719.70
579.58	2736.09
579.77	2686.94
579.97	2920.40
580.16	2842.58
580.36	2842.58
580.55	2779.09
580.75	2818.00
580.94	2844.63
581.13	2815.96
581.33	2818.00
581.52	2705.37
581.72	2981.84
581.91	2854.87
582.11	2668.50
582.30	2949.08
582.49	2785.24
582.69	2881.49
582.88	2721.75
583.08	2803.67
583.27	2916.31
583.47	2811.86
583.66	2648.02
583.85	2590.68
584.05	2682.84
584.24	2795.48
584.44	2713.56
584.63	2901.97
584.82	2879.44
585.02	2885.59
585.21	2830.29
585.41	2863.06
585.60	2856.92
585.79	2977.75
585.99	2985.94
586.18	2858.96
586.37	3532.75
586.57	5468.08
586.76	15904.53
586.96	35161.58
587.15	47988.00
587.34	56927.39
587.54	61189.21
587.73	54860.99
587.93	38323.64
588.12	29333.06
588.31	23674.52
588.51	20954.82
588.70	19181.28
588.89	17049.34
589.09	14507.81
589.28	12599.10
589.47	10008.42
589.67	7745.42
589.86	5920.68
590.06	4536.25
590.25	3928.00
590.44	3448.78
590.64	3143.63
590.83	3057.62
591.02	2914.26
591.22	2768.85
591.41	2834.39
591.60	2791.38
591.80	3135.44
591.99	2547.67
592.18	2680.79
592.38	2830.29
592.57	2633.69
592.76	2684.89
592.96	2697.17
593.15	2684.89
593.34	2944.98
593.54	2709.46
593.73	2789.33
593.92	2807.77
594.12	2899.92
594.31	2768.85
594.50	2944.98
594.70	2840.53
594.89	3123.15
595.08	2545.63
595.28	2803.67
595.47	3268.56
595.66	2901.97
595.86	2521.05
596.05	2641.88
596.24	2645.98
596.43	3041.23
596.63	2758.61
596.82	2793.43
597.01	2791.38
597.21	3004.37
597.40	2668.50
597.59	2670.55
597.79	2688.98
597.98	2824.15
598.17	2672.60
598.36	2670.55
598.56	2938.84
598.75	2652.12
598.94	2709.46
599.14	2777.05
599.33	2672.60
599.52	2787.29
599.71	2623.45
599.91	2676.70
600.10	2840.53
600.29	2781.14
600.48	2731.99
600.68	2756.57
600.87	2793.43
601.06	2744.28
601.26	2682.84
601.45	2766.81
601.64	2701.27
601.83	2957.27
602.03	2596.82
602.22	2588.63
602.41	2793.43
602.60	3051.47
602.80	2805.72
602.99	2717.65
603.18	2580.44
603.37	2775.00
603.57	2631.64
603.76	2701.27
603.95	2848.72
604.14	2721.75
604.34	2535.39
604.53	2715.61
604.72	2836.44
604.91	2885.59
605.10	2693.08
605.30	2422.75
605.49	3039.19
605.68	2865.11
605.87	2758.61
606.07	2615.26
606.26	2705.37
606.45	2772.95
606.64	2707.41
606.84	2555.86
607.03	2713.56
607.22	2897.88
607.41	2645.98
607.60	2615.26
607.80	2887.64
607.99	2695.13
608.18	2748.37
608.37	2746.33
608.56	2570.20
608.76	2891.73
608.95	2865.11
609.14	2715.61
609.33	2895.83
609.52	3024.85
609.72	2775.00
609.91	2738.13
610.10	2740.18
610.29	2906.07
610.48	2637.78
610.68	2729.94
610.87	2707.41
611.06	2861.01
611.25	2627.54
611.44	2830.29
611.63	2658.26
611.83	2963.41
612.02	2557.91
612.21	2736.09
612.40	2473.95
612.59	2551.77
612.79	2588.63
612.98	2703.32
613.17	2973.65
613.36	2740.18
613.55	2820.05
613.74	2691.03
613.93	2797.53
614.13	2836.44
614.32	2920.40
614.51	2781.14
614.70	2805.72
614.89	2668.50
615.08	2828.24
615.28	3141.58
615.47	2682.84
615.66	2861.01
615.85	2678.74
616.04	2818.00
616.23	2764.76
616.42	2746.33
616.62	2703.32
616.81	2744.28
617.00	2744.28
617.19	2779.09
617.38	2580.44
617.57	2734.04
617.76	2834.39
617.95	2842.58
618.15	2729.94
618.34	2932.69
618.53	2568.15
618.72	2944.98
618.91	2768.85
619.10	2828.24
619.29	2729.94
619.48	2752.47
619.68	2666.46
619.87	2586.58
620.06	2533.34
620.25	2826.20
620.44	2637.78
620.63	2627.54
620.82	2750.42
621.01	2789.33
621.20	2678.74
621.39	2662.36
621.59	2791.38
621.78	2791.38
621.97	2662.36
622.16	2729.94
622.35	2809.81
622.54	2777.05
622.73	2818.00
622.92	2496.47
623.11	2912.21
623.30	2672.60
623.49	2709.46
623.68	2547.67
623.88	2920.40
624.07	2654.17
624.26	2578.39
624.45	2656.22
624.64	2750.42
624.83	2801.62
625.02	2666.46
625.21	2613.21
625.40	2834.39
625.59	3014.61
625.78	2662.36
625.97	2791.38
626.16	2928.60
626.35	2850.77
626.54	2760.66
626.74	2846.68
626.93	2725.85
627.12	2691.03
627.31	2760.66
627.50	2676.70
627.69	2854.87
627.88	2682.84
628.07	2660.31
628.26	2537.43
628.45	2660.31
628.64	2629.59
628.83	2615.26
629.02	2609.11
629.21	2901.97
629.40	2813.91
629.59	2652.12
629.78	2609.11
629.97	2721.75
630.16	2744.28
630.35	2605.02
630.54	2756.57
630.73	2617.30
630.92	2736.09
631.11	2547.67
631.30	2717.65
631.49	2852.82
631.68	2715.61
631.87	2707.41
632.06	2516.95
632.25	2965.46
632.44	2738.13
632.63	2678.74
632.82	2580.44
633.01	2662.36
633.20	2801.62
633.39	2637.78
633.58	2482.14
633.77	2779.09
633.96	2811.86
634.15	2791.38
634.34	2725.85
634.53	2770.90
634.72	2666.46
634.91	2559.96
635.10	2705.37
635.29	2791.38
635.48	2744.28
635.67	2627.54
635.86	2514.91
636.05	2926.55
636.24	2654.17
636.43	2705.37
636.62	2750.42
636.81	2400.22
637.00	2736.09
637.19	2791.38
637.38	2695.13
637.57	2668.50
637.76	2738.13
637.95	2842.58
638.14	2764.76
638.33	2820.05
638.52	2760.66
638.71	2652.12
638.89	2535.39
639.08	3104.72
639.27	2908.12
639.46	2848.72
639.65	3162.06
639.84	3237.84
640.03	3260.37
640.22	3076.05
640.41	3117.01
640.60	2789.33
640.79	2944.98
640.98	2775.00
641.17	2924.50
641.36	2889.68
641.55	2834.39
641.74	2615.26
641.92	2598.87
642.11	2641.88
642.30	2729.94
642.49	2562.01
642.68	2648.02
642.87	2764.76
643.06	2768.85
643.25	2525.15
643.44	2586.58
643.63	2686.94
643.82	2914.26
644.00	2568.15
644.19	2631.64
644.38	2475.99
644.57	2785.24
644.76	2619.35
644.95	2742.23
645.14	2840.53
645.33	2711.51
645.52	2721.75
645.71	2570.20
645.89	2568.15
646.08	2660.31
646.27	2643.93
646.46	2887.64
646.65	2506.71
646.84	2754.52
647.03	2629.59
647.22	2815.96
647.40	2746.33
647.59	2684.89
647.78	2447.32
647.97	2643.93
648.16	2635.74
648.35	2953.17
648.54	2781.14
648.73	2559.96
648.91	2842.58
649.10	2789.33
649.29	2602.97
649.48	2688.98
649.67	2779.09
649.86	2703.32
650.05	2684.89
650.23	2881.49
650.42	2658.26
650.61	2949.08
650.80	2818.00
650.99	2953.17
651.18	2889.68
651.36	2887.64
651.55	2672.60
651.74	2811.86
651.93	2713.56
652.12	2703.32
652.31	2740.18
652.49	2693.08
652.68	2705.37
652.87	2953.17
653.06	2680.79
653.25	2947.03
653.44	2844.63
653.62	2967.51
653.81	2666.46
654.00	2662.36
654.19	2838.48
654.38	3098.58
654.56	2686.94
654.75	2549.72
654.94	2805.72
655.13	2770.90
655.32	2586.58
655.51	2684.89
655.69	2590.68
655.88	2854.87
656.07	2545.63
656.26	2715.61
656.45	2600.92
656.63	2686.94
656.82	2691.03
657.01	2793.43
657.20	2537.43
657.38	2936.79
657.57	2574.30
657.76	2508.76
657.95	2795.48
658.14	2695.13
658.32	2666.46
658.51	2519.00
658.70	2697.17
658.89	2783.19
659.08	2584.54
659.26	2895.83
659.45	2605.02
659.64	2852.82
659.83	2643.93
660.01	2977.75
660.20	2779.09
660.39	2979.79
660.58	2336.73
660.76	2734.04
660.95	2553.82
661.14	2785.24
661.33	2512.86
661.51	2641.88
661.70	2658.26
661.89	2854.87
662.08	2643.93
662.26	2529.24
662.45	2549.72
662.64	3026.90
662.83	2754.52
663.01	2498.52
663.20	2580.44
663.39	2889.68
663.58	2715.61
663.76	2619.35
663.95	2824.15
664.14	2637.78
664.32	2619.35
664.51	2564.06
664.70	2492.38
664.89	2748.37
665.07	2523.10
665.26	2731.99
665.45	2490.33
665.64	2840.53
665.82	2586.58
666.01	2758.61
666.20	2621.40
666.38	2869.20
666.57	2856.92
666.76	4288.45
666.95	10071.91
667.13	16895.74
667.32	20956.86
667.51	23834.26
667.69	24942.21
667.88	21401.27
668.07	15568.66
668.25	12832.57
668.44	10942.30
668.63	9738.09
668.81	8421.25
669.00	7278.48
669.19	6526.88
669.38	5670.83
669.56	4882.36
669.75	4249.54
669.94	3829.70
670.12	3235.79
670.31	2957.27
670.50	2971.60
670.68	2938.84
670.87	2883.54
671.06	2660.31
671.24	2699.22
671.43	2961.36
671.62	2756.57
671.80	2637.78
671.99	2758.61
672.18	2834.39
672.36	2848.72
672.55	2785.24
672.74	2727.89
672.92	2738.13
673.11	2799.57
673.29	2521.05
673.48	2799.57
673.67	2731.99
673.85	2856.92
674.04	2598.87
674.23	2779.09
674.41	2910.16
674.60	2611.16
674.79	2404.32
674.97	2523.10
675.16	2809.81
675.34	2830.29
675.53	2596.82
675.72	2699.22
675.90	2977.75
676.09	2736.09
676.28	2756.57
676.46	2514.91
676.65	2719.70
676.83	2648.02
677.02	2688.98
677.21	2637.78
677.39	2713.56
677.58	2682.84
677.77	2568.15
677.95	2596.82
678.14	2709.46
678.32	2619.35
678.51	2516.95
678.70	2983.89
678.88	2633.69
679.07	2815.96
679.25	2711.51
679.44	2652.12
679.63	2574.30
679.81	2748.37
680.00	2881.49
680.18	2756.57
680.37	2854.87
680.55	2791.38
680.74	2553.82
680.93	2408.41
681.11	2772.95
681.30	2758.61
681.48	2676.70
681.67	2621.40
681.85	2703.32
682.04	2611.16
682.23	2856.92
682.41	2715.61
682.60	2703.32
682.78	2691.03
682.97	2586.58
683.15	2682.84
683.34	2643.93
683.53	3000.27
683.71	2541.53
683.90	2842.58
684.08	2916.31
684.27	2664.41
684.45	2697.17
684.64	2824.15
684.82	2750.42
685.01	2813.91
685.19	2695.13
685.38	2889.68
685.57	2695.13
685.75	2635.74
685.94	2568.15
686.12	2572.25
686.31	2625.50
686.49	2975.70
686.68	2486.23
686.86	2701.27
687.05	2686.94
687.23	2932.69
687.42	2555.86
687.60	2545.63
687.79	2871.25
687.97	3012.56
688.16	2729.94
688.34	2727.89
688.53	2467.80
688.71	2805.72
688.90	2858.96
689.08	2623.45
689.27	2443.23
689.45	2893.78
689.64	2789.33
689.82	2676.70
690.01	2854.87
690.19	2756.57
690.38	2674.65
690.56	2740.18
690.75	2609.11
690.93	2645.98
691.12	2607.06
691.30	2693.08
691.49	2643.93
691.67	2703.32
691.86	2979.79
692.04	2580.44
692.23	2662.36
692.41	2785.24
692.60	3067.86
692.78	2955.22
692.97	2750.42
693.15	2762.71
693.34	2873.30
693.52	2754.52
693.71	2672.60
693.89	2584.54
694.08	2461.66
694.26	2738.13
694.44	2799.57
694.63	2744.28
694.81	2621.40
695.00	2584.54
695.18	2928.60
695.37	3094.48
695.55	2766.81
695.74	2707.41
695.92	2611.16
696.10	2973.65
696.29	2596.82
696.47	2619.35
696.66	2486.23
696.84	2545.63
697.03	2656.22
697.21	2871.25
697.40	4093.89
697.58	2924.50
697.76	2584.54
697.95	2621.40
698.13	2605.02
698.32	2650.07
698.50	2645.98
698.68	2670.55
698.87	2691.03
699.05	2920.40
699.24	2668.50
699.42	2537.43
699.61	2756.57
699.79	2717.65
699.97	2674.65
700.16	2439.13
700.34	2578.39
700.53	2734.04
700.71	2901.97
700.89	2832.34
701.08	2703.32
701.26	2715.61
701.45	3082.19
701.63	2605.02
701.81	2582.49
702.00	2650.07
702.18	2645.98
702.37	2596.82
702.55	2924.50
702.73	2795.48
702.92	2744.28
703.10	2944.98
703.28	2916.31
703.47	2580.44
703.65	2895.83
703.84	2805.72
704.02	2678.74
704.20	2992.08
704.39	2607.06
704.57	2688.98
704.75	2885.59
704.94	2793.43
705.12	2873.30
705.30	3043.28
705.49	5849.00
705.67	11970.38
705.86	17807.09
706.04	20092.62
706.22	22607.53
706.41	22283.95
706.59	17768.18
706.77	13172.54
706.96	11159.38
707.14	10407.78
707.32	9021.30
707.51	7856.01
707.69	6465.44
707.87	5349.29
708.06	4464.57
708.24	3831.75
708.42	3366.86
708.61	3391.44
708.79	2801.62
708.97	2848.72
709.16	2756.57
709.34	2738.13
709.52	2686.94
709.71	2662.36
709.89	2752.47
710.07	2607.06
710.26	2578.39
710.44	2715.61
710.62	2901.97
710.80	2777.05
710.99	2818.00
711.17	2762.71
711.35	2715.61
711.54	2674.65
711.72	2820.05
711.90	2738.13
712.09	2820.05
712.27	2635.74
712.45	2756.57
712.63	2559.96
712.82	2721.75
713.00	2781.14
713.18	2850.77
713.37	2822.10
713.55	2836.44
713.73	2731.99
713.91	2688.98
714.10	2672.60
714.28	2688.98
714.46	2758.61
714.65	2748.37
714.83	2721.75
715.01	2789.33
715.19	2697.17
715.38	2598.87
715.56	2768.85
715.74	2664.41
715.92	2631.64
716.11	2924.50
716.29	2519.00
716.47	2643.93
716.65	2772.95
716.84	2496.47
717.02	2867.16
717.20	2471.90
717.38	2557.91
717.57	2680.79
717.75	2672.60
717.93	2605.02
718.11	2809.81
718.30	2553.82
718.48	2691.03
718.66	2899.92
718.84	2873.30
719.03	2695.13
719.21	2537.43
719.39	3063.76
719.57	2789.33
719.75	2764.76
719.94	2600.92
720.12	2637.78
720.30	2686.94
720.48	2764.76
720.67	2588.63
720.85	2547.67
721.03	2588.63
721.21	2572.25
721.39	2797.53
721.58	2838.48
721.76	2703.32
721.94	2707.41
722.12	2750.42
722.30	2901.97
722.49	2676.70
722.67	2707.41
722.85	2719.70
723.03	2424.80
723.21	2625.50
723.40	2680.79
723.58	2869.20
723.76	2797.53
723.94	2975.70
724.12	2721.75
724.30	2944.98
724.49	2891.73
724.67	2676.70
724.85	2785.24
725.03	2537.43
725.21	2805.72
725.40	2885.59
725.58	2631.64
725.76	2818.00
725.94	2697.17
726.12	2613.21
726.30	2684.89
726.49	2701.27
726.67	2602.97
726.85	2811.86
727.03	3063.76
727.21	4044.74
727.39	5099.44
727.57	5603.24
727.76	6039.46
727.94	6248.35
728.12	5519.28
728.30	4609.98
728.48	4372.41
728.66	4044.74
728.84	3661.77
729.03	3366.86
729.21	3194.83
729.39	2899.92
729.57	2826.20
729.75	2787.29
729.93	2799.57
730.11	2658.26
730.30	2559.96
730.48	2613.21
730.66	2752.47
730.84	2789.33
731.02	2742.23
731.20	2609.11
731.38	2707.41
731.56	2553.82
731.74	2531.29
731.93	2764.76
732.11	2672.60
732.29	2635.74
732.47	2762.71
732.65	2787.29
732.83	2885.59
733.01	2758.61
733.19	2629.59
733.37	2793.43
733.56	2691.03
733.74	2592.73
733.92	2926.55
734.10	2652.12
734.28	2756.57
734.46	2508.76
734.64	2627.54
734.82	2627.54
735.00	2623.45
735.18	2590.68
735.36	2762.71
735.54	2715.61
735.73	2682.84
735.91	2758.61
736.09	2938.84
736.27	2695.13
736.45	2738.13
736.63	2480.09
736.81	2670.55
736.99	2865.11
737.17	2906.07
737.35	2713.56
737.53	2703.32
737.71	2703.32
737.89	2863.06
738.07	2658.26
738.25	2654.17
738.43	2455.51
738.61	2609.11
738.80	2537.43
738.98	2506.71
739.16	2648.02
739.34	2670.55
739.52	2895.83
739.70	2715.61
739.88	2830.29
740.06	2836.44
740.24	2410.46
740.42	2879.44
740.60	2516.95
740.78	2621.40
740.96	2461.66
741.14	2686.94
741.32	2715.61
741.50	2504.67
741.68	2916.31
741.86	2916.31
742.04	2635.74
742.22	2562.01
742.40	2719.70
742.58	2783.19
742.76	2611.16
742.94	2793.43
743.12	2490.33
743.30	2746.33
743.48	2736.09
743.66	2617.30
743.84	2727.89
744.02	2660.31
744.20	2738.13
744.38	2539.48
744.56	2613.21
744.74	3006.42
744.92	2822.10
745.10	2838.48
745.28	2713.56
745.46	2955.22
745.64	2637.78
745.82	2793.43
746.00	2658.26
746.18	2754.52
746.36	2586.58
746.54	2729.94
746.72	2678.74
746.90	2537.43
747.08	2953.17
747.26	2617.30
747.44	2783.19
747.62	2838.48
747.80	2850.77
747.98	2858.96
748.15	2654.17
748.33	3039.19
748.51	2709.46
748.69	2731.99
748.87	2535.39
749.05	2719.70
749.23	2695.13
749.41	2643.93
749.59	2559.96
749.77	2867.16
749.95	2652.12
750.13	2598.87
750.31	2754.52
750.49	2693.08
750.67	2818.00
750.85	2803.67
751.03	2645.98
751.20	2994.13
751.38	2713.56
751.56	2629.59
751.74	2717.65
751.92	2633.69
752.10	2553.82
752.28	2809.81
752.46	2662.36
752.64	2703.32
752.82	2758.61
753.00	2822.10
753.18	2652.12
753.35	2609.11
753.53	2744.28
753.71	2641.88
753.89	2744.28
754.07	2799.57
754.25	2856.92
754.43	2629.59
754.61	2588.63
754.79	2772.95
754.97	2643.93
755.14	2852.82
755.32	2519.00
755.50	2674.65
755.68	2850.77
755.86	2572.25
756.04	2598.87
756.22	2428.89
756.40	2852.82
756.57	2895.83
756.75	2652.12
756.93	2842.58
757.11	2768.85
757.29	2566.10
757.47	2500.57
757.65	2473.95
757.82	2410.46
758.00	2545.63
758.18	2600.92
758.36	2668.50
758.54	2916.31
758.72	2473.95
758.90	2805.72
759.07	2744.28
759.25	2613.21
759.43	2680.79
759.61	2490.33
759.79	3948.48
759.97	2775.00
760.15	2676.70
760.32	2672.60
760.50	2768.85
760.68	2936.79
760.86	2504.67
761.04	2736.09
761.22	2777.05
761.39	2775.00
761.57	2684.89
761.75	2611.16
761.93	2781.14
762.11	2633.69
762.28	2709.46
762.46	2516.95
762.64	2959.31
762.82	2510.81
763.00	2674.65
763.18	2826.20
763.35	2537.43
763.53	2787.29
763.71	2619.35
763.89	2691.03
764.07	2731.99
764.24	2668.50
764.42	2758.61
764.60	2535.39
764.78	2789.33
764.96	2865.11
765.13	2838.48
765.31	2562.01
765.49	2752.47
765.67	2590.68
765.84	2598.87
766.02	2582.49
766.20	2445.27
766.38	2822.10
766.56	2717.65
766.73	2752.47
766.91	2688.98
767.09	2777.05
767.27	2723.80
767.44	2572.25
767.62	2826.20
767.80	2705.37
767.98	2637.78
768.15	2600.92
768.33	2834.39
768.51	2797.53
768.69	2756.57
768.87	2654.17
769.04	2820.05
769.22	3045.33
769.40	2856.92
769.58	2852.82
769.75	2801.62
769.93	2865.11
770.11	2645.98
770.28	2629.59
770.46	2863.06
770.64	2682.84
770.82	2629.59
770.99	2572.25
771.17	2711.51
771.35	2676.70
771.53	2629.59
771.70	2641.88
771.88	2752.47
772.06	2648.02
772.23	2668.50
772.41	2734.04
772.59	2658.26
772.77	2617.30
772.94	2658.26
773.12	2750.42
773.30	2652.12
773.47	2744.28
773.65	2539.48
773.83	2840.53
774.01	2707.41
774.18	2473.95
774.36	2662.36
774.54	2461.66
774.71	2734.04
774.89	2504.67
775.07	2531.29
775.24	2617.30
775.42	2652.12
775.60	3016.66
775.78	2576.34
775.95	2486.23
776.13	2463.71
776.31	2492.38
776.48	2719.70
776.66	2887.64
776.84	2678.74
777.01	2617.30
777.19	2570.20
777.37	2572.25
777.54	2832.34
777.72	2920.40
777.90	2783.19
778.07	2686.94
778.25	3239.89
778.43	2891.73
778.60	2590.68
778.78	2752.47
778.96	2875.35
779.13	2566.10
779.31	2729.94
779.49	2672.60
779.66	2719.70
779.84	2695.13
780.01	2670.55
780.19	2629.59
780.37	2873.30
780.54	2815.96
780.72	2621.40
780.90	2621.40
781.07	2658.26
781.25	2594.78
781.43	2801.62
781.60	2715.61
781.78	2932.69
781.95	2754.52
782.13	2623.45
782.31	2658.26
782.48	2490.33
782.66	2686.94
782.83	2838.48
783.01	2795.48
783.19	2818.00
783.36	2721.75
783.54	2525.15
783.72	2840.53
783.89	2664.41
784.07	2731.99
784.24	2707.41
784.42	2803.67
784.60	2791.38
784.77	2672.60
784.95	2365.40
785.12	2633.69
785.30	2791.38
785.47	2555.86
785.65	2600.92
785.83	2682.84
786.00	2664.41
786.18	2682.84
786.35	2584.54
786.53	2502.62
786.71	2861.01
786.88	2764.76
787.06	2674.65
787.23	2596.82
787.41	2588.63
787.58	2709.46
787.76	2564.06
787.94	2623.45
788.11	2828.24
788.29	2592.73
788.46	2600.92
788.64	2582.49
788.81	2613.21
788.99	2637.78
789.16	2570.20
789.34	2660.31
789.52	2670.55
789.69	2670.55
789.87	2430.94
790.04	2676.70
790.22	2717.65
790.39	2975.70
790.57	2512.86
790.74	2525.15
790.92	2834.39
791.09	2562.01
791.27	2643.93
791.44	2783.19
791.62	2682.84
791.79	2910.16
791.97	2725.85
792.15	2901.97
792.32	2768.85
792.50	2797.53
792.67	2727.89
792.85	2871.25
793.02	2727.89
793.20	2666.46
793.37	2590.68
793.55	2572.25
793.72	2582.49
793.90	2750.42
794.07	2586.58
794.25	2525.15
794.42	2676.70
794.60	2738.13
794.77	2729.94
794.95	2734.04
795.12	2766.81
795.30	2639.83
795.47	2496.47
795.65	2940.88
795.82	2777.05
796.00	2514.91
796.17	2619.35
796.34	2613.21
796.52	2740.18
796.69	2715.61
796.87	2750.42
797.04	2664.41
797.22	2842.58
797.39	2742.23
797.57	2785.24
797.74	2738.13
797.92	2740.18
798.09	2660.31
798.27	2813.91
798.44	2627.54
798.62	2607.06
798.79	2639.83
798.96	2768.85
799.14	2705.37
799.31	3131.34
799.49	2680.79
799.66	2629.59
799.84	2719.70
800.01	2500.57
800.19	2686.94
800.36	2527.19
800.53	2709.46
800.71	2818.00
800.88	2887.64
801.06	2555.86
801.23	2576.34
801.41	2623.45
801.58	2668.50
801.75	2613.21
801.93	2654.17
802.10	2836.44
802.28	2740.18
802.45	2598.87
802.63	2734.04
802.80	2957.27
802.97	2625.50
803.15	2693.08
803.32	2570.20
803.50	2545.63
803.67	2553.82
803.84	2516.95
804.02	2725.85
804.19	2664.41
804.37	2389.98
804.54	2488.28
804.71	2531.29
804.89	2648.02
805.06	2596.82
805.24	2562.01
805.41	2557.91
805.58	2645.98
805.76	3078.10
805.93	2695.13
806.10	2815.96
806.28	2779.09
806.45	2652.12
806.63	2695.13
806.80	2639.83
806.97	2748.37
807.15	2744.28
807.32	2600.92
807.49	2752.47
807.67	2568.15
807.84	2803.67
808.01	2506.71
808.19	2883.54
808.36	3012.56
808.54	2662.36
808.71	2596.82
808.88	2629.59
809.06	2912.21
809.23	2875.35
809.40	2641.88
809.58	2674.65
809.75	2752.47
809.92	2617.30
810.10	2938.84
810.27	2691.03
810.44	2824.15
810.62	2832.34
810.79	2779.09
810.96	2568.15
811.14	2695.13
811.31	2795.48
811.48	2809.81
811.66	2641.88
811.83	2914.26
812.00	2777.05
812.18	2736.09
812.35	2963.41
812.52	2693.08
812.69	2590.68
812.87	2611.16
813.04	2531.29
813.21	2680.79
813.39	2625.50
813.56	2533.34
813.73	2809.81
813.91	2500.57
814.08	2641.88
814.25	2660.31
814.42	2553.82
814.60	2703.32
814.77	2725.85
814.94	2637.78
815.12	2639.83
815.29	2977.75
815.46	2643.93
815.63	2758.61
815.81	2658.26
815.98	2570.20
816.15	2723.80
816.33	2553.82
816.50	2596.82
816.67	2787.29
816.84	2686.94
817.02	2533.34
817.19	2627.54
817.36	2748.37
817.53	2822.10
817.71	2539.48
817.88	2731.99
818.05	2686.94
818.22	2688.98
818.40	2848.72
818.57	2666.46
818.74	2721.75
818.91	2676.70
819.09	2803.67
819.26	2785.24
819.43	2570.20
819.60	2672.60
819.78	2744.28
819.95	2731.99
820.12	2539.48
820.29	2949.08
820.47	2836.44
820.64	2494.43
820.81	2580.44
820.98	2605.02
821.15	2656.22
821.33	2697.17
821.50	2478.04
821.67	2846.68
821.84	2584.54
822.02	2693.08
822.19	2928.60
822.36	2623.45
822.53	2564.06
822.70	2457.56
822.88	2650.07
823.05	2895.83
823.22	2711.51
823.39	2740.18
823.56	2666.46
823.74	2963.41
823.91	2496.47
824.08	2576.34
824.25	2531.29
824.42	2985.94
824.60	2506.71
824.77	2703.32
824.94	2682.84
825.11	2770.90
825.28	2547.67
825.45	2717.65
825.63	2697.17
825.80	2584.54
825.97	2731.99
826.14	2705.37
826.31	2467.80
826.48	2797.53
826.66	2621.40
826.83	2568.15
827.00	2609.11
827.17	2643.93
827.34	2621.40
827.51	2580.44
827.69	2658.26
827.86	2494.43
828.03	2629.59
828.20	2643.93
828.37	2676.70
828.54	2846.68
828.71	2613.21
828.89	2772.95
829.06	2795.48
829.23	2871.25
829.40	2584.54
829.57	2607.06
829.74	2766.81
829.91	2627.54
830.09	2553.82
830.26	2744.28
830.43	2875.35
830.60	2650.07
830.77	2772.95
830.94	2795.48
831.11	2758.61
831.28	2686.94
831.46	2783.19
831.63	2576.34
831.80	2879.44
831.97	2545.63
832.14	2586.58
832.31	2709.46
832.48	2775.00
832.65	2906.07
832.82	2676.70
832.99	2731.99
833.17	2592.73
833.34	2936.79
833.51	2693.08
833.68	2416.60
833.85	2766.81
834.02	2506.71
834.19	2527.19
834.36	2617.30
834.53	2709.46
834.70	2844.63
834.87	2650.07
835.04	2535.39
835.22	2596.82
835.39	2613.21
835.56	2461.66
835.73	2535.39
835.90	2873.30
836.07	2592.73
836.24	2605.02
836.41	2514.91
836.58	2637.78
836.75	2854.87
836.92	2549.72
837.09	2523.10
837.26	2863.06
837.43	2742.23
837.60	2623.45
837.77	2508.76
837.94	2756.57
838.12	2957.27
838.29	2482.14
838.46	2457.56
838.63	2453.47
838.80	2879.44
838.97	2645.98
839.14	2519.00
839.31	2742.23
839.48	2836.44
839.65	2451.42
839.82	2662.36
839.99	2598.87
840.16	2715.61
840.33	2469.85
840.50	2598.87
840.67	2584.54
840.84	2349.02
841.01	2500.57
841.18	2480.09
841.35	2701.27
841.52	2731.99
841.69	2840.53
841.86	2631.64
842.03	2680.79
842.20	2736.09
842.37	2602.97
842.54	2596.82
842.71	2684.89
842.88	2529.24
843.05	2660.31
843.22	2498.52
843.39	2861.01
843.56	2572.25
843.73	2545.63
843.90	2627.54
844.07	2686.94
844.24	2805.72
844.41	2525.15
844.58	2566.10
844.75	2617.30
844.92	2748.37
845.09	2590.68
845.26	2555.86
845.43	2709.46
845.60	2660.31
845.77	2627.54
845.94	2582.49
846.10	2772.95
846.27	2543.58
846.44	2420.70
846.61	2424.80
846.78	2826.20
846.95	2846.68
847.12	2543.58
847.29	2580.44
847.46	2658.26
847.63	2824.15
847.80	2500.57
847.97	2535.39
848.14	3043.28
848.31	2629.59
848.48	2500.57
848.65	2633.69
848.82	2594.78
848.98	3112.91
849.15	2662.36
849.32	2684.89
849.49	2807.77
849.66	2693.08
849.83	2547.67
850.00	2459.61
850.17	2842.58
850.34	2650.07
850.51	2531.29
850.68	2496.47
850.85	2957.27
851.01	2750.42
851.18	2555.86
851.35	2580.44
851.52	2760.66
851.69	2899.92
851.86	2500.57
852.03	2473.95
852.20	2822.10
852.37	2664.41
852.53	2398.17
852.70	2502.62
852.87	2717.65
853.04	2799.57
853.21	2613.21
853.38	2756.57
853.55	2865.11
853.72	2818.00
853.89	2461.66
854.05	2502.62
854.22	2594.78
854.39	2648.02
854.56	2494.43
854.73	2668.50
854.90	2574.30
855.07	2664.41
855.23	2480.09
855.40	2473.95
855.57	2678.74
855.74	2455.51
855.91	2787.29
856.08	2498.52
856.25	2568.15
856.41	2668.50
856.58	2584.54
856.75	2648.02
856.92	2605.02
857.09	2742.23
857.26	2392.03
857.42	2582.49
857.59	2711.51
857.76	2652.12
857.93	2631.64
858.10	2580.44
858.27	2541.53
858.43	2678.74
858.60	2553.82
858.77	2430.94
858.94	2586.58
859.11	2895.83
859.27	2582.49
859.44	2475.99
859.61	3090.38
859.78	2797.53
859.95	2510.81
860.12	2473.95
860.28	3004.37
860.45	3004.37
860.62	2463.71
860.79	2668.50
860.95	2652.12
861.12	2521.05
861.29	2486.23
861.46	2531.29
861.63	2570.20
861.79	2764.76
861.96	2502.62
862.13	2527.19
862.30	2852.82
862.47	2645.98
862.63	2437.08
862.80	2592.73
862.97	2818.00
863.14	2666.46
863.30	2662.36
863.47	2535.39
863.64	2940.88
863.81	2713.56
863.97	2519.00
864.14	2559.96
864.31	2701.27
864.48	2645.98
864.65	2633.69
864.81	2627.54
864.98	2725.85
865.15	2830.29
865.32	2645.98
865.48	2627.54
865.65	2983.89
865.82	2602.97
865.98	2611.16
866.15	2605.02
866.32	2693.08
866.49	2668.50
866.65	2670.55
866.82	2492.38
866.99	2686.94
867.16	2607.06
867.32	2582.49
867.49	2496.47
867.66	2678.74
867.83	2717.65
867.99	2512.86
868.16	2484.19
868.33	2504.67
868.49	2731.99
868.66	2580.44
868.83	2641.88
868.99	2725.85
869.16	2795.48
869.33	2709.46
869.50	2576.34
869.66	2719.70
869.83	2658.26
870.00	2473.95
870.16	2623.45
870.33	2629.59
870.50	2797.53
870.66	2602.97
870.83	2621.40
871.00	2711.51
871.17	2746.33
871.33	2676.70
871.50	2516.95
871.67	2691.03
871.83	2570.20
872.00	2664.41
872.17	2572.25
872.33	2973.65
872.50	2887.64
872.67	2508.76
872.83	2537.43
873.00	2736.09
873.17	2672.60
873.33	2566.10
873.50	2650.07
873.67	2650.07
873.83	2590.68
874.00	2553.82
874.16	2723.80
874.33	2674.65
874.50	2537.43
874.66	2541.53
874.83	2621.40
875.00	2871.25
875.16	2883.54
875.33	2727.89
875.50	2318.30
875.66	2654.17
875.83	2736.09
875.99	2688.98
876.16	2637.78
876.33	2652.12
876.49	2682.84
876.66	2596.82
876.83	2594.78
876.99	2543.58
877.16	2713.56
877.32	2523.10
877.49	2510.81
877.66	2740.18
877.82	2979.79
877.99	2590.68
878.15	2750.42
878.32	2688.98
878.49	2670.55
878.65	2586.58
878.82	2709.46
878.98	2578.39
879.15	2838.48
879.32	2656.22
879.48	2619.35
879.65	2713.56
879.81	2607.06
879.98	2596.82
880.15	2572.25
880.31	2731.99
880.48	2594.78
880.64	2666.46
880.81	2672.60
880.97	2924.50
881.14	2916.31
881.31	2488.28
881.47	2750.42
881.64	2652.12
881.80	2545.63
881.97	2713.56
882.13	2580.44
882.30	2609.11
882.47	2562.01
882.63	2516.95
882.80	2516.95
882.96	2596.82
883.13	2920.40
883.29	2568.15
883.46	2584.54
883.62	3002.32
883.79	2781.14
883.95	2691.03
884.12	2519.00
884.29	2807.77
884.45	2678.74
884.62	2568.15
884.78	2504.67
884.95	2891.73
885.11	2648.02
885.28	2709.46
885.44	2596.82
885.61	2848.72
885.77	2920.40
885.94	2674.65
886.10	2619.35
886.27	2734.04
886.43	3024.85
886.60	2772.95
886.76	2600.92
886.93	2658.26
887.09	2701.27
887.26	2439.13
887.42	2572.25
887.59	2863.06
887.75	3028.95
887.92	2830.29
888.08	2609.11
888.25	2918.36
888.41	2863.06
888.58	2576.34
888.74	2506.71
888.91	2611.16
>>>>>End Processed Spectral Data<<<<<
