SpectraSuite Data File
++++++++++++++++++++++++++++++++++++
Date: Thu May 05 16:20:44 CEST 2016
User: root
Dark Spectrum Present: No
Reference Spectrum Present: No
Number of Sampled Component Spectra: 1
Spectrometers: USB4C02835
Integration Time (usec): 100000 (USB4C02835)
Spectra Averaged: 1 (USB4C02835)
Boxcar Smoothing: 0 (USB4C02835)
Correct for Electrical Dark: No (USB4C02835)
Strobe/Lamp Enabled: No (USB4C02835)
Correct for Detector Non-linearity: No (USB4C02835)
Correct for Stray Light: No (USB4C02835)
Number of Pixels in Processed Spectrum: 3648
>>>>>Begin Processed Spectral Data<<<<<
177.47	2000.87
177.69	2000.87
177.91	2000.87
178.13	2066.40
178.36	1998.82
178.58	2600.92
178.80	2658.26
179.02	2557.91
179.24	2551.77
179.46	2445.27
179.68	2512.86
179.90	2709.46
180.13	2734.04
180.35	2375.64
180.57	2439.13
180.79	2852.82
181.01	2750.42
181.23	2562.01
181.45	2656.22
181.67	2783.19
181.90	2901.97
182.12	2605.02
182.34	2361.31
182.56	2797.53
182.78	2848.72
183.00	2490.33
183.22	2588.63
183.44	2465.75
183.66	3198.93
183.89	2633.69
184.11	2566.10
184.33	2793.43
184.55	2877.40
184.77	2508.76
184.99	2529.24
185.21	2641.88
185.43	3082.19
185.65	2525.15
185.87	2449.37
186.10	3125.20
186.32	2971.60
186.54	2615.26
186.76	2602.97
186.98	2856.92
187.20	2711.51
187.42	2586.58
187.64	2535.39
187.86	2863.06
188.08	2811.86
188.30	2457.56
188.52	2463.71
188.75	2869.20
188.97	3016.66
189.19	2439.13
189.41	2465.75
189.63	2789.33
189.85	2672.60
190.07	2426.84
190.29	2371.55
190.51	2695.13
190.73	2531.29
190.95	2619.35
191.17	2535.39
191.39	2455.51
191.61	2697.17
191.84	2564.06
192.06	2635.74
192.28	2533.34
192.50	3125.20
192.72	2625.50
192.94	2547.67
193.16	2801.62
193.38	2805.72
193.60	2439.13
193.82	2582.49
194.04	2871.25
194.26	2772.95
194.48	2451.42
194.70	2576.34
194.92	2645.98
195.14	2805.72
195.36	2465.75
195.58	2521.05
195.80	2686.94
196.02	2629.59
196.24	2519.00
196.46	2584.54
196.69	2590.68
196.91	3071.95
197.13	2566.10
197.35	2598.87
197.57	2963.41
197.79	2785.24
198.01	2605.02
198.23	2609.11
198.45	2764.76
198.67	2498.52
198.89	2392.03
199.11	2580.44
199.33	2662.36
199.55	2449.37
199.77	2463.71
199.99	2635.74
200.21	2711.51
200.43	2752.47
200.65	2492.38
200.87	2496.47
201.09	2719.70
201.31	2695.13
201.53	2555.86
201.75	2531.29
201.97	2840.53
202.19	2731.99
202.41	2566.10
202.63	2695.13
202.85	2750.42
203.07	2787.29
203.29	2570.20
203.51	2369.50
203.73	2572.25
203.95	3051.47
204.17	2514.91
204.39	2686.94
204.61	2643.93
204.83	2658.26
205.05	2650.07
205.27	2625.50
205.49	3078.10
205.71	2736.09
205.93	2408.41
206.15	2531.29
206.37	2705.37
206.59	2674.65
206.81	2412.51
207.03	2457.56
207.25	2586.58
207.47	2789.33
207.69	2600.92
207.91	2686.94
208.13	2869.20
208.34	2605.02
208.56	2492.38
208.78	2590.68
209.00	2670.55
209.22	2592.73
209.44	2549.72
209.66	2465.75
209.88	2715.61
210.10	2684.89
210.32	2488.28
210.54	2627.54
210.76	2654.17
210.98	2885.59
211.20	2320.35
211.42	2648.02
211.64	2873.30
211.86	2818.00
212.08	2598.87
212.30	2564.06
212.52	2684.89
212.74	2746.33
212.96	2543.58
213.17	2602.97
213.39	2795.48
213.61	2985.94
213.83	2521.05
214.05	2486.23
214.27	2818.00
214.49	2543.58
214.71	2488.28
214.93	2693.08
215.15	2760.66
215.37	2848.72
215.59	2367.45
215.81	2490.33
216.03	2856.92
216.24	2777.05
216.46	2564.06
216.68	2527.19
216.90	2897.88
217.12	2959.31
217.34	2435.03
217.56	2611.16
217.78	2922.45
218.00	2781.14
218.22	2584.54
218.44	2627.54
218.66	2736.09
218.87	3010.51
219.09	2594.78
219.31	2506.71
219.53	2756.57
219.75	2643.93
219.97	2523.10
220.19	2566.10
220.41	2680.79
220.63	2877.40
220.85	2512.86
221.06	2480.09
221.28	2852.82
221.50	2838.48
221.72	2490.33
221.94	2461.66
222.16	2807.77
222.38	2803.67
222.60	2525.15
222.82	2543.58
223.03	2840.53
223.25	2486.23
223.47	2564.06
223.69	2734.04
223.91	2719.70
224.13	2736.09
224.35	2455.51
224.57	2562.01
224.78	2858.96
225.00	2564.06
225.22	2580.44
225.44	2478.04
225.66	2807.77
225.88	2629.59
226.10	2596.82
226.32	2543.58
226.53	2912.21
226.75	2652.12
226.97	2574.30
227.19	2555.86
227.41	2691.03
227.63	2623.45
227.85	2330.59
228.06	2582.49
228.28	2744.28
228.50	2787.29
228.72	2453.47
228.94	2514.91
229.16	2580.44
229.37	2629.59
229.59	2478.04
229.81	2721.75
230.03	2709.46
230.25	2539.48
230.47	2428.89
230.69	2482.14
230.90	2887.64
231.12	2652.12
231.34	2533.34
231.56	2631.64
231.78	2572.25
232.00	2711.51
232.21	2512.86
232.43	2504.67
232.65	2439.13
232.87	2729.94
233.09	2437.08
233.30	2465.75
233.52	2850.77
233.74	2674.65
233.96	2514.91
234.18	2637.78
234.40	2635.74
234.61	3028.95
234.83	2375.64
235.05	2412.51
235.27	3086.29
235.49	2947.03
235.70	2414.56
235.92	2600.92
236.14	2768.85
236.36	3129.30
236.58	2396.12
236.79	2588.63
237.01	2744.28
237.23	2703.32
237.45	2705.37
237.67	2516.95
237.88	2818.00
238.10	2934.74
238.32	2453.47
238.54	2453.47
238.76	2674.65
238.97	2598.87
239.19	2428.89
239.41	2607.06
239.63	2908.12
239.85	2645.98
240.06	2547.67
240.28	2496.47
240.50	2846.68
240.72	2668.50
240.93	2447.32
241.15	2619.35
241.37	2662.36
241.59	2934.74
241.81	2494.43
242.02	2555.86
242.24	2725.85
242.46	2842.58
242.68	2385.88
242.89	2496.47
243.11	2867.16
243.33	2701.27
243.55	2553.82
243.76	2611.16
243.98	2654.17
244.20	2715.61
244.42	2498.52
244.64	2547.67
244.85	2570.20
245.07	2629.59
245.29	2490.33
245.51	2516.95
245.72	2779.09
245.94	2889.68
246.16	2398.17
246.38	2555.86
246.59	2707.41
246.81	2613.21
247.03	2502.62
247.24	2351.07
247.46	2594.78
247.68	2674.65
247.90	2437.08
248.11	2564.06
248.33	2799.57
248.55	2719.70
248.77	2582.49
248.98	2633.69
249.20	2908.12
249.42	2703.32
249.64	2545.63
249.85	2531.29
250.07	2611.16
250.29	2871.25
250.50	2545.63
250.72	2418.65
250.94	2750.42
251.16	2996.18
251.37	2492.38
251.59	2623.45
251.81	2797.53
252.02	2955.22
252.24	2459.61
252.46	2652.12
252.68	2605.02
252.89	2549.72
253.11	2422.75
253.33	2586.58
253.54	2916.31
253.76	2566.10
253.98	2488.28
254.20	2502.62
254.41	2473.95
254.63	2727.89
254.85	2418.65
255.06	2541.53
255.28	2785.24
255.50	2725.85
255.71	2473.95
255.93	2334.68
256.15	2717.65
256.36	2807.77
256.58	2424.80
256.80	2494.43
257.02	2744.28
257.23	2645.98
257.45	2488.28
257.67	2607.06
257.88	2652.12
258.10	2762.71
258.32	2543.58
258.53	2600.92
258.75	2944.98
258.97	2611.16
259.18	2502.62
259.40	2465.75
259.62	2887.64
259.83	2969.55
260.05	2535.39
260.27	3198.93
260.48	2893.78
260.70	2478.04
260.92	2457.56
261.13	2580.44
261.35	2772.95
261.57	2686.94
261.78	2398.17
262.00	2537.43
262.22	2793.43
262.43	2613.21
262.65	2523.10
262.86	2598.87
263.08	3063.76
263.30	2752.47
263.51	2381.79
263.73	2500.57
263.95	2914.26
264.16	2537.43
264.38	2459.61
264.60	2498.52
264.81	2748.37
265.03	2844.63
265.25	2801.62
265.46	2486.23
265.68	2897.88
265.89	2838.48
266.11	2396.12
266.33	2463.71
266.54	2910.16
266.76	2789.33
266.98	2633.69
267.19	2664.41
267.41	2854.87
267.62	2607.06
267.84	2377.69
268.06	2549.72
268.27	2717.65
268.49	2881.49
268.70	2588.63
268.92	2562.01
269.14	2568.15
269.35	2508.76
269.57	2568.15
269.79	2564.06
270.00	2537.43
270.22	3043.28
270.43	2441.18
270.65	2367.45
270.87	2740.18
271.08	2777.05
271.30	2652.12
271.51	2545.63
271.73	2813.91
271.95	2916.31
272.16	2475.99
272.38	2605.02
272.59	2672.60
272.81	2818.00
273.02	2443.23
273.24	2570.20
273.46	2916.31
273.67	2559.96
273.89	2441.18
274.10	2519.00
274.32	2885.59
274.54	2756.57
274.75	2703.32
274.97	2564.06
275.18	2867.16
275.40	2811.86
275.61	2596.82
275.83	2709.46
276.05	2627.54
276.26	2719.70
276.48	2650.07
276.69	2609.11
276.91	2596.82
277.12	2865.11
277.34	2656.22
277.55	2742.23
277.77	2772.95
277.99	2717.65
278.20	2539.48
278.42	2508.76
278.63	2547.67
278.85	2592.73
279.06	2553.82
279.28	2709.46
279.49	2842.58
279.71	2850.77
279.93	2674.65
280.14	2695.13
280.36	2648.02
280.57	2901.97
280.79	2707.41
281.00	2516.95
281.22	2652.12
281.43	2930.64
281.65	2430.94
281.86	2525.15
282.08	2818.00
282.29	2996.18
282.51	2531.29
282.73	2498.52
282.94	2461.66
283.16	2834.39
283.37	2756.57
283.59	2637.78
283.80	2785.24
284.02	2713.56
284.23	2611.16
284.45	2633.69
284.66	2600.92
284.88	2590.68
285.09	2674.65
285.31	2756.57
285.52	2766.81
285.74	2488.28
285.95	2779.09
286.17	2686.94
286.38	2869.20
286.60	2645.98
286.81	2512.86
287.03	2609.11
287.24	2656.22
287.46	2805.72
287.67	2662.36
287.89	2805.72
288.10	2719.70
288.32	2760.66
288.53	2793.43
288.75	2631.64
288.96	2820.05
289.18	2697.17
289.39	2564.06
289.61	2670.55
289.82	2914.26
290.04	3008.47
290.25	2512.86
290.47	2621.40
290.68	2633.69
290.90	2811.86
291.11	2406.36
291.33	2707.41
291.54	2605.02
291.76	2674.65
291.97	2758.61
292.18	2662.36
292.40	2625.50
292.61	2605.02
292.83	2916.31
293.04	2592.73
293.26	2750.42
293.47	2691.03
293.69	2428.89
293.90	2598.87
294.12	2904.02
294.33	2641.88
294.55	2631.64
294.76	2744.28
294.97	2949.08
295.19	2973.65
295.40	2619.35
295.62	2678.74
295.83	2887.64
296.05	2602.97
296.26	2807.77
296.48	2588.63
296.69	2727.89
296.90	2725.85
297.12	2762.71
297.33	2850.77
297.55	2715.61
297.76	2822.10
297.98	2684.89
298.19	2637.78
298.41	2766.81
298.62	2670.55
298.83	2858.96
299.05	2693.08
299.26	2662.36
299.48	2670.55
299.69	2666.46
299.90	2602.97
300.12	2641.88
300.33	2846.68
300.55	2623.45
300.76	2613.21
300.98	2547.67
301.19	2832.34
301.40	2598.87
301.62	2543.58
301.83	2795.48
302.05	2727.89
302.26	2613.21
302.47	2635.74
302.69	2631.64
302.90	2727.89
303.12	2357.21
303.33	2648.02
303.54	2998.23
303.76	2609.11
303.97	2629.59
304.19	2840.53
304.40	2615.26
304.61	2772.95
304.83	2777.05
305.04	2766.81
305.26	2818.00
305.47	2598.87
305.68	2635.74
305.90	2576.34
306.11	2934.74
306.33	2639.83
306.54	2562.01
306.75	2492.38
306.97	2525.15
307.18	2621.40
307.39	2574.30
307.61	2734.04
307.82	2613.21
308.04	2754.52
308.25	2455.51
308.46	2723.80
308.68	2693.08
308.89	2707.41
309.10	2738.13
309.32	2613.21
309.53	2731.99
309.74	2719.70
309.96	2580.44
310.17	2863.06
310.39	2664.41
310.60	2824.15
310.81	2650.07
311.03	2519.00
311.24	2781.14
311.45	2697.17
311.67	2795.48
311.88	2676.70
312.09	2664.41
312.31	2654.17
312.52	2629.59
312.73	2541.53
312.95	2555.86
313.16	2600.92
313.37	2670.55
313.59	2719.70
313.80	2818.00
314.01	2975.70
314.23	2596.82
314.44	2541.53
314.65	2533.34
314.87	2643.93
315.08	2574.30
315.29	2547.67
315.51	2586.58
315.72	2564.06
315.93	2752.47
316.15	2660.31
316.36	2605.02
316.57	2777.05
316.79	2617.30
317.00	2596.82
317.21	2752.47
317.43	2611.16
317.64	2629.59
317.85	2531.29
318.07	2703.32
318.28	2725.85
318.49	2674.65
318.70	2840.53
318.92	2746.33
319.13	2742.23
319.34	2754.52
319.56	2619.35
319.77	2811.86
319.98	2756.57
320.20	2813.91
320.41	2719.70
320.62	2797.53
320.83	2527.19
321.05	2799.57
321.26	2643.93
321.47	2746.33
321.69	2867.16
321.90	2555.86
322.11	2572.25
322.32	2758.61
322.54	2865.11
322.75	2584.54
322.96	3258.32
323.18	2596.82
323.39	2445.27
323.60	2449.37
323.81	2746.33
324.03	2578.39
324.24	2625.50
324.45	2631.64
324.66	2562.01
324.88	3020.75
325.09	2877.40
325.30	2600.92
325.52	2652.12
325.73	2791.38
325.94	2654.17
326.15	2430.94
326.37	2559.96
326.58	2797.53
326.79	2854.87
327.00	2420.70
327.22	2600.92
327.43	2674.65
327.64	2594.78
327.85	2723.80
328.07	2650.07
328.28	2987.99
328.49	2627.54
328.70	2598.87
328.92	2650.07
329.13	2639.83
329.34	2818.00
329.55	2875.35
329.76	2723.80
329.98	2717.65
330.19	2934.74
330.40	2666.46
330.61	2721.75
330.83	2832.34
331.04	2613.21
331.25	2650.07
331.46	2586.58
331.68	2547.67
331.89	2881.49
332.10	2676.70
332.31	2418.65
332.52	2705.37
332.74	2940.88
332.95	2490.33
333.16	2586.58
333.37	2813.91
333.58	2672.60
333.80	2682.84
334.01	2383.84
334.22	2676.70
334.43	2570.20
334.64	2557.91
334.86	2461.66
335.07	2566.10
335.28	2904.02
335.49	2443.23
335.70	2719.70
335.92	2875.35
336.13	3012.56
336.34	2719.70
336.55	2625.50
336.76	2803.67
336.98	2471.90
337.19	2596.82
337.40	2801.62
337.61	3114.96
337.82	2617.30
338.04	2684.89
338.25	2445.27
338.46	2719.70
338.67	2725.85
338.88	2555.86
339.09	2553.82
339.31	2654.17
339.52	2486.23
339.73	2617.30
339.94	2670.55
340.15	2858.96
340.36	2664.41
340.58	2633.69
340.79	2615.26
341.00	2764.76
341.21	2568.15
341.42	2850.77
341.63	2596.82
341.85	2838.48
342.06	2721.75
342.27	2602.97
342.48	2731.99
342.69	2570.20
342.90	2787.29
343.12	2742.23
343.33	2525.15
343.54	2777.05
343.75	2871.25
343.96	2605.02
344.17	2564.06
344.38	2680.79
344.60	2711.51
344.81	2494.43
345.02	2549.72
345.23	2889.68
345.44	3121.10
345.65	2695.13
345.86	2660.31
346.07	2764.76
346.29	2719.70
346.50	2777.05
346.71	2707.41
346.92	2916.31
347.13	3088.34
347.34	2678.74
347.55	2490.33
347.76	2783.19
347.98	2547.67
348.19	2623.45
348.40	2826.20
348.61	2670.55
348.82	2998.23
349.03	2670.55
349.24	2529.24
349.45	3053.52
349.66	2496.47
349.88	2635.74
350.09	2574.30
350.30	2889.68
350.51	2906.07
350.72	2764.76
350.93	2652.12
351.14	2662.36
351.35	2848.72
351.56	2551.77
351.77	2613.21
351.99	2754.52
352.20	2932.69
352.41	2719.70
352.62	2375.64
352.83	2652.12
353.04	2701.27
353.25	2568.15
353.46	2703.32
353.67	2947.03
353.88	2478.04
354.09	2586.58
354.30	2580.44
354.52	2828.24
354.73	2678.74
354.94	2605.02
355.15	2578.39
355.36	2940.88
355.57	2709.46
355.78	2570.20
355.99	2592.73
356.20	2629.59
356.41	2934.74
356.62	2729.94
356.83	2621.40
357.04	2944.98
357.25	2473.95
357.46	2555.86
357.68	2533.34
357.89	2588.63
358.10	2678.74
358.31	2652.12
358.52	2623.45
358.73	2586.58
358.94	2625.50
359.15	2543.58
359.36	2670.55
359.57	2729.94
359.78	2758.61
359.99	2686.94
360.20	2504.67
360.41	2701.27
360.62	2906.07
360.83	2605.02
361.04	2637.78
361.25	2797.53
361.46	2912.21
361.67	2684.89
361.88	2742.23
362.09	2922.45
362.30	2777.05
362.51	2498.52
362.72	2658.26
362.93	2865.11
363.14	2766.81
363.35	2731.99
363.56	2592.73
363.78	2926.55
363.99	2834.39
364.20	2645.98
364.41	2715.61
364.62	2987.99
364.83	2660.31
365.04	2668.50
365.25	2635.74
365.46	3110.86
365.67	2562.01
365.88	2678.74
366.09	2600.92
366.30	2686.94
366.51	2711.51
366.72	2486.23
366.93	2613.21
367.14	2719.70
367.35	2912.21
367.56	2605.02
367.77	2736.09
367.98	2641.88
368.18	2795.48
368.39	2686.94
368.60	2500.57
368.81	2805.72
369.02	2783.19
369.23	2627.54
369.44	2463.71
369.65	2662.36
369.86	2760.66
370.07	2723.80
370.28	2469.85
370.49	2731.99
370.70	2738.13
370.91	2545.63
371.12	2437.08
371.33	2858.96
371.54	2650.07
371.75	2740.18
371.96	2424.80
372.17	2734.04
372.38	2670.55
372.59	2715.61
372.80	2551.77
373.01	2680.79
373.22	2781.14
373.43	2619.35
373.64	2521.05
373.85	2971.60
374.06	2951.12
374.26	2736.09
374.47	2750.42
374.68	3035.09
374.89	2746.33
375.10	2537.43
375.31	2676.70
375.52	2758.61
375.73	2766.81
375.94	2508.76
376.15	2793.43
376.36	2602.97
376.57	2576.34
376.78	2547.67
376.99	2662.36
377.20	2865.11
377.40	2650.07
377.61	2848.72
377.82	2539.48
378.03	2961.36
378.24	2793.43
378.45	2664.41
378.66	2658.26
378.87	2523.10
379.08	2572.25
379.29	2582.49
379.50	2762.71
379.71	2721.75
379.91	2850.77
380.12	2543.58
380.33	2660.31
380.54	2637.78
380.75	2697.17
380.96	2596.82
381.17	2629.59
381.38	2734.04
381.59	2772.95
381.80	2637.78
382.00	2764.76
382.21	2758.61
382.42	2924.50
382.63	2863.06
382.84	2637.78
383.05	2799.57
383.26	2977.75
383.47	2707.41
383.68	2625.50
383.88	2783.19
384.09	2861.01
384.30	2826.20
384.51	2705.37
384.72	2680.79
384.93	2562.01
385.14	2699.22
385.35	2768.85
385.55	2478.04
385.76	2959.31
385.97	2613.21
386.18	2510.81
386.39	2609.11
386.60	2602.97
386.81	2523.10
387.02	2426.84
387.22	2537.43
387.43	2813.91
387.64	2793.43
387.85	2805.72
388.06	2871.25
388.27	4059.07
388.48	7511.95
388.68	11267.92
388.89	13373.24
389.10	14309.16
389.31	13772.59
389.52	10788.70
389.73	9502.58
389.93	8431.49
390.14	7999.37
390.35	6993.81
390.56	6358.94
390.77	5240.75
390.98	4063.17
391.18	3409.87
391.39	3100.62
391.60	2715.61
391.81	2785.24
392.02	2566.10
392.23	2994.13
392.43	2779.09
392.64	2793.43
392.85	2709.46
393.06	2916.31
393.27	2711.51
393.47	2645.98
393.68	2639.83
393.89	2676.70
394.10	2920.40
394.31	2605.02
394.52	2574.30
394.72	2613.21
394.93	2973.65
395.14	2521.05
395.35	2717.65
395.56	2664.41
395.76	2662.36
395.97	2660.31
396.18	2797.53
396.39	2772.95
396.60	3256.27
396.80	2912.21
397.01	2844.63
397.22	2881.49
397.43	2840.53
397.64	2568.15
397.84	2805.72
398.05	3053.52
398.26	2797.53
398.47	2731.99
398.67	2768.85
398.88	2703.32
399.09	2865.11
399.30	2592.73
399.51	2684.89
399.71	2607.06
399.92	2656.22
400.13	2670.55
400.34	2611.16
400.54	2705.37
400.75	2987.99
400.96	2566.10
401.17	2846.68
401.37	2838.48
401.58	2801.62
401.79	2621.40
402.00	2826.20
402.21	3104.72
402.41	2983.89
402.62	2912.21
402.83	3074.00
403.04	3106.77
403.24	3311.57
403.45	2709.46
403.66	2828.24
403.87	2910.16
404.07	3018.71
404.28	2865.11
404.49	2908.12
404.70	2717.65
404.90	2889.68
405.11	2666.46
405.32	2721.75
405.52	2654.17
405.73	2623.45
405.94	2498.52
406.15	2650.07
406.35	2801.62
406.56	2775.00
406.77	2709.46
406.98	2643.93
407.18	2613.21
407.39	2926.55
407.60	2760.66
407.80	2719.70
408.01	2686.94
408.22	2734.04
408.43	2568.15
408.63	2725.85
408.84	2838.48
409.05	2838.48
409.25	2631.64
409.46	2598.87
409.67	2568.15
409.88	2645.98
410.08	2760.66
410.29	2551.77
410.50	2856.92
410.70	2793.43
410.91	2541.53
411.12	2779.09
411.32	2748.37
411.53	2559.96
411.74	2645.98
411.95	2703.32
412.15	2807.77
412.36	2897.88
412.57	2645.98
412.77	2775.00
412.98	2688.98
413.19	2623.45
413.39	2701.27
413.60	2695.13
413.81	2924.50
414.01	2519.00
414.22	2631.64
414.43	2738.13
414.63	2652.12
414.84	2893.78
415.05	2656.22
415.25	2508.76
415.46	2795.48
415.67	2637.78
415.87	2682.84
416.08	2592.73
416.29	2693.08
416.49	2723.80
416.70	2656.22
416.91	2588.63
417.11	2688.98
417.32	2959.31
417.53	2756.57
417.73	2693.08
417.94	2777.05
418.15	2731.99
418.35	2678.74
418.56	2684.89
418.77	3106.77
418.97	2740.18
419.18	2711.51
419.38	2324.44
419.59	2727.89
419.80	2893.78
420.00	2611.16
420.21	2631.64
420.42	2961.36
420.62	2846.68
420.83	2580.44
421.04	2602.97
421.24	2775.00
421.45	2818.00
421.65	2666.46
421.86	2654.17
422.07	2883.54
422.27	2697.17
422.48	2625.50
422.69	2514.91
422.89	2688.98
423.10	2695.13
423.30	2543.58
423.51	2672.60
423.72	2781.14
423.92	2856.92
424.13	2533.34
424.33	2703.32
424.54	2791.38
424.75	2770.90
424.95	2842.58
425.16	2596.82
425.36	2662.36
425.57	2930.64
425.78	2793.43
425.98	2699.22
426.19	2635.74
426.39	2602.97
426.60	2725.85
426.81	2838.48
427.01	2688.98
427.22	2637.78
427.42	2473.95
427.63	2574.30
427.83	2861.01
428.04	2969.55
428.25	2725.85
428.45	2834.39
428.66	2932.69
428.86	2699.22
429.07	2672.60
429.28	2709.46
429.48	2731.99
429.69	2621.40
429.89	2676.70
430.10	2531.29
430.30	2852.82
430.51	2889.68
430.71	2615.26
430.92	2682.84
431.13	2641.88
431.33	2824.15
431.54	2658.26
431.74	2846.68
431.95	3022.80
432.15	2600.92
432.36	2684.89
432.56	2707.41
432.77	3028.95
432.98	2990.03
433.18	2783.19
433.39	2584.54
433.59	2566.10
433.80	3067.86
434.00	2875.35
434.21	2572.25
434.41	2615.26
434.62	3088.34
434.82	2559.96
435.03	2539.48
435.23	2787.29
435.44	2385.88
435.64	2625.50
435.85	2691.03
436.06	2830.29
436.26	2832.34
436.47	2645.98
436.67	2592.73
436.88	2676.70
437.08	2879.44
437.29	2834.39
437.49	2760.66
437.70	2889.68
437.90	2686.94
438.11	2852.82
438.31	2758.61
438.52	2856.92
438.72	2865.11
438.93	2934.74
439.13	2766.81
439.34	2920.40
439.54	2719.70
439.75	2701.27
439.95	2695.13
440.16	2621.40
440.36	2691.03
440.57	2650.07
440.77	2703.32
440.98	2682.84
441.18	2840.53
441.39	2654.17
441.59	2512.86
441.80	3065.81
442.00	2752.47
442.21	2750.42
442.41	2562.01
442.62	2856.92
442.82	2666.46
443.02	2666.46
443.23	2609.11
443.43	2746.33
443.64	2785.24
443.84	2557.91
444.05	2785.24
444.25	2760.66
444.46	2592.73
444.66	2684.89
444.87	2803.67
445.07	2527.19
445.28	2695.13
445.48	2856.92
445.69	2748.37
445.89	3030.99
446.09	2709.46
446.30	2975.70
446.50	3137.49
446.71	4530.11
446.91	5527.47
447.12	6537.12
447.32	6784.92
447.53	6518.68
447.73	5369.77
447.93	4710.33
448.14	4505.53
448.34	4478.91
448.55	3854.28
448.75	3895.24
448.96	3684.30
449.16	3383.24
449.36	3215.31
449.57	2912.21
449.77	2670.55
449.98	2662.36
450.18	2785.24
450.39	2684.89
450.59	2772.95
450.79	2701.27
451.00	2693.08
451.20	2719.70
451.41	2637.78
451.61	2881.49
451.81	2682.84
452.02	2641.88
452.22	2658.26
452.43	2645.98
452.63	2637.78
452.84	2678.74
453.04	2627.54
453.24	2791.38
453.45	2602.97
453.65	2746.33
453.86	2643.93
454.06	2863.06
454.26	2805.72
454.47	2521.05
454.67	2869.20
454.87	2807.77
455.08	2688.98
455.28	2842.58
455.49	2709.46
455.69	2650.07
455.89	3051.47
456.10	2852.82
456.30	2602.97
456.51	2846.68
456.71	2762.71
456.91	2789.33
457.12	2652.12
457.32	2805.72
457.52	2609.11
457.73	2785.24
457.93	2822.10
458.14	2664.41
458.34	2541.53
458.54	2682.84
458.75	2586.58
458.95	2883.54
459.15	2768.85
459.36	2695.13
459.56	2658.26
459.76	3125.20
459.97	2736.09
460.17	2699.22
460.37	2813.91
460.58	2717.65
460.78	2813.91
460.99	2617.30
461.19	2594.78
461.39	2635.74
461.60	2682.84
461.80	2670.55
462.00	2588.63
462.21	2664.41
462.41	2617.30
462.61	2533.34
462.82	2492.38
463.02	2824.15
463.22	2777.05
463.43	2789.33
463.63	2592.73
463.83	3059.67
464.04	2799.57
464.24	2615.26
464.44	2537.43
464.64	2764.76
464.85	2818.00
465.05	2676.70
465.25	2680.79
465.46	2652.12
465.66	2875.35
465.86	2707.41
466.07	2664.41
466.27	2756.57
466.47	2480.09
466.68	2453.47
466.88	2824.15
467.08	2879.44
467.29	2797.53
467.49	2711.51
467.69	2713.56
467.89	2877.40
468.10	2662.36
468.30	2725.85
468.50	2811.86
468.71	2842.58
468.91	2572.25
469.11	2854.87
469.31	2668.50
469.52	2643.93
469.72	3012.56
469.92	2887.64
470.13	2656.22
470.33	2742.23
470.53	2725.85
470.73	3008.47
470.94	3360.72
471.14	3370.96
471.34	3766.21
471.54	3653.58
471.75	3280.85
471.95	3137.49
472.15	3039.19
472.36	3137.49
472.56	2983.89
472.76	3092.43
472.96	3063.76
473.17	2899.92
473.37	2865.11
473.57	2744.28
473.77	2756.57
473.98	2707.41
474.18	2455.51
474.38	3225.55
474.58	2738.13
474.79	2535.39
474.99	2727.89
475.19	2852.82
475.39	2596.82
475.60	2717.65
475.80	2684.89
476.00	2678.74
476.20	2674.65
476.41	2658.26
476.61	2713.56
476.81	2965.46
477.01	2617.30
477.21	2897.88
477.42	2758.61
477.62	2602.97
477.82	2850.77
478.02	2621.40
478.23	2731.99
478.43	2605.02
478.63	2719.70
478.83	2686.94
479.03	2668.50
479.24	2944.98
479.44	2955.22
479.64	2574.30
479.84	2506.71
480.04	2609.11
480.25	2885.59
480.45	2535.39
480.65	2613.21
480.85	3004.37
481.06	2584.54
481.26	2719.70
481.46	2688.98
481.66	2766.81
481.86	2641.88
482.06	2793.43
482.27	2658.26
482.47	2678.74
482.67	2682.84
482.87	2621.40
483.07	2748.37
483.28	2656.22
483.48	2547.67
483.68	2627.54
483.88	2562.01
484.08	2406.36
484.29	2539.48
484.49	2750.42
484.69	2490.33
484.89	2985.94
485.09	2865.11
485.29	2731.99
485.50	2750.42
485.70	2654.17
485.90	2879.44
486.10	2756.57
486.30	2678.74
486.50	2926.55
486.71	2746.33
486.91	2809.81
487.11	2760.66
487.31	2582.49
487.51	2830.29
487.71	2543.58
487.91	2512.86
488.12	2574.30
488.32	2367.45
488.52	2600.92
488.72	2435.03
488.92	2668.50
489.12	2844.63
489.32	2787.29
489.53	2686.94
489.73	2519.00
489.93	3039.19
490.13	2600.92
490.33	2418.65
490.53	2758.61
490.73	2850.77
490.94	2471.90
491.14	2758.61
491.34	2766.81
491.54	2861.01
491.74	3579.85
491.94	4014.02
492.14	4382.65
492.34	4442.04
492.54	4112.32
492.75	3567.56
492.95	3629.00
493.15	3424.20
493.35	3370.96
493.55	3229.65
493.75	3129.30
493.95	3258.32
494.15	2893.78
494.35	2717.65
494.56	2762.71
494.76	2596.82
494.96	2834.39
495.16	2711.51
495.36	2678.74
495.56	2709.46
495.76	2654.17
495.96	2627.54
496.16	2588.63
496.36	3026.90
496.56	2668.50
496.77	2674.65
496.97	2703.32
497.17	2930.64
497.37	2486.23
497.57	2738.13
497.77	2785.24
497.97	2531.29
498.17	2654.17
498.37	2648.02
498.57	2832.34
498.77	2652.12
498.97	2727.89
499.17	2885.59
499.38	2686.94
499.58	2848.72
499.78	2762.71
499.98	2777.05
500.18	2678.74
500.38	2676.70
500.58	2891.73
500.78	3356.62
500.98	5253.04
501.18	7241.62
501.38	8595.32
501.58	9518.96
501.78	9389.94
501.98	7700.36
502.18	6504.35
502.38	5603.24
502.58	5384.11
502.78	4782.01
502.98	4605.88
503.18	4384.70
503.38	4032.45
503.59	3610.57
503.79	3495.88
503.99	3268.56
504.19	3153.87
504.39	3190.74
504.59	3149.78
504.79	3076.05
504.99	3178.45
505.19	2963.41
505.39	2805.72
505.59	2987.99
505.79	2985.94
505.99	2938.84
506.19	2682.84
506.39	2924.50
506.59	2619.35
506.79	2723.80
506.99	2838.48
507.19	2641.88
507.39	2715.61
507.59	2523.10
507.79	2598.87
507.99	2551.77
508.19	2711.51
508.39	2662.36
508.59	2658.26
508.79	2865.11
508.99	2949.08
509.19	2639.83
509.39	2748.37
509.59	2531.29
509.79	2695.13
509.99	2703.32
510.19	2781.14
510.39	2756.57
510.59	2799.57
510.79	2682.84
510.99	2539.48
511.19	2615.26
511.39	3039.19
511.59	2895.83
511.79	2830.29
511.99	2666.46
512.19	3071.95
512.38	2691.03
512.58	2598.87
512.78	2660.31
512.98	2871.25
513.18	2912.21
513.38	2432.99
513.58	2791.38
513.78	2633.69
513.98	2697.17
514.18	2619.35
514.38	2576.34
514.58	2836.44
514.78	2586.58
514.98	2439.13
515.18	2605.02
515.38	2641.88
515.58	3018.71
515.78	2611.16
515.98	2670.55
516.18	2834.39
516.38	2684.89
516.57	2635.74
516.77	2609.11
516.97	2850.77
517.17	2609.11
517.37	2504.67
517.57	2766.81
517.77	2781.14
517.97	2680.79
518.17	2818.00
518.37	2574.30
518.57	2660.31
518.77	2686.94
518.97	2658.26
519.16	2695.13
519.36	2930.64
519.56	2713.56
519.76	2664.41
519.96	2639.83
520.16	2977.75
520.36	2686.94
520.56	2822.10
520.76	2617.30
520.96	2697.17
521.16	2842.58
521.35	2809.81
521.55	2840.53
521.75	2695.13
521.95	2623.45
522.15	2648.02
522.35	2475.99
522.55	2619.35
522.75	2791.38
522.95	2602.97
523.14	2494.43
523.34	2818.00
523.54	2672.60
523.74	2785.24
523.94	2746.33
524.14	2463.71
524.34	2719.70
524.54	2777.05
524.73	2658.26
524.93	2842.58
525.13	2777.05
525.33	2430.94
525.53	3016.66
525.73	2871.25
525.93	2731.99
526.13	2576.34
526.32	2562.01
526.52	2813.91
526.72	2885.59
526.92	2686.94
527.12	2619.35
527.32	2545.63
527.52	2736.09
527.71	2713.56
527.91	2574.30
528.11	2643.93
528.31	2715.61
528.51	2553.82
528.71	2738.13
528.90	2785.24
529.10	2959.31
529.30	2797.53
529.50	2389.98
529.70	2772.95
529.90	2734.04
530.09	2695.13
530.29	2523.10
530.49	2602.97
530.69	3211.22
530.89	2734.04
531.09	2727.89
531.28	2727.89
531.48	2834.39
531.68	2641.88
531.88	2703.32
532.08	2826.20
532.28	2664.41
532.47	2768.85
532.67	2760.66
532.87	2734.04
533.07	2572.25
533.27	2676.70
533.46	2686.94
533.66	2734.04
533.86	2688.98
534.06	2693.08
534.26	2695.13
534.45	2664.41
534.65	2840.53
534.85	2721.75
535.05	2619.35
535.25	2818.00
535.44	2502.62
535.64	2695.13
535.84	2602.97
536.04	2701.27
536.24	2617.30
536.43	2605.02
536.63	2691.03
536.83	2654.17
537.03	2740.18
537.22	2404.32
537.42	2488.28
537.62	2684.89
537.82	2678.74
538.02	2844.63
538.21	2729.94
538.41	3223.50
538.61	2832.34
538.81	2637.78
539.00	2772.95
539.20	2521.05
539.40	2625.50
539.60	2678.74
539.79	2838.48
539.99	2725.85
540.19	2625.50
540.39	2562.01
540.58	2744.28
540.78	2889.68
540.98	2797.53
541.18	2717.65
541.37	2674.65
541.57	2723.80
541.77	2758.61
541.97	2609.11
542.16	2523.10
542.36	2662.36
542.56	2635.74
542.76	2879.44
542.95	2779.09
543.15	2777.05
543.35	2848.72
543.54	2613.21
543.74	2586.58
543.94	2895.83
544.14	2699.22
544.33	2789.33
544.53	2549.72
544.73	2678.74
544.93	2656.22
545.12	2576.34
545.32	2664.41
545.52	2686.94
545.71	2529.24
545.91	2670.55
546.11	2562.01
546.30	2674.65
546.50	2686.94
546.70	2736.09
546.90	2641.88
547.09	2498.52
547.29	2668.50
547.49	2801.62
547.68	2658.26
547.88	2613.21
548.08	2811.86
548.27	3086.29
548.47	2582.49
548.67	2633.69
548.87	2799.57
549.06	2670.55
549.26	2566.10
549.46	2707.41
549.65	2613.21
549.85	2633.69
550.05	2738.13
550.24	2580.44
550.44	2781.14
550.64	2717.65
550.83	2709.46
551.03	2928.60
551.23	2826.20
551.42	2672.60
551.62	2705.37
551.82	2676.70
552.01	2662.36
552.21	2736.09
552.41	2705.37
552.60	2973.65
552.80	2754.52
553.00	2582.49
553.19	2611.16
553.39	2893.78
553.59	2551.77
553.78	2785.24
553.98	2695.13
554.17	2566.10
554.37	2813.91
554.57	2752.47
554.76	2516.95
554.96	2596.82
555.16	2734.04
555.35	2775.00
555.55	2801.62
555.75	2701.27
555.94	2844.63
556.14	2379.74
556.33	2766.81
556.53	2715.61
556.73	2711.51
556.92	2807.77
557.12	2686.94
557.32	3049.43
557.51	2828.24
557.71	2750.42
557.90	2801.62
558.10	2934.74
558.30	2721.75
558.49	2658.26
558.69	2564.06
558.88	2731.99
559.08	2734.04
559.28	2619.35
559.47	2691.03
559.67	2844.63
559.86	2965.46
560.06	2674.65
560.26	2662.36
560.45	2842.58
560.65	2598.87
560.84	2852.82
561.04	2629.59
561.24	2818.00
561.43	2609.11
561.63	2887.64
561.82	2803.67
562.02	2756.57
562.22	2639.83
562.41	2607.06
562.61	2607.06
562.80	2691.03
563.00	3125.20
563.19	2652.12
563.39	2680.79
563.59	2793.43
563.78	2570.20
563.98	2514.91
564.17	2588.63
564.37	2478.04
564.56	2707.41
564.76	2570.20
564.96	2828.24
565.15	2836.44
565.35	3096.53
565.54	2668.50
565.74	2707.41
565.93	2797.53
566.13	2723.80
566.32	2729.94
566.52	2789.33
566.71	2760.66
566.91	2975.70
567.11	2762.71
567.30	2570.20
567.50	2848.72
567.69	2705.37
567.89	2645.98
568.08	2496.47
568.28	2787.29
568.47	2549.72
568.67	2639.83
568.86	2617.30
569.06	2895.83
569.25	2727.89
569.45	2502.62
569.64	2617.30
569.84	2656.22
570.04	2822.10
570.23	2543.58
570.43	2695.13
570.62	2731.99
570.82	2920.40
571.01	2537.43
571.21	2580.44
571.40	2594.78
571.60	2879.44
571.79	2676.70
571.99	2641.88
572.18	2652.12
572.38	2754.52
572.57	2684.89
572.77	2668.50
572.96	3092.43
573.16	2717.65
573.35	2637.78
573.55	2822.10
573.74	2895.83
573.94	2670.55
574.13	2648.02
574.33	2799.57
574.52	2944.98
574.71	2701.27
574.91	2750.42
575.10	2482.14
575.30	2631.64
575.49	2648.02
575.69	2555.86
575.88	2699.22
576.08	2719.70
576.27	2959.31
576.47	2590.68
576.66	2871.25
576.86	2932.69
577.05	2791.38
577.25	2711.51
577.44	2895.83
577.64	2643.93
577.83	2879.44
578.02	2617.30
578.22	2795.48
578.41	2875.35
578.61	2686.94
578.80	2586.58
579.00	2674.65
579.19	2758.61
579.39	2842.58
579.58	2879.44
579.77	2668.50
579.97	2897.88
580.16	2932.69
580.36	2813.91
580.55	2775.00
580.75	2770.90
580.94	2713.56
581.13	2881.49
581.33	2873.30
581.52	2742.23
581.72	3106.77
581.91	2775.00
582.11	2658.26
582.30	2861.01
582.49	2752.47
582.69	2916.31
582.88	2641.88
583.08	2768.85
583.27	3016.66
583.47	2668.50
583.66	2584.54
583.85	2654.17
584.05	2703.32
584.24	2762.71
584.44	2744.28
584.63	2932.69
584.82	2934.74
585.02	2791.38
585.21	2809.81
585.41	2918.36
585.60	2826.20
585.79	2926.55
585.99	2910.16
586.18	2834.39
586.37	3534.79
586.57	5535.66
586.76	15894.29
586.96	35034.60
587.15	48287.01
587.34	56870.04
587.54	60916.83
587.73	54822.08
587.93	38534.58
588.12	29447.74
588.31	23950.99
588.51	20895.43
588.70	19220.19
588.89	16989.95
589.09	14755.61
589.28	12406.59
589.47	9938.79
589.67	7444.37
589.86	5963.68
590.06	4644.79
590.25	3932.10
590.44	3463.12
590.64	3170.26
590.83	3016.66
591.02	2936.79
591.22	2723.80
591.41	2768.85
591.60	2703.32
591.80	3217.36
591.99	2498.52
592.18	2719.70
592.38	2881.49
592.57	2674.65
592.76	2637.78
592.96	2711.51
593.15	2772.95
593.34	2924.50
593.54	2691.03
593.73	2842.58
593.92	2760.66
594.12	2861.01
594.31	2717.65
594.50	2824.15
594.70	2803.67
594.89	3192.78
595.08	2557.91
595.28	2850.77
595.47	3252.17
595.66	2910.16
595.86	2559.96
596.05	2611.16
596.24	2629.59
596.43	2979.79
596.63	2760.66
596.82	2750.42
597.01	2729.94
597.21	3047.38
597.40	2709.46
597.59	2711.51
597.79	2709.46
597.98	2836.44
598.17	2674.65
598.36	2666.46
598.56	2832.34
598.75	2641.88
598.94	2686.94
599.14	2791.38
599.33	2621.40
599.52	2807.77
599.71	2750.42
599.91	2717.65
600.10	2813.91
600.29	2779.09
600.48	2846.68
600.68	2764.76
600.87	2783.19
601.06	2658.26
601.26	2742.23
601.45	2727.89
601.64	2691.03
601.83	2990.03
602.03	2656.22
602.22	2488.28
602.41	2879.44
602.60	3024.85
602.80	2729.94
602.99	2717.65
603.18	2613.21
603.37	2826.20
603.57	2658.26
603.76	2688.98
603.95	2822.10
604.14	2668.50
604.34	2582.49
604.53	2584.54
604.72	2746.33
604.91	2809.81
605.10	2809.81
605.30	2543.58
605.49	3078.10
605.68	2818.00
605.87	2760.66
606.07	2506.71
606.26	2713.56
606.45	2795.48
606.64	2682.84
606.84	2672.60
607.03	2738.13
607.22	2791.38
607.41	2617.30
607.60	2605.02
607.80	2871.25
607.99	2658.26
608.18	2686.94
608.37	2688.98
608.56	2633.69
608.76	2873.30
608.95	2811.86
609.14	2775.00
609.33	2834.39
609.52	2916.31
609.72	2703.32
609.91	2779.09
610.10	2791.38
610.29	2938.84
610.48	2797.53
610.68	2760.66
610.87	2734.04
611.06	2826.20
611.25	2611.16
611.44	2809.81
611.63	2664.41
611.83	2887.64
612.02	2580.44
612.21	2832.34
612.40	2533.34
612.59	2547.67
612.79	2582.49
612.98	2723.80
613.17	2924.50
613.36	2760.66
613.55	2899.92
613.74	2635.74
613.93	2791.38
614.13	2836.44
614.32	2918.36
614.51	2797.53
614.70	2736.09
614.89	2752.47
615.08	2768.85
615.28	3160.02
615.47	2545.63
615.66	2789.33
615.85	2750.42
616.04	2744.28
616.23	2746.33
616.42	2744.28
616.62	2727.89
616.81	2717.65
617.00	2695.13
617.19	2731.99
617.38	2654.17
617.57	2707.41
617.76	2844.63
617.95	2781.14
618.15	2818.00
618.34	2852.82
618.53	2645.98
618.72	2844.63
618.91	2863.06
619.10	2832.34
619.29	2703.32
619.48	2695.13
619.68	2582.49
619.87	2652.12
620.06	2498.52
620.25	2811.86
620.44	2547.67
620.63	2584.54
620.82	2748.37
621.01	2766.81
621.20	2631.64
621.39	2777.05
621.59	2785.24
621.78	2754.52
621.97	2717.65
622.16	2793.43
622.35	2719.70
622.54	2852.82
622.73	2789.33
622.92	2463.71
623.11	2897.88
623.30	2711.51
623.49	2758.61
623.68	2594.78
623.88	2904.02
624.07	2742.23
624.26	2602.97
624.45	2705.37
624.64	2758.61
624.83	2785.24
625.02	2678.74
625.21	2674.65
625.40	2766.81
625.59	2973.65
625.78	2717.65
625.97	2785.24
626.16	2959.31
626.35	2879.44
626.54	2703.32
626.74	2854.87
626.93	2629.59
627.12	2746.33
627.31	2791.38
627.50	2650.07
627.69	2807.77
627.88	2514.91
628.07	2719.70
628.26	2527.19
628.45	2594.78
628.64	2623.45
628.83	2684.89
629.02	2570.20
629.21	2852.82
629.40	2822.10
629.59	2623.45
629.78	2598.87
629.97	2750.42
630.16	2768.85
630.35	2621.40
630.54	2600.92
630.73	2664.41
630.92	2746.33
631.11	2623.45
631.30	2676.70
631.49	2869.20
631.68	2717.65
631.87	2723.80
632.06	2557.91
632.25	3100.62
632.44	2666.46
632.63	2680.79
632.82	2629.59
633.01	2582.49
633.20	2795.48
633.39	2680.79
633.58	2543.58
633.77	2842.58
633.96	2785.24
634.15	2750.42
634.34	2768.85
634.53	2727.89
634.72	2709.46
634.91	2535.39
635.10	2746.33
635.29	2891.73
635.48	2719.70
635.67	2615.26
635.86	2392.03
636.05	2908.12
636.24	2703.32
636.43	2678.74
636.62	2674.65
636.81	2494.43
637.00	2803.67
637.19	2691.03
637.38	2652.12
637.57	2613.21
637.76	2725.85
637.95	2850.77
638.14	2660.31
638.33	2709.46
638.52	2740.18
638.71	2658.26
638.89	2543.58
639.08	3176.40
639.27	2953.17
639.46	2844.63
639.65	3100.62
639.84	3200.98
640.03	3262.41
640.22	3078.10
640.41	3139.54
640.60	2867.16
640.79	2883.54
640.98	2842.58
641.17	2891.73
641.36	2871.25
641.55	2920.40
641.74	2582.49
641.92	2592.73
642.11	2670.55
642.30	2701.27
642.49	2539.48
642.68	2613.21
642.87	2760.66
643.06	2799.57
643.25	2596.82
643.44	2580.44
643.63	2703.32
643.82	2799.57
644.00	2551.77
644.19	2756.57
644.38	2549.72
644.57	2772.95
644.76	2643.93
644.95	2633.69
645.14	2719.70
645.33	2693.08
645.52	2711.51
645.71	2490.33
645.89	2648.02
646.08	2619.35
646.27	2660.31
646.46	2910.16
646.65	2607.06
646.84	2748.37
647.03	2519.00
647.22	2803.67
647.40	2750.42
647.59	2635.74
647.78	2467.80
647.97	2541.53
648.16	2547.67
648.35	2981.84
648.54	2744.28
648.73	2674.65
648.91	2932.69
649.10	2645.98
649.29	2572.25
649.48	2549.72
649.67	2746.33
649.86	2674.65
650.05	2684.89
650.23	2811.86
650.42	2670.55
650.61	2985.94
650.80	2811.86
650.99	2850.77
651.18	2873.30
651.36	2932.69
651.55	2676.70
651.74	2793.43
651.93	2703.32
652.12	2717.65
652.31	2688.98
652.49	2682.84
652.68	2701.27
652.87	2928.60
653.06	2793.43
653.25	2883.54
653.44	2713.56
653.62	2906.07
653.81	2568.15
654.00	2748.37
654.19	2875.35
654.38	3145.68
654.56	2678.74
654.75	2572.25
654.94	2850.77
655.13	2723.80
655.32	2627.54
655.51	2727.89
655.69	2609.11
655.88	2826.20
656.07	2547.67
656.26	2699.22
656.45	2484.19
656.63	2707.41
656.82	2703.32
657.01	2805.72
657.20	2658.26
657.38	2895.83
657.57	2580.44
657.76	2492.38
657.95	2840.53
658.14	2666.46
658.32	2678.74
658.51	2473.95
658.70	2723.80
658.89	2674.65
659.08	2725.85
659.26	2879.44
659.45	2625.50
659.64	2848.72
659.83	2619.35
660.01	3010.51
660.20	2717.65
660.39	2963.41
660.58	2461.66
660.76	2701.27
660.95	2519.00
661.14	2697.17
661.33	2525.15
661.51	2627.54
661.70	2605.02
661.89	2813.91
662.08	2693.08
662.26	2492.38
662.45	2553.82
662.64	3018.71
662.83	2758.61
663.01	2539.48
663.20	2643.93
663.39	2977.75
663.58	2645.98
663.76	2607.06
663.95	2822.10
664.14	2562.01
664.32	2637.78
664.51	2531.29
664.70	2529.24
664.89	2795.48
665.07	2570.20
665.26	2791.38
665.45	2529.24
665.64	2838.48
665.82	2598.87
666.01	2809.81
666.20	2533.34
666.38	2906.07
666.57	2881.49
666.76	4157.38
666.95	9953.13
667.13	16858.88
667.32	20928.19
667.51	23774.87
667.69	24727.17
667.88	21565.11
668.07	15124.25
668.25	13016.89
668.44	10884.95
668.63	9588.59
668.81	8497.02
669.00	7296.91
669.19	6504.35
669.38	5738.41
669.56	4962.23
669.75	4286.40
669.94	3749.83
670.12	3342.28
670.31	3092.43
670.50	2957.27
670.68	2957.27
670.87	2787.29
671.06	2613.21
671.24	2678.74
671.43	3006.42
671.62	2742.23
671.80	2619.35
671.99	2734.04
672.18	2748.37
672.36	2848.72
672.55	2691.03
672.74	2691.03
672.92	2684.89
673.11	2832.34
673.29	2566.10
673.48	2750.42
673.67	2740.18
673.85	2854.87
674.04	2590.68
674.23	2731.99
674.41	3016.66
674.60	2582.49
674.79	2533.34
674.97	2516.95
675.16	2824.15
675.34	2893.78
675.53	2660.31
675.72	2656.22
675.90	3012.56
676.09	2598.87
676.28	2736.09
676.46	2566.10
676.65	2899.92
676.83	2537.43
677.02	2668.50
677.21	2725.85
677.39	2762.71
677.58	2611.16
677.77	2648.02
677.95	2564.06
678.14	2674.65
678.32	2701.27
678.51	2574.30
678.70	2965.46
678.88	2678.74
679.07	2801.62
679.25	2682.84
679.44	2682.84
679.63	2500.57
679.81	2777.05
680.00	2832.34
680.18	2746.33
680.37	2955.22
680.55	2707.41
680.74	2543.58
680.93	2445.27
681.11	2846.68
681.30	2789.33
681.48	2693.08
681.67	2693.08
681.85	2695.13
682.04	2650.07
682.23	2811.86
682.41	2678.74
682.60	2674.65
682.78	2670.55
682.97	2521.05
683.15	2652.12
683.34	2756.57
683.53	2918.36
683.71	2584.54
683.90	2678.74
684.08	2969.55
684.27	2676.70
684.45	2674.65
684.64	2828.24
684.82	2674.65
685.01	2762.71
685.19	2594.78
685.38	2916.31
685.57	2703.32
685.75	2688.98
685.94	2611.16
686.12	2572.25
686.31	2684.89
686.49	3057.62
686.68	2342.88
686.86	2691.03
687.05	2697.17
687.23	2953.17
687.42	2625.50
687.60	2590.68
687.79	2813.91
687.97	2899.92
688.16	2879.44
688.34	2846.68
688.53	2533.34
688.71	2777.05
688.90	2883.54
689.08	2637.78
689.27	2492.38
689.45	2793.43
689.64	2838.48
689.82	2746.33
690.01	2791.38
690.19	2768.85
690.38	2662.36
690.56	2779.09
690.75	2615.26
690.93	2660.31
691.12	2645.98
691.30	2729.94
691.49	2600.92
691.67	2779.09
691.86	3030.99
692.04	2643.93
692.23	2734.04
692.41	2625.50
692.60	2965.46
692.78	2840.53
692.97	2766.81
693.15	2846.68
693.34	2916.31
693.52	2840.53
693.71	2643.93
693.89	2695.13
694.08	2402.27
694.26	2756.57
694.44	2883.54
694.63	2815.96
694.81	2564.06
695.00	2645.98
695.18	2842.58
695.37	3020.75
695.55	2777.05
695.74	2621.40
695.92	2660.31
696.10	2850.77
696.29	2463.71
696.47	2682.84
696.66	2568.15
696.84	2588.63
697.03	2686.94
697.21	2914.26
697.40	4018.11
697.58	2854.87
697.76	2602.97
697.95	2607.06
698.13	2586.58
698.32	2574.30
698.50	2674.65
698.68	2721.75
698.87	2729.94
699.05	2965.46
699.24	2615.26
699.42	2504.67
699.61	2783.19
699.79	2756.57
699.97	2660.31
700.16	2512.86
700.34	2645.98
700.53	2785.24
700.71	2797.53
700.89	2731.99
701.08	2645.98
701.26	2744.28
701.45	3104.72
701.63	2574.30
701.81	2580.44
702.00	2650.07
702.18	2717.65
702.37	2670.55
702.55	3002.32
702.73	2867.16
702.92	2719.70
703.10	2985.94
703.28	2889.68
703.47	2611.16
703.65	2830.29
703.84	2838.48
704.02	2670.55
704.20	2916.31
704.39	2543.58
704.57	2602.97
704.75	2785.24
704.94	2871.25
705.12	2738.13
705.30	3065.81
705.49	5711.78
705.67	11792.20
705.86	17680.11
706.04	20246.22
706.22	22802.08
706.41	22699.69
706.59	17600.24
706.77	13221.69
706.96	11501.39
707.14	10303.33
707.32	8961.91
707.51	7769.99
707.69	6434.72
707.87	5275.57
708.06	4530.11
708.24	3837.89
708.42	3356.62
708.61	3454.92
708.79	2686.94
708.97	2766.81
709.16	2828.24
709.34	2824.15
709.52	2627.54
709.71	2686.94
709.89	2785.24
710.07	2580.44
710.26	2562.01
710.44	2643.93
710.62	2797.53
710.80	2670.55
710.99	2758.61
711.17	2742.23
711.35	2568.15
711.54	2672.60
711.72	2772.95
711.90	2756.57
712.09	2738.13
712.27	2658.26
712.45	2791.38
712.63	2605.02
712.82	2707.41
713.00	2691.03
713.18	2775.00
713.37	2770.90
713.55	2828.24
713.73	2830.29
713.91	2799.57
714.10	2650.07
714.28	2707.41
714.46	2736.09
714.65	2744.28
714.83	2678.74
715.01	2715.61
715.19	2678.74
715.38	2555.86
715.56	2781.14
715.74	2686.94
715.92	2633.69
716.11	2961.36
716.29	2414.56
716.47	2658.26
716.65	2652.12
716.84	2490.33
717.02	2707.41
717.20	2521.05
717.38	2568.15
717.57	2674.65
717.75	2695.13
717.93	2611.16
718.11	2834.39
718.30	2506.71
718.48	2715.61
718.66	2891.73
718.84	2885.59
719.03	2648.02
719.21	2498.52
719.39	2998.23
719.57	2871.25
719.75	2797.53
719.94	2627.54
720.12	2658.26
720.30	2717.65
720.48	2709.46
720.67	2645.98
720.85	2645.98
721.03	2627.54
721.21	2609.11
721.39	2795.48
721.58	2785.24
721.76	2777.05
721.94	2740.18
722.12	2748.37
722.30	2944.98
722.49	2623.45
722.67	2707.41
722.85	2676.70
723.03	2570.20
723.21	2600.92
723.40	2664.41
723.58	2793.43
723.76	2865.11
723.94	2920.40
724.12	2717.65
724.30	2867.16
724.49	2848.72
724.67	2627.54
724.85	2832.34
725.03	2506.71
725.21	2879.44
725.40	2887.64
725.58	2611.16
725.76	2832.34
725.94	2762.71
726.12	2594.78
726.30	2545.63
726.49	2645.98
726.67	2703.32
726.85	2760.66
727.03	3092.43
727.21	4020.16
727.39	5191.60
727.57	5582.76
727.76	6064.04
727.94	6076.32
728.12	5511.08
728.30	4616.12
728.48	4274.11
728.66	4011.97
728.84	3690.44
729.03	3334.09
729.21	3174.35
729.39	2990.03
729.57	2768.85
729.75	2836.44
729.93	2752.47
730.11	2676.70
730.30	2588.63
730.48	2660.31
730.66	2793.43
730.84	2787.29
731.02	2768.85
731.20	2627.54
731.38	2697.17
731.56	2537.43
731.74	2594.78
731.93	2760.66
732.11	2768.85
732.29	2625.50
732.47	2818.00
732.65	2772.95
732.83	2797.53
733.01	2754.52
733.19	2531.29
733.37	2848.72
733.56	2605.02
733.74	2564.06
733.92	2930.64
734.10	2650.07
734.28	2727.89
734.46	2490.33
734.64	2695.13
734.82	2670.55
735.00	2619.35
735.18	2621.40
735.36	2691.03
735.54	2703.32
735.73	2652.12
735.91	2729.94
736.09	2940.88
736.27	2711.51
736.45	2777.05
736.63	2443.23
736.81	2641.88
736.99	2838.48
737.17	2861.01
737.35	2637.78
737.53	2688.98
737.71	2693.08
737.89	2775.00
738.07	2617.30
738.25	2648.02
738.43	2557.91
738.61	2629.59
738.80	2502.62
738.98	2594.78
739.16	2699.22
739.34	2688.98
739.52	2930.64
739.70	2613.21
739.88	2805.72
740.06	2768.85
740.24	2412.51
740.42	2963.41
740.60	2510.81
740.78	2633.69
740.96	2437.08
741.14	2688.98
741.32	2756.57
741.50	2531.29
741.68	2924.50
741.86	2895.83
742.04	2576.34
742.22	2541.53
742.40	2656.22
742.58	2852.82
742.76	2580.44
742.94	2803.67
743.12	2424.80
743.30	2768.85
743.48	2809.81
743.66	2576.34
743.84	2691.03
744.02	2652.12
744.20	2701.27
744.38	2559.96
744.56	2523.10
744.74	2998.23
744.92	2791.38
745.10	2826.20
745.28	2799.57
745.46	2965.46
745.64	2625.50
745.82	2836.44
746.00	2660.31
746.18	2777.05
746.36	2521.05
746.54	2742.23
746.72	2691.03
746.90	2596.82
747.08	2885.59
747.26	2645.98
747.44	2736.09
747.62	2746.33
747.80	2748.37
747.98	2803.67
748.15	2678.74
748.33	3039.19
748.51	2713.56
748.69	2725.85
748.87	2551.77
749.05	2621.40
749.23	2652.12
749.41	2684.89
749.59	2645.98
749.77	2965.46
749.95	2719.70
750.13	2562.01
750.31	2738.13
750.49	2617.30
750.67	2811.86
750.85	2793.43
751.03	2684.89
751.20	2971.60
751.38	2772.95
751.56	2705.37
751.74	2682.84
751.92	2723.80
752.10	2533.34
752.28	2818.00
752.46	2611.16
752.64	2674.65
752.82	2826.20
753.00	2832.34
753.18	2678.74
753.35	2699.22
753.53	2650.07
753.71	2594.78
753.89	2699.22
754.07	2656.22
754.25	2834.39
754.43	2699.22
754.61	2508.76
754.79	2711.51
754.97	2703.32
755.14	2768.85
755.32	2449.37
755.50	2783.19
755.68	2734.04
755.86	2545.63
756.04	2592.73
756.22	2467.80
756.40	2791.38
756.57	2928.60
756.75	2600.92
756.93	2858.96
757.11	2848.72
757.29	2578.39
757.47	2562.01
757.65	2523.10
757.82	2340.83
758.00	2488.28
758.18	2607.06
758.36	2645.98
758.54	2932.69
758.72	2490.33
758.90	2820.05
759.07	2766.81
759.25	2555.86
759.43	2752.47
759.61	2478.04
759.79	3895.24
759.97	2789.33
760.15	2539.48
760.32	2693.08
760.50	2809.81
760.68	2985.94
760.86	2525.15
761.04	2781.14
761.22	2772.95
761.39	2731.99
761.57	2779.09
761.75	2660.31
761.93	2805.72
762.11	2596.82
762.28	2746.33
762.46	2576.34
762.64	2836.44
762.82	2547.67
763.00	2600.92
763.18	2731.99
763.35	2576.34
763.53	2824.15
763.71	2727.89
763.89	2688.98
764.07	2697.17
764.24	2791.38
764.42	2785.24
764.60	2623.45
764.78	2764.76
764.96	2877.40
765.13	2801.62
765.31	2643.93
765.49	2826.20
765.67	2557.91
765.84	2590.68
766.02	2633.69
766.20	2498.52
766.38	2867.16
766.56	2725.85
766.73	2809.81
766.91	2684.89
767.09	2697.17
767.27	2748.37
767.44	2525.15
767.62	2828.24
767.80	2682.84
767.98	2588.63
768.15	2625.50
768.33	2914.26
768.51	2834.39
768.69	2674.65
768.87	2697.17
769.04	2750.42
769.22	3117.01
769.40	2760.66
769.58	2887.64
769.75	2791.38
769.93	2930.64
770.11	2633.69
770.28	2627.54
770.46	2801.62
770.64	2684.89
770.82	2686.94
770.99	2615.26
771.17	2891.73
771.35	2682.84
771.53	2693.08
771.70	2588.63
771.88	2844.63
772.06	2717.65
772.23	2572.25
772.41	2670.55
772.59	2643.93
772.77	2590.68
772.94	2678.74
773.12	2691.03
773.30	2611.16
773.47	2723.80
773.65	2607.06
773.83	2813.91
774.01	2742.23
774.18	2404.32
774.36	2660.31
774.54	2521.05
774.71	2793.43
774.89	2566.10
775.07	2533.34
775.24	2645.98
775.42	2682.84
775.60	3086.29
775.78	2660.31
775.95	2498.52
776.13	2531.29
776.31	2437.08
776.48	2719.70
776.66	2955.22
776.84	2693.08
777.01	2576.34
777.19	2600.92
777.37	2629.59
777.54	2883.54
777.72	2949.08
777.90	2754.52
778.07	2596.82
778.25	3254.22
778.43	2789.33
778.60	2643.93
778.78	2762.71
778.96	2865.11
779.13	2627.54
779.31	2818.00
779.49	2740.18
779.66	2772.95
779.84	2643.93
780.01	2596.82
780.19	2514.91
780.37	2916.31
780.54	2850.77
780.72	2621.40
780.90	2672.60
781.07	2553.82
781.25	2607.06
781.43	2799.57
781.60	2654.17
781.78	2934.74
781.95	2731.99
782.13	2590.68
782.31	2688.98
782.48	2482.14
782.66	2656.22
782.83	2867.16
783.01	2727.89
783.19	2834.39
783.36	2645.98
783.54	2555.86
783.72	2781.14
783.89	2678.74
784.07	2731.99
784.24	2744.28
784.42	2867.16
784.60	2805.72
784.77	2717.65
784.95	2459.61
785.12	2529.24
785.30	2672.60
785.47	2641.88
785.65	2570.20
785.83	2691.03
786.00	2654.17
786.18	2742.23
786.35	2553.82
786.53	2576.34
786.71	2883.54
786.88	2809.81
787.06	2744.28
787.23	2668.50
787.41	2539.48
787.58	2772.95
787.76	2598.87
787.94	2666.46
788.11	2684.89
788.29	2502.62
788.46	2645.98
788.64	2441.18
788.81	2654.17
788.99	2584.54
789.16	2588.63
789.34	2662.36
789.52	2676.70
789.69	2672.60
789.87	2512.86
790.04	2555.86
790.22	2660.31
790.39	3014.61
790.57	2559.96
790.74	2633.69
790.92	2838.48
791.09	2459.61
791.27	2711.51
791.44	2725.85
791.62	2686.94
791.79	2820.05
791.97	2801.62
792.15	3047.38
792.32	2848.72
792.50	2785.24
792.67	2889.68
792.85	2912.21
793.02	2703.32
793.20	2639.83
793.37	2543.58
793.55	2582.49
793.72	2455.51
793.90	2828.24
794.07	2621.40
794.25	2539.48
794.42	2797.53
794.60	2631.64
794.77	2668.50
794.95	2748.37
795.12	2861.01
795.30	2736.09
795.47	2422.75
795.65	3026.90
795.82	2775.00
796.00	2643.93
796.17	2699.22
796.34	2609.11
796.52	2781.14
796.69	2793.43
796.87	2748.37
797.04	2787.29
797.22	2867.16
797.39	2762.71
797.57	2766.81
797.74	2676.70
797.92	2723.80
798.09	2555.86
798.27	2756.57
798.44	2670.55
798.62	2584.54
798.79	2787.29
798.96	2770.90
799.14	2670.55
799.31	3053.52
799.49	2738.13
799.66	2586.58
799.84	2711.51
800.01	2539.48
800.19	2738.13
800.36	2488.28
800.53	2680.79
800.71	2828.24
800.88	2875.35
801.06	2578.39
801.23	2551.77
801.41	2705.37
801.58	2621.40
801.75	2627.54
801.93	2713.56
802.10	2758.61
802.28	2656.22
802.45	2566.10
802.63	2777.05
802.80	2994.13
802.97	2662.36
803.15	2729.94
803.32	2633.69
803.50	2549.72
803.67	2625.50
803.84	2570.20
804.02	2734.04
804.19	2707.41
804.37	2377.69
804.54	2523.10
804.71	2584.54
804.89	2736.09
805.06	2648.02
805.24	2570.20
805.41	2435.03
805.58	2588.63
805.76	3065.81
805.93	2676.70
806.10	2856.92
806.28	2797.53
806.45	2680.79
806.63	2766.81
806.80	2734.04
806.97	2727.89
807.15	2684.89
807.32	2672.60
807.49	2660.31
807.67	2547.67
807.84	2807.77
808.01	2537.43
808.19	2854.87
808.36	2987.99
808.54	2627.54
808.71	2621.40
808.88	2742.23
809.06	2838.48
809.23	2916.31
809.40	2652.12
809.58	2754.52
809.75	2705.37
809.92	2547.67
810.10	2887.64
810.27	2658.26
810.44	2777.05
810.62	2848.72
810.79	2629.59
810.96	2719.70
811.14	2656.22
811.31	2775.00
811.48	2740.18
811.66	2723.80
811.83	2953.17
812.00	2785.24
812.18	2740.18
812.35	2908.12
812.52	2607.06
812.69	2668.50
812.87	2578.39
813.04	2582.49
813.21	2707.41
813.39	2660.31
813.56	2514.91
813.73	2885.59
813.91	2621.40
814.08	2764.76
814.25	2645.98
814.42	2420.70
814.60	2719.70
814.77	2826.20
814.94	2605.02
815.12	2674.65
815.29	2928.60
815.46	2584.54
815.63	2674.65
815.81	2691.03
815.98	2641.88
816.15	2650.07
816.33	2668.50
816.50	2625.50
816.67	2635.74
816.84	2688.98
817.02	2555.86
817.19	2650.07
817.36	2820.05
817.53	2783.19
817.71	2547.67
817.88	2744.28
818.05	2705.37
818.22	2617.30
818.40	2824.15
818.57	2617.30
818.74	2731.99
818.91	2672.60
819.09	2725.85
819.26	2701.27
819.43	2574.30
819.60	2654.17
819.78	2678.74
819.95	2672.60
820.12	2494.43
820.29	2924.50
820.47	2858.96
820.64	2584.54
820.81	2562.01
820.98	2660.31
821.15	2635.74
821.33	2813.91
821.50	2461.66
821.67	2727.89
821.84	2600.92
822.02	2736.09
822.19	2858.96
822.36	2600.92
822.53	2629.59
822.70	2506.71
822.88	2645.98
823.05	2881.49
823.22	2707.41
823.39	2672.60
823.56	2756.57
823.74	2977.75
823.91	2557.91
824.08	2568.15
824.25	2609.11
824.42	2924.50
824.60	2488.28
824.77	2729.94
824.94	2678.74
825.11	2795.48
825.28	2496.47
825.45	2727.89
825.63	2822.10
825.80	2564.06
825.97	2738.13
826.14	2656.22
826.31	2467.80
826.48	2756.57
826.66	2527.19
826.83	2621.40
827.00	2611.16
827.17	2615.26
827.34	2635.74
827.51	2654.17
827.69	2721.75
827.86	2547.67
828.03	2609.11
828.20	2699.22
828.37	2674.65
828.54	2801.62
828.71	2627.54
828.89	2830.29
829.06	2740.18
829.23	2916.31
829.40	2576.34
829.57	2553.82
829.74	2738.13
829.91	2609.11
830.09	2586.58
830.26	2723.80
830.43	2930.64
830.60	2766.81
830.77	2703.32
830.94	2914.26
831.11	2848.72
831.28	2637.78
831.46	2742.23
831.63	2662.36
831.80	2885.59
831.97	2521.05
832.14	2682.84
832.31	2686.94
832.48	2621.40
832.65	2869.20
832.82	2707.41
832.99	2695.13
833.17	2600.92
833.34	2928.60
833.51	2645.98
833.68	2414.56
833.85	2842.58
834.02	2584.54
834.19	2648.02
834.36	2600.92
834.53	2772.95
834.70	2865.11
834.87	2643.93
835.04	2494.43
835.22	2627.54
835.39	2619.35
835.56	2492.38
835.73	2580.44
835.90	2811.86
836.07	2613.21
836.24	2607.06
836.41	2531.29
836.58	2553.82
836.75	2830.29
836.92	2500.57
837.09	2502.62
837.26	2854.87
837.43	2715.61
837.60	2580.44
837.77	2549.72
837.94	2863.06
838.12	2897.88
838.29	2490.33
838.46	2398.17
838.63	2551.77
838.80	2916.31
838.97	2674.65
839.14	2562.01
839.31	2809.81
839.48	2936.79
839.65	2490.33
839.82	2660.31
839.99	2693.08
840.16	2734.04
840.33	2482.14
840.50	2609.11
840.67	2586.58
840.84	2330.59
841.01	2559.96
841.18	2559.96
841.35	2703.32
841.52	2744.28
841.69	2805.72
841.86	2594.78
842.03	2736.09
842.20	2910.16
842.37	2543.58
842.54	2576.34
842.71	2744.28
842.88	2539.48
843.05	2564.06
843.22	2535.39
843.39	2820.05
843.56	2541.53
843.73	2525.15
843.90	2598.87
844.07	2621.40
844.24	2840.53
844.41	2631.64
844.58	2510.81
844.75	2701.27
844.92	2820.05
845.09	2652.12
845.26	2531.29
845.43	2775.00
845.60	2680.79
845.77	2676.70
845.94	2615.26
846.10	2795.48
846.27	2514.91
846.44	2463.71
846.61	2574.30
846.78	2766.81
846.95	2873.30
847.12	2492.38
847.29	2568.15
847.46	2570.20
847.63	2867.16
847.80	2475.99
847.97	2605.02
848.14	2994.13
848.31	2711.51
848.48	2383.84
848.65	2600.92
848.82	2609.11
848.98	3092.43
849.15	2674.65
849.32	2635.74
849.49	2861.01
849.66	2742.23
849.83	2510.81
850.00	2510.81
850.17	2840.53
850.34	2613.21
850.51	2508.76
850.68	2547.67
850.85	3035.09
851.01	2711.51
851.18	2519.00
851.35	2586.58
851.52	2805.72
851.69	2928.60
851.86	2461.66
852.03	2539.48
852.20	2856.92
852.37	2639.83
852.53	2410.46
852.70	2588.63
852.87	2684.89
853.04	2775.00
853.21	2633.69
853.38	2785.24
853.55	2861.01
853.72	2891.73
853.89	2478.04
854.05	2523.10
854.22	2654.17
854.39	2803.67
854.56	2549.72
854.73	2731.99
854.90	2572.25
855.07	2703.32
855.23	2562.01
855.40	2504.67
855.57	2727.89
855.74	2463.71
855.91	2738.13
856.08	2490.33
856.25	2525.15
856.41	2645.98
856.58	2539.48
856.75	2570.20
856.92	2555.86
857.09	2865.11
857.26	2473.95
857.42	2592.73
857.59	2844.63
857.76	2705.37
857.93	2609.11
858.10	2586.58
858.27	2492.38
858.43	2715.61
858.60	2482.14
858.77	2375.64
858.94	2586.58
859.11	2861.01
859.27	2619.35
859.44	2551.77
859.61	2981.84
859.78	2668.50
859.95	2570.20
860.12	2510.81
860.28	3086.29
860.45	2979.79
860.62	2514.91
860.79	2629.59
860.95	2756.57
861.12	2607.06
861.29	2527.19
861.46	2553.82
861.63	2725.85
861.79	2715.61
861.96	2437.08
862.13	2531.29
862.30	2947.03
862.47	2607.06
862.63	2424.80
862.80	2629.59
862.97	2832.34
863.14	2838.48
863.30	2629.59
863.47	2451.42
863.64	2924.50
863.81	2717.65
863.97	2453.47
864.14	2674.65
864.31	2668.50
864.48	2643.93
864.65	2543.58
864.81	2691.03
864.98	2764.76
865.15	2947.03
865.32	2600.92
865.48	2711.51
865.65	3002.32
865.82	2625.50
865.98	2656.22
866.15	2660.31
866.32	2645.98
866.49	2662.36
866.65	2756.57
866.82	2533.34
866.99	2734.04
867.16	2584.54
867.32	2613.21
867.49	2449.37
867.66	2723.80
867.83	2645.98
867.99	2330.59
868.16	2531.29
868.33	2572.25
868.49	2629.59
868.66	2545.63
868.83	2707.41
868.99	2693.08
869.16	2756.57
869.33	2635.74
869.50	2660.31
869.66	2731.99
869.83	2654.17
870.00	2463.71
870.16	2721.75
870.33	2703.32
870.50	2869.20
870.66	2523.10
870.83	2688.98
871.00	2695.13
871.17	2813.91
871.33	2619.35
871.50	2480.09
871.67	2609.11
871.83	2707.41
872.00	2699.22
872.17	2564.06
872.33	2924.50
872.50	2865.11
872.67	2605.02
872.83	2525.15
873.00	2740.18
873.17	2715.61
873.33	2666.46
873.50	2592.73
873.67	2627.54
873.83	2508.76
874.00	2576.34
874.16	2740.18
874.33	2781.14
874.50	2541.53
874.66	2580.44
874.83	2705.37
875.00	2920.40
875.16	2863.06
875.33	2600.92
875.50	2281.44
875.66	2648.02
875.83	2775.00
875.99	2621.40
876.16	2578.39
876.33	2617.30
876.49	2719.70
876.66	2633.69
876.83	2623.45
876.99	2564.06
877.16	2686.94
877.32	2549.72
877.49	2664.41
877.66	2770.90
877.82	2914.26
877.99	2574.30
878.15	2764.76
878.32	2695.13
878.49	2756.57
878.65	2602.97
878.82	2754.52
878.98	2613.21
879.15	2803.67
879.32	2662.36
879.48	2674.65
879.65	2742.23
879.81	2557.91
879.98	2437.08
880.15	2576.34
880.31	2840.53
880.48	2574.30
880.64	2643.93
880.81	2664.41
880.97	2932.69
881.14	2854.87
881.31	2545.63
881.47	2801.62
881.64	2564.06
881.80	2418.65
881.97	2678.74
882.13	2574.30
882.30	2566.10
882.47	2641.88
882.63	2562.01
882.80	2535.39
882.96	2662.36
883.13	2807.77
883.29	2574.30
883.46	2584.54
883.62	3028.95
883.79	2731.99
883.95	2691.03
884.12	2523.10
884.29	2813.91
884.45	2670.55
884.62	2609.11
884.78	2498.52
884.95	2904.02
885.11	2613.21
885.28	2637.78
885.44	2629.59
885.61	2709.46
885.77	2850.77
885.94	2713.56
886.10	2557.91
886.27	2684.89
886.43	2955.22
886.60	2736.09
886.76	2600.92
886.93	2576.34
887.09	2736.09
887.26	2461.66
887.42	2596.82
887.59	2871.25
887.75	3086.29
887.92	2813.91
888.08	2686.94
888.25	2955.22
888.41	2809.81
888.58	2504.67
888.74	2506.71
888.91	2637.78
>>>>>End Processed Spectral Data<<<<<
