SpectraSuite Data File
++++++++++++++++++++++++++++++++++++
Date: Thu May 05 16:20:40 CEST 2016
User: root
Dark Spectrum Present: No
Reference Spectrum Present: No
Number of Sampled Component Spectra: 1
Spectrometers: USB4C02835
Integration Time (usec): 100000 (USB4C02835)
Spectra Averaged: 1 (USB4C02835)
Boxcar Smoothing: 0 (USB4C02835)
Correct for Electrical Dark: No (USB4C02835)
Strobe/Lamp Enabled: No (USB4C02835)
Correct for Detector Non-linearity: No (USB4C02835)
Correct for Stray Light: No (USB4C02835)
Number of Pixels in Processed Spectrum: 3648
>>>>>Begin Processed Spectral Data<<<<<
177.47	2021.35
177.69	2021.35
177.91	2021.35
178.13	2023.39
178.36	2043.87
178.58	2490.33
178.80	2705.37
179.02	2562.01
179.24	2547.67
179.46	2422.75
179.68	2492.38
179.90	2662.36
180.13	2762.71
180.35	2422.75
180.57	2432.99
180.79	2801.62
181.01	2746.33
181.23	2580.44
181.45	2625.50
181.67	2799.57
181.90	2867.16
182.12	2490.33
182.34	2375.64
182.56	2801.62
182.78	2799.57
183.00	2461.66
183.22	2508.76
183.44	2502.62
183.66	3145.68
183.89	2607.06
184.11	2506.71
184.33	2836.44
184.55	2947.03
184.77	2484.19
184.99	2541.53
185.21	2740.18
185.43	3117.01
185.65	2488.28
185.87	2416.60
186.10	3096.53
186.32	3203.02
186.54	2537.43
186.76	2623.45
186.98	2852.82
187.20	2729.94
187.42	2525.15
187.64	2508.76
187.86	2799.57
188.08	2881.49
188.30	2445.27
188.52	2590.68
188.75	2916.31
188.97	2932.69
189.19	2469.85
189.41	2498.52
189.63	2760.66
189.85	2652.12
190.07	2381.79
190.29	2416.60
190.51	2858.96
190.73	2592.73
190.95	2621.40
191.17	2537.43
191.39	2609.11
191.61	2727.89
191.84	2535.39
192.06	2617.30
192.28	2506.71
192.50	3155.92
192.72	2658.26
192.94	2607.06
193.16	2877.40
193.38	2779.09
193.60	2467.80
193.82	2535.39
194.04	2834.39
194.26	2731.99
194.48	2580.44
194.70	2519.00
194.92	2666.46
195.14	2899.92
195.36	2473.95
195.58	2611.16
195.80	2701.27
196.02	2635.74
196.24	2566.10
196.46	2629.59
196.69	2662.36
196.91	3153.87
197.13	2480.09
197.35	2471.90
197.57	2971.60
197.79	2861.01
198.01	2553.82
198.23	2533.34
198.45	2809.81
198.67	2590.68
198.89	2398.17
199.11	2572.25
199.33	2580.44
199.55	2437.08
199.77	2510.81
199.99	2637.78
200.21	2594.78
200.43	2822.10
200.65	2412.51
200.87	2406.36
201.09	2738.13
201.31	2662.36
201.53	2570.20
201.75	2553.82
201.97	2652.12
202.19	2715.61
202.41	2627.54
202.63	2705.37
202.85	2766.81
203.07	2779.09
203.29	2605.02
203.51	2416.60
203.73	2682.84
203.95	3135.44
204.17	2564.06
204.39	2676.70
204.61	2760.66
204.83	2648.02
205.05	2650.07
205.27	2484.19
205.49	2963.41
205.71	2695.13
205.93	2385.88
206.15	2437.08
206.37	2723.80
206.59	2744.28
206.81	2414.56
207.03	2514.91
207.25	2594.78
207.47	2795.48
207.69	2549.72
207.91	2695.13
208.13	3008.47
208.34	2635.74
208.56	2469.85
208.78	2607.06
209.00	2688.98
209.22	2674.65
209.44	2490.33
209.66	2553.82
209.88	2695.13
210.10	2664.41
210.32	2529.24
210.54	2543.58
210.76	2748.37
210.98	2889.68
211.20	2404.32
211.42	2580.44
211.64	2930.64
211.86	2719.70
212.08	2564.06
212.30	2527.19
212.52	2703.32
212.74	2750.42
212.96	2572.25
213.17	2590.68
213.39	2785.24
213.61	2848.72
213.83	2531.29
214.05	2369.50
214.27	2777.05
214.49	2625.50
214.71	2398.17
214.93	2633.69
215.15	2695.13
215.37	2826.20
215.59	2342.88
215.81	2625.50
216.03	3024.85
216.24	2682.84
216.46	2502.62
216.68	2629.59
216.90	2869.20
217.12	2895.83
217.34	2492.38
217.56	2639.83
217.78	2938.84
218.00	2885.59
218.22	2564.06
218.44	2586.58
218.66	2660.31
218.87	2992.08
219.09	2519.00
219.31	2512.86
219.53	2787.29
219.75	2750.42
219.97	2492.38
220.19	2500.57
220.41	2703.32
220.63	2957.27
220.85	2527.19
221.06	2533.34
221.28	2942.93
221.50	2797.53
221.72	2494.43
221.94	2416.60
222.16	2740.18
222.38	2807.77
222.60	2510.81
222.82	2566.10
223.03	2895.83
223.25	2605.02
223.47	2484.19
223.69	2652.12
223.91	2875.35
224.13	2729.94
224.35	2412.51
224.57	2633.69
224.78	2772.95
225.00	2613.21
225.22	2564.06
225.44	2516.95
225.66	2815.96
225.88	2654.17
226.10	2594.78
226.32	2490.33
226.53	3010.51
226.75	2719.70
226.97	2615.26
227.19	2516.95
227.41	2588.63
227.63	2611.16
227.85	2394.08
228.06	2559.96
228.28	2725.85
228.50	2842.58
228.72	2383.84
228.94	2498.52
229.16	2512.86
229.37	2609.11
229.59	2441.18
229.81	2697.17
230.03	2691.03
230.25	2543.58
230.47	2375.64
230.69	2441.18
230.90	2858.96
231.12	2609.11
231.34	2539.48
231.56	2580.44
231.78	2504.67
232.00	2729.94
232.21	2531.29
232.43	2453.47
232.65	2414.56
232.87	2865.11
233.09	2392.03
233.30	2430.94
233.52	2824.15
233.74	2729.94
233.96	2535.39
234.18	2662.36
234.40	2721.75
234.61	3053.52
234.83	2392.03
235.05	2463.71
235.27	3112.91
235.49	2805.72
235.70	2443.23
235.92	2602.97
236.14	2762.71
236.36	3123.15
236.58	2396.12
236.79	2633.69
237.01	2740.18
237.23	2740.18
237.45	2723.80
237.67	2510.81
237.88	2777.05
238.10	2983.89
238.32	2473.95
238.54	2537.43
238.76	2662.36
238.97	2611.16
239.19	2435.03
239.41	2555.86
239.63	2807.77
239.85	2627.54
240.06	2492.38
240.28	2484.19
240.50	2877.40
240.72	2654.17
240.93	2465.75
241.15	2592.73
241.37	2740.18
241.59	2904.02
241.81	2525.15
242.02	2557.91
242.24	2826.20
242.46	2832.34
242.68	2320.35
242.89	2494.43
243.11	2830.29
243.33	2738.13
243.55	2512.86
243.76	2568.15
243.98	2652.12
244.20	2715.61
244.42	2549.72
244.64	2525.15
244.85	2590.68
245.07	2631.64
245.29	2498.52
245.51	2555.86
245.72	2758.61
245.94	2861.01
246.16	2494.43
246.38	2588.63
246.59	2746.33
246.81	2693.08
247.03	2475.99
247.24	2381.79
247.46	2650.07
247.68	2725.85
247.90	2463.71
248.11	2543.58
248.33	2852.82
248.55	2625.50
248.77	2609.11
248.98	2586.58
249.20	3020.75
249.42	2715.61
249.64	2562.01
249.85	2496.47
250.07	2625.50
250.29	2820.05
250.50	2568.15
250.72	2418.65
250.94	2781.14
251.16	3045.33
251.37	2525.15
251.59	2594.78
251.81	2783.19
252.02	3000.27
252.24	2441.18
252.46	2617.30
252.68	2637.78
252.89	2629.59
253.11	2338.78
253.33	2656.22
253.54	2955.22
253.76	2527.19
253.98	2519.00
254.20	2447.32
254.41	2533.34
254.63	2686.94
254.85	2381.79
255.06	2557.91
255.28	2727.89
255.50	2660.31
255.71	2414.56
255.93	2432.99
256.15	2756.57
256.36	2809.81
256.58	2377.69
256.80	2461.66
257.02	2703.32
257.23	2650.07
257.45	2594.78
257.67	2596.82
257.88	2617.30
258.10	2838.48
258.32	2516.95
258.53	2584.54
258.75	2873.30
258.97	2707.41
259.18	2502.62
259.40	2482.14
259.62	3012.56
259.83	2987.99
260.05	2529.24
260.27	3131.34
260.48	2863.06
260.70	2641.88
260.92	2389.98
261.13	2521.05
261.35	2731.99
261.57	2744.28
261.78	2326.49
262.00	2451.42
262.22	2818.00
262.43	2648.02
262.65	2516.95
262.86	2537.43
263.08	3149.78
263.30	2740.18
263.51	2418.65
263.73	2396.12
263.95	2977.75
264.16	2691.03
264.38	2377.69
264.60	2500.57
264.81	2672.60
265.03	2922.45
265.25	2807.77
265.46	2480.09
265.68	2863.06
265.89	2893.78
266.11	2369.50
266.33	2574.30
266.54	2799.57
266.76	2842.58
266.98	2580.44
267.19	2674.65
267.41	2854.87
267.62	2643.93
267.84	2351.07
268.06	2637.78
268.27	2766.81
268.49	2861.01
268.70	2547.67
268.92	2549.72
269.14	2598.87
269.35	2531.29
269.57	2641.88
269.79	2617.30
270.00	2631.64
270.22	2965.46
270.43	2562.01
270.65	2410.46
270.87	2740.18
271.08	2820.05
271.30	2629.59
271.51	2521.05
271.73	2844.63
271.95	2953.17
272.16	2461.66
272.38	2594.78
272.59	2648.02
272.81	2746.33
273.02	2562.01
273.24	2602.97
273.46	2830.29
273.67	2459.61
273.89	2396.12
274.10	2494.43
274.32	2869.20
274.54	2756.57
274.75	2570.20
274.97	2551.77
275.18	2863.06
275.40	2791.38
275.61	2613.21
275.83	2625.50
276.05	2584.54
276.26	2719.70
276.48	2633.69
276.69	2598.87
276.91	2641.88
277.12	2889.68
277.34	2719.70
277.55	2674.65
277.77	2777.05
277.99	2652.12
278.20	2660.31
278.42	2508.76
278.63	2637.78
278.85	2514.91
279.06	2514.91
279.28	2703.32
279.49	2815.96
279.71	2801.62
279.93	2637.78
280.14	2625.50
280.36	2617.30
280.57	2897.88
280.79	2711.51
281.00	2490.33
281.22	2619.35
281.43	2873.30
281.65	2383.84
281.86	2512.86
282.08	2754.52
282.29	3030.99
282.51	2490.33
282.73	2490.33
282.94	2586.58
283.16	2801.62
283.37	2758.61
283.59	2631.64
283.80	2793.43
284.02	2746.33
284.23	2609.11
284.45	2670.55
284.66	2533.34
284.88	2543.58
285.09	2580.44
285.31	2742.23
285.52	2772.95
285.74	2463.71
285.95	2777.05
286.17	2717.65
286.38	2932.69
286.60	2691.03
286.81	2531.29
287.03	2578.39
287.24	2719.70
287.46	2721.75
287.67	2660.31
287.89	2922.45
288.10	2688.98
288.32	2746.33
288.53	2723.80
288.75	2619.35
288.96	2811.86
289.18	2621.40
289.39	2596.82
289.61	2678.74
289.82	3094.48
290.04	2959.31
290.25	2580.44
290.47	2578.39
290.68	2695.13
290.90	2756.57
291.11	2414.56
291.33	2744.28
291.54	2672.60
291.76	2615.26
291.97	2736.09
292.18	2664.41
292.40	2602.97
292.61	2695.13
292.83	2938.84
293.04	2648.02
293.26	2744.28
293.47	2699.22
293.69	2592.73
293.90	2584.54
294.12	2850.77
294.33	2650.07
294.55	2600.92
294.76	2707.41
294.97	3010.51
295.19	3055.57
295.40	2555.86
295.62	2678.74
295.83	2861.01
296.05	2674.65
296.26	2842.58
296.48	2535.39
296.69	2670.55
296.90	2766.81
297.12	2719.70
297.33	2770.90
297.55	2787.29
297.76	2805.72
297.98	2676.70
298.19	2684.89
298.41	2756.57
298.62	2650.07
298.83	2818.00
299.05	2645.98
299.26	2699.22
299.48	2582.49
299.69	2625.50
299.90	2572.25
300.12	2557.91
300.33	2873.30
300.55	2586.58
300.76	2674.65
300.98	2588.63
301.19	2729.94
301.40	2613.21
301.62	2568.15
301.83	2699.22
302.05	2715.61
302.26	2547.67
302.47	2656.22
302.69	2551.77
302.90	2721.75
303.12	2406.36
303.33	2783.19
303.54	2924.50
303.76	2594.78
303.97	2519.00
304.19	2752.47
304.40	2568.15
304.61	2779.09
304.83	2770.90
305.04	2691.03
305.26	2820.05
305.47	2719.70
305.68	2578.39
305.90	2551.77
306.11	2822.10
306.33	2719.70
306.54	2443.23
306.75	2592.73
306.97	2502.62
307.18	2584.54
307.39	2588.63
307.61	2662.36
307.82	2727.89
308.04	2754.52
308.25	2600.92
308.46	2705.37
308.68	2734.04
308.89	2686.94
309.10	2770.90
309.32	2682.84
309.53	2717.65
309.74	2803.67
309.96	2508.76
310.17	2789.33
310.39	2719.70
310.60	2795.48
310.81	2588.63
311.03	2490.33
311.24	2809.81
311.45	2754.52
311.67	2840.53
311.88	2725.85
312.09	2684.89
312.31	2707.41
312.52	2529.24
312.73	2607.06
312.95	2525.15
313.16	2650.07
313.37	2834.39
313.59	2723.80
313.80	2803.67
314.01	2908.12
314.23	2633.69
314.44	2609.11
314.65	2557.91
314.87	2703.32
315.08	2574.30
315.29	2586.58
315.51	2557.91
315.72	2510.81
315.93	2695.13
316.15	2693.08
316.36	2564.06
316.57	2731.99
316.79	2650.07
317.00	2605.02
317.21	2783.19
317.43	2631.64
317.64	2641.88
317.85	2590.68
318.07	2686.94
318.28	2654.17
318.49	2656.22
318.70	2861.01
318.92	2830.29
319.13	2809.81
319.34	2828.24
319.56	2533.34
319.77	2832.34
319.98	2731.99
320.20	2873.30
320.41	2760.66
320.62	2795.48
320.83	2502.62
321.05	2801.62
321.26	2668.50
321.47	2686.94
321.69	2861.01
321.90	2455.51
322.11	2541.53
322.32	2760.66
322.54	3010.51
322.75	2535.39
322.96	3110.86
323.18	2521.05
323.39	2535.39
323.60	2547.67
323.81	2684.89
324.03	2588.63
324.24	2654.17
324.45	2729.94
324.66	2539.48
324.88	2940.88
325.09	2863.06
325.30	2643.93
325.52	2637.78
325.73	2760.66
325.94	2631.64
326.15	2504.67
326.37	2471.90
326.58	2772.95
326.79	3061.71
327.00	2514.91
327.22	2643.93
327.43	2684.89
327.64	2514.91
327.85	2686.94
328.07	2693.08
328.28	2944.98
328.49	2637.78
328.70	2600.92
328.92	2584.54
329.13	2586.58
329.34	2779.09
329.55	2869.20
329.76	2705.37
329.98	2775.00
330.19	2975.70
330.40	2699.22
330.61	2688.98
330.83	2815.96
331.04	2580.44
331.25	2731.99
331.46	2627.54
331.68	2547.67
331.89	2799.57
332.10	2654.17
332.31	2596.82
332.52	2754.52
332.74	2893.78
332.95	2498.52
333.16	2619.35
333.37	2891.73
333.58	2654.17
333.80	2654.17
334.01	2445.27
334.22	2703.32
334.43	2588.63
334.64	2559.96
334.86	2525.15
335.07	2686.94
335.28	2848.72
335.49	2461.66
335.70	2666.46
335.92	2914.26
336.13	3078.10
336.34	2691.03
336.55	2592.73
336.76	2768.85
336.98	2408.41
337.19	2598.87
337.40	2746.33
337.61	3084.24
337.82	2629.59
338.04	2697.17
338.25	2486.23
338.46	2666.46
338.67	2686.94
338.88	2541.53
339.09	2559.96
339.31	2688.98
339.52	2549.72
339.73	2539.48
339.94	2607.06
340.15	2832.34
340.36	2596.82
340.58	2576.34
340.79	2525.15
341.00	2768.85
341.21	2602.97
341.42	2760.66
341.63	2568.15
341.85	2848.72
342.06	2717.65
342.27	2539.48
342.48	2740.18
342.69	2574.30
342.90	2799.57
343.12	2695.13
343.33	2600.92
343.54	2842.58
343.75	2885.59
343.96	2637.78
344.17	2535.39
344.38	2684.89
344.60	2643.93
344.81	2478.04
345.02	2617.30
345.23	2881.49
345.44	3090.38
345.65	2654.17
345.86	2707.41
346.07	2858.96
346.29	2555.86
346.50	2693.08
346.71	2691.03
346.92	2979.79
347.13	3084.24
347.34	2592.73
347.55	2596.82
347.76	2738.13
347.98	2553.82
348.19	2643.93
348.40	2734.04
348.61	2719.70
348.82	2918.36
349.03	2717.65
349.24	2445.27
349.45	3059.67
349.66	2400.22
349.88	2596.82
350.09	2572.25
350.30	2928.60
350.51	2889.68
350.72	2752.47
350.93	2586.58
351.14	2686.94
351.35	2766.81
351.56	2701.27
351.77	2670.55
351.99	2834.39
352.20	2951.12
352.41	2799.57
352.62	2439.13
352.83	2678.74
353.04	2654.17
353.25	2641.88
353.46	2660.31
353.67	2912.21
353.88	2533.34
354.09	2596.82
354.30	2615.26
354.52	2832.34
354.73	2674.65
354.94	2535.39
355.15	2619.35
355.36	2981.84
355.57	2625.50
355.78	2639.83
355.99	2527.19
356.20	2672.60
356.41	2901.97
356.62	2674.65
356.83	2592.73
357.04	2809.81
357.25	2494.43
357.46	2625.50
357.68	2473.95
357.89	2602.97
358.10	2750.42
358.31	2582.49
358.52	2609.11
358.73	2545.63
358.94	2631.64
359.15	2625.50
359.36	2631.64
359.57	2721.75
359.78	2725.85
359.99	2736.09
360.20	2461.66
360.41	2619.35
360.62	2766.81
360.83	2619.35
361.04	2566.10
361.25	2863.06
361.46	2914.26
361.67	2713.56
361.88	2658.26
362.09	2832.34
362.30	2723.80
362.51	2559.96
362.72	2650.07
362.93	2787.29
363.14	2826.20
363.35	2682.84
363.56	2430.94
363.78	2822.10
363.99	2914.26
364.20	2592.73
364.41	2703.32
364.62	2973.65
364.83	2641.88
365.04	2703.32
365.25	2588.63
365.46	3090.38
365.67	2701.27
365.88	2678.74
366.09	2611.16
366.30	2660.31
366.51	2760.66
366.72	2486.23
366.93	2586.58
367.14	2838.48
367.35	2914.26
367.56	2641.88
367.77	2713.56
367.98	2709.46
368.18	2781.14
368.39	2629.59
368.60	2578.39
368.81	2854.87
369.02	2840.53
369.23	2619.35
369.44	2463.71
369.65	2678.74
369.86	2779.09
370.07	2736.09
370.28	2510.81
370.49	2797.53
370.70	2772.95
370.91	2510.81
371.12	2482.14
371.33	2928.60
371.54	2592.73
371.75	2836.44
371.96	2420.70
372.17	2768.85
372.38	2678.74
372.59	2596.82
372.80	2541.53
373.01	2715.61
373.22	2686.94
373.43	2643.93
373.64	2480.09
373.85	2895.83
374.06	2967.51
374.26	2707.41
374.47	2645.98
374.68	2906.07
374.89	2797.53
375.10	2551.77
375.31	2711.51
375.52	2736.09
375.73	2736.09
375.94	2521.05
376.15	2709.46
376.36	2643.93
376.57	2549.72
376.78	2600.92
376.99	2760.66
377.20	2844.63
377.40	2627.54
377.61	2842.58
377.82	2582.49
378.03	2889.68
378.24	2783.19
378.45	2703.32
378.66	2699.22
378.87	2547.67
379.08	2494.43
379.29	2504.67
379.50	2775.00
379.71	2652.12
379.91	2785.24
380.12	2539.48
380.33	2623.45
380.54	2709.46
380.75	2684.89
380.96	2629.59
381.17	2672.60
381.38	2695.13
381.59	2715.61
381.80	2594.78
382.00	2856.92
382.21	2760.66
382.42	2955.22
382.63	2942.93
382.84	2711.51
383.05	2840.53
383.26	2904.02
383.47	2672.60
383.68	2580.44
383.88	2867.16
384.09	2678.74
384.30	2953.17
384.51	2703.32
384.72	2695.13
384.93	2568.15
385.14	2502.62
385.35	2809.81
385.55	2525.15
385.76	2897.88
385.97	2666.46
386.18	2447.32
386.39	2602.97
386.60	2607.06
386.81	2600.92
387.02	2510.81
387.22	2496.47
387.43	2826.20
387.64	2703.32
387.85	2879.44
388.06	2867.16
388.27	3979.20
388.48	7585.68
388.68	11061.08
388.89	13391.67
389.10	14352.16
389.31	13799.21
389.52	10948.44
389.73	9512.81
389.93	8619.90
390.14	7915.40
390.35	7059.35
390.56	6350.75
390.77	5148.59
390.98	4050.88
391.18	3454.92
391.39	3131.34
391.60	2797.53
391.81	2826.20
392.02	2621.40
392.23	3080.14
392.43	2809.81
392.64	2836.44
392.85	2666.46
393.06	3006.42
393.27	2723.80
393.47	2564.06
393.68	2619.35
393.89	2629.59
394.10	2928.60
394.31	2652.12
394.52	2617.30
394.72	2658.26
394.93	2949.08
395.14	2469.85
395.35	2727.89
395.56	2523.10
395.76	2676.70
395.97	2611.16
396.18	2691.03
396.39	2768.85
396.60	3260.37
396.80	2990.03
397.01	2805.72
397.22	2758.61
397.43	2813.91
397.64	2631.64
397.84	2740.18
398.05	3104.72
398.26	2727.89
398.47	2785.24
398.67	2813.91
398.88	2746.33
399.09	2799.57
399.30	2547.67
399.51	2639.83
399.71	2600.92
399.92	2734.04
400.13	2674.65
400.34	2602.97
400.54	2668.50
400.75	2940.88
400.96	2668.50
401.17	2826.20
401.37	2731.99
401.58	2709.46
401.79	2600.92
402.00	2781.14
402.21	3143.63
402.41	2834.39
402.62	2942.93
402.83	3039.19
403.04	3059.67
403.24	3407.82
403.45	2750.42
403.66	2865.11
403.87	2912.21
404.07	2965.46
404.28	2871.25
404.49	2936.79
404.70	2793.43
404.90	2801.62
405.11	2668.50
405.32	2766.81
405.52	2658.26
405.73	2596.82
405.94	2547.67
406.15	2658.26
406.35	2879.44
406.56	2838.48
406.77	2697.17
406.98	2670.55
407.18	2580.44
407.39	2912.21
407.60	2660.31
407.80	2656.22
408.01	2707.41
408.22	2844.63
408.43	2641.88
408.63	2789.33
408.84	2891.73
409.05	2867.16
409.25	2586.58
409.46	2576.34
409.67	2666.46
409.88	2670.55
410.08	2643.93
410.29	2629.59
410.50	2822.10
410.70	2850.77
410.91	2498.52
411.12	2715.61
411.32	2662.36
411.53	2627.54
411.74	2738.13
411.95	2766.81
412.15	2715.61
412.36	2848.72
412.57	2787.29
412.77	2775.00
412.98	2643.93
413.19	2590.68
413.39	2731.99
413.60	2727.89
413.81	2944.98
414.01	2559.96
414.22	2684.89
414.43	2775.00
414.63	2643.93
414.84	2856.92
415.05	2654.17
415.25	2435.03
415.46	2861.01
415.67	2684.89
415.87	2670.55
416.08	2625.50
416.29	2676.70
416.49	2844.63
416.70	2676.70
416.91	2578.39
417.11	2701.27
417.32	2836.44
417.53	2777.05
417.73	2793.43
417.94	2639.83
418.15	2742.23
418.35	2645.98
418.56	2662.36
418.77	3022.80
418.97	2781.14
419.18	2650.07
419.38	2437.08
419.59	2709.46
419.80	2910.16
420.00	2570.20
420.21	2668.50
420.42	2895.83
420.62	2805.72
420.83	2586.58
421.04	2633.69
421.24	2641.88
421.45	2840.53
421.65	2676.70
421.86	2592.73
422.07	2797.53
422.27	2785.24
422.48	2545.63
422.69	2523.10
422.89	2686.94
423.10	2684.89
423.30	2631.64
423.51	2709.46
423.72	2842.58
423.92	2797.53
424.13	2525.15
424.33	2738.13
424.54	2897.88
424.75	2715.61
424.95	2891.73
425.16	2686.94
425.36	2707.41
425.57	2893.78
425.78	2811.86
425.98	2668.50
426.19	2654.17
426.39	2686.94
426.60	2719.70
426.81	2758.61
427.01	2777.05
427.22	2584.54
427.42	2432.99
427.63	2543.58
427.83	2963.41
428.04	2914.26
428.25	2672.60
428.45	2807.77
428.66	2863.06
428.86	2756.57
429.07	2656.22
429.28	2719.70
429.48	2766.81
429.69	2570.20
429.89	2703.32
430.10	2643.93
430.30	2850.77
430.51	2820.05
430.71	2594.78
430.92	2574.30
431.13	2754.52
431.33	2758.61
431.54	2785.24
431.74	2918.36
431.95	3108.82
432.15	2623.45
432.36	2684.89
432.56	2717.65
432.77	3006.42
432.98	2990.03
433.18	2711.51
433.39	2629.59
433.59	2668.50
433.80	2996.18
434.00	2871.25
434.21	2707.41
434.41	2627.54
434.62	3131.34
434.82	2488.28
435.03	2594.78
435.23	2856.92
435.44	2502.62
435.64	2631.64
435.85	2756.57
436.06	2797.53
436.26	2912.21
436.47	2650.07
436.67	2652.12
436.88	2719.70
437.08	2885.59
437.29	2746.33
437.49	2744.28
437.70	2971.60
437.90	2785.24
438.11	2818.00
438.31	2682.84
438.52	2969.55
438.72	2885.59
438.93	2996.18
439.13	2744.28
439.34	2901.97
439.54	2662.36
439.75	2766.81
439.95	2748.37
440.16	2637.78
440.36	2723.80
440.57	2686.94
440.77	2742.23
440.98	2793.43
441.18	2756.57
441.39	2521.05
441.59	2510.81
441.80	2934.74
442.00	2781.14
442.21	2854.87
442.41	2549.72
442.62	2932.69
442.82	2686.94
443.02	2713.56
443.23	2662.36
443.43	2658.26
443.64	2883.54
443.84	2551.77
444.05	2756.57
444.25	2750.42
444.46	2695.13
444.66	2682.84
444.87	2826.20
445.07	2486.23
445.28	2648.02
445.48	2791.38
445.69	2719.70
445.89	3065.81
446.09	2744.28
446.30	2942.93
446.50	3033.04
446.71	4634.55
446.91	5689.26
447.12	6520.73
447.32	6846.36
447.53	6416.29
447.73	5410.73
447.93	4827.06
448.14	4554.68
448.34	4403.13
448.55	3852.23
448.75	3901.38
448.96	3696.58
449.16	3370.96
449.36	3293.13
449.57	2869.20
449.77	2740.18
449.98	2637.78
450.18	2826.20
450.39	2658.26
450.59	2834.39
450.79	2809.81
451.00	2572.25
451.20	2815.96
451.41	2703.32
451.61	2906.07
451.81	2717.65
452.02	2615.26
452.22	2697.17
452.43	2660.31
452.63	2588.63
452.84	2699.22
453.04	2588.63
453.24	2834.39
453.45	2613.21
453.65	2615.26
453.86	2740.18
454.06	2752.47
454.26	2787.29
454.47	2543.58
454.67	2758.61
454.87	2844.63
455.08	2678.74
455.28	2777.05
455.49	2770.90
455.69	2648.02
455.89	3080.14
456.10	2777.05
456.30	2678.74
456.51	2846.68
456.71	2777.05
456.91	2797.53
457.12	2639.83
457.32	2777.05
457.52	2623.45
457.73	2754.52
457.93	2699.22
458.14	2625.50
458.34	2414.56
458.54	2672.60
458.75	2615.26
458.95	2934.74
459.15	2742.23
459.36	2725.85
459.56	2727.89
459.76	3065.81
459.97	2785.24
460.17	2648.02
460.37	2731.99
460.58	2744.28
460.78	2797.53
460.99	2639.83
461.19	2623.45
461.39	2686.94
461.60	2654.17
461.80	2723.80
462.00	2594.78
462.21	2691.03
462.41	2598.87
462.61	2564.06
462.82	2494.43
463.02	2775.00
463.22	2770.90
463.43	2660.31
463.63	2623.45
463.83	2940.88
464.04	2801.62
464.24	2697.17
464.44	2551.77
464.64	2682.84
464.85	2873.30
465.05	2731.99
465.25	2680.79
465.46	2641.88
465.66	2815.96
465.86	2758.61
466.07	2697.17
466.27	2736.09
466.47	2549.72
466.68	2496.47
466.88	2826.20
467.08	2756.57
467.29	2856.92
467.49	2668.50
467.69	2666.46
467.89	2914.26
468.10	2643.93
468.30	2711.51
468.50	2729.94
468.71	2918.36
468.91	2605.02
469.11	2787.29
469.31	2676.70
469.52	2543.58
469.72	2949.08
469.92	2934.74
470.13	2723.80
470.33	2758.61
470.53	2775.00
470.73	3020.75
470.94	3250.13
471.14	3362.76
471.34	3809.22
471.54	3575.75
471.75	3291.09
471.95	3149.78
472.15	3155.92
472.36	3164.11
472.56	2959.31
472.76	3117.01
472.96	3074.00
473.17	2887.64
473.37	2824.15
473.57	2627.54
473.77	2818.00
473.98	2736.09
474.18	2547.67
474.38	3209.17
474.58	2619.35
474.79	2600.92
474.99	2789.33
475.19	2990.03
475.39	2625.50
475.60	2674.65
475.80	2643.93
476.00	2830.29
476.20	2617.30
476.41	2721.75
476.61	2682.84
476.81	2998.23
477.01	2695.13
477.21	2746.33
477.42	2820.05
477.62	2539.48
477.82	2828.24
478.02	2533.34
478.23	2707.41
478.43	2596.82
478.63	2656.22
478.83	2635.74
479.03	2643.93
479.24	2820.05
479.44	3037.14
479.64	2568.15
479.84	2473.95
480.04	2627.54
480.25	2904.02
480.45	2598.87
480.65	2570.20
480.85	2998.23
481.06	2777.05
481.26	2674.65
481.46	2631.64
481.66	2744.28
481.86	2654.17
482.06	2826.20
482.27	2676.70
482.47	2662.36
482.67	2797.53
482.87	2652.12
483.07	2787.29
483.28	2564.06
483.48	2611.16
483.68	2598.87
483.88	2555.86
484.08	2453.47
484.29	2562.01
484.49	2695.13
484.69	2490.33
484.89	2914.26
485.09	2869.20
485.29	2740.18
485.50	2750.42
485.70	2613.21
485.90	2826.20
486.10	2772.95
486.30	2609.11
486.50	2932.69
486.71	2770.90
486.91	2785.24
487.11	2748.37
487.31	2559.96
487.51	2799.57
487.71	2605.02
487.91	2537.43
488.12	2568.15
488.32	2355.16
488.52	2570.20
488.72	2486.23
488.92	2734.04
489.12	2914.26
489.32	2756.57
489.53	2758.61
489.73	2455.51
489.93	2938.84
490.13	2695.13
490.33	2465.75
490.53	2727.89
490.73	2926.55
490.94	2465.75
491.14	2731.99
491.34	2760.66
491.54	2930.64
491.74	3538.89
491.94	4102.08
492.14	4353.98
492.34	4427.71
492.54	4169.66
492.75	3467.21
492.95	3608.52
493.15	3407.82
493.35	3350.48
493.55	3198.93
493.75	3114.96
493.95	3243.98
494.15	2848.72
494.35	2736.09
494.56	2736.09
494.76	2674.65
494.96	2818.00
495.16	2592.73
495.36	2781.14
495.56	2770.90
495.76	2615.26
495.96	2691.03
496.16	2617.30
496.36	3033.04
496.56	2637.78
496.77	2758.61
496.97	2697.17
497.17	2961.36
497.37	2441.18
497.57	2793.43
497.77	2805.72
497.97	2582.49
498.17	2727.89
498.37	2588.63
498.57	2842.58
498.77	2617.30
498.97	2729.94
499.17	2936.79
499.38	2725.85
499.58	2844.63
499.78	2865.11
499.98	2803.67
500.18	2715.61
500.38	2605.02
500.58	2875.35
500.78	3205.07
500.98	5459.88
501.18	7174.03
501.38	8640.38
501.58	9613.17
501.78	9367.41
501.98	7604.11
502.18	6490.01
502.38	5636.01
502.58	5400.49
502.78	4814.77
502.98	4640.70
503.18	4403.13
503.38	4200.38
503.59	3575.75
503.79	3477.45
503.99	3233.74
504.19	3182.54
504.39	3139.54
504.59	3200.98
504.79	3002.32
504.99	3098.58
505.19	2936.79
505.39	2815.96
505.59	3045.33
505.79	2992.08
505.99	2901.97
506.19	2721.75
506.39	2881.49
506.59	2654.17
506.79	2609.11
506.99	2803.67
507.19	2668.50
507.39	2783.19
507.59	2543.58
507.79	2625.50
507.99	2643.93
508.19	2686.94
508.39	2697.17
508.59	2650.07
508.79	2777.05
508.99	3016.66
509.19	2631.64
509.39	2707.41
509.59	2605.02
509.79	2664.41
509.99	2789.33
510.19	2840.53
510.39	2752.47
510.59	2779.09
510.79	2668.50
510.99	2512.86
511.19	2656.22
511.39	2971.60
511.59	2865.11
511.79	2797.53
511.99	2637.78
512.19	3014.61
512.38	2713.56
512.58	2637.78
512.78	2654.17
512.98	2901.97
513.18	2895.83
513.38	2521.05
513.58	2758.61
513.78	2777.05
513.98	2777.05
514.18	2555.86
514.38	2553.82
514.58	2779.09
514.78	2656.22
514.98	2539.48
515.18	2682.84
515.38	2473.95
515.58	2957.27
515.78	2654.17
515.98	2594.78
516.18	2820.05
516.38	2676.70
516.57	2562.01
516.77	2652.12
516.97	2895.83
517.17	2584.54
517.37	2461.66
517.57	2742.23
517.77	2736.09
517.97	2727.89
518.17	2676.70
518.37	2613.21
518.57	2600.92
518.77	2652.12
518.97	2703.32
519.16	2637.78
519.36	2854.87
519.56	2623.45
519.76	2629.59
519.96	2725.85
520.16	2938.84
520.36	2621.40
520.56	2856.92
520.76	2639.83
520.96	2795.48
521.16	2818.00
521.35	2793.43
521.55	2795.48
521.75	2715.61
521.95	2643.93
522.15	2607.06
522.35	2484.19
522.55	2615.26
522.75	2805.72
522.95	2590.68
523.14	2570.20
523.34	2760.66
523.54	2643.93
523.74	2789.33
523.94	2760.66
524.14	2541.53
524.34	2775.00
524.54	2869.20
524.73	2637.78
524.93	2871.25
525.13	2795.48
525.33	2596.82
525.53	2969.55
525.73	2836.44
525.93	2801.62
526.13	2674.65
526.32	2605.02
526.52	2940.88
526.72	2832.34
526.92	2617.30
527.12	2660.31
527.32	2553.82
527.52	2777.05
527.71	2744.28
527.91	2707.41
528.11	2625.50
528.31	2721.75
528.51	2562.01
528.71	2797.53
528.90	2846.68
529.10	2848.72
529.30	2783.19
529.50	2404.32
529.70	2740.18
529.90	2746.33
530.09	2725.85
530.29	2490.33
530.49	2605.02
530.69	3184.59
530.89	2719.70
531.09	2746.33
531.28	2674.65
531.48	2908.12
531.68	2648.02
531.88	2670.55
532.08	2867.16
532.28	2738.13
532.47	2695.13
532.67	2756.57
532.87	2723.80
533.07	2625.50
533.27	2664.41
533.46	2711.51
533.66	2736.09
533.86	2695.13
534.06	2664.41
534.26	2664.41
534.45	2621.40
534.65	2783.19
534.85	2734.04
535.05	2645.98
535.25	2824.15
535.44	2498.52
535.64	2695.13
535.84	2688.98
536.04	2570.20
536.24	2621.40
536.43	2586.58
536.63	2754.52
536.83	2715.61
537.03	2627.54
537.22	2435.03
537.42	2435.03
537.62	2719.70
537.82	2672.60
538.02	2818.00
538.21	2768.85
538.41	3231.69
538.61	2822.10
538.81	2686.94
539.00	2820.05
539.20	2547.67
539.40	2715.61
539.60	2699.22
539.79	2775.00
539.99	2707.41
540.19	2662.36
540.39	2627.54
540.58	2731.99
540.78	2856.92
540.98	2770.90
541.18	2748.37
541.37	2779.09
541.57	2643.93
541.77	2791.38
541.97	2564.06
542.16	2584.54
542.36	2674.65
542.56	2660.31
542.76	2895.83
542.95	2727.89
543.15	2822.10
543.35	2846.68
543.54	2553.82
543.74	2609.11
543.94	2940.88
544.14	2539.48
544.33	2844.63
544.53	2705.37
544.73	2662.36
544.93	2672.60
545.12	2654.17
545.32	2559.96
545.52	2559.96
545.71	2535.39
545.91	2643.93
546.11	2602.97
546.30	2668.50
546.50	2781.14
546.70	2656.22
546.90	2664.41
547.09	2494.43
547.29	2805.72
547.49	2793.43
547.68	2711.51
547.88	2637.78
548.08	2858.96
548.27	3086.29
548.47	2557.91
548.67	2584.54
548.87	2770.90
549.06	2658.26
549.26	2736.09
549.46	2734.04
549.65	2582.49
549.85	2693.08
550.05	2654.17
550.24	2535.39
550.44	2703.32
550.64	2705.37
550.83	2660.31
551.03	2949.08
551.23	2858.96
551.42	2756.57
551.62	2643.93
551.82	2715.61
552.01	2736.09
552.21	2899.92
552.41	2664.41
552.60	2936.79
552.80	2768.85
553.00	2566.10
553.19	2709.46
553.39	2992.08
553.59	2557.91
553.78	2785.24
553.98	2607.06
554.17	2605.02
554.37	2721.75
554.57	2662.36
554.76	2502.62
554.96	2674.65
555.16	2717.65
555.35	2662.36
555.55	2775.00
555.75	2795.48
555.94	2781.14
556.14	2392.03
556.33	2744.28
556.53	2789.33
556.73	2682.84
556.92	2682.84
557.12	2674.65
557.32	3065.81
557.51	2916.31
557.71	2760.66
557.90	2875.35
558.10	2858.96
558.30	2701.27
558.49	2600.92
558.69	2602.97
558.88	2813.91
559.08	2873.30
559.28	2623.45
559.47	2611.16
559.67	2832.34
559.86	3047.38
560.06	2611.16
560.26	2650.07
560.45	2830.29
560.65	2713.56
560.84	2914.26
561.04	2584.54
561.24	2832.34
561.43	2600.92
561.63	2873.30
561.82	2734.04
562.02	2858.96
562.22	2641.88
562.41	2627.54
562.61	2609.11
562.80	2582.49
563.00	3121.10
563.19	2678.74
563.39	2650.07
563.59	2871.25
563.78	2674.65
563.98	2441.18
564.17	2535.39
564.37	2490.33
564.56	2744.28
564.76	2500.57
564.96	2754.52
565.15	2686.94
565.35	3084.24
565.54	2682.84
565.74	2676.70
565.93	2752.47
566.13	2734.04
566.32	2707.41
566.52	2828.24
566.71	2787.29
566.91	2838.48
567.11	2777.05
567.30	2598.87
567.50	2869.20
567.69	2832.34
567.89	2576.34
568.08	2586.58
568.28	2822.10
568.47	2588.63
568.67	2721.75
568.86	2570.20
569.06	2858.96
569.25	2670.55
569.45	2502.62
569.64	2609.11
569.84	2643.93
570.04	2799.57
570.23	2658.26
570.43	2697.17
570.62	2766.81
570.82	2957.27
571.01	2471.90
571.21	2539.48
571.40	2619.35
571.60	2863.06
571.79	2715.61
571.99	2676.70
572.18	2613.21
572.38	2785.24
572.57	2650.07
572.77	2678.74
572.96	3069.91
573.16	2723.80
573.35	2662.36
573.55	2883.54
573.74	2738.13
573.94	2699.22
574.13	2666.46
574.33	2756.57
574.52	2854.87
574.71	2813.91
574.91	2764.76
575.10	2531.29
575.30	2656.22
575.49	2695.13
575.69	2562.01
575.88	2623.45
576.08	2678.74
576.27	2779.09
576.47	2643.93
576.66	2836.44
576.86	2906.07
577.05	2830.29
577.25	2775.00
577.44	2908.12
577.64	2715.61
577.83	2807.77
578.02	2664.41
578.22	2811.86
578.41	2992.08
578.61	2691.03
578.80	2469.85
579.00	2684.89
579.19	2707.41
579.39	2858.96
579.58	2740.18
579.77	2678.74
579.97	2965.46
580.16	2899.92
580.36	2813.91
580.55	2772.95
580.75	2793.43
580.94	2768.85
581.13	2879.44
581.33	2875.35
581.52	2717.65
581.72	2992.08
581.91	2777.05
582.11	2715.61
582.30	2858.96
582.49	2791.38
582.69	2928.60
582.88	2744.28
583.08	2754.52
583.27	2996.18
583.47	2672.60
583.66	2586.58
583.85	2592.73
584.05	2705.37
584.24	2758.61
584.44	2766.81
584.63	2924.50
584.82	2904.02
585.02	2924.50
585.21	2838.48
585.41	2820.05
585.60	2797.53
585.79	3002.32
585.99	2938.84
586.18	2873.30
586.37	3516.36
586.57	5562.28
586.76	16273.16
586.96	35302.89
587.15	47914.28
587.34	57091.22
587.54	61418.58
587.73	55186.61
587.93	38618.55
588.12	29148.74
588.31	23664.28
588.51	20936.38
588.70	19168.99
588.89	17088.25
589.09	14501.67
589.28	12449.60
589.47	9846.63
589.67	7651.21
589.86	6012.84
590.06	4626.36
590.25	3936.20
590.44	3465.16
590.64	3069.91
590.83	2971.60
591.02	2928.60
591.22	2684.89
591.41	2676.70
591.60	2766.81
591.80	3069.91
591.99	2539.48
592.18	2645.98
592.38	2899.92
592.57	2707.41
592.76	2725.85
592.96	2693.08
593.15	2717.65
593.34	2873.30
593.54	2660.31
593.73	2766.81
593.92	2740.18
594.12	2844.63
594.31	2729.94
594.50	2906.07
594.70	2875.35
594.89	3141.58
595.08	2488.28
595.28	2846.68
595.47	3125.20
595.66	2889.68
595.86	2559.96
596.05	2576.34
596.24	2713.56
596.43	2985.94
596.63	2791.38
596.82	2783.19
597.01	2811.86
597.21	2994.13
597.40	2719.70
597.59	2660.31
597.79	2750.42
597.98	2793.43
598.17	2725.85
598.36	2658.26
598.56	2826.20
598.75	2662.36
598.94	2727.89
599.14	2682.84
599.33	2643.93
599.52	2916.31
599.71	2697.17
599.91	2693.08
600.10	2924.50
600.29	2793.43
600.48	2705.37
600.68	2691.03
600.87	2863.06
601.06	2627.54
601.26	2658.26
601.45	2813.91
601.64	2717.65
601.83	2949.08
602.03	2664.41
602.22	2559.96
602.41	2951.12
602.60	3131.34
602.80	2772.95
602.99	2811.86
603.18	2658.26
603.37	2781.14
603.57	2664.41
603.76	2717.65
603.95	2891.73
604.14	2697.17
604.34	2619.35
604.53	2684.89
604.72	2770.90
604.91	2908.12
605.10	2703.32
605.30	2496.47
605.49	3059.67
605.68	2842.58
605.87	2711.51
606.07	2711.51
606.26	2801.62
606.45	2793.43
606.64	2662.36
606.84	2627.54
607.03	2723.80
607.22	2842.58
607.41	2674.65
607.60	2654.17
607.80	2924.50
607.99	2613.21
608.18	2699.22
608.37	2697.17
608.56	2709.46
608.76	2861.01
608.95	2889.68
609.14	2670.55
609.33	2842.58
609.52	2967.51
609.72	2680.79
609.91	2838.48
610.10	2824.15
610.29	2912.21
610.48	2785.24
610.68	2727.89
610.87	2744.28
611.06	2856.92
611.25	2672.60
611.44	2779.09
611.63	2664.41
611.83	2971.60
612.02	2531.29
612.21	2744.28
612.40	2471.90
612.59	2613.21
612.79	2621.40
612.98	2643.93
613.17	3022.80
613.36	2748.37
613.55	2822.10
613.74	2645.98
613.93	2742.23
614.13	2861.01
614.32	2852.82
614.51	2797.53
614.70	2783.19
614.89	2658.26
615.08	2793.43
615.28	3102.67
615.47	2668.50
615.66	2842.58
615.85	2662.36
616.04	2740.18
616.23	2746.33
616.42	2764.76
616.62	2701.27
616.81	2719.70
617.00	2658.26
617.19	2772.95
617.38	2641.88
617.57	2764.76
617.76	2772.95
617.95	2832.34
618.15	2752.47
618.34	2865.11
618.53	2531.29
618.72	2959.31
618.91	2834.39
619.10	2797.53
619.29	2678.74
619.48	2725.85
619.68	2527.19
619.87	2564.06
620.06	2480.09
620.25	2760.66
620.44	2650.07
620.63	2607.06
620.82	2738.13
621.01	2793.43
621.20	2744.28
621.39	2734.04
621.59	2736.09
621.78	2672.60
621.97	2676.70
622.16	2762.71
622.35	2830.29
622.54	2844.63
622.73	2756.57
622.92	2492.38
623.11	2873.30
623.30	2682.84
623.49	2781.14
623.68	2609.11
623.88	2916.31
624.07	2697.17
624.26	2631.64
624.45	2676.70
624.64	2711.51
624.83	2777.05
625.02	2652.12
625.21	2697.17
625.40	2834.39
625.59	2891.73
625.78	2688.98
625.97	2826.20
626.16	2985.94
626.35	2871.25
626.54	2723.80
626.74	2854.87
626.93	2611.16
627.12	2727.89
627.31	2762.71
627.50	2750.42
627.69	2873.30
627.88	2678.74
628.07	2664.41
628.26	2498.52
628.45	2619.35
628.64	2639.83
628.83	2666.46
629.02	2613.21
629.21	2820.05
629.40	2799.57
629.59	2586.58
629.78	2617.30
629.97	2723.80
630.16	2701.27
630.35	2592.73
630.54	2699.22
630.73	2672.60
630.92	2734.04
631.11	2588.63
631.30	2725.85
631.49	2826.20
631.68	2654.17
631.87	2719.70
632.06	2535.39
632.25	3080.14
632.44	2707.41
632.63	2777.05
632.82	2643.93
633.01	2723.80
633.20	2752.47
633.39	2721.75
633.58	2512.86
633.77	2801.62
633.96	2826.20
634.15	2660.31
634.34	2754.52
634.53	2688.98
634.72	2588.63
634.91	2590.68
635.10	2742.23
635.29	2879.44
635.48	2787.29
635.67	2504.67
635.86	2564.06
636.05	2934.74
636.24	2707.41
636.43	2674.65
636.62	2744.28
636.81	2426.84
637.00	2715.61
637.19	2754.52
637.38	2641.88
637.57	2709.46
637.76	2748.37
637.95	2832.34
638.14	2731.99
638.33	2736.09
638.52	2801.62
638.71	2516.95
638.89	2562.01
639.08	3104.72
639.27	2936.79
639.46	2883.54
639.65	3194.83
639.84	3200.98
640.03	3182.54
640.22	3108.82
640.41	3123.15
640.60	2779.09
640.79	2904.02
640.98	2731.99
641.17	2830.29
641.36	2883.54
641.55	2877.40
641.74	2584.54
641.92	2621.40
642.11	2602.97
642.30	2695.13
642.49	2539.48
642.68	2619.35
642.87	2766.81
643.06	2893.78
643.25	2648.02
643.44	2514.91
643.63	2703.32
643.82	2750.42
644.00	2576.34
644.19	2684.89
644.38	2664.41
644.57	2885.59
644.76	2703.32
644.95	2645.98
645.14	2801.62
645.33	2678.74
645.52	2680.79
645.71	2537.43
645.89	2557.91
646.08	2699.22
646.27	2627.54
646.46	2854.87
646.65	2605.02
646.84	2789.33
647.03	2482.14
647.22	2805.72
647.40	2748.37
647.59	2684.89
647.78	2471.90
647.97	2516.95
648.16	2574.30
648.35	2861.01
648.54	2889.68
648.73	2623.45
648.91	2844.63
649.10	2748.37
649.29	2600.92
649.48	2615.26
649.67	2764.76
649.86	2719.70
650.05	2672.60
650.23	2832.34
650.42	2670.55
650.61	2920.40
650.80	2805.72
650.99	2914.26
651.18	2811.86
651.36	2861.01
651.55	2674.65
651.74	2818.00
651.93	2693.08
652.12	2672.60
652.31	2686.94
652.49	2617.30
652.68	2600.92
652.87	2961.36
653.06	2740.18
653.25	2879.44
653.44	2727.89
653.62	2990.03
653.81	2674.65
654.00	2711.51
654.19	2783.19
654.38	3147.73
654.56	2777.05
654.75	2588.63
654.94	2883.54
655.13	2760.66
655.32	2637.78
655.51	2711.51
655.69	2584.54
655.88	2899.92
656.07	2568.15
656.26	2760.66
656.45	2539.48
656.63	2660.31
656.82	2697.17
657.01	2834.39
657.20	2654.17
657.38	2904.02
657.57	2684.89
657.76	2537.43
657.95	2856.92
658.14	2688.98
658.32	2731.99
658.51	2539.48
658.70	2750.42
658.89	2779.09
659.08	2600.92
659.26	2881.49
659.45	2572.25
659.64	2834.39
659.83	2645.98
660.01	3016.66
660.20	2783.19
660.39	2967.51
660.58	2381.79
660.76	2670.55
660.95	2531.29
661.14	2750.42
661.33	2531.29
661.51	2570.20
661.70	2617.30
661.89	2813.91
662.08	2701.27
662.26	2525.15
662.45	2605.02
662.64	2983.89
662.83	2744.28
663.01	2494.43
663.20	2680.79
663.39	3016.66
663.58	2648.02
663.76	2654.17
663.95	2705.37
664.14	2590.68
664.32	2588.63
664.51	2615.26
664.70	2512.86
664.89	2727.89
665.07	2572.25
665.26	2828.24
665.45	2551.77
665.64	2844.63
665.82	2586.58
666.01	2723.80
666.20	2480.09
666.38	2854.87
666.57	2858.96
666.76	4186.05
666.95	10067.81
667.13	16932.61
667.32	20999.87
667.51	23723.67
667.69	25069.19
667.88	21565.11
668.07	15402.77
668.25	12953.40
668.44	11106.13
668.63	9572.21
668.81	8462.21
669.00	7311.25
669.19	6520.73
669.38	5861.29
669.56	5052.34
669.75	4224.96
669.94	3768.26
670.12	3215.31
670.31	3012.56
670.50	2957.27
670.68	2906.07
670.87	2791.38
671.06	2623.45
671.24	2658.26
671.43	3006.42
671.62	2783.19
671.80	2590.68
671.99	2805.72
672.18	2742.23
672.36	2824.15
672.55	2762.71
672.74	2789.33
672.92	2668.50
673.11	2840.53
673.29	2562.01
673.48	2871.25
673.67	2660.31
673.85	2899.92
674.04	2625.50
674.23	2693.08
674.41	3004.37
674.60	2584.54
674.79	2510.81
674.97	2539.48
675.16	2744.28
675.34	2834.39
675.53	2557.91
675.72	2709.46
675.90	2998.23
676.09	2617.30
676.28	2791.38
676.46	2490.33
676.65	2846.68
676.83	2602.97
677.02	2697.17
677.21	2637.78
677.39	2731.99
677.58	2578.39
677.77	2596.82
677.95	2512.86
678.14	2682.84
678.32	2658.26
678.51	2627.54
678.70	2938.84
678.88	2635.74
679.07	2717.65
679.25	2648.02
679.44	2633.69
679.63	2572.25
679.81	2660.31
680.00	2852.82
680.18	2766.81
680.37	2914.26
680.55	2684.89
680.74	2494.43
680.93	2435.03
681.11	2742.23
681.30	2691.03
681.48	2670.55
681.67	2629.59
681.85	2717.65
682.04	2607.06
682.23	2676.70
682.41	2670.55
682.60	2637.78
682.78	2637.78
682.97	2590.68
683.15	2648.02
683.34	2752.47
683.53	2985.94
683.71	2488.28
683.90	2795.48
684.08	2981.84
684.27	2627.54
684.45	2713.56
684.64	2856.92
684.82	2766.81
685.01	2791.38
685.19	2576.34
685.38	2889.68
685.57	2682.84
685.75	2621.40
685.94	2578.39
686.12	2648.02
686.31	2605.02
686.49	3045.33
686.68	2457.56
686.86	2621.40
687.05	2740.18
687.23	3030.99
687.42	2584.54
687.60	2457.56
687.79	2836.44
687.97	2910.16
688.16	2758.61
688.34	2916.31
688.53	2498.52
688.71	2699.22
688.90	2820.05
689.08	2736.09
689.27	2480.09
689.45	2838.48
689.64	2752.47
689.82	2803.67
690.01	2754.52
690.19	2789.33
690.38	2658.26
690.56	2842.58
690.75	2621.40
690.93	2662.36
691.12	2588.63
691.30	2658.26
691.49	2623.45
691.67	2736.09
691.86	2897.88
692.04	2613.21
692.23	2627.54
692.41	2701.27
692.60	2926.55
692.78	2867.16
692.97	2662.36
693.15	2783.19
693.34	2924.50
693.52	2854.87
693.71	2617.30
693.89	2621.40
694.08	2506.71
694.26	2693.08
694.44	2873.30
694.63	2861.01
694.81	2658.26
695.00	2615.26
695.18	2875.35
695.37	3110.86
695.55	2693.08
695.74	2600.92
695.92	2613.21
696.10	2897.88
696.29	2453.47
696.47	2570.20
696.66	2586.58
696.84	2596.82
697.03	2688.98
697.21	2832.34
697.40	4095.94
697.58	2990.03
697.76	2695.13
697.95	2613.21
698.13	2605.02
698.32	2691.03
698.50	2727.89
698.68	2709.46
698.87	2809.81
699.05	2953.17
699.24	2744.28
699.42	2535.39
699.61	2711.51
699.79	2756.57
699.97	2666.46
700.16	2502.62
700.34	2588.63
700.53	2736.09
700.71	2871.25
700.89	2736.09
701.08	2613.21
701.26	2662.36
701.45	3131.34
701.63	2580.44
701.81	2660.31
702.00	2627.54
702.18	2656.22
702.37	2605.02
702.55	3006.42
702.73	2811.86
702.92	2729.94
703.10	2936.79
703.28	2856.92
703.47	2645.98
703.65	2867.16
703.84	2885.59
704.02	2676.70
704.20	2957.27
704.39	2578.39
704.57	2672.60
704.75	2807.77
704.94	2736.09
705.12	2764.76
705.30	3178.45
705.49	5808.04
705.67	11896.65
705.86	17491.70
706.04	20602.57
706.22	22462.12
706.41	22644.39
706.59	17598.20
706.77	13373.24
706.96	11538.26
707.14	10508.13
707.32	8773.50
707.51	7798.66
707.69	6483.87
707.87	5349.29
708.06	4544.44
708.24	3909.57
708.42	3315.66
708.61	3438.54
708.79	2738.13
708.97	2768.85
709.16	2793.43
709.34	2707.41
709.52	2723.80
709.71	2660.31
709.89	2822.10
710.07	2617.30
710.26	2576.34
710.44	2615.26
710.62	2840.53
710.80	2789.33
710.99	2787.29
711.17	2772.95
711.35	2674.65
711.54	2676.70
711.72	2789.33
711.90	2742.23
712.09	2793.43
712.27	2629.59
712.45	2734.04
712.63	2648.02
712.82	2777.05
713.00	2744.28
713.18	2744.28
713.37	2861.01
713.55	2748.37
713.73	2791.38
713.91	2783.19
714.10	2557.91
714.28	2688.98
714.46	2805.72
714.65	2668.50
714.83	2676.70
715.01	2785.24
715.19	2725.85
715.38	2586.58
715.56	2766.81
715.74	2576.34
715.92	2557.91
716.11	2856.92
716.29	2467.80
716.47	2684.89
716.65	2734.04
716.84	2553.82
717.02	2752.47
717.20	2523.10
717.38	2553.82
717.57	2768.85
717.75	2654.17
717.93	2664.41
718.11	2858.96
718.30	2512.86
718.48	2705.37
718.66	2938.84
718.84	2850.77
719.03	2691.03
719.21	2494.43
719.39	2942.93
719.57	2768.85
719.75	2793.43
719.94	2568.15
720.12	2703.32
720.30	2797.53
720.48	2768.85
720.67	2654.17
720.85	2598.87
721.03	2629.59
721.21	2547.67
721.39	2752.47
721.58	2807.77
721.76	2725.85
721.94	2725.85
722.12	2768.85
722.30	2951.12
722.49	2633.69
722.67	2627.54
722.85	2723.80
723.03	2602.97
723.21	2660.31
723.40	2670.55
723.58	2801.62
723.76	2754.52
723.94	2942.93
724.12	2758.61
724.30	2815.96
724.49	2899.92
724.67	2631.64
724.85	2797.53
725.03	2547.67
725.21	2883.54
725.40	2932.69
725.58	2658.26
725.76	2842.58
725.94	2791.38
726.12	2588.63
726.30	2688.98
726.49	2607.06
726.67	2703.32
726.85	2803.67
727.03	3190.74
727.21	4054.98
727.39	5054.39
727.57	5564.33
727.76	6041.51
727.94	6027.17
728.12	5515.18
728.30	4544.44
728.48	4282.30
728.66	4018.11
728.84	3792.84
729.03	3252.17
729.21	3231.69
729.39	2920.40
729.57	2777.05
729.75	2869.20
729.93	2748.37
730.11	2664.41
730.30	2691.03
730.48	2660.31
730.66	2834.39
730.84	2695.13
731.02	2754.52
731.20	2703.32
731.38	2691.03
731.56	2566.10
731.74	2570.20
731.93	2783.19
732.11	2670.55
732.29	2701.27
732.47	2799.57
732.65	2768.85
732.83	2848.72
733.01	2697.17
733.19	2637.78
733.37	2758.61
733.56	2756.57
733.74	2639.83
733.92	2975.70
734.10	2615.26
734.28	2797.53
734.46	2570.20
734.64	2621.40
734.82	2670.55
735.00	2586.58
735.18	2615.26
735.36	2703.32
735.54	2752.47
735.73	2570.20
735.91	2752.47
736.09	2981.84
736.27	2699.22
736.45	2725.85
736.63	2467.80
736.81	2795.48
736.99	2908.12
737.17	2842.58
737.35	2656.22
737.53	2777.05
737.71	2625.50
737.89	2781.14
738.07	2586.58
738.25	2648.02
738.43	2490.33
738.61	2709.46
738.80	2543.58
738.98	2619.35
739.16	2662.36
739.34	2635.74
739.52	2908.12
739.70	2705.37
739.88	2779.09
740.06	2781.14
740.24	2346.97
740.42	2920.40
740.60	2537.43
740.78	2674.65
740.96	2445.27
741.14	2686.94
741.32	2715.61
741.50	2459.61
741.68	2955.22
741.86	2899.92
742.04	2564.06
742.22	2562.01
742.40	2568.15
742.58	2820.05
742.76	2635.74
742.94	2830.29
743.12	2492.38
743.30	2641.88
743.48	2758.61
743.66	2531.29
743.84	2744.28
744.02	2643.93
744.20	2678.74
744.38	2514.91
744.56	2562.01
744.74	2959.31
744.92	2727.89
745.10	2820.05
745.28	2711.51
745.46	2928.60
745.64	2725.85
745.82	2691.03
746.00	2670.55
746.18	2797.53
746.36	2645.98
746.54	2709.46
746.72	2662.36
746.90	2570.20
747.08	2856.92
747.26	2635.74
747.44	2768.85
747.62	2889.68
747.80	2830.29
747.98	2807.77
748.15	2691.03
748.33	3045.33
748.51	2752.47
748.69	2752.47
748.87	2629.59
749.05	2715.61
749.23	2674.65
749.41	2676.70
749.59	2639.83
749.77	2822.10
749.95	2613.21
750.13	2627.54
750.31	2713.56
750.49	2738.13
750.67	2848.72
750.85	2863.06
751.03	2709.46
751.20	3059.67
751.38	2688.98
751.56	2615.26
751.74	2699.22
751.92	2707.41
752.10	2557.91
752.28	2809.81
752.46	2557.91
752.64	2684.89
752.82	2678.74
753.00	2731.99
753.18	2662.36
753.35	2744.28
753.53	2701.27
753.71	2678.74
753.89	2813.91
754.07	2678.74
754.25	2832.34
754.43	2699.22
754.61	2506.71
754.79	2707.41
754.97	2678.74
755.14	2865.11
755.32	2500.57
755.50	2738.13
755.68	2772.95
755.86	2471.90
756.04	2611.16
756.22	2494.43
756.40	2807.77
756.57	2955.22
756.75	2631.64
756.93	2818.00
757.11	2793.43
757.29	2545.63
757.47	2519.00
757.65	2480.09
757.82	2332.64
758.00	2559.96
758.18	2639.83
758.36	2578.39
758.54	2854.87
758.72	2465.75
758.90	2893.78
759.07	2809.81
759.25	2590.68
759.43	2758.61
759.61	2551.77
759.79	3940.29
759.97	2844.63
760.15	2600.92
760.32	2602.97
760.50	2715.61
760.68	2928.60
760.86	2537.43
761.04	2875.35
761.22	2785.24
761.39	2693.08
761.57	2719.70
761.75	2648.02
761.93	2766.81
762.11	2744.28
762.28	2684.89
762.46	2641.88
762.64	2801.62
762.82	2535.39
763.00	2682.84
763.18	2758.61
763.35	2598.87
763.53	2818.00
763.71	2621.40
763.89	2711.51
764.07	2772.95
764.24	2760.66
764.42	2793.43
764.60	2648.02
764.78	2791.38
764.96	2842.58
765.13	2797.53
765.31	2652.12
765.49	2869.20
765.67	2605.02
765.84	2654.17
766.02	2572.25
766.20	2539.48
766.38	2756.57
766.56	2785.24
766.73	2779.09
766.91	2736.09
767.09	2756.57
767.27	2760.66
767.44	2584.54
767.62	2805.72
767.80	2672.60
767.98	2627.54
768.15	2635.74
768.33	2842.58
768.51	2856.92
768.69	2777.05
768.87	2641.88
769.04	2734.04
769.22	3133.39
769.40	2873.30
769.58	2961.36
769.75	2727.89
769.93	2930.64
770.11	2727.89
770.28	2600.92
770.46	2842.58
770.64	2752.47
770.82	2699.22
770.99	2605.02
771.17	2826.20
771.35	2680.79
771.53	2684.89
771.70	2695.13
771.88	2789.33
772.06	2719.70
772.23	2586.58
772.41	2740.18
772.59	2645.98
772.77	2578.39
772.94	2770.90
773.12	2742.23
773.30	2658.26
773.47	2752.47
773.65	2555.86
773.83	2797.53
774.01	2766.81
774.18	2451.42
774.36	2672.60
774.54	2533.34
774.71	2713.56
774.89	2596.82
775.07	2498.52
775.24	2631.64
775.42	2664.41
775.60	2981.84
775.78	2504.67
775.95	2506.71
776.13	2539.48
776.31	2482.14
776.48	2752.47
776.66	2807.77
776.84	2672.60
777.01	2629.59
777.19	2529.24
777.37	2566.10
777.54	2801.62
777.72	3067.86
777.90	2703.32
778.07	2602.97
778.25	3151.82
778.43	2824.15
778.60	2543.58
778.78	2748.37
778.96	2832.34
779.13	2572.25
779.31	2758.61
779.49	2611.16
779.66	2695.13
779.84	2658.26
780.01	2664.41
780.19	2578.39
780.37	2842.58
780.54	2867.16
780.72	2525.15
780.90	2684.89
781.07	2686.94
781.25	2602.97
781.43	2856.92
781.60	2664.41
781.78	2879.44
781.95	2797.53
782.13	2557.91
782.31	2617.30
782.48	2537.43
782.66	2695.13
782.83	2891.73
783.01	2746.33
783.19	2809.81
783.36	2650.07
783.54	2545.63
783.72	2760.66
783.89	2676.70
784.07	2744.28
784.24	2793.43
784.42	2840.53
784.60	2764.76
784.77	2815.96
784.95	2457.56
785.12	2525.15
785.30	2779.09
785.47	2541.53
785.65	2562.01
785.83	2705.37
786.00	2607.06
786.18	2818.00
786.35	2514.91
786.53	2443.23
786.71	2885.59
786.88	2752.47
787.06	2793.43
787.23	2645.98
787.41	2588.63
787.58	2719.70
787.76	2564.06
787.94	2719.70
788.11	2725.85
788.29	2611.16
788.46	2570.20
788.64	2516.95
788.81	2652.12
788.99	2553.82
789.16	2547.67
789.34	2615.26
789.52	2598.87
789.69	2678.74
789.87	2422.75
790.04	2598.87
790.22	2709.46
790.39	3055.57
790.57	2627.54
790.74	2537.43
790.92	2826.20
791.09	2584.54
791.27	2740.18
791.44	2775.00
791.62	2631.64
791.79	2746.33
791.97	2670.55
792.15	2951.12
792.32	2889.68
792.50	2826.20
792.67	2807.77
792.85	2826.20
793.02	2793.43
793.20	2715.61
793.37	2492.38
793.55	2639.83
793.72	2564.06
793.90	2832.34
794.07	2654.17
794.25	2535.39
794.42	2719.70
794.60	2648.02
794.77	2654.17
794.95	2783.19
795.12	2779.09
795.30	2625.50
795.47	2422.75
795.65	2985.94
795.82	2727.89
796.00	2559.96
796.17	2678.74
796.34	2572.25
796.52	2754.52
796.69	2836.44
796.87	2709.46
797.04	2713.56
797.22	2797.53
797.39	2801.62
797.57	2807.77
797.74	2711.51
797.92	2781.14
798.09	2602.97
798.27	2826.20
798.44	2592.73
798.62	2633.69
798.79	2746.33
798.96	2688.98
799.14	2672.60
799.31	3051.47
799.49	2676.70
799.66	2570.20
799.84	2699.22
800.01	2490.33
800.19	2715.61
800.36	2492.38
800.53	2668.50
800.71	2793.43
800.88	2938.84
801.06	2572.25
801.23	2621.40
801.41	2731.99
801.58	2594.78
801.75	2613.21
801.93	2633.69
802.10	2820.05
802.28	2652.12
802.45	2670.55
802.63	2783.19
802.80	2842.58
802.97	2662.36
803.15	2666.46
803.32	2676.70
803.50	2627.54
803.67	2570.20
803.84	2537.43
804.02	2811.86
804.19	2670.55
804.37	2408.41
804.54	2609.11
804.71	2559.96
804.89	2643.93
805.06	2584.54
805.24	2545.63
805.41	2537.43
805.58	2662.36
805.76	3012.56
805.93	2625.50
806.10	2781.14
806.28	2918.36
806.45	2772.95
806.63	2676.70
806.80	2686.94
806.97	2723.80
807.15	2695.13
807.32	2697.17
807.49	2615.26
807.67	2512.86
807.84	2777.05
808.01	2461.66
808.19	2881.49
808.36	3090.38
808.54	2650.07
808.71	2619.35
808.88	2740.18
809.06	2863.06
809.23	2998.23
809.40	2633.69
809.58	2684.89
809.75	2695.13
809.92	2621.40
810.10	2930.64
810.27	2629.59
810.44	2809.81
810.62	2897.88
810.79	2725.85
810.96	2590.68
811.14	2627.54
811.31	2801.62
811.48	2691.03
811.66	2672.60
811.83	2811.86
812.00	2801.62
812.18	2678.74
812.35	2869.20
812.52	2660.31
812.69	2613.21
812.87	2645.98
813.04	2564.06
813.21	2684.89
813.39	2582.49
813.56	2539.48
813.73	2852.82
813.91	2525.15
814.08	2695.13
814.25	2709.46
814.42	2541.53
814.60	2654.17
814.77	2760.66
814.94	2572.25
815.12	2678.74
815.29	2922.45
815.46	2654.17
815.63	2652.12
815.81	2662.36
815.98	2600.92
816.15	2693.08
816.33	2672.60
816.50	2619.35
816.67	2699.22
816.84	2621.40
817.02	2578.39
817.19	2629.59
817.36	2793.43
817.53	2750.42
817.71	2564.06
817.88	2725.85
818.05	2652.12
818.22	2688.98
818.40	2904.02
818.57	2615.26
818.74	2772.95
818.91	2787.29
819.09	2779.09
819.26	2768.85
819.43	2582.49
819.60	2605.02
819.78	2764.76
819.95	2789.33
820.12	2504.67
820.29	2908.12
820.47	2803.67
820.64	2551.77
820.81	2432.99
820.98	2592.73
821.15	2695.13
821.33	2688.98
821.50	2416.60
821.67	2645.98
821.84	2605.02
822.02	2664.41
822.19	2848.72
822.36	2631.64
822.53	2562.01
822.70	2537.43
822.88	2643.93
823.05	2856.92
823.22	2609.11
823.39	2777.05
823.56	2717.65
823.74	2981.84
823.91	2584.54
824.08	2473.95
824.25	2533.34
824.42	2932.69
824.60	2527.19
824.77	2768.85
824.94	2693.08
825.11	2850.77
825.28	2562.01
825.45	2684.89
825.63	2719.70
825.80	2625.50
825.97	2695.13
826.14	2715.61
826.31	2465.75
826.48	2775.00
826.66	2574.30
826.83	2555.86
827.00	2586.58
827.17	2596.82
827.34	2643.93
827.51	2527.19
827.69	2660.31
827.86	2475.99
828.03	2672.60
828.20	2652.12
828.37	2529.24
828.54	2760.66
828.71	2547.67
828.89	2785.24
829.06	2736.09
829.23	2865.11
829.40	2633.69
829.57	2527.19
829.74	2793.43
829.91	2699.22
830.09	2521.05
830.26	2789.33
830.43	2922.45
830.60	2731.99
830.77	2686.94
830.94	2920.40
831.11	2777.05
831.28	2676.70
831.46	2775.00
831.63	2582.49
831.80	2803.67
831.97	2588.63
832.14	2676.70
832.31	2711.51
832.48	2791.38
832.65	2887.64
832.82	2688.98
832.99	2746.33
833.17	2547.67
833.34	2930.64
833.51	2713.56
833.68	2471.90
833.85	2879.44
834.02	2592.73
834.19	2600.92
834.36	2588.63
834.53	2797.53
834.70	2803.67
834.87	2693.08
835.04	2549.72
835.22	2592.73
835.39	2664.41
835.56	2463.71
835.73	2545.63
835.90	2869.20
836.07	2611.16
836.24	2654.17
836.41	2451.42
836.58	2605.02
836.75	2818.00
836.92	2609.11
837.09	2471.90
837.26	2850.77
837.43	2709.46
837.60	2643.93
837.77	2611.16
837.94	2783.19
838.12	2889.68
838.29	2482.14
838.46	2519.00
838.63	2510.81
838.80	2990.03
838.97	2615.26
839.14	2494.43
839.31	2729.94
839.48	2828.24
839.65	2510.81
839.82	2605.02
839.99	2723.80
840.16	2813.91
840.33	2488.28
840.50	2596.82
840.67	2576.34
840.84	2420.70
841.01	2529.24
841.18	2580.44
841.35	2678.74
841.52	2789.33
841.69	2807.77
841.86	2551.77
842.03	2691.03
842.20	2807.77
842.37	2562.01
842.54	2611.16
842.71	2680.79
842.88	2527.19
843.05	2572.25
843.22	2471.90
843.39	2834.39
843.56	2654.17
843.73	2580.44
843.90	2672.60
844.07	2717.65
844.24	2822.10
844.41	2621.40
844.58	2652.12
844.75	2727.89
844.92	2750.42
845.09	2613.21
845.26	2471.90
845.43	2781.14
845.60	2643.93
845.77	2725.85
845.94	2664.41
846.10	2850.77
846.27	2482.14
846.44	2467.80
846.61	2475.99
846.78	2762.71
846.95	2846.68
847.12	2613.21
847.29	2598.87
847.46	2654.17
847.63	2740.18
847.80	2545.63
847.97	2521.05
848.14	3049.43
848.31	2707.41
848.48	2486.23
848.65	2611.16
848.82	2678.74
848.98	3086.29
849.15	2613.21
849.32	2684.89
849.49	2793.43
849.66	2738.13
849.83	2592.73
850.00	2514.91
850.17	2789.33
850.34	2715.61
850.51	2531.29
850.68	2645.98
850.85	3043.28
851.01	2805.72
851.18	2535.39
851.35	2566.10
851.52	2752.47
851.69	2920.40
851.86	2471.90
852.03	2572.25
852.20	2848.72
852.37	2707.41
852.53	2498.52
852.70	2506.71
852.87	2744.28
853.04	2873.30
853.21	2576.34
853.38	2693.08
853.55	2858.96
853.72	2879.44
853.89	2486.23
854.05	2494.43
854.22	2613.21
854.39	2828.24
854.56	2582.49
854.73	2674.65
854.90	2572.25
855.07	2787.29
855.23	2457.56
855.40	2510.81
855.57	2691.03
855.74	2426.84
855.91	2748.37
856.08	2426.84
856.25	2512.86
856.41	2627.54
856.58	2514.91
856.75	2582.49
856.92	2455.51
857.09	2887.64
857.26	2430.94
857.42	2490.33
857.59	2805.72
857.76	2637.78
857.93	2588.63
858.10	2662.36
858.27	2562.01
858.43	2750.42
858.60	2578.39
858.77	2418.65
858.94	2621.40
859.11	2766.81
859.27	2578.39
859.44	2562.01
859.61	2981.84
859.78	2766.81
859.95	2637.78
860.12	2494.43
860.28	3030.99
860.45	2942.93
860.62	2521.05
860.79	2641.88
860.95	2662.36
861.12	2566.10
861.29	2465.75
861.46	2596.82
861.63	2703.32
861.79	2768.85
861.96	2467.80
862.13	2500.57
862.30	2899.92
862.47	2660.31
862.63	2478.04
862.80	2609.11
862.97	2883.54
863.14	2682.84
863.30	2596.82
863.47	2574.30
863.64	2912.21
863.81	2666.46
863.97	2453.47
864.14	2551.77
864.31	2596.82
864.48	2693.08
864.65	2586.58
864.81	2678.74
864.98	2858.96
865.15	2811.86
865.32	2635.74
865.48	2566.10
865.65	2990.03
865.82	2621.40
865.98	2572.25
866.15	2639.83
866.32	2670.55
866.49	2617.30
866.65	2744.28
866.82	2432.99
866.99	2686.94
867.16	2617.30
867.32	2541.53
867.49	2480.09
867.66	2631.64
867.83	2629.59
867.99	2455.51
868.16	2631.64
868.33	2617.30
868.49	2725.85
868.66	2535.39
868.83	2629.59
868.99	2717.65
869.16	2717.65
869.33	2736.09
869.50	2637.78
869.66	2754.52
869.83	2578.39
870.00	2457.56
870.16	2680.79
870.33	2664.41
870.50	2832.34
870.66	2652.12
870.83	2607.06
871.00	2805.72
871.17	2846.68
871.33	2600.92
871.50	2516.95
871.67	2731.99
871.83	2682.84
872.00	2629.59
872.17	2588.63
872.33	2957.27
872.50	2854.87
872.67	2570.20
872.83	2521.05
873.00	2742.23
873.17	2711.51
873.33	2652.12
873.50	2705.37
873.67	2635.74
873.83	2672.60
874.00	2512.86
874.16	2635.74
874.33	2764.76
874.50	2494.43
874.66	2519.00
874.83	2629.59
875.00	2811.86
875.16	2789.33
875.33	2592.73
875.50	2355.16
875.66	2648.02
875.83	2686.94
875.99	2654.17
876.16	2617.30
876.33	2576.34
876.49	2688.98
876.66	2580.44
876.83	2562.01
876.99	2463.71
877.16	2721.75
877.32	2559.96
877.49	2539.48
877.66	2701.27
877.82	2930.64
877.99	2621.40
878.15	2672.60
878.32	2777.05
878.49	2775.00
878.65	2621.40
878.82	2828.24
878.98	2686.94
879.15	2801.62
879.32	2760.66
879.48	2664.41
879.65	2691.03
879.81	2680.79
879.98	2537.43
880.15	2588.63
880.31	2865.11
880.48	2580.44
880.64	2662.36
880.81	2686.94
880.97	2904.02
881.14	2906.07
881.31	2516.95
881.47	2818.00
881.64	2748.37
881.80	2408.41
881.97	2656.22
882.13	2658.26
882.30	2594.78
882.47	2623.45
882.63	2547.67
882.80	2482.14
882.96	2701.27
883.13	2885.59
883.29	2562.01
883.46	2592.73
883.62	3053.52
883.79	2713.56
883.95	2674.65
884.12	2539.48
884.29	2863.06
884.45	2717.65
884.62	2617.30
884.78	2496.47
884.95	2867.16
885.11	2672.60
885.28	2641.88
885.44	2547.67
885.61	2805.72
885.77	2938.84
885.94	2648.02
886.10	2609.11
886.27	2746.33
886.43	2977.75
886.60	2824.15
886.76	2533.34
886.93	2600.92
887.09	2729.94
887.26	2330.59
887.42	2586.58
887.59	2856.92
887.75	2990.03
887.92	2686.94
888.08	2623.45
888.25	2971.60
888.41	2787.29
888.58	2539.48
888.74	2650.07
888.91	2670.55
>>>>>End Processed Spectral Data<<<<<
