SpectraSuite Data File
++++++++++++++++++++++++++++++++++++
Date: Thu May 05 16:20:36 CEST 2016
User: root
Dark Spectrum Present: No
Reference Spectrum Present: No
Number of Sampled Component Spectra: 1
Spectrometers: USB4C02835
Integration Time (usec): 100000 (USB4C02835)
Spectra Averaged: 1 (USB4C02835)
Boxcar Smoothing: 0 (USB4C02835)
Correct for Electrical Dark: No (USB4C02835)
Strobe/Lamp Enabled: No (USB4C02835)
Correct for Detector Non-linearity: No (USB4C02835)
Correct for Stray Light: No (USB4C02835)
Number of Pixels in Processed Spectrum: 3648
>>>>>Begin Processed Spectral Data<<<<<
177.47	1955.81
177.69	1955.81
177.91	1955.81
178.13	2007.01
178.36	2023.39
178.58	2504.67
178.80	2686.94
179.02	2543.58
179.24	2566.10
179.46	2504.67
179.68	2547.67
179.90	2727.89
180.13	2680.79
180.35	2430.94
180.57	2555.86
180.79	2785.24
181.01	2797.53
181.23	2478.04
181.45	2582.49
181.67	2856.92
181.90	2824.15
182.12	2619.35
182.34	2308.06
182.56	2793.43
182.78	2785.24
183.00	2463.71
183.22	2478.04
183.44	2566.10
183.66	3100.62
183.89	2684.89
184.11	2576.34
184.33	2838.48
184.55	2832.34
184.77	2519.00
184.99	2580.44
185.21	2652.12
185.43	3006.42
185.65	2514.91
185.87	2449.37
186.10	2940.88
186.32	3028.95
186.54	2621.40
186.76	2596.82
186.98	2887.64
187.20	2721.75
187.42	2596.82
187.64	2506.71
187.86	2791.38
188.08	2840.53
188.30	2394.08
188.52	2580.44
188.75	2947.03
188.97	2899.92
189.19	2457.56
189.41	2570.20
189.63	2799.57
189.85	2693.08
190.07	2367.45
190.29	2365.40
190.51	2766.81
190.73	2543.58
190.95	2682.84
191.17	2533.34
191.39	2521.05
191.61	2648.02
191.84	2566.10
192.06	2693.08
192.28	2523.10
192.50	3147.73
192.72	2664.41
192.94	2631.64
193.16	2899.92
193.38	2791.38
193.60	2486.23
193.82	2539.48
194.04	2924.50
194.26	2770.90
194.48	2459.61
194.70	2486.23
194.92	2707.41
195.14	2861.01
195.36	2510.81
195.58	2615.26
195.80	2686.94
196.02	2637.78
196.24	2455.51
196.46	2527.19
196.69	2674.65
196.91	3098.58
197.13	2600.92
197.35	2586.58
197.57	2932.69
197.79	2805.72
198.01	2641.88
198.23	2525.15
198.45	2834.39
198.67	2615.26
198.89	2408.41
199.11	2607.06
199.33	2605.02
199.55	2404.32
199.77	2480.09
199.99	2609.11
200.21	2686.94
200.43	2721.75
200.65	2457.56
200.87	2387.93
201.09	2750.42
201.31	2660.31
201.53	2541.53
201.75	2584.54
201.97	2781.14
202.19	2803.67
202.41	2551.77
202.63	2637.78
202.85	2797.53
203.07	2711.51
203.29	2555.86
203.51	2478.04
203.73	2623.45
203.95	3096.53
204.17	2494.43
204.39	2588.63
204.61	2662.36
204.83	2705.37
205.05	2746.33
205.27	2543.58
205.49	2961.36
205.71	2721.75
205.93	2383.84
206.15	2494.43
206.37	2754.52
206.59	2723.80
206.81	2400.22
207.03	2392.03
207.25	2605.02
207.47	2797.53
207.69	2521.05
207.91	2697.17
208.13	2840.53
208.34	2557.91
208.56	2490.33
208.78	2519.00
209.00	2654.17
209.22	2645.98
209.44	2537.43
209.66	2529.24
209.88	2701.27
210.10	2805.72
210.32	2467.80
210.54	2596.82
210.76	2756.57
210.98	2895.83
211.20	2283.49
211.42	2582.49
211.64	2912.21
211.86	2783.19
212.08	2545.63
212.30	2531.29
212.52	2666.46
212.74	2723.80
212.96	2633.69
213.17	2549.72
213.39	2824.15
213.61	2944.98
213.83	2508.76
214.05	2346.97
214.27	2899.92
214.49	2600.92
214.71	2475.99
214.93	2594.78
215.15	2750.42
215.37	2895.83
215.59	2387.93
215.81	2545.63
216.03	2895.83
216.24	2736.09
216.46	2521.05
216.68	2574.30
216.90	2899.92
217.12	2832.34
217.34	2510.81
217.56	2652.12
217.78	2963.41
218.00	2738.13
218.22	2586.58
218.44	2570.20
218.66	2791.38
218.87	3057.62
219.09	2543.58
219.31	2475.99
219.53	2748.37
219.75	2652.12
219.97	2543.58
220.19	2574.30
220.41	2738.13
220.63	3008.47
220.85	2437.08
221.06	2527.19
221.28	2850.77
221.50	2861.01
221.72	2525.15
221.94	2478.04
222.16	2822.10
222.38	2897.88
222.60	2529.24
222.82	2631.64
223.03	2914.26
223.25	2588.63
223.47	2586.58
223.69	2703.32
223.91	2838.48
224.13	2750.42
224.35	2473.95
224.57	2676.70
224.78	2764.76
225.00	2580.44
225.22	2531.29
225.44	2445.27
225.66	2908.12
225.88	2629.59
226.10	2629.59
226.32	2420.70
226.53	2938.84
226.75	2650.07
226.97	2551.77
227.19	2576.34
227.41	2621.40
227.63	2693.08
227.85	2361.31
228.06	2531.29
228.28	2777.05
228.50	2934.74
228.72	2359.26
228.94	2525.15
229.16	2498.52
229.37	2549.72
229.59	2437.08
229.81	2699.22
230.03	2621.40
230.25	2576.34
230.47	2334.68
230.69	2422.75
230.90	2834.39
231.12	2660.31
231.34	2488.28
231.56	2664.41
231.78	2668.50
232.00	2705.37
232.21	2541.53
232.43	2584.54
232.65	2490.33
232.87	2779.09
233.09	2437.08
233.30	2441.18
233.52	2887.64
233.74	2701.27
233.96	2512.86
234.18	2598.87
234.40	2688.98
234.61	3033.04
234.83	2447.32
235.05	2467.80
235.27	3108.82
235.49	2879.44
235.70	2484.19
235.92	2539.48
236.14	2777.05
236.36	3090.38
236.58	2420.70
236.79	2531.29
237.01	2703.32
237.23	2701.27
237.45	2707.41
237.67	2506.71
237.88	2713.56
238.10	3041.23
238.32	2389.98
238.54	2516.95
238.76	2699.22
238.97	2623.45
239.19	2445.27
239.41	2633.69
239.63	2871.25
239.85	2662.36
240.06	2531.29
240.28	2521.05
240.50	2869.20
240.72	2709.46
240.93	2410.46
241.15	2637.78
241.37	2787.29
241.59	2924.50
241.81	2494.43
242.02	2539.48
242.24	2762.71
242.46	2840.53
242.68	2328.54
242.89	2455.51
243.11	2928.60
243.33	2680.79
243.55	2539.48
243.76	2529.24
243.98	2574.30
244.20	2682.84
244.42	2447.32
244.64	2504.67
244.85	2527.19
245.07	2551.77
245.29	2572.25
245.51	2453.47
245.72	2727.89
245.94	2830.29
246.16	2496.47
246.38	2535.39
246.59	2572.25
246.81	2559.96
247.03	2430.94
247.24	2375.64
247.46	2684.89
247.68	2717.65
247.90	2414.56
248.11	2506.71
248.33	2865.11
248.55	2693.08
248.77	2506.71
248.98	2631.64
249.20	2908.12
249.42	2684.89
249.64	2596.82
249.85	2488.28
250.07	2652.12
250.29	2873.30
250.50	2576.34
250.72	2473.95
250.94	2676.70
251.16	3051.47
251.37	2523.10
251.59	2611.16
251.81	2777.05
252.02	2947.03
252.24	2465.75
252.46	2605.02
252.68	2584.54
252.89	2600.92
253.11	2324.44
253.33	2637.78
253.54	2910.16
253.76	2498.52
253.98	2465.75
254.20	2496.47
254.41	2592.73
254.63	2684.89
254.85	2357.21
255.06	2605.02
255.28	2746.33
255.50	2656.22
255.71	2500.57
255.93	2428.89
256.15	2715.61
256.36	2852.82
256.58	2389.98
256.80	2480.09
257.02	2678.74
257.23	2602.97
257.45	2559.96
257.67	2588.63
257.88	2609.11
258.10	2791.38
258.32	2543.58
258.53	2625.50
258.75	2981.84
258.97	2609.11
259.18	2426.84
259.40	2525.15
259.62	2965.46
259.83	2944.98
260.05	2463.71
260.27	3117.01
260.48	2863.06
260.70	2543.58
260.92	2387.93
261.13	2568.15
261.35	2736.09
261.57	2811.86
261.78	2383.84
262.00	2418.65
262.22	2797.53
262.43	2613.21
262.65	2617.30
262.86	2490.33
263.08	3035.09
263.30	2756.57
263.51	2340.83
263.73	2521.05
263.95	2990.03
264.16	2623.45
264.38	2424.80
264.60	2432.99
264.81	2664.41
265.03	2883.54
265.25	2854.87
265.46	2510.81
265.68	2873.30
265.89	2807.77
266.11	2375.64
266.33	2490.33
266.54	2904.02
266.76	2828.24
266.98	2615.26
267.19	2693.08
267.41	2834.39
267.62	2670.55
267.84	2310.11
268.06	2701.27
268.27	2760.66
268.49	2891.73
268.70	2617.30
268.92	2488.28
269.14	2523.10
269.35	2557.91
269.57	2547.67
269.79	2568.15
270.00	2570.20
270.22	2850.77
270.43	2443.23
270.65	2357.21
270.87	2723.80
271.08	2801.62
271.30	2592.73
271.51	2592.73
271.73	2772.95
271.95	2934.74
272.16	2455.51
272.38	2660.31
272.59	2645.98
272.81	2834.39
273.02	2457.56
273.24	2547.67
273.46	2967.51
273.67	2584.54
273.89	2367.45
274.10	2545.63
274.32	2920.40
274.54	2723.80
274.75	2627.54
274.97	2502.62
275.18	2781.14
275.40	2803.67
275.61	2510.81
275.83	2648.02
276.05	2662.36
276.26	2637.78
276.48	2613.21
276.69	2594.78
276.91	2641.88
277.12	2947.03
277.34	2670.55
277.55	2731.99
277.77	2840.53
277.99	2652.12
278.20	2584.54
278.42	2547.67
278.63	2562.01
278.85	2625.50
279.06	2547.67
279.28	2643.93
279.49	2791.38
279.71	2813.91
279.93	2641.88
280.14	2629.59
280.36	2564.06
280.57	2803.67
280.79	2772.95
281.00	2527.19
281.22	2611.16
281.43	2891.73
281.65	2387.93
281.86	2553.82
282.08	2736.09
282.29	3063.76
282.51	2455.51
282.73	2478.04
282.94	2471.90
283.16	2758.61
283.37	2742.23
283.59	2615.26
283.80	2738.13
284.02	2799.57
284.23	2588.63
284.45	2617.30
284.66	2615.26
284.88	2594.78
285.09	2564.06
285.31	2678.74
285.52	2824.15
285.74	2525.15
285.95	2711.51
286.17	2621.40
286.38	2904.02
286.60	2736.09
286.81	2512.86
287.03	2605.02
287.24	2686.94
287.46	2719.70
287.67	2609.11
287.89	2805.72
288.10	2750.42
288.32	2746.33
288.53	2809.81
288.75	2643.93
288.96	2861.01
289.18	2637.78
289.39	2484.19
289.61	2652.12
289.82	3102.67
290.04	2955.22
290.25	2498.52
290.47	2703.32
290.68	2731.99
290.90	2818.00
291.11	2398.17
291.33	2654.17
291.54	2562.01
291.76	2658.26
291.97	2711.51
292.18	2654.17
292.40	2711.51
292.61	2570.20
292.83	2842.58
293.04	2717.65
293.26	2697.17
293.47	2617.30
293.69	2490.33
293.90	2492.38
294.12	2848.72
294.33	2641.88
294.55	2674.65
294.76	2770.90
294.97	2940.88
295.19	3010.51
295.40	2605.02
295.62	2674.65
295.83	2842.58
296.05	2668.50
296.26	2781.14
296.48	2580.44
296.69	2652.12
296.90	2641.88
297.12	2748.37
297.33	2779.09
297.55	2815.96
297.76	2875.35
297.98	2666.46
298.19	2650.07
298.41	2734.04
298.62	2590.68
298.83	2699.22
299.05	2643.93
299.26	2676.70
299.48	2596.82
299.69	2701.27
299.90	2613.21
300.12	2545.63
300.33	2824.15
300.55	2637.78
300.76	2688.98
300.98	2553.82
301.19	2758.61
301.40	2551.77
301.62	2572.25
301.83	2764.76
302.05	2783.19
302.26	2594.78
302.47	2703.32
302.69	2568.15
302.90	2764.76
303.12	2381.79
303.33	2684.89
303.54	3063.76
303.76	2613.21
303.97	2678.74
304.19	2750.42
304.40	2572.25
304.61	2813.91
304.83	2740.18
305.04	2723.80
305.26	2801.62
305.47	2605.02
305.68	2695.13
305.90	2527.19
306.11	2901.97
306.33	2672.60
306.54	2514.91
306.75	2580.44
306.97	2537.43
307.18	2592.73
307.39	2613.21
307.61	2688.98
307.82	2652.12
308.04	2828.24
308.25	2545.63
308.46	2701.27
308.68	2697.17
308.89	2734.04
309.10	2699.22
309.32	2607.06
309.53	2766.81
309.74	2768.85
309.96	2629.59
310.17	2746.33
310.39	2656.22
310.60	2811.86
310.81	2635.74
311.03	2492.38
311.24	2854.87
311.45	2822.10
311.67	2809.81
311.88	2676.70
312.09	2678.74
312.31	2602.97
312.52	2598.87
312.73	2539.48
312.95	2568.15
313.16	2600.92
313.37	2736.09
313.59	2711.51
313.80	2863.06
314.01	2973.65
314.23	2645.98
314.44	2504.67
314.65	2545.63
314.87	2555.86
315.08	2564.06
315.29	2557.91
315.51	2592.73
315.72	2445.27
315.93	2738.13
316.15	2672.60
316.36	2629.59
316.57	2686.94
316.79	2719.70
317.00	2559.96
317.21	2797.53
317.43	2576.34
317.64	2633.69
317.85	2484.19
318.07	2600.92
318.28	2756.57
318.49	2648.02
318.70	2813.91
318.92	2785.24
319.13	2838.48
319.34	2795.48
319.56	2654.17
319.77	2906.07
319.98	2863.06
320.20	2815.96
320.41	2754.52
320.62	2791.38
320.83	2572.25
321.05	2818.00
321.26	2703.32
321.47	2684.89
321.69	2914.26
321.90	2498.52
322.11	2572.25
322.32	2834.39
322.54	2955.22
322.75	2506.71
322.96	3258.32
323.18	2514.91
323.39	2435.03
323.60	2486.23
323.81	2641.88
324.03	2639.83
324.24	2818.00
324.45	2652.12
324.66	2605.02
324.88	2856.92
325.09	2957.27
325.30	2662.36
325.52	2553.82
325.73	2836.44
325.94	2541.53
326.15	2457.56
326.37	2498.52
326.58	2869.20
326.79	2883.54
327.00	2473.95
327.22	2600.92
327.43	2641.88
327.64	2570.20
327.85	2674.65
328.07	2662.36
328.28	2994.13
328.49	2713.56
328.70	2619.35
328.92	2609.11
329.13	2711.51
329.34	2789.33
329.55	2775.00
329.76	2727.89
329.98	2670.55
330.19	2947.03
330.40	2721.75
330.61	2713.56
330.83	2875.35
331.04	2625.50
331.25	2695.13
331.46	2631.64
331.68	2543.58
331.89	2912.21
332.10	2680.79
332.31	2502.62
332.52	2752.47
332.74	2811.86
332.95	2478.04
333.16	2613.21
333.37	2858.96
333.58	2643.93
333.80	2631.64
334.01	2445.27
334.22	2729.94
334.43	2568.15
334.64	2580.44
334.86	2535.39
335.07	2619.35
335.28	3002.32
335.49	2498.52
335.70	2705.37
335.92	2858.96
336.13	3037.14
336.34	2711.51
336.55	2629.59
336.76	2746.33
336.98	2478.04
337.19	2572.25
337.40	2752.47
337.61	3151.82
337.82	2654.17
338.04	2727.89
338.25	2490.33
338.46	2695.13
338.67	2684.89
338.88	2586.58
339.09	2596.82
339.31	2684.89
339.52	2574.30
339.73	2498.52
339.94	2613.21
340.15	2838.48
340.36	2633.69
340.58	2674.65
340.79	2527.19
341.00	2875.35
341.21	2570.20
341.42	2820.05
341.63	2531.29
341.85	2815.96
342.06	2766.81
342.27	2570.20
342.48	2762.71
342.69	2537.43
342.90	2746.33
343.12	2809.81
343.33	2584.54
343.54	2852.82
343.75	2875.35
343.96	2670.55
344.17	2568.15
344.38	2688.98
344.60	2633.69
344.81	2533.34
345.02	2559.96
345.23	2848.72
345.44	3076.05
345.65	2652.12
345.86	2680.79
346.07	2760.66
346.29	2639.83
346.50	2688.98
346.71	2621.40
346.92	2891.73
347.13	3110.86
347.34	2633.69
347.55	2551.77
347.76	2811.86
347.98	2498.52
348.19	2623.45
348.40	2760.66
348.61	2654.17
348.82	2969.55
349.03	2660.31
349.24	2541.53
349.45	2967.51
349.66	2480.09
349.88	2555.86
350.09	2576.34
350.30	2947.03
350.51	2852.82
350.72	2678.74
350.93	2691.03
351.14	2637.78
351.35	2818.00
351.56	2605.02
351.77	2629.59
351.99	2858.96
352.20	2983.89
352.41	2736.09
352.62	2453.47
352.83	2705.37
353.04	2709.46
353.25	2654.17
353.46	2717.65
353.67	2834.39
353.88	2428.89
354.09	2596.82
354.30	2693.08
354.52	2930.64
354.73	2670.55
354.94	2521.05
355.15	2643.93
355.36	3016.66
355.57	2600.92
355.78	2592.73
355.99	2449.37
356.20	2662.36
356.41	2920.40
356.62	2699.22
356.83	2658.26
357.04	2906.07
357.25	2508.76
357.46	2615.26
357.68	2492.38
357.89	2555.86
358.10	2652.12
358.31	2566.10
358.52	2559.96
358.73	2514.91
358.94	2504.67
359.15	2609.11
359.36	2695.13
359.57	2717.65
359.78	2721.75
359.99	2727.89
360.20	2521.05
360.41	2645.98
360.62	2744.28
360.83	2652.12
361.04	2611.16
361.25	2801.62
361.46	2951.12
361.67	2731.99
361.88	2660.31
362.09	2781.14
362.30	2742.23
362.51	2527.19
362.72	2613.21
362.93	2867.16
363.14	2768.85
363.35	2707.41
363.56	2564.06
363.78	2863.06
363.99	2959.31
364.20	2652.12
364.41	2648.02
364.62	3020.75
364.83	2779.09
365.04	2631.64
365.25	2613.21
365.46	3000.27
365.67	2605.02
365.88	2711.51
366.09	2570.20
366.30	2654.17
366.51	2764.76
366.72	2459.61
366.93	2549.72
367.14	2736.09
367.35	2947.03
367.56	2600.92
367.77	2719.70
367.98	2781.14
368.18	2795.48
368.39	2746.33
368.60	2584.54
368.81	2844.63
369.02	2795.48
369.23	2627.54
369.44	2443.23
369.65	2639.83
369.86	2772.95
370.07	2766.81
370.28	2545.63
370.49	2746.33
370.70	2822.10
370.91	2467.80
371.12	2465.75
371.33	2867.16
371.54	2633.69
371.75	2699.22
371.96	2432.99
372.17	2742.23
372.38	2619.35
372.59	2615.26
372.80	2588.63
373.01	2586.58
373.22	2676.70
373.43	2596.82
373.64	2445.27
373.85	2852.82
374.06	2836.44
374.26	2799.57
374.47	2725.85
374.68	2875.35
374.89	2738.13
375.10	2654.17
375.31	2731.99
375.52	2707.41
375.73	2736.09
375.94	2475.99
376.15	2734.04
376.36	2549.72
376.57	2629.59
376.78	2602.97
376.99	2670.55
377.20	2830.29
377.40	2678.74
377.61	2752.47
377.82	2525.15
378.03	2973.65
378.24	2815.96
378.45	2699.22
378.66	2633.69
378.87	2492.38
379.08	2482.14
379.29	2602.97
379.50	2736.09
379.71	2664.41
379.91	2867.16
380.12	2627.54
380.33	2666.46
380.54	2629.59
380.75	2584.54
380.96	2531.29
381.17	2674.65
381.38	2723.80
381.59	2727.89
381.80	2621.40
382.00	2861.01
382.21	2785.24
382.42	3037.14
382.63	2918.36
382.84	2729.94
383.05	2865.11
383.26	2971.60
383.47	2672.60
383.68	2650.07
383.88	2877.40
384.09	2750.42
384.30	2836.44
384.51	2707.41
384.72	2564.06
384.93	2590.68
385.14	2709.46
385.35	2805.72
385.55	2490.33
385.76	2865.11
385.97	2551.77
386.18	2494.43
386.39	2611.16
386.60	2623.45
386.81	2602.97
387.02	2525.15
387.22	2551.77
387.43	2809.81
387.64	2758.61
387.85	2842.58
388.06	2777.05
388.27	4104.13
388.48	7606.16
388.68	11274.07
388.89	13418.29
389.10	14284.58
389.31	14075.69
389.52	10813.28
389.73	9381.74
389.93	8593.28
390.14	7880.58
390.35	7120.79
390.56	6360.99
390.77	5244.85
390.98	4112.32
391.18	3528.65
391.39	3203.02
391.60	2756.57
391.81	2795.48
392.02	2633.69
392.23	3092.43
392.43	2707.41
392.64	2750.42
392.85	2699.22
393.06	2936.79
393.27	2762.71
393.47	2590.68
393.68	2674.65
393.89	2619.35
394.10	2867.16
394.31	2580.44
394.52	2594.78
394.72	2654.17
394.93	2908.12
395.14	2506.71
395.35	2693.08
395.56	2658.26
395.76	2680.79
395.97	2621.40
396.18	2727.89
396.39	2734.04
396.60	3239.89
396.80	2807.77
397.01	2844.63
397.22	2887.64
397.43	2899.92
397.64	2633.69
397.84	2715.61
398.05	3069.91
398.26	2717.65
398.47	2744.28
398.67	2740.18
398.88	2731.99
399.09	2858.96
399.30	2521.05
399.51	2666.46
399.71	2654.17
399.92	2703.32
400.13	2758.61
400.34	2551.77
400.54	2701.27
400.75	2973.65
400.96	2686.94
401.17	2883.54
401.37	2809.81
401.58	2658.26
401.79	2592.73
402.00	2699.22
402.21	3149.78
402.41	2836.44
402.62	2955.22
402.83	3041.23
403.04	3030.99
403.24	3297.23
403.45	2752.47
403.66	2990.03
403.87	2885.59
404.07	3000.27
404.28	2889.68
404.49	2840.53
404.70	2801.62
404.90	2842.58
405.11	2721.75
405.32	2707.41
405.52	2625.50
405.73	2541.53
405.94	2541.53
406.15	2705.37
406.35	2818.00
406.56	2838.48
406.77	2615.26
406.98	2664.41
407.18	2533.34
407.39	2990.03
407.60	2656.22
407.80	2766.81
408.01	2672.60
408.22	2811.86
408.43	2553.82
408.63	2729.94
408.84	2889.68
409.05	2793.43
409.25	2584.54
409.46	2639.83
409.67	2703.32
409.88	2654.17
410.08	2711.51
410.29	2648.02
410.50	2844.63
410.70	2828.24
410.91	2500.57
411.12	2721.75
411.32	2762.71
411.53	2547.67
411.74	2717.65
411.95	2701.27
412.15	2807.77
412.36	2867.16
412.57	2822.10
412.77	2809.81
412.98	2617.30
413.19	2531.29
413.39	2662.36
413.60	2643.93
413.81	2924.50
414.01	2613.21
414.22	2664.41
414.43	2727.89
414.63	2691.03
414.84	2779.09
415.05	2670.55
415.25	2439.13
415.46	2828.24
415.67	2688.98
415.87	2709.46
416.08	2609.11
416.29	2602.97
416.49	2754.52
416.70	2660.31
416.91	2611.16
417.11	2691.03
417.32	2914.26
417.53	2725.85
417.73	2676.70
417.94	2772.95
418.15	2777.05
418.35	2611.16
418.56	2742.23
418.77	3039.19
418.97	2703.32
419.18	2670.55
419.38	2355.16
419.59	2758.61
419.80	2908.12
420.00	2627.54
420.21	2715.61
420.42	2947.03
420.62	2770.90
420.83	2664.41
421.04	2594.78
421.24	2682.84
421.45	2799.57
421.65	2731.99
421.86	2541.53
422.07	2889.68
422.27	2744.28
422.48	2607.06
422.69	2506.71
422.89	2742.23
423.10	2625.50
423.30	2570.20
423.51	2707.41
423.72	2781.14
423.92	2838.48
424.13	2541.53
424.33	2562.01
424.54	2875.35
424.75	2711.51
424.95	2856.92
425.16	2609.11
425.36	2645.98
425.57	2842.58
425.78	2846.68
425.98	2695.13
426.19	2697.17
426.39	2592.73
426.60	2750.42
426.81	2770.90
427.01	2834.39
427.22	2598.87
427.42	2494.43
427.63	2537.43
427.83	2867.16
428.04	2944.98
428.25	2715.61
428.45	2803.67
428.66	2869.20
428.86	2723.80
429.07	2645.98
429.28	2656.22
429.48	2734.04
429.69	2600.92
429.89	2723.80
430.10	2527.19
430.30	2744.28
430.51	2858.96
430.71	2625.50
430.92	2686.94
431.13	2645.98
431.33	2785.24
431.54	2715.61
431.74	2797.53
431.95	3084.24
432.15	2645.98
432.36	2650.07
432.56	2725.85
432.77	2990.03
432.98	3012.56
433.18	2682.84
433.39	2541.53
433.59	2637.78
433.80	3049.43
434.00	2865.11
434.21	2670.55
434.41	2600.92
434.62	3071.95
434.82	2574.30
435.03	2600.92
435.23	2744.28
435.44	2473.95
435.64	2670.55
435.85	2750.42
436.06	2863.06
436.26	2856.92
436.47	2699.22
436.67	2643.93
436.88	2668.50
437.08	2879.44
437.29	2779.09
437.49	2707.41
437.70	2840.53
437.90	2658.26
438.11	2832.34
438.31	2744.28
438.52	2906.07
438.72	2912.21
438.93	3033.04
439.13	2645.98
439.34	2951.12
439.54	2703.32
439.75	2754.52
439.95	2775.00
440.16	2621.40
440.36	2742.23
440.57	2678.74
440.77	2662.36
440.98	2789.33
441.18	2871.25
441.39	2580.44
441.59	2553.82
441.80	3092.43
442.00	2762.71
442.21	2695.13
442.41	2465.75
442.62	2924.50
442.82	2549.72
443.02	2619.35
443.23	2668.50
443.43	2680.79
443.64	2910.16
443.84	2574.30
444.05	2789.33
444.25	2744.28
444.46	2725.85
444.66	2629.59
444.87	2850.77
445.07	2502.62
445.28	2686.94
445.48	2781.14
445.69	2652.12
445.89	3092.43
446.09	2629.59
446.30	2998.23
446.50	3104.72
446.71	4528.06
446.91	5627.82
447.12	6373.28
447.32	6760.34
447.53	6551.45
447.73	5490.60
447.93	4847.54
448.14	4573.11
448.34	4515.77
448.55	3848.13
448.75	3850.18
448.96	3669.96
449.16	3334.09
449.36	3229.65
449.57	2822.10
449.77	2736.09
449.98	2654.17
450.18	2865.11
450.39	2686.94
450.59	2828.24
450.79	2744.28
451.00	2682.84
451.20	2801.62
451.41	2576.34
451.61	2836.44
451.81	2617.30
452.02	2602.97
452.22	2656.22
452.43	2660.31
452.63	2574.30
452.84	2707.41
453.04	2643.93
453.24	2686.94
453.45	2568.15
453.65	2711.51
453.86	2701.27
454.06	2727.89
454.26	2682.84
454.47	2600.92
454.67	2826.20
454.87	2854.87
455.08	2641.88
455.28	2877.40
455.49	2777.05
455.69	2627.54
455.89	2985.94
456.10	2787.29
456.30	2641.88
456.51	2811.86
456.71	2803.67
456.91	2742.23
457.12	2779.09
457.32	2836.44
457.52	2555.86
457.73	2742.23
457.93	2715.61
458.14	2666.46
458.34	2502.62
458.54	2672.60
458.75	2678.74
458.95	2977.75
459.15	2797.53
459.36	2709.46
459.56	2693.08
459.76	2981.84
459.97	2736.09
460.17	2617.30
460.37	2711.51
460.58	2750.42
460.78	2764.76
460.99	2596.82
461.19	2680.79
461.39	2590.68
461.60	2738.13
461.80	2727.89
462.00	2545.63
462.21	2658.26
462.41	2641.88
462.61	2529.24
462.82	2461.66
463.02	2848.72
463.22	2744.28
463.43	2752.47
463.63	2635.74
463.83	2949.08
464.04	2838.48
464.24	2721.75
464.44	2559.96
464.64	2775.00
464.85	2748.37
465.05	2752.47
465.25	2660.31
465.46	2672.60
465.66	2858.96
465.86	2742.23
466.07	2658.26
466.27	2752.47
466.47	2498.52
466.68	2455.51
466.88	2834.39
467.08	2858.96
467.29	2891.73
467.49	2688.98
467.69	2688.98
467.89	2750.42
468.10	2781.14
468.30	2678.74
468.50	2807.77
468.71	2916.31
468.91	2643.93
469.11	2858.96
469.31	2656.22
469.52	2668.50
469.72	2920.40
469.92	2961.36
470.13	2650.07
470.33	2721.75
470.53	2742.23
470.73	3016.66
470.94	3327.95
471.14	3422.16
471.34	3858.37
471.54	3704.78
471.75	3373.00
471.95	3203.02
472.15	3074.00
472.36	3153.87
472.56	3053.52
472.76	3207.12
472.96	3147.73
473.17	2858.96
473.37	2850.77
473.57	2660.31
473.77	2828.24
473.98	2680.79
474.18	2543.58
474.38	3176.40
474.58	2656.22
474.79	2607.06
474.99	2815.96
475.19	2838.48
475.39	2557.91
475.60	2701.27
475.80	2662.36
476.00	2731.99
476.20	2688.98
476.41	2699.22
476.61	2799.57
476.81	2928.60
477.01	2590.68
477.21	2838.48
477.42	2813.91
477.62	2607.06
477.82	2875.35
478.02	2633.69
478.23	2822.10
478.43	2650.07
478.63	2752.47
478.83	2621.40
479.03	2660.31
479.24	2949.08
479.44	2959.31
479.64	2645.98
479.84	2414.56
480.04	2617.30
480.25	2863.06
480.45	2555.86
480.65	2645.98
480.85	2951.12
481.06	2744.28
481.26	2746.33
481.46	2693.08
481.66	2881.49
481.86	2656.22
482.06	2775.00
482.27	2701.27
482.47	2654.17
482.67	2846.68
482.87	2625.50
483.07	2793.43
483.28	2662.36
483.48	2607.06
483.68	2682.84
483.88	2508.76
484.08	2398.17
484.29	2607.06
484.49	2688.98
484.69	2555.86
484.89	2940.88
485.09	2856.92
485.29	2699.22
485.50	2705.37
485.70	2666.46
485.90	2904.02
486.10	2779.09
486.30	2686.94
486.50	2920.40
486.71	2721.75
486.91	2705.37
487.11	2789.33
487.31	2590.68
487.51	2760.66
487.71	2539.48
487.91	2596.82
488.12	2578.39
488.32	2430.94
488.52	2605.02
488.72	2408.41
488.92	2797.53
489.12	2934.74
489.32	2811.86
489.53	2637.78
489.73	2488.28
489.93	3014.61
490.13	2625.50
490.33	2521.05
490.53	2787.29
490.73	2959.31
490.94	2541.53
491.14	2752.47
491.34	2744.28
491.54	2899.92
491.74	3567.56
491.94	4071.36
492.14	4487.10
492.34	4462.52
492.54	4179.90
492.75	3547.08
492.95	3575.75
493.15	3280.85
493.35	3252.17
493.55	3264.46
493.75	3063.76
493.95	3248.08
494.15	2899.92
494.35	2670.55
494.56	2793.43
494.76	2707.41
494.96	2725.85
495.16	2621.40
495.36	2801.62
495.56	2746.33
495.76	2658.26
495.96	2613.21
496.16	2621.40
496.36	2942.93
496.56	2643.93
496.77	2719.70
496.97	2752.47
497.17	2875.35
497.37	2568.15
497.57	2783.19
497.77	2648.02
497.97	2547.67
498.17	2652.12
498.37	2623.45
498.57	2793.43
498.77	2686.94
498.97	2713.56
499.17	2942.93
499.38	2734.04
499.58	2852.82
499.78	2809.81
499.98	2811.86
500.18	2693.08
500.38	2564.06
500.58	2834.39
500.78	3215.31
500.98	5353.39
501.18	7251.86
501.38	8705.92
501.58	9555.82
501.78	9377.65
501.98	7565.20
502.18	6565.79
502.38	5670.83
502.58	5474.22
502.78	4816.82
502.98	4681.66
503.18	4415.42
503.38	4161.47
503.59	3618.76
503.79	3588.04
503.99	3235.79
504.19	3133.39
504.39	3180.50
504.59	3131.34
504.79	3065.81
504.99	3198.93
505.19	2916.31
505.39	2820.05
505.59	3008.47
505.79	3045.33
505.99	2885.59
506.19	2645.98
506.39	2856.92
506.59	2770.90
506.79	2633.69
506.99	2824.15
507.19	2697.17
507.39	2664.41
507.59	2562.01
507.79	2629.59
507.99	2572.25
508.19	2621.40
508.39	2635.74
508.59	2680.79
508.79	2803.67
508.99	2983.89
509.19	2701.27
509.39	2715.61
509.59	2611.16
509.79	2699.22
509.99	2719.70
510.19	2856.92
510.39	2758.61
510.59	2777.05
510.79	2654.17
510.99	2594.78
511.19	2711.51
511.39	2846.68
511.59	2871.25
511.79	2785.24
511.99	2711.51
512.19	3014.61
512.38	2736.09
512.58	2676.70
512.78	2582.49
512.98	2914.26
513.18	2879.44
513.38	2535.39
513.58	2775.00
513.78	2684.89
513.98	2705.37
514.18	2641.88
514.38	2568.15
514.58	2777.05
514.78	2566.10
514.98	2473.95
515.18	2676.70
515.38	2592.73
515.58	2998.23
515.78	2605.02
515.98	2586.58
516.18	2852.82
516.38	2738.13
516.57	2615.26
516.77	2637.78
516.97	2918.36
517.17	2555.86
517.37	2521.05
517.57	2783.19
517.77	2789.33
517.97	2645.98
518.17	2799.57
518.37	2455.51
518.57	2627.54
518.77	2686.94
518.97	2617.30
519.16	2711.51
519.36	2891.73
519.56	2670.55
519.76	2621.40
519.96	2641.88
520.16	2887.64
520.36	2566.10
520.56	2889.68
520.76	2555.86
520.96	2691.03
521.16	2961.36
521.35	2830.29
521.55	2844.63
521.75	2686.94
521.95	2645.98
522.15	2582.49
522.35	2533.34
522.55	2686.94
522.75	2760.66
522.95	2596.82
523.14	2502.62
523.34	2818.00
523.54	2678.74
523.74	2680.79
523.94	2701.27
524.14	2582.49
524.34	2824.15
524.54	2850.77
524.73	2596.82
524.93	2889.68
525.13	2695.13
525.33	2559.96
525.53	2885.59
525.73	2832.34
525.93	2725.85
526.13	2600.92
526.32	2617.30
526.52	2893.78
526.72	2918.36
526.92	2564.06
527.12	2559.96
527.32	2572.25
527.52	2797.53
527.71	2664.41
527.91	2615.26
528.11	2652.12
528.31	2686.94
528.51	2492.38
528.71	2775.00
528.90	2756.57
529.10	2885.59
529.30	2811.86
529.50	2455.51
529.70	2811.86
529.90	2715.61
530.09	2695.13
530.29	2566.10
530.49	2645.98
530.69	3205.07
530.89	2723.80
531.09	2807.77
531.28	2678.74
531.48	2869.20
531.68	2725.85
531.88	2684.89
532.08	2891.73
532.28	2650.07
532.47	2740.18
532.67	2789.33
532.87	2775.00
533.07	2662.36
533.27	2723.80
533.46	2654.17
533.66	2809.81
533.86	2693.08
534.06	2725.85
534.26	2623.45
534.45	2772.95
534.65	2852.82
534.85	2717.65
535.05	2543.58
535.25	2793.43
535.44	2482.14
535.64	2799.57
535.84	2629.59
536.04	2691.03
536.24	2615.26
536.43	2699.22
536.63	2641.88
536.83	2736.09
537.03	2754.52
537.22	2523.10
537.42	2480.09
537.62	2770.90
537.82	2631.64
538.02	2799.57
538.21	2793.43
538.41	3221.45
538.61	2813.91
538.81	2723.80
539.00	2801.62
539.20	2543.58
539.40	2709.46
539.60	2668.50
539.79	2793.43
539.99	2611.16
540.19	2584.54
540.39	2672.60
540.58	2625.50
540.78	2889.68
540.98	2740.18
541.18	2807.77
541.37	2734.04
541.57	2703.32
541.77	2742.23
541.97	2578.39
542.16	2543.58
542.36	2584.54
542.56	2557.91
542.76	2904.02
542.95	2815.96
543.15	2768.85
543.35	2842.58
543.54	2574.30
543.74	2557.91
543.94	2942.93
544.14	2656.22
544.33	2787.29
544.53	2707.41
544.73	2764.76
544.93	2652.12
545.12	2643.93
545.32	2674.65
545.52	2682.84
545.71	2486.23
545.91	2531.29
546.11	2615.26
546.30	2564.06
546.50	2723.80
546.70	2691.03
546.90	2662.36
547.09	2418.65
547.29	2682.84
547.49	2762.71
547.68	2645.98
547.88	2619.35
548.08	2805.72
548.27	3010.51
548.47	2619.35
548.67	2658.26
548.87	2822.10
549.06	2564.06
549.26	2576.34
549.46	2752.47
549.65	2662.36
549.85	2740.18
550.05	2731.99
550.24	2596.82
550.44	2668.50
550.64	2652.12
550.83	2695.13
551.03	2961.36
551.23	2869.20
551.42	2785.24
551.62	2682.84
551.82	2713.56
552.01	2662.36
552.21	2846.68
552.41	2639.83
552.60	2891.73
552.80	2684.89
553.00	2625.50
553.19	2584.54
553.39	2965.46
553.59	2674.65
553.78	2748.37
553.98	2693.08
554.17	2537.43
554.37	2736.09
554.57	2664.41
554.76	2529.24
554.96	2598.87
555.16	2734.04
555.35	2723.80
555.55	2740.18
555.75	2772.95
555.94	2848.72
556.14	2478.04
556.33	2711.51
556.53	2637.78
556.73	2719.70
556.92	2729.94
557.12	2701.27
557.32	2992.08
557.51	2889.68
557.71	2670.55
557.90	2850.77
558.10	2910.16
558.30	2697.17
558.49	2629.59
558.69	2621.40
558.88	2746.33
559.08	2777.05
559.28	2613.21
559.47	2731.99
559.67	2883.54
559.86	2983.89
560.06	2682.84
560.26	2674.65
560.45	2742.23
560.65	2645.98
560.84	2854.87
561.04	2617.30
561.24	2770.90
561.43	2598.87
561.63	2863.06
561.82	2742.23
562.02	2815.96
562.22	2625.50
562.41	2588.63
562.61	2586.58
562.80	2564.06
563.00	3137.49
563.19	2705.37
563.39	2805.72
563.59	2875.35
563.78	2523.10
563.98	2404.32
564.17	2637.78
564.37	2465.75
564.56	2639.83
564.76	2574.30
564.96	2754.52
565.15	2781.14
565.35	3063.76
565.54	2656.22
565.74	2691.03
565.93	2750.42
566.13	2772.95
566.32	2627.54
566.52	2721.75
566.71	2637.78
566.91	2912.21
567.11	2731.99
567.30	2602.97
567.50	2783.19
567.69	2719.70
567.89	2662.36
568.08	2539.48
568.28	2674.65
568.47	2570.20
568.67	2727.89
568.86	2633.69
569.06	2826.20
569.25	2717.65
569.45	2572.25
569.64	2533.34
569.84	2596.82
570.04	2758.61
570.23	2609.11
570.43	2590.68
570.62	2766.81
570.82	2904.02
571.01	2547.67
571.21	2633.69
571.40	2588.63
571.60	2736.09
571.79	2775.00
571.99	2691.03
572.18	2586.58
572.38	2844.63
572.57	2727.89
572.77	2725.85
572.96	3145.68
573.16	2770.90
573.35	2699.22
573.55	2899.92
573.74	2840.53
573.94	2783.19
574.13	2631.64
574.33	2904.02
574.52	2889.68
574.71	2725.85
574.91	2695.13
575.10	2502.62
575.30	2654.17
575.49	2635.74
575.69	2594.78
575.88	2662.36
576.08	2713.56
576.27	2891.73
576.47	2727.89
576.66	2869.20
576.86	2901.97
577.05	2801.62
577.25	2762.71
577.44	2858.96
577.64	2752.47
577.83	2856.92
578.02	2650.07
578.22	2805.72
578.41	2973.65
578.61	2701.27
578.80	2615.26
579.00	2756.57
579.19	2627.54
579.39	2795.48
579.58	2738.13
579.77	2650.07
579.97	2912.21
580.16	2863.06
580.36	2734.04
580.55	2803.67
580.75	2815.96
580.94	2750.42
581.13	2908.12
581.33	2936.79
581.52	2719.70
581.72	2971.60
581.91	2783.19
582.11	2680.79
582.30	2818.00
582.49	2768.85
582.69	2897.88
582.88	2707.41
583.08	2824.15
583.27	2904.02
583.47	2779.09
583.66	2557.91
583.85	2654.17
584.05	2717.65
584.24	2783.19
584.44	2731.99
584.63	2932.69
584.82	3018.71
585.02	2809.81
585.21	2873.30
585.41	2830.29
585.60	2758.61
585.79	2947.03
585.99	2975.70
586.18	2801.62
586.37	3604.42
586.57	5527.47
586.76	16021.26
586.96	35071.46
587.15	48555.29
587.34	57105.56
587.54	61654.10
587.73	54957.24
587.93	38688.18
588.12	29466.17
588.31	24102.54
588.51	21362.36
588.70	19496.66
588.89	17186.55
589.09	14929.69
589.28	12785.47
589.47	10123.11
589.67	7559.05
589.86	5951.40
590.06	4573.11
590.25	3977.16
590.44	3446.73
590.64	3090.38
590.83	3008.47
591.02	3000.27
591.22	2715.61
591.41	2775.00
591.60	2695.13
591.80	3155.92
591.99	2523.10
592.18	2611.16
592.38	2844.63
592.57	2721.75
592.76	2709.46
592.96	2695.13
593.15	2660.31
593.34	2918.36
593.54	2697.17
593.73	2867.16
593.92	2805.72
594.12	2807.77
594.31	2791.38
594.50	2842.58
594.70	2826.20
594.89	3123.15
595.08	2539.48
595.28	2738.13
595.47	3196.88
595.66	2918.36
595.86	2578.39
596.05	2574.30
596.24	2695.13
596.43	3010.51
596.63	2791.38
596.82	2725.85
597.01	2686.94
597.21	2891.73
597.40	2766.81
597.59	2717.65
597.79	2734.04
597.98	2791.38
598.17	2695.13
598.36	2645.98
598.56	2832.34
598.75	2623.45
598.94	2758.61
599.14	2736.09
599.33	2631.64
599.52	2828.24
599.71	2670.55
599.91	2699.22
600.10	2852.82
600.29	2750.42
600.48	2781.14
600.68	2783.19
600.87	2813.91
601.06	2678.74
601.26	2717.65
601.45	2727.89
601.64	2725.85
601.83	2959.31
602.03	2609.11
602.22	2490.33
602.41	2883.54
602.60	3082.19
602.80	2744.28
602.99	2803.67
603.18	2674.65
603.37	2772.95
603.57	2684.89
603.76	2654.17
603.95	2895.83
604.14	2666.46
604.34	2551.77
604.53	2600.92
604.72	2766.81
604.91	2858.96
605.10	2711.51
605.30	2535.39
605.49	3047.38
605.68	2850.77
605.87	2727.89
606.07	2652.12
606.26	2775.00
606.45	2783.19
606.64	2707.41
606.84	2617.30
607.03	2736.09
607.22	2803.67
607.41	2648.02
607.60	2637.78
607.80	2869.20
607.99	2703.32
608.18	2711.51
608.37	2688.98
608.56	2609.11
608.76	2856.92
608.95	2815.96
609.14	2660.31
609.33	2918.36
609.52	2916.31
609.72	2770.90
609.91	2791.38
610.10	2797.53
610.29	2934.74
610.48	2731.99
610.68	2795.48
610.87	2695.13
611.06	2842.58
611.25	2652.12
611.44	2742.23
611.63	2670.55
611.83	2863.06
612.02	2519.00
612.21	2750.42
612.40	2389.98
612.59	2525.15
612.79	2535.39
612.98	2744.28
613.17	2924.50
613.36	2713.56
613.55	2754.52
613.74	2623.45
613.93	2754.52
614.13	2867.16
614.32	2940.88
614.51	2846.68
614.70	2779.09
614.89	2715.61
615.08	2764.76
615.28	3078.10
615.47	2633.69
615.66	2748.37
615.85	2625.50
616.04	2838.48
616.23	2768.85
616.42	2758.61
616.62	2693.08
616.81	2736.09
617.00	2766.81
617.19	2815.96
617.38	2680.79
617.57	2713.56
617.76	2787.29
617.95	2756.57
618.15	2713.56
618.34	2893.78
618.53	2553.82
618.72	2865.11
618.91	2764.76
619.10	2791.38
619.29	2754.52
619.48	2752.47
619.68	2627.54
619.87	2631.64
620.06	2484.19
620.25	2799.57
620.44	2619.35
620.63	2643.93
620.82	2818.00
621.01	2719.70
621.20	2656.22
621.39	2727.89
621.59	2840.53
621.78	2811.86
621.97	2688.98
622.16	2797.53
622.35	2777.05
622.54	2865.11
622.73	2840.53
622.92	2457.56
623.11	2887.64
623.30	2660.31
623.49	2740.18
623.68	2566.10
623.88	2947.03
624.07	2734.04
624.26	2578.39
624.45	2719.70
624.64	2678.74
624.83	2758.61
625.02	2625.50
625.21	2621.40
625.40	2664.41
625.59	2879.44
625.78	2709.46
625.97	2787.29
626.16	2985.94
626.35	2893.78
626.54	2621.40
626.74	2906.07
626.93	2693.08
627.12	2654.17
627.31	2793.43
627.50	2703.32
627.69	2867.16
627.88	2559.96
628.07	2615.26
628.26	2506.71
628.45	2637.78
628.64	2594.78
628.83	2633.69
629.02	2572.25
629.21	2781.14
629.40	2836.44
629.59	2586.58
629.78	2650.07
629.97	2719.70
630.16	2744.28
630.35	2697.17
630.54	2656.22
630.73	2594.78
630.92	2727.89
631.11	2562.01
631.30	2695.13
631.49	2844.63
631.68	2734.04
631.87	2717.65
632.06	2566.10
632.25	3016.66
632.44	2701.27
632.63	2756.57
632.82	2645.98
633.01	2750.42
633.20	2738.13
633.39	2623.45
633.58	2529.24
633.77	2815.96
633.96	2791.38
634.15	2719.70
634.34	2797.53
634.53	2830.29
634.72	2719.70
634.91	2475.99
635.10	2672.60
635.29	2922.45
635.48	2787.29
635.67	2639.83
635.86	2523.10
636.05	3000.27
636.24	2676.70
636.43	2684.89
636.62	2744.28
636.81	2355.16
637.00	2750.42
637.19	2641.88
637.38	2680.79
637.57	2727.89
637.76	2734.04
637.95	2775.00
638.14	2635.74
638.33	2807.77
638.52	2701.27
638.71	2598.87
638.89	2492.38
639.08	3135.44
639.27	2842.58
639.46	2877.40
639.65	3233.74
639.84	3200.98
640.03	3307.47
640.22	3088.34
640.41	3174.35
640.60	2883.54
640.79	2875.35
640.98	2750.42
641.17	2838.48
641.36	2930.64
641.55	2887.64
641.74	2596.82
641.92	2598.87
642.11	2635.74
642.30	2617.30
642.49	2596.82
642.68	2564.06
642.87	2772.95
643.06	2834.39
643.25	2557.91
643.44	2543.58
643.63	2686.94
643.82	2801.62
644.00	2648.02
644.19	2723.80
644.38	2586.58
644.57	2846.68
644.76	2588.63
644.95	2752.47
645.14	2764.76
645.33	2631.64
645.52	2699.22
645.71	2514.91
645.89	2572.25
646.08	2666.46
646.27	2648.02
646.46	2904.02
646.65	2514.91
646.84	2807.77
647.03	2598.87
647.22	2752.47
647.40	2809.81
647.59	2680.79
647.78	2377.69
647.97	2553.82
648.16	2592.73
648.35	2961.36
648.54	2875.35
648.73	2643.93
648.91	2826.20
649.10	2775.00
649.29	2600.92
649.48	2674.65
649.67	2801.62
649.86	2785.24
650.05	2699.22
650.23	2895.83
650.42	2688.98
650.61	3033.04
650.80	2836.44
650.99	2936.79
651.18	2850.77
651.36	2932.69
651.55	2592.73
651.74	2772.95
651.93	2711.51
652.12	2725.85
652.31	2750.42
652.49	2596.82
652.68	2592.73
652.87	2916.31
653.06	2727.89
653.25	2959.31
653.44	2797.53
653.62	2940.88
653.81	2719.70
654.00	2674.65
654.19	2854.87
654.38	3065.81
654.56	2736.09
654.75	2678.74
654.94	2838.48
655.13	2824.15
655.32	2645.98
655.51	2729.94
655.69	2668.50
655.88	2772.95
656.07	2473.95
656.26	2682.84
656.45	2555.86
656.63	2652.12
656.82	2717.65
657.01	2867.16
657.20	2570.20
657.38	2895.83
657.57	2658.26
657.76	2500.57
657.95	2830.29
658.14	2602.97
658.32	2605.02
658.51	2514.91
658.70	2766.81
658.89	2787.29
659.08	2645.98
659.26	2938.84
659.45	2635.74
659.64	2807.77
659.83	2670.55
660.01	3061.71
660.20	2760.66
660.39	2949.08
660.58	2400.22
660.76	2787.29
660.95	2512.86
661.14	2772.95
661.33	2547.67
661.51	2688.98
661.70	2654.17
661.89	2766.81
662.08	2740.18
662.26	2486.23
662.45	2621.40
662.64	3026.90
662.83	2723.80
663.01	2539.48
663.20	2693.08
663.39	2881.49
663.58	2592.73
663.76	2629.59
663.95	2811.86
664.14	2549.72
664.32	2600.92
664.51	2506.71
664.70	2535.39
664.89	2811.86
665.07	2514.91
665.26	2783.19
665.45	2555.86
665.64	2832.34
665.82	2580.44
666.01	2734.04
666.20	2555.86
666.38	2867.16
666.57	2887.64
666.76	4319.17
666.95	10035.05
667.13	16916.22
667.32	21262.01
667.51	24104.59
667.69	24989.31
667.88	21929.65
668.07	15542.03
668.25	12988.22
668.44	11095.89
668.63	9719.66
668.81	8439.68
669.00	7391.12
669.19	6692.76
669.38	5740.46
669.56	4958.13
669.75	4302.78
669.94	3735.50
670.12	3225.55
670.31	2985.94
670.50	2914.26
670.68	2867.16
670.87	2772.95
671.06	2688.98
671.24	2662.36
671.43	2895.83
671.62	2758.61
671.80	2531.29
671.99	2779.09
672.18	2811.86
672.36	2916.31
672.55	2748.37
672.74	2701.27
672.92	2605.02
673.11	2791.38
673.29	2555.86
673.48	2736.09
673.67	2658.26
673.85	2838.48
674.04	2586.58
674.23	2609.11
674.41	2983.89
674.60	2539.48
674.79	2506.71
674.97	2523.10
675.16	2858.96
675.34	2932.69
675.53	2627.54
675.72	2709.46
675.90	3006.42
676.09	2666.46
676.28	2729.94
676.46	2580.44
676.65	2920.40
676.83	2598.87
677.02	2637.78
677.21	2652.12
677.39	2867.16
677.58	2598.87
677.77	2559.96
677.95	2598.87
678.14	2656.22
678.32	2695.13
678.51	2596.82
678.70	2975.70
678.88	2686.94
679.07	2686.94
679.25	2613.21
679.44	2680.79
679.63	2537.43
679.81	2734.04
680.00	2871.25
680.18	2795.48
680.37	3057.62
680.55	2797.53
680.74	2494.43
680.93	2435.03
681.11	2842.58
681.30	2654.17
681.48	2725.85
681.67	2650.07
681.85	2725.85
682.04	2631.64
682.23	2797.53
682.41	2721.75
682.60	2633.69
682.78	2727.89
682.97	2590.68
683.15	2725.85
683.34	2799.57
683.53	3012.56
683.71	2555.86
683.90	2785.24
684.08	2981.84
684.27	2676.70
684.45	2709.46
684.64	2910.16
684.82	2770.90
685.01	2781.14
685.19	2725.85
685.38	2848.72
685.57	2629.59
685.75	2547.67
685.94	2543.58
686.12	2594.78
686.31	2658.26
686.49	2977.75
686.68	2490.33
686.86	2772.95
687.05	2650.07
687.23	3004.37
687.42	2521.05
687.60	2473.95
687.79	2916.31
687.97	2928.60
688.16	2842.58
688.34	2869.20
688.53	2478.04
688.71	2824.15
688.90	2899.92
689.08	2691.03
689.27	2502.62
689.45	2775.00
689.64	2768.85
689.82	2684.89
690.01	2752.47
690.19	2838.48
690.38	2760.66
690.56	2881.49
690.75	2639.83
690.93	2678.74
691.12	2625.50
691.30	2682.84
691.49	2678.74
691.67	2777.05
691.86	2912.21
692.04	2633.69
692.23	2783.19
692.41	2709.46
692.60	2889.68
692.78	2842.58
692.97	2775.00
693.15	2797.53
693.34	2940.88
693.52	2869.20
693.71	2650.07
693.89	2746.33
694.08	2529.24
694.26	2760.66
694.44	2920.40
694.63	2838.48
694.81	2588.63
695.00	2633.69
695.18	2863.06
695.37	3069.91
695.55	2713.56
695.74	2691.03
695.92	2660.31
696.10	2981.84
696.29	2537.43
696.47	2688.98
696.66	2521.05
696.84	2600.92
697.03	2693.08
697.21	2922.45
697.40	4038.59
697.58	2899.92
697.76	2605.02
697.95	2570.20
698.13	2539.48
698.32	2605.02
698.50	2562.01
698.68	2719.70
698.87	2775.00
699.05	2961.36
699.24	2643.93
699.42	2498.52
699.61	2686.94
699.79	2746.33
699.97	2615.26
700.16	2523.10
700.34	2498.52
700.53	2801.62
700.71	2895.83
700.89	2777.05
701.08	2664.41
701.26	2750.42
701.45	3106.77
701.63	2609.11
701.81	2674.65
702.00	2553.82
702.18	2727.89
702.37	2568.15
702.55	2889.68
702.73	2842.58
702.92	2600.92
703.10	2899.92
703.28	2875.35
703.47	2633.69
703.65	2883.54
703.84	2783.19
704.02	2674.65
704.20	2951.12
704.39	2623.45
704.57	2691.03
704.75	2873.30
704.94	2807.77
705.12	2740.18
705.30	3063.76
705.49	5877.67
705.67	11679.57
705.86	17846.00
706.04	20418.25
706.22	22771.36
706.41	22808.23
706.59	17686.26
706.77	13246.26
706.96	11677.52
707.14	10260.32
707.32	9019.25
707.51	7903.11
707.69	6533.02
707.87	5195.70
708.06	4536.25
708.24	3913.67
708.42	3321.81
708.61	3352.52
708.79	2793.43
708.97	2846.68
709.16	2809.81
709.34	2668.50
709.52	2623.45
709.71	2617.30
709.89	2877.40
710.07	2551.77
710.26	2539.48
710.44	2635.74
710.62	2889.68
710.80	2625.50
710.99	2705.37
711.17	2822.10
711.35	2596.82
711.54	2695.13
711.72	2791.38
711.90	2744.28
712.09	2744.28
712.27	2652.12
712.45	2797.53
712.63	2594.78
712.82	2797.53
713.00	2629.59
713.18	2805.72
713.37	2813.91
713.55	2865.11
713.73	2801.62
713.91	2787.29
714.10	2531.29
714.28	2809.81
714.46	2772.95
714.65	2695.13
714.83	2695.13
715.01	2758.61
715.19	2691.03
715.38	2654.17
715.56	2777.05
715.74	2740.18
715.92	2631.64
716.11	2869.20
716.29	2482.14
716.47	2760.66
716.65	2717.65
716.84	2521.05
717.02	2838.48
717.20	2445.27
717.38	2598.87
717.57	2709.46
717.75	2617.30
717.93	2623.45
718.11	2842.58
718.30	2574.30
718.48	2686.94
718.66	2912.21
718.84	2850.77
719.03	2684.89
719.21	2506.71
719.39	2996.18
719.57	2822.10
719.75	2727.89
719.94	2545.63
720.12	2664.41
720.30	2762.71
720.48	2811.86
720.67	2676.70
720.85	2590.68
721.03	2686.94
721.21	2637.78
721.39	2740.18
721.58	2752.47
721.76	2672.60
721.94	2736.09
722.12	2756.57
722.30	2947.03
722.49	2645.98
722.67	2723.80
722.85	2760.66
723.03	2535.39
723.21	2580.44
723.40	2709.46
723.58	2867.16
723.76	2828.24
723.94	2899.92
724.12	2678.74
724.30	2807.77
724.49	2834.39
724.67	2582.49
724.85	2799.57
725.03	2535.39
725.21	2873.30
725.40	2850.77
725.58	2676.70
725.76	2901.97
725.94	2893.78
726.12	2590.68
726.30	2676.70
726.49	2705.37
726.67	2695.13
726.85	2850.77
727.03	3137.49
727.21	4175.81
727.39	5195.70
727.57	5556.14
727.76	6086.56
727.94	6227.87
728.12	5658.54
728.30	4548.54
728.48	4265.92
728.66	4030.40
728.84	3803.08
729.03	3389.39
729.21	3186.64
729.39	3045.33
729.57	2838.48
729.75	2799.57
729.93	2785.24
730.11	2715.61
730.30	2598.87
730.48	2705.37
730.66	2826.20
730.84	2750.42
731.02	2699.22
731.20	2592.73
731.38	2631.64
731.56	2588.63
731.74	2516.95
731.93	2738.13
732.11	2701.27
732.29	2588.63
732.47	2854.87
732.65	2807.77
732.83	2885.59
733.01	2719.70
733.19	2629.59
733.37	2746.33
733.56	2705.37
733.74	2588.63
733.92	2998.23
734.10	2619.35
734.28	2713.56
734.46	2480.09
734.64	2652.12
734.82	2709.46
735.00	2582.49
735.18	2598.87
735.36	2809.81
735.54	2705.37
735.73	2701.27
735.91	2744.28
736.09	2877.40
736.27	2736.09
736.45	2756.57
736.63	2430.94
736.81	2641.88
736.99	2930.64
737.17	2887.64
737.35	2619.35
737.53	2756.57
737.71	2643.93
737.89	2863.06
738.07	2650.07
738.25	2629.59
738.43	2482.14
738.61	2684.89
738.80	2486.23
738.98	2504.67
739.16	2654.17
739.34	2617.30
739.52	2850.77
739.70	2650.07
739.88	2893.78
740.06	2813.91
740.24	2410.46
740.42	2897.88
740.60	2529.24
740.78	2564.06
740.96	2437.08
741.14	2654.17
741.32	2748.37
741.50	2523.10
741.68	2942.93
741.86	2979.79
742.04	2674.65
742.22	2539.48
742.40	2625.50
742.58	2856.92
742.76	2586.58
742.94	2826.20
743.12	2539.48
743.30	2670.55
743.48	2766.81
743.66	2662.36
743.84	2691.03
744.02	2750.42
744.20	2793.43
744.38	2639.83
744.56	2551.77
744.74	2951.12
744.92	2818.00
745.10	2871.25
745.28	2764.76
745.46	2932.69
745.64	2660.31
745.82	2719.70
746.00	2617.30
746.18	2762.71
746.36	2557.91
746.54	2682.84
746.72	2705.37
746.90	2590.68
747.08	2975.70
747.26	2633.69
747.44	2674.65
747.62	2807.77
747.80	2725.85
747.98	2793.43
748.15	2641.88
748.33	2949.08
748.51	2744.28
748.69	2801.62
748.87	2543.58
749.05	2629.59
749.23	2736.09
749.41	2596.82
749.59	2615.26
749.77	2832.34
749.95	2680.79
750.13	2633.69
750.31	2719.70
750.49	2734.04
750.67	2818.00
750.85	2850.77
751.03	2656.22
751.20	3022.80
751.38	2703.32
751.56	2623.45
751.74	2686.94
751.92	2731.99
752.10	2576.34
752.28	2871.25
752.46	2637.78
752.64	2717.65
752.82	2682.84
753.00	2736.09
753.18	2559.96
753.35	2701.27
753.53	2691.03
753.71	2627.54
753.89	2826.20
754.07	2723.80
754.25	2838.48
754.43	2727.89
754.61	2611.16
754.79	2807.77
754.97	2668.50
755.14	2889.68
755.32	2521.05
755.50	2766.81
755.68	2775.00
755.86	2531.29
756.04	2621.40
756.22	2469.85
756.40	2828.24
756.57	2887.64
756.75	2611.16
756.93	2865.11
757.11	2893.78
757.29	2562.01
757.47	2504.67
757.65	2555.86
757.82	2484.19
758.00	2519.00
758.18	2596.82
758.36	2592.73
758.54	2947.03
758.72	2553.82
758.90	2777.05
759.07	2727.89
759.25	2580.44
759.43	2752.47
759.61	2508.76
759.79	3964.87
759.97	2885.59
760.15	2600.92
760.32	2596.82
760.50	2750.42
760.68	2951.12
760.86	2586.58
761.04	2813.91
761.22	2801.62
761.39	2658.26
761.57	2756.57
761.75	2643.93
761.93	2752.47
762.11	2641.88
762.28	2734.04
762.46	2596.82
762.64	2899.92
762.82	2523.10
763.00	2613.21
763.18	2895.83
763.35	2580.44
763.53	2807.77
763.71	2627.54
763.89	2633.69
764.07	2738.13
764.24	2748.37
764.42	2797.53
764.60	2572.25
764.78	2791.38
764.96	2764.76
765.13	2846.68
765.31	2623.45
765.49	2842.58
765.67	2596.82
765.84	2564.06
766.02	2584.54
766.20	2521.05
766.38	2754.52
766.56	2797.53
766.73	2777.05
766.91	2768.85
767.09	2684.89
767.27	2734.04
767.44	2625.50
767.62	2828.24
767.80	2750.42
767.98	2695.13
768.15	2613.21
768.33	2850.77
768.51	2805.72
768.69	2811.86
768.87	2725.85
769.04	2717.65
769.22	3059.67
769.40	2875.35
769.58	2875.35
769.75	2801.62
769.93	2930.64
770.11	2688.98
770.28	2617.30
770.46	2858.96
770.64	2797.53
770.82	2625.50
770.99	2615.26
771.17	2842.58
771.35	2656.22
771.53	2654.17
771.70	2674.65
771.88	2781.14
772.06	2654.17
772.23	2549.72
772.41	2729.94
772.59	2688.98
772.77	2580.44
772.94	2752.47
773.12	2736.09
773.30	2666.46
773.47	2719.70
773.65	2469.85
773.83	2838.48
774.01	2703.32
774.18	2457.56
774.36	2676.70
774.54	2580.44
774.71	2754.52
774.89	2582.49
775.07	2529.24
775.24	2613.21
775.42	2602.97
775.60	2949.08
775.78	2633.69
775.95	2500.57
776.13	2461.66
776.31	2435.03
776.48	2764.76
776.66	2791.38
776.84	2701.27
777.01	2596.82
777.19	2531.29
777.37	2580.44
777.54	2799.57
777.72	2998.23
777.90	2721.75
778.07	2627.54
778.25	3203.02
778.43	2838.48
778.60	2609.11
778.78	2725.85
778.96	2873.30
779.13	2559.96
779.31	2820.05
779.49	2637.78
779.66	2725.85
779.84	2621.40
780.01	2629.59
780.19	2541.53
780.37	2877.40
780.54	2805.72
780.72	2510.81
780.90	2658.26
781.07	2719.70
781.25	2662.36
781.43	2801.62
781.60	2725.85
781.78	2947.03
781.95	2734.04
782.13	2602.97
782.31	2648.02
782.48	2500.57
782.66	2742.23
782.83	2891.73
783.01	2705.37
783.19	2795.48
783.36	2629.59
783.54	2545.63
783.72	2721.75
783.89	2731.99
784.07	2748.37
784.24	2756.57
784.42	2920.40
784.60	2744.28
784.77	2820.05
784.95	2447.32
785.12	2662.36
785.30	2746.33
785.47	2588.63
785.65	2605.02
785.83	2691.03
786.00	2611.16
786.18	2750.42
786.35	2533.34
786.53	2557.91
786.71	2787.29
786.88	2842.58
787.06	2727.89
787.23	2607.06
787.41	2568.15
787.58	2713.56
787.76	2568.15
787.94	2775.00
788.11	2772.95
788.29	2625.50
788.46	2611.16
788.64	2512.86
788.81	2750.42
788.99	2559.96
789.16	2459.61
789.34	2602.97
789.52	2629.59
789.69	2691.03
789.87	2443.23
790.04	2555.86
790.22	2764.76
790.39	3026.90
790.57	2580.44
790.74	2574.30
790.92	2856.92
791.09	2426.84
791.27	2652.12
791.44	2709.46
791.62	2670.55
791.79	2846.68
791.97	2719.70
792.15	3026.90
792.32	2842.58
792.50	2789.33
792.67	2813.91
792.85	2932.69
793.02	2734.04
793.20	2721.75
793.37	2514.91
793.55	2695.13
793.72	2512.86
793.90	2768.85
794.07	2555.86
794.25	2547.67
794.42	2758.61
794.60	2678.74
794.77	2695.13
794.95	2740.18
795.12	2873.30
795.30	2688.98
795.47	2473.95
795.65	2961.36
795.82	2654.17
796.00	2482.14
796.17	2633.69
796.34	2551.77
796.52	2691.03
796.69	2846.68
796.87	2846.68
797.04	2731.99
797.22	2842.58
797.39	2779.09
797.57	2807.77
797.74	2725.85
797.92	2779.09
798.09	2627.54
798.27	2826.20
798.44	2623.45
798.62	2553.82
798.79	2768.85
798.96	2650.07
799.14	2662.36
799.31	3053.52
799.49	2664.41
799.66	2688.98
799.84	2740.18
800.01	2572.25
800.19	2697.17
800.36	2457.56
800.53	2748.37
800.71	2809.81
800.88	2996.18
801.06	2549.72
801.23	2539.48
801.41	2721.75
801.58	2615.26
801.75	2596.82
801.93	2699.22
802.10	2856.92
802.28	2643.93
802.45	2635.74
802.63	2678.74
802.80	2947.03
802.97	2641.88
803.15	2635.74
803.32	2672.60
803.50	2596.82
803.67	2619.35
803.84	2539.48
804.02	2643.93
804.19	2686.94
804.37	2428.89
804.54	2475.99
804.71	2570.20
804.89	2772.95
805.06	2650.07
805.24	2570.20
805.41	2478.04
805.58	2666.46
805.76	3057.62
805.93	2551.77
806.10	2805.72
806.28	2770.90
806.45	2748.37
806.63	2615.26
806.80	2783.19
806.97	2791.38
807.15	2746.33
807.32	2629.59
807.49	2625.50
807.67	2516.95
807.84	2678.74
808.01	2475.99
808.19	2834.39
808.36	3082.19
808.54	2633.69
808.71	2568.15
808.88	2680.79
809.06	2824.15
809.23	3014.61
809.40	2635.74
809.58	2629.59
809.75	2727.89
809.92	2572.25
810.10	2893.78
810.27	2695.13
810.44	2830.29
810.62	2779.09
810.79	2684.89
810.96	2619.35
811.14	2633.69
811.31	2770.90
811.48	2775.00
811.66	2725.85
811.83	2828.24
812.00	2822.10
812.18	2721.75
812.35	2996.18
812.52	2668.50
812.69	2613.21
812.87	2600.92
813.04	2580.44
813.21	2674.65
813.39	2562.01
813.56	2539.48
813.73	2824.15
813.91	2484.19
814.08	2715.61
814.25	2705.37
814.42	2428.89
814.60	2695.13
814.77	2656.22
814.94	2639.83
815.12	2717.65
815.29	2973.65
815.46	2639.83
815.63	2709.46
815.81	2650.07
815.98	2662.36
816.15	2678.74
816.33	2648.02
816.50	2709.46
816.67	2605.02
816.84	2742.23
817.02	2553.82
817.19	2605.02
817.36	2775.00
817.53	2695.13
817.71	2586.58
817.88	2775.00
818.05	2670.55
818.22	2650.07
818.40	2850.77
818.57	2641.88
818.74	2752.47
818.91	2736.09
819.09	2791.38
819.26	2756.57
819.43	2570.20
819.60	2590.68
819.78	2797.53
819.95	2719.70
820.12	2441.18
820.29	2938.84
820.47	2797.53
820.64	2572.25
820.81	2531.29
820.98	2588.63
821.15	2615.26
821.33	2815.96
821.50	2539.48
821.67	2799.57
821.84	2621.40
822.02	2674.65
822.19	2912.21
822.36	2629.59
822.53	2598.87
822.70	2504.67
822.88	2670.55
823.05	2944.98
823.22	2746.33
823.39	2746.33
823.56	2695.13
823.74	2947.03
823.91	2502.62
824.08	2541.53
824.25	2598.87
824.42	2920.40
824.60	2512.86
824.77	2695.13
824.94	2701.27
825.11	2779.09
825.28	2455.51
825.45	2629.59
825.63	2744.28
825.80	2545.63
825.97	2764.76
826.14	2725.85
826.31	2539.48
826.48	2750.42
826.66	2531.29
826.83	2555.86
827.00	2682.84
827.17	2623.45
827.34	2676.70
827.51	2652.12
827.69	2691.03
827.86	2588.63
828.03	2650.07
828.20	2736.09
828.37	2645.98
828.54	2764.76
828.71	2590.68
828.89	2809.81
829.06	2686.94
829.23	2889.68
829.40	2652.12
829.57	2611.16
829.74	2848.72
829.91	2596.82
830.09	2512.86
830.26	2772.95
830.43	2920.40
830.60	2693.08
830.77	2715.61
830.94	2738.13
831.11	2836.44
831.28	2652.12
831.46	2818.00
831.63	2525.15
831.80	2926.55
831.97	2619.35
832.14	2611.16
832.31	2723.80
832.48	2783.19
832.65	2867.16
832.82	2738.13
832.99	2676.70
833.17	2547.67
833.34	2885.59
833.51	2699.22
833.68	2506.71
833.85	2887.64
834.02	2551.77
834.19	2541.53
834.36	2502.62
834.53	2713.56
834.70	2840.53
834.87	2695.13
835.04	2469.85
835.22	2611.16
835.39	2664.41
835.56	2469.85
835.73	2537.43
835.90	2908.12
836.07	2584.54
836.24	2621.40
836.41	2551.77
836.58	2547.67
836.75	2789.33
836.92	2578.39
837.09	2588.63
837.26	2842.58
837.43	2783.19
837.60	2637.78
837.77	2547.67
837.94	2856.92
838.12	2832.34
838.29	2572.25
838.46	2408.41
838.63	2662.36
838.80	2869.20
838.97	2609.11
839.14	2627.54
839.31	2727.89
839.48	2840.53
839.65	2473.95
839.82	2639.83
839.99	2785.24
840.16	2691.03
840.33	2512.86
840.50	2580.44
840.67	2574.30
840.84	2367.45
841.01	2600.92
841.18	2516.95
841.35	2633.69
841.52	2834.39
841.69	2775.00
841.86	2566.10
842.03	2779.09
842.20	2828.24
842.37	2473.95
842.54	2594.78
842.71	2717.65
842.88	2490.33
843.05	2654.17
843.22	2516.95
843.39	2858.96
843.56	2541.53
843.73	2504.67
843.90	2625.50
844.07	2781.14
844.24	2826.20
844.41	2557.91
844.58	2619.35
844.75	2686.94
844.92	2711.51
845.09	2662.36
845.26	2582.49
845.43	2775.00
845.60	2658.26
845.77	2643.93
845.94	2615.26
846.10	2809.81
846.27	2478.04
846.44	2496.47
846.61	2523.10
846.78	2766.81
846.95	2844.63
847.12	2527.19
847.29	2621.40
847.46	2537.43
847.63	2770.90
847.80	2572.25
847.97	2516.95
848.14	2887.64
848.31	2617.30
848.48	2437.08
848.65	2658.26
848.82	2600.92
848.98	3151.82
849.15	2652.12
849.32	2643.93
849.49	2805.72
849.66	2775.00
849.83	2580.44
850.00	2504.67
850.17	2811.86
850.34	2600.92
850.51	2504.67
850.68	2549.72
850.85	3108.82
851.01	2795.48
851.18	2527.19
851.35	2617.30
851.52	2748.37
851.69	2867.16
851.86	2418.65
852.03	2613.21
852.20	2813.91
852.37	2725.85
852.53	2516.95
852.70	2549.72
852.87	2762.71
853.04	2752.47
853.21	2566.10
853.38	2760.66
853.55	2893.78
853.72	2881.49
853.89	2492.38
854.05	2566.10
854.22	2678.74
854.39	2666.46
854.56	2541.53
854.73	2678.74
854.90	2545.63
855.07	2658.26
855.23	2504.67
855.40	2555.86
855.57	2709.46
855.74	2420.70
855.91	2680.79
856.08	2422.75
856.25	2488.28
856.41	2684.89
856.58	2539.48
856.75	2531.29
856.92	2568.15
857.09	2779.09
857.26	2461.66
857.42	2514.91
857.59	2846.68
857.76	2658.26
857.93	2559.96
858.10	2695.13
858.27	2519.00
858.43	2791.38
858.60	2576.34
858.77	2531.29
858.94	2699.22
859.11	2824.15
859.27	2555.86
859.44	2562.01
859.61	2981.84
859.78	2844.63
859.95	2594.78
860.12	2453.47
860.28	2938.84
860.45	2985.94
860.62	2467.80
860.79	2654.17
860.95	2697.17
861.12	2576.34
861.29	2453.47
861.46	2564.06
861.63	2691.03
861.79	2707.41
861.96	2490.33
862.13	2613.21
862.30	2949.08
862.47	2695.13
862.63	2506.71
862.80	2602.97
862.97	2801.62
863.14	2742.23
863.30	2607.06
863.47	2432.99
863.64	2957.27
863.81	2775.00
863.97	2488.28
864.14	2584.54
864.31	2652.12
864.48	2707.41
864.65	2650.07
864.81	2705.37
864.98	2756.57
865.15	2908.12
865.32	2643.93
865.48	2664.41
865.65	2914.26
865.82	2596.82
865.98	2580.44
866.15	2666.46
866.32	2740.18
866.49	2602.97
866.65	2670.55
866.82	2559.96
866.99	2727.89
867.16	2652.12
867.32	2551.77
867.49	2572.25
867.66	2654.17
867.83	2664.41
867.99	2437.08
868.16	2592.73
868.33	2529.24
868.49	2709.46
868.66	2588.63
868.83	2645.98
868.99	2740.18
869.16	2656.22
869.33	2709.46
869.50	2605.02
869.66	2777.05
869.83	2691.03
870.00	2410.46
870.16	2721.75
870.33	2562.01
870.50	2832.34
870.66	2586.58
870.83	2631.64
871.00	2648.02
871.17	2791.38
871.33	2645.98
871.50	2539.48
871.67	2693.08
871.83	2441.18
872.00	2703.32
872.17	2564.06
872.33	3014.61
872.50	2848.72
872.67	2555.86
872.83	2641.88
873.00	2793.43
873.17	2648.02
873.33	2609.11
873.50	2617.30
873.67	2693.08
873.83	2533.34
874.00	2615.26
874.16	2666.46
874.33	2781.14
874.50	2588.63
874.66	2537.43
874.83	2660.31
875.00	2910.16
875.16	2801.62
875.33	2742.23
875.50	2367.45
875.66	2682.84
875.83	2684.89
875.99	2627.54
876.16	2615.26
876.33	2629.59
876.49	2775.00
876.66	2691.03
876.83	2570.20
876.99	2510.81
877.16	2721.75
877.32	2572.25
877.49	2623.45
877.66	2748.37
877.82	2990.03
877.99	2570.20
878.15	2701.27
878.32	2746.33
878.49	2717.65
878.65	2564.06
878.82	2705.37
878.98	2609.11
879.15	2832.34
879.32	2678.74
879.48	2688.98
879.65	2678.74
879.81	2744.28
879.98	2594.78
880.15	2568.15
880.31	2869.20
880.48	2590.68
880.64	2631.64
880.81	2631.64
880.97	3008.47
881.14	2875.35
881.31	2527.19
881.47	2713.56
881.64	2715.61
881.80	2457.56
881.97	2703.32
882.13	2615.26
882.30	2559.96
882.47	2605.02
882.63	2553.82
882.80	2531.29
882.96	2619.35
883.13	2887.64
883.29	2557.91
883.46	2576.34
883.62	3082.19
883.79	2752.47
883.95	2654.17
884.12	2611.16
884.29	2873.30
884.45	2678.74
884.62	2635.74
884.78	2465.75
884.95	2889.68
885.11	2643.93
885.28	2637.78
885.44	2574.30
885.61	2789.33
885.77	2916.31
885.94	2680.79
886.10	2676.70
886.27	2729.94
886.43	2912.21
886.60	2719.70
886.76	2627.54
886.93	2621.40
887.09	2799.57
887.26	2424.80
887.42	2617.30
887.59	2832.34
887.75	3018.71
887.92	2701.27
888.08	2693.08
888.25	2977.75
888.41	2781.14
888.58	2584.54
888.74	2562.01
888.91	2621.40
>>>>>End Processed Spectral Data<<<<<
