SpectraSuite Data File
++++++++++++++++++++++++++++++++++++
Date: Thu May 05 16:20:26 CEST 2016
User: root
Dark Spectrum Present: No
Reference Spectrum Present: No
Number of Sampled Component Spectra: 1
Spectrometers: USB4C02835
Integration Time (usec): 100000 (USB4C02835)
Spectra Averaged: 1 (USB4C02835)
Boxcar Smoothing: 0 (USB4C02835)
Correct for Electrical Dark: No (USB4C02835)
Strobe/Lamp Enabled: No (USB4C02835)
Correct for Detector Non-linearity: No (USB4C02835)
Correct for Stray Light: No (USB4C02835)
Number of Pixels in Processed Spectrum: 3648
>>>>>Begin Processed Spectral Data<<<<<
177.47	2011.11
177.69	2011.11
177.91	2011.11
178.13	1966.05
178.36	2002.91
178.58	2580.44
178.80	2723.80
179.02	2490.33
179.24	2588.63
179.46	2459.61
179.68	2562.01
179.90	2680.79
180.13	2783.19
180.35	2430.94
180.57	2492.38
180.79	2891.73
181.01	2664.41
181.23	2566.10
181.45	2645.98
181.67	2736.09
181.90	2795.48
182.12	2447.32
182.34	2424.80
182.56	2797.53
182.78	2789.33
183.00	2469.85
183.22	2504.67
183.44	2426.84
183.66	3117.01
183.89	2609.11
184.11	2475.99
184.33	2779.09
184.55	2873.30
184.77	2465.75
184.99	2512.86
185.21	2652.12
185.43	3039.19
185.65	2508.76
185.87	2441.18
186.10	3043.28
186.32	3028.95
186.54	2619.35
186.76	2633.69
186.98	2856.92
187.20	2742.23
187.42	2432.99
187.64	2525.15
187.86	2793.43
188.08	2891.73
188.30	2367.45
188.52	2545.63
188.75	2947.03
188.97	2932.69
189.19	2469.85
189.41	2494.43
189.63	2801.62
189.85	2682.84
190.07	2377.69
190.29	2439.13
190.51	2740.18
190.73	2514.91
190.95	2707.41
191.17	2607.06
191.39	2490.33
191.61	2717.65
191.84	2463.71
192.06	2625.50
192.28	2471.90
192.50	3137.49
192.72	2617.30
192.94	2590.68
193.16	2861.01
193.38	2842.58
193.60	2437.08
193.82	2549.72
194.04	2887.64
194.26	2832.34
194.48	2557.91
194.70	2512.86
194.92	2572.25
195.14	2762.71
195.36	2492.38
195.58	2535.39
195.80	2736.09
196.02	2701.27
196.24	2404.32
196.46	2586.58
196.69	2662.36
196.91	3069.91
197.13	2480.09
197.35	2521.05
197.57	2848.72
197.79	2777.05
198.01	2584.54
198.23	2559.96
198.45	2826.20
198.67	2582.49
198.89	2400.22
199.11	2725.85
199.33	2645.98
199.55	2465.75
199.77	2457.56
199.99	2611.16
200.21	2672.60
200.43	2799.57
200.65	2430.94
200.87	2357.21
201.09	2703.32
201.31	2645.98
201.53	2504.67
201.75	2549.72
201.97	2791.38
202.19	2742.23
202.41	2541.53
202.63	2676.70
202.85	2848.72
203.07	2801.62
203.29	2555.86
203.51	2414.56
203.73	2641.88
203.95	3106.77
204.17	2531.29
204.39	2574.30
204.61	2680.79
204.83	2613.21
205.05	2703.32
205.27	2543.58
205.49	2971.60
205.71	2738.13
205.93	2473.95
206.15	2453.47
206.37	2783.19
206.59	2668.50
206.81	2392.03
207.03	2527.19
207.25	2605.02
207.47	2871.25
207.69	2486.23
207.91	2703.32
208.13	3033.04
208.34	2674.65
208.56	2459.61
208.78	2457.56
209.00	2699.22
209.22	2639.83
209.44	2547.67
209.66	2541.53
209.88	2727.89
210.10	2762.71
210.32	2451.42
210.54	2541.53
210.76	2641.88
210.98	2920.40
211.20	2408.41
211.42	2592.73
211.64	2922.45
211.86	2715.61
212.08	2570.20
212.30	2502.62
212.52	2676.70
212.74	2746.33
212.96	2590.68
213.17	2570.20
213.39	2811.86
213.61	2990.03
213.83	2519.00
214.05	2379.74
214.27	2936.79
214.49	2529.24
214.71	2531.29
214.93	2609.11
215.15	2736.09
215.37	2863.06
215.59	2371.55
215.81	2584.54
216.03	2957.27
216.24	2660.31
216.46	2580.44
216.68	2547.67
216.90	2781.14
217.12	2883.54
217.34	2539.48
217.56	2629.59
217.78	2965.46
218.00	2791.38
218.22	2574.30
218.44	2607.06
218.66	2746.33
218.87	2981.84
219.09	2535.39
219.31	2521.05
219.53	2764.76
219.75	2684.89
219.97	2588.63
220.19	2521.05
220.41	2756.57
220.63	2944.98
220.85	2588.63
221.06	2506.71
221.28	2977.75
221.50	2822.10
221.72	2527.19
221.94	2482.14
222.16	2854.87
222.38	2897.88
222.60	2523.10
222.82	2484.19
223.03	2791.38
223.25	2562.01
223.47	2519.00
223.69	2795.48
223.91	2826.20
224.13	2793.43
224.35	2484.19
224.57	2738.13
224.78	2838.48
225.00	2559.96
225.22	2627.54
225.44	2447.32
225.66	2832.34
225.88	2625.50
226.10	2625.50
226.32	2551.77
226.53	2922.45
226.75	2588.63
226.97	2533.34
227.19	2498.52
227.41	2670.55
227.63	2664.41
227.85	2277.34
228.06	2549.72
228.28	2787.29
228.50	2762.71
228.72	2379.74
228.94	2566.10
229.16	2504.67
229.37	2609.11
229.59	2432.99
229.81	2686.94
230.03	2668.50
230.25	2557.91
230.47	2398.17
230.69	2445.27
230.90	2895.83
231.12	2602.97
231.34	2629.59
231.56	2707.41
231.78	2564.06
232.00	2756.57
232.21	2480.09
232.43	2545.63
232.65	2459.61
232.87	2809.81
233.09	2420.70
233.30	2457.56
233.52	2906.07
233.74	2731.99
233.96	2449.37
234.18	2676.70
234.40	2701.27
234.61	2961.36
234.83	2455.51
235.05	2392.03
235.27	3108.82
235.49	2844.63
235.70	2498.52
235.92	2607.06
236.14	2768.85
236.36	3125.20
236.58	2381.79
236.79	2617.30
237.01	2734.04
237.23	2748.37
237.45	2674.65
237.67	2484.19
237.88	2760.66
238.10	2973.65
238.32	2453.47
238.54	2521.05
238.76	2609.11
238.97	2588.63
239.19	2494.43
239.41	2555.86
239.63	2895.83
239.85	2648.02
240.06	2467.80
240.28	2492.38
240.50	2850.77
240.72	2738.13
240.93	2439.13
241.15	2666.46
241.37	2723.80
241.59	2889.68
241.81	2463.71
242.02	2570.20
242.24	2699.22
242.46	2844.63
242.68	2392.03
242.89	2535.39
243.11	2842.58
243.33	2682.84
243.55	2512.86
243.76	2559.96
243.98	2574.30
244.20	2672.60
244.42	2535.39
244.64	2564.06
244.85	2523.10
245.07	2539.48
245.29	2510.81
245.51	2541.53
245.72	2717.65
245.94	2891.73
246.16	2547.67
246.38	2549.72
246.59	2662.36
246.81	2557.91
247.03	2465.75
247.24	2402.27
247.46	2703.32
247.68	2783.19
247.90	2480.09
248.11	2494.43
248.33	2740.18
248.55	2742.23
248.77	2539.48
248.98	2639.83
249.20	2940.88
249.42	2701.27
249.64	2494.43
249.85	2549.72
250.07	2598.87
250.29	2754.52
250.50	2617.30
250.72	2449.37
250.94	2740.18
251.16	3030.99
251.37	2514.91
251.59	2594.78
251.81	2815.96
252.02	2922.45
252.24	2451.42
252.46	2623.45
252.68	2641.88
252.89	2645.98
253.11	2338.78
253.33	2670.55
253.54	2865.11
253.76	2521.05
253.98	2478.04
254.20	2490.33
254.41	2586.58
254.63	2701.27
254.85	2400.22
255.06	2562.01
255.28	2754.52
255.50	2754.52
255.71	2461.66
255.93	2424.80
256.15	2662.36
256.36	2746.33
256.58	2398.17
256.80	2432.99
257.02	2680.79
257.23	2678.74
257.45	2543.58
257.67	2576.34
257.88	2695.13
258.10	2729.94
258.32	2557.91
258.53	2537.43
258.75	2971.60
258.97	2584.54
259.18	2455.51
259.40	2469.85
259.62	2994.13
259.83	2897.88
260.05	2547.67
260.27	3176.40
260.48	2832.34
260.70	2645.98
260.92	2451.42
261.13	2523.10
261.35	2809.81
261.57	2742.23
261.78	2389.98
262.00	2453.47
262.22	2801.62
262.43	2590.68
262.65	2496.47
262.86	2545.63
263.08	3069.91
263.30	2736.09
263.51	2371.55
263.73	2451.42
263.95	2930.64
264.16	2514.91
264.38	2428.89
264.60	2480.09
264.81	2756.57
265.03	2873.30
265.25	2764.76
265.46	2408.41
265.68	3002.32
265.89	2861.01
266.11	2418.65
266.33	2490.33
266.54	2871.25
266.76	2682.84
266.98	2596.82
267.19	2648.02
267.41	2949.08
267.62	2736.09
267.84	2418.65
268.06	2564.06
268.27	2768.85
268.49	2932.69
268.70	2598.87
268.92	2551.77
269.14	2588.63
269.35	2545.63
269.57	2557.91
269.79	2623.45
270.00	2682.84
270.22	3020.75
270.43	2422.75
270.65	2424.80
270.87	2752.47
271.08	2809.81
271.30	2635.74
271.51	2531.29
271.73	2762.71
271.95	2922.45
272.16	2523.10
272.38	2607.06
272.59	2656.22
272.81	2838.48
273.02	2389.98
273.24	2609.11
273.46	2850.77
273.67	2566.10
273.89	2445.27
274.10	2537.43
274.32	2875.35
274.54	2736.09
274.75	2645.98
274.97	2600.92
275.18	2848.72
275.40	2836.44
275.61	2562.01
275.83	2707.41
276.05	2580.44
276.26	2703.32
276.48	2570.20
276.69	2613.21
276.91	2645.98
277.12	2916.31
277.34	2748.37
277.55	2777.05
277.77	2713.56
277.99	2670.55
278.20	2543.58
278.42	2486.23
278.63	2645.98
278.85	2633.69
279.06	2490.33
279.28	2637.78
279.49	2916.31
279.71	2858.96
279.93	2611.16
280.14	2680.79
280.36	2660.31
280.57	2848.72
280.79	2682.84
281.00	2537.43
281.22	2639.83
281.43	2801.62
281.65	2314.20
281.86	2482.14
282.08	2807.77
282.29	2990.03
282.51	2447.32
282.73	2539.48
282.94	2441.18
283.16	2867.16
283.37	2723.80
283.59	2580.44
283.80	2826.20
284.02	2711.51
284.23	2695.13
284.45	2596.82
284.66	2547.67
284.88	2562.01
285.09	2613.21
285.31	2639.83
285.52	2758.61
285.74	2478.04
285.95	2736.09
286.17	2588.63
286.38	2914.26
286.60	2590.68
286.81	2523.10
287.03	2648.02
287.24	2705.37
287.46	2809.81
287.67	2666.46
287.89	2803.67
288.10	2684.89
288.32	2693.08
288.53	2787.29
288.75	2615.26
288.96	2826.20
289.18	2686.94
289.39	2564.06
289.61	2619.35
289.82	3055.57
290.04	2969.55
290.25	2482.14
290.47	2668.50
290.68	2709.46
290.90	2944.98
291.11	2455.51
291.33	2699.22
291.54	2555.86
291.76	2555.86
291.97	2752.47
292.18	2680.79
292.40	2582.49
292.61	2645.98
292.83	2742.23
293.04	2648.02
293.26	2731.99
293.47	2695.13
293.69	2484.19
293.90	2555.86
294.12	2834.39
294.33	2721.75
294.55	2551.77
294.76	2695.13
294.97	2963.41
295.19	3002.32
295.40	2598.87
295.62	2674.65
295.83	2846.68
296.05	2662.36
296.26	2783.19
296.48	2688.98
296.69	2637.78
296.90	2731.99
297.12	2731.99
297.33	2848.72
297.55	2711.51
297.76	2770.90
297.98	2752.47
298.19	2656.22
298.41	2664.41
298.62	2588.63
298.83	2811.86
299.05	2664.41
299.26	2572.25
299.48	2529.24
299.69	2752.47
299.90	2568.15
300.12	2566.10
300.33	2744.28
300.55	2588.63
300.76	2674.65
300.98	2594.78
301.19	2744.28
301.40	2619.35
301.62	2539.48
301.83	2740.18
302.05	2719.70
302.26	2592.73
302.47	2691.03
302.69	2568.15
302.90	2793.43
303.12	2322.40
303.33	2731.99
303.54	3018.71
303.76	2693.08
303.97	2609.11
304.19	2762.71
304.40	2580.44
304.61	2799.57
304.83	2777.05
305.04	2719.70
305.26	2885.59
305.47	2650.07
305.68	2674.65
305.90	2549.72
306.11	2867.16
306.33	2641.88
306.54	2408.41
306.75	2512.86
306.97	2437.08
307.18	2594.78
307.39	2596.82
307.61	2740.18
307.82	2680.79
308.04	2752.47
308.25	2529.24
308.46	2703.32
308.68	2652.12
308.89	2654.17
309.10	2775.00
309.32	2676.70
309.53	2736.09
309.74	2764.76
309.96	2490.33
310.17	2686.94
310.39	2594.78
310.60	2824.15
310.81	2555.86
311.03	2527.19
311.24	2832.34
311.45	2707.41
311.67	2797.53
311.88	2680.79
312.09	2682.84
312.31	2686.94
312.52	2572.25
312.73	2602.97
312.95	2529.24
313.16	2592.73
313.37	2793.43
313.59	2736.09
313.80	2834.39
314.01	2979.79
314.23	2596.82
314.44	2562.01
314.65	2523.10
314.87	2615.26
315.08	2660.31
315.29	2623.45
315.51	2576.34
315.72	2508.76
315.93	2768.85
316.15	2695.13
316.36	2652.12
316.57	2725.85
316.79	2572.25
317.00	2551.77
317.21	2826.20
317.43	2605.02
317.64	2674.65
317.85	2447.32
318.07	2637.78
318.28	2617.30
318.49	2725.85
318.70	2856.92
318.92	2762.71
319.13	2826.20
319.34	2799.57
319.56	2701.27
319.77	2734.04
319.98	2822.10
320.20	2781.14
320.41	2672.60
320.62	2742.23
320.83	2615.26
321.05	2830.29
321.26	2654.17
321.47	2711.51
321.69	2797.53
321.90	2539.48
322.11	2437.08
322.32	2731.99
322.54	2967.51
322.75	2621.40
322.96	3207.12
323.18	2424.80
323.39	2394.08
323.60	2533.34
323.81	2688.98
324.03	2584.54
324.24	2660.31
324.45	2621.40
324.66	2609.11
324.88	2815.96
325.09	2877.40
325.30	2643.93
325.52	2602.97
325.73	2740.18
325.94	2670.55
326.15	2457.56
326.37	2570.20
326.58	2801.62
326.79	2992.08
327.00	2619.35
327.22	2570.20
327.43	2609.11
327.64	2576.34
327.85	2713.56
328.07	2691.03
328.28	3055.57
328.49	2615.26
328.70	2682.84
328.92	2574.30
329.13	2691.03
329.34	2744.28
329.55	2783.19
329.76	2699.22
329.98	2705.37
330.19	2981.84
330.40	2648.02
330.61	2672.60
330.83	2830.29
331.04	2596.82
331.25	2688.98
331.46	2596.82
331.68	2529.24
331.89	2822.10
332.10	2619.35
332.31	2461.66
332.52	2756.57
332.74	2813.91
332.95	2490.33
333.16	2541.53
333.37	2834.39
333.58	2695.13
333.80	2607.06
334.01	2396.12
334.22	2627.54
334.43	2619.35
334.64	2557.91
334.86	2510.81
335.07	2588.63
335.28	2934.74
335.49	2475.99
335.70	2658.26
335.92	2856.92
336.13	2963.41
336.34	2762.71
336.55	2535.39
336.76	2807.77
336.98	2471.90
337.19	2682.84
337.40	2715.61
337.61	2992.08
337.82	2682.84
338.04	2760.66
338.25	2432.99
338.46	2641.88
338.67	2703.32
338.88	2576.34
339.09	2439.13
339.31	2705.37
339.52	2521.05
339.73	2553.82
339.94	2643.93
340.15	2779.09
340.36	2699.22
340.58	2701.27
340.79	2568.15
341.00	2797.53
341.21	2564.06
341.42	2830.29
341.63	2590.68
341.85	2883.54
342.06	2746.33
342.27	2447.32
342.48	2736.09
342.69	2512.86
342.90	2762.71
343.12	2822.10
343.33	2568.15
343.54	2871.25
343.75	2893.78
343.96	2654.17
344.17	2465.75
344.38	2727.89
344.60	2633.69
344.81	2498.52
345.02	2586.58
345.23	2893.78
345.44	3071.95
345.65	2717.65
345.86	2592.73
346.07	2641.88
346.29	2645.98
346.50	2654.17
346.71	2678.74
346.92	2949.08
347.13	2969.55
347.34	2645.98
347.55	2562.01
347.76	2736.09
347.98	2527.19
348.19	2721.75
348.40	2801.62
348.61	2686.94
348.82	2916.31
349.03	2695.13
349.24	2551.77
349.45	2955.22
349.66	2467.80
349.88	2555.86
350.09	2504.67
350.30	2881.49
350.51	2807.77
350.72	2715.61
350.93	2621.40
351.14	2572.25
351.35	2840.53
351.56	2643.93
351.77	2619.35
351.99	2793.43
352.20	2899.92
352.41	2793.43
352.62	2461.66
352.83	2727.89
353.04	2678.74
353.25	2578.39
353.46	2715.61
353.67	2883.54
353.88	2340.83
354.09	2629.59
354.30	2629.59
354.52	2758.61
354.73	2617.30
354.94	2525.15
355.15	2617.30
355.36	3047.38
355.57	2609.11
355.78	2553.82
355.99	2539.48
356.20	2719.70
356.41	2881.49
356.62	2656.22
356.83	2635.74
357.04	2955.22
357.25	2453.47
357.46	2631.64
357.68	2514.91
357.89	2611.16
358.10	2691.03
358.31	2607.06
358.52	2592.73
358.73	2602.97
358.94	2564.06
359.15	2664.41
359.36	2729.94
359.57	2731.99
359.78	2691.03
359.99	2668.50
360.20	2510.81
360.41	2709.46
360.62	2738.13
360.83	2682.84
361.04	2643.93
361.25	2791.38
361.46	2975.70
361.67	2719.70
361.88	2678.74
362.09	2899.92
362.30	2775.00
362.51	2564.06
362.72	2602.97
362.93	2861.01
363.14	2740.18
363.35	2703.32
363.56	2514.91
363.78	2795.48
363.99	2904.02
364.20	2564.06
364.41	2703.32
364.62	3026.90
364.83	2746.33
365.04	2578.39
365.25	2602.97
365.46	2981.84
365.67	2637.78
365.88	2637.78
366.09	2598.87
366.30	2652.12
366.51	2705.37
366.72	2527.19
366.93	2684.89
367.14	2783.19
367.35	2990.03
367.56	2582.49
367.77	2660.31
367.98	2637.78
368.18	2801.62
368.39	2731.99
368.60	2496.47
368.81	2842.58
369.02	2699.22
369.23	2643.93
369.44	2416.60
369.65	2602.97
369.86	2688.98
370.07	2711.51
370.28	2553.82
370.49	2740.18
370.70	2852.82
370.91	2494.43
371.12	2432.99
371.33	2947.03
371.54	2633.69
371.75	2783.19
371.96	2359.26
372.17	2785.24
372.38	2652.12
372.59	2629.59
372.80	2496.47
373.01	2580.44
373.22	2688.98
373.43	2619.35
373.64	2537.43
373.85	2891.73
374.06	2953.17
374.26	2717.65
374.47	2723.80
374.68	2918.36
374.89	2777.05
375.10	2625.50
375.31	2727.89
375.52	2697.17
375.73	2744.28
375.94	2527.19
376.15	2785.24
376.36	2625.50
376.57	2645.98
376.78	2627.54
376.99	2707.41
377.20	2908.12
377.40	2791.38
377.61	2832.34
377.82	2533.34
378.03	2895.83
378.24	2928.60
378.45	2719.70
378.66	2719.70
378.87	2414.56
379.08	2490.33
379.29	2527.19
379.50	2764.76
379.71	2707.41
379.91	2797.53
380.12	2621.40
380.33	2723.80
380.54	2748.37
380.75	2680.79
380.96	2590.68
381.17	2678.74
381.38	2660.31
381.59	2678.74
381.80	2678.74
382.00	2803.67
382.21	2785.24
382.42	2975.70
382.63	2930.64
382.84	2750.42
383.05	2875.35
383.26	3004.37
383.47	2775.00
383.68	2682.84
383.88	2854.87
384.09	2731.99
384.30	2842.58
384.51	2721.75
384.72	2611.16
384.93	2498.52
385.14	2711.51
385.35	2695.13
385.55	2543.58
385.76	2901.97
385.97	2711.51
386.18	2588.63
386.39	2684.89
386.60	2666.46
386.81	2631.64
387.02	2557.91
387.22	2478.04
387.43	2840.53
387.64	2736.09
387.85	2824.15
388.06	2824.15
388.27	4052.93
388.48	7561.10
388.68	10805.08
388.89	13500.21
389.10	14380.84
389.31	13696.82
389.52	10682.20
389.73	9351.03
389.93	8597.37
390.14	7839.62
390.35	7045.01
390.56	6496.16
390.77	5304.24
390.98	4069.31
391.18	3397.58
391.39	3129.30
391.60	2758.61
391.81	2848.72
392.02	2615.26
392.23	3045.33
392.43	2727.89
392.64	2736.09
392.85	2613.21
393.06	2922.45
393.27	2684.89
393.47	2539.48
393.68	2645.98
393.89	2734.04
394.10	2871.25
394.31	2588.63
394.52	2576.34
394.72	2617.30
394.93	2926.55
395.14	2578.39
395.35	2674.65
395.56	2666.46
395.76	2731.99
395.97	2664.41
396.18	2760.66
396.39	2727.89
396.60	3215.31
396.80	2926.55
397.01	2842.58
397.22	2811.86
397.43	2842.58
397.64	2600.92
397.84	2686.94
398.05	3012.56
398.26	2662.36
398.47	2758.61
398.67	2803.67
398.88	2648.02
399.09	2869.20
399.30	2605.02
399.51	2738.13
399.71	2572.25
399.92	2777.05
400.13	2731.99
400.34	2715.61
400.54	2707.41
400.75	2928.60
400.96	2695.13
401.17	2879.44
401.37	2811.86
401.58	2775.00
401.79	2600.92
402.00	2693.08
402.21	3108.82
402.41	2934.74
402.62	2908.12
402.83	2930.64
403.04	3080.14
403.24	3327.95
403.45	2721.75
403.66	2944.98
403.87	2932.69
404.07	3006.42
404.28	2834.39
404.49	2897.88
404.70	2744.28
404.90	2799.57
405.11	2615.26
405.32	2717.65
405.52	2619.35
405.73	2588.63
405.94	2600.92
406.15	2686.94
406.35	2795.48
406.56	2834.39
406.77	2744.28
406.98	2592.73
407.18	2611.16
407.39	2918.36
407.60	2711.51
407.80	2666.46
408.01	2682.84
408.22	2803.67
408.43	2551.77
408.63	2682.84
408.84	2752.47
409.05	2813.91
409.25	2600.92
409.46	2564.06
409.67	2729.94
409.88	2592.73
410.08	2707.41
410.29	2580.44
410.50	2793.43
410.70	2783.19
410.91	2545.63
411.12	2760.66
411.32	2688.98
411.53	2582.49
411.74	2688.98
411.95	2752.47
412.15	2797.53
412.36	2822.10
412.57	2727.89
412.77	2885.59
412.98	2803.67
413.19	2717.65
413.39	2662.36
413.60	2635.74
413.81	2967.51
414.01	2580.44
414.22	2596.82
414.43	2750.42
414.63	2609.11
414.84	2856.92
415.05	2611.16
415.25	2519.00
415.46	2867.16
415.67	2678.74
415.87	2725.85
416.08	2629.59
416.29	2695.13
416.49	2736.09
416.70	2588.63
416.91	2623.45
417.11	2742.23
417.32	2850.77
417.53	2764.76
417.73	2719.70
417.94	2654.17
418.15	2678.74
418.35	2731.99
418.56	2648.02
418.77	3082.19
418.97	2738.13
419.18	2598.87
419.38	2344.92
419.59	2789.33
419.80	2957.27
420.00	2611.16
420.21	2627.54
420.42	2856.92
420.62	2725.85
420.83	2564.06
421.04	2664.41
421.24	2729.94
421.45	2783.19
421.65	2742.23
421.86	2699.22
422.07	2807.77
422.27	2756.57
422.48	2631.64
422.69	2486.23
422.89	2717.65
423.10	2650.07
423.30	2559.96
423.51	2635.74
423.72	2793.43
423.92	2809.81
424.13	2498.52
424.33	2652.12
424.54	2840.53
424.75	2719.70
424.95	2901.97
425.16	2670.55
425.36	2598.87
425.57	2949.08
425.78	2764.76
425.98	2760.66
426.19	2648.02
426.39	2643.93
426.60	2684.89
426.81	2813.91
427.01	2770.90
427.22	2654.17
427.42	2463.71
427.63	2580.44
427.83	2875.35
428.04	3014.61
428.25	2754.52
428.45	2729.94
428.66	2858.96
428.86	2758.61
429.07	2650.07
429.28	2664.41
429.48	2766.81
429.69	2623.45
429.89	2717.65
430.10	2525.15
430.30	2805.72
430.51	2906.07
430.71	2605.02
430.92	2682.84
431.13	2582.49
431.33	2775.00
431.54	2727.89
431.74	2801.62
431.95	3022.80
432.15	2590.68
432.36	2695.13
432.56	2715.61
432.77	2965.46
432.98	3002.32
433.18	2729.94
433.39	2486.23
433.59	2709.46
433.80	3080.14
434.00	2904.02
434.21	2678.74
434.41	2627.54
434.62	3059.67
434.82	2607.06
435.03	2596.82
435.23	2811.86
435.44	2514.91
435.64	2660.31
435.85	2760.66
436.06	2840.53
436.26	2842.58
436.47	2596.82
436.67	2594.78
436.88	2598.87
437.08	2887.64
437.29	2779.09
437.49	2717.65
437.70	2844.63
437.90	2711.51
438.11	2879.44
438.31	2693.08
438.52	2908.12
438.72	2940.88
438.93	2961.36
439.13	2656.22
439.34	2908.12
439.54	2731.99
439.75	2752.47
439.95	2795.48
440.16	2586.58
440.36	2715.61
440.57	2637.78
440.77	2652.12
440.98	2711.51
441.18	2744.28
441.39	2584.54
441.59	2555.86
441.80	3086.29
442.00	2793.43
442.21	2760.66
442.41	2555.86
442.62	2875.35
442.82	2588.63
443.02	2660.31
443.23	2648.02
443.43	2699.22
443.64	2881.49
443.84	2523.10
444.05	2731.99
444.25	2701.27
444.46	2650.07
444.66	2629.59
444.87	2838.48
445.07	2543.58
445.28	2662.36
445.48	2797.53
445.69	2815.96
445.89	3028.95
446.09	2688.98
446.30	2961.36
446.50	3086.29
446.71	4452.28
446.91	5556.14
447.12	6420.38
447.32	6789.02
447.53	6404.00
447.73	5388.21
447.93	4837.30
448.14	4501.44
448.34	4593.59
448.55	3772.36
448.75	3774.41
448.96	3606.47
449.16	3334.09
449.36	3256.27
449.57	2805.72
449.77	2727.89
449.98	2723.80
450.18	2846.68
450.39	2643.93
450.59	2764.76
450.79	2666.46
451.00	2639.83
451.20	2713.56
451.41	2635.74
451.61	2850.77
451.81	2639.83
452.02	2584.54
452.22	2678.74
452.43	2709.46
452.63	2566.10
452.84	2703.32
453.04	2590.68
453.24	2752.47
453.45	2672.60
453.65	2691.03
453.86	2656.22
454.06	2699.22
454.26	2744.28
454.47	2637.78
454.67	2832.34
454.87	2848.72
455.08	2707.41
455.28	2830.29
455.49	2721.75
455.69	2619.35
455.89	3153.87
456.10	2828.24
456.30	2625.50
456.51	2824.15
456.71	2791.38
456.91	2750.42
457.12	2742.23
457.32	2695.13
457.52	2578.39
457.73	2709.46
457.93	2768.85
458.14	2678.74
458.34	2551.77
458.54	2553.82
458.75	2619.35
458.95	2836.44
459.15	2736.09
459.36	2672.60
459.56	2727.89
459.76	2977.75
459.97	2688.98
460.17	2709.46
460.37	2772.95
460.58	2775.00
460.78	2875.35
460.99	2682.84
461.19	2678.74
461.39	2707.41
461.60	2627.54
461.80	2752.47
462.00	2516.95
462.21	2752.47
462.41	2527.19
462.61	2588.63
462.82	2523.10
463.02	2826.20
463.22	2691.03
463.43	2699.22
463.63	2582.49
463.83	2924.50
464.04	2791.38
464.24	2674.65
464.44	2564.06
464.64	2760.66
464.85	2842.58
465.05	2705.37
465.25	2623.45
465.46	2633.69
465.66	2883.54
465.86	2744.28
466.07	2662.36
466.27	2678.74
466.47	2529.24
466.68	2551.77
466.88	2838.48
467.08	2789.33
467.29	2826.20
467.49	2639.83
467.69	2686.94
467.89	2752.47
468.10	2664.41
468.30	2676.70
468.50	2770.90
468.71	2897.88
468.91	2592.73
469.11	2809.81
469.31	2723.80
469.52	2633.69
469.72	3037.14
469.92	2842.58
470.13	2627.54
470.33	2729.94
470.53	2861.01
470.73	3071.95
470.94	3252.17
471.14	3440.59
471.34	3862.47
471.54	3665.86
471.75	3336.14
471.95	3172.30
472.15	2987.99
472.36	3129.30
472.56	3131.34
472.76	3149.78
472.96	3055.57
473.17	2871.25
473.37	2858.96
473.57	2645.98
473.77	2844.63
473.98	2697.17
474.18	2529.24
474.38	3168.21
474.58	2725.85
474.79	2588.63
474.99	2680.79
475.19	2979.79
475.39	2588.63
475.60	2742.23
475.80	2680.79
476.00	2797.53
476.20	2719.70
476.41	2688.98
476.61	2740.18
476.81	2920.40
477.01	2607.06
477.21	2901.97
477.42	2815.96
477.62	2654.17
477.82	2815.96
478.02	2596.82
478.23	2729.94
478.43	2596.82
478.63	2740.18
478.83	2725.85
479.03	2691.03
479.24	2924.50
479.44	3016.66
479.64	2654.17
479.84	2547.67
480.04	2619.35
480.25	2793.43
480.45	2596.82
480.65	2637.78
480.85	2891.73
481.06	2648.02
481.26	2703.32
481.46	2668.50
481.66	2709.46
481.86	2557.91
482.06	2818.00
482.27	2697.17
482.47	2707.41
482.67	2731.99
482.87	2631.64
483.07	2803.67
483.28	2703.32
483.48	2641.88
483.68	2643.93
483.88	2521.05
484.08	2416.60
484.29	2533.34
484.49	2686.94
484.69	2445.27
484.89	2967.51
485.09	2955.22
485.29	2691.03
485.50	2660.31
485.70	2631.64
485.90	2887.64
486.10	2738.13
486.30	2715.61
486.50	2930.64
486.71	2770.90
486.91	2740.18
487.11	2770.90
487.31	2641.88
487.51	2748.37
487.71	2531.29
487.91	2521.05
488.12	2605.02
488.32	2422.75
488.52	2580.44
488.72	2445.27
488.92	2748.37
489.12	2818.00
489.32	2777.05
489.53	2621.40
489.73	2580.44
489.93	3000.27
490.13	2555.86
490.33	2500.57
490.53	2793.43
490.73	2836.44
490.94	2547.67
491.14	2781.14
491.34	2815.96
491.54	2918.36
491.74	3459.02
491.94	4007.87
492.14	4462.52
492.34	4550.59
492.54	4161.47
492.75	3581.90
492.95	3614.66
493.15	3420.11
493.35	3364.81
493.55	3198.93
493.75	3067.86
493.95	3254.22
494.15	2949.08
494.35	2682.84
494.56	2809.81
494.76	2656.22
494.96	2686.94
495.16	2611.16
495.36	2742.23
495.56	2772.95
495.76	2570.20
495.96	2594.78
496.16	2609.11
496.36	2992.08
496.56	2553.82
496.77	2600.92
496.97	2725.85
497.17	2924.50
497.37	2521.05
497.57	2695.13
497.77	2672.60
497.97	2600.92
498.17	2717.65
498.37	2656.22
498.57	2813.91
498.77	2727.89
498.97	2676.70
499.17	3002.32
499.38	2682.84
499.58	2852.82
499.78	2813.91
499.98	2858.96
500.18	2650.07
500.38	2609.11
500.58	2785.24
500.78	3270.61
500.98	5330.86
501.18	7239.57
501.38	8652.67
501.58	9576.30
501.78	9332.59
501.98	7575.44
502.18	6393.76
502.38	5531.56
502.58	5414.83
502.78	4771.77
502.98	4642.75
503.18	4478.91
503.38	4050.88
503.59	3483.59
503.79	3495.88
503.99	3219.41
504.19	3221.45
504.39	3213.26
504.59	3143.63
504.79	3071.95
504.99	3190.74
505.19	2979.79
505.39	2797.53
505.59	2985.94
505.79	2969.55
505.99	2875.35
506.19	2676.70
506.39	2838.48
506.59	2658.26
506.79	2707.41
506.99	2815.96
507.19	2668.50
507.39	2680.79
507.59	2521.05
507.79	2566.10
507.99	2584.54
508.19	2785.24
508.39	2641.88
508.59	2637.78
508.79	2809.81
508.99	2967.51
509.19	2682.84
509.39	2742.23
509.59	2639.83
509.79	2648.02
509.99	2711.51
510.19	2854.87
510.39	2756.57
510.59	2752.47
510.79	2576.34
510.99	2562.01
511.19	2676.70
511.39	2959.31
511.59	2877.40
511.79	2811.86
511.99	2607.06
512.19	2977.75
512.38	2760.66
512.58	2611.16
512.78	2574.30
512.98	2856.92
513.18	2928.60
513.38	2584.54
513.58	2744.28
513.78	2707.41
513.98	2703.32
514.18	2645.98
514.38	2701.27
514.58	2791.38
514.78	2668.50
514.98	2467.80
515.18	2629.59
515.38	2627.54
515.58	3022.80
515.78	2586.58
515.98	2705.37
516.18	2762.71
516.38	2734.04
516.57	2592.73
516.77	2613.21
516.97	2725.85
517.17	2617.30
517.37	2430.94
517.57	2756.57
517.77	2734.04
517.97	2553.82
518.17	2744.28
518.37	2590.68
518.57	2654.17
518.77	2650.07
518.97	2650.07
519.16	2717.65
519.36	2971.60
519.56	2643.93
519.76	2572.25
519.96	2670.55
520.16	2965.46
520.36	2611.16
520.56	2809.81
520.76	2551.77
520.96	2582.49
521.16	2807.77
521.35	2850.77
521.55	2760.66
521.75	2658.26
521.95	2678.74
522.15	2627.54
522.35	2514.91
522.55	2549.72
522.75	2803.67
522.95	2654.17
523.14	2557.91
523.34	2775.00
523.54	2662.36
523.74	2760.66
523.94	2727.89
524.14	2504.67
524.34	2840.53
524.54	2789.33
524.73	2598.87
524.93	2807.77
525.13	2809.81
525.33	2527.19
525.53	2963.41
525.73	2766.81
525.93	2764.76
526.13	2637.78
526.32	2648.02
526.52	2852.82
526.72	2930.64
526.92	2676.70
527.12	2617.30
527.32	2572.25
527.52	2691.03
527.71	2637.78
527.91	2648.02
528.11	2715.61
528.31	2658.26
528.51	2580.44
528.71	2731.99
528.90	2867.16
529.10	2852.82
529.30	2801.62
529.50	2346.97
529.70	2738.13
529.90	2752.47
530.09	2666.46
530.29	2584.54
530.49	2553.82
530.69	3114.96
530.89	2682.84
531.09	2752.47
531.28	2713.56
531.48	2856.92
531.68	2686.94
531.88	2635.74
532.08	2899.92
532.28	2742.23
532.47	2740.18
532.67	2717.65
532.87	2801.62
533.07	2600.92
533.27	2738.13
533.46	2709.46
533.66	2840.53
533.86	2719.70
534.06	2619.35
534.26	2711.51
534.45	2682.84
534.65	2832.34
534.85	2684.89
535.05	2537.43
535.25	2824.15
535.44	2492.38
535.64	2740.18
535.84	2652.12
536.04	2643.93
536.24	2693.08
536.43	2602.97
536.63	2715.61
536.83	2680.79
537.03	2658.26
537.22	2463.71
537.42	2539.48
537.62	2809.81
537.82	2557.91
538.02	2793.43
538.21	2742.23
538.41	3141.58
538.61	2848.72
538.81	2627.54
539.00	2746.33
539.20	2512.86
539.40	2719.70
539.60	2686.94
539.79	2734.04
539.99	2713.56
540.19	2631.64
540.39	2660.31
540.58	2729.94
540.78	2867.16
540.98	2676.70
541.18	2736.09
541.37	2676.70
541.57	2748.37
541.77	2813.91
541.97	2566.10
542.16	2432.99
542.36	2645.98
542.56	2643.93
542.76	2906.07
542.95	2731.99
543.15	2805.72
543.35	2791.38
543.54	2553.82
543.74	2588.63
543.94	2787.29
544.14	2613.21
544.33	2775.00
544.53	2588.63
544.73	2693.08
544.93	2676.70
545.12	2719.70
545.32	2680.79
545.52	2674.65
545.71	2553.82
545.91	2654.17
546.11	2574.30
546.30	2498.52
546.50	2729.94
546.70	2678.74
546.90	2711.51
547.09	2430.94
547.29	2715.61
547.49	2807.77
547.68	2678.74
547.88	2641.88
548.08	2787.29
548.27	3024.85
548.47	2635.74
548.67	2772.95
548.87	2758.61
549.06	2592.73
549.26	2555.86
549.46	2729.94
549.65	2715.61
549.85	2705.37
550.05	2734.04
550.24	2529.24
550.44	2682.84
550.64	2643.93
550.83	2715.61
551.03	2959.31
551.23	2754.52
551.42	2711.51
551.62	2643.93
551.82	2668.50
552.01	2691.03
552.21	2910.16
552.41	2682.84
552.60	3010.51
552.80	2758.61
553.00	2596.82
553.19	2654.17
553.39	2973.65
553.59	2584.54
553.78	2760.66
553.98	2674.65
554.17	2531.29
554.37	2691.03
554.57	2674.65
554.76	2609.11
554.96	2559.96
555.16	2719.70
555.35	2721.75
555.55	2738.13
555.75	2840.53
555.94	2852.82
556.14	2508.76
556.33	2748.37
556.53	2676.70
556.73	2783.19
556.92	2760.66
557.12	2645.98
557.32	2971.60
557.51	2889.68
557.71	2772.95
557.90	2832.34
558.10	2842.58
558.30	2705.37
558.49	2617.30
558.69	2592.73
558.88	2795.48
559.08	2729.94
559.28	2598.87
559.47	2713.56
559.67	2811.86
559.86	2987.99
560.06	2742.23
560.26	2596.82
560.45	2858.96
560.65	2719.70
560.84	2854.87
561.04	2594.78
561.24	2830.29
561.43	2621.40
561.63	2854.87
561.82	2725.85
562.02	2820.05
562.22	2676.70
562.41	2572.25
562.61	2652.12
562.80	2588.63
563.00	3039.19
563.19	2717.65
563.39	2715.61
563.59	2699.22
563.78	2613.21
563.98	2363.36
564.17	2633.69
564.37	2523.10
564.56	2680.79
564.76	2512.86
564.96	2856.92
565.15	2766.81
565.35	3043.28
565.54	2615.26
565.74	2701.27
565.93	2754.52
566.13	2691.03
566.32	2770.90
566.52	2707.41
566.71	2740.18
566.91	2803.67
567.11	2744.28
567.30	2527.19
567.50	2832.34
567.69	2840.53
567.89	2643.93
568.08	2623.45
568.28	2736.09
568.47	2570.20
568.67	2727.89
568.86	2580.44
569.06	2815.96
569.25	2729.94
569.45	2547.67
569.64	2576.34
569.84	2598.87
570.04	2695.13
570.23	2564.06
570.43	2619.35
570.62	2750.42
570.82	3006.42
571.01	2564.06
571.21	2578.39
571.40	2568.15
571.60	2813.91
571.79	2637.78
571.99	2654.17
572.18	2602.97
572.38	2713.56
572.57	2674.65
572.77	2756.57
572.96	3168.21
573.16	2764.76
573.35	2629.59
573.55	2832.34
573.74	2824.15
573.94	2731.99
574.13	2666.46
574.33	2815.96
574.52	2867.16
574.71	2740.18
574.91	2680.79
575.10	2533.34
575.30	2650.07
575.49	2615.26
575.69	2541.53
575.88	2670.55
576.08	2688.98
576.27	2881.49
576.47	2639.83
576.66	2799.57
576.86	2858.96
577.05	2793.43
577.25	2777.05
577.44	2879.44
577.64	2670.55
577.83	2908.12
578.02	2654.17
578.22	2787.29
578.41	2992.08
578.61	2682.84
578.80	2525.15
579.00	2691.03
579.19	2734.04
579.39	2799.57
579.58	2777.05
579.77	2688.98
579.97	2891.73
580.16	2922.45
580.36	2840.53
580.55	2766.81
580.75	2740.18
580.94	2846.68
581.13	2875.35
581.33	2897.88
581.52	2752.47
581.72	2963.41
581.91	2824.15
582.11	2705.37
582.30	2783.19
582.49	2725.85
582.69	2899.92
582.88	2727.89
583.08	2768.85
583.27	2949.08
583.47	2635.74
583.66	2648.02
583.85	2705.37
584.05	2764.76
584.24	2783.19
584.44	2670.55
584.63	2895.83
584.82	2869.20
585.02	2873.30
585.21	2912.21
585.41	2951.12
585.60	2758.61
585.79	2979.79
585.99	2901.97
586.18	2912.21
586.37	3518.41
586.57	5433.26
586.76	15853.33
586.96	34977.26
587.15	48020.77
587.34	56300.71
587.54	60953.69
587.73	54256.84
587.93	38438.33
588.12	29369.92
588.31	23787.16
588.51	20981.44
588.70	19054.30
588.89	17020.67
589.09	14339.88
589.28	12408.64
589.47	9922.41
589.67	7667.60
589.86	5959.59
590.06	4444.09
590.25	3887.04
590.44	3497.93
590.64	3102.67
590.83	3006.42
591.02	2998.23
591.22	2793.43
591.41	2775.00
591.60	2795.48
591.80	3092.43
591.99	2676.70
592.18	2695.13
592.38	2840.53
592.57	2607.06
592.76	2764.76
592.96	2779.09
593.15	2709.46
593.34	2922.45
593.54	2654.17
593.73	2717.65
593.92	2775.00
594.12	2826.20
594.31	2682.84
594.50	2920.40
594.70	2826.20
594.89	3104.72
595.08	2615.26
595.28	2809.81
595.47	3198.93
595.66	2908.12
595.86	2625.50
596.05	2600.92
596.24	2596.82
596.43	3014.61
596.63	2772.95
596.82	2764.76
597.01	2719.70
597.21	3010.51
597.40	2717.65
597.59	2713.56
597.79	2744.28
597.98	2824.15
598.17	2731.99
598.36	2686.94
598.56	2865.11
598.75	2613.21
598.94	2688.98
599.14	2654.17
599.33	2701.27
599.52	2832.34
599.71	2752.47
599.91	2731.99
600.10	2879.44
600.29	2775.00
600.48	2791.38
600.68	2758.61
600.87	2729.94
601.06	2658.26
601.26	2686.94
601.45	2764.76
601.64	2680.79
601.83	2906.07
602.03	2650.07
602.22	2508.76
602.41	2861.01
602.60	3137.49
602.80	2719.70
602.99	2781.14
603.18	2629.59
603.37	2731.99
603.57	2672.60
603.76	2664.41
603.95	2965.46
604.14	2666.46
604.34	2705.37
604.53	2629.59
604.72	2686.94
604.91	2848.72
605.10	2707.41
605.30	2545.63
605.49	3022.80
605.68	2779.09
605.87	2750.42
606.07	2650.07
606.26	2727.89
606.45	2842.58
606.64	2711.51
606.84	2543.58
607.03	2756.57
607.22	2766.81
607.41	2643.93
607.60	2553.82
607.80	2893.78
607.99	2740.18
608.18	2666.46
608.37	2744.28
608.56	2652.12
608.76	2873.30
608.95	2871.25
609.14	2643.93
609.33	2955.22
609.52	2918.36
609.72	2707.41
609.91	2809.81
610.10	2752.47
610.29	2914.26
610.48	2764.76
610.68	2752.47
610.87	2707.41
611.06	2789.33
611.25	2691.03
611.44	2760.66
611.63	2772.95
611.83	2891.73
612.02	2615.26
612.21	2791.38
612.40	2426.84
612.59	2602.97
612.79	2568.15
612.98	2686.94
613.17	2975.70
613.36	2701.27
613.55	2785.24
613.74	2697.17
613.93	2801.62
614.13	2885.59
614.32	2793.43
614.51	2807.77
614.70	2760.66
614.89	2711.51
615.08	2785.24
615.28	3147.73
615.47	2545.63
615.66	2783.19
615.85	2719.70
616.04	2770.90
616.23	2742.23
616.42	2686.94
616.62	2664.41
616.81	2793.43
617.00	2768.85
617.19	2842.58
617.38	2605.02
617.57	2746.33
617.76	2752.47
617.95	2822.10
618.15	2840.53
618.34	2871.25
618.53	2572.25
618.72	2809.81
618.91	2824.15
619.10	2752.47
619.29	2691.03
619.48	2756.57
619.68	2504.67
619.87	2682.84
620.06	2619.35
620.25	2795.48
620.44	2572.25
620.63	2551.77
620.82	2744.28
621.01	2787.29
621.20	2688.98
621.39	2756.57
621.59	2793.43
621.78	2744.28
621.97	2717.65
622.16	2693.08
622.35	2793.43
622.54	2813.91
622.73	2822.10
622.92	2467.80
623.11	2916.31
623.30	2707.41
623.49	2736.09
623.68	2598.87
623.88	2842.58
624.07	2715.61
624.26	2643.93
624.45	2684.89
624.64	2777.05
624.83	2691.03
625.02	2627.54
625.21	2656.22
625.40	2836.44
625.59	2867.16
625.78	2750.42
625.97	2834.39
626.16	2928.60
626.35	2889.68
626.54	2809.81
626.74	2842.58
626.93	2691.03
627.12	2766.81
627.31	2777.05
627.50	2801.62
627.69	2957.27
627.88	2609.11
628.07	2537.43
628.26	2506.71
628.45	2637.78
628.64	2619.35
628.83	2580.44
629.02	2471.90
629.21	2760.66
629.40	2793.43
629.59	2537.43
629.78	2691.03
629.97	2818.00
630.16	2754.52
630.35	2672.60
630.54	2662.36
630.73	2674.65
630.92	2746.33
631.11	2566.10
631.30	2652.12
631.49	2795.48
631.68	2719.70
631.87	2721.75
632.06	2500.57
632.25	3055.57
632.44	2727.89
632.63	2727.89
632.82	2635.74
633.01	2627.54
633.20	2809.81
633.39	2611.16
633.58	2500.57
633.77	2752.47
633.96	2887.64
634.15	2801.62
634.34	2762.71
634.53	2793.43
634.72	2648.02
634.91	2496.47
635.10	2672.60
635.29	2893.78
635.48	2662.36
635.67	2574.30
635.86	2531.29
636.05	2981.84
636.24	2707.41
636.43	2719.70
636.62	2744.28
636.81	2387.93
637.00	2715.61
637.19	2707.41
637.38	2584.54
637.57	2615.26
637.76	2740.18
637.95	2785.24
638.14	2686.94
638.33	2801.62
638.52	2762.71
638.71	2574.30
638.89	2529.24
639.08	3067.86
639.27	2912.21
639.46	2781.14
639.65	3162.06
639.84	3096.53
640.03	3362.76
640.22	3106.77
640.41	3125.20
640.60	2826.20
640.79	2953.17
640.98	2781.14
641.17	2865.11
641.36	2910.16
641.55	2893.78
641.74	2572.25
641.92	2664.41
642.11	2559.96
642.30	2619.35
642.49	2525.15
642.68	2555.86
642.87	2834.39
643.06	2863.06
643.25	2549.72
643.44	2533.34
643.63	2764.76
643.82	2830.29
644.00	2549.72
644.19	2723.80
644.38	2555.86
644.57	2811.86
644.76	2609.11
644.95	2723.80
645.14	2725.85
645.33	2740.18
645.52	2664.41
645.71	2514.91
645.89	2586.58
646.08	2748.37
646.27	2652.12
646.46	2899.92
646.65	2539.48
646.84	2731.99
647.03	2508.76
647.22	2768.85
647.40	2734.04
647.59	2662.36
647.78	2453.47
647.97	2621.40
648.16	2629.59
648.35	2926.55
648.54	2818.00
648.73	2648.02
648.91	2879.44
649.10	2799.57
649.29	2570.20
649.48	2582.49
649.67	2707.41
649.86	2770.90
650.05	2637.78
650.23	2930.64
650.42	2670.55
650.61	2965.46
650.80	2795.48
650.99	2940.88
651.18	2850.77
651.36	2813.91
651.55	2637.78
651.74	2795.48
651.93	2758.61
652.12	2678.74
652.31	2676.70
652.49	2662.36
652.68	2744.28
652.87	2944.98
653.06	2772.95
653.25	2832.34
653.44	2787.29
653.62	2965.46
653.81	2652.12
654.00	2637.78
654.19	2836.44
654.38	3104.72
654.56	2746.33
654.75	2619.35
654.94	2869.20
655.13	2775.00
655.32	2629.59
655.51	2703.32
655.69	2633.69
655.88	2793.43
656.07	2514.91
656.26	2736.09
656.45	2547.67
656.63	2754.52
656.82	2664.41
657.01	2856.92
657.20	2650.07
657.38	3006.42
657.57	2643.93
657.76	2414.56
657.95	2842.58
658.14	2711.51
658.32	2705.37
658.51	2564.06
658.70	2742.23
658.89	2811.86
659.08	2746.33
659.26	2924.50
659.45	2582.49
659.64	2850.77
659.83	2684.89
660.01	3088.34
660.20	2713.56
660.39	3002.32
660.58	2402.27
660.76	2744.28
660.95	2543.58
661.14	2764.76
661.33	2537.43
661.51	2609.11
661.70	2727.89
661.89	2775.00
662.08	2635.74
662.26	2494.43
662.45	2496.47
662.64	3012.56
662.83	2621.40
663.01	2557.91
663.20	2682.84
663.39	2891.73
663.58	2629.59
663.76	2572.25
663.95	2830.29
664.14	2611.16
664.32	2590.68
664.51	2549.72
664.70	2406.36
664.89	2768.85
665.07	2572.25
665.26	2748.37
665.45	2568.15
665.64	2752.47
665.82	2596.82
666.01	2832.34
666.20	2531.29
666.38	2889.68
666.57	2858.96
666.76	4147.14
666.95	9975.66
667.13	16815.87
667.32	20995.78
667.51	23629.46
667.69	24788.61
667.88	21579.45
668.07	15316.76
668.25	12937.02
668.44	11048.79
668.63	9475.95
668.81	8365.95
669.00	7341.97
669.19	6530.97
669.38	5668.78
669.56	4962.23
669.75	4265.92
669.94	3758.02
670.12	3235.79
670.31	2953.17
670.50	2959.31
670.68	2957.27
670.87	2746.33
671.06	2684.89
671.24	2662.36
671.43	3039.19
671.62	2797.53
671.80	2678.74
671.99	2684.89
672.18	2789.33
672.36	2803.67
672.55	2729.94
672.74	2682.84
672.92	2643.93
673.11	2766.81
673.29	2586.58
673.48	2840.53
673.67	2713.56
673.85	2912.21
674.04	2555.86
674.23	2713.56
674.41	2914.26
674.60	2570.20
674.79	2494.43
674.97	2566.10
675.16	2770.90
675.34	2752.47
675.53	2568.15
675.72	2688.98
675.90	2920.40
676.09	2617.30
676.28	2731.99
676.46	2525.15
676.65	2846.68
676.83	2570.20
677.02	2768.85
677.21	2727.89
677.39	2734.04
677.58	2557.91
677.77	2656.22
677.95	2588.63
678.14	2723.80
678.32	2678.74
678.51	2559.96
678.70	2969.55
678.88	2537.43
679.07	2723.80
679.25	2588.63
679.44	2680.79
679.63	2580.44
679.81	2731.99
680.00	2899.92
680.18	2719.70
680.37	2955.22
680.55	2768.85
680.74	2510.81
680.93	2455.51
681.11	2781.14
681.30	2695.13
681.48	2746.33
681.67	2668.50
681.85	2709.46
682.04	2564.06
682.23	2744.28
682.41	2736.09
682.60	2654.17
682.78	2680.79
682.97	2504.67
683.15	2621.40
683.34	2684.89
683.53	2934.74
683.71	2498.52
683.90	2858.96
684.08	3014.61
684.27	2641.88
684.45	2752.47
684.64	2854.87
684.82	2699.22
685.01	2842.58
685.19	2590.68
685.38	2764.76
685.57	2748.37
685.75	2549.72
685.94	2596.82
686.12	2525.15
686.31	2617.30
686.49	2908.12
686.68	2488.28
686.86	2770.90
687.05	2684.89
687.23	2936.79
687.42	2543.58
687.60	2500.57
687.79	2801.62
687.97	2938.84
688.16	2744.28
688.34	2799.57
688.53	2543.58
688.71	2795.48
688.90	2852.82
689.08	2648.02
689.27	2488.28
689.45	2895.83
689.64	2756.57
689.82	2695.13
690.01	2824.15
690.19	2785.24
690.38	2621.40
690.56	2818.00
690.75	2504.67
690.93	2609.11
691.12	2633.69
691.30	2645.98
691.49	2703.32
691.67	2709.46
691.86	2998.23
692.04	2607.06
692.23	2645.98
692.41	2686.94
692.60	3000.27
692.78	2842.58
692.97	2731.99
693.15	2756.57
693.34	2932.69
693.52	2797.53
693.71	2645.98
693.89	2594.78
694.08	2432.99
694.26	2701.27
694.44	2856.92
694.63	2818.00
694.81	2594.78
695.00	2666.46
695.18	2899.92
695.37	3024.85
695.55	2758.61
695.74	2613.21
695.92	2662.36
696.10	2949.08
696.29	2523.10
696.47	2678.74
696.66	2572.25
696.84	2519.00
697.03	2758.61
697.21	2893.78
697.40	4063.17
697.58	2883.54
697.76	2607.06
697.95	2580.44
698.13	2611.16
698.32	2654.17
698.50	2752.47
698.68	2742.23
698.87	2822.10
699.05	3018.71
699.24	2688.98
699.42	2559.96
699.61	2740.18
699.79	2750.42
699.97	2691.03
700.16	2512.86
700.34	2564.06
700.53	2764.76
700.71	2826.20
700.89	2762.71
701.08	2654.17
701.26	2725.85
701.45	3170.26
701.63	2523.10
701.81	2641.88
702.00	2549.72
702.18	2662.36
702.37	2578.39
702.55	2904.02
702.73	2807.77
702.92	2648.02
703.10	2912.21
703.28	2861.01
703.47	2607.06
703.65	2922.45
703.84	2865.11
704.02	2660.31
704.20	2928.60
704.39	2504.67
704.57	2586.58
704.75	2867.16
704.94	2760.66
705.12	2785.24
705.30	3065.81
705.49	5715.88
705.67	11804.49
705.86	17649.39
706.04	20156.11
706.22	22372.01
706.41	22140.59
706.59	17716.98
706.77	13164.34
706.96	11538.26
707.14	10262.37
707.32	8875.90
707.51	7825.29
707.69	6459.29
707.87	5349.29
708.06	4372.41
708.24	3891.14
708.42	3393.48
708.61	3475.40
708.79	2719.70
708.97	2822.10
709.16	2873.30
709.34	2760.66
709.52	2670.55
709.71	2652.12
709.89	2807.77
710.07	2541.53
710.26	2519.00
710.44	2602.97
710.62	2820.05
710.80	2699.22
710.99	2711.51
711.17	2797.53
711.35	2686.94
711.54	2662.36
711.72	2811.86
711.90	2793.43
712.09	2699.22
712.27	2664.41
712.45	2785.24
712.63	2643.93
712.82	2797.53
713.00	2748.37
713.18	2785.24
713.37	2805.72
713.55	2748.37
713.73	2811.86
713.91	2684.89
714.10	2654.17
714.28	2736.09
714.46	2768.85
714.65	2662.36
714.83	2697.17
715.01	2734.04
715.19	2754.52
715.38	2547.67
715.56	2725.85
715.74	2555.86
715.92	2652.12
716.11	2887.64
716.29	2418.65
716.47	2656.22
716.65	2691.03
716.84	2473.95
717.02	2750.42
717.20	2439.13
717.38	2555.86
717.57	2731.99
717.75	2744.28
717.93	2674.65
718.11	2740.18
718.30	2564.06
718.48	2695.13
718.66	2867.16
718.84	2904.02
719.03	2588.63
719.21	2574.30
719.39	2947.03
719.57	2934.74
719.75	2785.24
719.94	2588.63
720.12	2652.12
720.30	2727.89
720.48	2756.57
720.67	2631.64
720.85	2580.44
721.03	2633.69
721.21	2568.15
721.39	2813.91
721.58	2785.24
721.76	2738.13
721.94	2703.32
722.12	2815.96
722.30	2922.45
722.49	2656.22
722.67	2719.70
722.85	2723.80
723.03	2531.29
723.21	2625.50
723.40	2674.65
723.58	2772.95
723.76	2797.53
723.94	2854.87
724.12	2703.32
724.30	2858.96
724.49	2785.24
724.67	2613.21
724.85	2797.53
725.03	2541.53
725.21	2815.96
725.40	2848.72
725.58	2699.22
725.76	2826.20
725.94	2744.28
726.12	2586.58
726.30	2623.45
726.49	2580.44
726.67	2590.68
726.85	2791.38
727.03	3133.39
727.21	4128.70
727.39	5140.40
727.57	5519.28
727.76	6160.29
727.94	6080.42
728.12	5519.28
728.30	4612.03
728.48	4280.25
728.66	3973.06
728.84	3678.15
729.03	3375.05
729.21	3184.59
729.39	3012.56
729.57	2865.11
729.75	2848.72
729.93	2746.33
730.11	2709.46
730.30	2662.36
730.48	2674.65
730.66	2803.67
730.84	2758.61
731.02	2779.09
731.20	2619.35
731.38	2701.27
731.56	2547.67
731.74	2537.43
731.93	2756.57
732.11	2727.89
732.29	2666.46
732.47	2809.81
732.65	2725.85
732.83	2873.30
733.01	2766.81
733.19	2611.16
733.37	2795.48
733.56	2682.84
733.74	2564.06
733.92	2840.53
734.10	2570.20
734.28	2768.85
734.46	2447.32
734.64	2639.83
734.82	2674.65
735.00	2578.39
735.18	2662.36
735.36	2699.22
735.54	2676.70
735.73	2697.17
735.91	2811.86
736.09	2846.68
736.27	2668.50
736.45	2777.05
736.63	2432.99
736.81	2740.18
736.99	2793.43
737.17	2873.30
737.35	2641.88
737.53	2670.55
737.71	2660.31
737.89	2797.53
738.07	2555.86
738.25	2703.32
738.43	2648.02
738.61	2654.17
738.80	2613.21
738.98	2580.44
739.16	2643.93
739.34	2580.44
739.52	2936.79
739.70	2676.70
739.88	2836.44
740.06	2766.81
740.24	2420.70
740.42	2852.82
740.60	2541.53
740.78	2596.82
740.96	2439.13
741.14	2688.98
741.32	2688.98
741.50	2549.72
741.68	2908.12
741.86	2938.84
742.04	2545.63
742.22	2553.82
742.40	2709.46
742.58	2758.61
742.76	2598.87
742.94	2822.10
743.12	2467.80
743.30	2666.46
743.48	2828.24
743.66	2572.25
743.84	2670.55
744.02	2744.28
744.20	2650.07
744.38	2600.92
744.56	2562.01
744.74	3022.80
744.92	2758.61
745.10	2875.35
745.28	2734.04
745.46	2947.03
745.64	2652.12
745.82	2754.52
746.00	2592.73
746.18	2805.72
746.36	2576.34
746.54	2627.54
746.72	2682.84
746.90	2607.06
747.08	2871.25
747.26	2656.22
747.44	2736.09
747.62	2738.13
747.80	2779.09
747.98	2785.24
748.15	2607.06
748.33	2998.23
748.51	2717.65
748.69	2719.70
748.87	2566.10
749.05	2602.97
749.23	2703.32
749.41	2762.71
749.59	2613.21
749.77	2912.21
749.95	2623.45
750.13	2584.54
750.31	2686.94
750.49	2695.13
750.67	2850.77
750.85	2744.28
751.03	2717.65
751.20	3008.47
751.38	2695.13
751.56	2672.60
751.74	2668.50
751.92	2635.74
752.10	2527.19
752.28	2783.19
752.46	2627.54
752.64	2727.89
752.82	2717.65
753.00	2744.28
753.18	2572.25
753.35	2652.12
753.53	2676.70
753.71	2639.83
753.89	2719.70
754.07	2731.99
754.25	2850.77
754.43	2688.98
754.61	2568.15
754.79	2809.81
754.97	2742.23
755.14	2916.31
755.32	2500.57
755.50	2701.27
755.68	2789.33
755.86	2533.34
756.04	2492.38
756.22	2484.19
756.40	2805.72
756.57	2883.54
756.75	2652.12
756.93	2824.15
757.11	2803.67
757.29	2568.15
757.47	2566.10
757.65	2482.14
757.82	2383.84
758.00	2539.48
758.18	2625.50
758.36	2574.30
758.54	3010.51
758.72	2514.91
758.90	2777.05
759.07	2717.65
759.25	2578.39
759.43	2750.42
759.61	2504.67
759.79	3801.03
759.97	2842.58
760.15	2627.54
760.32	2633.69
760.50	2799.57
760.68	2977.75
760.86	2553.82
761.04	2809.81
761.22	2826.20
761.39	2693.08
761.57	2768.85
761.75	2652.12
761.93	2723.80
762.11	2645.98
762.28	2639.83
762.46	2543.58
762.64	2881.49
762.82	2461.66
763.00	2609.11
763.18	2848.72
763.35	2611.16
763.53	2885.59
763.71	2664.41
763.89	2617.30
764.07	2779.09
764.24	2727.89
764.42	2731.99
764.60	2662.36
764.78	2785.24
764.96	2852.82
765.13	2781.14
765.31	2639.83
765.49	2834.39
765.67	2541.53
765.84	2629.59
766.02	2643.93
766.20	2508.76
766.38	2729.94
766.56	2787.29
766.73	2809.81
766.91	2684.89
767.09	2766.81
767.27	2744.28
767.44	2541.53
767.62	2772.95
767.80	2748.37
767.98	2654.17
768.15	2650.07
768.33	2824.15
768.51	2805.72
768.69	2744.28
768.87	2727.89
769.04	2756.57
769.22	3059.67
769.40	2826.20
769.58	2887.64
769.75	2785.24
769.93	2891.73
770.11	2633.69
770.28	2598.87
770.46	2772.95
770.64	2715.61
770.82	2662.36
770.99	2623.45
771.17	2834.39
771.35	2637.78
771.53	2715.61
771.70	2650.07
771.88	2809.81
772.06	2697.17
772.23	2619.35
772.41	2688.98
772.59	2703.32
772.77	2547.67
772.94	2617.30
773.12	2672.60
773.30	2639.83
773.47	2826.20
773.65	2605.02
773.83	2842.58
774.01	2756.57
774.18	2459.61
774.36	2727.89
774.54	2572.25
774.71	2789.33
774.89	2500.57
775.07	2531.29
775.24	2582.49
775.42	2676.70
775.60	2914.26
775.78	2582.49
775.95	2523.10
776.13	2498.52
776.31	2445.27
776.48	2707.41
776.66	2850.77
776.84	2633.69
777.01	2568.15
777.19	2602.97
777.37	2574.30
777.54	2826.20
777.72	3016.66
777.90	2777.05
778.07	2611.16
778.25	3153.87
778.43	2830.29
778.60	2531.29
778.78	2684.89
778.96	2875.35
779.13	2637.78
779.31	2715.61
779.49	2672.60
779.66	2756.57
779.84	2686.94
780.01	2625.50
780.19	2576.34
780.37	2897.88
780.54	2863.06
780.72	2514.91
780.90	2564.06
781.07	2697.17
781.25	2639.83
781.43	2791.38
781.60	2660.31
781.78	2920.40
781.95	2727.89
782.13	2562.01
782.31	2682.84
782.48	2463.71
782.66	2736.09
782.83	2918.36
783.01	2731.99
783.19	2957.27
783.36	2672.60
783.54	2562.01
783.72	2789.33
783.89	2711.51
784.07	2754.52
784.24	2770.90
784.42	2805.72
784.60	2660.31
784.77	2791.38
784.95	2465.75
785.12	2619.35
785.30	2775.00
785.47	2639.83
785.65	2605.02
785.83	2641.88
786.00	2676.70
786.18	2752.47
786.35	2529.24
786.53	2572.25
786.71	2805.72
786.88	2797.53
787.06	2703.32
787.23	2715.61
787.41	2510.81
787.58	2748.37
787.76	2543.58
787.94	2645.98
788.11	2760.66
788.29	2531.29
788.46	2543.58
788.64	2516.95
788.81	2645.98
788.99	2590.68
789.16	2555.86
789.34	2629.59
789.52	2652.12
789.69	2756.57
789.87	2435.03
790.04	2590.68
790.22	2736.09
790.39	2920.40
790.57	2502.62
790.74	2531.29
790.92	2797.53
791.09	2400.22
791.27	2602.97
791.44	2805.72
791.62	2711.51
791.79	2844.63
791.97	2705.37
792.15	3071.95
792.32	2875.35
792.50	2830.29
792.67	2844.63
792.85	2904.02
793.02	2775.00
793.20	2695.13
793.37	2525.15
793.55	2625.50
793.72	2525.15
793.90	2785.24
794.07	2557.91
794.25	2559.96
794.42	2701.27
794.60	2709.46
794.77	2725.85
794.95	2736.09
795.12	2828.24
795.30	2645.98
795.47	2387.93
795.65	2942.93
795.82	2779.09
796.00	2570.20
796.17	2611.16
796.34	2596.82
796.52	2752.47
796.69	2758.61
796.87	2822.10
797.04	2756.57
797.22	2838.48
797.39	2750.42
797.57	2832.34
797.74	2729.94
797.92	2738.13
798.09	2605.02
798.27	2842.58
798.44	2652.12
798.62	2539.48
798.79	2815.96
798.96	2658.26
799.14	2623.45
799.31	3086.29
799.49	2731.99
799.66	2562.01
799.84	2713.56
800.01	2584.54
800.19	2713.56
800.36	2467.80
800.53	2705.37
800.71	2742.23
800.88	2967.51
801.06	2527.19
801.23	2592.73
801.41	2676.70
801.58	2637.78
801.75	2607.06
801.93	2725.85
802.10	2875.35
802.28	2588.63
802.45	2559.96
802.63	2711.51
802.80	2879.44
802.97	2752.47
803.15	2635.74
803.32	2580.44
803.50	2594.78
803.67	2590.68
803.84	2625.50
804.02	2605.02
804.19	2678.74
804.37	2428.89
804.54	2574.30
804.71	2574.30
804.89	2760.66
805.06	2510.81
805.24	2553.82
805.41	2590.68
805.58	2631.64
805.76	3090.38
805.93	2652.12
806.10	2818.00
806.28	2775.00
806.45	2725.85
806.63	2725.85
806.80	2717.65
806.97	2748.37
807.15	2703.32
807.32	2715.61
807.49	2598.87
807.67	2586.58
807.84	2772.95
808.01	2422.75
808.19	2918.36
808.36	3043.28
808.54	2617.30
808.71	2615.26
808.88	2701.27
809.06	2906.07
809.23	2977.75
809.40	2570.20
809.58	2637.78
809.75	2750.42
809.92	2650.07
810.10	2936.79
810.27	2684.89
810.44	2748.37
810.62	2805.72
810.79	2754.52
810.96	2553.82
811.14	2637.78
811.31	2705.37
811.48	2721.75
811.66	2602.97
811.83	2818.00
812.00	2791.38
812.18	2764.76
812.35	3010.51
812.52	2725.85
812.69	2613.21
812.87	2594.78
813.04	2547.67
813.21	2680.79
813.39	2627.54
813.56	2469.85
813.73	2838.48
813.91	2543.58
814.08	2652.12
814.25	2682.84
814.42	2535.39
814.60	2670.55
814.77	2754.52
814.94	2785.24
815.12	2697.17
815.29	2938.84
815.46	2602.97
815.63	2648.02
815.81	2666.46
815.98	2695.13
816.15	2637.78
816.33	2695.13
816.50	2617.30
816.67	2725.85
816.84	2602.97
817.02	2494.43
817.19	2650.07
817.36	2695.13
817.53	2789.33
817.71	2519.00
817.88	2711.51
818.05	2701.27
818.22	2709.46
818.40	2885.59
818.57	2578.39
818.74	2781.14
818.91	2670.55
819.09	2768.85
819.26	2699.22
819.43	2621.40
819.60	2574.30
819.78	2760.66
819.95	2725.85
820.12	2590.68
820.29	2930.64
820.47	2848.72
820.64	2592.73
820.81	2502.62
820.98	2641.88
821.15	2613.21
821.33	2740.18
821.50	2457.56
821.67	2758.61
821.84	2555.86
822.02	2668.50
822.19	2826.20
822.36	2639.83
822.53	2602.97
822.70	2525.15
822.88	2605.02
823.05	2897.88
823.22	2691.03
823.39	2691.03
823.56	2723.80
823.74	2936.79
823.91	2609.11
824.08	2549.72
824.25	2574.30
824.42	2936.79
824.60	2529.24
824.77	2813.91
824.94	2621.40
825.11	2770.90
825.28	2480.09
825.45	2740.18
825.63	2693.08
825.80	2596.82
825.97	2668.50
826.14	2697.17
826.31	2564.06
826.48	2760.66
826.66	2586.58
826.83	2566.10
827.00	2717.65
827.17	2555.86
827.34	2600.92
827.51	2641.88
827.69	2723.80
827.86	2498.52
828.03	2697.17
828.20	2666.46
828.37	2619.35
828.54	2709.46
828.71	2525.15
828.89	2758.61
829.06	2766.81
829.23	2979.79
829.40	2545.63
829.57	2633.69
829.74	2924.50
829.91	2623.45
830.09	2598.87
830.26	2772.95
830.43	2971.60
830.60	2707.41
830.77	2721.75
830.94	2756.57
831.11	2852.82
831.28	2695.13
831.46	2805.72
831.63	2574.30
831.80	2826.20
831.97	2637.78
832.14	2588.63
832.31	2713.56
832.48	2688.98
832.65	2875.35
832.82	2684.89
832.99	2678.74
833.17	2535.39
833.34	2985.94
833.51	2629.59
833.68	2498.52
833.85	2842.58
834.02	2553.82
834.19	2637.78
834.36	2549.72
834.53	2715.61
834.70	2887.64
834.87	2672.60
835.04	2410.46
835.22	2582.49
835.39	2701.27
835.56	2412.51
835.73	2547.67
835.90	2791.38
836.07	2570.20
836.24	2707.41
836.41	2527.19
836.58	2602.97
836.75	2824.15
836.92	2555.86
837.09	2519.00
837.26	2740.18
837.43	2748.37
837.60	2629.59
837.77	2607.06
837.94	2756.57
838.12	2883.54
838.29	2465.75
838.46	2506.71
838.63	2580.44
838.80	2959.31
838.97	2580.44
839.14	2504.67
839.31	2795.48
839.48	2834.39
839.65	2627.54
839.82	2713.56
839.99	2848.72
840.16	2713.56
840.33	2521.05
840.50	2643.93
840.67	2605.02
840.84	2373.60
841.01	2480.09
841.18	2607.06
841.35	2652.12
841.52	2803.67
841.69	2914.26
841.86	2635.74
842.03	2744.28
842.20	2799.57
842.37	2598.87
842.54	2521.05
842.71	2760.66
842.88	2506.71
843.05	2580.44
843.22	2555.86
843.39	2863.06
843.56	2701.27
843.73	2516.95
843.90	2619.35
844.07	2797.53
844.24	2834.39
844.41	2607.06
844.58	2596.82
844.75	2701.27
844.92	2805.72
845.09	2613.21
845.26	2553.82
845.43	2818.00
845.60	2635.74
845.77	2611.16
845.94	2650.07
846.10	2865.11
846.27	2465.75
846.44	2371.55
846.61	2424.80
846.78	2832.34
846.95	2881.49
847.12	2553.82
847.29	2529.24
847.46	2547.67
847.63	2861.01
847.80	2469.85
847.97	2590.68
848.14	3039.19
848.31	2695.13
848.48	2463.71
848.65	2625.50
848.82	2564.06
848.98	3104.72
849.15	2611.16
849.32	2654.17
849.49	2879.44
849.66	2703.32
849.83	2592.73
850.00	2418.65
850.17	2754.52
850.34	2662.36
850.51	2504.67
850.68	2549.72
850.85	3069.91
851.01	2717.65
851.18	2572.25
851.35	2564.06
851.52	2826.20
851.69	2916.31
851.86	2463.71
852.03	2496.47
852.20	2781.14
852.37	2680.79
852.53	2420.70
852.70	2502.62
852.87	2760.66
853.04	2826.20
853.21	2602.97
853.38	2783.19
853.55	2916.31
853.72	2867.16
853.89	2432.99
854.05	2506.71
854.22	2719.70
854.39	2680.79
854.56	2523.10
854.73	2777.05
854.90	2484.19
855.07	2719.70
855.23	2498.52
855.40	2527.19
855.57	2619.35
855.74	2428.89
855.91	2748.37
856.08	2437.08
856.25	2539.48
856.41	2625.50
856.58	2545.63
856.75	2535.39
856.92	2527.19
857.09	2863.06
857.26	2377.69
857.42	2514.91
857.59	2832.34
857.76	2717.65
857.93	2510.81
858.10	2650.07
858.27	2551.77
858.43	2777.05
858.60	2494.43
858.77	2396.12
858.94	2658.26
859.11	2867.16
859.27	2574.30
859.44	2457.56
859.61	3008.47
859.78	2779.09
859.95	2576.34
860.12	2514.91
860.28	2949.08
860.45	2969.55
860.62	2496.47
860.79	2678.74
860.95	2600.92
861.12	2547.67
861.29	2490.33
861.46	2498.52
861.63	2723.80
861.79	2801.62
861.96	2506.71
862.13	2500.57
862.30	2904.02
862.47	2574.30
862.63	2475.99
862.80	2598.87
862.97	2711.51
863.14	2764.76
863.30	2629.59
863.47	2469.85
863.64	2938.84
863.81	2738.13
863.97	2562.01
864.14	2617.30
864.31	2641.88
864.48	2672.60
864.65	2557.91
864.81	2609.11
864.98	2846.68
865.15	2854.87
865.32	2676.70
865.48	2680.79
865.65	3004.37
865.82	2611.16
865.98	2633.69
866.15	2588.63
866.32	2662.36
866.49	2625.50
866.65	2734.04
866.82	2559.96
866.99	2625.50
867.16	2678.74
867.32	2510.81
867.49	2584.54
867.66	2662.36
867.83	2629.59
867.99	2385.88
868.16	2504.67
868.33	2598.87
868.49	2713.56
868.66	2625.50
868.83	2725.85
868.99	2719.70
869.16	2639.83
869.33	2605.02
869.50	2590.68
869.66	2748.37
869.83	2635.74
870.00	2408.41
870.16	2654.17
870.33	2590.68
870.50	2852.82
870.66	2652.12
870.83	2635.74
871.00	2662.36
871.17	2738.13
871.33	2652.12
871.50	2578.39
871.67	2727.89
871.83	2486.23
872.00	2695.13
872.17	2625.50
872.33	3006.42
872.50	2854.87
872.67	2586.58
872.83	2533.34
873.00	2783.19
873.17	2799.57
873.33	2602.97
873.50	2670.55
873.67	2590.68
873.83	2635.74
874.00	2584.54
874.16	2617.30
874.33	2793.43
874.50	2582.49
874.66	2553.82
874.83	2619.35
875.00	2873.30
875.16	2799.57
875.33	2572.25
875.50	2412.51
875.66	2609.11
875.83	2682.84
875.99	2682.84
876.16	2621.40
876.33	2635.74
876.49	2734.04
876.66	2633.69
876.83	2660.31
876.99	2529.24
877.16	2764.76
877.32	2512.86
877.49	2570.20
877.66	2795.48
877.82	2920.40
877.99	2602.97
878.15	2740.18
878.32	2676.70
878.49	2756.57
878.65	2553.82
878.82	2846.68
878.98	2617.30
879.15	2795.48
879.32	2697.17
879.48	2594.78
879.65	2707.41
879.81	2631.64
879.98	2527.19
880.15	2627.54
880.31	2848.72
880.48	2648.02
880.64	2678.74
880.81	2766.81
880.97	3014.61
881.14	2885.59
881.31	2506.71
881.47	2781.14
881.64	2613.21
881.80	2453.47
881.97	2678.74
882.13	2547.67
882.30	2582.49
882.47	2602.97
882.63	2537.43
882.80	2496.47
882.96	2600.92
883.13	2850.77
883.29	2559.96
883.46	2609.11
883.62	2998.23
883.79	2674.65
883.95	2703.32
884.12	2557.91
884.29	2830.29
884.45	2717.65
884.62	2543.58
884.78	2500.57
884.95	2881.49
885.11	2682.84
885.28	2672.60
885.44	2598.87
885.61	2832.34
885.77	2875.35
885.94	2709.46
886.10	2621.40
886.27	2758.61
886.43	2879.44
886.60	2713.56
886.76	2574.30
886.93	2574.30
887.09	2791.38
887.26	2455.51
887.42	2617.30
887.59	2916.31
887.75	2994.13
887.92	2709.46
888.08	2746.33
888.25	3010.51
888.41	2783.19
888.58	2629.59
888.74	2502.62
888.91	2645.98
>>>>>End Processed Spectral Data<<<<<
