SpectraSuite Data File
++++++++++++++++++++++++++++++++++++
Date: Thu May 05 16:21:00 CEST 2016
User: root
Dark Spectrum Present: No
Reference Spectrum Present: No
Number of Sampled Component Spectra: 1
Spectrometers: USB4C02835
Integration Time (usec): 100000 (USB4C02835)
Spectra Averaged: 1 (USB4C02835)
Boxcar Smoothing: 0 (USB4C02835)
Correct for Electrical Dark: No (USB4C02835)
Strobe/Lamp Enabled: No (USB4C02835)
Correct for Detector Non-linearity: No (USB4C02835)
Correct for Stray Light: No (USB4C02835)
Number of Pixels in Processed Spectrum: 3648
>>>>>Begin Processed Spectral Data<<<<<
177.47	2080.74
177.69	2080.74
177.91	2080.74
178.13	2031.58
178.36	1996.77
178.58	2596.82
178.80	2801.62
179.02	2531.29
179.24	2502.62
179.46	2449.37
179.68	2584.54
179.90	2713.56
180.13	2709.46
180.35	2389.98
180.57	2523.10
180.79	2840.53
181.01	2731.99
181.23	2549.72
181.45	2625.50
181.67	2830.29
181.90	2826.20
182.12	2551.77
182.34	2363.36
182.56	2842.58
182.78	2785.24
183.00	2492.38
183.22	2457.56
183.44	2488.28
183.66	3180.50
183.89	2660.31
184.11	2570.20
184.33	2822.10
184.55	2887.64
184.77	2562.01
184.99	2598.87
185.21	2641.88
185.43	3067.86
185.65	2494.43
185.87	2482.14
186.10	3026.90
186.32	3133.39
186.54	2691.03
186.76	2605.02
186.98	2899.92
187.20	2693.08
187.42	2553.82
187.64	2521.05
187.86	2676.70
188.08	2873.30
188.30	2422.75
188.52	2537.43
188.75	2824.15
188.97	2936.79
189.19	2559.96
189.41	2553.82
189.63	2813.91
189.85	2699.22
190.07	2447.32
190.29	2392.03
190.51	2721.75
190.73	2580.44
190.95	2676.70
191.17	2492.38
191.39	2490.33
191.61	2670.55
191.84	2523.10
192.06	2723.80
192.28	2506.71
192.50	3119.06
192.72	2611.16
192.94	2637.78
193.16	2873.30
193.38	2772.95
193.60	2392.03
193.82	2617.30
194.04	2899.92
194.26	2762.71
194.48	2535.39
194.70	2473.95
194.92	2711.51
195.14	2760.66
195.36	2488.28
195.58	2596.82
195.80	2691.03
196.02	2562.01
196.24	2539.48
196.46	2602.97
196.69	2633.69
196.91	3076.05
197.13	2617.30
197.35	2572.25
197.57	2973.65
197.79	2736.09
198.01	2553.82
198.23	2523.10
198.45	2803.67
198.67	2621.40
198.89	2428.89
199.11	2615.26
199.33	2588.63
199.55	2451.42
199.77	2451.42
199.99	2668.50
200.21	2623.45
200.43	2750.42
200.65	2461.66
200.87	2326.49
201.09	2695.13
201.31	2752.47
201.53	2619.35
201.75	2623.45
201.97	2719.70
202.19	2752.47
202.41	2721.75
202.63	2650.07
202.85	2785.24
203.07	2721.75
203.29	2600.92
203.51	2402.27
203.73	2658.26
203.95	3143.63
204.17	2529.24
204.39	2680.79
204.61	2762.71
204.83	2760.66
205.05	2639.83
205.27	2557.91
205.49	3000.27
205.71	2674.65
205.93	2402.27
206.15	2519.00
206.37	2701.27
206.59	2740.18
206.81	2463.71
207.03	2467.80
207.25	2594.78
207.47	2809.81
207.69	2533.34
207.91	2715.61
208.13	2932.69
208.34	2750.42
208.56	2473.95
208.78	2531.29
209.00	2625.50
209.22	2660.31
209.44	2607.06
209.66	2521.05
209.88	2709.46
210.10	2740.18
210.32	2508.76
210.54	2615.26
210.76	2645.98
210.98	2848.72
211.20	2400.22
211.42	2574.30
211.64	2830.29
211.86	2754.52
212.08	2529.24
212.30	2553.82
212.52	2668.50
212.74	2756.57
212.96	2570.20
213.17	2543.58
213.39	2813.91
213.61	2889.68
213.83	2506.71
214.05	2412.51
214.27	2920.40
214.49	2500.57
214.71	2502.62
214.93	2596.82
215.15	2746.33
215.37	2942.93
215.59	2519.00
215.81	2582.49
216.03	2924.50
216.24	2791.38
216.46	2572.25
216.68	2574.30
216.90	2809.81
217.12	2879.44
217.34	2510.81
217.56	2605.02
217.78	2899.92
218.00	2779.09
218.22	2572.25
218.44	2590.68
218.66	2713.56
218.87	3100.62
219.09	2529.24
219.31	2535.39
219.53	2760.66
219.75	2711.51
219.97	2553.82
220.19	2566.10
220.41	2682.84
220.63	2969.55
220.85	2498.52
221.06	2512.86
221.28	2906.07
221.50	2891.73
221.72	2498.52
221.94	2482.14
222.16	2783.19
222.38	2779.09
222.60	2566.10
222.82	2568.15
223.03	2910.16
223.25	2613.21
223.47	2490.33
223.69	2723.80
223.91	2791.38
224.13	2731.99
224.35	2473.95
224.57	2668.50
224.78	2834.39
225.00	2611.16
225.22	2596.82
225.44	2473.95
225.66	2789.33
225.88	2678.74
226.10	2654.17
226.32	2500.57
226.53	2856.92
226.75	2709.46
226.97	2605.02
227.19	2441.18
227.41	2570.20
227.63	2617.30
227.85	2351.07
228.06	2648.02
228.28	2756.57
228.50	2818.00
228.72	2383.84
228.94	2475.99
229.16	2506.71
229.37	2570.20
229.59	2445.27
229.81	2697.17
230.03	2658.26
230.25	2500.57
230.47	2392.03
230.69	2392.03
230.90	2836.44
231.12	2619.35
231.34	2645.98
231.56	2637.78
231.78	2502.62
232.00	2711.51
232.21	2506.71
232.43	2514.91
232.65	2447.32
232.87	2736.09
233.09	2432.99
233.30	2449.37
233.52	2861.01
233.74	2740.18
233.96	2506.71
234.18	2619.35
234.40	2660.31
234.61	3147.73
234.83	2447.32
235.05	2465.75
235.27	3127.25
235.49	2938.84
235.70	2475.99
235.92	2498.52
236.14	2797.53
236.36	3106.77
236.58	2428.89
236.79	2605.02
237.01	2688.98
237.23	2758.61
237.45	2699.22
237.67	2488.28
237.88	2809.81
238.10	2957.27
238.32	2447.32
238.54	2478.04
238.76	2705.37
238.97	2619.35
239.19	2414.56
239.41	2580.44
239.63	2785.24
239.85	2613.21
240.06	2570.20
240.28	2449.37
240.50	2805.72
240.72	2744.28
240.93	2394.08
241.15	2619.35
241.37	2635.74
241.59	2934.74
241.81	2547.67
242.02	2506.71
242.24	2791.38
242.46	2836.44
242.68	2420.70
242.89	2461.66
243.11	2832.34
243.33	2688.98
243.55	2547.67
243.76	2674.65
243.98	2717.65
244.20	2672.60
244.42	2492.38
244.64	2539.48
244.85	2527.19
245.07	2516.95
245.29	2596.82
245.51	2498.52
245.72	2762.71
245.94	2854.87
246.16	2519.00
246.38	2590.68
246.59	2596.82
246.81	2580.44
247.03	2564.06
247.24	2369.50
247.46	2723.80
247.68	2750.42
247.90	2396.12
248.11	2543.58
248.33	2832.34
248.55	2682.84
248.77	2602.97
248.98	2564.06
249.20	2944.98
249.42	2744.28
249.64	2457.56
249.85	2553.82
250.07	2654.17
250.29	2865.11
250.50	2645.98
250.72	2365.40
250.94	2772.95
251.16	3008.47
251.37	2490.33
251.59	2564.06
251.81	2756.57
252.02	2897.88
252.24	2418.65
252.46	2631.64
252.68	2609.11
252.89	2660.31
253.11	2338.78
253.33	2617.30
253.54	2934.74
253.76	2570.20
253.98	2457.56
254.20	2531.29
254.41	2471.90
254.63	2703.32
254.85	2392.03
255.06	2602.97
255.28	2789.33
255.50	2699.22
255.71	2488.28
255.93	2400.22
256.15	2695.13
256.36	2807.77
256.58	2383.84
256.80	2523.10
257.02	2662.36
257.23	2656.22
257.45	2473.95
257.67	2652.12
257.88	2670.55
258.10	2852.82
258.32	2535.39
258.53	2537.43
258.75	3012.56
258.97	2631.64
259.18	2486.23
259.40	2488.28
259.62	2949.08
259.83	2996.18
260.05	2580.44
260.27	3258.32
260.48	2840.53
260.70	2594.78
260.92	2383.84
261.13	2492.38
261.35	2693.08
261.57	2895.83
261.78	2396.12
262.00	2447.32
262.22	2850.77
262.43	2570.20
262.65	2537.43
262.86	2504.67
263.08	3055.57
263.30	2740.18
263.51	2310.11
263.73	2539.48
263.95	2904.02
264.16	2623.45
264.38	2426.84
264.60	2537.43
264.81	2664.41
265.03	2897.88
265.25	2801.62
265.46	2478.04
265.68	2908.12
265.89	2820.05
266.11	2416.60
266.33	2486.23
266.54	2908.12
266.76	2777.05
266.98	2613.21
267.19	2621.40
267.41	2889.68
267.62	2742.23
267.84	2398.17
268.06	2607.06
268.27	2736.09
268.49	2899.92
268.70	2590.68
268.92	2488.28
269.14	2566.10
269.35	2506.71
269.57	2564.06
269.79	2656.22
270.00	2586.58
270.22	2916.31
270.43	2426.84
270.65	2457.56
270.87	2760.66
271.08	2752.47
271.30	2574.30
271.51	2473.95
271.73	2811.86
271.95	2955.22
272.16	2461.66
272.38	2615.26
272.59	2709.46
272.81	2865.11
273.02	2504.67
273.24	2621.40
273.46	2934.74
273.67	2629.59
273.89	2435.03
274.10	2555.86
274.32	2922.45
274.54	2684.89
274.75	2535.39
274.97	2607.06
275.18	2861.01
275.40	2750.42
275.61	2625.50
275.83	2641.88
276.05	2508.76
276.26	2674.65
276.48	2691.03
276.69	2582.49
276.91	2658.26
277.12	2928.60
277.34	2744.28
277.55	2768.85
277.77	2764.76
277.99	2709.46
278.20	2578.39
278.42	2453.47
278.63	2682.84
278.85	2566.10
279.06	2529.24
279.28	2695.13
279.49	2887.64
279.71	2889.68
279.93	2699.22
280.14	2650.07
280.36	2621.40
280.57	2813.91
280.79	2688.98
281.00	2568.15
281.22	2645.98
281.43	2875.35
281.65	2322.40
281.86	2521.05
282.08	2777.05
282.29	3020.75
282.51	2500.57
282.73	2447.32
282.94	2490.33
283.16	2805.72
283.37	2754.52
283.59	2645.98
283.80	2873.30
284.02	2715.61
284.23	2656.22
284.45	2533.34
284.66	2598.87
284.88	2611.16
285.09	2572.25
285.31	2723.80
285.52	2715.61
285.74	2521.05
285.95	2805.72
286.17	2641.88
286.38	2854.87
286.60	2572.25
286.81	2652.12
287.03	2564.06
287.24	2688.98
287.46	2770.90
287.67	2693.08
287.89	2807.77
288.10	2676.70
288.32	2748.37
288.53	2783.19
288.75	2736.09
288.96	2836.44
289.18	2611.16
289.39	2672.60
289.61	2674.65
289.82	3059.67
290.04	2926.55
290.25	2516.95
290.47	2648.02
290.68	2686.94
290.90	2826.20
291.11	2480.09
291.33	2666.46
291.54	2656.22
291.76	2672.60
291.97	2658.26
292.18	2631.64
292.40	2654.17
292.61	2623.45
292.83	2906.07
293.04	2691.03
293.26	2703.32
293.47	2707.41
293.69	2529.24
293.90	2594.78
294.12	2824.15
294.33	2756.57
294.55	2682.84
294.76	2684.89
294.97	2916.31
295.19	2975.70
295.40	2547.67
295.62	2674.65
295.83	2793.43
296.05	2592.73
296.26	2793.43
296.48	2521.05
296.69	2719.70
296.90	2727.89
297.12	2713.56
297.33	2768.85
297.55	2770.90
297.76	2752.47
297.98	2670.55
298.19	2615.26
298.41	2742.23
298.62	2535.39
298.83	2799.57
299.05	2619.35
299.26	2803.67
299.48	2594.78
299.69	2748.37
299.90	2572.25
300.12	2629.59
300.33	2891.73
300.55	2717.65
300.76	2668.50
300.98	2543.58
301.19	2891.73
301.40	2627.54
301.62	2549.72
301.83	2799.57
302.05	2801.62
302.26	2648.02
302.47	2662.36
302.69	2559.96
302.90	2750.42
303.12	2402.27
303.33	2731.99
303.54	3071.95
303.76	2639.83
303.97	2664.41
304.19	2805.72
304.40	2539.48
304.61	2748.37
304.83	2795.48
305.04	2713.56
305.26	2842.58
305.47	2709.46
305.68	2688.98
305.90	2537.43
306.11	2824.15
306.33	2691.03
306.54	2463.71
306.75	2535.39
306.97	2463.71
307.18	2549.72
307.39	2557.91
307.61	2676.70
307.82	2684.89
308.04	2799.57
308.25	2516.95
308.46	2779.09
308.68	2756.57
308.89	2670.55
309.10	2691.03
309.32	2662.36
309.53	2791.38
309.74	2770.90
309.96	2527.19
310.17	2697.17
310.39	2652.12
310.60	2873.30
310.81	2633.69
311.03	2523.10
311.24	2901.97
311.45	2686.94
311.67	2820.05
311.88	2719.70
312.09	2674.65
312.31	2598.87
312.52	2541.53
312.73	2580.44
312.95	2562.01
313.16	2576.34
313.37	2746.33
313.59	2719.70
313.80	2826.20
314.01	2924.50
314.23	2537.43
314.44	2594.78
314.65	2539.48
314.87	2568.15
315.08	2594.78
315.29	2639.83
315.51	2643.93
315.72	2539.48
315.93	2729.94
316.15	2627.54
316.36	2670.55
316.57	2676.70
316.79	2713.56
317.00	2553.82
317.21	2766.81
317.43	2592.73
317.64	2654.17
317.85	2539.48
318.07	2645.98
318.28	2723.80
318.49	2752.47
318.70	2783.19
318.92	2719.70
319.13	2809.81
319.34	2744.28
319.56	2680.79
319.77	2805.72
319.98	2897.88
320.20	2815.96
320.41	2703.32
320.62	2799.57
320.83	2578.39
321.05	2871.25
321.26	2600.92
321.47	2648.02
321.69	2914.26
321.90	2625.50
322.11	2547.67
322.32	2715.61
322.54	2981.84
322.75	2631.64
322.96	3180.50
323.18	2498.52
323.39	2537.43
323.60	2494.43
323.81	2711.51
324.03	2625.50
324.24	2715.61
324.45	2637.78
324.66	2537.43
324.88	2883.54
325.09	2963.41
325.30	2619.35
325.52	2566.10
325.73	2756.57
325.94	2531.29
326.15	2492.38
326.37	2498.52
326.58	2834.39
326.79	2926.55
327.00	2527.19
327.22	2660.31
327.43	2596.82
327.64	2578.39
327.85	2703.32
328.07	2590.68
328.28	3057.62
328.49	2564.06
328.70	2621.40
328.92	2564.06
329.13	2619.35
329.34	2738.13
329.55	2836.44
329.76	2719.70
329.98	2809.81
330.19	3002.32
330.40	2711.51
330.61	2645.98
330.83	2846.68
331.04	2543.58
331.25	2680.79
331.46	2590.68
331.68	2453.47
331.89	2897.88
332.10	2629.59
332.31	2512.86
332.52	2707.41
332.74	2842.58
332.95	2443.23
333.16	2664.41
333.37	2815.96
333.58	2660.31
333.80	2586.58
334.01	2418.65
334.22	2764.76
334.43	2625.50
334.64	2568.15
334.86	2541.53
335.07	2506.71
335.28	2848.72
335.49	2498.52
335.70	2715.61
335.92	2914.26
336.13	3014.61
336.34	2721.75
336.55	2637.78
336.76	2818.00
336.98	2447.32
337.19	2576.34
337.40	2719.70
337.61	3061.71
337.82	2678.74
338.04	2707.41
338.25	2416.60
338.46	2615.26
338.67	2676.70
338.88	2568.15
339.09	2467.80
339.31	2629.59
339.52	2590.68
339.73	2551.77
339.94	2650.07
340.15	2820.05
340.36	2643.93
340.58	2592.73
340.79	2502.62
341.00	2813.91
341.21	2496.47
341.42	2793.43
341.63	2559.96
341.85	2893.78
342.06	2678.74
342.27	2539.48
342.48	2723.80
342.69	2500.57
342.90	2723.80
343.12	2818.00
343.33	2543.58
343.54	2957.27
343.75	2904.02
343.96	2598.87
344.17	2547.67
344.38	2645.98
344.60	2527.19
344.81	2494.43
345.02	2605.02
345.23	2893.78
345.44	3133.39
345.65	2715.61
345.86	2650.07
346.07	2758.61
346.29	2566.10
346.50	2697.17
346.71	2629.59
346.92	2934.74
347.13	2998.23
347.34	2627.54
347.55	2514.91
347.76	2795.48
347.98	2547.67
348.19	2621.40
348.40	2844.63
348.61	2654.17
348.82	2940.88
349.03	2686.94
349.24	2596.82
349.45	2959.31
349.66	2441.18
349.88	2627.54
350.09	2535.39
350.30	2981.84
350.51	2963.41
350.72	2770.90
350.93	2621.40
351.14	2658.26
351.35	2756.57
351.56	2613.21
351.77	2619.35
351.99	2871.25
352.20	2961.36
352.41	2699.22
352.62	2463.71
352.83	2713.56
353.04	2631.64
353.25	2623.45
353.46	2635.74
353.67	2885.59
353.88	2453.47
354.09	2605.02
354.30	2625.50
354.52	2807.77
354.73	2697.17
354.94	2553.82
355.15	2676.70
355.36	2930.64
355.57	2613.21
355.78	2568.15
355.99	2607.06
356.20	2645.98
356.41	2904.02
356.62	2738.13
356.83	2660.31
357.04	2897.88
357.25	2432.99
357.46	2629.59
357.68	2482.14
357.89	2656.22
358.10	2678.74
358.31	2629.59
358.52	2564.06
358.73	2523.10
358.94	2553.82
359.15	2656.22
359.36	2727.89
359.57	2777.05
359.78	2709.46
359.99	2740.18
360.20	2519.00
360.41	2711.51
360.62	2799.57
360.83	2691.03
361.04	2588.63
361.25	2775.00
361.46	2949.08
361.67	2742.23
361.88	2691.03
362.09	2867.16
362.30	2740.18
362.51	2555.86
362.72	2643.93
362.93	2785.24
363.14	2760.66
363.35	2648.02
363.56	2504.67
363.78	2916.31
363.99	2791.38
364.20	2570.20
364.41	2662.36
364.62	2953.17
364.83	2811.86
365.04	2588.63
365.25	2678.74
365.46	3094.48
365.67	2572.25
365.88	2676.70
366.09	2600.92
366.30	2582.49
366.51	2815.96
366.72	2537.43
366.93	2586.58
367.14	2723.80
367.35	2879.44
367.56	2588.63
367.77	2731.99
367.98	2748.37
368.18	2797.53
368.39	2691.03
368.60	2498.52
368.81	2875.35
369.02	2662.36
369.23	2621.40
369.44	2512.86
369.65	2627.54
369.86	2854.87
370.07	2736.09
370.28	2492.38
370.49	2818.00
370.70	2760.66
370.91	2555.86
371.12	2484.19
371.33	2897.88
371.54	2664.41
371.75	2727.89
371.96	2398.17
372.17	2777.05
372.38	2682.84
372.59	2611.16
372.80	2584.54
373.01	2598.87
373.22	2785.24
373.43	2578.39
373.64	2510.81
373.85	2895.83
374.06	2944.98
374.26	2846.68
374.47	2705.37
374.68	2852.82
374.89	2713.56
375.10	2508.76
375.31	2748.37
375.52	2721.75
375.73	2656.22
375.94	2494.43
376.15	2707.41
376.36	2637.78
376.57	2731.99
376.78	2543.58
376.99	2684.89
377.20	2961.36
377.40	2635.74
377.61	2920.40
377.82	2482.14
378.03	2908.12
378.24	2775.00
378.45	2693.08
378.66	2627.54
378.87	2473.95
379.08	2502.62
379.29	2598.87
379.50	2756.57
379.71	2699.22
379.91	2824.15
380.12	2605.02
380.33	2605.02
380.54	2770.90
380.75	2701.27
380.96	2609.11
381.17	2688.98
381.38	2707.41
381.59	2764.76
381.80	2613.21
382.00	2818.00
382.21	2752.47
382.42	2967.51
382.63	2906.07
382.84	2660.31
383.05	2869.20
383.26	2981.84
383.47	2652.12
383.68	2633.69
383.88	2750.42
384.09	2684.89
384.30	2891.73
384.51	2648.02
384.72	2627.54
384.93	2545.63
385.14	2693.08
385.35	2830.29
385.55	2514.91
385.76	2936.79
385.97	2652.12
386.18	2510.81
386.39	2578.39
386.60	2686.94
386.81	2541.53
387.02	2508.76
387.22	2527.19
387.43	2916.31
387.64	2678.74
387.85	2842.58
388.06	2797.53
388.27	3977.16
388.48	7618.44
388.68	10794.84
388.89	13371.19
389.10	14405.41
389.31	13696.82
389.52	10721.12
389.73	9484.14
389.93	8552.32
390.14	7833.48
390.35	7159.70
390.56	6391.71
390.77	5349.29
390.98	4036.55
391.18	3473.36
391.39	3112.91
391.60	2785.24
391.81	2850.77
392.02	2527.19
392.23	3121.10
392.43	2801.62
392.64	2756.57
392.85	2701.27
393.06	2920.40
393.27	2721.75
393.47	2504.67
393.68	2664.41
393.89	2617.30
394.10	2975.70
394.31	2641.88
394.52	2584.54
394.72	2637.78
394.93	2885.59
395.14	2596.82
395.35	2668.50
395.56	2584.54
395.76	2715.61
395.97	2609.11
396.18	2766.81
396.39	2768.85
396.60	3205.07
396.80	2901.97
397.01	2813.91
397.22	2848.72
397.43	2856.92
397.64	2584.54
397.84	2797.53
398.05	2955.22
398.26	2731.99
398.47	2752.47
398.67	2721.75
398.88	2660.31
399.09	2748.37
399.30	2619.35
399.51	2674.65
399.71	2645.98
399.92	2680.79
400.13	2629.59
400.34	2660.31
400.54	2746.33
400.75	3000.27
400.96	2666.46
401.17	2887.64
401.37	2834.39
401.58	2684.89
401.79	2613.21
402.00	2748.37
402.21	3217.36
402.41	2924.50
402.62	2824.15
402.83	2957.27
403.04	3080.14
403.24	3434.44
403.45	2791.38
403.66	2957.27
403.87	2920.40
404.07	2951.12
404.28	2895.83
404.49	2987.99
404.70	2725.85
404.90	2828.24
405.11	2740.18
405.32	2756.57
405.52	2670.55
405.73	2648.02
405.94	2584.54
406.15	2660.31
406.35	2813.91
406.56	2811.86
406.77	2666.46
406.98	2684.89
407.18	2695.13
407.39	2932.69
407.60	2652.12
407.80	2719.70
408.01	2643.93
408.22	2838.48
408.43	2523.10
408.63	2783.19
408.84	2850.77
409.05	2805.72
409.25	2631.64
409.46	2498.52
409.67	2650.07
409.88	2674.65
410.08	2801.62
410.29	2662.36
410.50	2811.86
410.70	2764.76
410.91	2629.59
411.12	2658.26
411.32	2701.27
411.53	2566.10
411.74	2670.55
411.95	2746.33
412.15	2787.29
412.36	2797.53
412.57	2785.24
412.77	2885.59
412.98	2715.61
413.19	2693.08
413.39	2594.78
413.60	2748.37
413.81	2944.98
414.01	2605.02
414.22	2717.65
414.43	2734.04
414.63	2670.55
414.84	2822.10
415.05	2621.40
415.25	2523.10
415.46	2785.24
415.67	2701.27
415.87	2705.37
416.08	2578.39
416.29	2627.54
416.49	2828.24
416.70	2586.58
416.91	2605.02
417.11	2695.13
417.32	2852.82
417.53	2725.85
417.73	2764.76
417.94	2656.22
418.15	2789.33
418.35	2693.08
418.56	2654.17
418.77	3004.37
418.97	2723.80
419.18	2635.74
419.38	2410.46
419.59	2764.76
419.80	2975.70
420.00	2531.29
420.21	2682.84
420.42	2971.60
420.62	2815.96
420.83	2568.15
421.04	2666.46
421.24	2662.36
421.45	2828.24
421.65	2750.42
421.86	2586.58
422.07	2895.83
422.27	2830.29
422.48	2611.16
422.69	2480.09
422.89	2734.04
423.10	2695.13
423.30	2553.82
423.51	2715.61
423.72	2871.25
423.92	2811.86
424.13	2475.99
424.33	2662.36
424.54	2850.77
424.75	2799.57
424.95	2852.82
425.16	2717.65
425.36	2707.41
425.57	2883.54
425.78	2719.70
425.98	2707.41
426.19	2699.22
426.39	2600.92
426.60	2719.70
426.81	2758.61
427.01	2789.33
427.22	2639.83
427.42	2514.91
427.63	2514.91
427.83	2861.01
428.04	2926.55
428.25	2742.23
428.45	2734.04
428.66	2920.40
428.86	2660.31
429.07	2666.46
429.28	2641.88
429.48	2711.51
429.69	2600.92
429.89	2658.26
430.10	2480.09
430.30	2848.72
430.51	2844.63
430.71	2643.93
430.92	2699.22
431.13	2662.36
431.33	2873.30
431.54	2729.94
431.74	2832.34
431.95	3012.56
432.15	2600.92
432.36	2654.17
432.56	2803.67
432.77	3010.51
432.98	3030.99
433.18	2684.89
433.39	2508.76
433.59	2652.12
433.80	2994.13
434.00	2949.08
434.21	2625.50
434.41	2580.44
434.62	3121.10
434.82	2613.21
435.03	2545.63
435.23	2713.56
435.44	2461.66
435.64	2592.73
435.85	2707.41
436.06	2846.68
436.26	2877.40
436.47	2643.93
436.67	2594.78
436.88	2711.51
437.08	2826.20
437.29	2764.76
437.49	2719.70
437.70	2895.83
437.90	2727.89
438.11	2895.83
438.31	2691.03
438.52	2916.31
438.72	2852.82
438.93	2973.65
439.13	2775.00
439.34	2852.82
439.54	2611.16
439.75	2711.51
439.95	2709.46
440.16	2596.82
440.36	2666.46
440.57	2701.27
440.77	2652.12
440.98	2711.51
441.18	2809.81
441.39	2586.58
441.59	2531.29
441.80	2990.03
442.00	2697.17
442.21	2678.74
442.41	2514.91
442.62	2883.54
442.82	2639.83
443.02	2600.92
443.23	2709.46
443.43	2693.08
443.64	2918.36
443.84	2523.10
444.05	2805.72
444.25	2746.33
444.46	2832.34
444.66	2576.34
444.87	2881.49
445.07	2473.95
445.28	2719.70
445.48	2846.68
445.69	2758.61
445.89	3127.25
446.09	2731.99
446.30	2924.50
446.50	3135.44
446.71	4605.88
446.91	5595.05
447.12	6404.00
447.32	6827.93
447.53	6551.45
447.73	5363.63
447.93	4837.30
448.14	4505.53
448.34	4534.20
448.55	3827.65
448.75	3792.84
448.96	3645.38
449.16	3352.52
449.36	3254.22
449.57	2873.30
449.77	2717.65
449.98	2678.74
450.18	2760.66
450.39	2637.78
450.59	2736.09
450.79	2662.36
451.00	2627.54
451.20	2824.15
451.41	2645.98
451.61	2729.94
451.81	2693.08
452.02	2654.17
452.22	2566.10
452.43	2570.20
452.63	2629.59
452.84	2719.70
453.04	2549.72
453.24	2805.72
453.45	2592.73
453.65	2682.84
453.86	2650.07
454.06	2754.52
454.26	2805.72
454.47	2527.19
454.67	2805.72
454.87	2781.14
455.08	2742.23
455.28	2748.37
455.49	2744.28
455.69	2645.98
455.89	3117.01
456.10	2834.39
456.30	2605.02
456.51	2760.66
456.71	2727.89
456.91	2777.05
457.12	2592.73
457.32	2752.47
457.52	2584.54
457.73	2711.51
457.93	2760.66
458.14	2682.84
458.34	2367.45
458.54	2682.84
458.75	2609.11
458.95	2873.30
459.15	2676.70
459.36	2643.93
459.56	2695.13
459.76	3084.24
459.97	2754.52
460.17	2715.61
460.37	2752.47
460.58	2723.80
460.78	2906.07
460.99	2629.59
461.19	2580.44
461.39	2627.54
461.60	2723.80
461.80	2719.70
462.00	2596.82
462.21	2772.95
462.41	2609.11
462.61	2531.29
462.82	2504.67
463.02	2818.00
463.22	2744.28
463.43	2775.00
463.63	2627.54
463.83	2981.84
464.04	2768.85
464.24	2682.84
464.44	2555.86
464.64	2768.85
464.85	2818.00
465.05	2770.90
465.25	2688.98
465.46	2637.78
465.66	2811.86
465.86	2752.47
466.07	2617.30
466.27	2770.90
466.47	2598.87
466.68	2506.71
466.88	2850.77
467.08	2818.00
467.29	2863.06
467.49	2693.08
467.69	2768.85
467.89	2838.48
468.10	2635.74
468.30	2734.04
468.50	2805.72
468.71	2910.16
468.91	2584.54
469.11	2795.48
469.31	2592.73
469.52	2594.78
469.72	2983.89
469.92	2840.53
470.13	2637.78
470.33	2750.42
470.53	2818.00
470.73	2990.03
470.94	3311.57
471.14	3405.77
471.34	3885.00
471.54	3637.19
471.75	3299.28
471.95	3127.25
472.15	3094.48
472.36	3143.63
472.56	3117.01
472.76	3153.87
472.96	3086.29
473.17	2916.31
473.37	2772.95
473.57	2639.83
473.77	2858.96
473.98	2654.17
474.18	2617.30
474.38	3252.17
474.58	2695.13
474.79	2559.96
474.99	2734.04
475.19	2848.72
475.39	2650.07
475.60	2744.28
475.80	2680.79
476.00	2791.38
476.20	2631.64
476.41	2670.55
476.61	2731.99
476.81	2951.12
477.01	2629.59
477.21	2885.59
477.42	2752.47
477.62	2547.67
477.82	2895.83
478.02	2588.63
478.23	2719.70
478.43	2633.69
478.63	2676.70
478.83	2691.03
479.03	2709.46
479.24	2977.75
479.44	3047.38
479.64	2621.40
479.84	2461.66
480.04	2643.93
480.25	2854.87
480.45	2568.15
480.65	2598.87
480.85	2932.69
481.06	2693.08
481.26	2727.89
481.46	2666.46
481.66	2750.42
481.86	2592.73
482.06	2863.06
482.27	2586.58
482.47	2719.70
482.67	2736.09
482.87	2637.78
483.07	2756.57
483.28	2652.12
483.48	2568.15
483.68	2621.40
483.88	2557.91
484.08	2441.18
484.29	2572.25
484.49	2654.17
484.69	2480.09
484.89	2985.94
485.09	2834.39
485.29	2680.79
485.50	2768.85
485.70	2643.93
485.90	2914.26
486.10	2736.09
486.30	2654.17
486.50	2895.83
486.71	2801.62
486.91	2762.71
487.11	2725.85
487.31	2588.63
487.51	2803.67
487.71	2521.05
487.91	2586.58
488.12	2547.67
488.32	2494.43
488.52	2664.41
488.72	2400.22
488.92	2695.13
489.12	2916.31
489.32	2744.28
489.53	2738.13
489.73	2512.86
489.93	2973.65
490.13	2594.78
490.33	2504.67
490.53	2723.80
490.73	2926.55
490.94	2547.67
491.14	2775.00
491.34	2838.48
491.54	2908.12
491.74	3426.25
491.94	4179.90
492.14	4503.48
492.34	4550.59
492.54	4124.61
492.75	3520.46
492.95	3573.71
493.15	3426.25
493.35	3309.52
493.55	3213.26
493.75	3112.91
493.95	3233.74
494.15	2834.39
494.35	2725.85
494.56	2721.75
494.76	2705.37
494.96	2752.47
495.16	2635.74
495.36	2707.41
495.56	2760.66
495.76	2699.22
495.96	2621.40
496.16	2611.16
496.36	3028.95
496.56	2580.44
496.77	2680.79
496.97	2744.28
497.17	2951.12
497.37	2533.34
497.57	2779.09
497.77	2744.28
497.97	2623.45
498.17	2633.69
498.37	2605.02
498.57	2734.04
498.77	2672.60
498.97	2715.61
499.17	2877.40
499.38	2717.65
499.58	2844.63
499.78	2852.82
499.98	2854.87
500.18	2652.12
500.38	2633.69
500.58	2887.64
500.78	3227.60
500.98	5291.95
501.18	7135.12
501.38	8517.50
501.58	9557.87
501.78	9426.80
501.98	7667.60
502.18	6455.20
502.38	5545.90
502.58	5261.23
502.78	4710.33
502.98	4587.45
503.18	4526.01
503.38	4116.42
503.59	3577.80
503.79	3502.03
503.99	3252.17
504.19	3141.58
504.39	3102.67
504.59	3129.30
504.79	3139.54
504.99	3237.84
505.19	3018.71
505.39	2809.81
505.59	3084.24
505.79	3047.38
505.99	2861.01
506.19	2721.75
506.39	2934.74
506.59	2660.31
506.79	2625.50
506.99	2947.03
507.19	2703.32
507.39	2772.95
507.59	2492.38
507.79	2674.65
507.99	2553.82
508.19	2789.33
508.39	2736.09
508.59	2617.30
508.79	2799.57
508.99	3071.95
509.19	2629.59
509.39	2762.71
509.59	2625.50
509.79	2633.69
509.99	2766.81
510.19	2725.85
510.39	2768.85
510.59	2731.99
510.79	2643.93
510.99	2467.80
511.19	2660.31
511.39	2971.60
511.59	2869.20
511.79	2760.66
511.99	2600.92
512.19	2981.84
512.38	2680.79
512.58	2605.02
512.78	2555.86
512.98	2912.21
513.18	2891.73
513.38	2543.58
513.58	2695.13
513.78	2693.08
513.98	2652.12
514.18	2680.79
514.38	2621.40
514.58	2781.14
514.78	2658.26
514.98	2598.87
515.18	2650.07
515.38	2488.28
515.58	2969.55
515.78	2635.74
515.98	2680.79
516.18	2820.05
516.38	2754.52
516.57	2584.54
516.77	2607.06
516.97	2848.72
517.17	2648.02
517.37	2494.43
517.57	2699.22
517.77	2795.48
517.97	2686.94
518.17	2768.85
518.37	2570.20
518.57	2588.63
518.77	2623.45
518.97	2676.70
519.16	2703.32
519.36	2801.62
519.56	2645.98
519.76	2600.92
519.96	2625.50
520.16	2914.26
520.36	2613.21
520.56	2865.11
520.76	2652.12
520.96	2711.51
521.16	2799.57
521.35	2826.20
521.55	2799.57
521.75	2752.47
521.95	2703.32
522.15	2611.16
522.35	2516.95
522.55	2668.50
522.75	2928.60
522.95	2615.26
523.14	2574.30
523.34	2811.86
523.54	2617.30
523.74	2789.33
523.94	2744.28
524.14	2490.33
524.34	2832.34
524.54	2799.57
524.73	2693.08
524.93	2818.00
525.13	2697.17
525.33	2543.58
525.53	2942.93
525.73	2775.00
525.93	2723.80
526.13	2637.78
526.32	2578.39
526.52	2944.98
526.72	2846.68
526.92	2643.93
527.12	2691.03
527.32	2514.91
527.52	2787.29
527.71	2760.66
527.91	2648.02
528.11	2580.44
528.31	2691.03
528.51	2555.86
528.71	2697.17
528.90	2748.37
529.10	2895.83
529.30	2731.99
529.50	2404.32
529.70	2758.61
529.90	2715.61
530.09	2645.98
530.29	2543.58
530.49	2596.82
530.69	3166.16
530.89	2752.47
531.09	2801.62
531.28	2637.78
531.48	2920.40
531.68	2633.69
531.88	2742.23
532.08	2883.54
532.28	2697.17
532.47	2813.91
532.67	2809.81
532.87	2684.89
533.07	2613.21
533.27	2731.99
533.46	2662.36
533.66	2766.81
533.86	2752.47
534.06	2670.55
534.26	2639.83
534.45	2600.92
534.65	2906.07
534.85	2738.13
535.05	2551.77
535.25	2842.58
535.44	2490.33
535.64	2760.66
535.84	2676.70
536.04	2701.27
536.24	2664.41
536.43	2619.35
536.63	2656.22
536.83	2762.71
537.03	2672.60
537.22	2502.62
537.42	2428.89
537.62	2756.57
537.82	2529.24
538.02	2725.85
538.21	2891.73
538.41	3207.12
538.61	2752.47
538.81	2666.46
539.00	2828.24
539.20	2564.06
539.40	2707.41
539.60	2660.31
539.79	2781.14
539.99	2727.89
540.19	2656.22
540.39	2686.94
540.58	2719.70
540.78	2906.07
540.98	2793.43
541.18	2854.87
541.37	2684.89
541.57	2731.99
541.77	2772.95
541.97	2574.30
542.16	2492.38
542.36	2621.40
542.56	2662.36
542.76	2818.00
542.95	2674.65
543.15	2887.64
543.35	2781.14
543.54	2580.44
543.74	2578.39
543.94	2891.73
544.14	2598.87
544.33	2781.14
544.53	2676.70
544.73	2721.75
544.93	2627.54
545.12	2686.94
545.32	2650.07
545.52	2652.12
545.71	2557.91
545.91	2592.73
546.11	2572.25
546.30	2500.57
546.50	2684.89
546.70	2662.36
546.90	2731.99
547.09	2430.94
547.29	2736.09
547.49	2772.95
547.68	2686.94
547.88	2572.25
548.08	2863.06
548.27	3153.87
548.47	2617.30
548.67	2623.45
548.87	2805.72
549.06	2721.75
549.26	2727.89
549.46	2750.42
549.65	2707.41
549.85	2648.02
550.05	2654.17
550.24	2637.78
550.44	2703.32
550.64	2639.83
550.83	2678.74
551.03	2957.27
551.23	2838.48
551.42	2688.98
551.62	2768.85
551.82	2844.63
552.01	2693.08
552.21	2906.07
552.41	2660.31
552.60	2850.77
552.80	2777.05
553.00	2531.29
553.19	2705.37
553.39	2951.12
553.59	2605.02
553.78	2764.76
553.98	2742.23
554.17	2568.15
554.37	2693.08
554.57	2752.47
554.76	2467.80
554.96	2654.17
555.16	2762.71
555.35	2719.70
555.55	2793.43
555.75	2777.05
555.94	2904.02
556.14	2404.32
556.33	2723.80
556.53	2658.26
556.73	2748.37
556.92	2797.53
557.12	2703.32
557.32	3069.91
557.51	2846.68
557.71	2678.74
557.90	2832.34
558.10	2940.88
558.30	2654.17
558.49	2609.11
558.69	2648.02
558.88	2871.25
559.08	2801.62
559.28	2705.37
559.47	2625.50
559.67	2785.24
559.86	3022.80
560.06	2684.89
560.26	2621.40
560.45	2856.92
560.65	2717.65
560.84	2789.33
561.04	2590.68
561.24	2793.43
561.43	2572.25
561.63	2889.68
561.82	2697.17
562.02	2809.81
562.22	2615.26
562.41	2549.72
562.61	2572.25
562.80	2650.07
563.00	3076.05
563.19	2715.61
563.39	2766.81
563.59	2832.34
563.78	2570.20
563.98	2371.55
564.17	2600.92
564.37	2494.43
564.56	2766.81
564.76	2572.25
564.96	2795.48
565.15	2799.57
565.35	3203.02
565.54	2582.49
565.74	2795.48
565.93	2736.09
566.13	2746.33
566.32	2777.05
566.52	2695.13
566.71	2705.37
566.91	2842.58
567.11	2725.85
567.30	2617.30
567.50	2809.81
567.69	2815.96
567.89	2693.08
568.08	2543.58
568.28	2766.81
568.47	2578.39
568.67	2695.13
568.86	2633.69
569.06	2781.14
569.25	2674.65
569.45	2633.69
569.64	2693.08
569.84	2772.95
570.04	2766.81
570.23	2660.31
570.43	2707.41
570.62	2801.62
570.82	2951.12
571.01	2547.67
571.21	2584.54
571.40	2629.59
571.60	2856.92
571.79	2715.61
571.99	2731.99
572.18	2598.87
572.38	2711.51
572.57	2600.92
572.77	2691.03
572.96	2987.99
573.16	2713.56
573.35	2637.78
573.55	2799.57
573.74	2899.92
573.94	2598.87
574.13	2613.21
574.33	2785.24
574.52	2981.84
574.71	2699.22
574.91	2725.85
575.10	2666.46
575.30	2686.94
575.49	2570.20
575.69	2557.91
575.88	2680.79
576.08	2605.02
576.27	2883.54
576.47	2719.70
576.66	2848.72
576.86	2940.88
577.05	2748.37
577.25	2789.33
577.44	2867.16
577.64	2676.70
577.83	2873.30
578.02	2645.98
578.22	2844.63
578.41	2985.94
578.61	2674.65
578.80	2504.67
579.00	2668.50
579.19	2746.33
579.39	2713.56
579.58	2865.11
579.77	2652.12
579.97	2891.73
580.16	2914.26
580.36	2795.48
580.55	2772.95
580.75	2865.11
580.94	2715.61
581.13	2809.81
581.33	2863.06
581.52	2684.89
581.72	3043.28
581.91	2918.36
582.11	2652.12
582.30	2910.16
582.49	2830.29
582.69	2947.03
582.88	2824.15
583.08	2797.53
583.27	2918.36
583.47	2752.47
583.66	2584.54
583.85	2553.82
584.05	2648.02
584.24	2762.71
584.44	2660.31
584.63	2842.58
584.82	2969.55
585.02	2815.96
585.21	2838.48
585.41	2828.24
585.60	2846.68
585.79	2932.69
585.99	2856.92
586.18	2846.68
586.37	3538.89
586.57	5492.65
586.76	15767.31
586.96	35147.24
587.15	48135.46
587.34	56990.87
587.54	61252.70
587.73	55159.99
587.93	38757.81
588.12	29476.41
588.31	23844.50
588.51	21419.71
588.70	19420.89
588.89	17170.17
589.09	14645.02
589.28	12490.56
589.47	9879.40
589.67	7675.79
589.86	6023.08
590.06	4478.91
590.25	4030.40
590.44	3358.67
590.64	3088.34
590.83	2998.23
591.02	3024.85
591.22	2713.56
591.41	2775.00
591.60	2680.79
591.80	3096.53
591.99	2510.81
592.18	2703.32
592.38	2912.21
592.57	2674.65
592.76	2727.89
592.96	2664.41
593.15	2668.50
593.34	2850.77
593.54	2695.13
593.73	2768.85
593.92	2826.20
594.12	2824.15
594.31	2744.28
594.50	2869.20
594.70	2768.85
594.89	3059.67
595.08	2609.11
595.28	2785.24
595.47	3192.78
595.66	2865.11
595.86	2629.59
596.05	2660.31
596.24	2729.94
596.43	3002.32
596.63	2686.94
596.82	2772.95
597.01	2854.87
597.21	3000.27
597.40	2678.74
597.59	2729.94
597.79	2772.95
597.98	2875.35
598.17	2668.50
598.36	2691.03
598.56	2867.16
598.75	2727.89
598.94	2666.46
599.14	2799.57
599.33	2766.81
599.52	2832.34
599.71	2715.61
599.91	2721.75
600.10	2768.85
600.29	2785.24
600.48	2797.53
600.68	2715.61
600.87	2799.57
601.06	2648.02
601.26	2793.43
601.45	2748.37
601.64	2770.90
601.83	2930.64
602.03	2576.34
602.22	2537.43
602.41	2998.23
602.60	3030.99
602.80	2674.65
602.99	2719.70
603.18	2600.92
603.37	2820.05
603.57	2594.78
603.76	2717.65
603.95	2856.92
604.14	2627.54
604.34	2602.97
604.53	2680.79
604.72	2805.72
604.91	2832.34
605.10	2734.04
605.30	2580.44
605.49	3028.95
605.68	2863.06
605.87	2645.98
606.07	2596.82
606.26	2760.66
606.45	2803.67
606.64	2711.51
606.84	2609.11
607.03	2717.65
607.22	2889.68
607.41	2621.40
607.60	2602.97
607.80	2854.87
607.99	2645.98
608.18	2734.04
608.37	2680.79
608.56	2662.36
608.76	2940.88
608.95	2854.87
609.14	2641.88
609.33	2883.54
609.52	2965.46
609.72	2797.53
609.91	2844.63
610.10	2783.19
610.29	2883.54
610.48	2703.32
610.68	2760.66
610.87	2805.72
611.06	2877.40
611.25	2662.36
611.44	2815.96
611.63	2740.18
611.83	2920.40
612.02	2547.67
612.21	2729.94
612.40	2432.99
612.59	2512.86
612.79	2535.39
612.98	2744.28
613.17	2994.13
613.36	2719.70
613.55	2803.67
613.74	2688.98
613.93	2799.57
614.13	2863.06
614.32	2877.40
614.51	2789.33
614.70	2731.99
614.89	2684.89
615.08	2750.42
615.28	3112.91
615.47	2598.87
615.66	2705.37
615.85	2723.80
616.04	2701.27
616.23	2715.61
616.42	2744.28
616.62	2654.17
616.81	2676.70
617.00	2813.91
617.19	2803.67
617.38	2672.60
617.57	2756.57
617.76	2840.53
617.95	2879.44
618.15	2809.81
618.34	2861.01
618.53	2535.39
618.72	2869.20
618.91	2799.57
619.10	2777.05
619.29	2748.37
619.48	2697.17
619.68	2553.82
619.87	2662.36
620.06	2547.67
620.25	2818.00
620.44	2596.82
620.63	2584.54
620.82	2875.35
621.01	2734.04
621.20	2705.37
621.39	2719.70
621.59	2727.89
621.78	2734.04
621.97	2729.94
622.16	2809.81
622.35	2781.14
622.54	2871.25
622.73	2758.61
622.92	2473.95
623.11	2895.83
623.30	2785.24
623.49	2740.18
623.68	2523.10
623.88	2897.88
624.07	2645.98
624.26	2623.45
624.45	2635.74
624.64	2652.12
624.83	2815.96
625.02	2633.69
625.21	2662.36
625.40	2826.20
625.59	2924.50
625.78	2670.55
625.97	2813.91
626.16	3012.56
626.35	2877.40
626.54	2719.70
626.74	2932.69
626.93	2631.64
627.12	2707.41
627.31	2805.72
627.50	2682.84
627.69	2852.82
627.88	2633.69
628.07	2512.86
628.26	2463.71
628.45	2619.35
628.64	2619.35
628.83	2629.59
629.02	2504.67
629.21	2758.61
629.40	2768.85
629.59	2533.34
629.78	2662.36
629.97	2688.98
630.16	2697.17
630.35	2635.74
630.54	2682.84
630.73	2627.54
630.92	2682.84
631.11	2643.93
631.30	2678.74
631.49	2834.39
631.68	2701.27
631.87	2717.65
632.06	2582.49
632.25	3065.81
632.44	2779.09
632.63	2652.12
632.82	2691.03
633.01	2695.13
633.20	2818.00
633.39	2609.11
633.58	2506.71
633.77	2762.71
633.96	2793.43
634.15	2744.28
634.34	2742.23
634.53	2752.47
634.72	2717.65
634.91	2488.28
635.10	2678.74
635.29	2834.39
635.48	2744.28
635.67	2637.78
635.86	2547.67
636.05	2983.89
636.24	2734.04
636.43	2676.70
636.62	2705.37
636.81	2432.99
637.00	2729.94
637.19	2768.85
637.38	2674.65
637.57	2594.78
637.76	2719.70
637.95	2818.00
638.14	2676.70
638.33	2813.91
638.52	2781.14
638.71	2619.35
638.89	2602.97
639.08	3084.24
639.27	2969.55
639.46	2785.24
639.65	3166.16
639.84	3055.57
640.03	3358.67
640.22	3119.06
640.41	3121.10
640.60	2949.08
640.79	2938.84
640.98	2752.47
641.17	2899.92
641.36	2828.24
641.55	2901.97
641.74	2539.48
641.92	2568.15
642.11	2650.07
642.30	2662.36
642.49	2619.35
642.68	2574.30
642.87	2742.23
643.06	2840.53
643.25	2592.73
643.44	2574.30
643.63	2695.13
643.82	2832.34
644.00	2527.19
644.19	2699.22
644.38	2572.25
644.57	2865.11
644.76	2721.75
644.95	2631.64
645.14	2736.09
645.33	2670.55
645.52	2619.35
645.71	2551.77
645.89	2545.63
646.08	2818.00
646.27	2723.80
646.46	2914.26
646.65	2568.15
646.84	2729.94
647.03	2555.86
647.22	2795.48
647.40	2715.61
647.59	2734.04
647.78	2410.46
647.97	2555.86
648.16	2551.77
648.35	2844.63
648.54	2815.96
648.73	2609.11
648.91	2865.11
649.10	2877.40
649.29	2594.78
649.48	2629.59
649.67	2783.19
649.86	2795.48
650.05	2666.46
650.23	2838.48
650.42	2672.60
650.61	2967.51
650.80	2848.72
650.99	2940.88
651.18	2889.68
651.36	2865.11
651.55	2684.89
651.74	2791.38
651.93	2746.33
652.12	2654.17
652.31	2713.56
652.49	2635.74
652.68	2641.88
652.87	2936.79
653.06	2707.41
653.25	2858.96
653.44	2723.80
653.62	2918.36
653.81	2676.70
654.00	2705.37
654.19	2852.82
654.38	3139.54
654.56	2709.46
654.75	2582.49
654.94	2916.31
655.13	2811.86
655.32	2656.22
655.51	2717.65
655.69	2654.17
655.88	2858.96
656.07	2576.34
656.26	2693.08
656.45	2521.05
656.63	2731.99
656.82	2658.26
657.01	2742.23
657.20	2629.59
657.38	2936.79
657.57	2613.21
657.76	2482.14
657.95	2897.88
658.14	2678.74
658.32	2684.89
658.51	2564.06
658.70	2789.33
658.89	2793.43
659.08	2621.40
659.26	2807.77
659.45	2602.97
659.64	2707.41
659.83	2637.78
660.01	3092.43
660.20	2781.14
660.39	2873.30
660.58	2461.66
660.76	2738.13
660.95	2557.91
661.14	2715.61
661.33	2482.14
661.51	2699.22
661.70	2691.03
661.89	2731.99
662.08	2670.55
662.26	2602.97
662.45	2590.68
662.64	2951.12
662.83	2738.13
663.01	2553.82
663.20	2684.89
663.39	2998.23
663.58	2559.96
663.76	2643.93
663.95	2842.58
664.14	2639.83
664.32	2576.34
664.51	2531.29
664.70	2582.49
664.89	2717.65
665.07	2473.95
665.26	2793.43
665.45	2562.01
665.64	2842.58
665.82	2627.54
666.01	2699.22
666.20	2529.24
666.38	2848.72
666.57	2842.58
666.76	4358.08
666.95	9938.79
667.13	16973.56
667.32	21378.75
667.51	23828.12
667.69	25155.20
667.88	21595.83
668.07	15417.11
668.25	13012.79
668.44	10934.11
668.63	9432.94
668.81	8353.66
669.00	7303.06
669.19	6506.40
669.38	5701.54
669.56	4980.66
669.75	4181.95
669.94	3833.80
670.12	3250.13
670.31	3026.90
670.50	2957.27
670.68	2809.81
670.87	2834.39
671.06	2660.31
671.24	2766.81
671.43	2930.64
671.62	2772.95
671.80	2570.20
671.99	2750.42
672.18	2707.41
672.36	2828.24
672.55	2781.14
672.74	2678.74
672.92	2674.65
673.11	2848.72
673.29	2570.20
673.48	2875.35
673.67	2637.78
673.85	2854.87
674.04	2629.59
674.23	2772.95
674.41	3039.19
674.60	2545.63
674.79	2521.05
674.97	2523.10
675.16	2881.49
675.34	2848.72
675.53	2596.82
675.72	2764.76
675.90	2990.03
676.09	2639.83
676.28	2768.85
676.46	2465.75
676.65	2783.19
676.83	2564.06
677.02	2701.27
677.21	2676.70
677.39	2760.66
677.58	2625.50
677.77	2676.70
677.95	2547.67
678.14	2744.28
678.32	2684.89
678.51	2572.25
678.70	2863.06
678.88	2596.82
679.07	2760.66
679.25	2686.94
679.44	2662.36
679.63	2578.39
679.81	2723.80
680.00	2760.66
680.18	2826.20
680.37	2967.51
680.55	2760.66
680.74	2439.13
680.93	2455.51
681.11	2748.37
681.30	2809.81
681.48	2672.60
681.67	2650.07
681.85	2750.42
682.04	2584.54
682.23	2777.05
682.41	2713.56
682.60	2645.98
682.78	2639.83
682.97	2600.92
683.15	2691.03
683.34	2670.55
683.53	2924.50
683.71	2512.86
683.90	2740.18
684.08	2957.27
684.27	2719.70
684.45	2754.52
684.64	2858.96
684.82	2707.41
685.01	2791.38
685.19	2701.27
685.38	2901.97
685.57	2760.66
685.75	2578.39
685.94	2627.54
686.12	2584.54
686.31	2684.89
686.49	2975.70
686.68	2365.40
686.86	2711.51
687.05	2736.09
687.23	2938.84
687.42	2564.06
687.60	2553.82
687.79	2861.01
687.97	2908.12
688.16	2785.24
688.34	2762.71
688.53	2455.51
688.71	2858.96
688.90	2858.96
689.08	2621.40
689.27	2492.38
689.45	2842.58
689.64	2873.30
689.82	2750.42
690.01	2787.29
690.19	2805.72
690.38	2674.65
690.56	2818.00
690.75	2574.30
690.93	2643.93
691.12	2676.70
691.30	2701.27
691.49	2660.31
691.67	2779.09
691.86	2924.50
692.04	2641.88
692.23	2725.85
692.41	2662.36
692.60	2930.64
692.78	2832.34
692.97	2736.09
693.15	2766.81
693.34	2951.12
693.52	2813.91
693.71	2570.20
693.89	2670.55
694.08	2475.99
694.26	2754.52
694.44	2863.06
694.63	2895.83
694.81	2523.10
695.00	2631.64
695.18	2940.88
695.37	3137.49
695.55	2768.85
695.74	2656.22
695.92	2674.65
696.10	2920.40
696.29	2467.80
696.47	2523.10
696.66	2549.72
696.84	2617.30
697.03	2697.17
697.21	2830.29
697.40	4071.36
697.58	2871.25
697.76	2594.78
697.95	2641.88
698.13	2607.06
698.32	2619.35
698.50	2680.79
698.68	2723.80
698.87	2799.57
699.05	2887.64
699.24	2668.50
699.42	2578.39
699.61	2693.08
699.79	2740.18
699.97	2631.64
700.16	2572.25
700.34	2586.58
700.53	2709.46
700.71	2871.25
700.89	2734.04
701.08	2635.74
701.26	2748.37
701.45	3155.92
701.63	2553.82
701.81	2588.63
702.00	2648.02
702.18	2648.02
702.37	2629.59
702.55	2899.92
702.73	2856.92
702.92	2719.70
703.10	2981.84
703.28	2899.92
703.47	2605.02
703.65	2881.49
703.84	2832.34
704.02	2600.92
704.20	2912.21
704.39	2615.26
704.57	2699.22
704.75	2922.45
704.94	2899.92
705.12	2768.85
705.30	3117.01
705.49	5801.90
705.67	11872.07
705.86	17936.11
706.04	20291.27
706.22	22591.14
706.41	22529.70
706.59	17649.39
706.77	13303.60
706.96	11657.04
707.14	10258.28
707.32	8892.28
707.51	7935.88
707.69	6434.72
707.87	5277.62
708.06	4499.39
708.24	3921.86
708.42	3340.24
708.61	3409.87
708.79	2762.71
708.97	2746.33
709.16	2844.63
709.34	2727.89
709.52	2609.11
709.71	2656.22
709.89	2836.44
710.07	2621.40
710.26	2564.06
710.44	2684.89
710.62	2850.77
710.80	2740.18
710.99	2766.81
711.17	2803.67
711.35	2674.65
711.54	2617.30
711.72	2789.33
711.90	2768.85
712.09	2738.13
712.27	2617.30
712.45	2727.89
712.63	2537.43
712.82	2762.71
713.00	2731.99
713.18	2783.19
713.37	2836.44
713.55	2867.16
713.73	2756.57
713.91	2734.04
714.10	2656.22
714.28	2707.41
714.46	2736.09
714.65	2809.81
714.83	2729.94
715.01	2635.74
715.19	2676.70
715.38	2637.78
715.56	2750.42
715.74	2691.03
715.92	2637.78
716.11	2877.40
716.29	2394.08
716.47	2717.65
716.65	2678.74
716.84	2508.76
717.02	2717.65
717.20	2486.23
717.38	2662.36
717.57	2813.91
717.75	2707.41
717.93	2680.79
718.11	2836.44
718.30	2533.34
718.48	2666.46
718.66	2938.84
718.84	2813.91
719.03	2643.93
719.21	2582.49
719.39	2977.75
719.57	2836.44
719.75	2738.13
719.94	2617.30
720.12	2688.98
720.30	2713.56
720.48	2783.19
720.67	2574.30
720.85	2576.34
721.03	2686.94
721.21	2582.49
721.39	2836.44
721.58	2785.24
721.76	2688.98
721.94	2727.89
722.12	2707.41
722.30	2959.31
722.49	2643.93
722.67	2686.94
722.85	2768.85
723.03	2572.25
723.21	2701.27
723.40	2715.61
723.58	2801.62
723.76	2752.47
723.94	2877.40
724.12	2713.56
724.30	2858.96
724.49	2940.88
724.67	2559.96
724.85	2899.92
725.03	2516.95
725.21	2818.00
725.40	2947.03
725.58	2598.87
725.76	2852.82
725.94	2801.62
726.12	2619.35
726.30	2623.45
726.49	2721.75
726.67	2654.17
726.85	2793.43
727.03	3071.95
727.21	4095.94
727.39	5138.35
727.57	5629.87
727.76	6010.79
727.94	6279.07
728.12	5586.86
728.30	4673.46
728.48	4198.34
728.66	3954.63
728.84	3745.73
729.03	3368.91
729.21	3194.83
729.39	3026.90
729.57	2781.14
729.75	2856.92
729.93	2809.81
730.11	2562.01
730.30	2740.18
730.48	2670.55
730.66	2818.00
730.84	2770.90
731.02	2766.81
731.20	2566.10
731.38	2697.17
731.56	2545.63
731.74	2602.97
731.93	2754.52
732.11	2711.51
732.29	2641.88
732.47	2764.76
732.65	2727.89
732.83	2807.77
733.01	2756.57
733.19	2654.17
733.37	2842.58
733.56	2744.28
733.74	2605.02
733.92	2990.03
734.10	2621.40
734.28	2834.39
734.46	2480.09
734.64	2705.37
734.82	2643.93
735.00	2623.45
735.18	2609.11
735.36	2797.53
735.54	2645.98
735.73	2676.70
735.91	2785.24
736.09	2975.70
736.27	2725.85
736.45	2738.13
736.63	2430.94
736.81	2748.37
736.99	2822.10
737.17	2850.77
737.35	2580.44
737.53	2824.15
737.71	2658.26
737.89	2895.83
738.07	2600.92
738.25	2555.86
738.43	2484.19
738.61	2623.45
738.80	2547.67
738.98	2609.11
739.16	2656.22
739.34	2613.21
739.52	2828.24
739.70	2686.94
739.88	2815.96
740.06	2758.61
740.24	2408.41
740.42	2879.44
740.60	2443.23
740.78	2637.78
740.96	2527.19
741.14	2631.64
741.32	2797.53
741.50	2564.06
741.68	2908.12
741.86	2861.01
742.04	2506.71
742.22	2531.29
742.40	2668.50
742.58	2801.62
742.76	2566.10
742.94	2869.20
743.12	2562.01
743.30	2633.69
743.48	2748.37
743.66	2656.22
743.84	2721.75
744.02	2701.27
744.20	2645.98
744.38	2609.11
744.56	2535.39
744.74	2953.17
744.92	2883.54
745.10	2826.20
745.28	2754.52
745.46	2938.84
745.64	2734.04
745.82	2721.75
746.00	2697.17
746.18	2775.00
746.36	2574.30
746.54	2658.26
746.72	2645.98
746.90	2607.06
747.08	2826.20
747.26	2590.68
747.44	2797.53
747.62	2850.77
747.80	2715.61
747.98	2805.72
748.15	2633.69
748.33	3006.42
748.51	2699.22
748.69	2834.39
748.87	2568.15
749.05	2645.98
749.23	2688.98
749.41	2641.88
749.59	2656.22
749.77	2826.20
749.95	2629.59
750.13	2645.98
750.31	2641.88
750.49	2705.37
750.67	2826.20
750.85	2783.19
751.03	2672.60
751.20	3104.72
751.38	2783.19
751.56	2607.06
751.74	2680.79
751.92	2676.70
752.10	2590.68
752.28	2885.59
752.46	2594.78
752.64	2760.66
752.82	2840.53
753.00	2840.53
753.18	2553.82
753.35	2789.33
753.53	2744.28
753.71	2533.34
753.89	2711.51
754.07	2818.00
754.25	2891.73
754.43	2674.65
754.61	2572.25
754.79	2699.22
754.97	2709.46
755.14	2744.28
755.32	2516.95
755.50	2709.46
755.68	2815.96
755.86	2564.06
756.04	2590.68
756.22	2490.33
756.40	2850.77
756.57	2891.73
756.75	2533.34
756.93	2826.20
757.11	2901.97
757.29	2539.48
757.47	2547.67
757.65	2471.90
757.82	2363.36
758.00	2607.06
758.18	2572.25
758.36	2564.06
758.54	3008.47
758.72	2467.80
758.90	2750.42
759.07	2764.76
759.25	2609.11
759.43	2793.43
759.61	2459.61
759.79	3864.52
759.97	2822.10
760.15	2658.26
760.32	2654.17
760.50	2678.74
760.68	2971.60
760.86	2555.86
761.04	2822.10
761.22	2801.62
761.39	2752.47
761.57	2760.66
761.75	2654.17
761.93	2830.29
762.11	2658.26
762.28	2717.65
762.46	2529.24
762.64	2906.07
762.82	2547.67
763.00	2631.64
763.18	2893.78
763.35	2543.58
763.53	2830.29
763.71	2682.84
763.89	2701.27
764.07	2717.65
764.24	2668.50
764.42	2758.61
764.60	2652.12
764.78	2785.24
764.96	2881.49
765.13	2844.63
765.31	2605.02
765.49	2777.05
765.67	2539.48
765.84	2510.81
766.02	2590.68
766.20	2539.48
766.38	2736.09
766.56	2654.17
766.73	2785.24
766.91	2750.42
767.09	2725.85
767.27	2697.17
767.44	2570.20
767.62	2791.38
767.80	2754.52
767.98	2629.59
768.15	2637.78
768.33	2811.86
768.51	2883.54
768.69	2770.90
768.87	2648.02
769.04	2783.19
769.22	3035.09
769.40	2852.82
769.58	2824.15
769.75	2828.24
769.93	2820.05
770.11	2678.74
770.28	2564.06
770.46	2844.63
770.64	2748.37
770.82	2652.12
770.99	2627.54
771.17	2852.82
771.35	2592.73
771.53	2645.98
771.70	2633.69
771.88	2797.53
772.06	2715.61
772.23	2670.55
772.41	2750.42
772.59	2693.08
772.77	2609.11
772.94	2662.36
773.12	2736.09
773.30	2666.46
773.47	2785.24
773.65	2562.01
773.83	2824.15
774.01	2691.03
774.18	2465.75
774.36	2656.22
774.54	2508.76
774.71	2787.29
774.89	2467.80
775.07	2525.15
775.24	2660.31
775.42	2643.93
775.60	2983.89
775.78	2549.72
775.95	2486.23
776.13	2504.67
776.31	2521.05
776.48	2676.70
776.66	2775.00
776.84	2645.98
777.01	2564.06
777.19	2594.78
777.37	2648.02
777.54	2809.81
777.72	2998.23
777.90	2717.65
778.07	2527.19
778.25	3217.36
778.43	2904.02
778.60	2545.63
778.78	2777.05
778.96	2942.93
779.13	2584.54
779.31	2705.37
779.49	2643.93
779.66	2711.51
779.84	2703.32
780.01	2590.68
780.19	2559.96
780.37	2895.83
780.54	2879.44
780.72	2506.71
780.90	2623.45
781.07	2734.04
781.25	2641.88
781.43	2787.29
781.60	2609.11
781.78	2877.40
781.95	2701.27
782.13	2582.49
782.31	2623.45
782.48	2465.75
782.66	2713.56
782.83	2904.02
783.01	2668.50
783.19	2856.92
783.36	2711.51
783.54	2543.58
783.72	2711.51
783.89	2627.54
784.07	2783.19
784.24	2748.37
784.42	2781.14
784.60	2775.00
784.77	2824.15
784.95	2469.85
785.12	2596.82
785.30	2715.61
785.47	2559.96
785.65	2547.67
785.83	2584.54
786.00	2605.02
786.18	2654.17
786.35	2500.57
786.53	2475.99
786.71	2813.91
786.88	2830.29
787.06	2678.74
787.23	2688.98
787.41	2559.96
787.58	2623.45
787.76	2588.63
787.94	2723.80
788.11	2744.28
788.29	2553.82
788.46	2693.08
788.64	2482.14
788.81	2654.17
788.99	2588.63
789.16	2551.77
789.34	2617.30
789.52	2596.82
789.69	2627.54
789.87	2416.60
790.04	2607.06
790.22	2729.94
790.39	3010.51
790.57	2521.05
790.74	2508.76
790.92	2840.53
791.09	2494.43
791.27	2658.26
791.44	2742.23
791.62	2668.50
791.79	2842.58
791.97	2643.93
792.15	2981.84
792.32	2791.38
792.50	2832.34
792.67	2844.63
792.85	2891.73
793.02	2744.28
793.20	2602.97
793.37	2588.63
793.55	2668.50
793.72	2596.82
793.90	2727.89
794.07	2549.72
794.25	2523.10
794.42	2713.56
794.60	2731.99
794.77	2686.94
794.95	2820.05
795.12	2850.77
795.30	2719.70
795.47	2402.27
795.65	2947.03
795.82	2709.46
796.00	2625.50
796.17	2621.40
796.34	2568.15
796.52	2775.00
796.69	2758.61
796.87	2772.95
797.04	2711.51
797.22	2801.62
797.39	2834.39
797.57	2838.48
797.74	2701.27
797.92	2725.85
798.09	2625.50
798.27	2924.50
798.44	2596.82
798.62	2576.34
798.79	2758.61
798.96	2754.52
799.14	2693.08
799.31	3045.33
799.49	2668.50
799.66	2676.70
799.84	2719.70
800.01	2488.28
800.19	2680.79
800.36	2539.48
800.53	2711.51
800.71	2887.64
800.88	2957.27
801.06	2586.58
801.23	2570.20
801.41	2719.70
801.58	2631.64
801.75	2619.35
801.93	2623.45
802.10	2824.15
802.28	2643.93
802.45	2676.70
802.63	2703.32
802.80	2938.84
802.97	2654.17
803.15	2744.28
803.32	2695.13
803.50	2621.40
803.67	2539.48
803.84	2594.78
804.02	2736.09
804.19	2580.44
804.37	2416.60
804.54	2486.23
804.71	2639.83
804.89	2693.08
805.06	2529.24
805.24	2582.49
805.41	2465.75
805.58	2609.11
805.76	2951.12
805.93	2633.69
806.10	2813.91
806.28	2775.00
806.45	2666.46
806.63	2738.13
806.80	2766.81
806.97	2738.13
807.15	2822.10
807.32	2736.09
807.49	2654.17
807.67	2531.29
807.84	2736.09
808.01	2496.47
808.19	2895.83
808.36	2981.84
808.54	2668.50
808.71	2580.44
808.88	2629.59
809.06	2926.55
809.23	2893.78
809.40	2607.06
809.58	2736.09
809.75	2695.13
809.92	2555.86
810.10	2963.41
810.27	2699.22
810.44	2738.13
810.62	2801.62
810.79	2734.04
810.96	2478.04
811.14	2645.98
811.31	2781.14
811.48	2744.28
811.66	2598.87
811.83	2922.45
812.00	2809.81
812.18	2658.26
812.35	2901.97
812.52	2762.71
812.69	2705.37
812.87	2613.21
813.04	2629.59
813.21	2623.45
813.39	2648.02
813.56	2545.63
813.73	2809.81
813.91	2529.24
814.08	2752.47
814.25	2664.41
814.42	2527.19
814.60	2721.75
814.77	2674.65
814.94	2639.83
815.12	2668.50
815.29	2920.40
815.46	2631.64
815.63	2668.50
815.81	2566.10
815.98	2568.15
816.15	2754.52
816.33	2695.13
816.50	2664.41
816.67	2709.46
816.84	2615.26
817.02	2539.48
817.19	2738.13
817.36	2801.62
817.53	2799.57
817.71	2547.67
817.88	2719.70
818.05	2633.69
818.22	2701.27
818.40	2908.12
818.57	2594.78
818.74	2777.05
818.91	2686.94
819.09	2715.61
819.26	2861.01
819.43	2580.44
819.60	2576.34
819.78	2824.15
819.95	2752.47
820.12	2545.63
820.29	2949.08
820.47	2922.45
820.64	2580.44
820.81	2510.81
820.98	2602.97
821.15	2719.70
821.33	2703.32
821.50	2502.62
821.67	2838.48
821.84	2637.78
822.02	2670.55
822.19	2891.73
822.36	2652.12
822.53	2654.17
822.70	2533.34
822.88	2717.65
823.05	2930.64
823.22	2715.61
823.39	2723.80
823.56	2707.41
823.74	2953.17
823.91	2529.24
824.08	2510.81
824.25	2553.82
824.42	2944.98
824.60	2516.95
824.77	2725.85
824.94	2678.74
825.11	2731.99
825.28	2465.75
825.45	2725.85
825.63	2750.42
825.80	2650.07
825.97	2691.03
826.14	2686.94
826.31	2500.57
826.48	2779.09
826.66	2598.87
826.83	2629.59
827.00	2654.17
827.17	2510.81
827.34	2617.30
827.51	2555.86
827.69	2652.12
827.86	2465.75
828.03	2631.64
828.20	2723.80
828.37	2621.40
828.54	2756.57
828.71	2570.20
828.89	2869.20
829.06	2697.17
829.23	2979.79
829.40	2586.58
829.57	2586.58
829.74	2777.05
829.91	2633.69
830.09	2619.35
830.26	2725.85
830.43	2951.12
830.60	2652.12
830.77	2695.13
830.94	2858.96
831.11	2828.24
831.28	2607.06
831.46	2799.57
831.63	2547.67
831.80	2801.62
831.97	2627.54
832.14	2625.50
832.31	2668.50
832.48	2822.10
832.65	2846.68
832.82	2699.22
832.99	2668.50
833.17	2555.86
833.34	2977.75
833.51	2600.92
833.68	2430.94
833.85	2893.78
834.02	2551.77
834.19	2559.96
834.36	2504.67
834.53	2789.33
834.70	2904.02
834.87	2672.60
835.04	2543.58
835.22	2596.82
835.39	2725.85
835.56	2455.51
835.73	2547.67
835.90	2887.64
836.07	2562.01
836.24	2631.64
836.41	2562.01
836.58	2664.41
836.75	2856.92
836.92	2596.82
837.09	2525.15
837.26	2838.48
837.43	2672.60
837.60	2654.17
837.77	2619.35
837.94	2815.96
838.12	2787.29
838.29	2463.71
838.46	2478.04
838.63	2553.82
838.80	2916.31
838.97	2621.40
839.14	2605.02
839.31	2731.99
839.48	2795.48
839.65	2635.74
839.82	2678.74
839.99	2787.29
840.16	2754.52
840.33	2449.37
840.50	2623.45
840.67	2539.48
840.84	2353.12
841.01	2578.39
841.18	2484.19
841.35	2645.98
841.52	2719.70
841.69	2803.67
841.86	2613.21
842.03	2731.99
842.20	2809.81
842.37	2650.07
842.54	2596.82
842.71	2754.52
842.88	2443.23
843.05	2572.25
843.22	2545.63
843.39	2830.29
843.56	2688.98
843.73	2568.15
843.90	2602.97
844.07	2674.65
844.24	2797.53
844.41	2621.40
844.58	2600.92
844.75	2674.65
844.92	2799.57
845.09	2627.54
845.26	2566.10
845.43	2781.14
845.60	2631.64
845.77	2672.60
845.94	2617.30
846.10	2781.14
846.27	2553.82
846.44	2441.18
846.61	2455.51
846.78	2848.72
846.95	2811.86
847.12	2521.05
847.29	2609.11
847.46	2615.26
847.63	2873.30
847.80	2547.67
847.97	2580.44
848.14	3047.38
848.31	2684.89
848.48	2430.94
848.65	2652.12
848.82	2641.88
848.98	3053.52
849.15	2676.70
849.32	2707.41
849.49	2840.53
849.66	2678.74
849.83	2531.29
850.00	2508.76
850.17	2893.78
850.34	2648.02
850.51	2521.05
850.68	2562.01
850.85	2994.13
851.01	2770.90
851.18	2543.58
851.35	2559.96
851.52	2791.38
851.69	2928.60
851.86	2502.62
852.03	2555.86
852.20	2867.16
852.37	2723.80
852.53	2424.80
852.70	2529.24
852.87	2678.74
853.04	2740.18
853.21	2555.86
853.38	2799.57
853.55	2863.06
853.72	2856.92
853.89	2506.71
854.05	2473.95
854.22	2686.94
854.39	2740.18
854.56	2643.93
854.73	2725.85
854.90	2637.78
855.07	2701.27
855.23	2521.05
855.40	2488.28
855.57	2635.74
855.74	2432.99
855.91	2768.85
856.08	2439.13
856.25	2473.95
856.41	2566.10
856.58	2605.02
856.75	2605.02
856.92	2537.43
857.09	2865.11
857.26	2439.13
857.42	2553.82
857.59	2807.77
857.76	2641.88
857.93	2678.74
858.10	2711.51
858.27	2506.71
858.43	2723.80
858.60	2516.95
858.77	2463.71
858.94	2611.16
859.11	2934.74
859.27	2652.12
859.44	2533.34
859.61	2951.12
859.78	2785.24
859.95	2488.28
860.12	2449.37
860.28	3012.56
860.45	2938.84
860.62	2594.78
860.79	2588.63
860.95	2674.65
861.12	2580.44
861.29	2482.14
861.46	2578.39
861.63	2645.98
861.79	2695.13
861.96	2504.67
862.13	2576.34
862.30	2887.64
862.47	2592.73
862.63	2420.70
862.80	2648.02
862.97	2873.30
863.14	2734.04
863.30	2557.91
863.47	2586.58
863.64	2926.55
863.81	2760.66
863.97	2496.47
864.14	2609.11
864.31	2719.70
864.48	2756.57
864.65	2496.47
864.81	2719.70
864.98	2818.00
865.15	2828.24
865.32	2643.93
865.48	2662.36
865.65	2846.68
865.82	2719.70
865.98	2613.21
866.15	2598.87
866.32	2723.80
866.49	2623.45
866.65	2818.00
866.82	2506.71
866.99	2746.33
867.16	2605.02
867.32	2600.92
867.49	2533.34
867.66	2551.77
867.83	2703.32
867.99	2500.57
868.16	2527.19
868.33	2559.96
868.49	2740.18
868.66	2602.97
868.83	2703.32
868.99	2805.72
869.16	2670.55
869.33	2676.70
869.50	2637.78
869.66	2723.80
869.83	2664.41
870.00	2435.03
870.16	2562.01
870.33	2725.85
870.50	2877.40
870.66	2607.06
870.83	2537.43
871.00	2699.22
871.17	2777.05
871.33	2598.87
871.50	2514.91
871.67	2725.85
871.83	2486.23
872.00	2668.50
872.17	2617.30
872.33	2969.55
872.50	2865.11
872.67	2473.95
872.83	2545.63
873.00	2762.71
873.17	2729.94
873.33	2666.46
873.50	2676.70
873.67	2574.30
873.83	2555.86
874.00	2543.58
874.16	2654.17
874.33	2662.36
874.50	2529.24
874.66	2506.71
874.83	2615.26
875.00	2848.72
875.16	2768.85
875.33	2627.54
875.50	2418.65
875.66	2619.35
875.83	2688.98
875.99	2576.34
876.16	2637.78
876.33	2570.20
876.49	2664.41
876.66	2584.54
876.83	2584.54
876.99	2490.33
877.16	2648.02
877.32	2473.95
877.49	2617.30
877.66	2693.08
877.82	2940.88
877.99	2586.58
878.15	2756.57
878.32	2768.85
878.49	2744.28
878.65	2555.86
878.82	2734.04
878.98	2627.54
879.15	2852.82
879.32	2686.94
879.48	2719.70
879.65	2729.94
879.81	2648.02
879.98	2523.10
880.15	2596.82
880.31	2854.87
880.48	2654.17
880.64	2703.32
880.81	2629.59
880.97	2971.60
881.14	2838.48
881.31	2527.19
881.47	2768.85
881.64	2731.99
881.80	2469.85
881.97	2674.65
882.13	2662.36
882.30	2617.30
882.47	2670.55
882.63	2545.63
882.80	2586.58
882.96	2627.54
883.13	2861.01
883.29	2559.96
883.46	2541.53
883.62	3028.95
883.79	2715.61
883.95	2717.65
884.12	2629.59
884.29	2897.88
884.45	2721.75
884.62	2564.06
884.78	2537.43
884.95	2955.22
885.11	2611.16
885.28	2656.22
885.44	2652.12
885.61	2822.10
885.77	2940.88
885.94	2678.74
886.10	2660.31
886.27	2742.23
886.43	2985.94
886.60	2699.22
886.76	2635.74
886.93	2627.54
887.09	2760.66
887.26	2445.27
887.42	2645.98
887.59	2799.57
887.75	2990.03
887.92	2711.51
888.08	2748.37
888.25	3080.14
888.41	2813.91
888.58	2686.94
888.74	2482.14
888.91	2539.48
>>>>>End Processed Spectral Data<<<<<
