SpectraSuite Data File
++++++++++++++++++++++++++++++++++++
Date: Thu May 05 16:20:41 CEST 2016
User: root
Dark Spectrum Present: No
Reference Spectrum Present: No
Number of Sampled Component Spectra: 1
Spectrometers: USB4C02835
Integration Time (usec): 100000 (USB4C02835)
Spectra Averaged: 1 (USB4C02835)
Boxcar Smoothing: 0 (USB4C02835)
Correct for Electrical Dark: No (USB4C02835)
Strobe/Lamp Enabled: No (USB4C02835)
Correct for Detector Non-linearity: No (USB4C02835)
Correct for Stray Light: No (USB4C02835)
Number of Pixels in Processed Spectrum: 3648
>>>>>Begin Processed Spectral Data<<<<<
177.47	2009.06
177.69	2009.06
177.91	2009.06
178.13	2043.87
178.36	1957.86
178.58	2537.43
178.80	2762.71
179.02	2521.05
179.24	2564.06
179.46	2467.80
179.68	2492.38
179.90	2680.79
180.13	2727.89
180.35	2381.79
180.57	2465.75
180.79	2904.02
181.01	2713.56
181.23	2473.95
181.45	2625.50
181.67	2791.38
181.90	2856.92
182.12	2500.57
182.34	2359.26
182.56	2750.42
182.78	2789.33
183.00	2478.04
183.22	2533.34
183.44	2400.22
183.66	3200.98
183.89	2643.93
184.11	2488.28
184.33	2815.96
184.55	2949.08
184.77	2473.95
184.99	2473.95
185.21	2707.41
185.43	3086.29
185.65	2445.27
185.87	2502.62
186.10	3084.24
186.32	3039.19
186.54	2576.34
186.76	2600.92
186.98	2865.11
187.20	2625.50
187.42	2578.39
187.64	2504.67
187.86	2750.42
188.08	2906.07
188.30	2418.65
188.52	2523.10
188.75	2818.00
188.97	2949.08
189.19	2465.75
189.41	2445.27
189.63	2791.38
189.85	2623.45
190.07	2349.02
190.29	2369.50
190.51	2764.76
190.73	2578.39
190.95	2715.61
191.17	2510.81
191.39	2525.15
191.61	2707.41
191.84	2533.34
192.06	2559.96
192.28	2451.42
192.50	3153.87
192.72	2596.82
192.94	2629.59
193.16	2856.92
193.38	2803.67
193.60	2455.51
193.82	2572.25
194.04	2899.92
194.26	2742.23
194.48	2547.67
194.70	2582.49
194.92	2617.30
195.14	2834.39
195.36	2432.99
195.58	2572.25
195.80	2781.14
196.02	2551.77
196.24	2506.71
196.46	2496.47
196.69	2629.59
196.91	3090.38
197.13	2605.02
197.35	2504.67
197.57	2963.41
197.79	2760.66
198.01	2611.16
198.23	2602.97
198.45	2877.40
198.67	2504.67
198.89	2394.08
199.11	2523.10
199.33	2678.74
199.55	2430.94
199.77	2430.94
199.99	2592.73
200.21	2666.46
200.43	2754.52
200.65	2410.46
200.87	2363.36
201.09	2709.46
201.31	2666.46
201.53	2594.78
201.75	2605.02
201.97	2789.33
202.19	2742.23
202.41	2564.06
202.63	2650.07
202.85	2887.64
203.07	2750.42
203.29	2510.81
203.51	2432.99
203.73	2617.30
203.95	3123.15
204.17	2541.53
204.39	2543.58
204.61	2803.67
204.83	2641.88
205.05	2613.21
205.27	2615.26
205.49	2998.23
205.71	2695.13
205.93	2447.32
206.15	2459.61
206.37	2727.89
206.59	2672.60
206.81	2418.65
207.03	2461.66
207.25	2570.20
207.47	2820.05
207.69	2580.44
207.91	2729.94
208.13	2910.16
208.34	2619.35
208.56	2408.41
208.78	2523.10
209.00	2617.30
209.22	2637.78
209.44	2566.10
209.66	2545.63
209.88	2697.17
210.10	2672.60
210.32	2510.81
210.54	2668.50
210.76	2705.37
210.98	2940.88
211.20	2324.44
211.42	2594.78
211.64	2893.78
211.86	2727.89
212.08	2617.30
212.30	2461.66
212.52	2693.08
212.74	2871.25
212.96	2539.48
213.17	2650.07
213.39	2871.25
213.61	2967.51
213.83	2519.00
214.05	2402.27
214.27	2883.54
214.49	2514.91
214.71	2463.71
214.93	2617.30
215.15	2686.94
215.37	2844.63
215.59	2322.40
215.81	2541.53
216.03	2883.54
216.24	2691.03
216.46	2506.71
216.68	2549.72
216.90	2828.24
217.12	2869.20
217.34	2492.38
217.56	2662.36
217.78	2944.98
218.00	2742.23
218.22	2639.83
218.44	2623.45
218.66	2754.52
218.87	3002.32
219.09	2437.08
219.31	2623.45
219.53	2727.89
219.75	2654.17
219.97	2609.11
220.19	2535.39
220.41	2725.85
220.63	2998.23
220.85	2584.54
221.06	2576.34
221.28	2990.03
221.50	2748.37
221.72	2478.04
221.94	2414.56
222.16	2805.72
222.38	2772.95
222.60	2541.53
222.82	2607.06
223.03	2891.73
223.25	2598.87
223.47	2543.58
223.69	2723.80
223.91	2895.83
224.13	2775.00
224.35	2377.69
224.57	2697.17
224.78	2838.48
225.00	2670.55
225.22	2639.83
225.44	2514.91
225.66	2899.92
225.88	2586.58
226.10	2625.50
226.32	2531.29
226.53	3002.32
226.75	2654.17
226.97	2547.67
227.19	2482.14
227.41	2625.50
227.63	2684.89
227.85	2387.93
228.06	2494.43
228.28	2721.75
228.50	2793.43
228.72	2349.02
228.94	2467.80
229.16	2428.89
229.37	2537.43
229.59	2539.48
229.81	2668.50
230.03	2711.51
230.25	2478.04
230.47	2398.17
230.69	2510.81
230.90	2844.63
231.12	2588.63
231.34	2514.91
231.56	2500.57
231.78	2570.20
232.00	2762.71
232.21	2525.15
232.43	2537.43
232.65	2435.03
232.87	2719.70
233.09	2473.95
233.30	2510.81
233.52	2863.06
233.74	2688.98
233.96	2408.41
234.18	2631.64
234.40	2635.74
234.61	2967.51
234.83	2346.97
235.05	2547.67
235.27	3088.34
235.49	2865.11
235.70	2461.66
235.92	2619.35
236.14	2799.57
236.36	3022.80
236.58	2437.08
236.79	2596.82
237.01	2670.55
237.23	2779.09
237.45	2682.84
237.67	2549.72
237.88	2764.76
238.10	2951.12
238.32	2475.99
238.54	2510.81
238.76	2619.35
238.97	2564.06
239.19	2449.37
239.41	2523.10
239.63	2924.50
239.85	2688.98
240.06	2529.24
240.28	2529.24
240.50	2957.27
240.72	2645.98
240.93	2449.37
241.15	2602.97
241.37	2648.02
241.59	2953.17
241.81	2490.33
242.02	2545.63
242.24	2768.85
242.46	2822.10
242.68	2406.36
242.89	2527.19
243.11	2871.25
243.33	2615.26
243.55	2568.15
243.76	2516.95
243.98	2635.74
244.20	2666.46
244.42	2492.38
244.64	2478.04
244.85	2545.63
245.07	2566.10
245.29	2568.15
245.51	2551.77
245.72	2756.57
245.94	2856.92
246.16	2551.77
246.38	2564.06
246.59	2619.35
246.81	2523.10
247.03	2449.37
247.24	2412.51
247.46	2688.98
247.68	2863.06
247.90	2498.52
248.11	2482.14
248.33	2912.21
248.55	2748.37
248.77	2658.26
248.98	2613.21
249.20	2971.60
249.42	2758.61
249.64	2547.67
249.85	2492.38
250.07	2654.17
250.29	2822.10
250.50	2607.06
250.72	2510.81
250.94	2754.52
251.16	2994.13
251.37	2465.75
251.59	2650.07
251.81	2764.76
252.02	2848.72
252.24	2441.18
252.46	2645.98
252.68	2613.21
252.89	2621.40
253.11	2420.70
253.33	2568.15
253.54	3016.66
253.76	2564.06
253.98	2512.86
254.20	2543.58
254.41	2588.63
254.63	2731.99
254.85	2387.93
255.06	2633.69
255.28	2801.62
255.50	2721.75
255.71	2480.09
255.93	2416.60
256.15	2736.09
256.36	2777.05
256.58	2357.21
256.80	2496.47
257.02	2695.13
257.23	2701.27
257.45	2535.39
257.67	2621.40
257.88	2645.98
258.10	2801.62
258.32	2498.52
258.53	2602.97
258.75	2856.92
258.97	2693.08
259.18	2502.62
259.40	2478.04
259.62	2910.16
259.83	2979.79
260.05	2559.96
260.27	3260.37
260.48	2856.92
260.70	2582.49
260.92	2432.99
261.13	2488.28
261.35	2666.46
261.57	2826.20
261.78	2422.75
262.00	2451.42
262.22	2854.87
262.43	2596.82
262.65	2496.47
262.86	2543.58
263.08	3094.48
263.30	2721.75
263.51	2432.99
263.73	2443.23
263.95	3028.95
264.16	2578.39
264.38	2408.41
264.60	2521.05
264.81	2748.37
265.03	2838.48
265.25	2752.47
265.46	2514.91
265.68	2889.68
265.89	2836.44
266.11	2412.51
266.33	2537.43
266.54	2887.64
266.76	2746.33
266.98	2598.87
267.19	2654.17
267.41	2861.01
267.62	2731.99
267.84	2410.46
268.06	2615.26
268.27	2742.23
268.49	2944.98
268.70	2578.39
268.92	2568.15
269.14	2590.68
269.35	2510.81
269.57	2621.40
269.79	2598.87
270.00	2605.02
270.22	2906.07
270.43	2412.51
270.65	2363.36
270.87	2783.19
271.08	2906.07
271.30	2531.29
271.51	2494.43
271.73	2881.49
271.95	2875.35
272.16	2410.46
272.38	2559.96
272.59	2611.16
272.81	2727.89
273.02	2422.75
273.24	2586.58
273.46	2840.53
273.67	2627.54
273.89	2387.93
274.10	2521.05
274.32	2944.98
274.54	2807.77
274.75	2506.71
274.97	2557.91
275.18	2836.44
275.40	2756.57
275.61	2588.63
275.83	2617.30
276.05	2594.78
276.26	2660.31
276.48	2652.12
276.69	2598.87
276.91	2633.69
277.12	2914.26
277.34	2727.89
277.55	2762.71
277.77	2699.22
277.99	2662.36
278.20	2588.63
278.42	2510.81
278.63	2588.63
278.85	2578.39
279.06	2490.33
279.28	2699.22
279.49	2818.00
279.71	2815.96
279.93	2639.83
280.14	2643.93
280.36	2588.63
280.57	2881.49
280.79	2670.55
281.00	2465.75
281.22	2582.49
281.43	2867.16
281.65	2422.75
281.86	2521.05
282.08	2803.67
282.29	3002.32
282.51	2396.12
282.73	2439.13
282.94	2478.04
283.16	2895.83
283.37	2670.55
283.59	2631.64
283.80	2793.43
284.02	2693.08
284.23	2703.32
284.45	2670.55
284.66	2578.39
284.88	2627.54
285.09	2562.01
285.31	2740.18
285.52	2891.73
285.74	2459.61
285.95	2746.33
286.17	2662.36
286.38	2838.48
286.60	2564.06
286.81	2586.58
287.03	2551.77
287.24	2633.69
287.46	2785.24
287.67	2734.04
287.89	2867.16
288.10	2723.80
288.32	2727.89
288.53	2856.92
288.75	2684.89
288.96	2826.20
289.18	2701.27
289.39	2553.82
289.61	2672.60
289.82	3030.99
290.04	3002.32
290.25	2527.19
290.47	2623.45
290.68	2734.04
290.90	2842.58
291.11	2492.38
291.33	2770.90
291.54	2635.74
291.76	2623.45
291.97	2779.09
292.18	2633.69
292.40	2731.99
292.61	2648.02
292.83	2871.25
293.04	2670.55
293.26	2779.09
293.47	2674.65
293.69	2559.96
293.90	2641.88
294.12	2936.79
294.33	2766.81
294.55	2584.54
294.76	2670.55
294.97	2895.83
295.19	3100.62
295.40	2572.25
295.62	2684.89
295.83	2801.62
296.05	2588.63
296.26	2684.89
296.48	2652.12
296.69	2725.85
296.90	2777.05
297.12	2660.31
297.33	2799.57
297.55	2822.10
297.76	2826.20
297.98	2705.37
298.19	2684.89
298.41	2621.40
298.62	2621.40
298.83	2760.66
299.05	2686.94
299.26	2682.84
299.48	2652.12
299.69	2693.08
299.90	2627.54
300.12	2531.29
300.33	2807.77
300.55	2643.93
300.76	2637.78
300.98	2549.72
301.19	2783.19
301.40	2586.58
301.62	2559.96
301.83	2789.33
302.05	2682.84
302.26	2557.91
302.47	2639.83
302.69	2615.26
302.90	2641.88
303.12	2400.22
303.33	2740.18
303.54	3051.47
303.76	2686.94
303.97	2613.21
304.19	2775.00
304.40	2553.82
304.61	2725.85
304.83	2793.43
305.04	2734.04
305.26	2875.35
305.47	2713.56
305.68	2611.16
305.90	2512.86
306.11	2826.20
306.33	2740.18
306.54	2570.20
306.75	2598.87
306.97	2486.23
307.18	2559.96
307.39	2559.96
307.61	2648.02
307.82	2727.89
308.04	2789.33
308.25	2545.63
308.46	2813.91
308.68	2723.80
308.89	2709.46
309.10	2744.28
309.32	2674.65
309.53	2711.51
309.74	2750.42
309.96	2613.21
310.17	2731.99
310.39	2596.82
310.60	2752.47
310.81	2668.50
311.03	2564.06
311.24	2793.43
311.45	2707.41
311.67	2863.06
311.88	2637.78
312.09	2564.06
312.31	2527.19
312.52	2584.54
312.73	2576.34
312.95	2500.57
313.16	2629.59
313.37	2762.71
313.59	2731.99
313.80	2824.15
314.01	2910.16
314.23	2678.74
314.44	2514.91
314.65	2564.06
314.87	2617.30
315.08	2539.48
315.29	2568.15
315.51	2627.54
315.72	2506.71
315.93	2688.98
316.15	2734.04
316.36	2719.70
316.57	2764.76
316.79	2682.84
317.00	2617.30
317.21	2752.47
317.43	2592.73
317.64	2568.15
317.85	2537.43
318.07	2576.34
318.28	2619.35
318.49	2695.13
318.70	2856.92
318.92	2815.96
319.13	2815.96
319.34	2809.81
319.56	2617.30
319.77	2758.61
319.98	2865.11
320.20	2809.81
320.41	2742.23
320.62	2789.33
320.83	2428.89
321.05	2793.43
321.26	2756.57
321.47	2709.46
321.69	2848.72
321.90	2574.30
322.11	2623.45
322.32	2811.86
322.54	2938.84
322.75	2605.02
322.96	3160.02
323.18	2564.06
323.39	2492.38
323.60	2527.19
323.81	2703.32
324.03	2602.97
324.24	2711.51
324.45	2686.94
324.66	2627.54
324.88	2842.58
325.09	3004.37
325.30	2662.36
325.52	2559.96
325.73	2783.19
325.94	2482.14
326.15	2553.82
326.37	2508.76
326.58	2742.23
326.79	2918.36
327.00	2580.44
327.22	2607.06
327.43	2631.64
327.64	2564.06
327.85	2674.65
328.07	2666.46
328.28	3069.91
328.49	2678.74
328.70	2666.46
328.92	2555.86
329.13	2676.70
329.34	2764.76
329.55	2789.33
329.76	2715.61
329.98	2744.28
330.19	2858.96
330.40	2625.50
330.61	2777.05
330.83	2795.48
331.04	2650.07
331.25	2691.03
331.46	2639.83
331.68	2580.44
331.89	2887.64
332.10	2652.12
332.31	2525.15
332.52	2705.37
332.74	2936.79
332.95	2449.37
333.16	2631.64
333.37	2924.50
333.58	2678.74
333.80	2613.21
334.01	2385.88
334.22	2678.74
334.43	2611.16
334.64	2555.86
334.86	2486.23
335.07	2516.95
335.28	2920.40
335.49	2510.81
335.70	2684.89
335.92	2834.39
336.13	3094.48
336.34	2686.94
336.55	2627.54
336.76	2775.00
336.98	2465.75
337.19	2658.26
337.40	2715.61
337.61	3039.19
337.82	2613.21
338.04	2828.24
338.25	2478.04
338.46	2645.98
338.67	2676.70
338.88	2484.19
339.09	2496.47
339.31	2686.94
339.52	2559.96
339.73	2463.71
339.94	2572.25
340.15	2758.61
340.36	2635.74
340.58	2635.74
340.79	2498.52
341.00	2865.11
341.21	2504.67
341.42	2869.20
341.63	2605.02
341.85	2834.39
342.06	2713.56
342.27	2539.48
342.48	2750.42
342.69	2566.10
342.90	2727.89
343.12	2787.29
343.33	2555.86
343.54	2891.73
343.75	2885.59
343.96	2631.64
344.17	2568.15
344.38	2719.70
344.60	2590.68
344.81	2529.24
345.02	2629.59
345.23	2842.58
345.44	3092.43
345.65	2717.65
345.86	2654.17
346.07	2795.48
346.29	2674.65
346.50	2734.04
346.71	2684.89
346.92	2887.64
347.13	3008.47
347.34	2643.93
347.55	2527.19
347.76	2727.89
347.98	2547.67
348.19	2555.86
348.40	2680.79
348.61	2707.41
348.82	3006.42
349.03	2650.07
349.24	2480.09
349.45	2947.03
349.66	2478.04
349.88	2572.25
350.09	2564.06
350.30	2842.58
350.51	2932.69
350.72	2695.13
350.93	2627.54
351.14	2719.70
351.35	2760.66
351.56	2611.16
351.77	2672.60
351.99	2697.17
352.20	2908.12
352.41	2686.94
352.62	2400.22
352.83	2697.17
353.04	2725.85
353.25	2539.48
353.46	2627.54
353.67	2887.64
353.88	2519.00
354.09	2615.26
354.30	2602.97
354.52	2766.81
354.73	2672.60
354.94	2633.69
355.15	2713.56
355.36	3030.99
355.57	2674.65
355.78	2619.35
355.99	2682.84
356.20	2650.07
356.41	2947.03
356.62	2621.40
356.83	2674.65
357.04	2906.07
357.25	2557.91
357.46	2605.02
357.68	2490.33
357.89	2547.67
358.10	2670.55
358.31	2578.39
358.52	2693.08
358.73	2594.78
358.94	2596.82
359.15	2607.06
359.36	2658.26
359.57	2822.10
359.78	2629.59
359.99	2725.85
360.20	2564.06
360.41	2666.46
360.62	2813.91
360.83	2705.37
361.04	2635.74
361.25	2809.81
361.46	2967.51
361.67	2699.22
361.88	2621.40
362.09	2799.57
362.30	2789.33
362.51	2570.20
362.72	2562.01
362.93	2824.15
363.14	2752.47
363.35	2666.46
363.56	2506.71
363.78	2850.77
363.99	2885.59
364.20	2551.77
364.41	2711.51
364.62	2949.08
364.83	2756.57
365.04	2607.06
365.25	2672.60
365.46	3047.38
365.67	2703.32
365.88	2707.41
366.09	2625.50
366.30	2701.27
366.51	2731.99
366.72	2557.91
366.93	2521.05
367.14	2768.85
367.35	2930.64
367.56	2555.86
367.77	2701.27
367.98	2750.42
368.18	2885.59
368.39	2697.17
368.60	2486.23
368.81	2840.53
369.02	2736.09
369.23	2580.44
369.44	2525.15
369.65	2744.28
369.86	2781.14
370.07	2756.57
370.28	2559.96
370.49	2748.37
370.70	2756.57
370.91	2637.78
371.12	2525.15
371.33	2916.31
371.54	2613.21
371.75	2772.95
371.96	2355.16
372.17	2736.09
372.38	2705.37
372.59	2641.88
372.80	2494.43
373.01	2684.89
373.22	2746.33
373.43	2564.06
373.64	2441.18
373.85	2932.69
374.06	2947.03
374.26	2801.62
374.47	2629.59
374.68	3008.47
374.89	2746.33
375.10	2592.73
375.31	2727.89
375.52	2727.89
375.73	2762.71
375.94	2475.99
376.15	2758.61
376.36	2576.34
376.57	2703.32
376.78	2617.30
376.99	2686.94
377.20	2908.12
377.40	2668.50
377.61	2846.68
377.82	2582.49
378.03	2844.63
378.24	2789.33
378.45	2662.36
378.66	2631.64
378.87	2504.67
379.08	2551.77
379.29	2654.17
379.50	2799.57
379.71	2727.89
379.91	2809.81
380.12	2592.73
380.33	2705.37
380.54	2713.56
380.75	2674.65
380.96	2652.12
381.17	2709.46
381.38	2785.24
381.59	2715.61
381.80	2723.80
382.00	2799.57
382.21	2729.94
382.42	2885.59
382.63	2928.60
382.84	2754.52
383.05	2854.87
383.26	2971.60
383.47	2656.22
383.68	2568.15
383.88	2744.28
384.09	2736.09
384.30	2856.92
384.51	2723.80
384.72	2629.59
384.93	2471.90
385.14	2734.04
385.35	2809.81
385.55	2584.54
385.76	2856.92
385.97	2611.16
386.18	2549.72
386.39	2639.83
386.60	2650.07
386.81	2656.22
387.02	2455.51
387.22	2525.15
387.43	2824.15
387.64	2703.32
387.85	2842.58
388.06	2846.68
388.27	3901.38
388.48	7622.54
388.68	11024.22
388.89	13430.58
389.10	14444.32
389.31	13588.27
389.52	10821.47
389.73	9432.94
389.93	8605.56
390.14	7804.81
390.35	7012.24
390.56	6412.19
390.77	5289.90
390.98	4136.90
391.18	3510.22
391.39	3151.82
391.60	2789.33
391.81	2848.72
392.02	2672.60
392.23	3084.24
392.43	2801.62
392.64	2834.39
392.85	2592.73
393.06	2924.50
393.27	2729.94
393.47	2637.78
393.68	2697.17
393.89	2656.22
394.10	2885.59
394.31	2570.20
394.52	2588.63
394.72	2600.92
394.93	2944.98
395.14	2523.10
395.35	2699.22
395.56	2641.88
395.76	2672.60
395.97	2602.97
396.18	2748.37
396.39	2752.47
396.60	3237.84
396.80	2934.74
397.01	2832.34
397.22	2785.24
397.43	2871.25
397.64	2584.54
397.84	2734.04
398.05	3006.42
398.26	2740.18
398.47	2793.43
398.67	2797.53
398.88	2746.33
399.09	2803.67
399.30	2637.78
399.51	2682.84
399.71	2615.26
399.92	2744.28
400.13	2736.09
400.34	2641.88
400.54	2731.99
400.75	2936.79
400.96	2727.89
401.17	2815.96
401.37	2813.91
401.58	2734.04
401.79	2609.11
402.00	2748.37
402.21	3074.00
402.41	2926.55
402.62	2881.49
402.83	2998.23
403.04	3182.54
403.24	3340.24
403.45	2727.89
403.66	2897.88
403.87	2920.40
404.07	2873.30
404.28	2895.83
404.49	2932.69
404.70	2807.77
404.90	2844.63
405.11	2609.11
405.32	2777.05
405.52	2639.83
405.73	2654.17
405.94	2449.37
406.15	2643.93
406.35	2797.53
406.56	2779.09
406.77	2684.89
406.98	2666.46
407.18	2566.10
407.39	2953.17
407.60	2605.02
407.80	2666.46
408.01	2639.83
408.22	2703.32
408.43	2621.40
408.63	2738.13
408.84	2916.31
409.05	2901.97
409.25	2584.54
409.46	2519.00
409.67	2639.83
409.88	2643.93
410.08	2615.26
410.29	2617.30
410.50	2844.63
410.70	2754.52
410.91	2572.25
411.12	2697.17
411.32	2744.28
411.53	2576.34
411.74	2682.84
411.95	2811.86
412.15	2764.76
412.36	2820.05
412.57	2803.67
412.77	2770.90
412.98	2723.80
413.19	2641.88
413.39	2719.70
413.60	2660.31
413.81	2803.67
414.01	2504.67
414.22	2621.40
414.43	2785.24
414.63	2660.31
414.84	2924.50
415.05	2652.12
415.25	2453.47
415.46	2861.01
415.67	2656.22
415.87	2717.65
416.08	2570.20
416.29	2707.41
416.49	2793.43
416.70	2625.50
416.91	2670.55
417.11	2658.26
417.32	2877.40
417.53	2699.22
417.73	2717.65
417.94	2652.12
418.15	2795.48
418.35	2666.46
418.56	2619.35
418.77	3102.67
418.97	2719.70
419.18	2686.94
419.38	2457.56
419.59	2760.66
419.80	2981.84
420.00	2519.00
420.21	2682.84
420.42	2871.25
420.62	2772.95
420.83	2559.96
421.04	2629.59
421.24	2707.41
421.45	2852.82
421.65	2670.55
421.86	2662.36
422.07	2830.29
422.27	2844.63
422.48	2639.83
422.69	2508.76
422.89	2738.13
423.10	2652.12
423.30	2584.54
423.51	2740.18
423.72	2789.33
423.92	2916.31
424.13	2482.14
424.33	2637.78
424.54	2846.68
424.75	2811.86
424.95	2842.58
425.16	2654.17
425.36	2717.65
425.57	2875.35
425.78	2719.70
425.98	2746.33
426.19	2672.60
426.39	2525.15
426.60	2678.74
426.81	2818.00
427.01	2738.13
427.22	2605.02
427.42	2510.81
427.63	2580.44
427.83	2869.20
428.04	2953.17
428.25	2775.00
428.45	2756.57
428.66	2785.24
428.86	2744.28
429.07	2564.06
429.28	2662.36
429.48	2639.83
429.69	2586.58
429.89	2768.85
430.10	2508.76
430.30	2807.77
430.51	2897.88
430.71	2568.15
430.92	2711.51
431.13	2580.44
431.33	2740.18
431.54	2703.32
431.74	2846.68
431.95	3022.80
432.15	2666.46
432.36	2625.50
432.56	2729.94
432.77	3039.19
432.98	2916.31
433.18	2777.05
433.39	2584.54
433.59	2715.61
433.80	2973.65
434.00	2875.35
434.21	2551.77
434.41	2572.25
434.62	3108.82
434.82	2557.91
435.03	2549.72
435.23	2779.09
435.44	2559.96
435.64	2611.16
435.85	2754.52
436.06	2871.25
436.26	2953.17
436.47	2639.83
436.67	2627.54
436.88	2707.41
437.08	2854.87
437.29	2801.62
437.49	2748.37
437.70	2824.15
437.90	2805.72
438.11	2875.35
438.31	2779.09
438.52	2992.08
438.72	2852.82
438.93	2877.40
439.13	2672.60
439.34	2863.06
439.54	2738.13
439.75	2809.81
439.95	2658.26
440.16	2572.25
440.36	2701.27
440.57	2648.02
440.77	2731.99
440.98	2678.74
441.18	2809.81
441.39	2621.40
441.59	2559.96
441.80	3049.43
442.00	2742.23
442.21	2740.18
442.41	2506.71
442.62	2981.84
442.82	2680.79
443.02	2643.93
443.23	2625.50
443.43	2754.52
443.64	2842.58
443.84	2531.29
444.05	2752.47
444.25	2752.47
444.46	2721.75
444.66	2633.69
444.87	2781.14
445.07	2519.00
445.28	2727.89
445.48	2791.38
445.69	2711.51
445.89	3129.30
446.09	2645.98
446.30	2949.08
446.50	3014.61
446.71	4595.64
446.91	5672.87
447.12	6438.81
447.32	6915.99
447.53	6559.64
447.73	5398.45
447.93	4812.73
448.14	4587.45
448.34	4532.15
448.55	3862.47
448.75	3774.41
448.96	3647.43
449.16	3352.52
449.36	3301.33
449.57	2953.17
449.77	2850.77
449.98	2605.02
450.18	2818.00
450.39	2662.36
450.59	2740.18
450.79	2721.75
451.00	2701.27
451.20	2805.72
451.41	2678.74
451.61	2729.94
451.81	2688.98
452.02	2512.86
452.22	2625.50
452.43	2715.61
452.63	2637.78
452.84	2648.02
453.04	2598.87
453.24	2752.47
453.45	2568.15
453.65	2645.98
453.86	2691.03
454.06	2744.28
454.26	2752.47
454.47	2580.44
454.67	2887.64
454.87	2752.47
455.08	2598.87
455.28	2844.63
455.49	2795.48
455.69	2625.50
455.89	2963.41
456.10	2826.20
456.30	2596.82
456.51	2938.84
456.71	2682.84
456.91	2750.42
457.12	2633.69
457.32	2770.90
457.52	2555.86
457.73	2725.85
457.93	2793.43
458.14	2637.78
458.34	2527.19
458.54	2670.55
458.75	2535.39
458.95	2869.20
459.15	2756.57
459.36	2713.56
459.56	2719.70
459.76	3059.67
459.97	2758.61
460.17	2631.64
460.37	2709.46
460.58	2740.18
460.78	2893.78
460.99	2631.64
461.19	2635.74
461.39	2641.88
461.60	2744.28
461.80	2684.89
462.00	2635.74
462.21	2715.61
462.41	2623.45
462.61	2512.86
462.82	2541.53
463.02	2787.29
463.22	2768.85
463.43	2777.05
463.63	2588.63
463.83	2996.18
464.04	2815.96
464.24	2711.51
464.44	2510.81
464.64	2678.74
464.85	2811.86
465.05	2684.89
465.25	2631.64
465.46	2650.07
465.66	2826.20
465.86	2660.31
466.07	2691.03
466.27	2676.70
466.47	2596.82
466.68	2441.18
466.88	2770.90
467.08	2844.63
467.29	2842.58
467.49	2660.31
467.69	2686.94
467.89	2826.20
468.10	2719.70
468.30	2752.47
468.50	2711.51
468.71	2879.44
468.91	2588.63
469.11	2785.24
469.31	2746.33
469.52	2533.34
469.72	2928.60
469.92	2877.40
470.13	2736.09
470.33	2736.09
470.53	2879.44
470.73	3037.14
470.94	3313.61
471.14	3364.81
471.34	3798.98
471.54	3663.82
471.75	3389.39
471.95	3147.73
472.15	3153.87
472.36	3082.19
472.56	3092.43
472.76	3172.30
472.96	2994.13
473.17	2850.77
473.37	2830.29
473.57	2721.75
473.77	2744.28
473.98	2766.81
474.18	2576.34
474.38	3241.93
474.58	2676.70
474.79	2562.01
474.99	2797.53
475.19	2873.30
475.39	2574.30
475.60	2721.75
475.80	2623.45
476.00	2842.58
476.20	2648.02
476.41	2711.51
476.61	2764.76
476.81	2873.30
477.01	2652.12
477.21	2920.40
477.42	2775.00
477.62	2619.35
477.82	2838.48
478.02	2617.30
478.23	2686.94
478.43	2627.54
478.63	2645.98
478.83	2766.81
479.03	2635.74
479.24	2940.88
479.44	3008.47
479.64	2617.30
479.84	2426.84
480.04	2607.06
480.25	2873.30
480.45	2572.25
480.65	2623.45
480.85	2899.92
481.06	2727.89
481.26	2768.85
481.46	2693.08
481.66	2822.10
481.86	2633.69
482.06	2830.29
482.27	2635.74
482.47	2633.69
482.67	2867.16
482.87	2742.23
483.07	2803.67
483.28	2680.79
483.48	2584.54
483.68	2596.82
483.88	2590.68
484.08	2471.90
484.29	2654.17
484.49	2676.70
484.69	2531.29
484.89	2916.31
485.09	2865.11
485.29	2717.65
485.50	2797.53
485.70	2680.79
485.90	2838.48
486.10	2789.33
486.30	2705.37
486.50	2895.83
486.71	2721.75
486.91	2750.42
487.11	2803.67
487.31	2580.44
487.51	2768.85
487.71	2605.02
487.91	2588.63
488.12	2596.82
488.32	2318.30
488.52	2582.49
488.72	2373.60
488.92	2748.37
489.12	2916.31
489.32	2789.33
489.53	2693.08
489.73	2506.71
489.93	2881.49
490.13	2602.97
490.33	2422.75
490.53	2740.18
490.73	2887.64
490.94	2478.04
491.14	2818.00
491.34	2822.10
491.54	2953.17
491.74	3661.77
491.94	4097.99
492.14	4399.04
492.34	4546.49
492.54	4134.85
492.75	3497.93
492.95	3719.11
493.15	3381.20
493.35	3311.57
493.55	3188.69
493.75	3127.25
493.95	3221.45
494.15	2928.60
494.35	2789.33
494.56	2734.04
494.76	2564.06
494.96	2715.61
495.16	2619.35
495.36	2633.69
495.56	2695.13
495.76	2635.74
495.96	2652.12
496.16	2602.97
496.36	3035.09
496.56	2652.12
496.77	2631.64
496.97	2736.09
497.17	2842.58
497.37	2404.32
497.57	2664.41
497.77	2818.00
497.97	2576.34
498.17	2656.22
498.37	2613.21
498.57	2775.00
498.77	2607.06
498.97	2766.81
499.17	2873.30
499.38	2723.80
499.58	2928.60
499.78	2756.57
499.98	2797.53
500.18	2746.33
500.38	2639.83
500.58	2813.91
500.78	3237.84
500.98	5476.27
501.18	7280.53
501.38	8675.20
501.58	9564.01
501.78	9361.27
501.98	7622.54
502.18	6485.92
502.38	5541.80
502.58	5380.01
502.78	4784.06
502.98	4626.36
503.18	4448.19
503.38	4106.18
503.59	3612.62
503.79	3379.15
503.99	3291.09
504.19	3305.42
504.39	3047.38
504.59	3198.93
504.79	3024.85
504.99	3162.06
505.19	2957.27
505.39	2809.81
505.59	3035.09
505.79	3051.47
505.99	2901.97
506.19	2723.80
506.39	2936.79
506.59	2596.82
506.79	2719.70
506.99	2858.96
507.19	2566.10
507.39	2801.62
507.59	2607.06
507.79	2572.25
507.99	2613.21
508.19	2600.92
508.39	2611.16
508.59	2654.17
508.79	2756.57
508.99	3055.57
509.19	2639.83
509.39	2717.65
509.59	2605.02
509.79	2656.22
509.99	2775.00
510.19	2834.39
510.39	2789.33
510.59	2758.61
510.79	2570.20
510.99	2623.45
511.19	2643.93
511.39	3014.61
511.59	2873.30
511.79	2738.13
511.99	2658.26
512.19	3010.51
512.38	2754.52
512.58	2529.24
512.78	2609.11
512.98	2842.58
513.18	2858.96
513.38	2465.75
513.58	2705.37
513.78	2668.50
513.98	2697.17
514.18	2637.78
514.38	2629.59
514.58	2803.67
514.78	2691.03
514.98	2549.72
515.18	2670.55
515.38	2613.21
515.58	2967.51
515.78	2609.11
515.98	2602.97
516.18	2824.15
516.38	2717.65
516.57	2613.21
516.77	2555.86
516.97	2795.48
517.17	2699.22
517.37	2467.80
517.57	2715.61
517.77	2695.13
517.97	2580.44
518.17	2701.27
518.37	2547.67
518.57	2537.43
518.77	2705.37
518.97	2668.50
519.16	2727.89
519.36	2951.12
519.56	2627.54
519.76	2645.98
519.96	2699.22
520.16	2936.79
520.36	2611.16
520.56	2801.62
520.76	2639.83
520.96	2625.50
521.16	2865.11
521.35	2781.14
521.55	2795.48
521.75	2738.13
521.95	2650.07
522.15	2592.73
522.35	2498.52
522.55	2570.20
522.75	2807.77
522.95	2633.69
523.14	2551.77
523.34	2775.00
523.54	2670.55
523.74	2836.44
523.94	2658.26
524.14	2545.63
524.34	2734.04
524.54	2822.10
524.73	2660.31
524.93	2789.33
525.13	2815.96
525.33	2545.63
525.53	2881.49
525.73	2861.01
525.93	2641.88
526.13	2666.46
526.32	2670.55
526.52	2836.44
526.72	2803.67
526.92	2662.36
527.12	2600.92
527.32	2494.43
527.52	2717.65
527.71	2703.32
527.91	2727.89
528.11	2691.03
528.31	2746.33
528.51	2555.86
528.71	2705.37
528.90	2723.80
529.10	2904.02
529.30	2709.46
529.50	2394.08
529.70	2797.53
529.90	2705.37
530.09	2674.65
530.29	2490.33
530.49	2627.54
530.69	3086.29
530.89	2701.27
531.09	2754.52
531.28	2666.46
531.48	2904.02
531.68	2656.22
531.88	2693.08
532.08	2895.83
532.28	2703.32
532.47	2752.47
532.67	2748.37
532.87	2813.91
533.07	2627.54
533.27	2807.77
533.46	2691.03
533.66	2807.77
533.86	2764.76
534.06	2688.98
534.26	2723.80
534.45	2781.14
534.65	2809.81
534.85	2734.04
535.05	2613.21
535.25	2801.62
535.44	2504.67
535.64	2719.70
535.84	2654.17
536.04	2719.70
536.24	2637.78
536.43	2547.67
536.63	2701.27
536.83	2674.65
537.03	2678.74
537.22	2420.70
537.42	2445.27
537.62	2791.38
537.82	2627.54
538.02	2930.64
538.21	2783.19
538.41	3166.16
538.61	2772.95
538.81	2684.89
539.00	2822.10
539.20	2496.47
539.40	2682.84
539.60	2695.13
539.79	2764.76
539.99	2723.80
540.19	2623.45
540.39	2602.97
540.58	2631.64
540.78	2789.33
540.98	2699.22
541.18	2797.53
541.37	2713.56
541.57	2719.70
541.77	2775.00
541.97	2521.05
542.16	2494.43
542.36	2594.78
542.56	2627.54
542.76	2879.44
542.95	2695.13
543.15	2809.81
543.35	2811.86
543.54	2635.74
543.74	2553.82
543.94	2932.69
544.14	2670.55
544.33	2742.23
544.53	2699.22
544.73	2719.70
544.93	2643.93
545.12	2607.06
545.32	2680.79
545.52	2701.27
545.71	2471.90
545.91	2637.78
546.11	2672.60
546.30	2592.73
546.50	2693.08
546.70	2686.94
546.90	2754.52
547.09	2457.56
547.29	2721.75
547.49	2801.62
547.68	2586.58
547.88	2627.54
548.08	2742.23
548.27	3080.14
548.47	2584.54
548.67	2691.03
548.87	2824.15
549.06	2555.86
549.26	2590.68
549.46	2760.66
549.65	2715.61
549.85	2643.93
550.05	2734.04
550.24	2506.71
550.44	2754.52
550.64	2600.92
550.83	2678.74
551.03	2947.03
551.23	2865.11
551.42	2684.89
551.62	2645.98
551.82	2742.23
552.01	2631.64
552.21	2897.88
552.41	2686.94
552.60	2973.65
552.80	2750.42
553.00	2592.73
553.19	2691.03
553.39	3012.56
553.59	2580.44
553.78	2715.61
553.98	2645.98
554.17	2490.33
554.37	2742.23
554.57	2713.56
554.76	2586.58
554.96	2635.74
555.16	2686.94
555.35	2705.37
555.55	2748.37
555.75	2809.81
555.94	2799.57
556.14	2443.23
556.33	2752.47
556.53	2703.32
556.73	2748.37
556.92	2752.47
557.12	2725.85
557.32	3063.76
557.51	2891.73
557.71	2680.79
557.90	2858.96
558.10	2936.79
558.30	2748.37
558.49	2592.73
558.69	2566.10
558.88	2828.24
559.08	2650.07
559.28	2605.02
559.47	2695.13
559.67	2850.77
559.86	3080.14
560.06	2645.98
560.26	2707.41
560.45	2783.19
560.65	2727.89
560.84	2879.44
561.04	2516.95
561.24	2719.70
561.43	2531.29
561.63	2852.82
561.82	2742.23
562.02	2822.10
562.22	2650.07
562.41	2562.01
562.61	2668.50
562.80	2592.73
563.00	3024.85
563.19	2701.27
563.39	2711.51
563.59	2803.67
563.78	2637.78
563.98	2447.32
564.17	2627.54
564.37	2516.95
564.56	2699.22
564.76	2564.06
564.96	2858.96
565.15	2781.14
565.35	3141.58
565.54	2654.17
565.74	2715.61
565.93	2789.33
566.13	2727.89
566.32	2736.09
566.52	2803.67
566.71	2727.89
566.91	2789.33
567.11	2783.19
567.30	2641.88
567.50	2820.05
567.69	2797.53
567.89	2654.17
568.08	2543.58
568.28	2740.18
568.47	2641.88
568.67	2684.89
568.86	2572.25
569.06	2809.81
569.25	2715.61
569.45	2465.75
569.64	2586.58
569.84	2678.74
570.04	2764.76
570.23	2660.31
570.43	2697.17
570.62	2768.85
570.82	3014.61
571.01	2527.19
571.21	2674.65
571.40	2600.92
571.60	2920.40
571.79	2664.41
571.99	2564.06
572.18	2613.21
572.38	2803.67
572.57	2662.36
572.77	2701.27
572.96	3137.49
573.16	2717.65
573.35	2664.41
573.55	2867.16
573.74	2676.70
573.94	2652.12
574.13	2666.46
574.33	2828.24
574.52	2863.06
574.71	2752.47
574.91	2701.27
575.10	2510.81
575.30	2707.41
575.49	2658.26
575.69	2664.41
575.88	2715.61
576.08	2742.23
576.27	2836.44
576.47	2666.46
576.66	2803.67
576.86	2908.12
577.05	2719.70
577.25	2813.91
577.44	2863.06
577.64	2648.02
577.83	2949.08
578.02	2668.50
578.22	2822.10
578.41	2965.46
578.61	2709.46
578.80	2598.87
579.00	2623.45
579.19	2785.24
579.39	2865.11
579.58	2725.85
579.77	2645.98
579.97	2934.74
580.16	3010.51
580.36	2879.44
580.55	2758.61
580.75	2793.43
580.94	2861.01
581.13	2785.24
581.33	2830.29
581.52	2750.42
581.72	3114.96
581.91	2801.62
582.11	2627.54
582.30	2883.54
582.49	2775.00
582.69	2957.27
582.88	2758.61
583.08	2803.67
583.27	2781.14
583.47	2756.57
583.66	2580.44
583.85	2580.44
584.05	2731.99
584.24	2797.53
584.44	2691.03
584.63	2881.49
584.82	2904.02
585.02	2887.64
585.21	2795.48
585.41	2813.91
585.60	2752.47
585.79	3033.04
585.99	2940.88
586.18	2801.62
586.37	3571.66
586.57	5492.65
586.76	15644.43
586.96	35106.28
587.15	47985.96
587.34	56587.42
587.54	61248.60
587.73	54467.78
587.93	38700.47
588.12	29021.77
588.31	24014.48
588.51	20862.66
588.70	19427.03
588.89	17135.35
589.09	14452.52
589.28	12562.24
589.47	9873.26
589.67	7511.95
589.86	5967.78
590.06	4470.72
590.25	3915.72
590.44	3395.53
590.64	3147.73
590.83	3030.99
591.02	2996.18
591.22	2729.94
591.41	2725.85
591.60	2695.13
591.80	3076.05
591.99	2523.10
592.18	2699.22
592.38	2951.12
592.57	2664.41
592.76	2617.30
592.96	2756.57
593.15	2727.89
593.34	2830.29
593.54	2662.36
593.73	2705.37
593.92	2822.10
594.12	2818.00
594.31	2772.95
594.50	2828.24
594.70	2746.33
594.89	3188.69
595.08	2598.87
595.28	2791.38
595.47	3231.69
595.66	2889.68
595.86	2607.06
596.05	2574.30
596.24	2641.88
596.43	2930.64
596.63	2846.68
596.82	2840.53
597.01	2818.00
597.21	2992.08
597.40	2725.85
597.59	2832.34
597.79	2766.81
597.98	2846.68
598.17	2779.09
598.36	2678.74
598.56	2801.62
598.75	2658.26
598.94	2729.94
599.14	2703.32
599.33	2662.36
599.52	2832.34
599.71	2664.41
599.91	2756.57
600.10	2875.35
600.29	2688.98
600.48	2815.96
600.68	2795.48
600.87	2697.17
601.06	2701.27
601.26	2693.08
601.45	2719.70
601.64	2715.61
601.83	2875.35
602.03	2551.77
602.22	2490.33
602.41	2889.68
602.60	3067.86
602.80	2777.05
602.99	2791.38
603.18	2615.26
603.37	2785.24
603.57	2596.82
603.76	2746.33
603.95	2901.97
604.14	2557.91
604.34	2537.43
604.53	2684.89
604.72	2797.53
604.91	2834.39
605.10	2727.89
605.30	2498.52
605.49	3086.29
605.68	2777.05
605.87	2713.56
606.07	2674.65
606.26	2723.80
606.45	2861.01
606.64	2709.46
606.84	2674.65
607.03	2752.47
607.22	2840.53
607.41	2617.30
607.60	2629.59
607.80	2883.54
607.99	2658.26
608.18	2623.45
608.37	2658.26
608.56	2654.17
608.76	2881.49
608.95	2850.77
609.14	2715.61
609.33	2910.16
609.52	2969.55
609.72	2762.71
609.91	2875.35
610.10	2719.70
610.29	2947.03
610.48	2734.04
610.68	2758.61
610.87	2736.09
611.06	2799.57
611.25	2666.46
611.44	2848.72
611.63	2664.41
611.83	2914.26
612.02	2541.53
612.21	2725.85
612.40	2619.35
612.59	2510.81
612.79	2547.67
612.98	2715.61
613.17	3024.85
613.36	2645.98
613.55	2891.73
613.74	2688.98
613.93	2768.85
614.13	2910.16
614.32	2756.57
614.51	2770.90
614.70	2721.75
614.89	2633.69
615.08	2783.19
615.28	3188.69
615.47	2621.40
615.66	2783.19
615.85	2754.52
616.04	2764.76
616.23	2744.28
616.42	2723.80
616.62	2715.61
616.81	2760.66
617.00	2785.24
617.19	2848.72
617.38	2621.40
617.57	2740.18
617.76	2828.24
617.95	2826.20
618.15	2768.85
618.34	2873.30
618.53	2611.16
618.72	2858.96
618.91	2797.53
619.10	2783.19
619.29	2818.00
619.48	2770.90
619.68	2559.96
619.87	2607.06
620.06	2592.73
620.25	2740.18
620.44	2570.20
620.63	2684.89
620.82	2758.61
621.01	2785.24
621.20	2762.71
621.39	2670.55
621.59	2840.53
621.78	2740.18
621.97	2699.22
622.16	2740.18
622.35	2815.96
622.54	2820.05
622.73	2750.42
622.92	2461.66
623.11	2856.92
623.30	2672.60
623.49	2826.20
623.68	2584.54
623.88	2916.31
624.07	2691.03
624.26	2670.55
624.45	2680.79
624.64	2709.46
624.83	2715.61
625.02	2592.73
625.21	2674.65
625.40	2756.57
625.59	2916.31
625.78	2699.22
625.97	2787.29
626.16	2887.64
626.35	2944.98
626.54	2717.65
626.74	2858.96
626.93	2678.74
627.12	2676.70
627.31	2781.14
627.50	2789.33
627.69	2842.58
627.88	2609.11
628.07	2594.78
628.26	2502.62
628.45	2650.07
628.64	2551.77
628.83	2713.56
629.02	2512.86
629.21	2838.48
629.40	2803.67
629.59	2605.02
629.78	2637.78
629.97	2709.46
630.16	2797.53
630.35	2611.16
630.54	2639.83
630.73	2725.85
630.92	2619.35
631.11	2572.25
631.30	2615.26
631.49	2852.82
631.68	2703.32
631.87	2695.13
632.06	2498.52
632.25	3018.71
632.44	2713.56
632.63	2678.74
632.82	2703.32
633.01	2607.06
633.20	2793.43
633.39	2674.65
633.58	2506.71
633.77	2848.72
633.96	2785.24
634.15	2725.85
634.34	2727.89
634.53	2742.23
634.72	2631.64
634.91	2504.67
635.10	2682.84
635.29	2818.00
635.48	2742.23
635.67	2596.82
635.86	2504.67
636.05	2901.97
636.24	2744.28
636.43	2633.69
636.62	2697.17
636.81	2473.95
637.00	2766.81
637.19	2731.99
637.38	2727.89
637.57	2633.69
637.76	2746.33
637.95	2822.10
638.14	2738.13
638.33	2772.95
638.52	2764.76
638.71	2523.10
638.89	2508.76
639.08	3143.63
639.27	2899.92
639.46	2813.91
639.65	3147.73
639.84	3088.34
640.03	3319.76
640.22	3141.58
640.41	3110.86
640.60	2875.35
640.79	2826.20
640.98	2799.57
641.17	2926.55
641.36	2906.07
641.55	2875.35
641.74	2652.12
641.92	2637.78
642.11	2719.70
642.30	2643.93
642.49	2541.53
642.68	2576.34
642.87	2799.57
643.06	2840.53
643.25	2531.29
643.44	2582.49
643.63	2684.89
643.82	2875.35
644.00	2543.58
644.19	2662.36
644.38	2637.78
644.57	2731.99
644.76	2676.70
644.95	2648.02
645.14	2721.75
645.33	2746.33
645.52	2613.21
645.71	2584.54
645.89	2562.01
646.08	2756.57
646.27	2574.30
646.46	2940.88
646.65	2527.19
646.84	2809.81
647.03	2578.39
647.22	2768.85
647.40	2766.81
647.59	2672.60
647.78	2463.71
647.97	2594.78
648.16	2670.55
648.35	3000.27
648.54	2854.87
648.73	2660.31
648.91	2813.91
649.10	2764.76
649.29	2592.73
649.48	2559.96
649.67	2752.47
649.86	2723.80
650.05	2705.37
650.23	2856.92
650.42	2645.98
650.61	2963.41
650.80	2756.57
650.99	2910.16
651.18	2910.16
651.36	2924.50
651.55	2598.87
651.74	2815.96
651.93	2717.65
652.12	2717.65
652.31	2725.85
652.49	2676.70
652.68	2629.59
652.87	2977.75
653.06	2705.37
653.25	2861.01
653.44	2766.81
653.62	2926.55
653.81	2742.23
654.00	2637.78
654.19	2834.39
654.38	2973.65
654.56	2820.05
654.75	2641.88
654.94	2734.04
655.13	2697.17
655.32	2635.74
655.51	2789.33
655.69	2643.93
655.88	2863.06
656.07	2512.86
656.26	2656.22
656.45	2605.02
656.63	2742.23
656.82	2654.17
657.01	2822.10
657.20	2594.78
657.38	2953.17
657.57	2643.93
657.76	2451.42
657.95	2764.76
658.14	2629.59
658.32	2695.13
658.51	2478.04
658.70	2742.23
658.89	2736.09
659.08	2633.69
659.26	2770.90
659.45	2656.22
659.64	2881.49
659.83	2643.93
660.01	3071.95
660.20	2731.99
660.39	2936.79
660.58	2449.37
660.76	2830.29
660.95	2525.15
661.14	2815.96
661.33	2592.73
661.51	2512.86
661.70	2682.84
661.89	2752.47
662.08	2596.82
662.26	2551.77
662.45	2555.86
662.64	2979.79
662.83	2758.61
663.01	2562.01
663.20	2717.65
663.39	3035.09
663.58	2637.78
663.76	2582.49
663.95	2785.24
664.14	2541.53
664.32	2609.11
664.51	2541.53
664.70	2469.85
664.89	2824.15
665.07	2500.57
665.26	2707.41
665.45	2537.43
665.64	2805.72
665.82	2666.46
666.01	2772.95
666.20	2594.78
666.38	2848.72
666.57	2930.64
666.76	4294.59
666.95	10000.23
667.13	16936.70
667.32	20946.62
667.51	24080.02
667.69	25079.43
667.88	21638.84
668.07	15304.47
668.25	12832.57
668.44	11044.70
668.63	9498.48
668.81	8329.09
669.00	7321.49
669.19	6612.89
669.38	5615.53
669.56	4896.69
669.75	4296.64
669.94	3796.93
670.12	3227.60
670.31	3028.95
670.50	2897.88
670.68	2918.36
670.87	2846.68
671.06	2623.45
671.24	2674.65
671.43	2897.88
671.62	2797.53
671.80	2643.93
671.99	2729.94
672.18	2711.51
672.36	2820.05
672.55	2787.29
672.74	2711.51
672.92	2686.94
673.11	2926.55
673.29	2562.01
673.48	2818.00
673.67	2707.41
673.85	2861.01
674.04	2596.82
674.23	2715.61
674.41	3018.71
674.60	2619.35
674.79	2500.57
674.97	2588.63
675.16	2805.72
675.34	2871.25
675.53	2609.11
675.72	2725.85
675.90	2955.22
676.09	2791.38
676.28	2666.46
676.46	2469.85
676.65	2711.51
676.83	2658.26
677.02	2691.03
677.21	2750.42
677.39	2760.66
677.58	2596.82
677.77	2611.16
677.95	2600.92
678.14	2719.70
678.32	2621.40
678.51	2617.30
678.70	2979.79
678.88	2715.61
679.07	2754.52
679.25	2672.60
679.44	2668.50
679.63	2633.69
679.81	2740.18
680.00	2809.81
680.18	2787.29
680.37	2983.89
680.55	2719.70
680.74	2525.15
680.93	2430.94
681.11	2809.81
681.30	2719.70
681.48	2797.53
681.67	2695.13
681.85	2811.86
682.04	2619.35
682.23	2795.48
682.41	2756.57
682.60	2693.08
682.78	2713.56
682.97	2547.67
683.15	2602.97
683.34	2764.76
683.53	2914.26
683.71	2523.10
683.90	2768.85
684.08	2955.22
684.27	2619.35
684.45	2758.61
684.64	2795.48
684.82	2760.66
685.01	2793.43
685.19	2660.31
685.38	2813.91
685.57	2754.52
685.75	2629.59
685.94	2621.40
686.12	2572.25
686.31	2693.08
686.49	2936.79
686.68	2453.47
686.86	2693.08
687.05	2715.61
687.23	2908.12
687.42	2596.82
687.60	2392.03
687.79	2887.64
687.97	2871.25
688.16	2813.91
688.34	2809.81
688.53	2400.22
688.71	2731.99
688.90	2828.24
689.08	2693.08
689.27	2529.24
689.45	2840.53
689.64	2779.09
689.82	2750.42
690.01	2795.48
690.19	2775.00
690.38	2758.61
690.56	2844.63
690.75	2570.20
690.93	2629.59
691.12	2623.45
691.30	2691.03
691.49	2637.78
691.67	2760.66
691.86	2934.74
692.04	2615.26
692.23	2611.16
692.41	2750.42
692.60	2961.36
692.78	2914.26
692.97	2815.96
693.15	2844.63
693.34	2973.65
693.52	2820.05
693.71	2691.03
693.89	2656.22
694.08	2502.62
694.26	2742.23
694.44	2818.00
694.63	2828.24
694.81	2605.02
695.00	2582.49
695.18	2846.68
695.37	3198.93
695.55	2719.70
695.74	2611.16
695.92	2537.43
696.10	2926.55
696.29	2523.10
696.47	2641.88
696.66	2521.05
696.84	2641.88
697.03	2719.70
697.21	2930.64
697.40	4097.99
697.58	2912.21
697.76	2590.68
697.95	2586.58
698.13	2625.50
698.32	2576.34
698.50	2719.70
698.68	2695.13
698.87	2758.61
699.05	2918.36
699.24	2678.74
699.42	2564.06
699.61	2752.47
699.79	2775.00
699.97	2723.80
700.16	2498.52
700.34	2578.39
700.53	2768.85
700.71	2838.48
700.89	2783.19
701.08	2609.11
701.26	2688.98
701.45	3188.69
701.63	2580.44
701.81	2590.68
702.00	2613.21
702.18	2734.04
702.37	2662.36
702.55	2906.07
702.73	2811.86
702.92	2654.17
703.10	2877.40
703.28	2908.12
703.47	2590.68
703.65	2904.02
703.84	2775.00
704.02	2654.17
704.20	3002.32
704.39	2566.10
704.57	2596.82
704.75	2875.35
704.94	2867.16
705.12	2709.46
705.30	3076.05
705.49	5785.51
705.67	11747.15
705.86	17768.18
706.04	20500.17
706.22	22748.84
706.41	22507.18
706.59	17673.97
706.77	13348.66
706.96	11552.59
707.14	10352.48
707.32	8793.98
707.51	7931.78
707.69	6447.01
707.87	5355.44
708.06	4521.92
708.24	3811.27
708.42	3352.52
708.61	3420.11
708.79	2697.17
708.97	2738.13
709.16	2879.44
709.34	2699.22
709.52	2676.70
709.71	2695.13
709.89	2799.57
710.07	2625.50
710.26	2600.92
710.44	2660.31
710.62	2895.83
710.80	2781.14
710.99	2744.28
711.17	2748.37
711.35	2574.30
711.54	2709.46
711.72	2828.24
711.90	2752.47
712.09	2760.66
712.27	2750.42
712.45	2731.99
712.63	2643.93
712.82	2760.66
713.00	2674.65
713.18	2783.19
713.37	2764.76
713.55	2836.44
713.73	2840.53
713.91	2760.66
714.10	2650.07
714.28	2668.50
714.46	2766.81
714.65	2719.70
714.83	2635.74
715.01	2744.28
715.19	2668.50
715.38	2564.06
715.56	2781.14
715.74	2572.25
715.92	2586.58
716.11	2858.96
716.29	2426.84
716.47	2744.28
716.65	2652.12
716.84	2580.44
717.02	2775.00
717.20	2473.95
717.38	2629.59
717.57	2752.47
717.75	2670.55
717.93	2625.50
718.11	2834.39
718.30	2475.99
718.48	2719.70
718.66	2867.16
718.84	2807.77
719.03	2686.94
719.21	2549.72
719.39	2963.41
719.57	2764.76
719.75	2731.99
719.94	2582.49
720.12	2688.98
720.30	2691.03
720.48	2805.72
720.67	2623.45
720.85	2654.17
721.03	2656.22
721.21	2594.78
721.39	2795.48
721.58	2844.63
721.76	2723.80
721.94	2840.53
722.12	2760.66
722.30	2924.50
722.49	2729.94
722.67	2664.41
722.85	2658.26
723.03	2521.05
723.21	2519.00
723.40	2693.08
723.58	2875.35
723.76	2940.88
723.94	2906.07
724.12	2764.76
724.30	2899.92
724.49	2863.06
724.67	2617.30
724.85	2811.86
725.03	2494.43
725.21	2848.72
725.40	2899.92
725.58	2574.30
725.76	2877.40
725.94	2811.86
726.12	2637.78
726.30	2633.69
726.49	2637.78
726.67	2701.27
726.85	2809.81
727.03	3039.19
727.21	4077.51
727.39	5126.07
727.57	5627.82
727.76	6029.22
727.94	6072.23
728.12	5711.78
728.30	4589.50
728.48	4274.11
728.66	3899.33
728.84	3721.16
729.03	3375.05
729.21	3114.96
729.39	2990.03
729.57	2824.15
729.75	2815.96
729.93	2719.70
730.11	2547.67
730.30	2656.22
730.48	2703.32
730.66	2799.57
730.84	2813.91
731.02	2725.85
731.20	2559.96
731.38	2664.41
731.56	2588.63
731.74	2502.62
731.93	2777.05
732.11	2643.93
732.29	2658.26
732.47	2850.77
732.65	2766.81
732.83	2881.49
733.01	2715.61
733.19	2650.07
733.37	2795.48
733.56	2721.75
733.74	2613.21
733.92	2879.44
734.10	2676.70
734.28	2758.61
734.46	2475.99
734.64	2701.27
734.82	2693.08
735.00	2611.16
735.18	2701.27
735.36	2795.48
735.54	2762.71
735.73	2621.40
735.91	2723.80
736.09	2949.08
736.27	2615.26
736.45	2818.00
736.63	2414.56
736.81	2658.26
736.99	2863.06
737.17	2801.62
737.35	2629.59
737.53	2742.23
737.71	2658.26
737.89	2752.47
738.07	2619.35
738.25	2578.39
738.43	2574.30
738.61	2658.26
738.80	2498.52
738.98	2566.10
739.16	2691.03
739.34	2562.01
739.52	2873.30
739.70	2688.98
739.88	2818.00
740.06	2842.58
740.24	2430.94
740.42	2908.12
740.60	2475.99
740.78	2693.08
740.96	2490.33
741.14	2701.27
741.32	2764.76
741.50	2562.01
741.68	2908.12
741.86	2932.69
742.04	2508.76
742.22	2598.87
742.40	2746.33
742.58	2795.48
742.76	2605.02
742.94	2885.59
743.12	2498.52
743.30	2725.85
743.48	2813.91
743.66	2592.73
743.84	2762.71
744.02	2656.22
744.20	2721.75
744.38	2553.82
744.56	2627.54
744.74	2918.36
744.92	2781.14
745.10	2832.34
745.28	2734.04
745.46	2971.60
745.64	2684.89
745.82	2734.04
746.00	2695.13
746.18	2758.61
746.36	2627.54
746.54	2713.56
746.72	2705.37
746.90	2564.06
747.08	2973.65
747.26	2633.69
747.44	2742.23
747.62	2838.48
747.80	2756.57
747.98	2775.00
748.15	2658.26
748.33	2922.45
748.51	2752.47
748.69	2807.77
748.87	2635.74
749.05	2641.88
749.23	2652.12
749.41	2670.55
749.59	2572.25
749.77	2897.88
749.95	2645.98
750.13	2600.92
750.31	2813.91
750.49	2668.50
750.67	2889.68
750.85	2850.77
751.03	2654.17
751.20	2979.79
751.38	2752.47
751.56	2592.73
751.74	2668.50
751.92	2678.74
752.10	2498.52
752.28	2848.72
752.46	2660.31
752.64	2701.27
752.82	2695.13
753.00	2746.33
753.18	2613.21
753.35	2621.40
753.53	2686.94
753.71	2666.46
753.89	2809.81
754.07	2719.70
754.25	2906.07
754.43	2697.17
754.61	2512.86
754.79	2729.94
754.97	2760.66
755.14	2789.33
755.32	2502.62
755.50	2686.94
755.68	2650.07
755.86	2508.76
756.04	2596.82
756.22	2445.27
756.40	2830.29
756.57	2875.35
756.75	2633.69
756.93	2848.72
757.11	2791.38
757.29	2590.68
757.47	2566.10
757.65	2512.86
757.82	2510.81
758.00	2578.39
758.18	2617.30
758.36	2619.35
758.54	2987.99
758.72	2484.19
758.90	2791.38
759.07	2775.00
759.25	2645.98
759.43	2709.46
759.61	2465.75
759.79	3919.81
759.97	2844.63
760.15	2645.98
760.32	2592.73
760.50	2719.70
760.68	2981.84
760.86	2600.92
761.04	2828.24
761.22	2799.57
761.39	2738.13
761.57	2785.24
761.75	2619.35
761.93	2789.33
762.11	2641.88
762.28	2746.33
762.46	2582.49
762.64	2762.71
762.82	2576.34
763.00	2656.22
763.18	2840.53
763.35	2602.97
763.53	2893.78
763.71	2678.74
763.89	2645.98
764.07	2715.61
764.24	2748.37
764.42	2807.77
764.60	2572.25
764.78	2789.33
764.96	2869.20
765.13	2832.34
765.31	2670.55
765.49	2752.47
765.67	2576.34
765.84	2727.89
766.02	2537.43
766.20	2527.19
766.38	2799.57
766.56	2684.89
766.73	2742.23
766.91	2717.65
767.09	2799.57
767.27	2754.52
767.44	2564.06
767.62	2807.77
767.80	2768.85
767.98	2621.40
768.15	2693.08
768.33	2775.00
768.51	2727.89
768.69	2736.09
768.87	2736.09
769.04	2748.37
769.22	3024.85
769.40	2828.24
769.58	2895.83
769.75	2748.37
769.93	2822.10
770.11	2699.22
770.28	2590.68
770.46	2832.34
770.64	2762.71
770.82	2658.26
770.99	2506.71
771.17	2818.00
771.35	2680.79
771.53	2641.88
771.70	2537.43
771.88	2736.09
772.06	2703.32
772.23	2598.87
772.41	2807.77
772.59	2674.65
772.77	2586.58
772.94	2621.40
773.12	2670.55
773.30	2654.17
773.47	2693.08
773.65	2625.50
773.83	2844.63
774.01	2666.46
774.18	2455.51
774.36	2658.26
774.54	2510.81
774.71	2762.71
774.89	2547.67
775.07	2625.50
775.24	2668.50
775.42	2633.69
775.60	2987.99
775.78	2543.58
775.95	2469.85
776.13	2531.29
776.31	2447.32
776.48	2684.89
776.66	2756.57
776.84	2648.02
777.01	2629.59
777.19	2656.22
777.37	2613.21
777.54	2754.52
777.72	3006.42
777.90	2670.55
778.07	2641.88
778.25	3117.01
778.43	2867.16
778.60	2584.54
778.78	2688.98
778.96	2901.97
779.13	2547.67
779.31	2670.55
779.49	2668.50
779.66	2666.46
779.84	2734.04
780.01	2715.61
780.19	2557.91
780.37	2918.36
780.54	2826.20
780.72	2549.72
780.90	2652.12
781.07	2727.89
781.25	2641.88
781.43	2815.96
781.60	2656.22
781.78	2856.92
781.95	2711.51
782.13	2600.92
782.31	2617.30
782.48	2457.56
782.66	2654.17
782.83	2867.16
783.01	2695.13
783.19	2856.92
783.36	2660.31
783.54	2551.77
783.72	2766.81
783.89	2658.26
784.07	2684.89
784.24	2807.77
784.42	2834.39
784.60	2783.19
784.77	2779.09
784.95	2455.51
785.12	2699.22
785.30	2756.57
785.47	2559.96
785.65	2510.81
785.83	2645.98
786.00	2699.22
786.18	2748.37
786.35	2578.39
786.53	2564.06
786.71	2901.97
786.88	2828.24
787.06	2762.71
787.23	2633.69
787.41	2617.30
787.58	2686.94
787.76	2547.67
787.94	2691.03
788.11	2785.24
788.29	2605.02
788.46	2678.74
788.64	2512.86
788.81	2699.22
788.99	2576.34
789.16	2559.96
789.34	2650.07
789.52	2660.31
789.69	2670.55
789.87	2465.75
790.04	2596.82
790.22	2717.65
790.39	3086.29
790.57	2637.78
790.74	2537.43
790.92	2775.00
791.09	2539.48
791.27	2738.13
791.44	2750.42
791.62	2600.92
791.79	2856.92
791.97	2686.94
792.15	2979.79
792.32	2791.38
792.50	2758.61
792.67	2899.92
792.85	2826.20
793.02	2760.66
793.20	2674.65
793.37	2504.67
793.55	2562.01
793.72	2584.54
793.90	2803.67
794.07	2629.59
794.25	2543.58
794.42	2717.65
794.60	2652.12
794.77	2719.70
794.95	2801.62
795.12	2842.58
795.30	2713.56
795.47	2406.36
795.65	3016.66
795.82	2754.52
796.00	2607.06
796.17	2627.54
796.34	2586.58
796.52	2693.08
796.69	2836.44
796.87	2764.76
797.04	2627.54
797.22	2756.57
797.39	2756.57
797.57	2762.71
797.74	2691.03
797.92	2752.47
798.09	2721.75
798.27	2916.31
798.44	2629.59
798.62	2658.26
798.79	2797.53
798.96	2719.70
799.14	2629.59
799.31	3121.10
799.49	2691.03
799.66	2654.17
799.84	2744.28
800.01	2457.56
800.19	2826.20
800.36	2441.18
800.53	2727.89
800.71	2760.66
800.88	2887.64
801.06	2578.39
801.23	2566.10
801.41	2617.30
801.58	2648.02
801.75	2572.25
801.93	2662.36
802.10	2887.64
802.28	2633.69
802.45	2668.50
802.63	2756.57
802.80	2961.36
802.97	2699.22
803.15	2641.88
803.32	2584.54
803.50	2600.92
803.67	2551.77
803.84	2541.53
804.02	2688.98
804.19	2701.27
804.37	2435.03
804.54	2519.00
804.71	2678.74
804.89	2775.00
805.06	2562.01
805.24	2531.29
805.41	2531.29
805.58	2576.34
805.76	3098.58
805.93	2617.30
806.10	2758.61
806.28	2824.15
806.45	2709.46
806.63	2799.57
806.80	2744.28
806.97	2742.23
807.15	2793.43
807.32	2697.17
807.49	2633.69
807.67	2527.19
807.84	2717.65
808.01	2500.57
808.19	2867.16
808.36	3121.10
808.54	2619.35
808.71	2607.06
808.88	2734.04
809.06	2918.36
809.23	2914.26
809.40	2709.46
809.58	2672.60
809.75	2676.70
809.92	2506.71
810.10	2914.26
810.27	2660.31
810.44	2768.85
810.62	2801.62
810.79	2658.26
810.96	2605.02
811.14	2654.17
811.31	2740.18
811.48	2826.20
811.66	2662.36
811.83	2904.02
812.00	2772.95
812.18	2725.85
812.35	2969.55
812.52	2619.35
812.69	2637.78
812.87	2615.26
813.04	2648.02
813.21	2688.98
813.39	2574.30
813.56	2631.64
813.73	2852.82
813.91	2488.28
814.08	2707.41
814.25	2727.89
814.42	2398.17
814.60	2723.80
814.77	2676.70
814.94	2629.59
815.12	2697.17
815.29	2975.70
815.46	2637.78
815.63	2709.46
815.81	2551.77
815.98	2666.46
816.15	2666.46
816.33	2691.03
816.50	2654.17
816.67	2619.35
816.84	2660.31
817.02	2566.10
817.19	2701.27
817.36	2801.62
817.53	2785.24
817.71	2605.02
817.88	2693.08
818.05	2643.93
818.22	2629.59
818.40	2881.49
818.57	2607.06
818.74	2813.91
818.91	2727.89
819.09	2805.72
819.26	2756.57
819.43	2596.82
819.60	2623.45
819.78	2711.51
819.95	2818.00
820.12	2615.26
820.29	2887.64
820.47	2846.68
820.64	2568.15
820.81	2541.53
820.98	2619.35
821.15	2633.69
821.33	2762.71
821.50	2547.67
821.67	2768.85
821.84	2662.36
822.02	2748.37
822.19	2889.68
822.36	2578.39
822.53	2607.06
822.70	2588.63
822.88	2658.26
823.05	2918.36
823.22	2621.40
823.39	2723.80
823.56	2619.35
823.74	3002.32
823.91	2645.98
824.08	2500.57
824.25	2637.78
824.42	2936.79
824.60	2533.34
824.77	2764.76
824.94	2623.45
825.11	2729.94
825.28	2480.09
825.45	2760.66
825.63	2791.38
825.80	2502.62
825.97	2654.17
826.14	2674.65
826.31	2478.04
826.48	2820.05
826.66	2607.06
826.83	2619.35
827.00	2648.02
827.17	2519.00
827.34	2670.55
827.51	2553.82
827.69	2668.50
827.86	2486.23
828.03	2670.55
828.20	2600.92
828.37	2633.69
828.54	2764.76
828.71	2625.50
828.89	2752.47
829.06	2717.65
829.23	3004.37
829.40	2635.74
829.57	2605.02
829.74	2742.23
829.91	2627.54
830.09	2670.55
830.26	2744.28
830.43	2973.65
830.60	2693.08
830.77	2662.36
830.94	2850.77
831.11	2797.53
831.28	2670.55
831.46	2754.52
831.63	2609.11
831.80	2811.86
831.97	2535.39
832.14	2664.41
832.31	2721.75
832.48	2748.37
832.65	2844.63
832.82	2680.79
832.99	2695.13
833.17	2549.72
833.34	2889.68
833.51	2676.70
833.68	2422.75
833.85	2852.82
834.02	2496.47
834.19	2605.02
834.36	2555.86
834.53	2731.99
834.70	2852.82
834.87	2686.94
835.04	2510.81
835.22	2576.34
835.39	2656.22
835.56	2465.75
835.73	2584.54
835.90	2832.34
836.07	2537.43
836.24	2760.66
836.41	2553.82
836.58	2619.35
836.75	2869.20
836.92	2578.39
837.09	2478.04
837.26	2756.57
837.43	2818.00
837.60	2625.50
837.77	2619.35
837.94	2818.00
838.12	2875.35
838.29	2539.48
838.46	2430.94
838.63	2576.34
838.80	2947.03
838.97	2625.50
839.14	2607.06
839.31	2682.84
839.48	2826.20
839.65	2619.35
839.82	2662.36
839.99	2666.46
840.16	2666.46
840.33	2508.76
840.50	2572.25
840.67	2617.30
840.84	2406.36
841.01	2498.52
841.18	2510.81
841.35	2643.93
841.52	2858.96
841.69	2895.83
841.86	2619.35
842.03	2725.85
842.20	2901.97
842.37	2502.62
842.54	2615.26
842.71	2723.80
842.88	2482.14
843.05	2559.96
843.22	2445.27
843.39	2836.44
843.56	2686.94
843.73	2586.58
843.90	2586.58
844.07	2801.62
844.24	2822.10
844.41	2615.26
844.58	2576.34
844.75	2656.22
844.92	2734.04
845.09	2605.02
845.26	2512.86
845.43	2789.33
845.60	2691.03
845.77	2670.55
845.94	2639.83
846.10	2883.54
846.27	2469.85
846.44	2469.85
846.61	2435.03
846.78	2760.66
846.95	2801.62
847.12	2539.48
847.29	2525.15
847.46	2576.34
847.63	2783.19
847.80	2447.32
847.97	2621.40
848.14	2979.79
848.31	2627.54
848.48	2424.80
848.65	2486.23
848.82	2596.82
848.98	3033.04
849.15	2668.50
849.32	2736.09
849.49	2803.67
849.66	2736.09
849.83	2602.97
850.00	2510.81
850.17	2813.91
850.34	2691.03
850.51	2551.77
850.68	2484.19
850.85	3014.61
851.01	2738.13
851.18	2643.93
851.35	2584.54
851.52	2793.43
851.69	2942.93
851.86	2482.14
852.03	2498.52
852.20	2775.00
852.37	2723.80
852.53	2402.27
852.70	2455.51
852.87	2711.51
853.04	2783.19
853.21	2643.93
853.38	2668.50
853.55	2840.53
853.72	2922.45
853.89	2469.85
854.05	2459.61
854.22	2676.70
854.39	2672.60
854.56	2494.43
854.73	2742.23
854.90	2549.72
855.07	2674.65
855.23	2488.28
855.40	2486.23
855.57	2699.22
855.74	2439.13
855.91	2697.17
856.08	2396.12
856.25	2512.86
856.41	2605.02
856.58	2521.05
856.75	2582.49
856.92	2613.21
857.09	2879.44
857.26	2418.65
857.42	2650.07
857.59	2768.85
857.76	2658.26
857.93	2654.17
858.10	2621.40
858.27	2537.43
858.43	2715.61
858.60	2580.44
858.77	2412.51
858.94	2695.13
859.11	2842.58
859.27	2547.67
859.44	2502.62
859.61	2983.89
859.78	2787.29
859.95	2547.67
860.12	2508.76
860.28	3028.95
860.45	2998.23
860.62	2549.72
860.79	2619.35
860.95	2693.08
861.12	2582.49
861.29	2527.19
861.46	2525.15
861.63	2744.28
861.79	2678.74
861.96	2447.32
862.13	2514.91
862.30	2877.40
862.47	2643.93
862.63	2484.19
862.80	2627.54
862.97	2828.24
863.14	2760.66
863.30	2678.74
863.47	2506.71
863.64	2979.79
863.81	2750.42
863.97	2447.32
864.14	2543.58
864.31	2662.36
864.48	2676.70
864.65	2586.58
864.81	2672.60
864.98	2744.28
865.15	2891.73
865.32	2566.10
865.48	2682.84
865.65	2961.36
865.82	2709.46
865.98	2600.92
866.15	2678.74
866.32	2682.84
866.49	2611.16
866.65	2682.84
866.82	2564.06
866.99	2711.51
867.16	2590.68
867.32	2523.10
867.49	2478.04
867.66	2572.25
867.83	2648.02
867.99	2494.43
868.16	2594.78
868.33	2639.83
868.49	2674.65
868.66	2531.29
868.83	2629.59
868.99	2756.57
869.16	2762.71
869.33	2691.03
869.50	2633.69
869.66	2672.60
869.83	2656.22
870.00	2519.00
870.16	2645.98
870.33	2652.12
870.50	2885.59
870.66	2619.35
870.83	2650.07
871.00	2639.83
871.17	2744.28
871.33	2598.87
871.50	2566.10
871.67	2711.51
871.83	2684.89
872.00	2643.93
872.17	2537.43
872.33	3008.47
872.50	2822.10
872.67	2574.30
872.83	2607.06
873.00	2760.66
873.17	2662.36
873.33	2625.50
873.50	2641.88
873.67	2600.92
873.83	2531.29
874.00	2553.82
874.16	2650.07
874.33	2770.90
874.50	2480.09
874.66	2564.06
874.83	2645.98
875.00	2922.45
875.16	2881.49
875.33	2574.30
875.50	2365.40
875.66	2619.35
875.83	2777.05
875.99	2629.59
876.16	2553.82
876.33	2519.00
876.49	2654.17
876.66	2648.02
876.83	2535.39
876.99	2447.32
877.16	2668.50
877.32	2590.68
877.49	2576.34
877.66	2705.37
877.82	2842.58
877.99	2576.34
878.15	2762.71
878.32	2815.96
878.49	2777.05
878.65	2547.67
878.82	2766.81
878.98	2645.98
879.15	2787.29
879.32	2564.06
879.48	2605.02
879.65	2676.70
879.81	2582.49
879.98	2578.39
880.15	2568.15
880.31	2858.96
880.48	2592.73
880.64	2658.26
880.81	2717.65
880.97	2936.79
881.14	2947.03
881.31	2504.67
881.47	2754.52
881.64	2723.80
881.80	2529.24
881.97	2670.55
882.13	2590.68
882.30	2484.19
882.47	2592.73
882.63	2486.23
882.80	2547.67
882.96	2564.06
883.13	2842.58
883.29	2535.39
883.46	2598.87
883.62	3059.67
883.79	2709.46
883.95	2660.31
884.12	2541.53
884.29	2875.35
884.45	2707.41
884.62	2584.54
884.78	2559.96
884.95	2887.64
885.11	2639.83
885.28	2596.82
885.44	2629.59
885.61	2846.68
885.77	2940.88
885.94	2588.63
886.10	2652.12
886.27	2609.11
886.43	3037.14
886.60	2740.18
886.76	2580.44
886.93	2641.88
887.09	2725.85
887.26	2451.42
887.42	2602.97
887.59	2897.88
887.75	3039.19
887.92	2789.33
888.08	2707.41
888.25	2996.18
888.41	2822.10
888.58	2617.30
888.74	2480.09
888.91	2621.40
>>>>>End Processed Spectral Data<<<<<
