SpectraSuite Data File
++++++++++++++++++++++++++++++++++++
Date: Thu May 05 16:20:53 CEST 2016
User: root
Dark Spectrum Present: No
Reference Spectrum Present: No
Number of Sampled Component Spectra: 1
Spectrometers: USB4C02835
Integration Time (usec): 100000 (USB4C02835)
Spectra Averaged: 1 (USB4C02835)
Boxcar Smoothing: 0 (USB4C02835)
Correct for Electrical Dark: No (USB4C02835)
Strobe/Lamp Enabled: No (USB4C02835)
Correct for Detector Non-linearity: No (USB4C02835)
Correct for Stray Light: No (USB4C02835)
Number of Pixels in Processed Spectrum: 3648
>>>>>Begin Processed Spectral Data<<<<<
177.47	1990.63
177.69	1990.63
177.91	1990.63
178.13	2023.39
178.36	2029.54
178.58	2584.54
178.80	2754.52
179.02	2467.80
179.24	2590.68
179.46	2428.89
179.68	2600.92
179.90	2676.70
180.13	2787.29
180.35	2383.84
180.57	2389.98
180.79	2834.39
181.01	2656.22
181.23	2600.92
181.45	2680.79
181.67	2807.77
181.90	2828.24
182.12	2494.43
182.34	2414.56
182.56	2775.00
182.78	2748.37
183.00	2482.14
183.22	2506.71
183.44	2514.91
183.66	3053.52
183.89	2684.89
184.11	2504.67
184.33	2734.04
184.55	2887.64
184.77	2547.67
184.99	2539.48
185.21	2752.47
185.43	3053.52
185.65	2496.47
185.87	2461.66
186.10	3010.51
186.32	3016.66
186.54	2682.84
186.76	2549.72
186.98	2891.73
187.20	2799.57
187.42	2572.25
187.64	2512.86
187.86	2795.48
188.08	2906.07
188.30	2504.67
188.52	2506.71
188.75	2906.07
188.97	2912.21
189.19	2457.56
189.41	2496.47
189.63	2836.44
189.85	2666.46
190.07	2453.47
190.29	2367.45
190.51	2678.74
190.73	2545.63
190.95	2594.78
191.17	2478.04
191.39	2465.75
191.61	2674.65
191.84	2570.20
192.06	2570.20
192.28	2580.44
192.50	3194.83
192.72	2621.40
192.94	2482.14
193.16	2858.96
193.38	2717.65
193.60	2441.18
193.82	2533.34
194.04	2838.48
194.26	2758.61
194.48	2471.90
194.70	2555.86
194.92	2746.33
195.14	2711.51
195.36	2426.84
195.58	2543.58
195.80	2750.42
196.02	2574.30
196.24	2475.99
196.46	2611.16
196.69	2654.17
196.91	2949.08
197.13	2564.06
197.35	2539.48
197.57	2924.50
197.79	2801.62
198.01	2600.92
198.23	2535.39
198.45	2758.61
198.67	2543.58
198.89	2428.89
199.11	2566.10
199.33	2666.46
199.55	2461.66
199.77	2500.57
199.99	2578.39
200.21	2611.16
200.43	2826.20
200.65	2455.51
200.87	2465.75
201.09	2734.04
201.31	2605.02
201.53	2586.58
201.75	2527.19
201.97	2832.34
202.19	2660.31
202.41	2590.68
202.63	2676.70
202.85	2830.29
203.07	2768.85
203.29	2523.10
203.51	2457.56
203.73	2605.02
203.95	3000.27
204.17	2541.53
204.39	2588.63
204.61	2678.74
204.83	2686.94
205.05	2633.69
205.27	2564.06
205.49	3022.80
205.71	2658.26
205.93	2408.41
206.15	2457.56
206.37	2705.37
206.59	2721.75
206.81	2400.22
207.03	2381.79
207.25	2529.24
207.47	2818.00
207.69	2527.19
207.91	2662.36
208.13	2949.08
208.34	2607.06
208.56	2455.51
208.78	2533.34
209.00	2678.74
209.22	2682.84
209.44	2580.44
209.66	2412.51
209.88	2727.89
210.10	2625.50
210.32	2443.23
210.54	2662.36
210.76	2740.18
210.98	2949.08
211.20	2351.07
211.42	2625.50
211.64	2791.38
211.86	2727.89
212.08	2600.92
212.30	2549.72
212.52	2555.86
212.74	2709.46
212.96	2629.59
213.17	2611.16
213.39	2781.14
213.61	2924.50
213.83	2576.34
214.05	2363.36
214.27	2848.72
214.49	2535.39
214.71	2447.32
214.93	2629.59
215.15	2668.50
215.37	2811.86
215.59	2455.51
215.81	2648.02
216.03	2914.26
216.24	2783.19
216.46	2488.28
216.68	2531.29
216.90	2818.00
217.12	2854.87
217.34	2490.33
217.56	2609.11
217.78	2926.55
218.00	2891.73
218.22	2537.43
218.44	2586.58
218.66	2758.61
218.87	3002.32
219.09	2562.01
219.31	2447.32
219.53	2746.33
219.75	2664.41
219.97	2463.71
220.19	2521.05
220.41	2693.08
220.63	3030.99
220.85	2562.01
221.06	2553.82
221.28	2955.22
221.50	2811.86
221.72	2504.67
221.94	2465.75
222.16	2734.04
222.38	2873.30
222.60	2428.89
222.82	2535.39
223.03	2791.38
223.25	2619.35
223.47	2490.33
223.69	2719.70
223.91	2820.05
224.13	2805.72
224.35	2482.14
224.57	2719.70
224.78	2842.58
225.00	2486.23
225.22	2535.39
225.44	2555.86
225.66	2740.18
225.88	2641.88
226.10	2568.15
226.32	2484.19
226.53	2901.97
226.75	2684.89
226.97	2562.01
227.19	2459.61
227.41	2580.44
227.63	2650.07
227.85	2383.84
228.06	2514.91
228.28	2772.95
228.50	2906.07
228.72	2326.49
228.94	2510.81
229.16	2527.19
229.37	2562.01
229.59	2447.32
229.81	2740.18
230.03	2697.17
230.25	2590.68
230.47	2353.12
230.69	2490.33
230.90	2854.87
231.12	2598.87
231.34	2602.97
231.56	2723.80
231.78	2504.67
232.00	2725.85
232.21	2545.63
232.43	2549.72
232.65	2394.08
232.87	2797.53
233.09	2402.27
233.30	2508.76
233.52	2828.24
233.74	2682.84
233.96	2445.27
234.18	2707.41
234.40	2688.98
234.61	2985.94
234.83	2383.84
235.05	2437.08
235.27	3119.06
235.49	2920.40
235.70	2490.33
235.92	2557.91
236.14	2801.62
236.36	3182.54
236.58	2430.94
236.79	2678.74
237.01	2791.38
237.23	2717.65
237.45	2705.37
237.67	2568.15
237.88	2772.95
238.10	2961.36
238.32	2451.42
238.54	2473.95
238.76	2686.94
238.97	2596.82
239.19	2447.32
239.41	2688.98
239.63	2863.06
239.85	2721.75
240.06	2486.23
240.28	2459.61
240.50	2875.35
240.72	2758.61
240.93	2392.03
241.15	2629.59
241.37	2725.85
241.59	2961.36
241.81	2484.19
242.02	2572.25
242.24	2695.13
242.46	2820.05
242.68	2367.45
242.89	2467.80
243.11	2852.82
243.33	2697.17
243.55	2562.01
243.76	2596.82
243.98	2613.21
244.20	2666.46
244.42	2533.34
244.64	2572.25
244.85	2527.19
245.07	2590.68
245.29	2502.62
245.51	2504.67
245.72	2779.09
245.94	2826.20
246.16	2539.48
246.38	2600.92
246.59	2658.26
246.81	2639.83
247.03	2461.66
247.24	2394.08
247.46	2691.03
247.68	2709.46
247.90	2475.99
248.11	2529.24
248.33	2863.06
248.55	2629.59
248.77	2498.52
248.98	2619.35
249.20	2865.11
249.42	2736.09
249.64	2488.28
249.85	2519.00
250.07	2555.86
250.29	2875.35
250.50	2551.77
250.72	2455.51
250.94	2758.61
251.16	2965.46
251.37	2572.25
251.59	2555.86
251.81	2789.33
252.02	2904.02
252.24	2420.70
252.46	2635.74
252.68	2633.69
252.89	2611.16
253.11	2334.68
253.33	2617.30
253.54	2971.60
253.76	2543.58
253.98	2533.34
254.20	2445.27
254.41	2519.00
254.63	2756.57
254.85	2437.08
255.06	2510.81
255.28	2777.05
255.50	2693.08
255.71	2439.13
255.93	2367.45
256.15	2688.98
256.36	2801.62
256.58	2418.65
256.80	2473.95
257.02	2645.98
257.23	2670.55
257.45	2625.50
257.67	2662.36
257.88	2639.83
258.10	2781.14
258.32	2572.25
258.53	2564.06
258.75	2985.94
258.97	2631.64
259.18	2453.47
259.40	2482.14
259.62	2992.08
259.83	2918.36
260.05	2527.19
260.27	3233.74
260.48	2805.72
260.70	2449.37
260.92	2475.99
261.13	2539.48
261.35	2705.37
261.57	2725.85
261.78	2449.37
262.00	2455.51
262.22	2719.70
262.43	2627.54
262.65	2480.09
262.86	2547.67
263.08	3119.06
263.30	2731.99
263.51	2383.84
263.73	2539.48
263.95	2944.98
264.16	2564.06
264.38	2443.23
264.60	2392.03
264.81	2760.66
265.03	2834.39
265.25	2727.89
265.46	2486.23
265.68	2865.11
265.89	2813.91
266.11	2420.70
266.33	2574.30
266.54	2865.11
266.76	2813.91
266.98	2572.25
267.19	2686.94
267.41	2899.92
267.62	2777.05
267.84	2371.55
268.06	2596.82
268.27	2756.57
268.49	2838.48
268.70	2621.40
268.92	2519.00
269.14	2553.82
269.35	2514.91
269.57	2568.15
269.79	2543.58
270.00	2588.63
270.22	3035.09
270.43	2426.84
270.65	2330.59
270.87	2766.81
271.08	2785.24
271.30	2596.82
271.51	2523.10
271.73	2740.18
271.95	2877.40
272.16	2475.99
272.38	2611.16
272.59	2643.93
272.81	2854.87
273.02	2529.24
273.24	2570.20
273.46	2949.08
273.67	2564.06
273.89	2408.41
274.10	2455.51
274.32	2940.88
274.54	2744.28
274.75	2572.25
274.97	2564.06
275.18	2914.26
275.40	2867.16
275.61	2555.86
275.83	2654.17
276.05	2480.09
276.26	2729.94
276.48	2650.07
276.69	2693.08
276.91	2715.61
277.12	2897.88
277.34	2678.74
277.55	2738.13
277.77	2764.76
277.99	2621.40
278.20	2580.44
278.42	2498.52
278.63	2619.35
278.85	2607.06
279.06	2539.48
279.28	2686.94
279.49	2785.24
279.71	2871.25
279.93	2682.84
280.14	2592.73
280.36	2580.44
280.57	2908.12
280.79	2654.17
281.00	2496.47
281.22	2607.06
281.43	2893.78
281.65	2381.79
281.86	2525.15
282.08	2760.66
282.29	3043.28
282.51	2451.42
282.73	2461.66
282.94	2504.67
283.16	2852.82
283.37	2695.13
283.59	2623.45
283.80	2840.53
284.02	2734.04
284.23	2666.46
284.45	2629.59
284.66	2611.16
284.88	2564.06
285.09	2619.35
285.31	2643.93
285.52	2783.19
285.74	2562.01
285.95	2795.48
286.17	2637.78
286.38	2906.07
286.60	2664.41
286.81	2576.34
287.03	2668.50
287.24	2652.12
287.46	2826.20
287.67	2731.99
287.89	2858.96
288.10	2738.13
288.32	2713.56
288.53	2783.19
288.75	2658.26
288.96	2709.46
289.18	2617.30
289.39	2572.25
289.61	2719.70
289.82	3104.72
290.04	3047.38
290.25	2531.29
290.47	2672.60
290.68	2654.17
290.90	2928.60
291.11	2437.08
291.33	2666.46
291.54	2686.94
291.76	2617.30
291.97	2643.93
292.18	2711.51
292.40	2656.22
292.61	2639.83
292.83	2875.35
293.04	2654.17
293.26	2744.28
293.47	2742.23
293.69	2531.29
293.90	2596.82
294.12	2914.26
294.33	2760.66
294.55	2627.54
294.76	2684.89
294.97	2842.58
295.19	3004.37
295.40	2588.63
295.62	2707.41
295.83	2887.64
296.05	2641.88
296.26	2789.33
296.48	2580.44
296.69	2738.13
296.90	2768.85
297.12	2791.38
297.33	2807.77
297.55	2723.80
297.76	2791.38
297.98	2699.22
298.19	2643.93
298.41	2746.33
298.62	2555.86
298.83	2805.72
299.05	2688.98
299.26	2627.54
299.48	2564.06
299.69	2707.41
299.90	2562.01
300.12	2557.91
300.33	2836.44
300.55	2633.69
300.76	2615.26
300.98	2555.86
301.19	2852.82
301.40	2584.54
301.62	2600.92
301.83	2813.91
302.05	2785.24
302.26	2588.63
302.47	2752.47
302.69	2523.10
302.90	2676.70
303.12	2414.56
303.33	2686.94
303.54	3039.19
303.76	2672.60
303.97	2580.44
304.19	2734.04
304.40	2602.97
304.61	2748.37
304.83	2762.71
305.04	2752.47
305.26	2791.38
305.47	2684.89
305.68	2654.17
305.90	2553.82
306.11	2957.27
306.33	2639.83
306.54	2471.90
306.75	2578.39
306.97	2482.14
307.18	2557.91
307.39	2670.55
307.61	2648.02
307.82	2693.08
308.04	2783.19
308.25	2514.91
308.46	2703.32
308.68	2742.23
308.89	2715.61
309.10	2731.99
309.32	2602.97
309.53	2736.09
309.74	2744.28
309.96	2592.73
310.17	2766.81
310.39	2660.31
310.60	2840.53
310.81	2623.45
311.03	2502.62
311.24	2846.68
311.45	2731.99
311.67	2775.00
311.88	2691.03
312.09	2670.55
312.31	2609.11
312.52	2631.64
312.73	2588.63
312.95	2498.52
313.16	2607.06
313.37	2764.76
313.59	2746.33
313.80	2858.96
314.01	2965.46
314.23	2506.71
314.44	2498.52
314.65	2559.96
314.87	2645.98
315.08	2613.21
315.29	2523.10
315.51	2564.06
315.72	2529.24
315.93	2701.27
316.15	2682.84
316.36	2654.17
316.57	2629.59
316.79	2750.42
317.00	2539.48
317.21	2877.40
317.43	2594.78
317.64	2686.94
317.85	2627.54
318.07	2609.11
318.28	2656.22
318.49	2691.03
318.70	2836.44
318.92	2818.00
319.13	2832.34
319.34	2858.96
319.56	2592.73
319.77	2795.48
319.98	2883.54
320.20	2799.57
320.41	2709.46
320.62	2777.05
320.83	2637.78
321.05	2891.73
321.26	2625.50
321.47	2719.70
321.69	2887.64
321.90	2414.56
322.11	2568.15
322.32	2815.96
322.54	3000.27
322.75	2527.19
322.96	3147.73
323.18	2578.39
323.39	2478.04
323.60	2621.40
323.81	2717.65
324.03	2637.78
324.24	2695.13
324.45	2643.93
324.66	2629.59
324.88	2846.68
325.09	2936.79
325.30	2600.92
325.52	2562.01
325.73	2785.24
325.94	2564.06
326.15	2486.23
326.37	2508.76
326.58	2813.91
326.79	3071.95
327.00	2549.72
327.22	2590.68
327.43	2658.26
327.64	2471.90
327.85	2701.27
328.07	2621.40
328.28	2959.31
328.49	2600.92
328.70	2703.32
328.92	2566.10
329.13	2637.78
329.34	2777.05
329.55	2811.86
329.76	2703.32
329.98	2727.89
330.19	2979.79
330.40	2617.30
330.61	2725.85
330.83	2793.43
331.04	2553.82
331.25	2617.30
331.46	2643.93
331.68	2521.05
331.89	2863.06
332.10	2596.82
332.31	2506.71
332.52	2754.52
332.74	2873.30
332.95	2525.15
333.16	2557.91
333.37	2797.53
333.58	2594.78
333.80	2621.40
334.01	2408.41
334.22	2691.03
334.43	2629.59
334.64	2592.73
334.86	2519.00
335.07	2648.02
335.28	2924.50
335.49	2523.10
335.70	2680.79
335.92	2848.72
336.13	2977.75
336.34	2721.75
336.55	2611.16
336.76	2807.77
336.98	2500.57
337.19	2580.44
337.40	2746.33
337.61	3106.77
337.82	2652.12
338.04	2752.47
338.25	2389.98
338.46	2719.70
338.67	2627.54
338.88	2564.06
339.09	2508.76
339.31	2639.83
339.52	2582.49
339.73	2420.70
339.94	2676.70
340.15	2824.15
340.36	2668.50
340.58	2600.92
340.79	2521.05
341.00	2869.20
341.21	2519.00
341.42	2897.88
341.63	2559.96
341.85	2830.29
342.06	2686.94
342.27	2596.82
342.48	2709.46
342.69	2475.99
342.90	2779.09
343.12	2834.39
343.33	2527.19
343.54	2785.24
343.75	2975.70
343.96	2697.17
344.17	2609.11
344.38	2703.32
344.60	2584.54
344.81	2480.09
345.02	2576.34
345.23	2789.33
345.44	3131.34
345.65	2691.03
345.86	2645.98
346.07	2699.22
346.29	2637.78
346.50	2742.23
346.71	2631.64
346.92	2985.94
347.13	2983.89
347.34	2617.30
347.55	2557.91
347.76	2695.13
347.98	2443.23
348.19	2656.22
348.40	2750.42
348.61	2592.73
348.82	2930.64
349.03	2619.35
349.24	2609.11
349.45	3094.48
349.66	2432.99
349.88	2574.30
350.09	2514.91
350.30	2940.88
350.51	2920.40
350.72	2793.43
350.93	2615.26
351.14	2654.17
351.35	2738.13
351.56	2594.78
351.77	2750.42
351.99	2777.05
352.20	2893.78
352.41	2711.51
352.62	2453.47
352.83	2707.41
353.04	2703.32
353.25	2580.44
353.46	2752.47
353.67	2863.06
353.88	2498.52
354.09	2645.98
354.30	2629.59
354.52	2836.44
354.73	2654.17
354.94	2564.06
355.15	2648.02
355.36	3033.04
355.57	2682.84
355.78	2645.98
355.99	2551.77
356.20	2654.17
356.41	2918.36
356.62	2744.28
356.83	2633.69
357.04	3002.32
357.25	2521.05
357.46	2582.49
357.68	2447.32
357.89	2613.21
358.10	2734.04
358.31	2602.97
358.52	2631.64
358.73	2527.19
358.94	2596.82
359.15	2555.86
359.36	2699.22
359.57	2719.70
359.78	2701.27
359.99	2793.43
360.20	2551.77
360.41	2750.42
360.62	2840.53
360.83	2715.61
361.04	2648.02
361.25	2850.77
361.46	2992.08
361.67	2731.99
361.88	2682.84
362.09	2811.86
362.30	2678.74
362.51	2469.85
362.72	2633.69
362.93	2758.61
363.14	2719.70
363.35	2639.83
363.56	2492.38
363.78	2901.97
363.99	2852.82
364.20	2607.06
364.41	2707.41
364.62	3067.86
364.83	2742.23
365.04	2688.98
365.25	2637.78
365.46	3051.47
365.67	2539.48
365.88	2695.13
366.09	2562.01
366.30	2635.74
366.51	2652.12
366.72	2539.48
366.93	2660.31
367.14	2791.38
367.35	2854.87
367.56	2549.72
367.77	2783.19
367.98	2678.74
368.18	2783.19
368.39	2760.66
368.60	2543.58
368.81	2932.69
369.02	2725.85
369.23	2639.83
369.44	2490.33
369.65	2627.54
369.86	2832.34
370.07	2734.04
370.28	2523.10
370.49	2729.94
370.70	2775.00
370.91	2545.63
371.12	2441.18
371.33	2938.84
371.54	2703.32
371.75	2775.00
371.96	2375.64
372.17	2750.42
372.38	2703.32
372.59	2697.17
372.80	2535.39
373.01	2686.94
373.22	2684.89
373.43	2643.93
373.64	2435.03
373.85	2869.20
374.06	3006.42
374.26	2838.48
374.47	2699.22
374.68	3004.37
374.89	2818.00
375.10	2555.86
375.31	2727.89
375.52	2717.65
375.73	2783.19
375.94	2510.81
376.15	2826.20
376.36	2662.36
376.57	2652.12
376.78	2680.79
376.99	2707.41
377.20	2889.68
377.40	2627.54
377.61	2910.16
377.82	2605.02
378.03	2938.84
378.24	2797.53
378.45	2639.83
378.66	2695.13
378.87	2523.10
379.08	2471.90
379.29	2605.02
379.50	2715.61
379.71	2668.50
379.91	2891.73
380.12	2602.97
380.33	2674.65
380.54	2717.65
380.75	2691.03
380.96	2645.98
381.17	2707.41
381.38	2682.84
381.59	2727.89
381.80	2617.30
382.00	2813.91
382.21	2711.51
382.42	2949.08
382.63	2949.08
382.84	2699.22
383.05	2811.86
383.26	2930.64
383.47	2650.07
383.68	2691.03
383.88	2844.63
384.09	2787.29
384.30	2858.96
384.51	2713.56
384.72	2664.41
384.93	2523.10
385.14	2605.02
385.35	2895.83
385.55	2512.86
385.76	2899.92
385.97	2695.13
386.18	2490.33
386.39	2578.39
386.60	2631.64
386.81	2633.69
387.02	2562.01
387.22	2496.47
387.43	2815.96
387.64	2709.46
387.85	2799.57
388.06	2789.33
388.27	3973.06
388.48	7552.91
388.68	10821.47
388.89	13328.18
389.10	14534.43
389.31	13791.02
389.52	10878.81
389.73	9279.35
389.93	8501.12
390.14	7751.56
390.35	7040.92
390.56	6311.84
390.77	5167.03
390.98	4087.75
391.18	3450.83
391.39	3112.91
391.60	2744.28
391.81	2873.30
392.02	2586.58
392.23	3133.39
392.43	2785.24
392.64	2750.42
392.85	2705.37
393.06	3022.80
393.27	2719.70
393.47	2594.78
393.68	2678.74
393.89	2693.08
394.10	2924.50
394.31	2529.24
394.52	2523.10
394.72	2650.07
394.93	2936.79
395.14	2490.33
395.35	2740.18
395.56	2625.50
395.76	2752.47
395.97	2584.54
396.18	2777.05
396.39	2830.29
396.60	3284.94
396.80	2883.54
397.01	2779.09
397.22	2852.82
397.43	2912.21
397.64	2633.69
397.84	2764.76
398.05	3045.33
398.26	2729.94
398.47	2789.33
398.67	2842.58
398.88	2781.14
399.09	2871.25
399.30	2654.17
399.51	2746.33
399.71	2670.55
399.92	2660.31
400.13	2713.56
400.34	2564.06
400.54	2645.98
400.75	2967.51
400.96	2641.88
401.17	2834.39
401.37	2834.39
401.58	2691.03
401.79	2643.93
402.00	2731.99
402.21	3121.10
402.41	2897.88
402.62	2842.58
402.83	2944.98
403.04	3119.06
403.24	3420.11
403.45	2744.28
403.66	2897.88
403.87	2854.87
404.07	3008.47
404.28	2858.96
404.49	2875.35
404.70	2756.57
404.90	2844.63
405.11	2662.36
405.32	2715.61
405.52	2645.98
405.73	2627.54
405.94	2580.44
406.15	2656.22
406.35	2865.11
406.56	2801.62
406.77	2688.98
406.98	2756.57
407.18	2588.63
407.39	2990.03
407.60	2676.70
407.80	2731.99
408.01	2680.79
408.22	2828.24
408.43	2572.25
408.63	2701.27
408.84	2879.44
409.05	2836.44
409.25	2521.05
409.46	2557.91
409.67	2666.46
409.88	2645.98
410.08	2713.56
410.29	2594.78
410.50	2848.72
410.70	2697.17
410.91	2547.67
411.12	2648.02
411.32	2639.83
411.53	2607.06
411.74	2707.41
411.95	2734.04
412.15	2768.85
412.36	2824.15
412.57	2799.57
412.77	2863.06
412.98	2697.17
413.19	2629.59
413.39	2703.32
413.60	2633.69
413.81	2908.12
414.01	2521.05
414.22	2695.13
414.43	2758.61
414.63	2645.98
414.84	2828.24
415.05	2625.50
415.25	2564.06
415.46	2867.16
415.67	2650.07
415.87	2731.99
416.08	2691.03
416.29	2705.37
416.49	2813.91
416.70	2566.10
416.91	2660.31
417.11	2697.17
417.32	2850.77
417.53	2670.55
417.73	2693.08
417.94	2742.23
418.15	2734.04
418.35	2693.08
418.56	2688.98
418.77	3076.05
418.97	2793.43
419.18	2703.32
419.38	2349.02
419.59	2654.17
419.80	2944.98
420.00	2572.25
420.21	2682.84
420.42	2930.64
420.62	2695.13
420.83	2602.97
421.04	2639.83
421.24	2715.61
421.45	2811.86
421.65	2674.65
421.86	2562.01
422.07	2901.97
422.27	2797.53
422.48	2715.61
422.69	2406.36
422.89	2783.19
423.10	2670.55
423.30	2506.71
423.51	2621.40
423.72	2809.81
423.92	2826.20
424.13	2545.63
424.33	2693.08
424.54	2828.24
424.75	2703.32
424.95	2826.20
425.16	2658.26
425.36	2705.37
425.57	2883.54
425.78	2758.61
425.98	2789.33
426.19	2676.70
426.39	2615.26
426.60	2691.03
426.81	2822.10
427.01	2709.46
427.22	2613.21
427.42	2426.84
427.63	2531.29
427.83	2846.68
428.04	2891.73
428.25	2715.61
428.45	2797.53
428.66	2904.02
428.86	2637.78
429.07	2555.86
429.28	2660.31
429.48	2705.37
429.69	2629.59
429.89	2715.61
430.10	2465.75
430.30	2795.48
430.51	2875.35
430.71	2564.06
430.92	2656.22
431.13	2611.16
431.33	2883.54
431.54	2783.19
431.74	2908.12
431.95	3028.95
432.15	2652.12
432.36	2744.28
432.56	2795.48
432.77	3004.37
432.98	2959.31
433.18	2711.51
433.39	2600.92
433.59	2719.70
433.80	2959.31
434.00	2947.03
434.21	2600.92
434.41	2629.59
434.62	3018.71
434.82	2535.39
435.03	2521.05
435.23	2840.53
435.44	2432.99
435.64	2596.82
435.85	2707.41
436.06	2777.05
436.26	2838.48
436.47	2658.26
436.67	2598.87
436.88	2729.94
437.08	2793.43
437.29	2756.57
437.49	2701.27
437.70	2867.16
437.90	2734.04
438.11	2797.53
438.31	2686.94
438.52	2953.17
438.72	2955.22
438.93	2969.55
439.13	2701.27
439.34	2783.19
439.54	2736.09
439.75	2740.18
439.95	2775.00
440.16	2660.31
440.36	2662.36
440.57	2709.46
440.77	2697.17
440.98	2744.28
441.18	2768.85
441.39	2549.72
441.59	2594.78
441.80	3028.95
442.00	2711.51
442.21	2715.61
442.41	2512.86
442.62	2891.73
442.82	2693.08
443.02	2674.65
443.23	2656.22
443.43	2688.98
443.64	2916.31
443.84	2519.00
444.05	2750.42
444.25	2709.46
444.46	2629.59
444.66	2684.89
444.87	2871.25
445.07	2531.29
445.28	2637.78
445.48	2777.05
445.69	2697.17
445.89	3174.35
446.09	2711.51
446.30	2953.17
446.50	3082.19
446.71	4544.44
446.91	5654.44
447.12	6334.37
447.32	6920.09
447.53	6455.20
447.73	5322.67
447.93	4677.56
448.14	4444.09
448.34	4472.76
448.55	3817.41
448.75	3868.61
448.96	3612.62
449.16	3405.77
449.36	3350.48
449.57	2879.44
449.77	2791.38
449.98	2684.89
450.18	2822.10
450.39	2592.73
450.59	2861.01
450.79	2727.89
451.00	2727.89
451.20	2826.20
451.41	2648.02
451.61	2795.48
451.81	2686.94
452.02	2537.43
452.22	2666.46
452.43	2641.88
452.63	2625.50
452.84	2684.89
453.04	2592.73
453.24	2717.65
453.45	2537.43
453.65	2623.45
453.86	2670.55
454.06	2824.15
454.26	2658.26
454.47	2621.40
454.67	2889.68
454.87	2723.80
455.08	2772.95
455.28	2818.00
455.49	2754.52
455.69	2539.48
455.89	3037.14
456.10	2797.53
456.30	2602.97
456.51	2818.00
456.71	2766.81
456.91	2711.51
457.12	2662.36
457.32	2772.95
457.52	2562.01
457.73	2818.00
457.93	2766.81
458.14	2660.31
458.34	2516.95
458.54	2658.26
458.75	2580.44
458.95	2799.57
459.15	2760.66
459.36	2740.18
459.56	2637.78
459.76	3002.32
459.97	2781.14
460.17	2639.83
460.37	2785.24
460.58	2772.95
460.78	2818.00
460.99	2633.69
461.19	2648.02
461.39	2578.39
461.60	2770.90
461.80	2791.38
462.00	2584.54
462.21	2703.32
462.41	2602.97
462.61	2615.26
462.82	2459.61
463.02	2777.05
463.22	2703.32
463.43	2731.99
463.63	2607.06
463.83	2930.64
464.04	2746.33
464.24	2693.08
464.44	2521.05
464.64	2742.23
464.85	2768.85
465.05	2701.27
465.25	2643.93
465.46	2658.26
465.66	2803.67
465.86	2750.42
466.07	2668.50
466.27	2641.88
466.47	2457.56
466.68	2519.00
466.88	2844.63
467.08	2844.63
467.29	2818.00
467.49	2717.65
467.69	2691.03
467.89	2885.59
468.10	2680.79
468.30	2678.74
468.50	2750.42
468.71	2959.31
468.91	2514.91
469.11	2904.02
469.31	2775.00
469.52	2592.73
469.72	3033.04
469.92	2879.44
470.13	2658.26
470.33	2705.37
470.53	2762.71
470.73	2965.46
470.94	3282.89
471.14	3420.11
471.34	3868.61
471.54	3702.73
471.75	3301.33
471.95	3059.67
472.15	3041.23
472.36	3219.41
472.56	3018.71
472.76	3059.67
472.96	3076.05
473.17	2920.40
473.37	2822.10
473.57	2703.32
473.77	2815.96
473.98	2680.79
474.18	2521.05
474.38	3184.59
474.58	2680.79
474.79	2568.15
474.99	2830.29
475.19	2901.97
475.39	2539.48
475.60	2760.66
475.80	2662.36
476.00	2818.00
476.20	2684.89
476.41	2711.51
476.61	2676.70
476.81	2940.88
477.01	2668.50
477.21	2891.73
477.42	2848.72
477.62	2697.17
477.82	2748.37
478.02	2596.82
478.23	2752.47
478.43	2619.35
478.63	2668.50
478.83	2605.02
479.03	2588.63
479.24	2836.44
479.44	3037.14
479.64	2547.67
479.84	2418.65
480.04	2613.21
480.25	2918.36
480.45	2553.82
480.65	2531.29
480.85	2936.79
481.06	2617.30
481.26	2750.42
481.46	2639.83
481.66	2830.29
481.86	2645.98
482.06	2752.47
482.27	2676.70
482.47	2637.78
482.67	2832.34
482.87	2576.34
483.07	2742.23
483.28	2650.07
483.48	2553.82
483.68	2693.08
483.88	2498.52
484.08	2424.80
484.29	2572.25
484.49	2705.37
484.69	2467.80
484.89	2979.79
485.09	2807.77
485.29	2705.37
485.50	2809.81
485.70	2641.88
485.90	2916.31
486.10	2678.74
486.30	2627.54
486.50	2832.34
486.71	2695.13
486.91	2725.85
487.11	2668.50
487.31	2549.72
487.51	2799.57
487.71	2580.44
487.91	2621.40
488.12	2547.67
488.32	2412.51
488.52	2715.61
488.72	2441.18
488.92	2768.85
489.12	2904.02
489.32	2828.24
489.53	2674.65
489.73	2424.80
489.93	2924.50
490.13	2600.92
490.33	2498.52
490.53	2756.57
490.73	2779.09
490.94	2492.38
491.14	2803.67
491.34	2844.63
491.54	2961.36
491.74	3428.30
491.94	4100.03
492.14	4306.88
492.34	4399.04
492.54	4042.69
492.75	3403.72
492.95	3651.53
493.15	3305.42
493.35	3352.52
493.55	3237.84
493.75	3086.29
493.95	3213.26
494.15	2910.16
494.35	2740.18
494.56	2709.46
494.76	2682.84
494.96	2777.05
495.16	2607.06
495.36	2664.41
495.56	2822.10
495.76	2639.83
495.96	2654.17
496.16	2613.21
496.36	2992.08
496.56	2596.82
496.77	2701.27
496.97	2662.36
497.17	2998.23
497.37	2465.75
497.57	2768.85
497.77	2783.19
497.97	2684.89
498.17	2619.35
498.37	2641.88
498.57	2826.20
498.77	2703.32
498.97	2807.77
499.17	2930.64
499.38	2605.02
499.58	2818.00
499.78	2822.10
499.98	2803.67
500.18	2670.55
500.38	2547.67
500.58	2916.31
500.78	3176.40
500.98	5408.69
501.18	7165.84
501.38	8736.63
501.58	9518.96
501.78	9449.33
501.98	7483.28
502.18	6510.49
502.38	5730.22
502.58	5447.60
502.78	4769.72
502.98	4612.03
503.18	4353.98
503.38	4138.94
503.59	3571.66
503.79	3424.20
503.99	3289.04
504.19	3192.78
504.39	3151.82
504.59	3147.73
504.79	3084.24
504.99	3211.22
505.19	2801.62
505.39	2873.30
505.59	3008.47
505.79	3022.80
505.99	2871.25
506.19	2680.79
506.39	2799.57
506.59	2684.89
506.79	2672.60
506.99	2856.92
507.19	2645.98
507.39	2779.09
507.59	2514.91
507.79	2555.86
507.99	2512.86
508.19	2674.65
508.39	2637.78
508.59	2617.30
508.79	2893.78
508.99	2977.75
509.19	2619.35
509.39	2770.90
509.59	2539.48
509.79	2629.59
509.99	2746.33
510.19	2713.56
510.39	2775.00
510.59	2748.37
510.79	2734.04
510.99	2537.43
511.19	2684.89
511.39	2940.88
511.59	2922.45
511.79	2760.66
511.99	2688.98
512.19	3039.19
512.38	2678.74
512.58	2588.63
512.78	2658.26
512.98	2873.30
513.18	3051.47
513.38	2537.43
513.58	2785.24
513.78	2701.27
513.98	2582.49
514.18	2686.94
514.38	2629.59
514.58	2775.00
514.78	2686.94
514.98	2600.92
515.18	2629.59
515.38	2500.57
515.58	2951.12
515.78	2590.68
515.98	2609.11
516.18	2830.29
516.38	2727.89
516.57	2523.10
516.77	2592.73
516.97	2815.96
517.17	2621.40
517.37	2465.75
517.57	2695.13
517.77	2701.27
517.97	2637.78
518.17	2760.66
518.37	2549.72
518.57	2643.93
518.77	2676.70
518.97	2678.74
519.16	2752.47
519.36	2895.83
519.56	2643.93
519.76	2736.09
519.96	2602.97
520.16	2967.51
520.36	2629.59
520.56	2770.90
520.76	2568.15
520.96	2738.13
521.16	2842.58
521.35	2828.24
521.55	2768.85
521.75	2734.04
521.95	2580.44
522.15	2645.98
522.35	2508.76
522.55	2584.54
522.75	2858.96
522.95	2500.57
523.14	2488.28
523.34	2734.04
523.54	2668.50
523.74	2723.80
523.94	2664.41
524.14	2562.01
524.34	2768.85
524.54	2842.58
524.73	2574.30
524.93	2785.24
525.13	2813.91
525.33	2598.87
525.53	2869.20
525.73	2828.24
525.93	2766.81
526.13	2598.87
526.32	2609.11
526.52	2904.02
526.72	2836.44
526.92	2648.02
527.12	2582.49
527.32	2537.43
527.52	2781.14
527.71	2688.98
527.91	2688.98
528.11	2629.59
528.31	2670.55
528.51	2559.96
528.71	2766.81
528.90	2795.48
529.10	2981.84
529.30	2758.61
529.50	2394.08
529.70	2770.90
529.90	2805.72
530.09	2703.32
530.29	2500.57
530.49	2656.22
530.69	3262.41
530.89	2717.65
531.09	2777.05
531.28	2682.84
531.48	2916.31
531.68	2666.46
531.88	2676.70
532.08	2865.11
532.28	2680.79
532.47	2719.70
532.67	2768.85
532.87	2770.90
533.07	2727.89
533.27	2736.09
533.46	2701.27
533.66	2834.39
533.86	2713.56
534.06	2760.66
534.26	2701.27
534.45	2627.54
534.65	2904.02
534.85	2672.60
535.05	2607.06
535.25	2826.20
535.44	2498.52
535.64	2785.24
535.84	2572.25
536.04	2590.68
536.24	2650.07
536.43	2631.64
536.63	2635.74
536.83	2744.28
537.03	2701.27
537.22	2467.80
537.42	2484.19
537.62	2717.65
537.82	2582.49
538.02	2832.34
538.21	2850.77
538.41	3168.21
538.61	2783.19
538.81	2693.08
539.00	2742.23
539.20	2508.76
539.40	2664.41
539.60	2615.26
539.79	2772.95
539.99	2682.84
540.19	2566.10
540.39	2629.59
540.58	2746.33
540.78	2848.72
540.98	2764.76
541.18	2744.28
541.37	2740.18
541.57	2758.61
541.77	2734.04
541.97	2686.94
542.16	2457.56
542.36	2752.47
542.56	2617.30
542.76	2914.26
542.95	2826.20
543.15	2742.23
543.35	2797.53
543.54	2586.58
543.74	2697.17
543.94	2883.54
544.14	2600.92
544.33	2682.84
544.53	2631.64
544.73	2740.18
544.93	2660.31
545.12	2641.88
545.32	2678.74
545.52	2658.26
545.71	2629.59
545.91	2678.74
546.11	2625.50
546.30	2547.67
546.50	2705.37
546.70	2631.64
546.90	2652.12
547.09	2525.15
547.29	2752.47
547.49	2756.57
547.68	2664.41
547.88	2691.03
548.08	2842.58
548.27	3026.90
548.47	2559.96
548.67	2643.93
548.87	2822.10
549.06	2588.63
549.26	2596.82
549.46	2801.62
549.65	2545.63
549.85	2731.99
550.05	2660.31
550.24	2568.15
550.44	2727.89
550.64	2656.22
550.83	2758.61
551.03	2926.55
551.23	2871.25
551.42	2779.09
551.62	2654.17
551.82	2688.98
552.01	2703.32
552.21	2885.59
552.41	2668.50
552.60	3006.42
552.80	2652.12
553.00	2590.68
553.19	2654.17
553.39	2975.70
553.59	2625.50
553.78	2709.46
553.98	2650.07
554.17	2541.53
554.37	2723.80
554.57	2715.61
554.76	2504.67
554.96	2670.55
555.16	2752.47
555.35	2746.33
555.55	2818.00
555.75	2754.52
555.94	2908.12
556.14	2539.48
556.33	2635.74
556.53	2756.57
556.73	2768.85
556.92	2711.51
557.12	2738.13
557.32	3010.51
557.51	2914.26
557.71	2672.60
557.90	2834.39
558.10	2932.69
558.30	2768.85
558.49	2666.46
558.69	2660.31
558.88	2834.39
559.08	2789.33
559.28	2645.98
559.47	2738.13
559.67	2746.33
559.86	2994.13
560.06	2627.54
560.26	2707.41
560.45	2787.29
560.65	2756.57
560.84	2877.40
561.04	2611.16
561.24	2815.96
561.43	2555.86
561.63	2906.07
561.82	2684.89
562.02	2856.92
562.22	2574.30
562.41	2584.54
562.61	2598.87
562.80	2539.48
563.00	3127.25
563.19	2777.05
563.39	2752.47
563.59	2803.67
563.78	2592.73
563.98	2447.32
564.17	2602.97
564.37	2494.43
564.56	2752.47
564.76	2586.58
564.96	2822.10
565.15	2797.53
565.35	3088.34
565.54	2662.36
565.74	2701.27
565.93	2740.18
566.13	2787.29
566.32	2742.23
566.52	2768.85
566.71	2652.12
566.91	2865.11
567.11	2750.42
567.30	2537.43
567.50	2721.75
567.69	2750.42
567.89	2650.07
568.08	2496.47
568.28	2719.70
568.47	2551.77
568.67	2672.60
568.86	2564.06
569.06	2852.82
569.25	2707.41
569.45	2537.43
569.64	2637.78
569.84	2754.52
570.04	2785.24
570.23	2627.54
570.43	2684.89
570.62	2764.76
570.82	2932.69
571.01	2512.86
571.21	2611.16
571.40	2584.54
571.60	2856.92
571.79	2768.85
571.99	2754.52
572.18	2543.58
572.38	2824.15
572.57	2678.74
572.77	2727.89
572.96	3157.97
573.16	2789.33
573.35	2625.50
573.55	2844.63
573.74	2850.77
573.94	2654.17
574.13	2682.84
574.33	2756.57
574.52	2983.89
574.71	2707.41
574.91	2719.70
575.10	2506.71
575.30	2652.12
575.49	2615.26
575.69	2562.01
575.88	2670.55
576.08	2660.31
576.27	2783.19
576.47	2588.63
576.66	2828.24
576.86	2920.40
577.05	2729.94
577.25	2740.18
577.44	2842.58
577.64	2654.17
577.83	2832.34
578.02	2605.02
578.22	2783.19
578.41	2957.27
578.61	2682.84
578.80	2523.10
579.00	2605.02
579.19	2678.74
579.39	2750.42
579.58	2729.94
579.77	2701.27
579.97	3039.19
580.16	2928.60
580.36	2742.23
580.55	2768.85
580.75	2760.66
580.94	2736.09
581.13	2873.30
581.33	2861.01
581.52	2662.36
581.72	3014.61
581.91	2885.59
582.11	2648.02
582.30	2871.25
582.49	2799.57
582.69	2856.92
582.88	2682.84
583.08	2781.14
583.27	2928.60
583.47	2752.47
583.66	2654.17
583.85	2625.50
584.05	2740.18
584.24	2772.95
584.44	2723.80
584.63	2891.73
584.82	2875.35
585.02	2854.87
585.21	2846.68
585.41	2772.95
585.60	2856.92
585.79	2955.22
585.99	2957.27
586.18	2865.11
586.37	3536.84
586.57	5332.91
586.76	15775.50
586.96	34612.72
587.15	47967.52
587.34	56659.10
587.54	60580.96
587.73	54514.88
587.93	38423.99
588.12	29177.41
588.31	23688.85
588.51	20766.40
588.70	19119.84
588.89	16844.54
589.09	14526.24
589.28	12521.28
589.47	9781.10
589.67	7542.67
589.86	6039.46
590.06	4601.79
590.25	3985.35
590.44	3317.71
590.64	3090.38
590.83	2987.99
591.02	2983.89
591.22	2758.61
591.41	2736.09
591.60	2695.13
591.80	3178.45
591.99	2629.59
592.18	2715.61
592.38	2908.12
592.57	2711.51
592.76	2658.26
592.96	2795.48
593.15	2752.47
593.34	2959.31
593.54	2637.78
593.73	2834.39
593.92	2795.48
594.12	2807.77
594.31	2789.33
594.50	2858.96
594.70	2826.20
594.89	3129.30
595.08	2547.67
595.28	2750.42
595.47	3258.32
595.66	2877.40
595.86	2461.66
596.05	2605.02
596.24	2643.93
596.43	3006.42
596.63	2770.90
596.82	2779.09
597.01	2789.33
597.21	2987.99
597.40	2731.99
597.59	2697.17
597.79	2754.52
597.98	2824.15
598.17	2756.57
598.36	2674.65
598.56	2930.64
598.75	2668.50
598.94	2682.84
599.14	2678.74
599.33	2648.02
599.52	2885.59
599.71	2754.52
599.91	2731.99
600.10	2838.48
600.29	2727.89
600.48	2861.01
600.68	2672.60
600.87	2797.53
601.06	2652.12
601.26	2764.76
601.45	2777.05
601.64	2680.79
601.83	2887.64
602.03	2629.59
602.22	2535.39
602.41	2852.82
602.60	3174.35
602.80	2775.00
602.99	2742.23
603.18	2688.98
603.37	2768.85
603.57	2666.46
603.76	2680.79
603.95	2957.27
604.14	2609.11
604.34	2594.78
604.53	2697.17
604.72	2791.38
604.91	2777.05
605.10	2717.65
605.30	2527.19
605.49	3014.61
605.68	2760.66
605.87	2713.56
606.07	2553.82
606.26	2805.72
606.45	2762.71
606.64	2715.61
606.84	2652.12
607.03	2654.17
607.22	2805.72
607.41	2641.88
607.60	2568.15
607.80	2842.58
607.99	2674.65
608.18	2695.13
608.37	2686.94
608.56	2621.40
608.76	2934.74
608.95	2801.62
609.14	2699.22
609.33	2983.89
609.52	2928.60
609.72	2688.98
609.91	2848.72
610.10	2799.57
610.29	2940.88
610.48	2709.46
610.68	2807.77
610.87	2719.70
611.06	2815.96
611.25	2693.08
611.44	2772.95
611.63	2744.28
611.83	3033.04
612.02	2600.92
612.21	2797.53
612.40	2488.28
612.59	2611.16
612.79	2594.78
612.98	2633.69
613.17	3030.99
613.36	2760.66
613.55	2740.18
613.74	2715.61
613.93	2799.57
614.13	2727.89
614.32	2811.86
614.51	2686.94
614.70	2770.90
614.89	2633.69
615.08	2807.77
615.28	3166.16
615.47	2594.78
615.66	2856.92
615.85	2740.18
616.04	2783.19
616.23	2760.66
616.42	2764.76
616.62	2752.47
616.81	2676.70
617.00	2684.89
617.19	2791.38
617.38	2621.40
617.57	2709.46
617.76	2791.38
617.95	2752.47
618.15	2818.00
618.34	2883.54
618.53	2531.29
618.72	2883.54
618.91	2844.63
619.10	2764.76
619.29	2742.23
619.48	2781.14
619.68	2539.48
619.87	2688.98
620.06	2449.37
620.25	2863.06
620.44	2615.26
620.63	2721.75
620.82	2662.36
621.01	2791.38
621.20	2658.26
621.39	2703.32
621.59	2793.43
621.78	2664.41
621.97	2682.84
622.16	2725.85
622.35	2725.85
622.54	2904.02
622.73	2717.65
622.92	2512.86
623.11	2858.96
623.30	2674.65
623.49	2791.38
623.68	2549.72
623.88	2953.17
624.07	2680.79
624.26	2576.34
624.45	2639.83
624.64	2705.37
624.83	2725.85
625.02	2713.56
625.21	2596.82
625.40	2781.14
625.59	2985.94
625.78	2633.69
625.97	2795.48
626.16	2883.54
626.35	2838.48
626.54	2703.32
626.74	2875.35
626.93	2781.14
627.12	2686.94
627.31	2863.06
627.50	2703.32
627.69	2838.48
627.88	2574.30
628.07	2519.00
628.26	2486.23
628.45	2691.03
628.64	2613.21
628.83	2598.87
629.02	2494.43
629.21	2783.19
629.40	2775.00
629.59	2602.97
629.78	2572.25
629.97	2787.29
630.16	2736.09
630.35	2629.59
630.54	2703.32
630.73	2551.77
630.92	2756.57
631.11	2559.96
631.30	2742.23
631.49	2828.24
631.68	2662.36
631.87	2721.75
632.06	2549.72
632.25	3110.86
632.44	2684.89
632.63	2686.94
632.82	2686.94
633.01	2680.79
633.20	2740.18
633.39	2660.31
633.58	2451.42
633.77	2711.51
633.96	2719.70
634.15	2813.91
634.34	2768.85
634.53	2766.81
634.72	2621.40
634.91	2463.71
635.10	2736.09
635.29	2904.02
635.48	2766.81
635.67	2570.20
635.86	2488.28
636.05	2922.45
636.24	2701.27
636.43	2645.98
636.62	2672.60
636.81	2412.51
637.00	2791.38
637.19	2670.55
637.38	2697.17
637.57	2717.65
637.76	2754.52
637.95	2850.77
638.14	2615.26
638.33	2707.41
638.52	2680.79
638.71	2531.29
638.89	2500.57
639.08	3164.11
639.27	2848.72
639.46	2908.12
639.65	3176.40
639.84	3137.49
640.03	3311.57
640.22	3071.95
640.41	3141.58
640.60	2846.68
640.79	2916.31
640.98	2779.09
641.17	2815.96
641.36	2858.96
641.55	2930.64
641.74	2627.54
641.92	2549.72
642.11	2660.31
642.30	2723.80
642.49	2576.34
642.68	2605.02
642.87	2865.11
643.06	2838.48
643.25	2557.91
643.44	2537.43
643.63	2703.32
643.82	2830.29
644.00	2574.30
644.19	2693.08
644.38	2502.62
644.57	2744.28
644.76	2652.12
644.95	2629.59
645.14	2709.46
645.33	2770.90
645.52	2717.65
645.71	2473.95
645.89	2525.15
646.08	2652.12
646.27	2672.60
646.46	2838.48
646.65	2568.15
646.84	2785.24
647.03	2523.10
647.22	2811.86
647.40	2754.52
647.59	2713.56
647.78	2396.12
647.97	2650.07
648.16	2666.46
648.35	2897.88
648.54	2830.29
648.73	2635.74
648.91	2822.10
649.10	2682.84
649.29	2568.15
649.48	2680.79
649.67	2740.18
649.86	2715.61
650.05	2693.08
650.23	2867.16
650.42	2752.47
650.61	2998.23
650.80	2918.36
650.99	2916.31
651.18	2906.07
651.36	2869.20
651.55	2699.22
651.74	2826.20
651.93	2686.94
652.12	2791.38
652.31	2701.27
652.49	2676.70
652.68	2654.17
652.87	2924.50
653.06	2764.76
653.25	2920.40
653.44	2719.70
653.62	2987.99
653.81	2682.84
654.00	2693.08
654.19	2867.16
654.38	3063.76
654.56	2727.89
654.75	2686.94
654.94	2906.07
655.13	2719.70
655.32	2678.74
655.51	2746.33
655.69	2666.46
655.88	2848.72
656.07	2490.33
656.26	2695.13
656.45	2529.24
656.63	2746.33
656.82	2600.92
657.01	2826.20
657.20	2686.94
657.38	2891.73
657.57	2637.78
657.76	2537.43
657.95	2910.16
658.14	2719.70
658.32	2756.57
658.51	2547.67
658.70	2715.61
658.89	2805.72
659.08	2717.65
659.26	2848.72
659.45	2637.78
659.64	2764.76
659.83	2658.26
660.01	2985.94
660.20	2766.81
660.39	2949.08
660.58	2424.80
660.76	2711.51
660.95	2555.86
661.14	2783.19
661.33	2465.75
661.51	2637.78
661.70	2672.60
661.89	2734.04
662.08	2670.55
662.26	2535.39
662.45	2459.61
662.64	3010.51
662.83	2820.05
663.01	2504.67
663.20	2637.78
663.39	2789.33
663.58	2580.44
663.76	2617.30
663.95	2873.30
664.14	2553.82
664.32	2602.97
664.51	2564.06
664.70	2506.71
664.89	2826.20
665.07	2529.24
665.26	2791.38
665.45	2551.77
665.64	2775.00
665.82	2695.13
666.01	2818.00
666.20	2564.06
666.38	2852.82
666.57	2809.81
666.76	4349.89
666.95	9975.66
667.13	16752.38
667.32	20872.90
667.51	23881.36
667.69	24841.86
667.88	21219.00
668.07	15095.58
668.25	12805.95
668.44	11038.55
668.63	9453.42
668.81	8609.66
669.00	7292.82
669.19	6571.93
669.38	5705.64
669.56	4931.51
669.75	4190.14
669.94	3733.45
670.12	3221.45
670.31	2998.23
670.50	2940.88
670.68	2959.31
670.87	2897.88
671.06	2676.70
671.24	2758.61
671.43	2918.36
671.62	2770.90
671.80	2709.46
671.99	2811.86
672.18	2824.15
672.36	2883.54
672.55	2711.51
672.74	2768.85
672.92	2711.51
673.11	2809.81
673.29	2516.95
673.48	2828.24
673.67	2682.84
673.85	2977.75
674.04	2682.84
674.23	2654.17
674.41	2965.46
674.60	2584.54
674.79	2447.32
674.97	2607.06
675.16	2758.61
675.34	2858.96
675.53	2639.83
675.72	2768.85
675.90	2926.55
676.09	2693.08
676.28	2754.52
676.46	2486.23
676.65	2807.77
676.83	2535.39
677.02	2672.60
677.21	2736.09
677.39	2750.42
677.58	2602.97
677.77	2605.02
677.95	2564.06
678.14	2613.21
678.32	2682.84
678.51	2564.06
678.70	2912.21
678.88	2731.99
679.07	2744.28
679.25	2623.45
679.44	2629.59
679.63	2523.10
679.81	2801.62
680.00	2881.49
680.18	2754.52
680.37	2891.73
680.55	2707.41
680.74	2504.67
680.93	2469.85
681.11	2764.76
681.30	2709.46
681.48	2639.83
681.67	2652.12
681.85	2697.17
682.04	2639.83
682.23	2742.23
682.41	2723.80
682.60	2725.85
682.78	2711.51
682.97	2553.82
683.15	2740.18
683.34	2641.88
683.53	2932.69
683.71	2527.19
683.90	2744.28
684.08	3010.51
684.27	2637.78
684.45	2666.46
684.64	2875.35
684.82	2703.32
685.01	2781.14
685.19	2686.94
685.38	2885.59
685.57	2680.79
685.75	2635.74
685.94	2627.54
686.12	2572.25
686.31	2619.35
686.49	2957.27
686.68	2496.47
686.86	2684.89
687.05	2740.18
687.23	2953.17
687.42	2623.45
687.60	2480.09
687.79	2897.88
687.97	2906.07
688.16	2799.57
688.34	2844.63
688.53	2490.33
688.71	2789.33
688.90	2805.72
689.08	2600.92
689.27	2457.56
689.45	2820.05
689.64	2756.57
689.82	2744.28
690.01	2858.96
690.19	2789.33
690.38	2645.98
690.56	2818.00
690.75	2615.26
690.93	2662.36
691.12	2600.92
691.30	2713.56
691.49	2740.18
691.67	2615.26
691.86	3030.99
692.04	2605.02
692.23	2693.08
692.41	2715.61
692.60	2994.13
692.78	2830.29
692.97	2713.56
693.15	2871.25
693.34	2863.06
693.52	2779.09
693.71	2680.79
693.89	2602.97
694.08	2475.99
694.26	2805.72
694.44	2811.86
694.63	2752.47
694.81	2559.96
695.00	2600.92
695.18	2744.28
695.37	3037.14
695.55	2715.61
695.74	2641.88
695.92	2592.73
696.10	2906.07
696.29	2529.24
696.47	2693.08
696.66	2527.19
696.84	2625.50
697.03	2609.11
697.21	2883.54
697.40	4143.04
697.58	2856.92
697.76	2629.59
697.95	2605.02
698.13	2568.15
698.32	2600.92
698.50	2686.94
698.68	2654.17
698.87	2781.14
699.05	3026.90
699.24	2676.70
699.42	2502.62
699.61	2770.90
699.79	2760.66
699.97	2725.85
700.16	2557.91
700.34	2533.34
700.53	2662.36
700.71	2828.24
700.89	2777.05
701.08	2701.27
701.26	2742.23
701.45	3133.39
701.63	2602.97
701.81	2686.94
702.00	2543.58
702.18	2742.23
702.37	2596.82
702.55	2940.88
702.73	2791.38
702.92	2656.22
703.10	2910.16
703.28	2838.48
703.47	2654.17
703.65	2836.44
703.84	2830.29
704.02	2648.02
704.20	3002.32
704.39	2650.07
704.57	2539.48
704.75	2869.20
704.94	2762.71
705.12	2688.98
705.30	3033.04
705.49	5920.68
705.67	11833.16
705.86	17653.49
706.04	20321.99
706.22	22785.70
706.41	22218.41
706.59	17317.62
706.77	13127.48
706.96	11339.60
707.14	10360.67
707.32	8763.26
707.51	7798.66
707.69	6500.25
707.87	5320.62
708.06	4513.72
708.24	3841.99
708.42	3352.52
708.61	3471.31
708.79	2750.42
708.97	2785.24
709.16	2783.19
709.34	2772.95
709.52	2670.55
709.71	2682.84
709.89	2795.48
710.07	2572.25
710.26	2625.50
710.44	2678.74
710.62	2783.19
710.80	2674.65
710.99	2801.62
711.17	2822.10
711.35	2658.26
711.54	2516.95
711.72	2889.68
711.90	2707.41
712.09	2772.95
712.27	2592.73
712.45	2740.18
712.63	2588.63
712.82	2838.48
713.00	2676.70
713.18	2850.77
713.37	2842.58
713.55	2813.91
713.73	2842.58
713.91	2781.14
714.10	2613.21
714.28	2789.33
714.46	2736.09
714.65	2766.81
714.83	2707.41
715.01	2666.46
715.19	2742.23
715.38	2676.70
715.56	2725.85
715.74	2619.35
715.92	2535.39
716.11	2865.11
716.29	2422.75
716.47	2639.83
716.65	2676.70
716.84	2576.34
717.02	2754.52
717.20	2525.15
717.38	2652.12
717.57	2760.66
717.75	2609.11
717.93	2631.64
718.11	2875.35
718.30	2508.76
718.48	2723.80
718.66	2858.96
718.84	2910.16
719.03	2686.94
719.21	2543.58
719.39	3057.62
719.57	2725.85
719.75	2764.76
719.94	2514.91
720.12	2643.93
720.30	2686.94
720.48	2711.51
720.67	2553.82
720.85	2611.16
721.03	2682.84
721.21	2594.78
721.39	2789.33
721.58	2832.34
721.76	2721.75
721.94	2713.56
722.12	2795.48
722.30	2873.30
722.49	2609.11
722.67	2703.32
722.85	2748.37
723.03	2508.76
723.21	2695.13
723.40	2764.76
723.58	2783.19
723.76	2768.85
723.94	2949.08
724.12	2705.37
724.30	2879.44
724.49	2957.27
724.67	2568.15
724.85	2838.48
725.03	2439.13
725.21	2865.11
725.40	2830.29
725.58	2523.10
725.76	2807.77
725.94	2766.81
726.12	2525.15
726.30	2666.46
726.49	2619.35
726.67	2584.54
726.85	2775.00
727.03	3117.01
727.21	4112.32
727.39	5173.17
727.57	5691.31
727.76	6033.32
727.94	6170.53
728.12	5603.24
728.30	4542.39
728.48	4339.65
728.66	4026.31
728.84	3657.67
729.03	3307.47
729.21	3160.02
729.39	3076.05
729.57	2830.29
729.75	2799.57
729.93	2754.52
730.11	2623.45
730.30	2607.06
730.48	2701.27
730.66	2805.72
730.84	2768.85
731.02	2734.04
731.20	2586.58
731.38	2619.35
731.56	2562.01
731.74	2559.96
731.93	2731.99
732.11	2693.08
732.29	2615.26
732.47	2891.73
732.65	2772.95
732.83	2777.05
733.01	2703.32
733.19	2621.40
733.37	2754.52
733.56	2721.75
733.74	2600.92
733.92	3010.51
734.10	2695.13
734.28	2729.94
734.46	2510.81
734.64	2648.02
734.82	2666.46
735.00	2574.30
735.18	2609.11
735.36	2656.22
735.54	2762.71
735.73	2684.89
735.91	2727.89
736.09	2967.51
736.27	2684.89
736.45	2734.04
736.63	2367.45
736.81	2629.59
736.99	2772.95
737.17	2822.10
737.35	2631.64
737.53	2594.78
737.71	2691.03
737.89	2801.62
738.07	2672.60
738.25	2598.87
738.43	2553.82
738.61	2660.31
738.80	2551.77
738.98	2564.06
739.16	2609.11
739.34	2605.02
739.52	2871.25
739.70	2703.32
739.88	2772.95
740.06	2799.57
740.24	2443.23
740.42	2877.40
740.60	2543.58
740.78	2641.88
740.96	2432.99
741.14	2641.88
741.32	2752.47
741.50	2555.86
741.68	2904.02
741.86	2834.39
742.04	2545.63
742.22	2645.98
742.40	2652.12
742.58	2818.00
742.76	2578.39
742.94	2848.72
743.12	2506.71
743.30	2672.60
743.48	2818.00
743.66	2623.45
743.84	2693.08
744.02	2736.09
744.20	2711.51
744.38	2590.68
744.56	2553.82
744.74	3020.75
744.92	2738.13
745.10	2863.06
745.28	2756.57
745.46	2979.79
745.64	2680.79
745.82	2754.52
746.00	2674.65
746.18	2662.36
746.36	2588.63
746.54	2695.13
746.72	2691.03
746.90	2568.15
747.08	2912.21
747.26	2686.94
747.44	2727.89
747.62	2750.42
747.80	2766.81
747.98	2768.85
748.15	2607.06
748.33	2916.31
748.51	2742.23
748.69	2709.46
748.87	2605.02
749.05	2785.24
749.23	2721.75
749.41	2621.40
749.59	2662.36
749.77	2840.53
749.95	2697.17
750.13	2629.59
750.31	2738.13
750.49	2762.71
750.67	2797.53
750.85	2846.68
751.03	2678.74
751.20	3030.99
751.38	2731.99
751.56	2613.21
751.74	2600.92
751.92	2668.50
752.10	2498.52
752.28	2764.76
752.46	2594.78
752.64	2725.85
752.82	2672.60
753.00	2768.85
753.18	2611.16
753.35	2658.26
753.53	2731.99
753.71	2578.39
753.89	2783.19
754.07	2783.19
754.25	2834.39
754.43	2697.17
754.61	2629.59
754.79	2781.14
754.97	2666.46
755.14	2754.52
755.32	2592.73
755.50	2729.94
755.68	2811.86
755.86	2598.87
756.04	2555.86
756.22	2459.61
756.40	2797.53
756.57	2961.36
756.75	2611.16
756.93	2856.92
757.11	2805.72
757.29	2535.39
757.47	2613.21
757.65	2455.51
757.82	2406.36
758.00	2551.77
758.18	2629.59
758.36	2633.69
758.54	2955.22
758.72	2459.61
758.90	2779.09
759.07	2770.90
759.25	2582.49
759.43	2768.85
759.61	2519.00
759.79	3839.94
759.97	2781.14
760.15	2598.87
760.32	2645.98
760.50	2824.15
760.68	2953.17
760.86	2514.91
761.04	2844.63
761.22	2766.81
761.39	2752.47
761.57	2779.09
761.75	2625.50
761.93	2772.95
762.11	2752.47
762.28	2672.60
762.46	2562.01
762.64	2947.03
762.82	2527.19
763.00	2588.63
763.18	2914.26
763.35	2578.39
763.53	2709.46
763.71	2615.26
763.89	2621.40
764.07	2777.05
764.24	2662.36
764.42	2713.56
764.60	2605.02
764.78	2762.71
764.96	2875.35
765.13	2793.43
765.31	2576.34
765.49	2846.68
765.67	2596.82
765.84	2629.59
766.02	2625.50
766.20	2539.48
766.38	2777.05
766.56	2688.98
766.73	2734.04
766.91	2719.70
767.09	2725.85
767.27	2731.99
767.44	2564.06
767.62	2826.20
767.80	2828.24
767.98	2549.72
768.15	2686.94
768.33	2846.68
768.51	2717.65
768.69	2775.00
768.87	2598.87
769.04	2760.66
769.22	3127.25
769.40	2725.85
769.58	2920.40
769.75	2779.09
769.93	2959.31
770.11	2715.61
770.28	2609.11
770.46	2797.53
770.64	2713.56
770.82	2639.83
770.99	2596.82
771.17	2897.88
771.35	2723.80
771.53	2674.65
771.70	2652.12
771.88	2834.39
772.06	2764.76
772.23	2703.32
772.41	2744.28
772.59	2701.27
772.77	2570.20
772.94	2582.49
773.12	2645.98
773.30	2719.70
773.47	2723.80
773.65	2547.67
773.83	2824.15
774.01	2676.70
774.18	2437.08
774.36	2688.98
774.54	2504.67
774.71	2756.57
774.89	2570.20
775.07	2553.82
775.24	2629.59
775.42	2582.49
775.60	2949.08
775.78	2570.20
775.95	2445.27
776.13	2537.43
776.31	2463.71
776.48	2752.47
776.66	2852.82
776.84	2672.60
777.01	2607.06
777.19	2482.14
777.37	2566.10
777.54	2781.14
777.72	3088.34
777.90	2711.51
778.07	2600.92
778.25	3293.13
778.43	2863.06
778.60	2611.16
778.78	2742.23
778.96	2934.74
779.13	2568.15
779.31	2695.13
779.49	2660.31
779.66	2777.05
779.84	2711.51
780.01	2656.22
780.19	2600.92
780.37	2914.26
780.54	2791.38
780.72	2623.45
780.90	2633.69
781.07	2598.87
781.25	2578.39
781.43	2766.81
781.60	2602.97
781.78	2961.36
781.95	2760.66
782.13	2541.53
782.31	2600.92
782.48	2451.42
782.66	2658.26
782.83	2930.64
783.01	2768.85
783.19	2930.64
783.36	2623.45
783.54	2551.77
783.72	2727.89
783.89	2654.17
784.07	2680.79
784.24	2736.09
784.42	2887.64
784.60	2756.57
784.77	2795.48
784.95	2428.89
785.12	2645.98
785.30	2750.42
785.47	2650.07
785.65	2484.19
785.83	2725.85
786.00	2670.55
786.18	2727.89
786.35	2533.34
786.53	2488.28
786.71	2910.16
786.88	2768.85
787.06	2705.37
787.23	2736.09
787.41	2596.82
787.58	2750.42
787.76	2600.92
787.94	2711.51
788.11	2713.56
788.29	2576.34
788.46	2627.54
788.64	2582.49
788.81	2635.74
788.99	2510.81
789.16	2521.05
789.34	2742.23
789.52	2623.45
789.69	2639.83
789.87	2459.61
790.04	2625.50
790.22	2801.62
790.39	2953.17
790.57	2510.81
790.74	2516.95
790.92	2875.35
791.09	2510.81
791.27	2709.46
791.44	2795.48
791.62	2641.88
791.79	2889.68
791.97	2674.65
792.15	2983.89
792.32	2875.35
792.50	2838.48
792.67	2783.19
792.85	2832.34
793.02	2775.00
793.20	2682.84
793.37	2531.29
793.55	2701.27
793.72	2586.58
793.90	2803.67
794.07	2600.92
794.25	2572.25
794.42	2740.18
794.60	2666.46
794.77	2725.85
794.95	2742.23
795.12	2883.54
795.30	2629.59
795.47	2482.14
795.65	3016.66
795.82	2731.99
796.00	2598.87
796.17	2584.54
796.34	2580.44
796.52	2785.24
796.69	2815.96
796.87	2754.52
797.04	2752.47
797.22	2863.06
797.39	2688.98
797.57	2762.71
797.74	2695.13
797.92	2734.04
798.09	2521.05
798.27	2840.53
798.44	2557.91
798.62	2631.64
798.79	2766.81
798.96	2789.33
799.14	2731.99
799.31	3074.00
799.49	2668.50
799.66	2566.10
799.84	2709.46
800.01	2547.67
800.19	2736.09
800.36	2453.47
800.53	2766.81
800.71	2772.95
800.88	2987.99
801.06	2652.12
801.23	2650.07
801.41	2629.59
801.58	2586.58
801.75	2686.94
801.93	2719.70
802.10	2820.05
802.28	2650.07
802.45	2613.21
802.63	2748.37
802.80	2883.54
802.97	2697.17
803.15	2721.75
803.32	2625.50
803.50	2629.59
803.67	2592.73
803.84	2568.15
804.02	2699.22
804.19	2676.70
804.37	2422.75
804.54	2473.95
804.71	2521.05
804.89	2672.60
805.06	2650.07
805.24	2590.68
805.41	2525.15
805.58	2623.45
805.76	3104.72
805.93	2635.74
806.10	2818.00
806.28	2787.29
806.45	2723.80
806.63	2707.41
806.80	2652.12
806.97	2826.20
807.15	2682.84
807.32	2666.46
807.49	2668.50
807.67	2551.77
807.84	2781.14
808.01	2430.94
808.19	2838.48
808.36	3045.33
808.54	2682.84
808.71	2551.77
808.88	2752.47
809.06	2772.95
809.23	2977.75
809.40	2519.00
809.58	2721.75
809.75	2727.89
809.92	2611.16
810.10	2920.40
810.27	2635.74
810.44	2789.33
810.62	2734.04
810.79	2727.89
810.96	2703.32
811.14	2654.17
811.31	2762.71
811.48	2785.24
811.66	2680.79
811.83	2865.11
812.00	2834.39
812.18	2719.70
812.35	2947.03
812.52	2711.51
812.69	2707.41
812.87	2586.58
813.04	2533.34
813.21	2668.50
813.39	2576.34
813.56	2519.00
813.73	2818.00
813.91	2486.23
814.08	2734.04
814.25	2705.37
814.42	2445.27
814.60	2658.26
814.77	2738.13
814.94	2645.98
815.12	2686.94
815.29	3010.51
815.46	2654.17
815.63	2678.74
815.81	2605.02
815.98	2627.54
816.15	2686.94
816.33	2611.16
816.50	2584.54
816.67	2672.60
816.84	2729.94
817.02	2568.15
817.19	2627.54
817.36	2797.53
817.53	2783.19
817.71	2650.07
817.88	2650.07
818.05	2668.50
818.22	2662.36
818.40	2818.00
818.57	2631.64
818.74	2750.42
818.91	2715.61
819.09	2727.89
819.26	2783.19
819.43	2633.69
819.60	2643.93
819.78	2756.57
819.95	2705.37
820.12	2588.63
820.29	2920.40
820.47	2848.72
820.64	2562.01
820.81	2465.75
820.98	2625.50
821.15	2695.13
821.33	2750.42
821.50	2523.10
821.67	2723.80
821.84	2588.63
822.02	2731.99
822.19	2836.44
822.36	2727.89
822.53	2658.26
822.70	2525.15
822.88	2725.85
823.05	2947.03
823.22	2742.23
823.39	2742.23
823.56	2715.61
823.74	2973.65
823.91	2535.39
824.08	2549.72
824.25	2545.63
824.42	2994.13
824.60	2533.34
824.77	2734.04
824.94	2785.24
825.11	2701.27
825.28	2482.14
825.45	2648.02
825.63	2740.18
825.80	2578.39
825.97	2750.42
826.14	2588.63
826.31	2400.22
826.48	2818.00
826.66	2611.16
826.83	2602.97
827.00	2723.80
827.17	2500.57
827.34	2660.31
827.51	2578.39
827.69	2666.46
827.86	2519.00
828.03	2648.02
828.20	2725.85
828.37	2654.17
828.54	2688.98
828.71	2662.36
828.89	2731.99
829.06	2699.22
829.23	2877.40
829.40	2631.64
829.57	2609.11
829.74	2748.37
829.91	2666.46
830.09	2537.43
830.26	2744.28
830.43	2920.40
830.60	2613.21
830.77	2713.56
830.94	2815.96
831.11	2725.85
831.28	2713.56
831.46	2752.47
831.63	2572.25
831.80	2932.69
831.97	2611.16
832.14	2619.35
832.31	2756.57
832.48	2768.85
832.65	2807.77
832.82	2676.70
832.99	2688.98
833.17	2578.39
833.34	2854.87
833.51	2688.98
833.68	2404.32
833.85	2885.59
834.02	2574.30
834.19	2480.09
834.36	2625.50
834.53	2772.95
834.70	2824.15
834.87	2709.46
835.04	2455.51
835.22	2645.98
835.39	2670.55
835.56	2564.06
835.73	2654.17
835.90	2861.01
836.07	2629.59
836.24	2670.55
836.41	2492.38
836.58	2629.59
836.75	2838.48
836.92	2611.16
837.09	2465.75
837.26	2781.14
837.43	2766.81
837.60	2600.92
837.77	2570.20
837.94	2830.29
838.12	2918.36
838.29	2478.04
838.46	2441.18
838.63	2652.12
838.80	2955.22
838.97	2535.39
839.14	2521.05
839.31	2686.94
839.48	2846.68
839.65	2545.63
839.82	2664.41
839.99	2811.86
840.16	2643.93
840.33	2500.57
840.50	2627.54
840.67	2574.30
840.84	2459.61
841.01	2516.95
841.18	2514.91
841.35	2670.55
841.52	2840.53
841.69	2791.38
841.86	2617.30
842.03	2762.71
842.20	2762.71
842.37	2529.24
842.54	2527.19
842.71	2736.09
842.88	2539.48
843.05	2553.82
843.22	2578.39
843.39	2799.57
843.56	2590.68
843.73	2590.68
843.90	2605.02
844.07	2801.62
844.24	2805.72
844.41	2621.40
844.58	2564.06
844.75	2674.65
844.92	2756.57
845.09	2553.82
845.26	2471.90
845.43	2795.48
845.60	2566.10
845.77	2727.89
845.94	2596.82
846.10	2887.64
846.27	2498.52
846.44	2437.08
846.61	2410.46
846.78	2768.85
846.95	2883.54
847.12	2488.28
847.29	2543.58
847.46	2607.06
847.63	2854.87
847.80	2529.24
847.97	2543.58
848.14	3057.62
848.31	2779.09
848.48	2484.19
848.65	2631.64
848.82	2533.34
848.98	3100.62
849.15	2605.02
849.32	2654.17
849.49	2830.29
849.66	2678.74
849.83	2539.48
850.00	2408.41
850.17	2809.81
850.34	2582.49
850.51	2420.70
850.68	2602.97
850.85	3096.53
851.01	2748.37
851.18	2562.01
851.35	2574.30
851.52	2762.71
851.69	2856.92
851.86	2443.23
852.03	2533.34
852.20	2758.61
852.37	2623.45
852.53	2408.41
852.70	2553.82
852.87	2701.27
853.04	2721.75
853.21	2529.24
853.38	2697.17
853.55	2891.73
853.72	2947.03
853.89	2459.61
854.05	2459.61
854.22	2641.88
854.39	2629.59
854.56	2490.33
854.73	2715.61
854.90	2590.68
855.07	2740.18
855.23	2463.71
855.40	2533.34
855.57	2699.22
855.74	2447.32
855.91	2723.80
856.08	2445.27
856.25	2506.71
856.41	2627.54
856.58	2541.53
856.75	2562.01
856.92	2590.68
857.09	2768.85
857.26	2492.38
857.42	2668.50
857.59	2897.88
857.76	2686.94
857.93	2539.48
858.10	2660.31
858.27	2619.35
858.43	2715.61
858.60	2523.10
858.77	2379.74
858.94	2680.79
859.11	2883.54
859.27	2635.74
859.44	2506.71
859.61	3000.27
859.78	2879.44
859.95	2512.86
860.12	2547.67
860.28	2990.03
860.45	3026.90
860.62	2486.23
860.79	2607.06
860.95	2693.08
861.12	2641.88
861.29	2449.37
861.46	2451.42
861.63	2670.55
861.79	2729.94
861.96	2451.42
862.13	2596.82
862.30	2928.60
862.47	2721.75
862.63	2422.75
862.80	2623.45
862.97	2791.38
863.14	2727.89
863.30	2621.40
863.47	2502.62
863.64	2850.77
863.81	2703.32
863.97	2525.15
864.14	2643.93
864.31	2695.13
864.48	2748.37
864.65	2557.91
864.81	2695.13
864.98	2772.95
865.15	2856.92
865.32	2551.77
865.48	2648.02
865.65	2967.51
865.82	2633.69
865.98	2676.70
866.15	2635.74
866.32	2676.70
866.49	2637.78
866.65	2729.94
866.82	2443.23
866.99	2725.85
867.16	2596.82
867.32	2545.63
867.49	2473.95
867.66	2678.74
867.83	2688.98
867.99	2480.09
868.16	2602.97
868.33	2512.86
868.49	2736.09
868.66	2535.39
868.83	2598.87
868.99	2705.37
869.16	2719.70
869.33	2686.94
869.50	2668.50
869.66	2619.35
869.83	2691.03
870.00	2512.86
870.16	2658.26
870.33	2688.98
870.50	2848.72
870.66	2672.60
870.83	2621.40
871.00	2742.23
871.17	2809.81
871.33	2678.74
871.50	2539.48
871.67	2742.23
871.83	2631.64
872.00	2703.32
872.17	2580.44
872.33	3030.99
872.50	2815.96
872.67	2535.39
872.83	2543.58
873.00	2826.20
873.17	2695.13
873.33	2609.11
873.50	2564.06
873.67	2631.64
873.83	2674.65
874.00	2500.57
874.16	2662.36
874.33	2715.61
874.50	2537.43
874.66	2676.70
874.83	2672.60
875.00	2813.91
875.16	2836.44
875.33	2607.06
875.50	2355.16
875.66	2570.20
875.83	2744.28
875.99	2627.54
876.16	2617.30
876.33	2625.50
876.49	2629.59
876.66	2547.67
876.83	2580.44
876.99	2443.23
877.16	2658.26
877.32	2463.71
877.49	2566.10
877.66	2715.61
877.82	2879.44
877.99	2572.25
878.15	2785.24
878.32	2707.41
878.49	2668.50
878.65	2629.59
878.82	2768.85
878.98	2629.59
879.15	2840.53
879.32	2742.23
879.48	2727.89
879.65	2664.41
879.81	2703.32
879.98	2512.86
880.15	2527.19
880.31	2756.57
880.48	2645.98
880.64	2699.22
880.81	2613.21
880.97	2938.84
881.14	2891.73
881.31	2547.67
881.47	2764.76
881.64	2664.41
881.80	2572.25
881.97	2609.11
882.13	2629.59
882.30	2504.67
882.47	2613.21
882.63	2590.68
882.80	2459.61
882.96	2633.69
883.13	2826.20
883.29	2566.10
883.46	2572.25
883.62	2975.70
883.79	2756.57
883.95	2695.13
884.12	2502.62
884.29	2844.63
884.45	2742.23
884.62	2564.06
884.78	2498.52
884.95	2955.22
885.11	2562.01
885.28	2637.78
885.44	2643.93
885.61	2777.05
885.77	2873.30
885.94	2680.79
886.10	2615.26
886.27	2637.78
886.43	2942.93
886.60	2760.66
886.76	2590.68
886.93	2639.83
887.09	2772.95
887.26	2441.18
887.42	2572.25
887.59	2807.77
887.75	3006.42
887.92	2758.61
888.08	2635.74
888.25	2916.31
888.41	2824.15
888.58	2648.02
888.74	2484.19
888.91	2592.73
>>>>>End Processed Spectral Data<<<<<
