SpectraSuite Data File
++++++++++++++++++++++++++++++++++++
Date: Thu May 05 16:20:48 CEST 2016
User: root
Dark Spectrum Present: No
Reference Spectrum Present: No
Number of Sampled Component Spectra: 1
Spectrometers: USB4C02835
Integration Time (usec): 100000 (USB4C02835)
Spectra Averaged: 1 (USB4C02835)
Boxcar Smoothing: 0 (USB4C02835)
Correct for Electrical Dark: No (USB4C02835)
Strobe/Lamp Enabled: No (USB4C02835)
Correct for Detector Non-linearity: No (USB4C02835)
Correct for Stray Light: No (USB4C02835)
Number of Pixels in Processed Spectrum: 3648
>>>>>Begin Processed Spectral Data<<<<<
177.47	2035.68
177.69	2035.68
177.91	2035.68
178.13	1996.77
178.36	2066.40
178.58	2609.11
178.80	2686.94
179.02	2480.09
179.24	2555.86
179.46	2441.18
179.68	2502.62
179.90	2635.74
180.13	2697.17
180.35	2424.80
180.57	2529.24
180.79	2852.82
181.01	2654.17
181.23	2506.71
181.45	2611.16
181.67	2768.85
181.90	2861.01
182.12	2570.20
182.34	2291.68
182.56	2770.90
182.78	2805.72
183.00	2494.43
183.22	2533.34
183.44	2408.41
183.66	2990.03
183.89	2652.12
184.11	2543.58
184.33	2734.04
184.55	2879.44
184.77	2480.09
184.99	2545.63
185.21	2693.08
185.43	3063.76
185.65	2521.05
185.87	2484.19
186.10	3022.80
186.32	3069.91
186.54	2545.63
186.76	2670.55
186.98	2832.34
187.20	2711.51
187.42	2564.06
187.64	2480.09
187.86	2795.48
188.08	2836.44
188.30	2400.22
188.52	2562.01
188.75	2887.64
188.97	2918.36
189.19	2553.82
189.41	2502.62
189.63	2795.48
189.85	2666.46
190.07	2428.89
190.29	2447.32
190.51	2854.87
190.73	2461.66
190.95	2605.02
191.17	2549.72
191.39	2555.86
191.61	2723.80
191.84	2555.86
192.06	2594.78
192.28	2527.19
192.50	3180.50
192.72	2645.98
192.94	2592.73
193.16	2836.44
193.38	2791.38
193.60	2439.13
193.82	2584.54
194.04	2873.30
194.26	2742.23
194.48	2572.25
194.70	2498.52
194.92	2639.83
195.14	2912.21
195.36	2441.18
195.58	2508.76
195.80	2676.70
196.02	2680.79
196.24	2424.80
196.46	2711.51
196.69	2580.44
196.91	3094.48
197.13	2600.92
197.35	2553.82
197.57	2985.94
197.79	2785.24
198.01	2555.86
198.23	2547.67
198.45	2824.15
198.67	2582.49
198.89	2449.37
199.11	2553.82
199.33	2580.44
199.55	2408.41
199.77	2514.91
199.99	2631.64
200.21	2658.26
200.43	2717.65
200.65	2402.27
200.87	2359.26
201.09	2691.03
201.31	2731.99
201.53	2535.39
201.75	2566.10
201.97	2832.34
202.19	2742.23
202.41	2625.50
202.63	2648.02
202.85	2785.24
203.07	2770.90
203.29	2559.96
203.51	2459.61
203.73	2648.02
203.95	3178.45
204.17	2590.68
204.39	2631.64
204.61	2772.95
204.83	2703.32
205.05	2627.54
205.27	2527.19
205.49	3039.19
205.71	2639.83
205.93	2408.41
206.15	2396.12
206.37	2783.19
206.59	2703.32
206.81	2387.93
207.03	2408.41
207.25	2607.06
207.47	2783.19
207.69	2521.05
207.91	2809.81
208.13	2949.08
208.34	2664.41
208.56	2469.85
208.78	2576.34
209.00	2676.70
209.22	2650.07
209.44	2502.62
209.66	2465.75
209.88	2775.00
210.10	2607.06
210.32	2478.04
210.54	2598.87
210.76	2684.89
210.98	2861.01
211.20	2381.79
211.42	2551.77
211.64	2959.31
211.86	2744.28
212.08	2609.11
212.30	2527.19
212.52	2705.37
212.74	2799.57
212.96	2512.86
213.17	2588.63
213.39	2807.77
213.61	2963.41
213.83	2545.63
214.05	2381.79
214.27	2922.45
214.49	2580.44
214.71	2455.51
214.93	2602.97
215.15	2711.51
215.37	2783.19
215.59	2437.08
215.81	2602.97
216.03	2957.27
216.24	2678.74
216.46	2523.10
216.68	2576.34
216.90	2858.96
217.12	2893.78
217.34	2455.51
217.56	2629.59
217.78	2904.02
218.00	2863.06
218.22	2584.54
218.44	2662.36
218.66	2797.53
218.87	2959.31
219.09	2539.48
219.31	2523.10
219.53	2787.29
219.75	2637.78
219.97	2488.28
220.19	2615.26
220.41	2734.04
220.63	2901.97
220.85	2619.35
221.06	2535.39
221.28	2871.25
221.50	2779.09
221.72	2549.72
221.94	2473.95
222.16	2744.28
222.38	2881.49
222.60	2555.86
222.82	2553.82
223.03	2885.59
223.25	2631.64
223.47	2551.77
223.69	2715.61
223.91	2807.77
224.13	2738.13
224.35	2396.12
224.57	2645.98
224.78	2727.89
225.00	2592.73
225.22	2539.48
225.44	2461.66
225.66	2797.53
225.88	2660.31
226.10	2639.83
226.32	2609.11
226.53	2957.27
226.75	2654.17
226.97	2559.96
227.19	2473.95
227.41	2621.40
227.63	2699.22
227.85	2346.97
228.06	2551.77
228.28	2842.58
228.50	2854.87
228.72	2338.78
228.94	2533.34
229.16	2484.19
229.37	2619.35
229.59	2447.32
229.81	2734.04
230.03	2682.84
230.25	2527.19
230.47	2424.80
230.69	2424.80
230.90	2854.87
231.12	2633.69
231.34	2578.39
231.56	2537.43
231.78	2562.01
232.00	2756.57
232.21	2488.28
232.43	2484.19
232.65	2432.99
232.87	2852.82
233.09	2387.93
233.30	2420.70
233.52	2850.77
233.74	2678.74
233.96	2490.33
234.18	2658.26
234.40	2701.27
234.61	3063.76
234.83	2379.74
235.05	2494.43
235.27	3149.78
235.49	2981.84
235.70	2455.51
235.92	2596.82
236.14	2787.29
236.36	3151.82
236.58	2402.27
236.79	2576.34
237.01	2715.61
237.23	2707.41
237.45	2652.12
237.67	2490.33
237.88	2729.94
238.10	3022.80
238.32	2451.42
238.54	2428.89
238.76	2719.70
238.97	2609.11
239.19	2439.13
239.41	2629.59
239.63	2928.60
239.85	2707.41
240.06	2502.62
240.28	2488.28
240.50	2955.22
240.72	2781.14
240.93	2510.81
241.15	2629.59
241.37	2717.65
241.59	2969.55
241.81	2539.48
242.02	2553.82
242.24	2746.33
242.46	2832.34
242.68	2426.84
242.89	2523.10
243.11	2842.58
243.33	2713.56
243.55	2568.15
243.76	2570.20
243.98	2641.88
244.20	2662.36
244.42	2598.87
244.64	2525.15
244.85	2482.14
245.07	2633.69
245.29	2504.67
245.51	2562.01
245.72	2834.39
245.94	2891.73
246.16	2570.20
246.38	2516.95
246.59	2641.88
246.81	2535.39
247.03	2387.93
247.24	2428.89
247.46	2662.36
247.68	2758.61
247.90	2482.14
248.11	2471.90
248.33	2865.11
248.55	2725.85
248.77	2543.58
248.98	2588.63
249.20	3061.71
249.42	2738.13
249.64	2475.99
249.85	2516.95
250.07	2568.15
250.29	2807.77
250.50	2578.39
250.72	2400.22
250.94	2805.72
251.16	3030.99
251.37	2535.39
251.59	2543.58
251.81	2766.81
252.02	2910.16
252.24	2521.05
252.46	2580.44
252.68	2596.82
252.89	2668.50
253.11	2392.03
253.33	2643.93
253.54	2908.12
253.76	2555.86
253.98	2547.67
254.20	2512.86
254.41	2527.19
254.63	2654.17
254.85	2371.55
255.06	2668.50
255.28	2885.59
255.50	2709.46
255.71	2482.14
255.93	2412.51
256.15	2695.13
256.36	2852.82
256.58	2389.98
256.80	2394.08
257.02	2707.41
257.23	2678.74
257.45	2527.19
257.67	2605.02
257.88	2629.59
258.10	2809.81
258.32	2531.29
258.53	2623.45
258.75	3004.37
258.97	2635.74
259.18	2498.52
259.40	2545.63
259.62	2990.03
259.83	2930.64
260.05	2549.72
260.27	3164.11
260.48	2906.07
260.70	2584.54
260.92	2418.65
261.13	2545.63
261.35	2795.48
261.57	2734.04
261.78	2392.03
262.00	2463.71
262.22	2777.05
262.43	2559.96
262.65	2545.63
262.86	2617.30
263.08	3061.71
263.30	2746.33
263.51	2340.83
263.73	2369.50
263.95	2871.25
264.16	2564.06
264.38	2469.85
264.60	2457.56
264.81	2688.98
265.03	2863.06
265.25	2750.42
265.46	2519.00
265.68	2932.69
265.89	2844.63
266.11	2400.22
266.33	2527.19
266.54	2885.59
266.76	2731.99
266.98	2598.87
267.19	2670.55
267.41	2899.92
267.62	2666.46
267.84	2375.64
268.06	2672.60
268.27	2754.52
268.49	2842.58
268.70	2594.78
268.92	2609.11
269.14	2613.21
269.35	2596.82
269.57	2555.86
269.79	2666.46
270.00	2670.55
270.22	2990.03
270.43	2482.14
270.65	2312.16
270.87	2775.00
271.08	2813.91
271.30	2555.86
271.51	2580.44
271.73	2793.43
271.95	2920.40
272.16	2514.91
272.38	2570.20
272.59	2551.77
272.81	2764.76
273.02	2400.22
273.24	2592.73
273.46	2908.12
273.67	2559.96
273.89	2408.41
274.10	2453.47
274.32	2908.12
274.54	2727.89
274.75	2664.41
274.97	2521.05
275.18	2848.72
275.40	2815.96
275.61	2535.39
275.83	2623.45
276.05	2572.25
276.26	2637.78
276.48	2639.83
276.69	2539.48
276.91	2621.40
277.12	2971.60
277.34	2717.65
277.55	2756.57
277.77	2760.66
277.99	2721.75
278.20	2539.48
278.42	2457.56
278.63	2676.70
278.85	2658.26
279.06	2467.80
279.28	2660.31
279.49	2893.78
279.71	2779.09
279.93	2635.74
280.14	2521.05
280.36	2641.88
280.57	2779.09
280.79	2699.22
281.00	2533.34
281.22	2617.30
281.43	2893.78
281.65	2428.89
281.86	2523.10
282.08	2750.42
282.29	3061.71
282.51	2492.38
282.73	2430.94
282.94	2535.39
283.16	2734.04
283.37	2703.32
283.59	2535.39
283.80	2721.75
284.02	2779.09
284.23	2637.78
284.45	2562.01
284.66	2621.40
284.88	2611.16
285.09	2578.39
285.31	2691.03
285.52	2801.62
285.74	2469.85
285.95	2742.23
286.17	2643.93
286.38	2867.16
286.60	2635.74
286.81	2514.91
287.03	2592.73
287.24	2703.32
287.46	2858.96
287.67	2621.40
287.89	2920.40
288.10	2711.51
288.32	2736.09
288.53	2764.76
288.75	2666.46
288.96	2826.20
289.18	2682.84
289.39	2570.20
289.61	2666.46
289.82	3016.66
290.04	3049.43
290.25	2494.43
290.47	2566.10
290.68	2611.16
290.90	2828.24
291.11	2410.46
291.33	2789.33
291.54	2654.17
291.76	2543.58
291.97	2691.03
292.18	2744.28
292.40	2609.11
292.61	2617.30
292.83	2805.72
293.04	2699.22
293.26	2764.76
293.47	2713.56
293.69	2459.61
293.90	2537.43
294.12	2883.54
294.33	2670.55
294.55	2666.46
294.76	2762.71
294.97	2936.79
295.19	3026.90
295.40	2609.11
295.62	2705.37
295.83	2875.35
296.05	2570.20
296.26	2807.77
296.48	2521.05
296.69	2742.23
296.90	2674.65
297.12	2789.33
297.33	2734.04
297.55	2658.26
297.76	2875.35
297.98	2717.65
298.19	2703.32
298.41	2686.94
298.62	2541.53
298.83	2697.17
299.05	2648.02
299.26	2658.26
299.48	2596.82
299.69	2645.98
299.90	2633.69
300.12	2568.15
300.33	2762.71
300.55	2670.55
300.76	2600.92
300.98	2539.48
301.19	2852.82
301.40	2598.87
301.62	2586.58
301.83	2764.76
302.05	2662.36
302.26	2586.58
302.47	2723.80
302.69	2523.10
302.90	2795.48
303.12	2410.46
303.33	2682.84
303.54	3039.19
303.76	2641.88
303.97	2553.82
304.19	2856.92
304.40	2627.54
304.61	2725.85
304.83	2758.61
305.04	2727.89
305.26	2850.77
305.47	2680.79
305.68	2590.68
305.90	2539.48
306.11	2938.84
306.33	2707.41
306.54	2588.63
306.75	2568.15
306.97	2502.62
307.18	2545.63
307.39	2576.34
307.61	2660.31
307.82	2658.26
308.04	2805.72
308.25	2508.76
308.46	2729.94
308.68	2719.70
308.89	2711.51
309.10	2764.76
309.32	2658.26
309.53	2711.51
309.74	2832.34
309.96	2594.78
310.17	2717.65
310.39	2674.65
310.60	2752.47
310.81	2654.17
311.03	2523.10
311.24	2846.68
311.45	2688.98
311.67	2877.40
311.88	2680.79
312.09	2672.60
312.31	2648.02
312.52	2553.82
312.73	2453.47
312.95	2547.67
313.16	2660.31
313.37	2686.94
313.59	2678.74
313.80	2885.59
314.01	2930.64
314.23	2590.68
314.44	2572.25
314.65	2543.58
314.87	2576.34
315.08	2588.63
315.29	2664.41
315.51	2572.25
315.72	2504.67
315.93	2695.13
316.15	2668.50
316.36	2615.26
316.57	2688.98
316.79	2625.50
317.00	2537.43
317.21	2758.61
317.43	2627.54
317.64	2625.50
317.85	2584.54
318.07	2631.64
318.28	2691.03
318.49	2695.13
318.70	2895.83
318.92	2842.58
319.13	2865.11
319.34	2809.81
319.56	2674.65
319.77	2768.85
319.98	2840.53
320.20	2826.20
320.41	2768.85
320.62	2750.42
320.83	2594.78
321.05	2881.49
321.26	2637.78
321.47	2629.59
321.69	2889.68
321.90	2539.48
322.11	2625.50
322.32	2705.37
322.54	2908.12
322.75	2594.78
322.96	3286.99
323.18	2521.05
323.39	2494.43
323.60	2576.34
323.81	2707.41
324.03	2645.98
324.24	2678.74
324.45	2703.32
324.66	2613.21
324.88	2822.10
325.09	2965.46
325.30	2680.79
325.52	2625.50
325.73	2807.77
325.94	2570.20
326.15	2494.43
326.37	2559.96
326.58	2834.39
326.79	2951.12
327.00	2570.20
327.22	2590.68
327.43	2731.99
327.64	2535.39
327.85	2717.65
328.07	2658.26
328.28	3026.90
328.49	2695.13
328.70	2621.40
328.92	2582.49
329.13	2668.50
329.34	2729.94
329.55	2805.72
329.76	2672.60
329.98	2670.55
330.19	2965.46
330.40	2719.70
330.61	2633.69
330.83	2799.57
331.04	2641.88
331.25	2650.07
331.46	2637.78
331.68	2574.30
331.89	2826.20
332.10	2686.94
332.31	2461.66
332.52	2680.79
332.74	2973.65
332.95	2396.12
333.16	2541.53
333.37	2738.13
333.58	2670.55
333.80	2635.74
334.01	2408.41
334.22	2676.70
334.43	2648.02
334.64	2547.67
334.86	2584.54
335.07	2545.63
335.28	2932.69
335.49	2543.58
335.70	2703.32
335.92	2908.12
336.13	3006.42
336.34	2662.36
336.55	2670.55
336.76	2824.15
336.98	2375.64
337.19	2559.96
337.40	2744.28
337.61	3100.62
337.82	2756.57
338.04	2674.65
338.25	2531.29
338.46	2760.66
338.67	2654.17
338.88	2463.71
339.09	2496.47
339.31	2645.98
339.52	2533.34
339.73	2539.48
339.94	2645.98
340.15	2795.48
340.36	2633.69
340.58	2666.46
340.79	2500.57
341.00	2822.10
341.21	2506.71
341.42	2805.72
341.63	2619.35
341.85	2861.01
342.06	2682.84
342.27	2562.01
342.48	2695.13
342.69	2512.86
342.90	2820.05
343.12	2807.77
343.33	2553.82
343.54	2897.88
343.75	2883.54
343.96	2660.31
344.17	2523.10
344.38	2758.61
344.60	2570.20
344.81	2648.02
345.02	2586.58
345.23	2865.11
345.44	3196.88
345.65	2699.22
345.86	2688.98
346.07	2772.95
346.29	2625.50
346.50	2619.35
346.71	2613.21
346.92	2852.82
347.13	3028.95
347.34	2621.40
347.55	2498.52
347.76	2772.95
347.98	2525.15
348.19	2586.58
348.40	2746.33
348.61	2635.74
348.82	2899.92
349.03	2744.28
349.24	2576.34
349.45	2928.60
349.66	2461.66
349.88	2580.44
350.09	2602.97
350.30	2826.20
350.51	2928.60
350.72	2695.13
350.93	2549.72
351.14	2693.08
351.35	2748.37
351.56	2705.37
351.77	2674.65
351.99	2750.42
352.20	2883.54
352.41	2783.19
352.62	2516.95
352.83	2783.19
353.04	2709.46
353.25	2553.82
353.46	2660.31
353.67	2869.20
353.88	2453.47
354.09	2594.78
354.30	2643.93
354.52	2828.24
354.73	2705.37
354.94	2643.93
355.15	2686.94
355.36	2963.41
355.57	2510.81
355.78	2623.45
355.99	2602.97
356.20	2564.06
356.41	2967.51
356.62	2668.50
356.83	2645.98
357.04	2889.68
357.25	2559.96
357.46	2609.11
357.68	2500.57
357.89	2613.21
358.10	2736.09
358.31	2592.73
358.52	2572.25
358.73	2588.63
358.94	2549.72
359.15	2582.49
359.36	2648.02
359.57	2758.61
359.78	2664.41
359.99	2750.42
360.20	2527.19
360.41	2764.76
360.62	2869.20
360.83	2627.54
361.04	2605.02
361.25	2838.48
361.46	2955.22
361.67	2686.94
361.88	2637.78
362.09	2838.48
362.30	2785.24
362.51	2545.63
362.72	2576.34
362.93	2797.53
363.14	2766.81
363.35	2623.45
363.56	2494.43
363.78	2901.97
363.99	2885.59
364.20	2598.87
364.41	2701.27
364.62	3012.56
364.83	2832.34
365.04	2627.54
365.25	2674.65
365.46	3055.57
365.67	2668.50
365.88	2715.61
366.09	2664.41
366.30	2727.89
366.51	2748.37
366.72	2506.71
366.93	2639.83
367.14	2688.98
367.35	2869.20
367.56	2600.92
367.77	2695.13
367.98	2715.61
368.18	2717.65
368.39	2770.90
368.60	2449.37
368.81	2807.77
369.02	2731.99
369.23	2637.78
369.44	2504.67
369.65	2617.30
369.86	2809.81
370.07	2676.70
370.28	2480.09
370.49	2793.43
370.70	2805.72
370.91	2570.20
371.12	2471.90
371.33	2836.44
371.54	2568.15
371.75	2772.95
371.96	2379.74
372.17	2807.77
372.38	2670.55
372.59	2658.26
372.80	2492.38
373.01	2699.22
373.22	2758.61
373.43	2664.41
373.64	2553.82
373.85	2891.73
374.06	2992.08
374.26	2770.90
374.47	2701.27
374.68	2957.27
374.89	2729.94
375.10	2605.02
375.31	2746.33
375.52	2740.18
375.73	2766.81
375.94	2475.99
376.15	2832.34
376.36	2631.64
376.57	2629.59
376.78	2635.74
376.99	2668.50
377.20	3012.56
377.40	2697.17
377.61	2871.25
377.82	2590.68
378.03	2998.23
378.24	2813.91
378.45	2715.61
378.66	2631.64
378.87	2428.89
379.08	2478.04
379.29	2645.98
379.50	2723.80
379.71	2666.46
379.91	2805.72
380.12	2631.64
380.33	2713.56
380.54	2701.27
380.75	2721.75
380.96	2609.11
381.17	2715.61
381.38	2719.70
381.59	2766.81
381.80	2658.26
382.00	2795.48
382.21	2791.38
382.42	2957.27
382.63	2922.45
382.84	2731.99
383.05	2791.38
383.26	2918.36
383.47	2705.37
383.68	2662.36
383.88	2904.02
384.09	2734.04
384.30	2787.29
384.51	2719.70
384.72	2701.27
384.93	2467.80
385.14	2670.55
385.35	2777.05
385.55	2551.77
385.76	2940.88
385.97	2629.59
386.18	2465.75
386.39	2641.88
386.60	2650.07
386.81	2527.19
387.02	2510.81
387.22	2564.06
387.43	2893.78
387.64	2762.71
387.85	2811.86
388.06	2842.58
388.27	3901.38
388.48	7413.65
388.68	10893.15
388.89	13422.39
389.10	14444.32
389.31	13975.34
389.52	10930.01
389.73	9242.48
389.93	8537.98
390.14	7704.46
390.35	7026.58
390.56	6487.96
390.77	5412.78
390.98	4079.55
391.18	3487.69
391.39	3129.30
391.60	2867.16
391.81	2801.62
392.02	2664.41
392.23	3145.68
392.43	2789.33
392.64	2613.21
392.85	2705.37
393.06	2990.03
393.27	2740.18
393.47	2619.35
393.68	2701.27
393.89	2686.94
394.10	2899.92
394.31	2602.97
394.52	2539.48
394.72	2619.35
394.93	2922.45
395.14	2566.10
395.35	2770.90
395.56	2641.88
395.76	2699.22
395.97	2617.30
396.18	2693.08
396.39	2744.28
396.60	3260.37
396.80	2998.23
397.01	2858.96
397.22	2912.21
397.43	2996.18
397.64	2633.69
397.84	2738.13
398.05	3057.62
398.26	2660.31
398.47	2881.49
398.67	2822.10
398.88	2709.46
399.09	2844.63
399.30	2568.15
399.51	2695.13
399.71	2611.16
399.92	2664.41
400.13	2727.89
400.34	2650.07
400.54	2691.03
400.75	2979.79
400.96	2609.11
401.17	2869.20
401.37	2807.77
401.58	2713.56
401.79	2711.51
402.00	2695.13
402.21	3127.25
402.41	2977.75
402.62	2928.60
402.83	3055.57
403.04	3100.62
403.24	3307.47
403.45	2768.85
403.66	2953.17
403.87	2906.07
404.07	2963.41
404.28	2858.96
404.49	2985.94
404.70	2764.76
404.90	2883.54
405.11	2664.41
405.32	2693.08
405.52	2674.65
405.73	2596.82
405.94	2588.63
406.15	2674.65
406.35	2844.63
406.56	2854.87
406.77	2756.57
406.98	2715.61
407.18	2629.59
407.39	2924.50
407.60	2629.59
407.80	2668.50
408.01	2605.02
408.22	2809.81
408.43	2545.63
408.63	2680.79
408.84	2768.85
409.05	2813.91
409.25	2602.97
409.46	2623.45
409.67	2697.17
409.88	2557.91
410.08	2701.27
410.29	2519.00
410.50	2799.57
410.70	2795.48
410.91	2555.86
411.12	2664.41
411.32	2785.24
411.53	2641.88
411.74	2719.70
411.95	2770.90
412.15	2717.65
412.36	2901.97
412.57	2713.56
412.77	2844.63
412.98	2693.08
413.19	2684.89
413.39	2752.47
413.60	2707.41
413.81	2861.01
414.01	2463.71
414.22	2688.98
414.43	2742.23
414.63	2586.58
414.84	2947.03
415.05	2709.46
415.25	2568.15
415.46	2818.00
415.67	2637.78
415.87	2672.60
416.08	2629.59
416.29	2682.84
416.49	2826.20
416.70	2600.92
416.91	2596.82
417.11	2744.28
417.32	2883.54
417.53	2744.28
417.73	2744.28
417.94	2641.88
418.15	2854.87
418.35	2652.12
418.56	2564.06
418.77	3014.61
418.97	2719.70
419.18	2611.16
419.38	2373.60
419.59	2670.55
419.80	2901.97
420.00	2602.97
420.21	2701.27
420.42	2924.50
420.62	2854.87
420.83	2654.17
421.04	2629.59
421.24	2658.26
421.45	2912.21
421.65	2674.65
421.86	2598.87
422.07	2795.48
422.27	2738.13
422.48	2633.69
422.69	2553.82
422.89	2703.32
423.10	2643.93
423.30	2586.58
423.51	2779.09
423.72	2736.09
423.92	2883.54
424.13	2465.75
424.33	2666.46
424.54	2846.68
424.75	2809.81
424.95	2822.10
425.16	2707.41
425.36	2637.78
425.57	2842.58
425.78	2766.81
425.98	2746.33
426.19	2652.12
426.39	2590.68
426.60	2688.98
426.81	2721.75
427.01	2736.09
427.22	2656.22
427.42	2504.67
427.63	2543.58
427.83	2869.20
428.04	2969.55
428.25	2731.99
428.45	2809.81
428.66	2967.51
428.86	2641.88
429.07	2662.36
429.28	2725.85
429.48	2750.42
429.69	2664.41
429.89	2723.80
430.10	2547.67
430.30	2822.10
430.51	2854.87
430.71	2600.92
430.92	2688.98
431.13	2615.26
431.33	2801.62
431.54	2666.46
431.74	2818.00
431.95	3061.71
432.15	2660.31
432.36	2719.70
432.56	2752.47
432.77	2951.12
432.98	2992.08
433.18	2703.32
433.39	2576.34
433.59	2701.27
433.80	2932.69
434.00	2899.92
434.21	2621.40
434.41	2662.36
434.62	3102.67
434.82	2504.67
435.03	2539.48
435.23	2809.81
435.44	2471.90
435.64	2592.73
435.85	2699.22
436.06	2867.16
436.26	2924.50
436.47	2666.46
436.67	2551.77
436.88	2678.74
437.08	2809.81
437.29	2811.86
437.49	2678.74
437.70	2951.12
437.90	2766.81
438.11	2815.96
438.31	2721.75
438.52	3014.61
438.72	2904.02
438.93	2961.36
439.13	2691.03
439.34	2832.34
439.54	2643.93
439.75	2772.95
439.95	2746.33
440.16	2611.16
440.36	2656.22
440.57	2707.41
440.77	2639.83
440.98	2711.51
441.18	2736.09
441.39	2555.86
441.59	2510.81
441.80	3026.90
442.00	2746.33
442.21	2668.50
442.41	2502.62
442.62	2901.97
442.82	2674.65
443.02	2701.27
443.23	2721.75
443.43	2633.69
443.64	2963.41
443.84	2600.92
444.05	2797.53
444.25	2707.41
444.46	2748.37
444.66	2564.06
444.87	2861.01
445.07	2490.33
445.28	2633.69
445.48	2795.48
445.69	2754.52
445.89	3033.04
446.09	2723.80
446.30	2998.23
446.50	3059.67
446.71	4497.34
446.91	5640.11
447.12	6442.91
447.32	6600.60
447.53	6496.16
447.73	5459.88
447.93	4669.37
448.14	4546.49
448.34	4458.43
448.55	3860.42
448.75	3895.24
448.96	3674.06
449.16	3375.05
449.36	3284.94
449.57	2858.96
449.77	2707.41
449.98	2678.74
450.18	2830.29
450.39	2617.30
450.59	2844.63
450.79	2717.65
451.00	2590.68
451.20	2731.99
451.41	2668.50
451.61	2783.19
451.81	2662.36
452.02	2553.82
452.22	2723.80
452.43	2586.58
452.63	2699.22
452.84	2672.60
453.04	2633.69
453.24	2858.96
453.45	2605.02
453.65	2568.15
453.86	2713.56
454.06	2760.66
454.26	2772.95
454.47	2545.63
454.67	2867.16
454.87	2881.49
455.08	2660.31
455.28	2791.38
455.49	2748.37
455.69	2670.55
455.89	3000.27
456.10	2727.89
456.30	2670.55
456.51	2826.20
456.71	2707.41
456.91	2756.57
457.12	2613.21
457.32	2871.25
457.52	2568.15
457.73	2752.47
457.93	2805.72
458.14	2629.59
458.34	2490.33
458.54	2643.93
458.75	2586.58
458.95	3004.37
459.15	2826.20
459.36	2682.84
459.56	2660.31
459.76	3166.16
459.97	2699.22
460.17	2705.37
460.37	2777.05
460.58	2758.61
460.78	2781.14
460.99	2666.46
461.19	2623.45
461.39	2678.74
461.60	2682.84
461.80	2797.53
462.00	2519.00
462.21	2699.22
462.41	2574.30
462.61	2541.53
462.82	2455.51
463.02	2889.68
463.22	2684.89
463.43	2719.70
463.63	2625.50
463.83	2918.36
464.04	2772.95
464.24	2617.30
464.44	2600.92
464.64	2797.53
464.85	2838.48
465.05	2723.80
465.25	2639.83
465.46	2629.59
465.66	2785.24
465.86	2793.43
466.07	2701.27
466.27	2707.41
466.47	2482.14
466.68	2516.95
466.88	2797.53
467.08	2844.63
467.29	2852.82
467.49	2662.36
467.69	2715.61
467.89	2801.62
468.10	2717.65
468.30	2725.85
468.50	2809.81
468.71	2969.55
468.91	2496.47
469.11	2875.35
469.31	2750.42
469.52	2602.97
469.72	2944.98
469.92	2865.11
470.13	2635.74
470.33	2787.29
470.53	2756.57
470.73	3063.76
470.94	3364.81
471.14	3401.68
471.34	3850.18
471.54	3567.56
471.75	3422.16
471.95	3106.77
472.15	3086.29
472.36	3147.73
472.56	2979.79
472.76	3196.88
472.96	3020.75
473.17	2922.45
473.37	2740.18
473.57	2850.77
473.77	2787.29
473.98	2731.99
474.18	2584.54
474.38	3203.02
474.58	2727.89
474.79	2547.67
474.99	2766.81
475.19	2901.97
475.39	2576.34
475.60	2799.57
475.80	2691.03
476.00	2729.94
476.20	2658.26
476.41	2779.09
476.61	2703.32
476.81	2877.40
477.01	2625.50
477.21	2867.16
477.42	2762.71
477.62	2643.93
477.82	2830.29
478.02	2656.22
478.23	2793.43
478.43	2564.06
478.63	2729.94
478.83	2701.27
479.03	2678.74
479.24	2969.55
479.44	2947.03
479.64	2523.10
479.84	2465.75
480.04	2676.70
480.25	2789.33
480.45	2555.86
480.65	2654.17
480.85	2914.26
481.06	2695.13
481.26	2740.18
481.46	2643.93
481.66	2758.61
481.86	2678.74
482.06	2848.72
482.27	2609.11
482.47	2652.12
482.67	2760.66
482.87	2598.87
483.07	2693.08
483.28	2617.30
483.48	2643.93
483.68	2695.13
483.88	2547.67
484.08	2410.46
484.29	2588.63
484.49	2717.65
484.69	2533.34
484.89	2873.30
485.09	2838.48
485.29	2662.36
485.50	2707.41
485.70	2613.21
485.90	2842.58
486.10	2695.13
486.30	2654.17
486.50	2949.08
486.71	2756.57
486.91	2670.55
487.11	2756.57
487.31	2600.92
487.51	2762.71
487.71	2641.88
487.91	2596.82
488.12	2562.01
488.32	2373.60
488.52	2605.02
488.72	2392.03
488.92	2736.09
489.12	2871.25
489.32	2848.72
489.53	2713.56
489.73	2512.86
489.93	2908.12
490.13	2617.30
490.33	2514.91
490.53	2762.71
490.73	2793.43
490.94	2521.05
491.14	2752.47
491.34	2748.37
491.54	2965.46
491.74	3473.36
491.94	4071.36
492.14	4456.38
492.34	4538.30
492.54	4153.28
492.75	3551.18
492.95	3647.43
493.15	3440.59
493.35	3235.79
493.55	3241.93
493.75	3125.20
493.95	3213.26
494.15	2928.60
494.35	2752.47
494.56	2711.51
494.76	2611.16
494.96	2799.57
495.16	2609.11
495.36	2734.04
495.56	2775.00
495.76	2680.79
495.96	2617.30
496.16	2596.82
496.36	3004.37
496.56	2674.65
496.77	2695.13
496.97	2791.38
497.17	2936.79
497.37	2566.10
497.57	2725.85
497.77	2729.94
497.97	2592.73
498.17	2668.50
498.37	2633.69
498.57	2803.67
498.77	2613.21
498.97	2828.24
499.17	2906.07
499.38	2688.98
499.58	2803.67
499.78	2785.24
499.98	2813.91
500.18	2691.03
500.38	2586.58
500.58	2918.36
500.78	3274.70
500.98	5322.67
501.18	7149.46
501.38	8619.90
501.58	9625.45
501.78	9332.59
501.98	7712.65
502.18	6363.04
502.38	5595.05
502.58	5359.53
502.78	4677.56
502.98	4614.07
503.18	4458.43
503.38	4054.98
503.59	3596.23
503.79	3409.87
503.99	3295.18
504.19	3129.30
504.39	3106.77
504.59	3153.87
504.79	3074.00
504.99	3186.64
505.19	2953.17
505.39	2916.31
505.59	2951.12
505.79	3026.90
505.99	2953.17
506.19	2713.56
506.39	2883.54
506.59	2629.59
506.79	2670.55
506.99	2840.53
507.19	2633.69
507.39	2748.37
507.59	2609.11
507.79	2605.02
507.99	2584.54
508.19	2711.51
508.39	2631.64
508.59	2658.26
508.79	2840.53
508.99	3057.62
509.19	2602.97
509.39	2707.41
509.59	2572.25
509.79	2656.22
509.99	2707.41
510.19	2871.25
510.39	2738.13
510.59	2756.57
510.79	2650.07
510.99	2500.57
511.19	2627.54
511.39	3012.56
511.59	2879.44
511.79	2781.14
511.99	2629.59
512.19	2994.13
512.38	2727.89
512.58	2572.25
512.78	2635.74
512.98	2959.31
513.18	2906.07
513.38	2521.05
513.58	2701.27
513.78	2688.98
513.98	2701.27
514.18	2576.34
514.38	2555.86
514.58	2791.38
514.78	2586.58
514.98	2627.54
515.18	2645.98
515.38	2525.15
515.58	2990.03
515.78	2639.83
515.98	2648.02
516.18	2807.77
516.38	2760.66
516.57	2633.69
516.77	2621.40
516.97	2799.57
517.17	2666.46
517.37	2441.18
517.57	2678.74
517.77	2707.41
517.97	2648.02
518.17	2770.90
518.37	2562.01
518.57	2613.21
518.77	2686.94
518.97	2670.55
519.16	2775.00
519.36	2863.06
519.56	2650.07
519.76	2648.02
519.96	2715.61
520.16	2987.99
520.36	2523.10
520.56	2844.63
520.76	2580.44
520.96	2676.70
521.16	2875.35
521.35	2863.06
521.55	2779.09
521.75	2760.66
521.95	2625.50
522.15	2609.11
522.35	2432.99
522.55	2717.65
522.75	2801.62
522.95	2566.10
523.14	2516.95
523.34	2865.11
523.54	2652.12
523.74	2797.53
523.94	2727.89
524.14	2533.34
524.34	2844.63
524.54	2768.85
524.73	2672.60
524.93	2740.18
525.13	2729.94
525.33	2549.72
525.53	2928.60
525.73	2893.78
525.93	2723.80
526.13	2564.06
526.32	2584.54
526.52	2887.64
526.72	2877.40
526.92	2600.92
527.12	2621.40
527.32	2478.04
527.52	2727.89
527.71	2686.94
527.91	2719.70
528.11	2645.98
528.31	2744.28
528.51	2582.49
528.71	2736.09
528.90	2822.10
529.10	2942.93
529.30	2746.33
529.50	2465.75
529.70	2777.05
529.90	2676.70
530.09	2727.89
530.29	2506.71
530.49	2605.02
530.69	3157.97
530.89	2764.76
531.09	2711.51
531.28	2652.12
531.48	2891.73
531.68	2617.30
531.88	2660.31
532.08	2828.24
532.28	2691.03
532.47	2686.94
532.67	2740.18
532.87	2789.33
533.07	2592.73
533.27	2686.94
533.46	2748.37
533.66	2750.42
533.86	2715.61
534.06	2695.13
534.26	2684.89
534.45	2650.07
534.65	2895.83
534.85	2643.93
535.05	2598.87
535.25	2838.48
535.44	2496.47
535.64	2752.47
535.84	2746.33
536.04	2719.70
536.24	2613.21
536.43	2633.69
536.63	2650.07
536.83	2760.66
537.03	2719.70
537.22	2435.03
537.42	2486.23
537.62	2688.98
537.82	2592.73
538.02	2756.57
538.21	2840.53
538.41	3235.79
538.61	2750.42
538.81	2695.13
539.00	2775.00
539.20	2521.05
539.40	2664.41
539.60	2656.22
539.79	2752.47
539.99	2693.08
540.19	2553.82
540.39	2637.78
540.58	2719.70
540.78	2822.10
540.98	2666.46
541.18	2785.24
541.37	2715.61
541.57	2734.04
541.77	2775.00
541.97	2629.59
542.16	2519.00
542.36	2652.12
542.56	2684.89
542.76	2916.31
542.95	2768.85
543.15	2885.59
543.35	2818.00
543.54	2529.24
543.74	2596.82
543.94	2957.27
544.14	2697.17
544.33	2713.56
544.53	2652.12
544.73	2600.92
544.93	2645.98
545.12	2537.43
545.32	2674.65
545.52	2643.93
545.71	2535.39
545.91	2602.97
546.11	2600.92
546.30	2592.73
546.50	2715.61
546.70	2740.18
546.90	2729.94
547.09	2500.57
547.29	2717.65
547.49	2770.90
547.68	2592.73
547.88	2562.01
548.08	2877.40
548.27	3147.73
548.47	2701.27
548.67	2707.41
548.87	2865.11
549.06	2613.21
549.26	2652.12
549.46	2719.70
549.65	2658.26
549.85	2695.13
550.05	2662.36
550.24	2498.52
550.44	2727.89
550.64	2645.98
550.83	2691.03
551.03	2969.55
551.23	2895.83
551.42	2729.94
551.62	2719.70
551.82	2635.74
552.01	2699.22
552.21	2865.11
552.41	2686.94
552.60	2938.84
552.80	2752.47
553.00	2627.54
553.19	2727.89
553.39	2998.23
553.59	2564.06
553.78	2764.76
553.98	2707.41
554.17	2590.68
554.37	2713.56
554.57	2752.47
554.76	2533.34
554.96	2543.58
555.16	2793.43
555.35	2719.70
555.55	2824.15
555.75	2850.77
555.94	2865.11
556.14	2555.86
556.33	2703.32
556.53	2715.61
556.73	2738.13
556.92	2656.22
557.12	2686.94
557.32	3024.85
557.51	2854.87
557.71	2709.46
557.90	2822.10
558.10	2895.83
558.30	2635.74
558.49	2660.31
558.69	2641.88
558.88	2842.58
559.08	2789.33
559.28	2613.21
559.47	2717.65
559.67	2783.19
559.86	3014.61
560.06	2662.36
560.26	2654.17
560.45	2840.53
560.65	2658.26
560.84	2881.49
561.04	2494.43
561.24	2828.24
561.43	2598.87
561.63	2795.48
561.82	2725.85
562.02	2834.39
562.22	2555.86
562.41	2531.29
562.61	2635.74
562.80	2621.40
563.00	3131.34
563.19	2686.94
563.39	2711.51
563.59	2815.96
563.78	2551.77
563.98	2414.56
564.17	2594.78
564.37	2486.23
564.56	2731.99
564.76	2475.99
564.96	2828.24
565.15	2748.37
565.35	3090.38
565.54	2611.16
565.74	2760.66
565.93	2803.67
566.13	2703.32
566.32	2734.04
566.52	2736.09
566.71	2648.02
566.91	2813.91
567.11	2801.62
567.30	2594.78
567.50	2818.00
567.69	2734.04
567.89	2697.17
568.08	2510.81
568.28	2758.61
568.47	2564.06
568.67	2725.85
568.86	2645.98
569.06	2895.83
569.25	2697.17
569.45	2535.39
569.64	2609.11
569.84	2731.99
570.04	2758.61
570.23	2568.15
570.43	2721.75
570.62	2789.33
570.82	2955.22
571.01	2529.24
571.21	2572.25
571.40	2588.63
571.60	2826.20
571.79	2830.29
571.99	2676.70
572.18	2592.73
572.38	2772.95
572.57	2713.56
572.77	2779.09
572.96	3180.50
573.16	2783.19
573.35	2635.74
573.55	2779.09
573.74	2809.81
573.94	2680.79
574.13	2641.88
574.33	2783.19
574.52	2895.83
574.71	2738.13
574.91	2775.00
575.10	2543.58
575.30	2678.74
575.49	2580.44
575.69	2529.24
575.88	2660.31
576.08	2639.83
576.27	2858.96
576.47	2627.54
576.66	2832.34
576.86	2904.02
577.05	2693.08
577.25	2662.36
577.44	2861.01
577.64	2639.83
577.83	2877.40
578.02	2641.88
578.22	2820.05
578.41	2961.36
578.61	2674.65
578.80	2523.10
579.00	2699.22
579.19	2740.18
579.39	2731.99
579.58	2801.62
579.77	2691.03
579.97	2928.60
580.16	2891.73
580.36	2781.14
580.55	2768.85
580.75	2801.62
580.94	2795.48
581.13	2887.64
581.33	2932.69
581.52	2781.14
581.72	2975.70
581.91	2861.01
582.11	2662.36
582.30	2844.63
582.49	2772.95
582.69	3002.32
582.88	2783.19
583.08	2719.70
583.27	2944.98
583.47	2750.42
583.66	2609.11
583.85	2609.11
584.05	2727.89
584.24	2854.87
584.44	2680.79
584.63	2908.12
584.82	2920.40
585.02	2818.00
585.21	2834.39
585.41	2846.68
585.60	2752.47
585.79	2942.93
585.99	2926.55
586.18	2775.00
586.37	3567.56
586.57	5398.45
586.76	15793.94
586.96	34823.66
587.15	47645.99
587.34	56616.10
587.54	60992.61
587.73	54439.11
587.93	38251.96
588.12	29189.70
588.31	23594.65
588.51	20893.38
588.70	19252.95
588.89	17043.20
589.09	14565.15
589.28	12586.82
589.47	9760.62
589.67	7608.20
589.86	5922.73
590.06	4476.86
590.25	3870.66
590.44	3465.16
590.64	3141.58
590.83	3039.19
591.02	3010.51
591.22	2725.85
591.41	2834.39
591.60	2740.18
591.80	3008.47
591.99	2504.67
592.18	2658.26
592.38	2922.45
592.57	2701.27
592.76	2727.89
592.96	2713.56
593.15	2662.36
593.34	2887.64
593.54	2734.04
593.73	2756.57
593.92	2930.64
594.12	2793.43
594.31	2727.89
594.50	2818.00
594.70	2783.19
594.89	3160.02
595.08	2545.63
595.28	2772.95
595.47	3184.59
595.66	2916.31
595.86	2615.26
596.05	2598.87
596.24	2656.22
596.43	2930.64
596.63	2877.40
596.82	2758.61
597.01	2836.44
597.21	3063.76
597.40	2645.98
597.59	2695.13
597.79	2709.46
597.98	2783.19
598.17	2682.84
598.36	2709.46
598.56	2906.07
598.75	2621.40
598.94	2729.94
599.14	2705.37
599.33	2598.87
599.52	2955.22
599.71	2760.66
599.91	2709.46
600.10	2826.20
600.29	2705.37
600.48	2703.32
600.68	2791.38
600.87	2764.76
601.06	2643.93
601.26	2711.51
601.45	2705.37
601.64	2682.84
601.83	2967.51
602.03	2582.49
602.22	2500.57
602.41	2908.12
602.60	3094.48
602.80	2750.42
602.99	2727.89
603.18	2697.17
603.37	2772.95
603.57	2631.64
603.76	2748.37
603.95	3006.42
604.14	2699.22
604.34	2549.72
604.53	2625.50
604.72	2717.65
604.91	2840.53
605.10	2654.17
605.30	2586.58
605.49	3071.95
605.68	2756.57
605.87	2688.98
606.07	2635.74
606.26	2729.94
606.45	2826.20
606.64	2684.89
606.84	2645.98
607.03	2740.18
607.22	2830.29
607.41	2713.56
607.60	2607.06
607.80	2861.01
607.99	2715.61
608.18	2785.24
608.37	2664.41
608.56	2676.70
608.76	2879.44
608.95	2772.95
609.14	2770.90
609.33	2918.36
609.52	2861.01
609.72	2793.43
609.91	2789.33
610.10	2785.24
610.29	2936.79
610.48	2772.95
610.68	2731.99
610.87	2797.53
611.06	2885.59
611.25	2678.74
611.44	2850.77
611.63	2592.73
611.83	2949.08
612.02	2506.71
612.21	2754.52
612.40	2475.99
612.59	2553.82
612.79	2549.72
612.98	2658.26
613.17	2879.44
613.36	2648.02
613.55	2731.99
613.74	2664.41
613.93	2770.90
614.13	2848.72
614.32	2881.49
614.51	2799.57
614.70	2783.19
614.89	2662.36
615.08	2793.43
615.28	3194.83
615.47	2600.92
615.66	2793.43
615.85	2717.65
616.04	2781.14
616.23	2807.77
616.42	2742.23
616.62	2670.55
616.81	2691.03
617.00	2797.53
617.19	2869.20
617.38	2676.70
617.57	2711.51
617.76	2830.29
617.95	2904.02
618.15	2717.65
618.34	2836.44
618.53	2605.02
618.72	2959.31
618.91	2781.14
619.10	2826.20
619.29	2680.79
619.48	2693.08
619.68	2623.45
619.87	2635.74
620.06	2535.39
620.25	2756.57
620.44	2613.21
620.63	2670.55
620.82	2729.94
621.01	2783.19
621.20	2717.65
621.39	2723.80
621.59	2801.62
621.78	2717.65
621.97	2736.09
622.16	2752.47
622.35	2834.39
622.54	2848.72
622.73	2711.51
622.92	2416.60
623.11	2867.16
623.30	2607.06
623.49	2777.05
623.68	2541.53
623.88	2973.65
624.07	2715.61
624.26	2609.11
624.45	2691.03
624.64	2736.09
624.83	2758.61
625.02	2662.36
625.21	2695.13
625.40	2815.96
625.59	2922.45
625.78	2674.65
625.97	2856.92
626.16	2879.44
626.35	2885.59
626.54	2707.41
626.74	2822.10
626.93	2682.84
627.12	2822.10
627.31	2846.68
627.50	2713.56
627.69	2854.87
627.88	2596.82
628.07	2617.30
628.26	2498.52
628.45	2641.88
628.64	2607.06
628.83	2738.13
629.02	2562.01
629.21	2887.64
629.40	2772.95
629.59	2572.25
629.78	2615.26
629.97	2682.84
630.16	2719.70
630.35	2637.78
630.54	2701.27
630.73	2607.06
630.92	2693.08
631.11	2568.15
631.30	2594.78
631.49	2869.20
631.68	2701.27
631.87	2656.22
632.06	2525.15
632.25	3012.56
632.44	2695.13
632.63	2709.46
632.82	2676.70
633.01	2637.78
633.20	2713.56
633.39	2605.02
633.58	2596.82
633.77	2861.01
633.96	2842.58
634.15	2768.85
634.34	2731.99
634.53	2723.80
634.72	2627.54
634.91	2471.90
635.10	2691.03
635.29	2865.11
635.48	2658.26
635.67	2559.96
635.86	2465.75
636.05	3053.52
636.24	2654.17
636.43	2672.60
636.62	2785.24
636.81	2355.16
637.00	2768.85
637.19	2697.17
637.38	2652.12
637.57	2731.99
637.76	2750.42
637.95	2854.87
638.14	2627.54
638.33	2709.46
638.52	2721.75
638.71	2500.57
638.89	2514.91
639.08	3084.24
639.27	2916.31
639.46	2850.77
639.65	3129.30
639.84	3188.69
640.03	3276.75
640.22	3211.22
640.41	3053.52
640.60	2809.81
640.79	2906.07
640.98	2797.53
641.17	2957.27
641.36	2895.83
641.55	2940.88
641.74	2535.39
641.92	2658.26
642.11	2654.17
642.30	2668.50
642.49	2611.16
642.68	2607.06
642.87	2785.24
643.06	2731.99
643.25	2637.78
643.44	2484.19
643.63	2746.33
643.82	2830.29
644.00	2514.91
644.19	2654.17
644.38	2648.02
644.57	2785.24
644.76	2662.36
644.95	2731.99
645.14	2871.25
645.33	2670.55
645.52	2727.89
645.71	2566.10
645.89	2576.34
646.08	2658.26
646.27	2613.21
646.46	2918.36
646.65	2566.10
646.84	2711.51
647.03	2541.53
647.22	2758.61
647.40	2756.57
647.59	2772.95
647.78	2430.94
647.97	2586.58
648.16	2600.92
648.35	2908.12
648.54	2846.68
648.73	2688.98
648.91	2854.87
649.10	2740.18
649.29	2662.36
649.48	2637.78
649.67	2836.44
649.86	2809.81
650.05	2684.89
650.23	2916.31
650.42	2637.78
650.61	2959.31
650.80	2834.39
650.99	2912.21
651.18	2965.46
651.36	2852.82
651.55	2635.74
651.74	2752.47
651.93	2736.09
652.12	2754.52
652.31	2598.87
652.49	2715.61
652.68	2723.80
652.87	2918.36
653.06	2717.65
653.25	2936.79
653.44	2758.61
653.62	2963.41
653.81	2613.21
654.00	2643.93
654.19	2807.77
654.38	3018.71
654.56	2682.84
654.75	2652.12
654.94	2854.87
655.13	2719.70
655.32	2736.09
655.51	2772.95
655.69	2627.54
655.88	2842.58
656.07	2574.30
656.26	2736.09
656.45	2547.67
656.63	2688.98
656.82	2670.55
657.01	2873.30
657.20	2701.27
657.38	2889.68
657.57	2678.74
657.76	2582.49
657.95	2803.67
658.14	2707.41
658.32	2670.55
658.51	2506.71
658.70	2693.08
658.89	2797.53
659.08	2662.36
659.26	2801.62
659.45	2590.68
659.64	2799.57
659.83	2662.36
660.01	3004.37
660.20	2797.53
660.39	2865.11
660.58	2383.84
660.76	2727.89
660.95	2510.81
661.14	2658.26
661.33	2531.29
661.51	2672.60
661.70	2631.64
661.89	2697.17
662.08	2645.98
662.26	2514.91
662.45	2598.87
662.64	2920.40
662.83	2750.42
663.01	2559.96
663.20	2590.68
663.39	2871.25
663.58	2670.55
663.76	2574.30
663.95	2760.66
664.14	2611.16
664.32	2592.73
664.51	2525.15
664.70	2502.62
664.89	2791.38
665.07	2475.99
665.26	2791.38
665.45	2553.82
665.64	2768.85
665.82	2627.54
666.01	2803.67
666.20	2439.13
666.38	2838.48
666.57	2836.44
666.76	4220.86
666.95	9869.16
667.13	17237.75
667.32	20899.52
667.51	23789.20
667.69	24966.79
667.88	21427.90
668.07	15183.64
668.25	12805.95
668.44	10973.02
668.63	9428.85
668.81	8357.76
669.00	7188.37
669.19	6567.84
669.38	5732.26
669.56	4855.73
669.75	4317.12
669.94	3762.12
670.12	3127.25
670.31	2985.94
670.50	2992.08
670.68	2916.31
670.87	2899.92
671.06	2676.70
671.24	2734.04
671.43	2973.65
671.62	2770.90
671.80	2627.54
671.99	2701.27
672.18	2738.13
672.36	2846.68
672.55	2664.41
672.74	2588.63
672.92	2723.80
673.11	2818.00
673.29	2533.34
673.48	2791.38
673.67	2516.95
673.85	2932.69
674.04	2545.63
674.23	2768.85
674.41	3006.42
674.60	2555.86
674.79	2463.71
674.97	2584.54
675.16	2830.29
675.34	2826.20
675.53	2568.15
675.72	2742.23
675.90	2961.36
676.09	2635.74
676.28	2729.94
676.46	2475.99
676.65	2885.59
676.83	2553.82
677.02	2645.98
677.21	2764.76
677.39	2754.52
677.58	2662.36
677.77	2643.93
677.95	2637.78
678.14	2643.93
678.32	2666.46
678.51	2615.26
678.70	2904.02
678.88	2711.51
679.07	2772.95
679.25	2697.17
679.44	2682.84
679.63	2547.67
679.81	2775.00
680.00	2852.82
680.18	2779.09
680.37	2963.41
680.55	2750.42
680.74	2473.95
680.93	2465.75
681.11	2791.38
681.30	2717.65
681.48	2686.94
681.67	2641.88
681.85	2734.04
682.04	2596.82
682.23	2842.58
682.41	2635.74
682.60	2652.12
682.78	2695.13
682.97	2570.20
683.15	2715.61
683.34	2719.70
683.53	2947.03
683.71	2512.86
683.90	2838.48
684.08	3047.38
684.27	2641.88
684.45	2754.52
684.64	2777.05
684.82	2662.36
685.01	2811.86
685.19	2715.61
685.38	2908.12
685.57	2740.18
685.75	2529.24
685.94	2564.06
686.12	2545.63
686.31	2643.93
686.49	3020.75
686.68	2467.80
686.86	2707.41
687.05	2637.78
687.23	3008.47
687.42	2582.49
687.60	2525.15
687.79	2828.24
687.97	2877.40
688.16	2797.53
688.34	2719.70
688.53	2471.90
688.71	2742.23
688.90	2901.97
689.08	2633.69
689.27	2432.99
689.45	2854.87
689.64	2768.85
689.82	2762.71
690.01	2815.96
690.19	2674.65
690.38	2658.26
690.56	2832.34
690.75	2564.06
690.93	2641.88
691.12	2645.98
691.30	2699.22
691.49	2639.83
691.67	2719.70
691.86	3026.90
692.04	2611.16
692.23	2695.13
692.41	2766.81
692.60	3012.56
692.78	2875.35
692.97	2797.53
693.15	2744.28
693.34	2889.68
693.52	2854.87
693.71	2711.51
693.89	2674.65
694.08	2527.19
694.26	2756.57
694.44	2840.53
694.63	2768.85
694.81	2594.78
695.00	2600.92
695.18	2865.11
695.37	3100.62
695.55	2686.94
695.74	2615.26
695.92	2662.36
696.10	2928.60
696.29	2523.10
696.47	2625.50
696.66	2514.91
696.84	2684.89
697.03	2727.89
697.21	2918.36
697.40	4087.75
697.58	2885.59
697.76	2613.21
697.95	2580.44
698.13	2559.96
698.32	2576.34
698.50	2734.04
698.68	2711.51
698.87	2785.24
699.05	2936.79
699.24	2633.69
699.42	2574.30
699.61	2815.96
699.79	2752.47
699.97	2641.88
700.16	2539.48
700.34	2521.05
700.53	2717.65
700.71	2818.00
700.89	2654.17
701.08	2662.36
701.26	2713.56
701.45	3143.63
701.63	2605.02
701.81	2635.74
702.00	2670.55
702.18	2688.98
702.37	2664.41
702.55	2987.99
702.73	2820.05
702.92	2691.03
703.10	2985.94
703.28	2873.30
703.47	2553.82
703.65	2920.40
703.84	2840.53
704.02	2686.94
704.20	2953.17
704.39	2611.16
704.57	2562.01
704.75	2852.82
704.94	2828.24
705.12	2760.66
705.30	3108.82
705.49	5834.66
705.67	11831.12
705.86	17762.03
706.04	20070.09
706.22	22609.58
706.41	22412.97
706.59	17753.84
706.77	13264.69
706.96	11509.58
707.14	10481.50
707.32	8812.41
707.51	8054.66
707.69	6393.76
707.87	5250.99
708.06	4560.83
708.24	3844.04
708.42	3432.40
708.61	3477.45
708.79	2740.18
708.97	2815.96
709.16	2807.77
709.34	2695.13
709.52	2621.40
709.71	2670.55
709.89	2754.52
710.07	2594.78
710.26	2605.02
710.44	2609.11
710.62	2861.01
710.80	2699.22
710.99	2752.47
711.17	2818.00
711.35	2635.74
711.54	2662.36
711.72	2844.63
711.90	2693.08
712.09	2709.46
712.27	2602.97
712.45	2783.19
712.63	2643.93
712.82	2734.04
713.00	2736.09
713.18	2691.03
713.37	2820.05
713.55	2799.57
713.73	2795.48
713.91	2772.95
714.10	2641.88
714.28	2678.74
714.46	2750.42
714.65	2734.04
714.83	2664.41
715.01	2719.70
715.19	2641.88
715.38	2578.39
715.56	2830.29
715.74	2641.88
715.92	2605.02
716.11	2846.68
716.29	2512.86
716.47	2609.11
716.65	2662.36
716.84	2576.34
717.02	2801.62
717.20	2537.43
717.38	2617.30
717.57	2811.86
717.75	2713.56
717.93	2686.94
718.11	2803.67
718.30	2473.95
718.48	2703.32
718.66	2906.07
718.84	2848.72
719.03	2658.26
719.21	2533.34
719.39	2887.64
719.57	2818.00
719.75	2805.72
719.94	2631.64
720.12	2738.13
720.30	2783.19
720.48	2834.39
720.67	2625.50
720.85	2609.11
721.03	2650.07
721.21	2584.54
721.39	2777.05
721.58	2793.43
721.76	2678.74
721.94	2688.98
722.12	2742.23
722.30	3006.42
722.49	2656.22
722.67	2645.98
722.85	2736.09
723.03	2574.30
723.21	2559.96
723.40	2713.56
723.58	2754.52
723.76	2760.66
723.94	2832.34
724.12	2721.75
724.30	2934.74
724.49	2869.20
724.67	2584.54
724.85	2789.33
725.03	2496.47
725.21	2840.53
725.40	2949.08
725.58	2578.39
725.76	2820.05
725.94	2805.72
726.12	2605.02
726.30	2670.55
726.49	2664.41
726.67	2662.36
726.85	2840.53
727.03	3110.86
727.21	4020.16
727.39	5085.11
727.57	5595.05
727.76	5838.76
727.94	6213.54
728.12	5455.79
728.30	4616.12
728.48	4274.11
728.66	4046.79
728.84	3790.79
729.03	3330.00
729.21	3190.74
729.39	2987.99
729.57	2873.30
729.75	2818.00
729.93	2785.24
730.11	2588.63
730.30	2734.04
730.48	2719.70
730.66	2797.53
730.84	2740.18
731.02	2717.65
731.20	2619.35
731.38	2727.89
731.56	2557.91
731.74	2576.34
731.93	2801.62
732.11	2613.21
732.29	2641.88
732.47	2858.96
732.65	2740.18
732.83	2865.11
733.01	2711.51
733.19	2580.44
733.37	2803.67
733.56	2752.47
733.74	2611.16
733.92	2983.89
734.10	2592.73
734.28	2777.05
734.46	2432.99
734.64	2674.65
734.82	2676.70
735.00	2674.65
735.18	2676.70
735.36	2709.46
735.54	2615.26
735.73	2664.41
735.91	2797.53
736.09	2944.98
736.27	2686.94
736.45	2686.94
736.63	2539.48
736.81	2727.89
736.99	2818.00
737.17	2861.01
737.35	2578.39
737.53	2734.04
737.71	2645.98
737.89	2813.91
738.07	2615.26
738.25	2543.58
738.43	2529.24
738.61	2572.25
738.80	2588.63
738.98	2576.34
739.16	2586.58
739.34	2631.64
739.52	2879.44
739.70	2703.32
739.88	2867.16
740.06	2754.52
740.24	2340.83
740.42	2926.55
740.60	2500.57
740.78	2582.49
740.96	2459.61
741.14	2559.96
741.32	2627.54
741.50	2478.04
741.68	2940.88
741.86	2914.26
742.04	2615.26
742.22	2553.82
742.40	2680.79
742.58	2807.77
742.76	2635.74
742.94	2807.77
743.12	2453.47
743.30	2664.41
743.48	2791.38
743.66	2613.21
743.84	2713.56
744.02	2693.08
744.20	2723.80
744.38	2502.62
744.56	2584.54
744.74	2977.75
744.92	2865.11
745.10	2891.73
745.28	2727.89
745.46	2981.84
745.64	2629.59
745.82	2777.05
746.00	2639.83
746.18	2727.89
746.36	2551.77
746.54	2654.17
746.72	2680.79
746.90	2539.48
747.08	2906.07
747.26	2678.74
747.44	2742.23
747.62	2811.86
747.80	2754.52
747.98	2738.13
748.15	2658.26
748.33	2957.27
748.51	2701.27
748.69	2731.99
748.87	2543.58
749.05	2662.36
749.23	2695.13
749.41	2670.55
749.59	2576.34
749.77	2824.15
749.95	2688.98
750.13	2662.36
750.31	2752.47
750.49	2703.32
750.67	2787.29
750.85	2805.72
751.03	2674.65
751.20	3020.75
751.38	2731.99
751.56	2680.79
751.74	2705.37
751.92	2717.65
752.10	2539.48
752.28	2854.87
752.46	2570.20
752.64	2654.17
752.82	2711.51
753.00	2830.29
753.18	2623.45
753.35	2648.02
753.53	2711.51
753.71	2633.69
753.89	2793.43
754.07	2768.85
754.25	2826.20
754.43	2684.89
754.61	2588.63
754.79	2805.72
754.97	2672.60
755.14	2910.16
755.32	2523.10
755.50	2672.60
755.68	2846.68
755.86	2490.33
756.04	2635.74
756.22	2410.46
756.40	2883.54
756.57	2904.02
756.75	2660.31
756.93	2861.01
757.11	2789.33
757.29	2529.24
757.47	2564.06
757.65	2482.14
757.82	2441.18
758.00	2576.34
758.18	2662.36
758.36	2619.35
758.54	2977.75
758.72	2471.90
758.90	2746.33
759.07	2795.48
759.25	2633.69
759.43	2697.17
759.61	2484.19
759.79	3841.99
759.97	2791.38
760.15	2686.94
760.32	2635.74
760.50	2727.89
760.68	2940.88
760.86	2611.16
761.04	2838.48
761.22	2811.86
761.39	2736.09
761.57	2777.05
761.75	2658.26
761.93	2750.42
762.11	2652.12
762.28	2701.27
762.46	2664.41
762.64	2848.72
762.82	2494.43
763.00	2654.17
763.18	2772.95
763.35	2584.54
763.53	2836.44
763.71	2662.36
763.89	2674.65
764.07	2756.57
764.24	2680.79
764.42	2807.77
764.60	2699.22
764.78	2703.32
764.96	2813.91
765.13	2838.48
765.31	2650.07
765.49	2783.19
765.67	2613.21
765.84	2568.15
766.02	2559.96
766.20	2486.23
766.38	2762.71
766.56	2738.13
766.73	2734.04
766.91	2672.60
767.09	2602.97
767.27	2699.22
767.44	2578.39
767.62	2895.83
767.80	2779.09
767.98	2643.93
768.15	2623.45
768.33	2908.12
768.51	2830.29
768.69	2795.48
768.87	2717.65
769.04	2740.18
769.22	3059.67
769.40	2809.81
769.58	2815.96
769.75	2731.99
769.93	2832.34
770.11	2654.17
770.28	2564.06
770.46	2723.80
770.64	2713.56
770.82	2731.99
770.99	2582.49
771.17	2811.86
771.35	2705.37
771.53	2668.50
771.70	2619.35
771.88	2789.33
772.06	2736.09
772.23	2584.54
772.41	2662.36
772.59	2633.69
772.77	2633.69
772.94	2662.36
773.12	2709.46
773.30	2592.73
773.47	2805.72
773.65	2551.77
773.83	2811.86
774.01	2727.89
774.18	2514.91
774.36	2625.50
774.54	2537.43
774.71	2775.00
774.89	2494.43
775.07	2545.63
775.24	2568.15
775.42	2672.60
775.60	2975.70
775.78	2539.48
775.95	2566.10
776.13	2535.39
776.31	2439.13
776.48	2652.12
776.66	2846.68
776.84	2668.50
777.01	2637.78
777.19	2592.73
777.37	2471.90
777.54	2768.85
777.72	3051.47
777.90	2766.81
778.07	2566.10
778.25	3209.17
778.43	2926.55
778.60	2572.25
778.78	2734.04
778.96	2906.07
779.13	2537.43
779.31	2754.52
779.49	2637.78
779.66	2736.09
779.84	2672.60
780.01	2615.26
780.19	2557.91
780.37	2924.50
780.54	2768.85
780.72	2582.49
780.90	2734.04
781.07	2772.95
781.25	2633.69
781.43	2838.48
781.60	2650.07
781.78	2793.43
781.95	2789.33
782.13	2580.44
782.31	2684.89
782.48	2508.76
782.66	2762.71
782.83	2858.96
783.01	2760.66
783.19	2805.72
783.36	2682.84
783.54	2545.63
783.72	2736.09
783.89	2678.74
784.07	2779.09
784.24	2729.94
784.42	2766.81
784.60	2752.47
784.77	2770.90
784.95	2471.90
785.12	2639.83
785.30	2731.99
785.47	2590.68
785.65	2521.05
785.83	2637.78
786.00	2613.21
786.18	2750.42
786.35	2545.63
786.53	2582.49
786.71	2897.88
786.88	2807.77
787.06	2750.42
787.23	2852.82
787.41	2506.71
787.58	2772.95
787.76	2551.77
787.94	2707.41
788.11	2758.61
788.29	2562.01
788.46	2596.82
788.64	2508.76
788.81	2697.17
788.99	2566.10
789.16	2500.57
789.34	2672.60
789.52	2637.78
789.69	2619.35
789.87	2412.51
790.04	2568.15
790.22	2680.79
790.39	3067.86
790.57	2514.91
790.74	2473.95
790.92	2918.36
791.09	2453.47
791.27	2717.65
791.44	2787.29
791.62	2656.22
791.79	2799.57
791.97	2803.67
792.15	3067.86
792.32	2777.05
792.50	2746.33
792.67	2828.24
792.85	2887.64
793.02	2736.09
793.20	2602.97
793.37	2523.10
793.55	2590.68
793.72	2580.44
793.90	2787.29
794.07	2621.40
794.25	2555.86
794.42	2697.17
794.60	2674.65
794.77	2670.55
794.95	2795.48
795.12	2793.43
795.30	2629.59
795.47	2465.75
795.65	2928.60
795.82	2766.81
796.00	2580.44
796.17	2660.31
796.34	2582.49
796.52	2707.41
796.69	2824.15
796.87	2752.47
797.04	2705.37
797.22	2777.05
797.39	2666.46
797.57	2705.37
797.74	2664.41
797.92	2779.09
798.09	2666.46
798.27	2883.54
798.44	2666.46
798.62	2639.83
798.79	2791.38
798.96	2746.33
799.14	2654.17
799.31	3080.14
799.49	2654.17
799.66	2645.98
799.84	2717.65
800.01	2469.85
800.19	2742.23
800.36	2484.19
800.53	2641.88
800.71	2842.58
800.88	2936.79
801.06	2641.88
801.23	2539.48
801.41	2693.08
801.58	2609.11
801.75	2590.68
801.93	2736.09
802.10	2820.05
802.28	2703.32
802.45	2598.87
802.63	2705.37
802.80	2908.12
802.97	2635.74
803.15	2701.27
803.32	2621.40
803.50	2621.40
803.67	2605.02
803.84	2537.43
804.02	2703.32
804.19	2711.51
804.37	2432.99
804.54	2473.95
804.71	2641.88
804.89	2701.27
805.06	2605.02
805.24	2598.87
805.41	2488.28
805.58	2615.26
805.76	3065.81
805.93	2666.46
806.10	2801.62
806.28	2844.63
806.45	2754.52
806.63	2713.56
806.80	2662.36
806.97	2813.91
807.15	2775.00
807.32	2738.13
807.49	2645.98
807.67	2535.39
807.84	2740.18
808.01	2516.95
808.19	2918.36
808.36	3041.23
808.54	2547.67
808.71	2580.44
808.88	2670.55
809.06	2846.68
809.23	2856.92
809.40	2580.44
809.58	2672.60
809.75	2734.04
809.92	2609.11
810.10	2957.27
810.27	2691.03
810.44	2750.42
810.62	2797.53
810.79	2752.47
810.96	2586.58
811.14	2582.49
811.31	2797.53
811.48	2711.51
811.66	2592.73
811.83	2887.64
812.00	2738.13
812.18	2723.80
812.35	2975.70
812.52	2641.88
812.69	2676.70
812.87	2545.63
813.04	2545.63
813.21	2633.69
813.39	2654.17
813.56	2547.67
813.73	2861.01
813.91	2504.67
814.08	2662.36
814.25	2645.98
814.42	2496.47
814.60	2725.85
814.77	2699.22
814.94	2627.54
815.12	2629.59
815.29	2916.31
815.46	2635.74
815.63	2623.45
815.81	2623.45
815.98	2652.12
816.15	2670.55
816.33	2734.04
816.50	2641.88
816.67	2676.70
816.84	2658.26
817.02	2490.33
817.19	2627.54
817.36	2717.65
817.53	2805.72
817.71	2559.96
817.88	2693.08
818.05	2596.82
818.22	2605.02
818.40	2838.48
818.57	2658.26
818.74	2822.10
818.91	2686.94
819.09	2736.09
819.26	2715.61
819.43	2629.59
819.60	2555.86
819.78	2729.94
819.95	2785.24
820.12	2543.58
820.29	2916.31
820.47	2744.28
820.64	2623.45
820.81	2559.96
820.98	2584.54
821.15	2660.31
821.33	2746.33
821.50	2463.71
821.67	2758.61
821.84	2623.45
822.02	2727.89
822.19	2920.40
822.36	2598.87
822.53	2602.97
822.70	2516.95
822.88	2611.16
823.05	2854.87
823.22	2717.65
823.39	2766.81
823.56	2738.13
823.74	2920.40
823.91	2521.05
824.08	2596.82
824.25	2545.63
824.42	2881.49
824.60	2547.67
824.77	2660.31
824.94	2625.50
825.11	2775.00
825.28	2426.84
825.45	2768.85
825.63	2738.13
825.80	2553.82
825.97	2701.27
826.14	2633.69
826.31	2484.19
826.48	2752.47
826.66	2547.67
826.83	2629.59
827.00	2582.49
827.17	2580.44
827.34	2688.98
827.51	2605.02
827.69	2742.23
827.86	2510.81
828.03	2645.98
828.20	2654.17
828.37	2635.74
828.54	2775.00
828.71	2531.29
828.89	2803.67
829.06	2748.37
829.23	2871.25
829.40	2557.91
829.57	2578.39
829.74	2752.47
829.91	2660.31
830.09	2641.88
830.26	2758.61
830.43	2940.88
830.60	2615.26
830.77	2746.33
830.94	2809.81
831.11	2834.39
831.28	2617.30
831.46	2801.62
831.63	2621.40
831.80	2836.44
831.97	2564.06
832.14	2695.13
832.31	2701.27
832.48	2750.42
832.65	2744.28
832.82	2678.74
832.99	2768.85
833.17	2545.63
833.34	2947.03
833.51	2648.02
833.68	2469.85
833.85	2834.39
834.02	2617.30
834.19	2619.35
834.36	2570.20
834.53	2746.33
834.70	2858.96
834.87	2693.08
835.04	2523.10
835.22	2572.25
835.39	2557.91
835.56	2555.86
835.73	2562.01
835.90	2791.38
836.07	2594.78
836.24	2723.80
836.41	2504.67
836.58	2588.63
836.75	2797.53
836.92	2631.64
837.09	2432.99
837.26	2822.10
837.43	2736.09
837.60	2600.92
837.77	2553.82
837.94	2775.00
838.12	2748.37
838.29	2537.43
838.46	2451.42
838.63	2596.82
838.80	2930.64
838.97	2623.45
839.14	2537.43
839.31	2742.23
839.48	2973.65
839.65	2605.02
839.82	2680.79
839.99	2725.85
840.16	2707.41
840.33	2590.68
840.50	2576.34
840.67	2627.54
840.84	2439.13
841.01	2453.47
841.18	2539.48
841.35	2686.94
841.52	2797.53
841.69	2846.68
841.86	2600.92
842.03	2754.52
842.20	2848.72
842.37	2480.09
842.54	2633.69
842.71	2787.29
842.88	2531.29
843.05	2570.20
843.22	2531.29
843.39	2762.71
843.56	2568.15
843.73	2435.03
843.90	2734.04
844.07	2682.84
844.24	2787.29
844.41	2594.78
844.58	2666.46
844.75	2695.13
844.92	2813.91
845.09	2586.58
845.26	2549.72
845.43	2840.53
845.60	2594.78
845.77	2662.36
845.94	2656.22
846.10	2848.72
846.27	2521.05
846.44	2463.71
846.61	2441.18
846.78	2772.95
846.95	2869.20
847.12	2490.33
847.29	2703.32
847.46	2613.21
847.63	2795.48
847.80	2521.05
847.97	2633.69
848.14	3092.43
848.31	2686.94
848.48	2453.47
848.65	2562.01
848.82	2645.98
848.98	3069.91
849.15	2758.61
849.32	2721.75
849.49	2867.16
849.66	2670.55
849.83	2541.53
850.00	2455.51
850.17	2852.82
850.34	2664.41
850.51	2488.28
850.68	2596.82
850.85	3012.56
851.01	2658.26
851.18	2635.74
851.35	2531.29
851.52	2791.38
851.69	2971.60
851.86	2457.56
852.03	2492.38
852.20	2826.20
852.37	2650.07
852.53	2473.95
852.70	2537.43
852.87	2725.85
853.04	2801.62
853.21	2586.58
853.38	2791.38
853.55	2856.92
853.72	2881.49
853.89	2461.66
854.05	2469.85
854.22	2666.46
854.39	2709.46
854.56	2543.58
854.73	2711.51
854.90	2676.70
855.07	2736.09
855.23	2443.23
855.40	2484.19
855.57	2609.11
855.74	2412.51
855.91	2781.14
856.08	2396.12
856.25	2439.13
856.41	2602.97
856.58	2570.20
856.75	2605.02
856.92	2586.58
857.09	2836.44
857.26	2492.38
857.42	2600.92
857.59	2867.16
857.76	2586.58
857.93	2553.82
858.10	2648.02
858.27	2512.86
858.43	2705.37
858.60	2543.58
858.77	2392.03
858.94	2625.50
859.11	2791.38
859.27	2521.05
859.44	2478.04
859.61	2971.60
859.78	2711.51
859.95	2572.25
860.12	2488.28
860.28	3041.23
860.45	2998.23
860.62	2531.29
860.79	2615.26
860.95	2705.37
861.12	2572.25
861.29	2447.32
861.46	2482.14
861.63	2686.94
861.79	2748.37
861.96	2428.89
862.13	2559.96
862.30	2891.73
862.47	2596.82
862.63	2389.98
862.80	2658.26
862.97	2899.92
863.14	2758.61
863.30	2629.59
863.47	2549.72
863.64	2918.36
863.81	2772.95
863.97	2465.75
864.14	2605.02
864.31	2652.12
864.48	2723.80
864.65	2578.39
864.81	2588.63
864.98	2797.53
865.15	2865.11
865.32	2678.74
865.48	2664.41
865.65	2949.08
865.82	2686.94
865.98	2641.88
866.15	2633.69
866.32	2662.36
866.49	2643.93
866.65	2750.42
866.82	2510.81
866.99	2672.60
867.16	2633.69
867.32	2568.15
867.49	2508.76
867.66	2643.93
867.83	2627.54
867.99	2424.80
868.16	2551.77
868.33	2582.49
868.49	2764.76
868.66	2537.43
868.83	2619.35
868.99	2750.42
869.16	2711.51
869.33	2715.61
869.50	2621.40
869.66	2719.70
869.83	2660.31
870.00	2443.23
870.16	2738.13
870.33	2670.55
870.50	2828.24
870.66	2594.78
870.83	2588.63
871.00	2742.23
871.17	2852.82
871.33	2568.15
871.50	2506.71
871.67	2656.22
871.83	2605.02
872.00	2652.12
872.17	2547.67
872.33	2977.75
872.50	2895.83
872.67	2551.77
872.83	2527.19
873.00	2762.71
873.17	2676.70
873.33	2635.74
873.50	2559.96
873.67	2701.27
873.83	2576.34
874.00	2594.78
874.16	2729.94
874.33	2674.65
874.50	2572.25
874.66	2516.95
874.83	2600.92
875.00	2858.96
875.16	2944.98
875.33	2664.41
875.50	2355.16
875.66	2643.93
875.83	2729.94
875.99	2654.17
876.16	2576.34
876.33	2588.63
876.49	2678.74
876.66	2637.78
876.83	2611.16
876.99	2473.95
877.16	2707.41
877.32	2600.92
877.49	2535.39
877.66	2826.20
877.82	2904.02
877.99	2547.67
878.15	2752.47
878.32	2748.37
878.49	2680.79
878.65	2598.87
878.82	2748.37
878.98	2635.74
879.15	2904.02
879.32	2727.89
879.48	2682.84
879.65	2676.70
879.81	2721.75
879.98	2557.91
880.15	2551.77
880.31	2760.66
880.48	2533.34
880.64	2629.59
880.81	2717.65
880.97	2936.79
881.14	2916.31
881.31	2535.39
881.47	2738.13
881.64	2648.02
881.80	2553.82
881.97	2652.12
882.13	2633.69
882.30	2572.25
882.47	2637.78
882.63	2609.11
882.80	2461.66
882.96	2625.50
883.13	2854.87
883.29	2617.30
883.46	2572.25
883.62	3084.24
883.79	2711.51
883.95	2703.32
884.12	2564.06
884.29	2813.91
884.45	2729.94
884.62	2605.02
884.78	2555.86
884.95	2959.31
885.11	2676.70
885.28	2645.98
885.44	2592.73
885.61	2760.66
885.77	2973.65
885.94	2734.04
886.10	2605.02
886.27	2695.13
886.43	2914.26
886.60	2748.37
886.76	2523.10
886.93	2617.30
887.09	2746.33
887.26	2506.71
887.42	2682.84
887.59	2818.00
887.75	3057.62
887.92	2703.32
888.08	2691.03
888.25	2940.88
888.41	2822.10
888.58	2686.94
888.74	2525.15
888.91	2615.26
>>>>>End Processed Spectral Data<<<<<
