SpectraSuite Data File
++++++++++++++++++++++++++++++++++++
Date: Thu May 05 16:20:51 CEST 2016
User: root
Dark Spectrum Present: No
Reference Spectrum Present: No
Number of Sampled Component Spectra: 1
Spectrometers: USB4C02835
Integration Time (usec): 100000 (USB4C02835)
Spectra Averaged: 1 (USB4C02835)
Boxcar Smoothing: 0 (USB4C02835)
Correct for Electrical Dark: No (USB4C02835)
Strobe/Lamp Enabled: No (USB4C02835)
Correct for Detector Non-linearity: No (USB4C02835)
Correct for Stray Light: No (USB4C02835)
Number of Pixels in Processed Spectrum: 3648
>>>>>Begin Processed Spectral Data<<<<<
177.47	2060.26
177.69	2060.26
177.91	2060.26
178.13	2107.36
178.36	2078.69
178.58	2639.83
178.80	2654.17
179.02	2586.58
179.24	2570.20
179.46	2469.85
179.68	2535.39
179.90	2623.45
180.13	2719.70
180.35	2400.22
180.57	2486.23
180.79	2865.11
181.01	2688.98
181.23	2531.29
181.45	2670.55
181.67	2736.09
181.90	2904.02
182.12	2555.86
182.34	2430.94
182.56	2914.26
182.78	2766.81
183.00	2537.43
183.22	2519.00
183.44	2478.04
183.66	3096.53
183.89	2688.98
184.11	2541.53
184.33	2785.24
184.55	2885.59
184.77	2523.10
184.99	2525.15
185.21	2697.17
185.43	3006.42
185.65	2432.99
185.87	2473.95
186.10	3065.81
186.32	2981.84
186.54	2592.73
186.76	2633.69
186.98	2858.96
187.20	2725.85
187.42	2484.19
187.64	2432.99
187.86	2744.28
188.08	2893.78
188.30	2453.47
188.52	2629.59
188.75	2893.78
188.97	2944.98
189.19	2541.53
189.41	2441.18
189.63	2908.12
189.85	2709.46
190.07	2422.75
190.29	2392.03
190.51	2832.34
190.73	2613.21
190.95	2682.84
191.17	2580.44
191.39	2502.62
191.61	2750.42
191.84	2582.49
192.06	2525.15
192.28	2484.19
192.50	3194.83
192.72	2596.82
192.94	2635.74
193.16	2914.26
193.38	2740.18
193.60	2443.23
193.82	2523.10
194.04	2815.96
194.26	2836.44
194.48	2439.13
194.70	2574.30
194.92	2740.18
195.14	2758.61
195.36	2527.19
195.58	2588.63
195.80	2682.84
196.02	2639.83
196.24	2465.75
196.46	2598.87
196.69	2654.17
196.91	3106.77
197.13	2519.00
197.35	2564.06
197.57	3020.75
197.79	2813.91
198.01	2553.82
198.23	2547.67
198.45	2846.68
198.67	2592.73
198.89	2404.32
199.11	2645.98
199.33	2588.63
199.55	2398.17
199.77	2437.08
199.99	2607.06
200.21	2654.17
200.43	2818.00
200.65	2361.31
200.87	2359.26
201.09	2662.36
201.31	2725.85
201.53	2572.25
201.75	2588.63
201.97	2842.58
202.19	2695.13
202.41	2570.20
202.63	2580.44
202.85	2785.24
203.07	2725.85
203.29	2516.95
203.51	2383.84
203.73	2586.58
203.95	3133.39
204.17	2533.34
204.39	2621.40
204.61	2697.17
204.83	2717.65
205.05	2637.78
205.27	2496.47
205.49	2981.84
205.71	2699.22
205.93	2414.56
206.15	2463.71
206.37	2734.04
206.59	2701.27
206.81	2430.94
207.03	2471.90
207.25	2609.11
207.47	2731.99
207.69	2531.29
207.91	2736.09
208.13	2949.08
208.34	2672.60
208.56	2490.33
208.78	2537.43
209.00	2654.17
209.22	2701.27
209.44	2521.05
209.66	2500.57
209.88	2766.81
210.10	2633.69
210.32	2516.95
210.54	2715.61
210.76	2758.61
210.98	2834.39
211.20	2363.36
211.42	2602.97
211.64	2869.20
211.86	2842.58
212.08	2539.48
212.30	2465.75
212.52	2748.37
212.74	2738.13
212.96	2568.15
213.17	2598.87
213.39	2836.44
213.61	2938.84
213.83	2602.97
214.05	2367.45
214.27	2830.29
214.49	2549.72
214.71	2471.90
214.93	2598.87
215.15	2711.51
215.37	2807.77
215.59	2439.13
215.81	2578.39
216.03	2865.11
216.24	2672.60
216.46	2506.71
216.68	2592.73
216.90	2942.93
217.12	2865.11
217.34	2459.61
217.56	2674.65
217.78	2934.74
218.00	2799.57
218.22	2570.20
218.44	2619.35
218.66	2715.61
218.87	2932.69
219.09	2539.48
219.31	2428.89
219.53	2766.81
219.75	2688.98
219.97	2490.33
220.19	2562.01
220.41	2645.98
220.63	2981.84
220.85	2539.48
221.06	2588.63
221.28	2867.16
221.50	2793.43
221.72	2494.43
221.94	2512.86
222.16	2742.23
222.38	2752.47
222.60	2527.19
222.82	2541.53
223.03	2842.58
223.25	2490.33
223.47	2605.02
223.69	2674.65
223.91	2838.48
224.13	2713.56
224.35	2367.45
224.57	2707.41
224.78	2758.61
225.00	2559.96
225.22	2607.06
225.44	2449.37
225.66	2863.06
225.88	2643.93
226.10	2600.92
226.32	2572.25
226.53	2975.70
226.75	2701.27
226.97	2566.10
227.19	2574.30
227.41	2568.15
227.63	2662.36
227.85	2332.64
228.06	2605.02
228.28	2768.85
228.50	2844.63
228.72	2447.32
228.94	2480.09
229.16	2547.67
229.37	2535.39
229.59	2502.62
229.81	2703.32
230.03	2643.93
230.25	2580.44
230.47	2355.16
230.69	2484.19
230.90	2830.29
231.12	2686.94
231.34	2564.06
231.56	2525.15
231.78	2615.26
232.00	2723.80
232.21	2523.10
232.43	2510.81
232.65	2422.75
232.87	2818.00
233.09	2408.41
233.30	2457.56
233.52	2809.81
233.74	2678.74
233.96	2414.56
234.18	2645.98
234.40	2625.50
234.61	3098.58
234.83	2418.65
235.05	2473.95
235.27	3190.74
235.49	2875.35
235.70	2498.52
235.92	2523.10
236.14	2777.05
236.36	3090.38
236.58	2379.74
236.79	2564.06
237.01	2772.95
237.23	2721.75
237.45	2631.64
237.67	2506.71
237.88	2772.95
238.10	2957.27
238.32	2430.94
238.54	2486.23
238.76	2725.85
238.97	2596.82
239.19	2432.99
239.41	2570.20
239.63	2848.72
239.85	2576.34
240.06	2512.86
240.28	2527.19
240.50	2877.40
240.72	2775.00
240.93	2512.86
241.15	2688.98
241.37	2723.80
241.59	2957.27
241.81	2539.48
242.02	2580.44
242.24	2779.09
242.46	2801.62
242.68	2404.32
242.89	2459.61
243.11	2912.21
243.33	2658.26
243.55	2475.99
243.76	2525.15
243.98	2682.84
244.20	2746.33
244.42	2557.91
244.64	2482.14
244.85	2543.58
245.07	2641.88
245.29	2555.86
245.51	2615.26
245.72	2740.18
245.94	2904.02
246.16	2529.24
246.38	2537.43
246.59	2613.21
246.81	2682.84
247.03	2502.62
247.24	2355.16
247.46	2666.46
247.68	2797.53
247.90	2371.55
248.11	2504.67
248.33	2775.00
248.55	2738.13
248.77	2615.26
248.98	2559.96
249.20	2951.12
249.42	2645.98
249.64	2557.91
249.85	2521.05
250.07	2619.35
250.29	2865.11
250.50	2615.26
250.72	2385.88
250.94	2762.71
251.16	3067.86
251.37	2555.86
251.59	2519.00
251.81	2863.06
252.02	2934.74
252.24	2473.95
252.46	2707.41
252.68	2582.49
252.89	2625.50
253.11	2392.03
253.33	2615.26
253.54	2906.07
253.76	2555.86
253.98	2508.76
254.20	2500.57
254.41	2523.10
254.63	2648.02
254.85	2355.16
255.06	2639.83
255.28	2697.17
255.50	2684.89
255.71	2521.05
255.93	2396.12
256.15	2686.94
256.36	2803.67
256.58	2365.40
256.80	2512.86
257.02	2674.65
257.23	2594.78
257.45	2504.67
257.67	2656.22
257.88	2625.50
258.10	2807.77
258.32	2529.24
258.53	2584.54
258.75	2914.26
258.97	2639.83
259.18	2457.56
259.40	2519.00
259.62	2944.98
259.83	2867.16
260.05	2574.30
260.27	3174.35
260.48	2885.59
260.70	2555.86
260.92	2484.19
261.13	2570.20
261.35	2658.26
261.57	2746.33
261.78	2494.43
262.00	2416.60
262.22	2840.53
262.43	2633.69
262.65	2512.86
262.86	2529.24
263.08	3067.86
263.30	2744.28
263.51	2383.84
263.73	2539.48
263.95	2998.23
264.16	2600.92
264.38	2430.94
264.60	2564.06
264.81	2746.33
265.03	2873.30
265.25	2705.37
265.46	2516.95
265.68	3024.85
265.89	2822.10
266.11	2383.84
266.33	2555.86
266.54	2854.87
266.76	2834.39
266.98	2617.30
267.19	2656.22
267.41	2889.68
267.62	2725.85
267.84	2324.44
268.06	2609.11
268.27	2758.61
268.49	2828.24
268.70	2643.93
268.92	2578.39
269.14	2551.77
269.35	2516.95
269.57	2549.72
269.79	2617.30
270.00	2582.49
270.22	2949.08
270.43	2400.22
270.65	2365.40
270.87	2856.92
271.08	2953.17
271.30	2652.12
271.51	2478.04
271.73	2844.63
271.95	2879.44
272.16	2482.14
272.38	2637.78
272.59	2672.60
272.81	2688.98
273.02	2557.91
273.24	2564.06
273.46	2883.54
273.67	2598.87
273.89	2482.14
274.10	2504.67
274.32	2906.07
274.54	2787.29
274.75	2535.39
274.97	2576.34
275.18	2809.81
275.40	2746.33
275.61	2562.01
275.83	2549.72
276.05	2572.25
276.26	2801.62
276.48	2615.26
276.69	2533.34
276.91	2607.06
277.12	2979.79
277.34	2580.44
277.55	2797.53
277.77	2682.84
277.99	2691.03
278.20	2584.54
278.42	2506.71
278.63	2562.01
278.85	2584.54
279.06	2578.39
279.28	2695.13
279.49	2924.50
279.71	2783.19
279.93	2684.89
280.14	2635.74
280.36	2637.78
280.57	2795.48
280.79	2652.12
281.00	2557.91
281.22	2635.74
281.43	2940.88
281.65	2486.23
281.86	2514.91
282.08	2809.81
282.29	2908.12
282.51	2498.52
282.73	2471.90
282.94	2480.09
283.16	2861.01
283.37	2844.63
283.59	2633.69
283.80	2777.05
284.02	2742.23
284.23	2699.22
284.45	2631.64
284.66	2682.84
284.88	2611.16
285.09	2551.77
285.31	2703.32
285.52	2775.00
285.74	2512.86
285.95	2764.76
286.17	2637.78
286.38	2928.60
286.60	2576.34
286.81	2539.48
287.03	2539.48
287.24	2707.41
287.46	2826.20
287.67	2666.46
287.89	2850.77
288.10	2666.46
288.32	2662.36
288.53	2789.33
288.75	2641.88
288.96	2815.96
289.18	2627.54
289.39	2588.63
289.61	2635.74
289.82	3033.04
290.04	3061.71
290.25	2486.23
290.47	2648.02
290.68	2680.79
290.90	2858.96
291.11	2441.18
291.33	2799.57
291.54	2613.21
291.76	2717.65
291.97	2635.74
292.18	2725.85
292.40	2686.94
292.61	2609.11
292.83	2865.11
293.04	2615.26
293.26	2758.61
293.47	2764.76
293.69	2506.71
293.90	2559.96
294.12	2932.69
294.33	2625.50
294.55	2637.78
294.76	2703.32
294.97	2848.72
295.19	2973.65
295.40	2555.86
295.62	2656.22
295.83	2842.58
296.05	2596.82
296.26	2799.57
296.48	2576.34
296.69	2666.46
296.90	2666.46
297.12	2703.32
297.33	2781.14
297.55	2711.51
297.76	2697.17
297.98	2664.41
298.19	2701.27
298.41	2711.51
298.62	2605.02
298.83	2760.66
299.05	2719.70
299.26	2703.32
299.48	2586.58
299.69	2713.56
299.90	2566.10
300.12	2617.30
300.33	2840.53
300.55	2643.93
300.76	2670.55
300.98	2611.16
301.19	2801.62
301.40	2629.59
301.62	2590.68
301.83	2746.33
302.05	2760.66
302.26	2516.95
302.47	2592.73
302.69	2596.82
302.90	2721.75
303.12	2400.22
303.33	2686.94
303.54	2957.27
303.76	2731.99
303.97	2596.82
304.19	2801.62
304.40	2574.30
304.61	2803.67
304.83	2711.51
305.04	2641.88
305.26	2830.29
305.47	2701.27
305.68	2645.98
305.90	2508.76
306.11	2836.44
306.33	2754.52
306.54	2562.01
306.75	2607.06
306.97	2562.01
307.18	2590.68
307.39	2543.58
307.61	2746.33
307.82	2602.97
308.04	2746.33
308.25	2529.24
308.46	2645.98
308.68	2713.56
308.89	2672.60
309.10	2678.74
309.32	2666.46
309.53	2645.98
309.74	2746.33
309.96	2588.63
310.17	2686.94
310.39	2674.65
310.60	2758.61
310.81	2652.12
311.03	2473.95
311.24	2781.14
311.45	2686.94
311.67	2805.72
311.88	2684.89
312.09	2664.41
312.31	2617.30
312.52	2529.24
312.73	2666.46
312.95	2572.25
313.16	2578.39
313.37	2807.77
313.59	2725.85
313.80	2805.72
314.01	2920.40
314.23	2562.01
314.44	2559.96
314.65	2490.33
314.87	2574.30
315.08	2564.06
315.29	2576.34
315.51	2592.73
315.72	2557.91
315.93	2766.81
316.15	2703.32
316.36	2670.55
316.57	2697.17
316.79	2699.22
317.00	2586.58
317.21	2785.24
317.43	2639.83
317.64	2684.89
317.85	2553.82
318.07	2566.10
318.28	2695.13
318.49	2660.31
318.70	2787.29
318.92	2791.38
319.13	2822.10
319.34	2768.85
319.56	2650.07
319.77	2846.68
319.98	2783.19
320.20	2858.96
320.41	2736.09
320.62	2820.05
320.83	2564.06
321.05	2801.62
321.26	2570.20
321.47	2701.27
321.69	2955.22
321.90	2574.30
322.11	2580.44
322.32	2803.67
322.54	3033.04
322.75	2633.69
322.96	3090.38
323.18	2467.80
323.39	2527.19
323.60	2514.91
323.81	2662.36
324.03	2652.12
324.24	2736.09
324.45	2703.32
324.66	2602.97
324.88	2803.67
325.09	2920.40
325.30	2605.02
325.52	2588.63
325.73	2772.95
325.94	2570.20
326.15	2512.86
326.37	2559.96
326.58	2904.02
326.79	2992.08
327.00	2400.22
327.22	2670.55
327.43	2756.57
327.64	2559.96
327.85	2670.55
328.07	2684.89
328.28	3004.37
328.49	2662.36
328.70	2574.30
328.92	2643.93
329.13	2654.17
329.34	2703.32
329.55	2834.39
329.76	2777.05
329.98	2738.13
330.19	2967.51
330.40	2670.55
330.61	2731.99
330.83	2869.20
331.04	2662.36
331.25	2639.83
331.46	2611.16
331.68	2566.10
331.89	2873.30
332.10	2623.45
332.31	2494.43
332.52	2682.84
332.74	2877.40
332.95	2392.03
333.16	2588.63
333.37	2809.81
333.58	2615.26
333.80	2605.02
334.01	2447.32
334.22	2654.17
334.43	2609.11
334.64	2578.39
334.86	2467.80
335.07	2576.34
335.28	2932.69
335.49	2514.91
335.70	2674.65
335.92	2885.59
336.13	3035.09
336.34	2736.09
336.55	2551.77
336.76	2764.76
336.98	2435.03
337.19	2598.87
337.40	2711.51
337.61	3067.86
337.82	2662.36
338.04	2611.16
338.25	2496.47
338.46	2703.32
338.67	2633.69
338.88	2574.30
339.09	2562.01
339.31	2650.07
339.52	2600.92
339.73	2535.39
339.94	2680.79
340.15	2758.61
340.36	2654.17
340.58	2625.50
340.79	2592.73
341.00	2793.43
341.21	2547.67
341.42	2820.05
341.63	2545.63
341.85	2846.68
342.06	2740.18
342.27	2539.48
342.48	2740.18
342.69	2566.10
342.90	2795.48
343.12	2906.07
343.33	2613.21
343.54	2768.85
343.75	2951.12
343.96	2574.30
344.17	2514.91
344.38	2727.89
344.60	2627.54
344.81	2553.82
345.02	2562.01
345.23	2906.07
345.44	3141.58
345.65	2699.22
345.86	2705.37
346.07	2752.47
346.29	2607.06
346.50	2641.88
346.71	2629.59
346.92	2938.84
347.13	3028.95
347.34	2658.26
347.55	2570.20
347.76	2826.20
347.98	2512.86
348.19	2592.73
348.40	2713.56
348.61	2582.49
348.82	2979.79
349.03	2691.03
349.24	2559.96
349.45	2867.16
349.66	2396.12
349.88	2572.25
350.09	2492.38
350.30	2996.18
350.51	2930.64
350.72	2785.24
350.93	2611.16
351.14	2701.27
351.35	2777.05
351.56	2627.54
351.77	2602.97
351.99	2820.05
352.20	2955.22
352.41	2785.24
352.62	2363.36
352.83	2611.16
353.04	2705.37
353.25	2580.44
353.46	2637.78
353.67	2854.87
353.88	2461.66
354.09	2641.88
354.30	2676.70
354.52	2805.72
354.73	2693.08
354.94	2545.63
355.15	2707.41
355.36	3045.33
355.57	2658.26
355.78	2527.19
355.99	2525.15
356.20	2629.59
356.41	2908.12
356.62	2768.85
356.83	2672.60
357.04	2871.25
357.25	2457.56
357.46	2635.74
357.68	2529.24
357.89	2648.02
358.10	2713.56
358.31	2629.59
358.52	2635.74
358.73	2611.16
358.94	2506.71
359.15	2623.45
359.36	2625.50
359.57	2752.47
359.78	2711.51
359.99	2748.37
360.20	2529.24
360.41	2758.61
360.62	2740.18
360.83	2670.55
361.04	2629.59
361.25	2803.67
361.46	2965.46
361.67	2721.75
361.88	2615.26
362.09	2893.78
362.30	2721.75
362.51	2615.26
362.72	2727.89
362.93	2809.81
363.14	2861.01
363.35	2711.51
363.56	2555.86
363.78	2838.48
363.99	2826.20
364.20	2596.82
364.41	2723.80
364.62	2967.51
364.83	2768.85
365.04	2635.74
365.25	2682.84
365.46	3112.91
365.67	2631.64
365.88	2705.37
366.09	2566.10
366.30	2758.61
366.51	2668.50
366.72	2547.67
366.93	2551.77
367.14	2748.37
367.35	2904.02
367.56	2613.21
367.77	2723.80
367.98	2775.00
368.18	2822.10
368.39	2719.70
368.60	2502.62
368.81	2867.16
369.02	2715.61
369.23	2615.26
369.44	2506.71
369.65	2633.69
369.86	2801.62
370.07	2670.55
370.28	2516.95
370.49	2711.51
370.70	2756.57
370.91	2525.15
371.12	2525.15
371.33	2920.40
371.54	2707.41
371.75	2768.85
371.96	2406.36
372.17	2744.28
372.38	2695.13
372.59	2717.65
372.80	2496.47
373.01	2670.55
373.22	2795.48
373.43	2654.17
373.64	2494.43
373.85	2928.60
374.06	2953.17
374.26	2705.37
374.47	2752.47
374.68	2969.55
374.89	2750.42
375.10	2625.50
375.31	2678.74
375.52	2719.70
375.73	2811.86
375.94	2533.34
376.15	2760.66
376.36	2633.69
376.57	2658.26
376.78	2594.78
376.99	2641.88
377.20	2924.50
377.40	2731.99
377.61	2832.34
377.82	2521.05
378.03	2893.78
378.24	2854.87
378.45	2723.80
378.66	2664.41
378.87	2443.23
379.08	2611.16
379.29	2564.06
379.50	2805.72
379.71	2736.09
379.91	2852.82
380.12	2607.06
380.33	2684.89
380.54	2711.51
380.75	2596.82
380.96	2596.82
381.17	2670.55
381.38	2756.57
381.59	2717.65
381.80	2625.50
382.00	2906.07
382.21	2775.00
382.42	2947.03
382.63	2922.45
382.84	2691.03
383.05	2787.29
383.26	2926.55
383.47	2713.56
383.68	2654.17
383.88	2836.44
384.09	2703.32
384.30	2840.53
384.51	2742.23
384.72	2725.85
384.93	2562.01
385.14	2623.45
385.35	2750.42
385.55	2553.82
385.76	2912.21
385.97	2611.16
386.18	2471.90
386.39	2555.86
386.60	2615.26
386.81	2623.45
387.02	2494.43
387.22	2529.24
387.43	2826.20
387.64	2693.08
387.85	2836.44
388.06	2852.82
388.27	3995.59
388.48	7585.68
388.68	10973.02
388.89	13500.21
389.10	14130.98
389.31	13844.27
389.52	11030.36
389.73	9398.13
389.93	8554.37
390.14	7851.91
390.35	7026.58
390.56	6356.90
390.77	5289.90
390.98	4102.08
391.18	3368.91
391.39	3137.49
391.60	2740.18
391.81	2846.68
392.02	2592.73
392.23	3074.00
392.43	2781.14
392.64	2756.57
392.85	2645.98
393.06	2906.07
393.27	2731.99
393.47	2611.16
393.68	2656.22
393.89	2676.70
394.10	2883.54
394.31	2619.35
394.52	2559.96
394.72	2643.93
394.93	2957.27
395.14	2600.92
395.35	2678.74
395.56	2609.11
395.76	2658.26
395.97	2658.26
396.18	2723.80
396.39	2768.85
396.60	3254.22
396.80	2957.27
397.01	2856.92
397.22	2887.64
397.43	2910.16
397.64	2652.12
397.84	2772.95
398.05	3055.57
398.26	2729.94
398.47	2699.22
398.67	2818.00
398.88	2750.42
399.09	2768.85
399.30	2623.45
399.51	2721.75
399.71	2564.06
399.92	2670.55
400.13	2662.36
400.34	2609.11
400.54	2717.65
400.75	2899.92
400.96	2602.97
401.17	2922.45
401.37	2830.29
401.58	2660.31
401.79	2650.07
402.00	2762.71
402.21	3047.38
402.41	2875.35
402.62	2871.25
402.83	2987.99
403.04	3096.53
403.24	3330.00
403.45	2682.84
403.66	2883.54
403.87	2916.31
404.07	2949.08
404.28	2916.31
404.49	2852.82
404.70	2809.81
404.90	2770.90
405.11	2535.39
405.32	2740.18
405.52	2605.02
405.73	2580.44
405.94	2527.19
406.15	2723.80
406.35	2768.85
406.56	2815.96
406.77	2725.85
406.98	2703.32
407.18	2572.25
407.39	2967.51
407.60	2639.83
407.80	2621.40
408.01	2643.93
408.22	2834.39
408.43	2600.92
408.63	2715.61
408.84	2852.82
409.05	2838.48
409.25	2557.91
409.46	2662.36
409.67	2660.31
409.88	2781.14
410.08	2680.79
410.29	2590.68
410.50	2852.82
410.70	2836.44
410.91	2549.72
411.12	2717.65
411.32	2682.84
411.53	2619.35
411.74	2672.60
411.95	2734.04
412.15	2756.57
412.36	2795.48
412.57	2725.85
412.77	2820.05
412.98	2742.23
413.19	2740.18
413.39	2621.40
413.60	2609.11
413.81	2838.48
414.01	2564.06
414.22	2711.51
414.43	2797.53
414.63	2654.17
414.84	2879.44
415.05	2727.89
415.25	2510.81
415.46	2861.01
415.67	2605.02
415.87	2637.78
416.08	2637.78
416.29	2703.32
416.49	2838.48
416.70	2609.11
416.91	2645.98
417.11	2695.13
417.32	2818.00
417.53	2688.98
417.73	2748.37
417.94	2764.76
418.15	2775.00
418.35	2676.70
418.56	2682.84
418.77	3078.10
418.97	2815.96
419.18	2686.94
419.38	2451.42
419.59	2740.18
419.80	2889.68
420.00	2656.22
420.21	2717.65
420.42	2838.48
420.62	2740.18
420.83	2621.40
421.04	2611.16
421.24	2731.99
421.45	2875.35
421.65	2738.13
421.86	2600.92
422.07	2895.83
422.27	2805.72
422.48	2645.98
422.69	2531.29
422.89	2658.26
423.10	2652.12
423.30	2578.39
423.51	2711.51
423.72	2787.29
423.92	2883.54
424.13	2494.43
424.33	2699.22
424.54	2955.22
424.75	2775.00
424.95	2822.10
425.16	2584.54
425.36	2758.61
425.57	2820.05
425.78	2793.43
425.98	2830.29
426.19	2709.46
426.39	2531.29
426.60	2772.95
426.81	2879.44
427.01	2768.85
427.22	2668.50
427.42	2494.43
427.63	2590.68
427.83	2834.39
428.04	2981.84
428.25	2695.13
428.45	2725.85
428.66	2875.35
428.86	2695.13
429.07	2629.59
429.28	2709.46
429.48	2629.59
429.69	2598.87
429.89	2740.18
430.10	2562.01
430.30	2820.05
430.51	2904.02
430.71	2633.69
430.92	2658.26
431.13	2635.74
431.33	2768.85
431.54	2744.28
431.74	2861.01
431.95	2992.08
432.15	2566.10
432.36	2621.40
432.56	2727.89
432.77	2963.41
432.98	2998.23
433.18	2723.80
433.39	2611.16
433.59	2660.31
433.80	3049.43
434.00	2850.77
434.21	2682.84
434.41	2564.06
434.62	3086.29
434.82	2539.48
435.03	2582.49
435.23	2695.13
435.44	2572.25
435.64	2578.39
435.85	2678.74
436.06	2897.88
436.26	2906.07
436.47	2631.64
436.67	2568.15
436.88	2662.36
437.08	2813.91
437.29	2828.24
437.49	2785.24
437.70	2863.06
437.90	2686.94
438.11	2877.40
438.31	2719.70
438.52	2852.82
438.72	2875.35
438.93	3055.57
439.13	2723.80
439.34	2858.96
439.54	2645.98
439.75	2797.53
439.95	2731.99
440.16	2674.65
440.36	2842.58
440.57	2709.46
440.77	2559.96
440.98	2686.94
441.18	2758.61
441.39	2605.02
441.59	2539.48
441.80	2940.88
442.00	2734.04
442.21	2781.14
442.41	2512.86
442.62	2889.68
442.82	2506.71
443.02	2592.73
443.23	2766.81
443.43	2650.07
443.64	2869.20
443.84	2547.67
444.05	2678.74
444.25	2779.09
444.46	2662.36
444.66	2672.60
444.87	2887.64
445.07	2523.10
445.28	2656.22
445.48	2828.24
445.69	2748.37
445.89	3082.19
446.09	2766.81
446.30	2934.74
446.50	3000.27
446.71	4573.11
446.91	5595.05
447.12	6592.41
447.32	6748.06
447.53	6485.92
447.73	5474.22
447.93	4845.49
448.14	4509.63
448.34	4528.06
448.55	3874.76
448.75	3817.41
448.96	3567.56
449.16	3332.05
449.36	3219.41
449.57	2936.79
449.77	2699.22
449.98	2717.65
450.18	2762.71
450.39	2770.90
450.59	2721.75
450.79	2711.51
451.00	2576.34
451.20	2699.22
451.41	2711.51
451.61	2867.16
451.81	2740.18
452.02	2609.11
452.22	2539.48
452.43	2666.46
452.63	2609.11
452.84	2627.54
453.04	2600.92
453.24	2734.04
453.45	2666.46
453.65	2611.16
453.86	2656.22
454.06	2824.15
454.26	2682.84
454.47	2525.15
454.67	2846.68
454.87	2836.44
455.08	2660.31
455.28	2777.05
455.49	2775.00
455.69	2592.73
455.89	3080.14
456.10	2666.46
456.30	2607.06
456.51	2844.63
456.71	2787.29
456.91	2756.57
457.12	2680.79
457.32	2742.23
457.52	2555.86
457.73	2725.85
457.93	2807.77
458.14	2625.50
458.34	2455.51
458.54	2691.03
458.75	2619.35
458.95	2914.26
459.15	2721.75
459.36	2670.55
459.56	2668.50
459.76	3104.72
459.97	2715.61
460.17	2719.70
460.37	2775.00
460.58	2719.70
460.78	2811.86
460.99	2662.36
461.19	2686.94
461.39	2711.51
461.60	2715.61
461.80	2699.22
462.00	2435.03
462.21	2660.31
462.41	2588.63
462.61	2562.01
462.82	2516.95
463.02	2777.05
463.22	2795.48
463.43	2678.74
463.63	2688.98
463.83	2908.12
464.04	2758.61
464.24	2699.22
464.44	2555.86
464.64	2758.61
464.85	2803.67
465.05	2785.24
465.25	2674.65
465.46	2643.93
465.66	2838.48
465.86	2813.91
466.07	2674.65
466.27	2701.27
466.47	2519.00
466.68	2506.71
466.88	2850.77
467.08	2852.82
467.29	2873.30
467.49	2629.59
467.69	2621.40
467.89	2848.72
468.10	2703.32
468.30	2731.99
468.50	2727.89
468.71	2947.03
468.91	2586.58
469.11	2850.77
469.31	2682.84
469.52	2662.36
469.72	3004.37
469.92	2906.07
470.13	2613.21
470.33	2674.65
470.53	2744.28
470.73	2996.18
470.94	3309.52
471.14	3428.30
471.34	3774.41
471.54	3633.10
471.75	3317.71
471.95	3104.72
472.15	3057.62
472.36	3086.29
472.56	3049.43
472.76	3196.88
472.96	2998.23
473.17	2881.49
473.37	2828.24
473.57	2709.46
473.77	2779.09
473.98	2668.50
474.18	2547.67
474.38	3147.73
474.58	2621.40
474.79	2570.20
474.99	2777.05
475.19	2861.01
475.39	2617.30
475.60	2715.61
475.80	2656.22
476.00	2750.42
476.20	2682.84
476.41	2650.07
476.61	2760.66
476.81	2922.45
477.01	2674.65
477.21	2904.02
477.42	2805.72
477.62	2570.20
477.82	2863.06
478.02	2629.59
478.23	2764.76
478.43	2600.92
478.63	2654.17
478.83	2688.98
479.03	2699.22
479.24	2959.31
479.44	3067.86
479.64	2615.26
479.84	2498.52
480.04	2588.63
480.25	2877.40
480.45	2547.67
480.65	2621.40
480.85	2920.40
481.06	2670.55
481.26	2779.09
481.46	2695.13
481.66	2734.04
481.86	2674.65
482.06	2815.96
482.27	2639.83
482.47	2684.89
482.67	2717.65
482.87	2611.16
483.07	2787.29
483.28	2666.46
483.48	2521.05
483.68	2629.59
483.88	2502.62
484.08	2494.43
484.29	2529.24
484.49	2648.02
484.69	2543.58
484.89	2947.03
485.09	2940.88
485.29	2742.23
485.50	2688.98
485.70	2662.36
485.90	2926.55
486.10	2775.00
486.30	2703.32
486.50	2908.12
486.71	2711.51
486.91	2723.80
487.11	2680.79
487.31	2508.76
487.51	2770.90
487.71	2607.06
487.91	2592.73
488.12	2625.50
488.32	2398.17
488.52	2637.78
488.72	2426.84
488.92	2678.74
489.12	2944.98
489.32	2809.81
489.53	2635.74
489.73	2611.16
489.93	2987.99
490.13	2590.68
490.33	2514.91
490.53	2686.94
490.73	2832.34
490.94	2488.28
491.14	2770.90
491.34	2756.57
491.54	2930.64
491.74	3473.36
491.94	4177.86
492.14	4548.54
492.34	4491.20
492.54	4026.31
492.75	3600.33
492.95	3577.80
493.15	3303.37
493.35	3293.13
493.55	3241.93
493.75	3178.45
493.95	3225.55
494.15	2924.50
494.35	2777.05
494.56	2766.81
494.76	2682.84
494.96	2738.13
495.16	2635.74
495.36	2775.00
495.56	2768.85
495.76	2684.89
495.96	2592.73
496.16	2623.45
496.36	2975.70
496.56	2576.34
496.77	2697.17
496.97	2670.55
497.17	2926.55
497.37	2500.57
497.57	2719.70
497.77	2801.62
497.97	2609.11
498.17	2684.89
498.37	2602.97
498.57	2867.16
498.77	2660.31
498.97	2734.04
499.17	2959.31
499.38	2684.89
499.58	2803.67
499.78	2818.00
499.98	2822.10
500.18	2684.89
500.38	2639.83
500.58	2805.72
500.78	3233.74
500.98	5324.72
501.18	7219.09
501.38	8644.48
501.58	9449.33
501.78	9248.63
501.98	7616.40
502.18	6506.40
502.38	5504.94
502.58	5410.73
502.78	4804.53
502.98	4548.54
503.18	4351.93
503.38	4003.78
503.59	3481.55
503.79	3473.36
503.99	3252.17
504.19	3157.97
504.39	3256.27
504.59	3172.30
504.79	3065.81
504.99	3117.01
505.19	2965.46
505.39	2883.54
505.59	3041.23
505.79	3047.38
505.99	2858.96
506.19	2633.69
506.39	2920.40
506.59	2645.98
506.79	2635.74
506.99	2850.77
507.19	2629.59
507.39	2777.05
507.59	2498.52
507.79	2637.78
507.99	2555.86
508.19	2721.75
508.39	2600.92
508.59	2625.50
508.79	2770.90
508.99	3026.90
509.19	2570.20
509.39	2674.65
509.59	2627.54
509.79	2621.40
509.99	2787.29
510.19	2764.76
510.39	2734.04
510.59	2781.14
510.79	2648.02
510.99	2531.29
511.19	2643.93
511.39	2949.08
511.59	2879.44
511.79	2799.57
511.99	2596.82
512.19	2932.69
512.38	2777.05
512.58	2621.40
512.78	2588.63
512.98	2899.92
513.18	2959.31
513.38	2531.29
513.58	2707.41
513.78	2639.83
513.98	2760.66
514.18	2637.78
514.38	2621.40
514.58	2750.42
514.78	2660.31
514.98	2514.91
515.18	2664.41
515.38	2521.05
515.58	2977.75
515.78	2625.50
515.98	2707.41
516.18	2777.05
516.38	2801.62
516.57	2541.53
516.77	2611.16
516.97	2818.00
517.17	2684.89
517.37	2480.09
517.57	2758.61
517.77	2768.85
517.97	2672.60
518.17	2701.27
518.37	2498.52
518.57	2594.78
518.77	2684.89
518.97	2670.55
519.16	2703.32
519.36	2836.44
519.56	2654.17
519.76	2602.97
519.96	2688.98
520.16	2908.12
520.36	2559.96
520.56	2850.77
520.76	2621.40
520.96	2688.98
521.16	2922.45
521.35	2889.68
521.55	2703.32
521.75	2768.85
521.95	2609.11
522.15	2531.29
522.35	2529.24
522.55	2691.03
522.75	2777.05
522.95	2510.81
523.14	2559.96
523.34	2824.15
523.54	2629.59
523.74	2758.61
523.94	2717.65
524.14	2496.47
524.34	2791.38
524.54	2848.72
524.73	2625.50
524.93	2904.02
525.13	2787.29
525.33	2559.96
525.53	2891.73
525.73	2904.02
525.93	2756.57
526.13	2605.02
526.32	2625.50
526.52	2879.44
526.72	2785.24
526.92	2670.55
527.12	2584.54
527.32	2523.10
527.52	2758.61
527.71	2684.89
527.91	2674.65
528.11	2637.78
528.31	2723.80
528.51	2596.82
528.71	2725.85
528.90	2736.09
529.10	2867.16
529.30	2772.95
529.50	2346.97
529.70	2738.13
529.90	2695.13
530.09	2678.74
530.29	2545.63
530.49	2613.21
530.69	3084.24
530.89	2717.65
531.09	2779.09
531.28	2693.08
531.48	2865.11
531.68	2660.31
531.88	2729.94
532.08	2842.58
532.28	2648.02
532.47	2770.90
532.67	2731.99
532.87	2824.15
533.07	2598.87
533.27	2678.74
533.46	2684.89
533.66	2748.37
533.86	2678.74
534.06	2648.02
534.26	2703.32
534.45	2672.60
534.65	2852.82
534.85	2678.74
535.05	2613.21
535.25	2834.39
535.44	2455.51
535.64	2758.61
535.84	2596.82
536.04	2660.31
536.24	2621.40
536.43	2680.79
536.63	2711.51
536.83	2711.51
537.03	2740.18
537.22	2473.95
537.42	2410.46
537.62	2815.96
537.82	2654.17
538.02	2846.68
538.21	2783.19
538.41	3145.68
538.61	2811.86
538.81	2686.94
539.00	2834.39
539.20	2478.04
539.40	2742.23
539.60	2682.84
539.79	2815.96
539.99	2607.06
540.19	2617.30
540.39	2631.64
540.58	2699.22
540.78	2846.68
540.98	2736.09
541.18	2789.33
541.37	2777.05
541.57	2752.47
541.77	2805.72
541.97	2521.05
542.16	2502.62
542.36	2711.51
542.56	2682.84
542.76	2834.39
542.95	2775.00
543.15	2785.24
543.35	2910.16
543.54	2641.88
543.74	2607.06
543.94	2918.36
544.14	2559.96
544.33	2770.90
544.53	2699.22
544.73	2648.02
544.93	2672.60
545.12	2555.86
545.32	2654.17
545.52	2621.40
545.71	2521.05
545.91	2619.35
546.11	2580.44
546.30	2588.63
546.50	2668.50
546.70	2729.94
546.90	2691.03
547.09	2467.80
547.29	2740.18
547.49	2754.52
547.68	2621.40
547.88	2633.69
548.08	2848.72
548.27	3061.71
548.47	2545.63
548.67	2658.26
548.87	2820.05
549.06	2648.02
549.26	2635.74
549.46	2770.90
549.65	2621.40
549.85	2650.07
550.05	2701.27
550.24	2519.00
550.44	2727.89
550.64	2705.37
550.83	2736.09
551.03	2926.55
551.23	2856.92
551.42	2715.61
551.62	2736.09
551.82	2777.05
552.01	2697.17
552.21	2828.24
552.41	2684.89
552.60	2987.99
552.80	2801.62
553.00	2602.97
553.19	2731.99
553.39	2924.50
553.59	2566.10
553.78	2748.37
553.98	2699.22
554.17	2529.24
554.37	2854.87
554.57	2725.85
554.76	2541.53
554.96	2641.88
555.16	2721.75
555.35	2758.61
555.55	2731.99
555.75	2850.77
555.94	2832.34
556.14	2463.71
556.33	2748.37
556.53	2707.41
556.73	2578.39
556.92	2744.28
557.12	2678.74
557.32	2940.88
557.51	2930.64
557.71	2758.61
557.90	2854.87
558.10	2867.16
558.30	2660.31
558.49	2623.45
558.69	2623.45
558.88	2748.37
559.08	2756.57
559.28	2629.59
559.47	2668.50
559.67	2824.15
559.86	2994.13
560.06	2725.85
560.26	2641.88
560.45	2820.05
560.65	2723.80
560.84	2869.20
561.04	2590.68
561.24	2856.92
561.43	2570.20
561.63	2869.20
561.82	2734.04
562.02	2861.01
562.22	2684.89
562.41	2588.63
562.61	2625.50
562.80	2609.11
563.00	3117.01
563.19	2723.80
563.39	2750.42
563.59	2881.49
563.78	2502.62
563.98	2447.32
564.17	2555.86
564.37	2473.95
564.56	2777.05
564.76	2594.78
564.96	2795.48
565.15	2813.91
565.35	3117.01
565.54	2682.84
565.74	2668.50
565.93	2858.96
566.13	2635.74
566.32	2727.89
566.52	2721.75
566.71	2756.57
566.91	2887.64
567.11	2752.47
567.30	2615.26
567.50	2820.05
567.69	2785.24
567.89	2670.55
568.08	2519.00
568.28	2836.44
568.47	2533.34
568.67	2711.51
568.86	2639.83
569.06	2793.43
569.25	2703.32
569.45	2580.44
569.64	2643.93
569.84	2672.60
570.04	2875.35
570.23	2617.30
570.43	2621.40
570.62	2764.76
570.82	2889.68
571.01	2439.13
571.21	2547.67
571.40	2598.87
571.60	2885.59
571.79	2760.66
571.99	2674.65
572.18	2586.58
572.38	2727.89
572.57	2613.21
572.77	2797.53
572.96	3143.63
573.16	2813.91
573.35	2682.84
573.55	2813.91
573.74	2922.45
573.94	2758.61
574.13	2633.69
574.33	2789.33
574.52	2904.02
574.71	2789.33
574.91	2693.08
575.10	2516.95
575.30	2660.31
575.49	2629.59
575.69	2551.77
575.88	2592.73
576.08	2711.51
576.27	2848.72
576.47	2602.97
576.66	2850.77
576.86	2975.70
577.05	2783.19
577.25	2719.70
577.44	2889.68
577.64	2588.63
577.83	2873.30
578.02	2666.46
578.22	2818.00
578.41	3016.66
578.61	2674.65
578.80	2480.09
579.00	2703.32
579.19	2752.47
579.39	2762.71
579.58	2770.90
579.77	2723.80
579.97	2981.84
580.16	2949.08
580.36	2828.24
580.55	2770.90
580.75	2803.67
580.94	2756.57
581.13	2795.48
581.33	2881.49
581.52	2752.47
581.72	3065.81
581.91	2783.19
582.11	2629.59
582.30	2809.81
582.49	2740.18
582.69	2908.12
582.88	2734.04
583.08	2869.20
583.27	2897.88
583.47	2768.85
583.66	2578.39
583.85	2613.21
584.05	2672.60
584.24	2836.44
584.44	2709.46
584.63	2920.40
584.82	2928.60
585.02	2895.83
585.21	2809.81
585.41	2863.06
585.60	2777.05
585.79	2914.26
585.99	2944.98
586.18	2873.30
586.37	3600.33
586.57	5420.97
586.76	15873.81
586.96	35026.41
587.15	48381.21
587.34	56915.10
587.54	61113.44
587.73	54650.05
587.93	38555.06
588.12	29337.15
588.31	23897.75
588.51	21071.55
588.70	19490.52
588.89	17045.24
589.09	14849.82
589.28	12384.07
589.47	9977.70
589.67	7608.20
589.86	5902.25
590.06	4546.49
590.25	3958.72
590.44	3452.88
590.64	3084.24
590.83	2979.79
591.02	3000.27
591.22	2670.55
591.41	2781.14
591.60	2711.51
591.80	3094.48
591.99	2588.63
592.18	2613.21
592.38	2883.54
592.57	2719.70
592.76	2742.23
592.96	2736.09
593.15	2664.41
593.34	2906.07
593.54	2697.17
593.73	2772.95
593.92	2904.02
594.12	2846.68
594.31	2758.61
594.50	2850.77
594.70	2813.91
594.89	3090.38
595.08	2559.96
595.28	2752.47
595.47	3221.45
595.66	2828.24
595.86	2590.68
596.05	2643.93
596.24	2678.74
596.43	2994.13
596.63	2793.43
596.82	2785.24
597.01	2848.72
597.21	2959.31
597.40	2736.09
597.59	2725.85
597.79	2766.81
597.98	2820.05
598.17	2803.67
598.36	2699.22
598.56	2775.00
598.75	2641.88
598.94	2754.52
599.14	2695.13
599.33	2680.79
599.52	2834.39
599.71	2717.65
599.91	2752.47
600.10	2807.77
600.29	2701.27
600.48	2785.24
600.68	2793.43
600.87	2750.42
601.06	2643.93
601.26	2680.79
601.45	2742.23
601.64	2705.37
601.83	2820.05
602.03	2551.77
602.22	2602.97
602.41	2899.92
602.60	3063.76
602.80	2729.94
602.99	2746.33
603.18	2721.75
603.37	2813.91
603.57	2670.55
603.76	2799.57
603.95	2875.35
604.14	2668.50
604.34	2619.35
604.53	2645.98
604.72	2838.48
604.91	2930.64
605.10	2688.98
605.30	2478.04
605.49	3069.91
605.68	2766.81
605.87	2813.91
606.07	2547.67
606.26	2754.52
606.45	2838.48
606.64	2711.51
606.84	2559.96
607.03	2691.03
607.22	2893.78
607.41	2684.89
607.60	2625.50
607.80	2934.74
607.99	2729.94
608.18	2613.21
608.37	2697.17
608.56	2654.17
608.76	2865.11
608.95	2879.44
609.14	2721.75
609.33	2906.07
609.52	2889.68
609.72	2734.04
609.91	2822.10
610.10	2709.46
610.29	2918.36
610.48	2734.04
610.68	2766.81
610.87	2748.37
611.06	2801.62
611.25	2652.12
611.44	2863.06
611.63	2676.70
611.83	2871.25
612.02	2602.97
612.21	2756.57
612.40	2500.57
612.59	2588.63
612.79	2596.82
612.98	2656.22
613.17	2992.08
613.36	2734.04
613.55	2807.77
613.74	2789.33
613.93	2703.32
614.13	2850.77
614.32	2908.12
614.51	2727.89
614.70	2680.79
614.89	2766.81
615.08	2785.24
615.28	3121.10
615.47	2545.63
615.66	2779.09
615.85	2719.70
616.04	2854.87
616.23	2672.60
616.42	2740.18
616.62	2734.04
616.81	2715.61
617.00	2775.00
617.19	2842.58
617.38	2588.63
617.57	2668.50
617.76	2947.03
617.95	2738.13
618.15	2775.00
618.34	2904.02
618.53	2580.44
618.72	2828.24
618.91	2850.77
619.10	2844.63
619.29	2637.78
619.48	2781.14
619.68	2586.58
619.87	2600.92
620.06	2510.81
620.25	2731.99
620.44	2629.59
620.63	2650.07
620.82	2807.77
621.01	2832.34
621.20	2650.07
621.39	2713.56
621.59	2836.44
621.78	2721.75
621.97	2660.31
622.16	2736.09
622.35	2826.20
622.54	2762.71
622.73	2734.04
622.92	2469.85
623.11	2865.11
623.30	2627.54
623.49	2717.65
623.68	2545.63
623.88	2969.55
624.07	2766.81
624.26	2639.83
624.45	2709.46
624.64	2707.41
624.83	2797.53
625.02	2699.22
625.21	2662.36
625.40	2723.80
625.59	2889.68
625.78	2701.27
625.97	2815.96
626.16	2947.03
626.35	2820.05
626.54	2670.55
626.74	2787.29
626.93	2627.54
627.12	2713.56
627.31	2797.53
627.50	2742.23
627.69	2781.14
627.88	2625.50
628.07	2562.01
628.26	2510.81
628.45	2596.82
628.64	2523.10
628.83	2672.60
629.02	2600.92
629.21	2869.20
629.40	2822.10
629.59	2627.54
629.78	2590.68
629.97	2701.27
630.16	2760.66
630.35	2684.89
630.54	2676.70
630.73	2668.50
630.92	2744.28
631.11	2580.44
631.30	2658.26
631.49	2897.88
631.68	2711.51
631.87	2768.85
632.06	2496.47
632.25	3131.34
632.44	2691.03
632.63	2762.71
632.82	2668.50
633.01	2613.21
633.20	2676.70
633.39	2715.61
633.58	2551.77
633.77	2781.14
633.96	2826.20
634.15	2887.64
634.34	2654.17
634.53	2783.19
634.72	2648.02
634.91	2447.32
635.10	2791.38
635.29	2863.06
635.48	2738.13
635.67	2658.26
635.86	2566.10
636.05	2914.26
636.24	2754.52
636.43	2592.73
636.62	2738.13
636.81	2389.98
637.00	2711.51
637.19	2721.75
637.38	2666.46
637.57	2611.16
637.76	2670.55
637.95	2801.62
638.14	2684.89
638.33	2717.65
638.52	2785.24
638.71	2551.77
638.89	2557.91
639.08	3112.91
639.27	2861.01
639.46	2854.87
639.65	3225.55
639.84	3164.11
640.03	3225.55
640.22	3030.99
640.41	3119.06
640.60	2828.24
640.79	2879.44
640.98	2797.53
641.17	2865.11
641.36	2916.31
641.55	2842.58
641.74	2521.05
641.92	2641.88
642.11	2615.26
642.30	2639.83
642.49	2621.40
642.68	2551.77
642.87	2836.44
643.06	2897.88
643.25	2559.96
643.44	2541.53
643.63	2670.55
643.82	2834.39
644.00	2551.77
644.19	2559.96
644.38	2621.40
644.57	2809.81
644.76	2672.60
644.95	2715.61
645.14	2791.38
645.33	2629.59
645.52	2660.31
645.71	2545.63
645.89	2582.49
646.08	2754.52
646.27	2633.69
646.46	2936.79
646.65	2584.54
646.84	2813.91
647.03	2545.63
647.22	2877.40
647.40	2791.38
647.59	2691.03
647.78	2473.95
647.97	2547.67
648.16	2592.73
648.35	2879.44
648.54	2824.15
648.73	2625.50
648.91	2873.30
649.10	2744.28
649.29	2559.96
649.48	2602.97
649.67	2781.14
649.86	2701.27
650.05	2588.63
650.23	2879.44
650.42	2725.85
650.61	2879.44
650.80	2844.63
650.99	3008.47
651.18	2873.30
651.36	2922.45
651.55	2660.31
651.74	2734.04
651.93	2711.51
652.12	2770.90
652.31	2621.40
652.49	2688.98
652.68	2664.41
652.87	2957.27
653.06	2703.32
653.25	2953.17
653.44	2785.24
653.62	2957.27
653.81	2637.78
654.00	2680.79
654.19	2852.82
654.38	3065.81
654.56	2711.51
654.75	2613.21
654.94	2850.77
655.13	2787.29
655.32	2645.98
655.51	2748.37
655.69	2590.68
655.88	2768.85
656.07	2502.62
656.26	2738.13
656.45	2539.48
656.63	2674.65
656.82	2715.61
657.01	2844.63
657.20	2596.82
657.38	2928.60
657.57	2641.88
657.76	2519.00
657.95	2848.72
658.14	2648.02
658.32	2731.99
658.51	2535.39
658.70	2764.76
658.89	2779.09
659.08	2650.07
659.26	2842.58
659.45	2629.59
659.64	2820.05
659.83	2531.29
660.01	3045.33
660.20	2750.42
660.39	2908.12
660.58	2490.33
660.76	2691.03
660.95	2621.40
661.14	2695.13
661.33	2596.82
661.51	2602.97
661.70	2662.36
661.89	2822.10
662.08	2664.41
662.26	2531.29
662.45	2600.92
662.64	3030.99
662.83	2678.74
663.01	2572.25
663.20	2580.44
663.39	2916.31
663.58	2602.97
663.76	2590.68
663.95	2750.42
664.14	2619.35
664.32	2607.06
664.51	2521.05
664.70	2523.10
664.89	2838.48
665.07	2514.91
665.26	2873.30
665.45	2502.62
665.64	2799.57
665.82	2617.30
666.01	2760.66
666.20	2527.19
666.38	2838.48
666.57	2846.68
666.76	4233.15
666.95	10006.38
667.13	16799.49
667.32	20924.10
667.51	23688.85
667.69	25192.06
667.88	21661.37
668.07	15417.11
668.25	12814.14
668.44	10960.73
668.63	9557.87
668.81	8589.18
669.00	7356.30
669.19	6592.41
669.38	5679.02
669.56	5070.77
669.75	4218.82
669.94	3721.16
670.12	3297.23
670.31	3059.67
670.50	2998.23
670.68	2897.88
670.87	2871.25
671.06	2617.30
671.24	2738.13
671.43	2981.84
671.62	2684.89
671.80	2648.02
671.99	2744.28
672.18	2762.71
672.36	2930.64
672.55	2723.80
672.74	2654.17
672.92	2750.42
673.11	2762.71
673.29	2557.91
673.48	2746.33
673.67	2666.46
673.85	2844.63
674.04	2676.70
674.23	2676.70
674.41	2930.64
674.60	2545.63
674.79	2484.19
674.97	2541.53
675.16	2758.61
675.34	2983.89
675.53	2557.91
675.72	2703.32
675.90	2990.03
676.09	2631.64
676.28	2715.61
676.46	2400.22
676.65	2801.62
676.83	2557.91
677.02	2697.17
677.21	2731.99
677.39	2772.95
677.58	2578.39
677.77	2613.21
677.95	2574.30
678.14	2725.85
678.32	2703.32
678.51	2625.50
678.70	2969.55
678.88	2674.65
679.07	2760.66
679.25	2719.70
679.44	2600.92
679.63	2570.20
679.81	2754.52
680.00	2830.29
680.18	2678.74
680.37	2979.79
680.55	2680.79
680.74	2502.62
680.93	2422.75
681.11	2791.38
681.30	2684.89
681.48	2711.51
681.67	2654.17
681.85	2674.65
682.04	2650.07
682.23	2779.09
682.41	2750.42
682.60	2752.47
682.78	2701.27
682.97	2514.91
683.15	2764.76
683.34	2756.57
683.53	2951.12
683.71	2445.27
683.90	2787.29
684.08	2981.84
684.27	2639.83
684.45	2660.31
684.64	2805.72
684.82	2682.84
685.01	2752.47
685.19	2637.78
685.38	2815.96
685.57	2666.46
685.75	2600.92
685.94	2594.78
686.12	2592.73
686.31	2666.46
686.49	2994.13
686.68	2457.56
686.86	2707.41
687.05	2695.13
687.23	2930.64
687.42	2633.69
687.60	2406.36
687.79	2865.11
687.97	2951.12
688.16	2867.16
688.34	2752.47
688.53	2467.80
688.71	2781.14
688.90	2891.73
689.08	2736.09
689.27	2566.10
689.45	2768.85
689.64	2752.47
689.82	2719.70
690.01	2893.78
690.19	2727.89
690.38	2611.16
690.56	2805.72
690.75	2656.22
690.93	2609.11
691.12	2602.97
691.30	2656.22
691.49	2668.50
691.67	2760.66
691.86	2895.83
692.04	2662.36
692.23	2662.36
692.41	2707.41
692.60	2987.99
692.78	2920.40
692.97	2754.52
693.15	2922.45
693.34	2957.27
693.52	2832.34
693.71	2643.93
693.89	2609.11
694.08	2551.77
694.26	2783.19
694.44	2801.62
694.63	2826.20
694.81	2654.17
695.00	2613.21
695.18	2830.29
695.37	3088.34
695.55	2734.04
695.74	2627.54
695.92	2670.55
696.10	2891.73
696.29	2553.82
696.47	2596.82
696.66	2519.00
696.84	2611.16
697.03	2670.55
697.21	2979.79
697.40	4079.55
697.58	2867.16
697.76	2633.69
697.95	2656.22
698.13	2525.15
698.32	2703.32
698.50	2602.97
698.68	2641.88
698.87	2772.95
699.05	2934.74
699.24	2711.51
699.42	2527.19
699.61	2752.47
699.79	2666.46
699.97	2750.42
700.16	2449.37
700.34	2531.29
700.53	2723.80
700.71	2879.44
700.89	2717.65
701.08	2691.03
701.26	2803.67
701.45	3182.54
701.63	2584.54
701.81	2672.60
702.00	2641.88
702.18	2756.57
702.37	2588.63
702.55	2893.78
702.73	2856.92
702.92	2633.69
703.10	2873.30
703.28	2895.83
703.47	2605.02
703.65	2883.54
703.84	2717.65
704.02	2691.03
704.20	3057.62
704.39	2658.26
704.57	2633.69
704.75	2828.24
704.94	2824.15
705.12	2736.09
705.30	3071.95
705.49	5904.29
705.67	11853.64
705.86	17768.18
706.04	20149.96
706.22	22550.18
706.41	22339.24
706.59	17538.80
706.77	13043.51
706.96	11458.39
707.14	10284.90
707.32	8759.16
707.51	7942.02
707.69	6404.00
707.87	5289.90
708.06	4421.56
708.24	3782.60
708.42	3424.20
708.61	3346.38
708.79	2826.20
708.97	2791.38
709.16	2789.33
709.34	2762.71
709.52	2670.55
709.71	2629.59
709.89	2756.57
710.07	2580.44
710.26	2580.44
710.44	2699.22
710.62	2891.73
710.80	2727.89
710.99	2756.57
711.17	2750.42
711.35	2574.30
711.54	2639.83
711.72	2813.91
711.90	2770.90
712.09	2756.57
712.27	2658.26
712.45	2717.65
712.63	2615.26
712.82	2756.57
713.00	2711.51
713.18	2832.34
713.37	2865.11
713.55	2906.07
713.73	2746.33
713.91	2760.66
714.10	2637.78
714.28	2699.22
714.46	2775.00
714.65	2813.91
714.83	2635.74
715.01	2789.33
715.19	2748.37
715.38	2580.44
715.56	2777.05
715.74	2607.06
715.92	2631.64
716.11	2938.84
716.29	2463.71
716.47	2627.54
716.65	2643.93
716.84	2494.43
717.02	2746.33
717.20	2510.81
717.38	2539.48
717.57	2752.47
717.75	2629.59
717.93	2557.91
718.11	2826.20
718.30	2564.06
718.48	2750.42
718.66	2883.54
718.84	2904.02
719.03	2693.08
719.21	2547.67
719.39	2983.89
719.57	2824.15
719.75	2818.00
719.94	2611.16
720.12	2723.80
720.30	2744.28
720.48	2791.38
720.67	2570.20
720.85	2553.82
721.03	2617.30
721.21	2623.45
721.39	2754.52
721.58	2801.62
721.76	2717.65
721.94	2717.65
722.12	2744.28
722.30	3018.71
722.49	2731.99
722.67	2674.65
722.85	2674.65
723.03	2508.76
723.21	2654.17
723.40	2719.70
723.58	2742.23
723.76	2881.49
723.94	2961.36
724.12	2725.85
724.30	2820.05
724.49	2840.53
724.67	2625.50
724.85	2727.89
725.03	2568.15
725.21	2844.63
725.40	2834.39
725.58	2602.97
725.76	2867.16
725.94	2762.71
726.12	2596.82
726.30	2678.74
726.49	2590.68
726.67	2631.64
726.85	2834.39
727.03	3151.82
727.21	4050.88
727.39	5148.59
727.57	5597.10
727.76	6018.98
727.94	6096.80
728.12	5498.80
728.30	4652.98
728.48	4308.93
728.66	3973.06
728.84	3755.97
729.03	3311.57
729.21	3243.98
729.39	2990.03
729.57	2713.56
729.75	2779.09
729.93	2822.10
730.11	2711.51
730.30	2674.65
730.48	2639.83
730.66	2809.81
730.84	2738.13
731.02	2660.31
731.20	2666.46
731.38	2752.47
731.56	2551.77
731.74	2574.30
731.93	2744.28
732.11	2727.89
732.29	2596.82
732.47	2736.09
732.65	2717.65
732.83	2824.15
733.01	2727.89
733.19	2627.54
733.37	2762.71
733.56	2672.60
733.74	2574.30
733.92	2875.35
734.10	2666.46
734.28	2811.86
734.46	2465.75
734.64	2668.50
734.82	2709.46
735.00	2648.02
735.18	2611.16
735.36	2768.85
735.54	2693.08
735.73	2668.50
735.91	2701.27
736.09	2926.55
736.27	2613.21
736.45	2693.08
736.63	2402.27
736.81	2668.50
736.99	2881.49
737.17	2805.72
737.35	2615.26
737.53	2783.19
737.71	2691.03
737.89	2809.81
738.07	2670.55
738.25	2596.82
738.43	2455.51
738.61	2648.02
738.80	2457.56
738.98	2596.82
739.16	2617.30
739.34	2594.78
739.52	2873.30
739.70	2701.27
739.88	2836.44
740.06	2785.24
740.24	2398.17
740.42	2856.92
740.60	2459.61
740.78	2615.26
740.96	2514.91
741.14	2654.17
741.32	2670.55
741.50	2617.30
741.68	2916.31
741.86	2895.83
742.04	2598.87
742.22	2490.33
742.40	2586.58
742.58	2801.62
742.76	2631.64
742.94	2854.87
743.12	2467.80
743.30	2731.99
743.48	2775.00
743.66	2588.63
743.84	2650.07
744.02	2635.74
744.20	2813.91
744.38	2578.39
744.56	2539.48
744.74	3016.66
744.92	2768.85
745.10	2883.54
745.28	2789.33
745.46	2949.08
745.64	2625.50
745.82	2750.42
746.00	2580.44
746.18	2797.53
746.36	2584.54
746.54	2744.28
746.72	2742.23
746.90	2578.39
747.08	2992.08
747.26	2662.36
747.44	2801.62
747.62	2850.77
747.80	2727.89
747.98	2719.70
748.15	2639.83
748.33	3030.99
748.51	2695.13
748.69	2762.71
748.87	2537.43
749.05	2709.46
749.23	2637.78
749.41	2674.65
749.59	2607.06
749.77	2916.31
749.95	2711.51
750.13	2588.63
750.31	2754.52
750.49	2674.65
750.67	2865.11
750.85	2795.48
751.03	2658.26
751.20	3022.80
751.38	2650.07
751.56	2633.69
751.74	2744.28
751.92	2641.88
752.10	2555.86
752.28	2818.00
752.46	2580.44
752.64	2760.66
752.82	2648.02
753.00	2752.47
753.18	2592.73
753.35	2684.89
753.53	2676.70
753.71	2580.44
753.89	2723.80
754.07	2734.04
754.25	2764.76
754.43	2756.57
754.61	2557.91
754.79	2799.57
754.97	2684.89
755.14	2811.86
755.32	2533.34
755.50	2688.98
755.68	2781.14
755.86	2555.86
756.04	2549.72
756.22	2459.61
756.40	2893.78
756.57	2906.07
756.75	2596.82
756.93	2834.39
757.11	2861.01
757.29	2541.53
757.47	2537.43
757.65	2504.67
757.82	2424.80
758.00	2580.44
758.18	2627.54
758.36	2605.02
758.54	3028.95
758.72	2506.71
758.90	2883.54
759.07	2764.76
759.25	2615.26
759.43	2684.89
759.61	2482.14
759.79	3923.91
759.97	2822.10
760.15	2580.44
760.32	2602.97
760.50	2658.26
760.68	3057.62
760.86	2510.81
761.04	2815.96
761.22	2809.81
761.39	2719.70
761.57	2707.41
761.75	2625.50
761.93	2772.95
762.11	2772.95
762.28	2750.42
762.46	2574.30
762.64	2867.16
762.82	2568.15
763.00	2637.78
763.18	2850.77
763.35	2617.30
763.53	2824.15
763.71	2760.66
763.89	2682.84
764.07	2713.56
764.24	2742.23
764.42	2772.95
764.60	2635.74
764.78	2865.11
764.96	2826.20
765.13	2734.04
765.31	2629.59
765.49	2760.66
765.67	2547.67
765.84	2633.69
766.02	2488.28
766.20	2488.28
766.38	2760.66
766.56	2791.38
766.73	2742.23
766.91	2691.03
767.09	2717.65
767.27	2775.00
767.44	2545.63
767.62	2783.19
767.80	2721.75
767.98	2557.91
768.15	2707.41
768.33	2836.44
768.51	2858.96
768.69	2744.28
768.87	2723.80
769.04	2744.28
769.22	3112.91
769.40	2822.10
769.58	2809.81
769.75	2762.71
769.93	2863.06
770.11	2580.44
770.28	2535.39
770.46	2807.77
770.64	2756.57
770.82	2602.97
770.99	2586.58
771.17	2844.63
771.35	2709.46
771.53	2568.15
771.70	2678.74
771.88	2858.96
772.06	2703.32
772.23	2670.55
772.41	2727.89
772.59	2676.70
772.77	2502.62
772.94	2664.41
773.12	2676.70
773.30	2654.17
773.47	2799.57
773.65	2531.29
773.83	2834.39
774.01	2713.56
774.18	2461.66
774.36	2654.17
774.54	2533.34
774.71	2775.00
774.89	2467.80
775.07	2584.54
775.24	2631.64
775.42	2627.54
775.60	3078.10
775.78	2547.67
775.95	2437.08
776.13	2408.41
776.31	2457.56
776.48	2797.53
776.66	2863.06
776.84	2627.54
777.01	2584.54
777.19	2586.58
777.37	2613.21
777.54	2893.78
777.72	3002.32
777.90	2772.95
778.07	2574.30
778.25	3237.84
778.43	2895.83
778.60	2652.12
778.78	2775.00
778.96	2891.73
779.13	2500.57
779.31	2777.05
779.49	2643.93
779.66	2783.19
779.84	2641.88
780.01	2643.93
780.19	2459.61
780.37	2906.07
780.54	2867.16
780.72	2486.23
780.90	2744.28
781.07	2705.37
781.25	2654.17
781.43	2746.33
781.60	2625.50
781.78	2818.00
781.95	2715.61
782.13	2625.50
782.31	2670.55
782.48	2539.48
782.66	2707.41
782.83	2869.20
783.01	2691.03
783.19	2850.77
783.36	2678.74
783.54	2555.86
783.72	2795.48
783.89	2600.92
784.07	2697.17
784.24	2764.76
784.42	2944.98
784.60	2727.89
784.77	2711.51
784.95	2414.56
785.12	2637.78
785.30	2674.65
785.47	2586.58
785.65	2574.30
785.83	2607.06
786.00	2652.12
786.18	2744.28
786.35	2545.63
786.53	2623.45
786.71	2848.72
786.88	2709.46
787.06	2707.41
787.23	2611.16
787.41	2514.91
787.58	2801.62
787.76	2531.29
787.94	2711.51
788.11	2818.00
788.29	2551.77
788.46	2637.78
788.64	2523.10
788.81	2656.22
788.99	2643.93
789.16	2531.29
789.34	2645.98
789.52	2668.50
789.69	2691.03
789.87	2435.03
790.04	2559.96
790.22	2691.03
790.39	3012.56
790.57	2523.10
790.74	2594.78
790.92	2775.00
791.09	2478.04
791.27	2676.70
791.44	2818.00
791.62	2639.83
791.79	2834.39
791.97	2684.89
792.15	2990.03
792.32	2881.49
792.50	2815.96
792.67	2865.11
792.85	2834.39
793.02	2725.85
793.20	2641.88
793.37	2529.24
793.55	2654.17
793.72	2531.29
793.90	2754.52
794.07	2586.58
794.25	2523.10
794.42	2748.37
794.60	2627.54
794.77	2703.32
794.95	2729.94
795.12	2822.10
795.30	2748.37
795.47	2379.74
795.65	2942.93
795.82	2777.05
796.00	2516.95
796.17	2600.92
796.34	2615.26
796.52	2826.20
796.69	2897.88
796.87	2703.32
797.04	2789.33
797.22	2840.53
797.39	2731.99
797.57	2850.77
797.74	2676.70
797.92	2680.79
798.09	2695.13
798.27	2805.72
798.44	2570.20
798.62	2584.54
798.79	2809.81
798.96	2684.89
799.14	2650.07
799.31	3080.14
799.49	2664.41
799.66	2637.78
799.84	2688.98
800.01	2469.85
800.19	2748.37
800.36	2537.43
800.53	2783.19
800.71	2840.53
800.88	3014.61
801.06	2670.55
801.23	2623.45
801.41	2723.80
801.58	2654.17
801.75	2623.45
801.93	2668.50
802.10	2832.34
802.28	2721.75
802.45	2629.59
802.63	2682.84
802.80	2947.03
802.97	2664.41
803.15	2670.55
803.32	2639.83
803.50	2596.82
803.67	2613.21
803.84	2541.53
804.02	2602.97
804.19	2674.65
804.37	2396.12
804.54	2498.52
804.71	2600.92
804.89	2695.13
805.06	2555.86
805.24	2605.02
805.41	2531.29
805.58	2584.54
805.76	3071.95
805.93	2684.89
806.10	2856.92
806.28	2813.91
806.45	2736.09
806.63	2705.37
806.80	2725.85
806.97	2643.93
807.15	2727.89
807.32	2695.13
807.49	2619.35
807.67	2625.50
807.84	2822.10
808.01	2441.18
808.19	2891.73
808.36	3039.19
808.54	2654.17
808.71	2502.62
808.88	2719.70
809.06	2844.63
809.23	2932.69
809.40	2625.50
809.58	2711.51
809.75	2674.65
809.92	2547.67
810.10	2891.73
810.27	2662.36
810.44	2742.23
810.62	2869.20
810.79	2752.47
810.96	2602.97
811.14	2654.17
811.31	2752.47
811.48	2742.23
811.66	2711.51
811.83	2852.82
812.00	2789.33
812.18	2736.09
812.35	2922.45
812.52	2619.35
812.69	2576.34
812.87	2617.30
813.04	2600.92
813.21	2719.70
813.39	2623.45
813.56	2508.76
813.73	2815.96
813.91	2469.85
814.08	2650.07
814.25	2768.85
814.42	2523.10
814.60	2668.50
814.77	2731.99
814.94	2611.16
815.12	2721.75
815.29	2811.86
815.46	2637.78
815.63	2727.89
815.81	2662.36
815.98	2695.13
816.15	2664.41
816.33	2590.68
816.50	2680.79
816.67	2662.36
816.84	2762.71
817.02	2512.86
817.19	2594.78
817.36	2856.92
817.53	2777.05
817.71	2594.78
817.88	2721.75
818.05	2629.59
818.22	2662.36
818.40	2815.96
818.57	2631.64
818.74	2793.43
818.91	2754.52
819.09	2777.05
819.26	2820.05
819.43	2555.86
819.60	2576.34
819.78	2764.76
819.95	2744.28
820.12	2557.91
820.29	2953.17
820.47	2869.20
820.64	2543.58
820.81	2473.95
820.98	2717.65
821.15	2658.26
821.33	2734.04
821.50	2449.37
821.67	2781.14
821.84	2574.30
822.02	2697.17
822.19	2826.20
822.36	2607.06
822.53	2578.39
822.70	2473.95
822.88	2686.94
823.05	2957.27
823.22	2709.46
823.39	2727.89
823.56	2697.17
823.74	2994.13
823.91	2555.86
824.08	2455.51
824.25	2588.63
824.42	2949.08
824.60	2545.63
824.77	2721.75
824.94	2693.08
825.11	2727.89
825.28	2514.91
825.45	2670.55
825.63	2701.27
825.80	2596.82
825.97	2693.08
826.14	2664.41
826.31	2469.85
826.48	2813.91
826.66	2701.27
826.83	2576.34
827.00	2625.50
827.17	2621.40
827.34	2664.41
827.51	2512.86
827.69	2652.12
827.86	2439.13
828.03	2664.41
828.20	2615.26
828.37	2629.59
828.54	2748.37
828.71	2607.06
828.89	2734.04
829.06	2693.08
829.23	2906.07
829.40	2621.40
829.57	2590.68
829.74	2844.63
829.91	2570.20
830.09	2531.29
830.26	2752.47
830.43	2904.02
830.60	2725.85
830.77	2766.81
830.94	2815.96
831.11	2813.91
831.28	2715.61
831.46	2871.25
831.63	2629.59
831.80	2832.34
831.97	2627.54
832.14	2660.31
832.31	2715.61
832.48	2711.51
832.65	2899.92
832.82	2748.37
832.99	2752.47
833.17	2568.15
833.34	2899.92
833.51	2707.41
833.68	2457.56
833.85	2873.30
834.02	2547.67
834.19	2580.44
834.36	2521.05
834.53	2715.61
834.70	2840.53
834.87	2670.55
835.04	2566.10
835.22	2641.88
835.39	2564.06
835.56	2498.52
835.73	2535.39
835.90	2863.06
836.07	2566.10
836.24	2721.75
836.41	2582.49
836.58	2654.17
836.75	2785.24
836.92	2592.73
837.09	2447.32
837.26	2885.59
837.43	2818.00
837.60	2637.78
837.77	2588.63
837.94	2787.29
838.12	2881.49
838.29	2519.00
838.46	2490.33
838.63	2523.10
838.80	2910.16
838.97	2645.98
839.14	2553.82
839.31	2729.94
839.48	2824.15
839.65	2627.54
839.82	2664.41
839.99	2717.65
840.16	2666.46
840.33	2525.15
840.50	2652.12
840.67	2590.68
840.84	2383.84
841.01	2523.10
841.18	2471.90
841.35	2695.13
841.52	2758.61
841.69	2869.20
841.86	2559.96
842.03	2684.89
842.20	2777.05
842.37	2592.73
842.54	2484.19
842.71	2674.65
842.88	2545.63
843.05	2582.49
843.22	2510.81
843.39	2836.44
843.56	2590.68
843.73	2586.58
843.90	2631.64
844.07	2775.00
844.24	2826.20
844.41	2605.02
844.58	2602.97
844.75	2664.41
844.92	2799.57
845.09	2572.25
845.26	2537.43
845.43	2768.85
845.60	2639.83
845.77	2678.74
845.94	2684.89
846.10	2813.91
846.27	2566.10
846.44	2441.18
846.61	2545.63
846.78	2777.05
846.95	2842.58
847.12	2527.19
847.29	2559.96
847.46	2504.67
847.63	2719.70
847.80	2523.10
847.97	2602.97
848.14	3059.67
848.31	2750.42
848.48	2402.27
848.65	2568.15
848.82	2574.30
848.98	3149.78
849.15	2670.55
849.32	2705.37
849.49	2822.10
849.66	2727.89
849.83	2506.71
850.00	2457.56
850.17	2832.34
850.34	2680.79
850.51	2486.23
850.68	2549.72
850.85	3071.95
851.01	2768.85
851.18	2555.86
851.35	2617.30
851.52	2809.81
851.69	2844.63
851.86	2473.95
852.03	2523.10
852.20	2818.00
852.37	2697.17
852.53	2506.71
852.70	2519.00
852.87	2750.42
853.04	2818.00
853.21	2508.76
853.38	2772.95
853.55	2977.75
853.72	2840.53
853.89	2457.56
854.05	2492.38
854.22	2688.98
854.39	2672.60
854.56	2531.29
854.73	2664.41
854.90	2547.67
855.07	2668.50
855.23	2486.23
855.40	2533.34
855.57	2613.21
855.74	2486.23
855.91	2709.46
856.08	2461.66
856.25	2480.09
856.41	2645.98
856.58	2486.23
856.75	2635.74
856.92	2539.48
857.09	2865.11
857.26	2430.94
857.42	2541.53
857.59	2742.23
857.76	2686.94
857.93	2504.67
858.10	2703.32
858.27	2496.47
858.43	2811.86
858.60	2478.04
858.77	2430.94
858.94	2594.78
859.11	2838.48
859.27	2627.54
859.44	2527.19
859.61	2938.84
859.78	2830.29
859.95	2566.10
860.12	2605.02
860.28	2996.18
860.45	2996.18
860.62	2465.75
860.79	2627.54
860.95	2709.46
861.12	2672.60
861.29	2539.48
861.46	2445.27
861.63	2658.26
861.79	2715.61
861.96	2461.66
862.13	2572.25
862.30	2861.01
862.47	2584.54
862.63	2490.33
862.80	2627.54
862.97	2824.15
863.14	2703.32
863.30	2670.55
863.47	2553.82
863.64	2987.99
863.81	2723.80
863.97	2478.04
864.14	2531.29
864.31	2652.12
864.48	2684.89
864.65	2590.68
864.81	2709.46
864.98	2760.66
865.15	2832.34
865.32	2588.63
865.48	2643.93
865.65	2922.45
865.82	2695.13
865.98	2639.83
866.15	2668.50
866.32	2734.04
866.49	2602.97
866.65	2752.47
866.82	2486.23
866.99	2693.08
867.16	2627.54
867.32	2570.20
867.49	2510.81
867.66	2666.46
867.83	2615.26
867.99	2451.42
868.16	2596.82
868.33	2600.92
868.49	2723.80
868.66	2619.35
868.83	2650.07
868.99	2731.99
869.16	2686.94
869.33	2674.65
869.50	2623.45
869.66	2703.32
869.83	2693.08
870.00	2437.08
870.16	2670.55
870.33	2705.37
870.50	2791.38
870.66	2613.21
870.83	2623.45
871.00	2713.56
871.17	2818.00
871.33	2629.59
871.50	2559.96
871.67	2701.27
871.83	2766.81
872.00	2662.36
872.17	2572.25
872.33	2965.46
872.50	2813.91
872.67	2529.24
872.83	2496.47
873.00	2719.70
873.17	2768.85
873.33	2639.83
873.50	2596.82
873.67	2609.11
873.83	2582.49
874.00	2648.02
874.16	2662.36
874.33	2744.28
874.50	2525.15
874.66	2473.95
874.83	2648.02
875.00	2875.35
875.16	2818.00
875.33	2658.26
875.50	2414.56
875.66	2592.73
875.83	2623.45
875.99	2576.34
876.16	2594.78
876.33	2514.91
876.49	2648.02
876.66	2609.11
876.83	2648.02
876.99	2480.09
877.16	2738.13
877.32	2527.19
877.49	2574.30
877.66	2824.15
877.82	2828.24
877.99	2607.06
878.15	2713.56
878.32	2768.85
878.49	2717.65
878.65	2533.34
878.82	2693.08
878.98	2725.85
879.15	2740.18
879.32	2777.05
879.48	2717.65
879.65	2711.51
879.81	2625.50
879.98	2576.34
880.15	2625.50
880.31	2783.19
880.48	2619.35
880.64	2674.65
880.81	2664.41
880.97	2981.84
881.14	2920.40
881.31	2465.75
881.47	2709.46
881.64	2676.70
881.80	2463.71
881.97	2691.03
882.13	2639.83
882.30	2643.93
882.47	2648.02
882.63	2506.71
882.80	2543.58
882.96	2731.99
883.13	2899.92
883.29	2555.86
883.46	2562.01
883.62	3051.47
883.79	2758.61
883.95	2777.05
884.12	2498.52
884.29	2906.07
884.45	2664.41
884.62	2588.63
884.78	2553.82
884.95	2899.92
885.11	2650.07
885.28	2709.46
885.44	2551.77
885.61	2818.00
885.77	2942.93
885.94	2623.45
886.10	2615.26
886.27	2717.65
886.43	2961.36
886.60	2727.89
886.76	2553.82
886.93	2568.15
887.09	2719.70
887.26	2506.71
887.42	2658.26
887.59	2887.64
887.75	3004.37
887.92	2682.84
888.08	2648.02
888.25	2961.36
888.41	2764.76
888.58	2590.68
888.74	2490.33
888.91	2617.30
>>>>>End Processed Spectral Data<<<<<
