SpectraSuite Data File
++++++++++++++++++++++++++++++++++++
Date: Thu May 05 16:20:39 CEST 2016
User: root
Dark Spectrum Present: No
Reference Spectrum Present: No
Number of Sampled Component Spectra: 1
Spectrometers: USB4C02835
Integration Time (usec): 100000 (USB4C02835)
Spectra Averaged: 1 (USB4C02835)
Boxcar Smoothing: 0 (USB4C02835)
Correct for Electrical Dark: No (USB4C02835)
Strobe/Lamp Enabled: No (USB4C02835)
Correct for Detector Non-linearity: No (USB4C02835)
Correct for Stray Light: No (USB4C02835)
Number of Pixels in Processed Spectrum: 3648
>>>>>Begin Processed Spectral Data<<<<<
177.47	1947.62
177.69	1947.62
177.91	1947.62
178.13	1990.63
178.36	2054.11
178.58	2592.73
178.80	2746.33
179.02	2600.92
179.24	2566.10
179.46	2428.89
179.68	2549.72
179.90	2658.26
180.13	2709.46
180.35	2385.88
180.57	2428.89
180.79	2807.77
181.01	2725.85
181.23	2547.67
181.45	2637.78
181.67	2838.48
181.90	2912.21
182.12	2480.09
182.34	2445.27
182.56	2867.16
182.78	2725.85
183.00	2480.09
183.22	2635.74
183.44	2494.43
183.66	3010.51
183.89	2605.02
184.11	2531.29
184.33	2824.15
184.55	2897.88
184.77	2590.68
184.99	2478.04
185.21	2701.27
185.43	3102.67
185.65	2496.47
185.87	2482.14
186.10	3012.56
186.32	3076.05
186.54	2637.78
186.76	2570.20
186.98	2826.20
187.20	2664.41
187.42	2496.47
187.64	2568.15
187.86	2754.52
188.08	2797.53
188.30	2514.91
188.52	2568.15
188.75	2955.22
188.97	2981.84
189.19	2504.67
189.41	2492.38
189.63	2789.33
189.85	2709.46
190.07	2457.56
190.29	2469.85
190.51	2738.13
190.73	2557.91
190.95	2658.26
191.17	2555.86
191.39	2525.15
191.61	2605.02
191.84	2541.53
192.06	2600.92
192.28	2551.77
192.50	3160.02
192.72	2523.10
192.94	2590.68
193.16	2877.40
193.38	2777.05
193.60	2543.58
193.82	2592.73
194.04	2865.11
194.26	2750.42
194.48	2596.82
194.70	2473.95
194.92	2668.50
195.14	2750.42
195.36	2521.05
195.58	2566.10
195.80	2672.60
196.02	2535.39
196.24	2523.10
196.46	2582.49
196.69	2658.26
196.91	3055.57
197.13	2592.73
197.35	2568.15
197.57	2930.64
197.79	2842.58
198.01	2605.02
198.23	2582.49
198.45	2787.29
198.67	2588.63
198.89	2432.99
199.11	2482.14
199.33	2568.15
199.55	2383.84
199.77	2439.13
199.99	2611.16
200.21	2580.44
200.43	2822.10
200.65	2459.61
200.87	2445.27
201.09	2770.90
201.31	2725.85
201.53	2621.40
201.75	2596.82
201.97	2715.61
202.19	2705.37
202.41	2633.69
202.63	2686.94
202.85	2865.11
203.07	2793.43
203.29	2613.21
203.51	2443.23
203.73	2564.06
203.95	3160.02
204.17	2492.38
204.39	2627.54
204.61	2754.52
204.83	2635.74
205.05	2596.82
205.27	2492.38
205.49	3125.20
205.71	2707.41
205.93	2402.27
206.15	2392.03
206.37	2750.42
206.59	2766.81
206.81	2375.64
207.03	2482.14
207.25	2627.54
207.47	2775.00
207.69	2559.96
207.91	2695.13
208.13	2965.46
208.34	2664.41
208.56	2547.67
208.78	2471.90
209.00	2643.93
209.22	2660.31
209.44	2480.09
209.66	2455.51
209.88	2719.70
210.10	2736.09
210.32	2553.82
210.54	2623.45
210.76	2684.89
210.98	2865.11
211.20	2389.98
211.42	2621.40
211.64	2867.16
211.86	2793.43
212.08	2568.15
212.30	2574.30
212.52	2666.46
212.74	2799.57
212.96	2559.96
213.17	2510.81
213.39	2820.05
213.61	3006.42
213.83	2533.34
214.05	2445.27
214.27	2834.39
214.49	2602.97
214.71	2478.04
214.93	2633.69
215.15	2758.61
215.37	2779.09
215.59	2437.08
215.81	2541.53
216.03	2840.53
216.24	2715.61
216.46	2572.25
216.68	2559.96
216.90	2867.16
217.12	2867.16
217.34	2486.23
217.56	2721.75
217.78	2938.84
218.00	2789.33
218.22	2607.06
218.44	2588.63
218.66	2758.61
218.87	2996.18
219.09	2537.43
219.31	2559.96
219.53	2801.62
219.75	2557.91
219.97	2525.15
220.19	2473.95
220.41	2711.51
220.63	2912.21
220.85	2525.15
221.06	2516.95
221.28	2852.82
221.50	2850.77
221.72	2494.43
221.94	2500.57
222.16	2772.95
222.38	2834.39
222.60	2484.19
222.82	2506.71
223.03	2828.24
223.25	2594.78
223.47	2496.47
223.69	2729.94
223.91	2861.01
224.13	2738.13
224.35	2424.80
224.57	2719.70
224.78	2793.43
225.00	2592.73
225.22	2609.11
225.44	2506.71
225.66	2899.92
225.88	2658.26
226.10	2645.98
226.32	2514.91
226.53	2996.18
226.75	2602.97
226.97	2623.45
227.19	2529.24
227.41	2584.54
227.63	2611.16
227.85	2314.20
228.06	2545.63
228.28	2809.81
228.50	2797.53
228.72	2412.51
228.94	2457.56
229.16	2416.60
229.37	2547.67
229.59	2430.94
229.81	2738.13
230.03	2650.07
230.25	2590.68
230.47	2424.80
230.69	2455.51
230.90	2805.72
231.12	2662.36
231.34	2502.62
231.56	2615.26
231.78	2570.20
232.00	2736.09
232.21	2529.24
232.43	2555.86
232.65	2496.47
232.87	2824.15
233.09	2408.41
233.30	2439.13
233.52	2838.48
233.74	2707.41
233.96	2500.57
234.18	2605.02
234.40	2752.47
234.61	3061.71
234.83	2447.32
235.05	2435.03
235.27	3045.33
235.49	2830.29
235.70	2480.09
235.92	2576.34
236.14	2863.06
236.36	3055.57
236.58	2412.51
236.79	2539.48
237.01	2758.61
237.23	2830.29
237.45	2691.03
237.67	2555.86
237.88	2795.48
238.10	3030.99
238.32	2447.32
238.54	2445.27
238.76	2693.08
238.97	2594.78
239.19	2496.47
239.41	2596.82
239.63	2981.84
239.85	2658.26
240.06	2564.06
240.28	2461.66
240.50	2793.43
240.72	2658.26
240.93	2488.28
241.15	2627.54
241.37	2686.94
241.59	2928.60
241.81	2529.24
242.02	2621.40
242.24	2818.00
242.46	2805.72
242.68	2336.73
242.89	2506.71
243.11	2818.00
243.33	2656.22
243.55	2521.05
243.76	2557.91
243.98	2670.55
244.20	2723.80
244.42	2457.56
244.64	2566.10
244.85	2564.06
245.07	2682.84
245.29	2549.72
245.51	2594.78
245.72	2799.57
245.94	2877.40
246.16	2512.86
246.38	2574.30
246.59	2637.78
246.81	2645.98
247.03	2447.32
247.24	2383.84
247.46	2688.98
247.68	2760.66
247.90	2463.71
248.11	2488.28
248.33	2854.87
248.55	2731.99
248.77	2566.10
248.98	2533.34
249.20	2959.31
249.42	2711.51
249.64	2527.19
249.85	2512.86
250.07	2609.11
250.29	2848.72
250.50	2504.67
250.72	2463.71
250.94	2766.81
251.16	3051.47
251.37	2449.37
251.59	2564.06
251.81	2785.24
252.02	2910.16
252.24	2465.75
252.46	2637.78
252.68	2568.15
252.89	2654.17
253.11	2373.60
253.33	2680.79
253.54	2897.88
253.76	2537.43
253.98	2582.49
254.20	2527.19
254.41	2594.78
254.63	2713.56
254.85	2324.44
255.06	2488.28
255.28	2822.10
255.50	2717.65
255.71	2512.86
255.93	2428.89
256.15	2639.83
256.36	2748.37
256.58	2426.84
256.80	2521.05
257.02	2637.78
257.23	2619.35
257.45	2527.19
257.67	2609.11
257.88	2680.79
258.10	2850.77
258.32	2459.61
258.53	2572.25
258.75	2901.97
258.97	2588.63
259.18	2473.95
259.40	2500.57
259.62	2920.40
259.83	2924.50
260.05	2498.52
260.27	3147.73
260.48	2844.63
260.70	2576.34
260.92	2449.37
261.13	2553.82
261.35	2801.62
261.57	2858.96
261.78	2402.27
262.00	2482.14
262.22	2844.63
262.43	2570.20
262.65	2488.28
262.86	2490.33
263.08	3067.86
263.30	2709.46
263.51	2432.99
263.73	2500.57
263.95	2996.18
264.16	2615.26
264.38	2498.52
264.60	2504.67
264.81	2674.65
265.03	2822.10
265.25	2795.48
265.46	2510.81
265.68	2910.16
265.89	2879.44
266.11	2422.75
266.33	2519.00
266.54	2856.92
266.76	2766.81
266.98	2611.16
267.19	2664.41
267.41	2834.39
267.62	2680.79
267.84	2365.40
268.06	2621.40
268.27	2762.71
268.49	2826.20
268.70	2547.67
268.92	2549.72
269.14	2625.50
269.35	2463.71
269.57	2617.30
269.79	2584.54
270.00	2568.15
270.22	3043.28
270.43	2432.99
270.65	2326.49
270.87	2723.80
271.08	2842.58
271.30	2586.58
271.51	2541.53
271.73	2848.72
271.95	2846.68
272.16	2512.86
272.38	2559.96
272.59	2621.40
272.81	2854.87
273.02	2519.00
273.24	2600.92
273.46	2803.67
273.67	2541.53
273.89	2471.90
274.10	2539.48
274.32	2836.44
274.54	2740.18
274.75	2588.63
274.97	2605.02
275.18	2813.91
275.40	2826.20
275.61	2633.69
275.83	2637.78
276.05	2529.24
276.26	2672.60
276.48	2574.30
276.69	2668.50
276.91	2662.36
277.12	2930.64
277.34	2701.27
277.55	2797.53
277.77	2627.54
277.99	2621.40
278.20	2580.44
278.42	2523.10
278.63	2631.64
278.85	2686.94
279.06	2496.47
279.28	2766.81
279.49	2885.59
279.71	2791.38
279.93	2623.45
280.14	2594.78
280.36	2645.98
280.57	2801.62
280.79	2715.61
281.00	2512.86
281.22	2664.41
281.43	2881.49
281.65	2400.22
281.86	2521.05
282.08	2695.13
282.29	2963.41
282.51	2488.28
282.73	2564.06
282.94	2500.57
283.16	2762.71
283.37	2701.27
283.59	2652.12
283.80	2811.86
284.02	2744.28
284.23	2664.41
284.45	2611.16
284.66	2596.82
284.88	2623.45
285.09	2588.63
285.31	2654.17
285.52	2777.05
285.74	2494.43
285.95	2682.84
286.17	2674.65
286.38	2828.24
286.60	2625.50
286.81	2533.34
287.03	2508.76
287.24	2676.70
287.46	2719.70
287.67	2637.78
287.89	2838.48
288.10	2701.27
288.32	2758.61
288.53	2797.53
288.75	2656.22
288.96	2846.68
289.18	2670.55
289.39	2502.62
289.61	2734.04
289.82	2957.27
290.04	3110.86
290.25	2492.38
290.47	2643.93
290.68	2652.12
290.90	2871.25
291.11	2437.08
291.33	2779.09
291.54	2617.30
291.76	2652.12
291.97	2705.37
292.18	2684.89
292.40	2605.02
292.61	2611.16
292.83	2887.64
293.04	2592.73
293.26	2752.47
293.47	2664.41
293.69	2590.68
293.90	2531.29
294.12	2863.06
294.33	2740.18
294.55	2635.74
294.76	2660.31
294.97	2916.31
295.19	3039.19
295.40	2613.21
295.62	2670.55
295.83	2807.77
296.05	2629.59
296.26	2824.15
296.48	2592.73
296.69	2686.94
296.90	2662.36
297.12	2740.18
297.33	2807.77
297.55	2754.52
297.76	2760.66
297.98	2760.66
298.19	2707.41
298.41	2764.76
298.62	2676.70
298.83	2758.61
299.05	2717.65
299.26	2609.11
299.48	2641.88
299.69	2703.32
299.90	2594.78
300.12	2584.54
300.33	2852.82
300.55	2674.65
300.76	2578.39
300.98	2580.44
301.19	2807.77
301.40	2609.11
301.62	2562.01
301.83	2805.72
302.05	2715.61
302.26	2605.02
302.47	2568.15
302.69	2562.01
302.90	2742.23
303.12	2396.12
303.33	2621.40
303.54	3006.42
303.76	2643.93
303.97	2576.34
304.19	2836.44
304.40	2588.63
304.61	2836.44
304.83	2777.05
305.04	2744.28
305.26	2799.57
305.47	2652.12
305.68	2598.87
305.90	2531.29
306.11	2871.25
306.33	2641.88
306.54	2480.09
306.75	2564.06
306.97	2570.20
307.18	2631.64
307.39	2537.43
307.61	2703.32
307.82	2734.04
308.04	2797.53
308.25	2559.96
308.46	2701.27
308.68	2717.65
308.89	2650.07
309.10	2725.85
309.32	2592.73
309.53	2752.47
309.74	2795.48
309.96	2555.86
310.17	2809.81
310.39	2596.82
310.60	2772.95
310.81	2629.59
311.03	2512.86
311.24	2815.96
311.45	2666.46
311.67	2752.47
311.88	2682.84
312.09	2668.50
312.31	2723.80
312.52	2555.86
312.73	2590.68
312.95	2457.56
313.16	2619.35
313.37	2725.85
313.59	2746.33
313.80	2791.38
314.01	2914.26
314.23	2609.11
314.44	2500.57
314.65	2549.72
314.87	2566.10
315.08	2559.96
315.29	2662.36
315.51	2564.06
315.72	2516.95
315.93	2693.08
316.15	2656.22
316.36	2645.98
316.57	2676.70
316.79	2662.36
317.00	2566.10
317.21	2793.43
317.43	2621.40
317.64	2635.74
317.85	2486.23
318.07	2621.40
318.28	2643.93
318.49	2758.61
318.70	2834.39
318.92	2803.67
319.13	2834.39
319.34	2723.80
319.56	2652.12
319.77	2824.15
319.98	2840.53
320.20	2793.43
320.41	2760.66
320.62	2740.18
320.83	2617.30
321.05	2834.39
321.26	2691.03
321.47	2729.94
321.69	2863.06
321.90	2549.72
322.11	2516.95
322.32	2734.04
322.54	2994.13
322.75	2648.02
322.96	3284.94
323.18	2490.33
323.39	2537.43
323.60	2512.86
323.81	2803.67
324.03	2670.55
324.24	2672.60
324.45	2641.88
324.66	2611.16
324.88	2869.20
325.09	2871.25
325.30	2641.88
325.52	2584.54
325.73	2844.63
325.94	2652.12
326.15	2516.95
326.37	2516.95
326.58	2807.77
326.79	2926.55
327.00	2496.47
327.22	2654.17
327.43	2652.12
327.64	2570.20
327.85	2709.46
328.07	2703.32
328.28	3043.28
328.49	2701.27
328.70	2594.78
328.92	2584.54
329.13	2699.22
329.34	2787.29
329.55	2815.96
329.76	2711.51
329.98	2736.09
330.19	2914.26
330.40	2760.66
330.61	2666.46
330.83	2869.20
331.04	2607.06
331.25	2682.84
331.46	2580.44
331.68	2504.67
331.89	2809.81
332.10	2707.41
332.31	2480.09
332.52	2676.70
332.74	2840.53
332.95	2437.08
333.16	2535.39
333.37	2899.92
333.58	2602.97
333.80	2709.46
334.01	2439.13
334.22	2693.08
334.43	2621.40
334.64	2562.01
334.86	2555.86
335.07	2539.48
335.28	2963.41
335.49	2527.19
335.70	2572.25
335.92	2912.21
336.13	3043.28
336.34	2695.13
336.55	2666.46
336.76	2797.53
336.98	2394.08
337.19	2627.54
337.40	2697.17
337.61	3078.10
337.82	2736.09
338.04	2705.37
338.25	2488.28
338.46	2658.26
338.67	2672.60
338.88	2496.47
339.09	2432.99
339.31	2625.50
339.52	2572.25
339.73	2557.91
339.94	2682.84
340.15	2881.49
340.36	2619.35
340.58	2676.70
340.79	2482.14
341.00	2858.96
341.21	2525.15
341.42	2772.95
341.63	2641.88
341.85	2924.50
342.06	2803.67
342.27	2574.30
342.48	2725.85
342.69	2588.63
342.90	2795.48
343.12	2854.87
343.33	2525.15
343.54	2891.73
343.75	2932.69
343.96	2637.78
344.17	2549.72
344.38	2676.70
344.60	2590.68
344.81	2541.53
345.02	2566.10
345.23	2889.68
345.44	3059.67
345.65	2621.40
345.86	2719.70
346.07	2723.80
346.29	2678.74
346.50	2717.65
346.71	2693.08
346.92	2871.25
347.13	3041.23
347.34	2695.13
347.55	2521.05
347.76	2744.28
347.98	2498.52
348.19	2637.78
348.40	2760.66
348.61	2680.79
348.82	3016.66
349.03	2734.04
349.24	2535.39
349.45	2996.18
349.66	2435.03
349.88	2627.54
350.09	2553.82
350.30	2947.03
350.51	2936.79
350.72	2631.64
350.93	2658.26
351.14	2699.22
351.35	2824.15
351.56	2695.13
351.77	2623.45
351.99	2686.94
352.20	2932.69
352.41	2736.09
352.62	2463.71
352.83	2697.17
353.04	2723.80
353.25	2564.06
353.46	2639.83
353.67	2850.77
353.88	2459.61
354.09	2660.31
354.30	2650.07
354.52	2879.44
354.73	2758.61
354.94	2578.39
355.15	2609.11
355.36	3014.61
355.57	2643.93
355.78	2631.64
355.99	2619.35
356.20	2660.31
356.41	2838.48
356.62	2654.17
356.83	2629.59
357.04	2969.55
357.25	2551.77
357.46	2605.02
357.68	2426.84
357.89	2564.06
358.10	2703.32
358.31	2666.46
358.52	2611.16
358.73	2529.24
358.94	2564.06
359.15	2625.50
359.36	2656.22
359.57	2721.75
359.78	2695.13
359.99	2729.94
360.20	2559.96
360.41	2713.56
360.62	2760.66
360.83	2674.65
361.04	2711.51
361.25	2885.59
361.46	2926.55
361.67	2744.28
361.88	2623.45
362.09	2852.82
362.30	2727.89
362.51	2568.15
362.72	2619.35
362.93	2875.35
363.14	2736.09
363.35	2684.89
363.56	2547.67
363.78	2914.26
363.99	2877.40
364.20	2529.24
364.41	2709.46
364.62	3045.33
364.83	2721.75
365.04	2650.07
365.25	2695.13
365.46	3129.30
365.67	2600.92
365.88	2734.04
366.09	2609.11
366.30	2660.31
366.51	2781.14
366.72	2484.19
366.93	2559.96
367.14	2772.95
367.35	2953.17
367.56	2582.49
367.77	2731.99
367.98	2736.09
368.18	2879.44
368.39	2680.79
368.60	2555.86
368.81	2856.92
369.02	2789.33
369.23	2580.44
369.44	2373.60
369.65	2625.50
369.86	2752.47
370.07	2764.76
370.28	2566.10
370.49	2693.08
370.70	2807.77
370.91	2535.39
371.12	2488.28
371.33	2850.77
371.54	2707.41
371.75	2813.91
371.96	2332.64
372.17	2775.00
372.38	2598.87
372.59	2725.85
372.80	2543.58
373.01	2715.61
373.22	2721.75
373.43	2514.91
373.64	2377.69
373.85	2871.25
374.06	2981.84
374.26	2760.66
374.47	2670.55
374.68	3000.27
374.89	2719.70
375.10	2592.73
375.31	2703.32
375.52	2701.27
375.73	2709.46
375.94	2500.57
376.15	2748.37
376.36	2559.96
376.57	2602.97
376.78	2650.07
376.99	2719.70
377.20	2852.82
377.40	2719.70
377.61	2863.06
377.82	2512.86
378.03	3006.42
378.24	2822.10
378.45	2639.83
378.66	2666.46
378.87	2478.04
379.08	2596.82
379.29	2525.15
379.50	2791.38
379.71	2742.23
379.91	2811.86
380.12	2564.06
380.33	2660.31
380.54	2705.37
380.75	2721.75
380.96	2723.80
381.17	2615.26
381.38	2678.74
381.59	2785.24
381.80	2570.20
382.00	2852.82
382.21	2703.32
382.42	2994.13
382.63	2908.12
382.84	2734.04
383.05	2787.29
383.26	2895.83
383.47	2709.46
383.68	2674.65
383.88	2785.24
384.09	2727.89
384.30	2713.56
384.51	2801.62
384.72	2693.08
384.93	2484.19
385.14	2768.85
385.35	2791.38
385.55	2488.28
385.76	2897.88
385.97	2648.02
386.18	2445.27
386.39	2611.16
386.60	2633.69
386.81	2637.78
387.02	2553.82
387.22	2600.92
387.43	2775.00
387.64	2701.27
387.85	2877.40
388.06	2731.99
388.27	3932.10
388.48	7559.05
388.68	11020.12
388.89	13236.02
389.10	14206.76
389.31	13483.83
389.52	10915.67
389.73	9271.15
389.93	8472.45
390.14	7853.96
390.35	7053.20
390.56	6490.01
390.77	5314.48
390.98	4030.40
391.18	3520.46
391.39	3149.78
391.60	2785.24
391.81	2881.49
392.02	2678.74
392.23	3092.43
392.43	2744.28
392.64	2740.18
392.85	2633.69
393.06	2961.36
393.27	2684.89
393.47	2580.44
393.68	2650.07
393.89	2693.08
394.10	2875.35
394.31	2572.25
394.52	2631.64
394.72	2643.93
394.93	2940.88
395.14	2514.91
395.35	2715.61
395.56	2629.59
395.76	2695.13
395.97	2643.93
396.18	2758.61
396.39	2754.52
396.60	3176.40
396.80	2949.08
397.01	2846.68
397.22	2826.20
397.43	2934.74
397.64	2555.86
397.84	2772.95
398.05	3026.90
398.26	2680.79
398.47	2799.57
398.67	2834.39
398.88	2664.41
399.09	2828.24
399.30	2682.84
399.51	2754.52
399.71	2645.98
399.92	2629.59
400.13	2695.13
400.34	2686.94
400.54	2818.00
400.75	2949.08
400.96	2602.97
401.17	2863.06
401.37	2779.09
401.58	2705.37
401.79	2635.74
402.00	2807.77
402.21	3155.92
402.41	2934.74
402.62	2949.08
402.83	2996.18
403.04	3190.74
403.24	3252.17
403.45	2809.81
403.66	2899.92
403.87	2906.07
404.07	3088.34
404.28	2877.40
404.49	2852.82
404.70	2828.24
404.90	2875.35
405.11	2635.74
405.32	2748.37
405.52	2648.02
405.73	2645.98
405.94	2473.95
406.15	2645.98
406.35	2887.64
406.56	2858.96
406.77	2721.75
406.98	2650.07
407.18	2619.35
407.39	2924.50
407.60	2584.54
407.80	2654.17
408.01	2568.15
408.22	2781.14
408.43	2572.25
408.63	2797.53
408.84	2805.72
409.05	2801.62
409.25	2625.50
409.46	2621.40
409.67	2629.59
409.88	2621.40
410.08	2707.41
410.29	2607.06
410.50	2840.53
410.70	2832.34
410.91	2580.44
411.12	2721.75
411.32	2746.33
411.53	2555.86
411.74	2627.54
411.95	2740.18
412.15	2670.55
412.36	2848.72
412.57	2688.98
412.77	2891.73
412.98	2705.37
413.19	2662.36
413.39	2719.70
413.60	2678.74
413.81	2961.36
414.01	2578.39
414.22	2744.28
414.43	2844.63
414.63	2643.93
414.84	2805.72
415.05	2676.70
415.25	2486.23
415.46	2770.90
415.67	2639.83
415.87	2625.50
416.08	2570.20
416.29	2684.89
416.49	2869.20
416.70	2645.98
416.91	2613.21
417.11	2750.42
417.32	2861.01
417.53	2834.39
417.73	2734.04
417.94	2695.13
418.15	2717.65
418.35	2633.69
418.56	2688.98
418.77	3016.66
418.97	2750.42
419.18	2670.55
419.38	2367.45
419.59	2691.03
419.80	2940.88
420.00	2588.63
420.21	2654.17
420.42	2906.07
420.62	2803.67
420.83	2633.69
421.04	2576.34
421.24	2664.41
421.45	2875.35
421.65	2652.12
421.86	2662.36
422.07	2908.12
422.27	2742.23
422.48	2625.50
422.69	2498.52
422.89	2736.09
423.10	2701.27
423.30	2592.73
423.51	2676.70
423.72	2865.11
423.92	2791.38
424.13	2455.51
424.33	2629.59
424.54	2848.72
424.75	2703.32
424.95	2891.73
425.16	2650.07
425.36	2711.51
425.57	2922.45
425.78	2678.74
425.98	2686.94
426.19	2688.98
426.39	2535.39
426.60	2672.60
426.81	2717.65
427.01	2729.94
427.22	2658.26
427.42	2428.89
427.63	2586.58
427.83	2865.11
428.04	2852.82
428.25	2758.61
428.45	2748.37
428.66	2863.06
428.86	2719.70
429.07	2719.70
429.28	2703.32
429.48	2738.13
429.69	2609.11
429.89	2674.65
430.10	2496.47
430.30	2752.47
430.51	2912.21
430.71	2537.43
430.92	2699.22
431.13	2645.98
431.33	2883.54
431.54	2666.46
431.74	2906.07
431.95	3125.20
432.15	2588.63
432.36	2699.22
432.56	2666.46
432.77	2987.99
432.98	2975.70
433.18	2740.18
433.39	2568.15
433.59	2709.46
433.80	2987.99
434.00	2879.44
434.21	2656.22
434.41	2564.06
434.62	3104.72
434.82	2576.34
435.03	2574.30
435.23	2820.05
435.44	2490.33
435.64	2705.37
435.85	2598.87
436.06	2785.24
436.26	2840.53
436.47	2633.69
436.67	2521.05
436.88	2605.02
437.08	2887.64
437.29	2818.00
437.49	2742.23
437.70	2906.07
437.90	2650.07
438.11	2801.62
438.31	2684.89
438.52	2932.69
438.72	2906.07
438.93	2996.18
439.13	2672.60
439.34	2897.88
439.54	2670.55
439.75	2791.38
439.95	2691.03
440.16	2592.73
440.36	2703.32
440.57	2713.56
440.77	2623.45
440.98	2711.51
441.18	2791.38
441.39	2568.15
441.59	2568.15
441.80	3010.51
442.00	2703.32
442.21	2727.89
442.41	2531.29
442.62	2795.48
442.82	2623.45
443.02	2586.58
443.23	2654.17
443.43	2660.31
443.64	2944.98
443.84	2586.58
444.05	2766.81
444.25	2725.85
444.46	2723.80
444.66	2660.31
444.87	2883.54
445.07	2449.37
445.28	2670.55
445.48	2760.66
445.69	2738.13
445.89	3051.47
446.09	2688.98
446.30	2944.98
446.50	3061.71
446.71	4485.05
446.91	5605.29
447.12	6436.77
447.32	6893.46
447.53	6428.57
447.73	5390.25
447.93	4757.43
448.14	4581.31
448.34	4595.64
448.55	3903.43
448.75	3932.10
448.96	3571.66
449.16	3403.72
449.36	3250.13
449.57	2899.92
449.77	2824.15
449.98	2676.70
450.18	2750.42
450.39	2709.46
450.59	2760.66
450.79	2699.22
451.00	2539.48
451.20	2797.53
451.41	2631.64
451.61	2824.15
451.81	2629.59
452.02	2645.98
452.22	2625.50
452.43	2596.82
452.63	2668.50
452.84	2686.94
453.04	2582.49
453.24	2748.37
453.45	2621.40
453.65	2623.45
453.86	2775.00
454.06	2813.91
454.26	2760.66
454.47	2590.68
454.67	2873.30
454.87	2719.70
455.08	2619.35
455.28	2856.92
455.49	2717.65
455.69	2629.59
455.89	2983.89
456.10	2768.85
456.30	2666.46
456.51	2752.47
456.71	2811.86
456.91	2693.08
457.12	2635.74
457.32	2834.39
457.52	2539.48
457.73	2818.00
457.93	2836.44
458.14	2613.21
458.34	2500.57
458.54	2639.83
458.75	2635.74
458.95	2904.02
459.15	2813.91
459.36	2713.56
459.56	2660.31
459.76	3059.67
459.97	2719.70
460.17	2666.46
460.37	2736.09
460.58	2746.33
460.78	2854.87
460.99	2656.22
461.19	2631.64
461.39	2660.31
461.60	2727.89
461.80	2686.94
462.00	2551.77
462.21	2697.17
462.41	2613.21
462.61	2533.34
462.82	2463.71
463.02	2869.20
463.22	2631.64
463.43	2738.13
463.63	2629.59
463.83	2936.79
464.04	2766.81
464.24	2658.26
464.44	2566.10
464.64	2781.14
464.85	2861.01
465.05	2721.75
465.25	2596.82
465.46	2629.59
465.66	2824.15
465.86	2697.17
466.07	2695.13
466.27	2713.56
466.47	2463.71
466.68	2506.71
466.88	2805.72
467.08	2779.09
467.29	2858.96
467.49	2691.03
467.69	2697.17
467.89	2754.52
468.10	2662.36
468.30	2637.78
468.50	2871.25
468.71	2924.50
468.91	2572.25
469.11	2875.35
469.31	2678.74
469.52	2570.20
469.72	3039.19
469.92	2908.12
470.13	2680.79
470.33	2818.00
470.53	2828.24
470.73	2951.12
470.94	3340.24
471.14	3366.86
471.34	3889.09
471.54	3567.56
471.75	3362.76
471.95	3082.19
472.15	3061.71
472.36	3233.74
472.56	2994.13
472.76	3151.82
472.96	3088.34
473.17	2867.16
473.37	2760.66
473.57	2691.03
473.77	2846.68
473.98	2752.47
474.18	2516.95
474.38	3260.37
474.58	2672.60
474.79	2633.69
474.99	2762.71
475.19	2899.92
475.39	2527.19
475.60	2711.51
475.80	2668.50
476.00	2805.72
476.20	2674.65
476.41	2660.31
476.61	2768.85
476.81	2916.31
477.01	2615.26
477.21	2807.77
477.42	2815.96
477.62	2615.26
477.82	2813.91
478.02	2666.46
478.23	2703.32
478.43	2572.25
478.63	2613.21
478.83	2668.50
479.03	2643.93
479.24	2873.30
479.44	3059.67
479.64	2488.28
479.84	2445.27
480.04	2693.08
480.25	2897.88
480.45	2586.58
480.65	2629.59
480.85	2934.74
481.06	2623.45
481.26	2754.52
481.46	2717.65
481.66	2795.48
481.86	2623.45
482.06	2742.23
482.27	2746.33
482.47	2576.34
482.67	2756.57
482.87	2627.54
483.07	2781.14
483.28	2652.12
483.48	2584.54
483.68	2654.17
483.88	2502.62
484.08	2437.08
484.29	2551.77
484.49	2693.08
484.69	2486.23
484.89	2904.02
485.09	2912.21
485.29	2731.99
485.50	2832.34
485.70	2686.94
485.90	2934.74
486.10	2783.19
486.30	2623.45
486.50	2936.79
486.71	2795.48
486.91	2762.71
487.11	2768.85
487.31	2488.28
487.51	2793.43
487.71	2547.67
487.91	2596.82
488.12	2564.06
488.32	2426.84
488.52	2557.91
488.72	2416.60
488.92	2783.19
489.12	2822.10
489.32	2824.15
489.53	2676.70
489.73	2453.47
489.93	3047.38
490.13	2555.86
490.33	2469.85
490.53	2744.28
490.73	2912.21
490.94	2471.90
491.14	2809.81
491.34	2818.00
491.54	2912.21
491.74	3485.64
491.94	4038.59
492.14	4437.95
492.34	4472.76
492.54	4134.85
492.75	3493.83
492.95	3616.71
493.15	3432.40
493.35	3268.56
493.55	3237.84
493.75	3186.64
493.95	3172.30
494.15	2901.97
494.35	2729.94
494.56	2707.41
494.76	2625.50
494.96	2805.72
495.16	2629.59
495.36	2805.72
495.56	2807.77
495.76	2688.98
495.96	2576.34
496.16	2594.78
496.36	2996.18
496.56	2572.25
496.77	2746.33
496.97	2658.26
497.17	2858.96
497.37	2555.86
497.57	2815.96
497.77	2740.18
497.97	2568.15
498.17	2650.07
498.37	2631.64
498.57	2785.24
498.77	2645.98
498.97	2805.72
499.17	2887.64
499.38	2725.85
499.58	2813.91
499.78	2789.33
499.98	2830.29
500.18	2707.41
500.38	2674.65
500.58	2820.05
500.78	3229.65
500.98	5371.82
501.18	7061.40
501.38	8472.45
501.58	9422.70
501.78	9338.74
501.98	7534.48
502.18	6580.12
502.38	5580.71
502.58	5296.05
502.78	4845.49
502.98	4526.01
503.18	4390.84
503.38	4208.58
503.59	3491.79
503.79	3506.12
503.99	3227.60
504.19	3243.98
504.39	3123.15
504.59	3153.87
504.79	3000.27
504.99	3207.12
505.19	2836.44
505.39	2840.53
505.59	3014.61
505.79	2930.64
505.99	2957.27
506.19	2752.47
506.39	2863.06
506.59	2652.12
506.79	2789.33
506.99	2850.77
507.19	2699.22
507.39	2785.24
507.59	2506.71
507.79	2588.63
507.99	2547.67
508.19	2656.22
508.39	2611.16
508.59	2668.50
508.79	2789.33
508.99	3088.34
509.19	2754.52
509.39	2727.89
509.59	2633.69
509.79	2672.60
509.99	2750.42
510.19	2815.96
510.39	2711.51
510.59	2750.42
510.79	2594.78
510.99	2523.10
511.19	2668.50
511.39	2912.21
511.59	2889.68
511.79	2840.53
511.99	2705.37
512.19	3030.99
512.38	2711.51
512.58	2588.63
512.78	2598.87
512.98	2979.79
513.18	2949.08
513.38	2551.77
513.58	2772.95
513.78	2629.59
513.98	2770.90
514.18	2682.84
514.38	2662.36
514.58	2805.72
514.78	2611.16
514.98	2586.58
515.18	2641.88
515.38	2566.10
515.58	2975.70
515.78	2594.78
515.98	2660.31
516.18	2850.77
516.38	2781.14
516.57	2611.16
516.77	2629.59
516.97	2785.24
517.17	2627.54
517.37	2523.10
517.57	2803.67
517.77	2682.84
517.97	2631.64
518.17	2738.13
518.37	2482.14
518.57	2600.92
518.77	2678.74
518.97	2678.74
519.16	2666.46
519.36	2901.97
519.56	2658.26
519.76	2645.98
519.96	2709.46
520.16	2856.92
520.36	2605.02
520.56	2768.85
520.76	2621.40
520.96	2609.11
521.16	2942.93
521.35	2805.72
521.55	2809.81
521.75	2818.00
521.95	2680.79
522.15	2609.11
522.35	2555.86
522.55	2578.39
522.75	2869.20
522.95	2643.93
523.14	2467.80
523.34	2811.86
523.54	2572.25
523.74	2781.14
523.94	2699.22
524.14	2555.86
524.34	2873.30
524.54	2908.12
524.73	2635.74
524.93	2760.66
525.13	2695.13
525.33	2508.76
525.53	2899.92
525.73	2879.44
525.93	2682.84
526.13	2658.26
526.32	2613.21
526.52	2820.05
526.72	2852.82
526.92	2676.70
527.12	2650.07
527.32	2514.91
527.52	2781.14
527.71	2727.89
527.91	2707.41
528.11	2600.92
528.31	2658.26
528.51	2625.50
528.71	2705.37
528.90	2752.47
529.10	2926.55
529.30	2793.43
529.50	2473.95
529.70	2736.09
529.90	2760.66
530.09	2662.36
530.29	2471.90
530.49	2586.58
530.69	3129.30
530.89	2740.18
531.09	2746.33
531.28	2652.12
531.48	2914.26
531.68	2746.33
531.88	2686.94
532.08	2811.86
532.28	2684.89
532.47	2721.75
532.67	2797.53
532.87	2885.59
533.07	2572.25
533.27	2725.85
533.46	2742.23
533.66	2770.90
533.86	2797.53
534.06	2670.55
534.26	2693.08
534.45	2705.37
534.65	2834.39
534.85	2791.38
535.05	2559.96
535.25	2883.54
535.44	2484.19
535.64	2795.48
535.84	2611.16
536.04	2729.94
536.24	2670.55
536.43	2576.34
536.63	2662.36
536.83	2731.99
537.03	2678.74
537.22	2592.73
537.42	2475.99
537.62	2781.14
537.82	2551.77
538.02	2807.77
538.21	2801.62
538.41	3151.82
538.61	2764.76
538.81	2684.89
539.00	2754.52
539.20	2486.23
539.40	2672.60
539.60	2693.08
539.79	2711.51
539.99	2639.83
540.19	2666.46
540.39	2629.59
540.58	2660.31
540.78	2975.70
540.98	2777.05
541.18	2793.43
541.37	2750.42
541.57	2697.17
541.77	2838.48
541.97	2578.39
542.16	2488.28
542.36	2670.55
542.56	2664.41
542.76	2836.44
542.95	2772.95
543.15	2834.39
543.35	2914.26
543.54	2535.39
543.74	2559.96
543.94	2990.03
544.14	2680.79
544.33	2750.42
544.53	2617.30
544.73	2643.93
544.93	2635.74
545.12	2678.74
545.32	2648.02
545.52	2639.83
545.71	2576.34
545.91	2676.70
546.11	2588.63
546.30	2586.58
546.50	2746.33
546.70	2750.42
546.90	2699.22
547.09	2488.28
547.29	2695.13
547.49	2813.91
547.68	2625.50
547.88	2658.26
548.08	2805.72
548.27	3078.10
548.47	2525.15
548.67	2676.70
548.87	2729.94
549.06	2643.93
549.26	2617.30
549.46	2818.00
549.65	2668.50
549.85	2682.84
550.05	2645.98
550.24	2600.92
550.44	2760.66
550.64	2658.26
550.83	2662.36
551.03	2891.73
551.23	2936.79
551.42	2684.89
551.62	2686.94
551.82	2734.04
552.01	2652.12
552.21	2971.60
552.41	2637.78
552.60	2940.88
552.80	2766.81
553.00	2676.70
553.19	2666.46
553.39	2985.94
553.59	2545.63
553.78	2793.43
553.98	2639.83
554.17	2568.15
554.37	2742.23
554.57	2760.66
554.76	2496.47
554.96	2666.46
555.16	2719.70
555.35	2645.98
555.55	2752.47
555.75	2736.09
555.94	2897.88
556.14	2465.75
556.33	2723.80
556.53	2672.60
556.73	2705.37
556.92	2717.65
557.12	2688.98
557.32	2983.89
557.51	2963.41
557.71	2686.94
557.90	2865.11
558.10	2944.98
558.30	2676.70
558.49	2609.11
558.69	2641.88
558.88	2807.77
559.08	2731.99
559.28	2654.17
559.47	2678.74
559.67	2818.00
559.86	3053.52
560.06	2668.50
560.26	2650.07
560.45	2723.80
560.65	2654.17
560.84	2770.90
561.04	2559.96
561.24	2846.68
561.43	2605.02
561.63	2899.92
561.82	2672.60
562.02	2815.96
562.22	2582.49
562.41	2568.15
562.61	2648.02
562.80	2521.05
563.00	3078.10
563.19	2764.76
563.39	2801.62
563.59	2858.96
563.78	2592.73
563.98	2412.51
564.17	2625.50
564.37	2514.91
564.56	2627.54
564.76	2488.28
564.96	2811.86
565.15	2736.09
565.35	3012.56
565.54	2621.40
565.74	2709.46
565.93	2758.61
566.13	2768.85
566.32	2664.41
566.52	2822.10
566.71	2744.28
566.91	2842.58
567.11	2760.66
567.30	2523.10
567.50	2758.61
567.69	2838.48
567.89	2623.45
568.08	2553.82
568.28	2781.14
568.47	2648.02
568.67	2676.70
568.86	2643.93
569.06	2824.15
569.25	2682.84
569.45	2484.19
569.64	2609.11
569.84	2674.65
570.04	2770.90
570.23	2627.54
570.43	2639.83
570.62	2701.27
570.82	2961.36
571.01	2600.92
571.21	2639.83
571.40	2574.30
571.60	2865.11
571.79	2709.46
571.99	2611.16
572.18	2609.11
572.38	2711.51
572.57	2621.40
572.77	2676.70
572.96	3162.06
573.16	2818.00
573.35	2623.45
573.55	2826.20
573.74	2858.96
573.94	2729.94
574.13	2607.06
574.33	2770.90
574.52	2830.29
574.71	2742.23
574.91	2742.23
575.10	2535.39
575.30	2686.94
575.49	2615.26
575.69	2555.86
575.88	2719.70
576.08	2715.61
576.27	2924.50
576.47	2576.34
576.66	2801.62
576.86	2914.26
577.05	2777.05
577.25	2670.55
577.44	2856.92
577.64	2609.11
577.83	2867.16
578.02	2627.54
578.22	2797.53
578.41	3094.48
578.61	2754.52
578.80	2596.82
579.00	2678.74
579.19	2748.37
579.39	2789.33
579.58	2717.65
579.77	2787.29
579.97	2932.69
580.16	2883.54
580.36	2842.58
580.55	2801.62
580.75	2848.72
580.94	2787.29
581.13	2750.42
581.33	2897.88
581.52	2742.23
581.72	3004.37
581.91	2818.00
582.11	2621.40
582.30	2914.26
582.49	2725.85
582.69	2848.72
582.88	2793.43
583.08	2809.81
583.27	2813.91
583.47	2729.94
583.66	2660.31
583.85	2553.82
584.05	2713.56
584.24	2799.57
584.44	2641.88
584.63	2904.02
584.82	2895.83
585.02	2897.88
585.21	2772.95
585.41	2865.11
585.60	2842.58
585.79	2947.03
585.99	2971.60
586.18	2836.44
586.37	3485.64
586.57	5394.35
586.76	15836.94
586.96	34852.33
587.15	47838.50
587.34	56534.18
587.54	61006.94
587.73	54492.35
587.93	38444.47
588.12	29132.36
588.31	23770.77
588.51	20692.68
588.70	19148.51
588.89	16948.99
589.09	14520.10
589.28	12517.18
589.47	9844.59
589.67	7661.45
589.86	6018.98
590.06	4530.11
590.25	3950.53
590.44	3416.01
590.64	3164.11
590.83	2953.17
591.02	3088.34
591.22	2691.03
591.41	2799.57
591.60	2803.67
591.80	3205.07
591.99	2539.48
592.18	2660.31
592.38	2842.58
592.57	2660.31
592.76	2697.17
592.96	2707.41
593.15	2680.79
593.34	2893.78
593.54	2650.07
593.73	2760.66
593.92	2824.15
594.12	2768.85
594.31	2645.98
594.50	2899.92
594.70	2768.85
594.89	3243.98
595.08	2541.53
595.28	2797.53
595.47	3262.41
595.66	2955.22
595.86	2598.87
596.05	2584.54
596.24	2678.74
596.43	3045.33
596.63	2721.75
596.82	2768.85
597.01	2914.26
597.21	2987.99
597.40	2762.71
597.59	2678.74
597.79	2734.04
597.98	2742.23
598.17	2775.00
598.36	2740.18
598.56	2840.53
598.75	2760.66
598.94	2707.41
599.14	2713.56
599.33	2676.70
599.52	2838.48
599.71	2752.47
599.91	2729.94
600.10	2766.81
600.29	2770.90
600.48	2820.05
600.68	2777.05
600.87	2799.57
601.06	2617.30
601.26	2703.32
601.45	2699.22
601.64	2740.18
601.83	2885.59
602.03	2641.88
602.22	2539.48
602.41	2897.88
602.60	3033.04
602.80	2731.99
602.99	2863.06
603.18	2678.74
603.37	2715.61
603.57	2664.41
603.76	2736.09
603.95	2867.16
604.14	2703.32
604.34	2623.45
604.53	2607.06
604.72	2777.05
604.91	2856.92
605.10	2727.89
605.30	2545.63
605.49	2990.03
605.68	2760.66
605.87	2742.23
606.07	2482.14
606.26	2809.81
606.45	2832.34
606.64	2746.33
606.84	2553.82
607.03	2815.96
607.22	2926.55
607.41	2641.88
607.60	2617.30
607.80	2854.87
607.99	2742.23
608.18	2744.28
608.37	2693.08
608.56	2598.87
608.76	2926.55
608.95	2815.96
609.14	2725.85
609.33	2906.07
609.52	2938.84
609.72	2695.13
609.91	2717.65
610.10	2799.57
610.29	2998.23
610.48	2725.85
610.68	2693.08
610.87	2742.23
611.06	2777.05
611.25	2688.98
611.44	2772.95
611.63	2707.41
611.83	2953.17
612.02	2576.34
612.21	2815.96
612.40	2475.99
612.59	2525.15
612.79	2598.87
612.98	2715.61
613.17	2928.60
613.36	2736.09
613.55	2783.19
613.74	2664.41
613.93	2750.42
614.13	2856.92
614.32	2803.67
614.51	2764.76
614.70	2703.32
614.89	2648.02
615.08	2826.20
615.28	3065.81
615.47	2527.19
615.66	2840.53
615.85	2729.94
616.04	2826.20
616.23	2734.04
616.42	2711.51
616.62	2715.61
616.81	2758.61
617.00	2707.41
617.19	2897.88
617.38	2596.82
617.57	2791.38
617.76	2805.72
617.95	2887.64
618.15	2803.67
618.34	2926.55
618.53	2547.67
618.72	2844.63
618.91	2770.90
619.10	2768.85
619.29	2652.12
619.48	2725.85
619.68	2574.30
619.87	2693.08
620.06	2537.43
620.25	2875.35
620.44	2654.17
620.63	2680.79
620.82	2744.28
621.01	2775.00
621.20	2699.22
621.39	2746.33
621.59	2815.96
621.78	2777.05
621.97	2660.31
622.16	2799.57
622.35	2797.53
622.54	2832.34
622.73	2750.42
622.92	2482.14
623.11	2858.96
623.30	2711.51
623.49	2756.57
623.68	2611.16
623.88	2996.18
624.07	2701.27
624.26	2719.70
624.45	2748.37
624.64	2660.31
624.83	2703.32
625.02	2627.54
625.21	2660.31
625.40	2783.19
625.59	2867.16
625.78	2752.47
625.97	2815.96
626.16	2899.92
626.35	2869.20
626.54	2658.26
626.74	2863.06
626.93	2750.42
627.12	2678.74
627.31	2744.28
627.50	2695.13
627.69	2799.57
627.88	2637.78
628.07	2570.20
628.26	2500.57
628.45	2678.74
628.64	2564.06
628.83	2609.11
629.02	2510.81
629.21	2914.26
629.40	2838.48
629.59	2512.86
629.78	2562.01
629.97	2727.89
630.16	2715.61
630.35	2623.45
630.54	2713.56
630.73	2695.13
630.92	2688.98
631.11	2607.06
631.30	2729.94
631.49	2805.72
631.68	2670.55
631.87	2625.50
632.06	2529.24
632.25	3080.14
632.44	2742.23
632.63	2668.50
632.82	2688.98
633.01	2637.78
633.20	2744.28
633.39	2656.22
633.58	2598.87
633.77	2850.77
633.96	2869.20
634.15	2772.95
634.34	2734.04
634.53	2760.66
634.72	2686.94
634.91	2461.66
635.10	2693.08
635.29	2791.38
635.48	2740.18
635.67	2586.58
635.86	2441.18
636.05	2979.79
636.24	2736.09
636.43	2693.08
636.62	2801.62
636.81	2404.32
637.00	2680.79
637.19	2752.47
637.38	2727.89
637.57	2711.51
637.76	2736.09
637.95	2768.85
638.14	2758.61
638.33	2766.81
638.52	2738.13
638.71	2627.54
638.89	2535.39
639.08	3153.87
639.27	2904.02
639.46	2820.05
639.65	3110.86
639.84	3209.17
640.03	3209.17
640.22	3088.34
640.41	3153.87
640.60	2734.04
640.79	2953.17
640.98	2789.33
641.17	2879.44
641.36	2863.06
641.55	2883.54
641.74	2535.39
641.92	2611.16
642.11	2641.88
642.30	2662.36
642.49	2598.87
642.68	2580.44
642.87	2736.09
643.06	2865.11
643.25	2602.97
643.44	2584.54
643.63	2731.99
643.82	2818.00
644.00	2512.86
644.19	2672.60
644.38	2658.26
644.57	2858.96
644.76	2633.69
644.95	2674.65
645.14	2736.09
645.33	2666.46
645.52	2676.70
645.71	2512.86
645.89	2596.82
646.08	2752.47
646.27	2580.44
646.46	2869.20
646.65	2559.96
646.84	2760.66
647.03	2580.44
647.22	2758.61
647.40	2744.28
647.59	2666.46
647.78	2490.33
647.97	2619.35
648.16	2594.78
648.35	2916.31
648.54	2777.05
648.73	2594.78
648.91	2947.03
649.10	2762.71
649.29	2605.02
649.48	2617.30
649.67	2828.24
649.86	2777.05
650.05	2717.65
650.23	2785.24
650.42	2697.17
650.61	3000.27
650.80	2824.15
650.99	2973.65
651.18	2822.10
651.36	2834.39
651.55	2580.44
651.74	2742.23
651.93	2660.31
652.12	2691.03
652.31	2703.32
652.49	2607.06
652.68	2723.80
652.87	2955.22
653.06	2883.54
653.25	2949.08
653.44	2676.70
653.62	2934.74
653.81	2682.84
654.00	2678.74
654.19	2799.57
654.38	3104.72
654.56	2682.84
654.75	2611.16
654.94	2875.35
655.13	2760.66
655.32	2627.54
655.51	2836.44
655.69	2639.83
655.88	2809.81
656.07	2480.09
656.26	2701.27
656.45	2551.77
656.63	2721.75
656.82	2623.45
657.01	2875.35
657.20	2600.92
657.38	2904.02
657.57	2666.46
657.76	2527.19
657.95	2906.07
658.14	2719.70
658.32	2686.94
658.51	2543.58
658.70	2629.59
658.89	2748.37
659.08	2738.13
659.26	2842.58
659.45	2680.79
659.64	2740.18
659.83	2637.78
660.01	3030.99
660.20	2682.84
660.39	2940.88
660.58	2385.88
660.76	2770.90
660.95	2441.18
661.14	2717.65
661.33	2500.57
661.51	2594.78
661.70	2652.12
661.89	2783.19
662.08	2701.27
662.26	2457.56
662.45	2633.69
662.64	2959.31
662.83	2725.85
663.01	2572.25
663.20	2617.30
663.39	2940.88
663.58	2672.60
663.76	2617.30
663.95	2768.85
664.14	2555.86
664.32	2639.83
664.51	2582.49
664.70	2424.80
664.89	2752.47
665.07	2500.57
665.26	2713.56
665.45	2451.42
665.64	2826.20
665.82	2641.88
666.01	2748.37
666.20	2566.10
666.38	2873.30
666.57	2852.82
666.76	4272.06
666.95	9920.36
667.13	17170.17
667.32	20823.75
667.51	23887.51
667.69	25007.75
667.88	21391.03
668.07	15279.89
668.25	12844.86
668.44	11030.36
668.63	9482.10
668.81	8347.52
669.00	7231.38
669.19	6682.52
669.38	5797.80
669.56	4898.74
669.75	4210.62
669.94	3751.88
670.12	3205.07
670.31	2994.13
670.50	2854.87
670.68	2924.50
670.87	2852.82
671.06	2623.45
671.24	2721.75
671.43	2985.94
671.62	2748.37
671.80	2590.68
671.99	2799.57
672.18	2707.41
672.36	2897.88
672.55	2762.71
672.74	2666.46
672.92	2674.65
673.11	2815.96
673.29	2564.06
673.48	2754.52
673.67	2658.26
673.85	2815.96
674.04	2559.96
674.23	2725.85
674.41	2932.69
674.60	2592.73
674.79	2492.38
674.97	2559.96
675.16	2842.58
675.34	2842.58
675.53	2523.10
675.72	2758.61
675.90	3069.91
676.09	2740.18
676.28	2705.37
676.46	2451.42
676.65	2787.29
676.83	2613.21
677.02	2727.89
677.21	2684.89
677.39	2736.09
677.58	2643.93
677.77	2643.93
677.95	2574.30
678.14	2684.89
678.32	2639.83
678.51	2627.54
678.70	2922.45
678.88	2678.74
679.07	2709.46
679.25	2697.17
679.44	2635.74
679.63	2527.19
679.81	2760.66
680.00	2824.15
680.18	2832.34
680.37	2893.78
680.55	2756.57
680.74	2457.56
680.93	2406.36
681.11	2799.57
681.30	2719.70
681.48	2701.27
681.67	2574.30
681.85	2734.04
682.04	2598.87
682.23	2723.80
682.41	2688.98
682.60	2725.85
682.78	2734.04
682.97	2564.06
683.15	2654.17
683.34	2768.85
683.53	2867.16
683.71	2559.96
683.90	2762.71
684.08	3002.32
684.27	2715.61
684.45	2736.09
684.64	2801.62
684.82	2738.13
685.01	2815.96
685.19	2662.36
685.38	2918.36
685.57	2783.19
685.75	2594.78
685.94	2562.01
686.12	2508.76
686.31	2691.03
686.49	2959.31
686.68	2449.37
686.86	2701.27
687.05	2664.41
687.23	2973.65
687.42	2678.74
687.60	2449.37
687.79	2832.34
687.97	2918.36
688.16	2818.00
688.34	2838.48
688.53	2516.95
688.71	2813.91
688.90	2932.69
689.08	2742.23
689.27	2457.56
689.45	2818.00
689.64	2875.35
689.82	2729.94
690.01	2770.90
690.19	2785.24
690.38	2672.60
690.56	2764.76
690.75	2582.49
690.93	2605.02
691.12	2605.02
691.30	2623.45
691.49	2748.37
691.67	2752.47
691.86	2985.94
692.04	2576.34
692.23	2623.45
692.41	2775.00
692.60	2996.18
692.78	2920.40
692.97	2719.70
693.15	2809.81
693.34	2899.92
693.52	2854.87
693.71	2740.18
693.89	2637.78
694.08	2502.62
694.26	2785.24
694.44	2830.29
694.63	2820.05
694.81	2578.39
695.00	2641.88
695.18	2924.50
695.37	3131.34
695.55	2688.98
695.74	2590.68
695.92	2686.94
696.10	2891.73
696.29	2566.10
696.47	2645.98
696.66	2553.82
696.84	2496.47
697.03	2727.89
697.21	2873.30
697.40	4065.22
697.58	2899.92
697.76	2605.02
697.95	2584.54
698.13	2643.93
698.32	2611.16
698.50	2650.07
698.68	2734.04
698.87	2727.89
699.05	2879.44
699.24	2725.85
699.42	2631.64
699.61	2764.76
699.79	2781.14
699.97	2701.27
700.16	2598.87
700.34	2580.44
700.53	2783.19
700.71	2877.40
700.89	2822.10
701.08	2717.65
701.26	2668.50
701.45	3131.34
701.63	2537.43
701.81	2660.31
702.00	2627.54
702.18	2660.31
702.37	2619.35
702.55	2951.12
702.73	2772.95
702.92	2625.50
703.10	2953.17
703.28	2854.87
703.47	2615.26
703.65	2908.12
703.84	2777.05
704.02	2662.36
704.20	2891.73
704.39	2629.59
704.57	2635.74
704.75	2838.48
704.94	2807.77
705.12	2758.61
705.30	3035.09
705.49	5801.90
705.67	11980.62
705.86	17559.28
706.04	20070.09
706.22	22701.73
706.41	22451.88
706.59	17559.28
706.77	13254.45
706.96	11353.94
707.14	10336.10
707.32	8826.75
707.51	7765.90
707.69	6215.59
707.87	5281.71
708.06	4540.35
708.24	3844.04
708.42	3280.85
708.61	3428.30
708.79	2701.27
708.97	2785.24
709.16	2854.87
709.34	2836.44
709.52	2693.08
709.71	2670.55
709.89	2875.35
710.07	2574.30
710.26	2512.86
710.44	2691.03
710.62	2779.09
710.80	2656.22
710.99	2744.28
711.17	2818.00
711.35	2564.06
711.54	2697.17
711.72	2783.19
711.90	2723.80
712.09	2703.32
712.27	2676.70
712.45	2762.71
712.63	2600.92
712.82	2715.61
713.00	2748.37
713.18	2785.24
713.37	2768.85
713.55	2854.87
713.73	2744.28
713.91	2768.85
714.10	2736.09
714.28	2779.09
714.46	2787.29
714.65	2736.09
714.83	2736.09
715.01	2818.00
715.19	2670.55
715.38	2549.72
715.56	2742.23
715.74	2695.13
715.92	2617.30
716.11	2938.84
716.29	2471.90
716.47	2725.85
716.65	2736.09
716.84	2492.38
717.02	2764.76
717.20	2535.39
717.38	2643.93
717.57	2740.18
717.75	2672.60
717.93	2670.55
718.11	2820.05
718.30	2482.14
718.48	2637.78
718.66	2904.02
718.84	2912.21
719.03	2670.55
719.21	2564.06
719.39	3020.75
719.57	2727.89
719.75	2770.90
719.94	2543.58
720.12	2680.79
720.30	2740.18
720.48	2715.61
720.67	2672.60
720.85	2584.54
721.03	2613.21
721.21	2539.48
721.39	2756.57
721.58	2760.66
721.76	2768.85
721.94	2703.32
722.12	2772.95
722.30	2940.88
722.49	2639.83
722.67	2674.65
722.85	2637.78
723.03	2463.71
723.21	2600.92
723.40	2736.09
723.58	2893.78
723.76	2858.96
723.94	2908.12
724.12	2758.61
724.30	2897.88
724.49	2873.30
724.67	2545.63
724.85	2793.43
725.03	2559.96
725.21	2793.43
725.40	2887.64
725.58	2598.87
725.76	2871.25
725.94	2777.05
726.12	2611.16
726.30	2701.27
726.49	2736.09
726.67	2709.46
726.85	2807.77
727.03	3088.34
727.21	4059.07
727.39	5164.98
727.57	5439.40
727.76	6133.67
727.94	6254.50
728.12	5642.15
728.30	4589.50
728.48	4433.85
728.66	3948.48
728.84	3676.10
729.03	3323.85
729.21	3121.10
729.39	2971.60
729.57	2897.88
729.75	2813.91
729.93	2758.61
730.11	2596.82
730.30	2639.83
730.48	2676.70
730.66	2863.06
730.84	2791.38
731.02	2691.03
731.20	2699.22
731.38	2727.89
731.56	2562.01
731.74	2486.23
731.93	2775.00
732.11	2674.65
732.29	2635.74
732.47	2822.10
732.65	2785.24
732.83	2869.20
733.01	2709.46
733.19	2660.31
733.37	2744.28
733.56	2744.28
733.74	2543.58
733.92	2899.92
734.10	2742.23
734.28	2770.90
734.46	2500.57
734.64	2781.14
734.82	2674.65
735.00	2650.07
735.18	2586.58
735.36	2650.07
735.54	2707.41
735.73	2742.23
735.91	2766.81
736.09	2977.75
736.27	2709.46
736.45	2742.23
736.63	2494.43
736.81	2691.03
736.99	2936.79
737.17	2797.53
737.35	2633.69
737.53	2719.70
737.71	2682.84
737.89	2840.53
738.07	2621.40
738.25	2555.86
738.43	2519.00
738.61	2629.59
738.80	2541.53
738.98	2609.11
739.16	2641.88
739.34	2625.50
739.52	2934.74
739.70	2703.32
739.88	2731.99
740.06	2744.28
740.24	2412.51
740.42	2951.12
740.60	2535.39
740.78	2605.02
740.96	2492.38
741.14	2715.61
741.32	2709.46
741.50	2578.39
741.68	2934.74
741.86	2818.00
742.04	2494.43
742.22	2584.54
742.40	2717.65
742.58	2858.96
742.76	2662.36
742.94	2781.14
743.12	2469.85
743.30	2658.26
743.48	2764.76
743.66	2557.91
743.84	2678.74
744.02	2656.22
744.20	2650.07
744.38	2553.82
744.56	2609.11
744.74	3047.38
744.92	2795.48
745.10	2873.30
745.28	2711.51
745.46	2924.50
745.64	2674.65
745.82	2734.04
746.00	2662.36
746.18	2826.20
746.36	2648.02
746.54	2701.27
746.72	2648.02
746.90	2572.25
747.08	2871.25
747.26	2555.86
747.44	2789.33
747.62	2830.29
747.80	2670.55
747.98	2748.37
748.15	2639.83
748.33	3069.91
748.51	2717.65
748.69	2750.42
748.87	2582.49
749.05	2717.65
749.23	2703.32
749.41	2693.08
749.59	2670.55
749.77	2867.16
749.95	2695.13
750.13	2668.50
750.31	2744.28
750.49	2629.59
750.67	2752.47
750.85	2797.53
751.03	2719.70
751.20	3082.19
751.38	2725.85
751.56	2625.50
751.74	2670.55
751.92	2701.27
752.10	2549.72
752.28	2820.05
752.46	2617.30
752.64	2629.59
752.82	2684.89
753.00	2809.81
753.18	2551.77
753.35	2648.02
753.53	2641.88
753.71	2652.12
753.89	2725.85
754.07	2813.91
754.25	2875.35
754.43	2695.13
754.61	2531.29
754.79	2826.20
754.97	2736.09
755.14	2854.87
755.32	2514.91
755.50	2703.32
755.68	2777.05
755.86	2531.29
756.04	2562.01
756.22	2441.18
756.40	2803.67
756.57	2987.99
756.75	2539.48
756.93	2838.48
757.11	2797.53
757.29	2596.82
757.47	2514.91
757.65	2478.04
757.82	2441.18
758.00	2566.10
758.18	2531.29
758.36	2637.78
758.54	2912.21
758.72	2404.32
758.90	2723.80
759.07	2750.42
759.25	2594.78
759.43	2795.48
759.61	2475.99
759.79	3846.09
759.97	2828.24
760.15	2686.94
760.32	2629.59
760.50	2738.13
760.68	2944.98
760.86	2521.05
761.04	2887.64
761.22	2772.95
761.39	2858.96
761.57	2750.42
761.75	2727.89
761.93	2815.96
762.11	2731.99
762.28	2711.51
762.46	2549.72
762.64	2869.20
762.82	2510.81
763.00	2652.12
763.18	2830.29
763.35	2500.57
763.53	2785.24
763.71	2762.71
763.89	2738.13
764.07	2793.43
764.24	2725.85
764.42	2766.81
764.60	2691.03
764.78	2793.43
764.96	2848.72
765.13	2717.65
765.31	2494.43
765.49	2885.59
765.67	2648.02
765.84	2666.46
766.02	2580.44
766.20	2590.68
766.38	2758.61
766.56	2740.18
766.73	2756.57
766.91	2701.27
767.09	2785.24
767.27	2734.04
767.44	2605.02
767.62	2742.23
767.80	2762.71
767.98	2602.97
768.15	2633.69
768.33	2834.39
768.51	2824.15
768.69	2818.00
768.87	2717.65
769.04	2762.71
769.22	3108.82
769.40	2834.39
769.58	2842.58
769.75	2781.14
769.93	2992.08
770.11	2635.74
770.28	2582.49
770.46	2826.20
770.64	2768.85
770.82	2652.12
770.99	2617.30
771.17	2750.42
771.35	2643.93
771.53	2707.41
771.70	2627.54
771.88	2828.24
772.06	2658.26
772.23	2691.03
772.41	2709.46
772.59	2645.98
772.77	2619.35
772.94	2711.51
773.12	2680.79
773.30	2631.64
773.47	2754.52
773.65	2588.63
773.83	2805.72
774.01	2746.33
774.18	2424.80
774.36	2658.26
774.54	2422.75
774.71	2807.77
774.89	2521.05
775.07	2588.63
775.24	2652.12
775.42	2650.07
775.60	2897.88
775.78	2527.19
775.95	2605.02
776.13	2486.23
776.31	2432.99
776.48	2832.34
776.66	2852.82
776.84	2725.85
777.01	2543.58
777.19	2664.41
777.37	2625.50
777.54	2854.87
777.72	2957.27
777.90	2723.80
778.07	2590.68
778.25	3176.40
778.43	2723.80
778.60	2529.24
778.78	2752.47
778.96	2871.25
779.13	2541.53
779.31	2772.95
779.49	2707.41
779.66	2758.61
779.84	2713.56
780.01	2605.02
780.19	2592.73
780.37	2801.62
780.54	2805.72
780.72	2633.69
780.90	2639.83
781.07	2666.46
781.25	2643.93
781.43	2809.81
781.60	2666.46
781.78	2887.64
781.95	2822.10
782.13	2586.58
782.31	2705.37
782.48	2451.42
782.66	2686.94
782.83	2910.16
783.01	2752.47
783.19	2805.72
783.36	2682.84
783.54	2463.71
783.72	2697.17
783.89	2621.40
784.07	2781.14
784.24	2731.99
784.42	2842.58
784.60	2734.04
784.77	2719.70
784.95	2465.75
785.12	2639.83
785.30	2703.32
785.47	2596.82
785.65	2574.30
785.83	2650.07
786.00	2613.21
786.18	2805.72
786.35	2572.25
786.53	2461.66
786.71	2883.54
786.88	2781.14
787.06	2717.65
787.23	2625.50
787.41	2535.39
787.58	2707.41
787.76	2572.25
787.94	2641.88
788.11	2832.34
788.29	2570.20
788.46	2625.50
788.64	2443.23
788.81	2619.35
788.99	2461.66
789.16	2594.78
789.34	2648.02
789.52	2674.65
789.69	2609.11
789.87	2379.74
790.04	2680.79
790.22	2693.08
790.39	2942.93
790.57	2600.92
790.74	2602.97
790.92	2809.81
791.09	2424.80
791.27	2699.22
791.44	2744.28
791.62	2760.66
791.79	2783.19
791.97	2742.23
792.15	3018.71
792.32	2848.72
792.50	2766.81
792.67	2875.35
792.85	2893.78
793.02	2856.92
793.20	2609.11
793.37	2500.57
793.55	2584.54
793.72	2562.01
793.90	2854.87
794.07	2510.81
794.25	2572.25
794.42	2693.08
794.60	2656.22
794.77	2766.81
794.95	2703.32
795.12	2883.54
795.30	2713.56
795.47	2453.47
795.65	3022.80
795.82	2721.75
796.00	2609.11
796.17	2654.17
796.34	2602.97
796.52	2785.24
796.69	2877.40
796.87	2684.89
797.04	2807.77
797.22	2760.66
797.39	2795.48
797.57	2701.27
797.74	2676.70
797.92	2801.62
798.09	2633.69
798.27	2844.63
798.44	2600.92
798.62	2660.31
798.79	2756.57
798.96	2744.28
799.14	2609.11
799.31	3051.47
799.49	2668.50
799.66	2619.35
799.84	2807.77
800.01	2523.10
800.19	2824.15
800.36	2392.03
800.53	2699.22
800.71	2826.20
800.88	3026.90
801.06	2621.40
801.23	2619.35
801.41	2643.93
801.58	2701.27
801.75	2578.39
801.93	2709.46
802.10	2785.24
802.28	2664.41
802.45	2617.30
802.63	2609.11
802.80	2914.26
802.97	2666.46
803.15	2643.93
803.32	2637.78
803.50	2658.26
803.67	2594.78
803.84	2588.63
804.02	2686.94
804.19	2674.65
804.37	2432.99
804.54	2465.75
804.71	2627.54
804.89	2672.60
805.06	2631.64
805.24	2592.73
805.41	2543.58
805.58	2664.41
805.76	3098.58
805.93	2701.27
806.10	2797.53
806.28	2772.95
806.45	2772.95
806.63	2752.47
806.80	2727.89
806.97	2744.28
807.15	2787.29
807.32	2777.05
807.49	2650.07
807.67	2465.75
807.84	2764.76
808.01	2494.43
808.19	2856.92
808.36	3088.34
808.54	2684.89
808.71	2596.82
808.88	2670.55
809.06	2901.97
809.23	2955.22
809.40	2619.35
809.58	2754.52
809.75	2731.99
809.92	2576.34
810.10	2889.68
810.27	2617.30
810.44	2775.00
810.62	2811.86
810.79	2678.74
810.96	2576.34
811.14	2629.59
811.31	2795.48
811.48	2762.71
811.66	2695.13
811.83	2795.48
812.00	2832.34
812.18	2754.52
812.35	2957.27
812.52	2713.56
812.69	2670.55
812.87	2555.86
813.04	2598.87
813.21	2766.81
813.39	2596.82
813.56	2559.96
813.73	2777.05
813.91	2500.57
814.08	2738.13
814.25	2711.51
814.42	2506.71
814.60	2566.10
814.77	2840.53
814.94	2654.17
815.12	2684.89
815.29	2893.78
815.46	2631.64
815.63	2707.41
815.81	2654.17
815.98	2627.54
816.15	2719.70
816.33	2693.08
816.50	2605.02
816.67	2660.31
816.84	2586.58
817.02	2506.71
817.19	2633.69
817.36	2801.62
817.53	2797.53
817.71	2578.39
817.88	2738.13
818.05	2723.80
818.22	2629.59
818.40	2856.92
818.57	2645.98
818.74	2748.37
818.91	2711.51
819.09	2787.29
819.26	2727.89
819.43	2635.74
819.60	2617.30
819.78	2799.57
819.95	2777.05
820.12	2529.24
820.29	2959.31
820.47	2815.96
820.64	2586.58
820.81	2566.10
820.98	2486.23
821.15	2627.54
821.33	2701.27
821.50	2564.06
821.67	2785.24
821.84	2557.91
822.02	2631.64
822.19	2904.02
822.36	2629.59
822.53	2613.21
822.70	2572.25
822.88	2652.12
823.05	2863.06
823.22	2566.10
823.39	2719.70
823.56	2635.74
823.74	2940.88
823.91	2545.63
824.08	2527.19
824.25	2502.62
824.42	2922.45
824.60	2496.47
824.77	2719.70
824.94	2729.94
825.11	2797.53
825.28	2568.15
825.45	2754.52
825.63	2750.42
825.80	2527.19
825.97	2850.77
826.14	2707.41
826.31	2506.71
826.48	2875.35
826.66	2578.39
826.83	2590.68
827.00	2631.64
827.17	2576.34
827.34	2605.02
827.51	2461.66
827.69	2705.37
827.86	2514.91
828.03	2613.21
828.20	2744.28
828.37	2670.55
828.54	2748.37
828.71	2570.20
828.89	2686.94
829.06	2703.32
829.23	2906.07
829.40	2496.47
829.57	2574.30
829.74	2830.29
829.91	2637.78
830.09	2590.68
830.26	2680.79
830.43	2906.07
830.60	2695.13
830.77	2748.37
830.94	2824.15
831.11	2793.43
831.28	2652.12
831.46	2713.56
831.63	2625.50
831.80	2856.92
831.97	2557.91
832.14	2666.46
832.31	2682.84
832.48	2787.29
832.65	2897.88
832.82	2676.70
832.99	2783.19
833.17	2539.48
833.34	2914.26
833.51	2682.84
833.68	2435.03
833.85	2832.34
834.02	2619.35
834.19	2621.40
834.36	2576.34
834.53	2781.14
834.70	2768.85
834.87	2750.42
835.04	2514.91
835.22	2557.91
835.39	2598.87
835.56	2496.47
835.73	2578.39
835.90	2944.98
836.07	2564.06
836.24	2684.89
836.41	2514.91
836.58	2574.30
836.75	2805.72
836.92	2588.63
837.09	2547.67
837.26	2781.14
837.43	2664.41
837.60	2635.74
837.77	2529.24
837.94	2834.39
838.12	2879.44
838.29	2529.24
838.46	2389.98
838.63	2619.35
838.80	2869.20
838.97	2508.76
839.14	2541.53
839.31	2826.20
839.48	2873.30
839.65	2539.48
839.82	2674.65
839.99	2734.04
840.16	2729.94
840.33	2463.71
840.50	2609.11
840.67	2625.50
840.84	2371.55
841.01	2432.99
841.18	2564.06
841.35	2695.13
841.52	2826.20
841.69	2791.38
841.86	2570.20
842.03	2697.17
842.20	2824.15
842.37	2562.01
842.54	2566.10
842.71	2838.48
842.88	2547.67
843.05	2611.16
843.22	2516.95
843.39	2815.96
843.56	2668.50
843.73	2527.19
843.90	2629.59
844.07	2605.02
844.24	2854.87
844.41	2559.96
844.58	2611.16
844.75	2738.13
844.92	2899.92
845.09	2637.78
845.26	2533.34
845.43	2838.48
845.60	2703.32
845.77	2713.56
845.94	2686.94
846.10	2793.43
846.27	2523.10
846.44	2523.10
846.61	2383.84
846.78	2789.33
846.95	2867.16
847.12	2494.43
847.29	2631.64
847.46	2594.78
847.63	2777.05
847.80	2539.48
847.97	2629.59
848.14	3059.67
848.31	2611.16
848.48	2445.27
848.65	2602.97
848.82	2641.88
848.98	3121.10
849.15	2676.70
849.32	2605.02
849.49	2842.58
849.66	2709.46
849.83	2531.29
850.00	2545.63
850.17	2770.90
850.34	2668.50
850.51	2531.29
850.68	2613.21
850.85	3002.32
851.01	2758.61
851.18	2564.06
851.35	2516.95
851.52	2758.61
851.69	2850.77
851.86	2478.04
852.03	2553.82
852.20	2805.72
852.37	2731.99
852.53	2377.69
852.70	2510.81
852.87	2654.17
853.04	2871.25
853.21	2596.82
853.38	2654.17
853.55	2975.70
853.72	2883.54
853.89	2549.72
854.05	2510.81
854.22	2639.83
854.39	2742.23
854.56	2568.15
854.73	2697.17
854.90	2625.50
855.07	2650.07
855.23	2453.47
855.40	2551.77
855.57	2662.36
855.74	2443.23
855.91	2813.91
856.08	2457.56
856.25	2478.04
856.41	2553.82
856.58	2537.43
856.75	2582.49
856.92	2590.68
857.09	2828.24
857.26	2394.08
857.42	2566.10
857.59	2818.00
857.76	2621.40
857.93	2625.50
858.10	2576.34
858.27	2584.54
858.43	2783.19
858.60	2555.86
858.77	2365.40
858.94	2578.39
859.11	2793.43
859.27	2621.40
859.44	2545.63
859.61	2965.46
859.78	2838.48
859.95	2537.43
860.12	2492.38
860.28	2983.89
860.45	3030.99
860.62	2453.47
860.79	2699.22
860.95	2660.31
861.12	2654.17
861.29	2467.80
861.46	2592.73
861.63	2686.94
861.79	2770.90
861.96	2557.91
862.13	2580.44
862.30	2924.50
862.47	2629.59
862.63	2430.94
862.80	2723.80
862.97	2854.87
863.14	2770.90
863.30	2557.91
863.47	2469.85
863.64	2926.55
863.81	2787.29
863.97	2441.18
864.14	2688.98
864.31	2688.98
864.48	2795.48
864.65	2555.86
864.81	2676.70
864.98	2848.72
865.15	2818.00
865.32	2623.45
865.48	2725.85
865.65	2940.88
865.82	2582.49
865.98	2666.46
866.15	2648.02
866.32	2629.59
866.49	2619.35
866.65	2625.50
866.82	2506.71
866.99	2693.08
867.16	2619.35
867.32	2598.87
867.49	2519.00
867.66	2686.94
867.83	2652.12
867.99	2523.10
868.16	2600.92
868.33	2541.53
868.49	2719.70
868.66	2555.86
868.83	2629.59
868.99	2783.19
869.16	2678.74
869.33	2654.17
869.50	2586.58
869.66	2775.00
869.83	2635.74
870.00	2473.95
870.16	2643.93
870.33	2660.31
870.50	2889.68
870.66	2570.20
870.83	2699.22
871.00	2701.27
871.17	2645.98
871.33	2592.73
871.50	2514.91
871.67	2678.74
871.83	2562.01
872.00	2699.22
872.17	2545.63
872.33	2924.50
872.50	2848.72
872.67	2521.05
872.83	2543.58
873.00	2783.19
873.17	2717.65
873.33	2602.97
873.50	2658.26
873.67	2590.68
873.83	2611.16
874.00	2533.34
874.16	2654.17
874.33	2752.47
874.50	2596.82
874.66	2537.43
874.83	2617.30
875.00	2815.96
875.16	2834.39
875.33	2699.22
875.50	2357.21
875.66	2611.16
875.83	2697.17
875.99	2619.35
876.16	2680.79
876.33	2615.26
876.49	2686.94
876.66	2555.86
876.83	2596.82
876.99	2512.86
877.16	2674.65
877.32	2469.85
877.49	2572.25
877.66	2660.31
877.82	2822.10
877.99	2586.58
878.15	2731.99
878.32	2838.48
878.49	2748.37
878.65	2504.67
878.82	2834.39
878.98	2609.11
879.15	2883.54
879.32	2662.36
879.48	2668.50
879.65	2738.13
879.81	2631.64
879.98	2557.91
880.15	2637.78
880.31	2818.00
880.48	2500.57
880.64	2662.36
880.81	2637.78
880.97	2934.74
881.14	2885.59
881.31	2529.24
881.47	2709.46
881.64	2672.60
881.80	2553.82
881.97	2703.32
882.13	2611.16
882.30	2551.77
882.47	2656.22
882.63	2488.28
882.80	2598.87
882.96	2658.26
883.13	2871.25
883.29	2594.78
883.46	2506.71
883.62	2994.13
883.79	2717.65
883.95	2645.98
884.12	2559.96
884.29	2867.16
884.45	2691.03
884.62	2568.15
884.78	2523.10
884.95	2955.22
885.11	2611.16
885.28	2674.65
885.44	2471.90
885.61	2799.57
885.77	2881.49
885.94	2787.29
886.10	2586.58
886.27	2758.61
886.43	2949.08
886.60	2834.39
886.76	2510.81
886.93	2650.07
887.09	2691.03
887.26	2392.03
887.42	2619.35
887.59	2910.16
887.75	3024.85
887.92	2695.13
888.08	2711.51
888.25	2959.31
888.41	2877.40
888.58	2668.50
888.74	2510.81
888.91	2590.68
>>>>>End Processed Spectral Data<<<<<
