SpectraSuite Data File
++++++++++++++++++++++++++++++++++++
Date: Thu May 05 16:20:59 CEST 2016
User: root
Dark Spectrum Present: No
Reference Spectrum Present: No
Number of Sampled Component Spectra: 1
Spectrometers: USB4C02835
Integration Time (usec): 100000 (USB4C02835)
Spectra Averaged: 1 (USB4C02835)
Boxcar Smoothing: 0 (USB4C02835)
Correct for Electrical Dark: No (USB4C02835)
Strobe/Lamp Enabled: No (USB4C02835)
Correct for Detector Non-linearity: No (USB4C02835)
Correct for Stray Light: No (USB4C02835)
Number of Pixels in Processed Spectrum: 3648
>>>>>Begin Processed Spectral Data<<<<<
177.47	2052.06
177.69	2052.06
177.91	2052.06
178.13	1972.19
178.36	1929.19
178.58	2545.63
178.80	2695.13
179.02	2531.29
179.24	2631.64
179.46	2394.08
179.68	2553.82
179.90	2637.78
180.13	2699.22
180.35	2361.31
180.57	2445.27
180.79	2840.53
181.01	2686.94
181.23	2605.02
181.45	2686.94
181.67	2754.52
181.90	2881.49
182.12	2576.34
182.34	2385.88
182.56	2844.63
182.78	2844.63
183.00	2418.65
183.22	2545.63
183.44	2465.75
183.66	3178.45
183.89	2586.58
184.11	2541.53
184.33	2721.75
184.55	2887.64
184.77	2535.39
184.99	2549.72
185.21	2664.41
185.43	3067.86
185.65	2461.66
185.87	2430.94
186.10	3129.30
186.32	3033.04
186.54	2605.02
186.76	2621.40
186.98	2897.88
187.20	2746.33
187.42	2521.05
187.64	2480.09
187.86	2803.67
188.08	2912.21
188.30	2486.23
188.52	2559.96
188.75	2916.31
188.97	2904.02
189.19	2416.60
189.41	2562.01
189.63	2815.96
189.85	2703.32
190.07	2375.64
190.29	2375.64
190.51	2838.48
190.73	2576.34
190.95	2678.74
191.17	2525.15
191.39	2457.56
191.61	2740.18
191.84	2521.05
192.06	2580.44
192.28	2541.53
192.50	3246.03
192.72	2643.93
192.94	2547.67
193.16	2863.06
193.38	2766.81
193.60	2461.66
193.82	2637.78
194.04	2852.82
194.26	2828.24
194.48	2482.14
194.70	2461.66
194.92	2615.26
195.14	2801.62
195.36	2564.06
195.58	2562.01
195.80	2658.26
196.02	2559.96
196.24	2465.75
196.46	2555.86
196.69	2645.98
196.91	3104.72
197.13	2623.45
197.35	2551.77
197.57	3030.99
197.79	2797.53
198.01	2570.20
198.23	2482.14
198.45	2760.66
198.67	2582.49
198.89	2377.69
199.11	2543.58
199.33	2605.02
199.55	2365.40
199.77	2457.56
199.99	2639.83
200.21	2582.49
200.43	2805.72
200.65	2459.61
200.87	2381.79
201.09	2707.41
201.31	2674.65
201.53	2514.91
201.75	2631.64
201.97	2762.71
202.19	2785.24
202.41	2617.30
202.63	2701.27
202.85	2787.29
203.07	2783.19
203.29	2496.47
203.51	2420.70
203.73	2611.16
203.95	3147.73
204.17	2564.06
204.39	2623.45
204.61	2656.22
204.83	2705.37
205.05	2633.69
205.27	2570.20
205.49	3014.61
205.71	2699.22
205.93	2406.36
206.15	2514.91
206.37	2705.37
206.59	2764.76
206.81	2422.75
207.03	2385.88
207.25	2547.67
207.47	2801.62
207.69	2502.62
207.91	2750.42
208.13	2985.94
208.34	2666.46
208.56	2412.51
208.78	2514.91
209.00	2594.78
209.22	2637.78
209.44	2539.48
209.66	2492.38
209.88	2725.85
210.10	2662.36
210.32	2445.27
210.54	2580.44
210.76	2725.85
210.98	2842.58
211.20	2293.72
211.42	2639.83
211.64	2944.98
211.86	2809.81
212.08	2607.06
212.30	2533.34
212.52	2662.36
212.74	2783.19
212.96	2572.25
213.17	2670.55
213.39	2801.62
213.61	2938.84
213.83	2506.71
214.05	2447.32
214.27	2951.12
214.49	2568.15
214.71	2467.80
214.93	2555.86
215.15	2731.99
215.37	2799.57
215.59	2369.50
215.81	2602.97
216.03	2891.73
216.24	2762.71
216.46	2521.05
216.68	2469.85
216.90	2832.34
217.12	2863.06
217.34	2529.24
217.56	2623.45
217.78	3000.27
218.00	2779.09
218.22	2584.54
218.44	2629.59
218.66	2744.28
218.87	2928.60
219.09	2615.26
219.31	2486.23
219.53	2852.82
219.75	2643.93
219.97	2512.86
220.19	2471.90
220.41	2684.89
220.63	2953.17
220.85	2543.58
221.06	2494.43
221.28	2879.44
221.50	2717.65
221.72	2559.96
221.94	2408.41
222.16	2666.46
222.38	2832.34
222.60	2559.96
222.82	2559.96
223.03	2936.79
223.25	2490.33
223.47	2531.29
223.69	2762.71
223.91	2848.72
224.13	2711.51
224.35	2426.84
224.57	2658.26
224.78	2848.72
225.00	2650.07
225.22	2494.43
225.44	2482.14
225.66	2867.16
225.88	2609.11
226.10	2666.46
226.32	2572.25
226.53	2949.08
226.75	2639.83
226.97	2531.29
227.19	2506.71
227.41	2623.45
227.63	2629.59
227.85	2344.92
228.06	2500.57
228.28	2777.05
228.50	2873.30
228.72	2381.79
228.94	2535.39
229.16	2461.66
229.37	2527.19
229.59	2439.13
229.81	2664.41
230.03	2697.17
230.25	2631.64
230.47	2432.99
230.69	2435.03
230.90	2736.09
231.12	2662.36
231.34	2594.78
231.56	2584.54
231.78	2547.67
232.00	2695.13
232.21	2439.13
232.43	2508.76
232.65	2439.13
232.87	2813.91
233.09	2494.43
233.30	2475.99
233.52	2910.16
233.74	2658.26
233.96	2488.28
234.18	2652.12
234.40	2672.60
234.61	3045.33
234.83	2404.32
235.05	2527.19
235.27	3203.02
235.49	2981.84
235.70	2396.12
235.92	2615.26
236.14	2766.81
236.36	3069.91
236.58	2377.69
236.79	2545.63
237.01	2727.89
237.23	2703.32
237.45	2684.89
237.67	2506.71
237.88	2861.01
238.10	3071.95
238.32	2471.90
238.54	2564.06
238.76	2754.52
238.97	2621.40
239.19	2406.36
239.41	2631.64
239.63	2969.55
239.85	2658.26
240.06	2549.72
240.28	2551.77
240.50	2916.31
240.72	2641.88
240.93	2449.37
241.15	2535.39
241.37	2760.66
241.59	2889.68
241.81	2463.71
242.02	2578.39
242.24	2779.09
242.46	2842.58
242.68	2441.18
242.89	2420.70
243.11	2867.16
243.33	2686.94
243.55	2543.58
243.76	2535.39
243.98	2605.02
244.20	2662.36
244.42	2457.56
244.64	2547.67
244.85	2490.33
245.07	2521.05
245.29	2514.91
245.51	2590.68
245.72	2731.99
245.94	2899.92
246.16	2535.39
246.38	2625.50
246.59	2666.46
246.81	2555.86
247.03	2496.47
247.24	2398.17
247.46	2750.42
247.68	2807.77
247.90	2475.99
248.11	2529.24
248.33	2869.20
248.55	2670.55
248.77	2592.73
248.98	2564.06
249.20	2887.64
249.42	2711.51
249.64	2516.95
249.85	2484.19
250.07	2586.58
250.29	2883.54
250.50	2605.02
250.72	2414.56
250.94	2818.00
251.16	2981.84
251.37	2602.97
251.59	2643.93
251.81	2760.66
252.02	2963.41
252.24	2494.43
252.46	2600.92
252.68	2629.59
252.89	2633.69
253.11	2367.45
253.33	2637.78
253.54	2969.55
253.76	2590.68
253.98	2453.47
254.20	2404.32
254.41	2539.48
254.63	2754.52
254.85	2387.93
255.06	2590.68
255.28	2695.13
255.50	2772.95
255.71	2492.38
255.93	2367.45
256.15	2680.79
256.36	2764.76
256.58	2361.31
256.80	2467.80
257.02	2643.93
257.23	2637.78
257.45	2512.86
257.67	2529.24
257.88	2645.98
258.10	2830.29
258.32	2535.39
258.53	2541.53
258.75	3002.32
258.97	2633.69
259.18	2426.84
259.40	2525.15
259.62	2975.70
259.83	2893.78
260.05	2564.06
260.27	3219.41
260.48	2867.16
260.70	2613.21
260.92	2494.43
261.13	2498.52
261.35	2811.86
261.57	2861.01
261.78	2465.75
262.00	2443.23
262.22	2789.33
262.43	2637.78
262.65	2514.91
262.86	2588.63
263.08	3045.33
263.30	2742.23
263.51	2424.80
263.73	2488.28
263.95	3014.61
264.16	2535.39
264.38	2416.60
264.60	2504.67
264.81	2746.33
265.03	2895.83
265.25	2797.53
265.46	2463.71
265.68	2883.54
265.89	2795.48
266.11	2385.88
266.33	2504.67
266.54	2801.62
266.76	2807.77
266.98	2562.01
267.19	2650.07
267.41	2863.06
267.62	2625.50
267.84	2355.16
268.06	2637.78
268.27	2746.33
268.49	2879.44
268.70	2645.98
268.92	2541.53
269.14	2594.78
269.35	2484.19
269.57	2508.76
269.79	2547.67
270.00	2619.35
270.22	2916.31
270.43	2469.85
270.65	2365.40
270.87	2723.80
271.08	2801.62
271.30	2605.02
271.51	2471.90
271.73	2793.43
271.95	2920.40
272.16	2498.52
272.38	2662.36
272.59	2613.21
272.81	2818.00
273.02	2463.71
273.24	2627.54
273.46	2899.92
273.67	2572.25
273.89	2396.12
274.10	2506.71
274.32	2836.44
274.54	2772.95
274.75	2559.96
274.97	2504.67
275.18	2879.44
275.40	2750.42
275.61	2590.68
275.83	2674.65
276.05	2576.34
276.26	2695.13
276.48	2553.82
276.69	2572.25
276.91	2605.02
277.12	3014.61
277.34	2750.42
277.55	2762.71
277.77	2762.71
277.99	2662.36
278.20	2523.10
278.42	2506.71
278.63	2555.86
278.85	2629.59
279.06	2502.62
279.28	2736.09
279.49	2801.62
279.71	2867.16
279.93	2666.46
280.14	2633.69
280.36	2541.53
280.57	2858.96
280.79	2684.89
281.00	2494.43
281.22	2613.21
281.43	2916.31
281.65	2455.51
281.86	2459.61
282.08	2766.81
282.29	3006.42
282.51	2455.51
282.73	2478.04
282.94	2529.24
283.16	2744.28
283.37	2748.37
283.59	2613.21
283.80	2691.03
284.02	2736.09
284.23	2650.07
284.45	2578.39
284.66	2611.16
284.88	2492.38
285.09	2600.92
285.31	2695.13
285.52	2783.19
285.74	2553.82
285.95	2791.38
286.17	2658.26
286.38	2912.21
286.60	2656.22
286.81	2457.56
287.03	2572.25
287.24	2635.74
287.46	2842.58
287.67	2645.98
287.89	2850.77
288.10	2752.47
288.32	2848.72
288.53	2824.15
288.75	2668.50
288.96	2850.77
289.18	2650.07
289.39	2588.63
289.61	2699.22
289.82	3078.10
290.04	2977.75
290.25	2510.81
290.47	2731.99
290.68	2672.60
290.90	2826.20
291.11	2519.00
291.33	2697.17
291.54	2598.87
291.76	2625.50
291.97	2676.70
292.18	2658.26
292.40	2660.31
292.61	2623.45
292.83	2887.64
293.04	2654.17
293.26	2740.18
293.47	2736.09
293.69	2547.67
293.90	2539.48
294.12	2906.07
294.33	2695.13
294.55	2629.59
294.76	2670.55
294.97	2928.60
295.19	3043.28
295.40	2619.35
295.62	2719.70
295.83	2897.88
296.05	2568.15
296.26	2725.85
296.48	2564.06
296.69	2731.99
296.90	2707.41
297.12	2768.85
297.33	2850.77
297.55	2772.95
297.76	2736.09
297.98	2688.98
298.19	2627.54
298.41	2719.70
298.62	2639.83
298.83	2826.20
299.05	2670.55
299.26	2660.31
299.48	2594.78
299.69	2668.50
299.90	2602.97
300.12	2666.46
300.33	2777.05
300.55	2777.05
300.76	2605.02
300.98	2527.19
301.19	2818.00
301.40	2475.99
301.62	2555.86
301.83	2752.47
302.05	2703.32
302.26	2670.55
302.47	2607.06
302.69	2568.15
302.90	2715.61
303.12	2377.69
303.33	2752.47
303.54	2940.88
303.76	2686.94
303.97	2592.73
304.19	2752.47
304.40	2600.92
304.61	2748.37
304.83	2727.89
305.04	2809.81
305.26	2830.29
305.47	2654.17
305.68	2635.74
305.90	2516.95
306.11	2924.50
306.33	2662.36
306.54	2523.10
306.75	2586.58
306.97	2531.29
307.18	2586.58
307.39	2598.87
307.61	2682.84
307.82	2650.07
308.04	2818.00
308.25	2455.51
308.46	2723.80
308.68	2734.04
308.89	2727.89
309.10	2731.99
309.32	2660.31
309.53	2697.17
309.74	2877.40
309.96	2568.15
310.17	2738.13
310.39	2625.50
310.60	2801.62
310.81	2588.63
311.03	2465.75
311.24	2815.96
311.45	2736.09
311.67	2822.10
311.88	2707.41
312.09	2652.12
312.31	2641.88
312.52	2553.82
312.73	2576.34
312.95	2576.34
313.16	2584.54
313.37	2760.66
313.59	2719.70
313.80	2856.92
314.01	3049.43
314.23	2623.45
314.44	2605.02
314.65	2578.39
314.87	2637.78
315.08	2584.54
315.29	2582.49
315.51	2635.74
315.72	2539.48
315.93	2748.37
316.15	2729.94
316.36	2643.93
316.57	2758.61
316.79	2580.44
317.00	2586.58
317.21	2801.62
317.43	2549.72
317.64	2662.36
317.85	2566.10
318.07	2641.88
318.28	2715.61
318.49	2785.24
318.70	2760.66
318.92	2777.05
319.13	2813.91
319.34	2813.91
319.56	2688.98
319.77	2764.76
319.98	2719.70
320.20	2760.66
320.41	2731.99
320.62	2818.00
320.83	2529.24
321.05	2852.82
321.26	2627.54
321.47	2762.71
321.69	2824.15
321.90	2484.19
322.11	2553.82
322.32	2858.96
322.54	2822.10
322.75	2613.21
322.96	3178.45
323.18	2543.58
323.39	2461.66
323.60	2525.15
323.81	2695.13
324.03	2588.63
324.24	2758.61
324.45	2670.55
324.66	2543.58
324.88	2818.00
325.09	2959.31
325.30	2609.11
325.52	2578.39
325.73	2746.33
325.94	2592.73
326.15	2420.70
326.37	2486.23
326.58	2815.96
326.79	2924.50
327.00	2594.78
327.22	2549.72
327.43	2650.07
327.64	2590.68
327.85	2691.03
328.07	2619.35
328.28	2998.23
328.49	2652.12
328.70	2637.78
328.92	2605.02
329.13	2697.17
329.34	2766.81
329.55	2826.20
329.76	2721.75
329.98	2664.41
330.19	2990.03
330.40	2777.05
330.61	2631.64
330.83	2842.58
331.04	2572.25
331.25	2742.23
331.46	2719.70
331.68	2600.92
331.89	2869.20
332.10	2635.74
332.31	2451.42
332.52	2766.81
332.74	2875.35
332.95	2383.84
333.16	2674.65
333.37	2850.77
333.58	2658.26
333.80	2641.88
334.01	2424.80
334.22	2727.89
334.43	2631.64
334.64	2625.50
334.86	2492.38
335.07	2607.06
335.28	2953.17
335.49	2365.40
335.70	2695.13
335.92	2897.88
336.13	3117.01
336.34	2703.32
336.55	2641.88
336.76	2772.95
336.98	2396.12
337.19	2637.78
337.40	2682.84
337.61	3010.51
337.82	2695.13
338.04	2641.88
338.25	2521.05
338.46	2652.12
338.67	2650.07
338.88	2506.71
339.09	2547.67
339.31	2699.22
339.52	2596.82
339.73	2508.76
339.94	2607.06
340.15	2811.86
340.36	2678.74
340.58	2686.94
340.79	2600.92
341.00	2858.96
341.21	2547.67
341.42	2867.16
341.63	2635.74
341.85	2807.77
342.06	2721.75
342.27	2582.49
342.48	2693.08
342.69	2543.58
342.90	2736.09
343.12	2852.82
343.33	2648.02
343.54	2873.30
343.75	3065.81
343.96	2617.30
344.17	2545.63
344.38	2725.85
344.60	2645.98
344.81	2531.29
345.02	2586.58
345.23	2846.68
345.44	3106.77
345.65	2695.13
345.86	2686.94
346.07	2754.52
346.29	2699.22
346.50	2822.10
346.71	2672.60
346.92	2920.40
347.13	3035.09
347.34	2621.40
347.55	2617.30
347.76	2686.94
347.98	2453.47
348.19	2686.94
348.40	2805.72
348.61	2629.59
348.82	2869.20
349.03	2656.22
349.24	2480.09
349.45	3004.37
349.66	2383.84
349.88	2590.68
350.09	2562.01
350.30	2990.03
350.51	2871.25
350.72	2746.33
350.93	2654.17
351.14	2660.31
351.35	2785.24
351.56	2654.17
351.77	2639.83
351.99	2756.57
352.20	2942.93
352.41	2736.09
352.62	2346.97
352.83	2750.42
353.04	2668.50
353.25	2572.25
353.46	2676.70
353.67	2863.06
353.88	2480.09
354.09	2568.15
354.30	2592.73
354.52	2807.77
354.73	2693.08
354.94	2600.92
355.15	2705.37
355.36	3004.37
355.57	2635.74
355.78	2609.11
355.99	2545.63
356.20	2670.55
356.41	2977.75
356.62	2656.22
356.83	2605.02
357.04	2987.99
357.25	2506.71
357.46	2557.91
357.68	2461.66
357.89	2578.39
358.10	2707.41
358.31	2549.72
358.52	2609.11
358.73	2478.04
358.94	2570.20
359.15	2607.06
359.36	2643.93
359.57	2672.60
359.78	2731.99
359.99	2775.00
360.20	2553.82
360.41	2658.26
360.62	2805.72
360.83	2656.22
361.04	2619.35
361.25	2830.29
361.46	2934.74
361.67	2717.65
361.88	2740.18
362.09	2910.16
362.30	2740.18
362.51	2516.95
362.72	2641.88
362.93	2924.50
363.14	2793.43
363.35	2645.98
363.56	2553.82
363.78	2869.20
363.99	2818.00
364.20	2502.62
364.41	2629.59
364.62	3045.33
364.83	2775.00
365.04	2664.41
365.25	2600.92
365.46	3121.10
365.67	2527.19
365.88	2731.99
366.09	2602.97
366.30	2662.36
366.51	2729.94
366.72	2506.71
366.93	2596.82
367.14	2752.47
367.35	2918.36
367.56	2584.54
367.77	2746.33
367.98	2775.00
368.18	2758.61
368.39	2674.65
368.60	2641.88
368.81	2815.96
369.02	2785.24
369.23	2621.40
369.44	2408.41
369.65	2645.98
369.86	2742.23
370.07	2711.51
370.28	2557.91
370.49	2805.72
370.70	2815.96
370.91	2600.92
371.12	2457.56
371.33	2858.96
371.54	2662.36
371.75	2729.94
371.96	2344.92
372.17	2711.51
372.38	2658.26
372.59	2672.60
372.80	2598.87
373.01	2680.79
373.22	2746.33
373.43	2584.54
373.64	2469.85
373.85	2904.02
374.06	3020.75
374.26	2863.06
374.47	2740.18
374.68	2922.45
374.89	2713.56
375.10	2635.74
375.31	2682.84
375.52	2711.51
375.73	2705.37
375.94	2492.38
376.15	2779.09
376.36	2670.55
376.57	2656.22
376.78	2584.54
376.99	2688.98
377.20	2934.74
377.40	2596.82
377.61	2871.25
377.82	2512.86
378.03	2897.88
378.24	2811.86
378.45	2701.27
378.66	2711.51
378.87	2541.53
379.08	2494.43
379.29	2609.11
379.50	2775.00
379.71	2775.00
379.91	2832.34
380.12	2652.12
380.33	2639.83
380.54	2707.41
380.75	2699.22
380.96	2566.10
381.17	2627.54
381.38	2721.75
381.59	2676.70
381.80	2645.98
382.00	2789.33
382.21	2752.47
382.42	3006.42
382.63	2863.06
382.84	2697.17
383.05	2867.16
383.26	2908.12
383.47	2715.61
383.68	2613.21
383.88	2787.29
384.09	2803.67
384.30	2815.96
384.51	2707.41
384.72	2607.06
384.93	2570.20
385.14	2633.69
385.35	2791.38
385.55	2578.39
385.76	2947.03
385.97	2605.02
386.18	2508.76
386.39	2580.44
386.60	2664.41
386.81	2670.55
387.02	2469.85
387.22	2451.42
387.43	2822.10
387.64	2721.75
387.85	2805.72
388.06	2811.86
388.27	4048.83
388.48	7591.82
388.68	10864.47
388.89	13479.73
389.10	14419.75
389.31	13758.25
389.52	10872.67
389.73	9514.86
389.93	8628.09
390.14	7942.02
390.35	7069.59
390.56	6332.32
390.77	5240.75
390.98	4083.65
391.18	3461.07
391.39	3117.01
391.60	2758.61
391.81	2785.24
392.02	2652.12
392.23	3112.91
392.43	2775.00
392.64	2830.29
392.85	2705.37
393.06	2934.74
393.27	2715.61
393.47	2568.15
393.68	2721.75
393.89	2713.56
394.10	3004.37
394.31	2594.78
394.52	2582.49
394.72	2648.02
394.93	2930.64
395.14	2498.52
395.35	2756.57
395.56	2645.98
395.76	2693.08
395.97	2625.50
396.18	2723.80
396.39	2815.96
396.60	3293.13
396.80	2944.98
397.01	2840.53
397.22	2887.64
397.43	2869.20
397.64	2613.21
397.84	2705.37
398.05	3065.81
398.26	2609.11
398.47	2744.28
398.67	2844.63
398.88	2729.94
399.09	2799.57
399.30	2523.10
399.51	2752.47
399.71	2627.54
399.92	2662.36
400.13	2695.13
400.34	2693.08
400.54	2729.94
400.75	2955.22
400.96	2662.36
401.17	2889.68
401.37	2779.09
401.58	2740.18
401.79	2613.21
402.00	2803.67
402.21	3139.54
402.41	2994.13
402.62	2910.16
402.83	3008.47
403.04	3121.10
403.24	3399.63
403.45	2709.46
403.66	3028.95
403.87	2944.98
404.07	2932.69
404.28	2920.40
404.49	2863.06
404.70	2781.14
404.90	2756.57
405.11	2719.70
405.32	2756.57
405.52	2633.69
405.73	2621.40
405.94	2592.73
406.15	2678.74
406.35	2836.44
406.56	2873.30
406.77	2664.41
406.98	2637.78
407.18	2686.94
407.39	2940.88
407.60	2686.94
407.80	2660.31
408.01	2695.13
408.22	2711.51
408.43	2590.68
408.63	2760.66
408.84	2930.64
409.05	2871.25
409.25	2611.16
409.46	2533.34
409.67	2670.55
409.88	2652.12
410.08	2713.56
410.29	2617.30
410.50	2801.62
410.70	2777.05
410.91	2570.20
411.12	2645.98
411.32	2793.43
411.53	2605.02
411.74	2707.41
411.95	2680.79
412.15	2717.65
412.36	2805.72
412.57	2686.94
412.77	2803.67
412.98	2736.09
413.19	2617.30
413.39	2764.76
413.60	2664.41
413.81	2987.99
414.01	2551.77
414.22	2625.50
414.43	2680.79
414.63	2645.98
414.84	2904.02
415.05	2582.49
415.25	2521.05
415.46	2801.62
415.67	2637.78
415.87	2625.50
416.08	2605.02
416.29	2637.78
416.49	2740.18
416.70	2555.86
416.91	2602.97
417.11	2686.94
417.32	2799.57
417.53	2752.47
417.73	2727.89
417.94	2605.02
418.15	2746.33
418.35	2723.80
418.56	2645.98
418.77	3149.78
418.97	2830.29
419.18	2641.88
419.38	2392.03
419.59	2678.74
419.80	2940.88
420.00	2654.17
420.21	2670.55
420.42	2820.05
420.62	2818.00
420.83	2527.19
421.04	2672.60
421.24	2611.16
421.45	2834.39
421.65	2668.50
421.86	2615.26
422.07	2850.77
422.27	2783.19
422.48	2645.98
422.69	2529.24
422.89	2699.22
423.10	2711.51
423.30	2559.96
423.51	2582.49
423.72	2758.61
423.92	2828.24
424.13	2463.71
424.33	2693.08
424.54	2889.68
424.75	2691.03
424.95	2865.11
425.16	2768.85
425.36	2602.97
425.57	2813.91
425.78	2744.28
425.98	2756.57
426.19	2727.89
426.39	2641.88
426.60	2684.89
426.81	2715.61
427.01	2731.99
427.22	2592.73
427.42	2523.10
427.63	2578.39
427.83	2793.43
428.04	2965.46
428.25	2758.61
428.45	2775.00
428.66	2863.06
428.86	2713.56
429.07	2695.13
429.28	2717.65
429.48	2729.94
429.69	2627.54
429.89	2764.76
430.10	2533.34
430.30	2809.81
430.51	2820.05
430.71	2609.11
430.92	2590.68
431.13	2607.06
431.33	2775.00
431.54	2723.80
431.74	2822.10
431.95	3059.67
432.15	2635.74
432.36	2629.59
432.56	2707.41
432.77	2979.79
432.98	2938.84
433.18	2686.94
433.39	2541.53
433.59	2621.40
433.80	3026.90
434.00	2883.54
434.21	2635.74
434.41	2668.50
434.62	3039.19
434.82	2535.39
435.03	2541.53
435.23	2752.47
435.44	2471.90
435.64	2590.68
435.85	2705.37
436.06	2838.48
436.26	2867.16
436.47	2605.02
436.67	2582.49
436.88	2729.94
437.08	2912.21
437.29	2740.18
437.49	2629.59
437.70	2932.69
437.90	2727.89
438.11	2885.59
438.31	2750.42
438.52	2938.84
438.72	2926.55
438.93	2965.46
439.13	2678.74
439.34	2861.01
439.54	2680.79
439.75	2686.94
439.95	2748.37
440.16	2605.02
440.36	2666.46
440.57	2740.18
440.77	2654.17
440.98	2701.27
441.18	2840.53
441.39	2635.74
441.59	2506.71
441.80	3018.71
442.00	2791.38
442.21	2693.08
442.41	2490.33
442.62	2926.55
442.82	2619.35
443.02	2635.74
443.23	2707.41
443.43	2631.64
443.64	2916.31
443.84	2613.21
444.05	2768.85
444.25	2723.80
444.46	2686.94
444.66	2648.02
444.87	2922.45
445.07	2580.44
445.28	2748.37
445.48	2906.07
445.69	2744.28
445.89	3102.67
446.09	2699.22
446.30	3004.37
446.50	3106.77
446.71	4493.24
446.91	5611.43
447.12	6393.76
447.32	6821.78
447.53	6600.60
447.73	5259.18
447.93	4861.88
448.14	4618.17
448.34	4577.21
448.55	3899.33
448.75	3850.18
448.96	3694.54
449.16	3383.24
449.36	3241.93
449.57	2863.06
449.77	2727.89
449.98	2744.28
450.18	2818.00
450.39	2598.87
450.59	2787.29
450.79	2783.19
451.00	2588.63
451.20	2715.61
451.41	2615.26
451.61	2832.34
451.81	2674.65
452.02	2621.40
452.22	2705.37
452.43	2650.07
452.63	2572.25
452.84	2605.02
453.04	2654.17
453.24	2813.91
453.45	2605.02
453.65	2564.06
453.86	2678.74
454.06	2736.09
454.26	2777.05
454.47	2621.40
454.67	2830.29
454.87	2875.35
455.08	2641.88
455.28	2768.85
455.49	2731.99
455.69	2680.79
455.89	3047.38
456.10	2818.00
456.30	2627.54
456.51	2791.38
456.71	2768.85
456.91	2734.04
457.12	2736.09
457.32	2752.47
457.52	2605.02
457.73	2811.86
457.93	2783.19
458.14	2670.55
458.34	2490.33
458.54	2662.36
458.75	2678.74
458.95	2852.82
459.15	2756.57
459.36	2768.85
459.56	2686.94
459.76	3119.06
459.97	2791.38
460.17	2691.03
460.37	2815.96
460.58	2697.17
460.78	2734.04
460.99	2680.79
461.19	2670.55
461.39	2611.16
461.60	2703.32
461.80	2695.13
462.00	2519.00
462.21	2717.65
462.41	2662.36
462.61	2635.74
462.82	2441.18
463.02	2830.29
463.22	2752.47
463.43	2656.22
463.63	2731.99
463.83	2983.89
464.04	2881.49
464.24	2662.36
464.44	2650.07
464.64	2781.14
464.85	2787.29
465.05	2717.65
465.25	2592.73
465.46	2699.22
465.66	2830.29
465.86	2766.81
466.07	2566.10
466.27	2703.32
466.47	2521.05
466.68	2514.91
466.88	2775.00
467.08	2828.24
467.29	2881.49
467.49	2691.03
467.69	2779.09
467.89	2813.91
468.10	2723.80
468.30	2672.60
468.50	2764.76
468.71	2838.48
468.91	2578.39
469.11	2887.64
469.31	2715.61
469.52	2613.21
469.72	2887.64
469.92	2820.05
470.13	2658.26
470.33	2734.04
470.53	2744.28
470.73	3067.86
470.94	3418.06
471.14	3325.90
471.34	3792.84
471.54	3596.23
471.75	3313.61
471.95	3117.01
472.15	3063.76
472.36	3039.19
472.56	3000.27
472.76	3209.17
472.96	3028.95
473.17	2867.16
473.37	2785.24
473.57	2639.83
473.77	2775.00
473.98	2705.37
474.18	2516.95
474.38	3192.78
474.58	2715.61
474.79	2555.86
474.99	2768.85
475.19	2914.26
475.39	2539.48
475.60	2744.28
475.80	2592.73
476.00	2744.28
476.20	2738.13
476.41	2656.22
476.61	2752.47
476.81	2961.36
477.01	2588.63
477.21	2850.77
477.42	2809.81
477.62	2562.01
477.82	2762.71
478.02	2586.58
478.23	2656.22
478.43	2666.46
478.63	2740.18
478.83	2670.55
479.03	2650.07
479.24	3028.95
479.44	3084.24
479.64	2510.81
479.84	2414.56
480.04	2631.64
480.25	2820.05
480.45	2531.29
480.65	2523.10
480.85	2949.08
481.06	2684.89
481.26	2668.50
481.46	2703.32
481.66	2826.20
481.86	2564.06
482.06	2686.94
482.27	2602.97
482.47	2682.84
482.67	2705.37
482.87	2598.87
483.07	2758.61
483.28	2627.54
483.48	2516.95
483.68	2717.65
483.88	2592.73
484.08	2441.18
484.29	2553.82
484.49	2686.94
484.69	2519.00
484.89	2924.50
485.09	2924.50
485.29	2701.27
485.50	2729.94
485.70	2756.57
485.90	3008.47
486.10	2764.76
486.30	2670.55
486.50	2850.77
486.71	2746.33
486.91	2717.65
487.11	2752.47
487.31	2551.77
487.51	2807.77
487.71	2551.77
487.91	2602.97
488.12	2602.97
488.32	2447.32
488.52	2637.78
488.72	2365.40
488.92	2736.09
489.12	2897.88
489.32	2815.96
489.53	2656.22
489.73	2574.30
489.93	2928.60
490.13	2570.20
490.33	2498.52
490.53	2676.70
490.73	2881.49
490.94	2555.86
491.14	2809.81
491.34	2891.73
491.54	2895.83
491.74	3545.03
491.94	4042.69
492.14	4478.91
492.34	4476.86
492.54	4177.86
492.75	3581.90
492.95	3702.73
493.15	3368.91
493.35	3325.90
493.55	3147.73
493.75	3178.45
493.95	3186.64
494.15	2856.92
494.35	2801.62
494.56	2734.04
494.76	2576.34
494.96	2785.24
495.16	2572.25
495.36	2758.61
495.56	2746.33
495.76	2725.85
495.96	2662.36
496.16	2654.17
496.36	3024.85
496.56	2637.78
496.77	2727.89
496.97	2697.17
497.17	2879.44
497.37	2447.32
497.57	2711.51
497.77	2736.09
497.97	2578.39
498.17	2684.89
498.37	2631.64
498.57	2779.09
498.77	2664.41
498.97	2750.42
499.17	2951.12
499.38	2711.51
499.58	2856.92
499.78	2807.77
499.98	2789.33
500.18	2668.50
500.38	2682.84
500.58	2867.16
500.78	3237.84
500.98	5283.76
501.18	7131.03
501.38	8769.40
501.58	9666.41
501.78	9328.50
501.98	7653.26
502.18	6502.30
502.38	5638.06
502.58	5400.49
502.78	4898.74
502.98	4597.69
503.18	4409.28
503.38	4118.47
503.59	3635.14
503.79	3463.12
503.99	3211.22
504.19	3174.35
504.39	3139.54
504.59	3086.29
504.79	3106.77
504.99	3246.03
505.19	2867.16
505.39	2826.20
505.59	3086.29
505.79	3135.44
505.99	2893.78
506.19	2684.89
506.39	2850.77
506.59	2650.07
506.79	2713.56
506.99	2740.18
507.19	2600.92
507.39	2725.85
507.59	2516.95
507.79	2543.58
507.99	2592.73
508.19	2680.79
508.39	2629.59
508.59	2654.17
508.79	2863.06
508.99	2998.23
509.19	2635.74
509.39	2777.05
509.59	2619.35
509.79	2684.89
509.99	2738.13
510.19	2822.10
510.39	2754.52
510.59	2809.81
510.79	2635.74
510.99	2543.58
511.19	2537.43
511.39	2985.94
511.59	2869.20
511.79	2785.24
511.99	2727.89
512.19	3035.09
512.38	2775.00
512.58	2613.21
512.78	2623.45
512.98	2908.12
513.18	2967.51
513.38	2523.10
513.58	2697.17
513.78	2639.83
513.98	2625.50
514.18	2631.64
514.38	2625.50
514.58	2760.66
514.78	2637.78
514.98	2529.24
515.18	2662.36
515.38	2619.35
515.58	2914.26
515.78	2545.63
515.98	2721.75
516.18	2881.49
516.38	2756.57
516.57	2576.34
516.77	2633.69
516.97	2858.96
517.17	2693.08
517.37	2383.84
517.57	2777.05
517.77	2711.51
517.97	2588.63
518.17	2723.80
518.37	2535.39
518.57	2652.12
518.77	2750.42
518.97	2643.93
519.16	2772.95
519.36	2861.01
519.56	2648.02
519.76	2633.69
519.96	2680.79
520.16	2928.60
520.36	2551.77
520.56	2748.37
520.76	2600.92
520.96	2725.85
521.16	2852.82
521.35	2834.39
521.55	2897.88
521.75	2756.57
521.95	2578.39
522.15	2619.35
522.35	2488.28
522.55	2680.79
522.75	2826.20
522.95	2584.54
523.14	2445.27
523.34	2818.00
523.54	2713.56
523.74	2754.52
523.94	2695.13
524.14	2521.05
524.34	2793.43
524.54	2889.68
524.73	2627.54
524.93	2824.15
525.13	2719.70
525.33	2539.48
525.53	2924.50
525.73	2766.81
525.93	2721.75
526.13	2598.87
526.32	2586.58
526.52	2850.77
526.72	2883.54
526.92	2613.21
527.12	2559.96
527.32	2545.63
527.52	2744.28
527.71	2760.66
527.91	2627.54
528.11	2670.55
528.31	2695.13
528.51	2580.44
528.71	2799.57
528.90	2746.33
529.10	2897.88
529.30	2818.00
529.50	2449.37
529.70	2756.57
529.90	2639.83
530.09	2707.41
530.29	2531.29
530.49	2600.92
530.69	3074.00
530.89	2760.66
531.09	2781.14
531.28	2633.69
531.48	2949.08
531.68	2736.09
531.88	2635.74
532.08	2818.00
532.28	2723.80
532.47	2777.05
532.67	2746.33
532.87	2844.63
533.07	2557.91
533.27	2715.61
533.46	2705.37
533.66	2740.18
533.86	2715.61
534.06	2693.08
534.26	2682.84
534.45	2668.50
534.65	2795.48
534.85	2727.89
535.05	2557.91
535.25	2879.44
535.44	2562.01
535.64	2717.65
535.84	2666.46
536.04	2666.46
536.24	2674.65
536.43	2633.69
536.63	2674.65
536.83	2777.05
537.03	2658.26
537.22	2455.51
537.42	2500.57
537.62	2766.81
537.82	2600.92
538.02	2858.96
538.21	2746.33
538.41	3168.21
538.61	2756.57
538.81	2645.98
539.00	2750.42
539.20	2496.47
539.40	2695.13
539.60	2672.60
539.79	2783.19
539.99	2684.89
540.19	2656.22
540.39	2488.28
540.58	2707.41
540.78	2887.64
540.98	2693.08
541.18	2830.29
541.37	2762.71
541.57	2734.04
541.77	2793.43
541.97	2539.48
542.16	2523.10
542.36	2629.59
542.56	2625.50
542.76	2922.45
542.95	2707.41
543.15	2727.89
543.35	2895.83
543.54	2615.26
543.74	2615.26
543.94	2924.50
544.14	2686.94
544.33	2727.89
544.53	2541.53
544.73	2738.13
544.93	2709.46
545.12	2602.97
545.32	2682.84
545.52	2605.02
545.71	2602.97
545.91	2572.25
546.11	2600.92
546.30	2617.30
546.50	2680.79
546.70	2742.23
546.90	2645.98
547.09	2459.61
547.29	2809.81
547.49	2762.71
547.68	2654.17
547.88	2627.54
548.08	2844.63
548.27	3055.57
548.47	2680.79
548.67	2660.31
548.87	2775.00
549.06	2547.67
549.26	2713.56
549.46	2793.43
549.65	2662.36
549.85	2662.36
550.05	2650.07
550.24	2541.53
550.44	2791.38
550.64	2693.08
550.83	2678.74
551.03	2992.08
551.23	2854.87
551.42	2721.75
551.62	2715.61
551.82	2750.42
552.01	2650.07
552.21	2916.31
552.41	2666.46
552.60	2940.88
552.80	2682.84
553.00	2666.46
553.19	2652.12
553.39	2940.88
553.59	2543.58
553.78	2858.96
553.98	2680.79
554.17	2508.76
554.37	2801.62
554.57	2744.28
554.76	2562.01
554.96	2670.55
555.16	2666.46
555.35	2727.89
555.55	2721.75
555.75	2799.57
555.94	2867.16
556.14	2494.43
556.33	2686.94
556.53	2777.05
556.73	2701.27
556.92	2688.98
557.12	2703.32
557.32	2957.27
557.51	2914.26
557.71	2645.98
557.90	2850.77
558.10	2906.07
558.30	2631.64
558.49	2707.41
558.69	2617.30
558.88	2842.58
559.08	2768.85
559.28	2672.60
559.47	2617.30
559.67	2787.29
559.86	3074.00
560.06	2674.65
560.26	2615.26
560.45	2830.29
560.65	2668.50
560.84	2914.26
561.04	2529.24
561.24	2809.81
561.43	2652.12
561.63	2867.16
561.82	2686.94
562.02	2818.00
562.22	2607.06
562.41	2557.91
562.61	2654.17
562.80	2658.26
563.00	3030.99
563.19	2727.89
563.39	2775.00
563.59	2756.57
563.78	2637.78
563.98	2488.28
564.17	2648.02
564.37	2537.43
564.56	2633.69
564.76	2494.43
564.96	2779.09
565.15	2815.96
565.35	3063.76
565.54	2627.54
565.74	2705.37
565.93	2852.82
566.13	2686.94
566.32	2715.61
566.52	2748.37
566.71	2717.65
566.91	2897.88
567.11	2762.71
567.30	2562.01
567.50	2805.72
567.69	2793.43
567.89	2637.78
568.08	2609.11
568.28	2711.51
568.47	2582.49
568.67	2678.74
568.86	2619.35
569.06	2799.57
569.25	2695.13
569.45	2502.62
569.64	2662.36
569.84	2693.08
570.04	2797.53
570.23	2621.40
570.43	2596.82
570.62	2727.89
570.82	2971.60
571.01	2529.24
571.21	2598.87
571.40	2586.58
571.60	2818.00
571.79	2791.38
571.99	2658.26
572.18	2576.34
572.38	2895.83
572.57	2609.11
572.77	2711.51
572.96	3063.76
573.16	2801.62
573.35	2598.87
573.55	2777.05
573.74	2949.08
573.94	2619.35
574.13	2670.55
574.33	2818.00
574.52	2873.30
574.71	2768.85
574.91	2680.79
575.10	2492.38
575.30	2676.70
575.49	2570.20
575.69	2549.72
575.88	2713.56
576.08	2834.39
576.27	2891.73
576.47	2629.59
576.66	2873.30
576.86	2938.84
577.05	2764.76
577.25	2746.33
577.44	2865.11
577.64	2676.70
577.83	2838.48
578.02	2666.46
578.22	2729.94
578.41	2977.75
578.61	2719.70
578.80	2557.91
579.00	2695.13
579.19	2680.79
579.39	2793.43
579.58	2658.26
579.77	2633.69
579.97	2928.60
580.16	2938.84
580.36	2828.24
580.55	2703.32
580.75	2846.68
580.94	2701.27
581.13	2791.38
581.33	2877.40
581.52	2693.08
581.72	2996.18
581.91	2854.87
582.11	2650.07
582.30	2881.49
582.49	2805.72
582.69	2883.54
582.88	2740.18
583.08	2772.95
583.27	2893.78
583.47	2727.89
583.66	2619.35
583.85	2588.63
584.05	2775.00
584.24	2727.89
584.44	2723.80
584.63	2895.83
584.82	3033.04
585.02	2811.86
585.21	2844.63
585.41	2924.50
585.60	2867.16
585.79	2985.94
585.99	3002.32
586.18	2856.92
586.37	3588.04
586.57	5363.63
586.76	15992.59
586.96	35108.33
587.15	48354.59
587.34	57105.56
587.54	61203.55
587.73	55207.09
587.93	38905.26
588.12	29312.58
588.31	24137.36
588.51	21112.51
588.70	19631.83
588.89	17309.43
589.09	14622.50
589.28	12511.04
589.47	9846.63
589.67	7540.62
589.86	5986.21
590.06	4503.48
590.25	3932.10
590.44	3395.53
590.64	3190.74
590.83	3069.91
591.02	2994.13
591.22	2699.22
591.41	2715.61
591.60	2772.95
591.80	3164.11
591.99	2512.86
592.18	2592.73
592.38	2881.49
592.57	2611.16
592.76	2725.85
592.96	2742.23
593.15	2699.22
593.34	2934.74
593.54	2637.78
593.73	2801.62
593.92	2852.82
594.12	2850.77
594.31	2750.42
594.50	2889.68
594.70	2801.62
594.89	3110.86
595.08	2529.24
595.28	2824.15
595.47	3170.26
595.66	2955.22
595.86	2535.39
596.05	2596.82
596.24	2748.37
596.43	3020.75
596.63	2873.30
596.82	2768.85
597.01	2852.82
597.21	2996.18
597.40	2699.22
597.59	2664.41
597.79	2705.37
597.98	2850.77
598.17	2736.09
598.36	2711.51
598.56	2908.12
598.75	2658.26
598.94	2803.67
599.14	2691.03
599.33	2688.98
599.52	2818.00
599.71	2738.13
599.91	2768.85
600.10	2883.54
600.29	2731.99
600.48	2770.90
600.68	2764.76
600.87	2760.66
601.06	2617.30
601.26	2713.56
601.45	2674.65
601.64	2660.31
601.83	2908.12
602.03	2670.55
602.22	2578.39
602.41	2846.68
602.60	3071.95
602.80	2785.24
602.99	2756.57
603.18	2656.22
603.37	2818.00
603.57	2668.50
603.76	2672.60
603.95	2906.07
604.14	2717.65
604.34	2559.96
604.53	2686.94
604.72	2766.81
604.91	2848.72
605.10	2762.71
605.30	2568.15
605.49	3078.10
605.68	2842.58
605.87	2691.03
606.07	2623.45
606.26	2705.37
606.45	2826.20
606.64	2777.05
606.84	2600.92
607.03	2764.76
607.22	2807.77
607.41	2686.94
607.60	2674.65
607.80	2910.16
607.99	2721.75
608.18	2781.14
608.37	2607.06
608.56	2609.11
608.76	2830.29
608.95	2844.63
609.14	2635.74
609.33	2930.64
609.52	2867.16
609.72	2762.71
609.91	2811.86
610.10	2775.00
610.29	2914.26
610.48	2734.04
610.68	2746.33
610.87	2672.60
611.06	2887.64
611.25	2707.41
611.44	2793.43
611.63	2707.41
611.83	2858.96
612.02	2580.44
612.21	2838.48
612.40	2482.14
612.59	2654.17
612.79	2553.82
612.98	2697.17
613.17	2967.51
613.36	2707.41
613.55	2801.62
613.74	2703.32
613.93	2768.85
614.13	2842.58
614.32	2809.81
614.51	2748.37
614.70	2736.09
614.89	2709.46
615.08	2709.46
615.28	3061.71
615.47	2621.40
615.66	2824.15
615.85	2731.99
616.04	2861.01
616.23	2723.80
616.42	2705.37
616.62	2717.65
616.81	2678.74
617.00	2766.81
617.19	2824.15
617.38	2695.13
617.57	2650.07
617.76	2793.43
617.95	2840.53
618.15	2803.67
618.34	2861.01
618.53	2531.29
618.72	2871.25
618.91	2807.77
619.10	2758.61
619.29	2734.04
619.48	2695.13
619.68	2650.07
619.87	2645.98
620.06	2576.34
620.25	2867.16
620.44	2572.25
620.63	2691.03
620.82	2842.58
621.01	2805.72
621.20	2744.28
621.39	2748.37
621.59	2783.19
621.78	2682.84
621.97	2695.13
622.16	2777.05
622.35	2852.82
622.54	2875.35
622.73	2758.61
622.92	2553.82
623.11	2904.02
623.30	2707.41
623.49	2820.05
623.68	2547.67
623.88	2899.92
624.07	2748.37
624.26	2623.45
624.45	2719.70
624.64	2703.32
624.83	2713.56
625.02	2666.46
625.21	2650.07
625.40	2760.66
625.59	2985.94
625.78	2731.99
625.97	2818.00
626.16	2947.03
626.35	2789.33
626.54	2682.84
626.74	2877.40
626.93	2719.70
627.12	2658.26
627.31	2789.33
627.50	2658.26
627.69	2828.24
627.88	2568.15
628.07	2645.98
628.26	2488.28
628.45	2678.74
628.64	2613.21
628.83	2584.54
629.02	2502.62
629.21	2961.36
629.40	2775.00
629.59	2645.98
629.78	2680.79
629.97	2734.04
630.16	2719.70
630.35	2729.94
630.54	2658.26
630.73	2559.96
630.92	2736.09
631.11	2619.35
631.30	2607.06
631.49	2848.72
631.68	2641.88
631.87	2799.57
632.06	2527.19
632.25	3098.58
632.44	2691.03
632.63	2713.56
632.82	2645.98
633.01	2717.65
633.20	2818.00
633.39	2637.78
633.58	2533.34
633.77	2717.65
633.96	2701.27
634.15	2793.43
634.34	2676.70
634.53	2830.29
634.72	2658.26
634.91	2588.63
635.10	2693.08
635.29	2799.57
635.48	2762.71
635.67	2557.91
635.86	2514.91
636.05	2908.12
636.24	2613.21
636.43	2658.26
636.62	2725.85
636.81	2480.09
637.00	2713.56
637.19	2695.13
637.38	2623.45
637.57	2758.61
637.76	2750.42
637.95	2748.37
638.14	2676.70
638.33	2805.72
638.52	2805.72
638.71	2602.97
638.89	2564.06
639.08	3170.26
639.27	2865.11
639.46	2742.23
639.65	3207.12
639.84	3194.83
640.03	3268.56
640.22	3092.43
640.41	3153.87
640.60	2777.05
640.79	2873.30
640.98	2777.05
641.17	2809.81
641.36	2875.35
641.55	2858.96
641.74	2551.77
641.92	2580.44
642.11	2633.69
642.30	2781.14
642.49	2570.20
642.68	2648.02
642.87	2801.62
643.06	2863.06
643.25	2576.34
643.44	2580.44
643.63	2752.47
643.82	2807.77
644.00	2566.10
644.19	2621.40
644.38	2617.30
644.57	2838.48
644.76	2686.94
644.95	2721.75
645.14	2701.27
645.33	2656.22
645.52	2676.70
645.71	2529.24
645.89	2566.10
646.08	2660.31
646.27	2676.70
646.46	2885.59
646.65	2484.19
646.84	2713.56
647.03	2568.15
647.22	2791.38
647.40	2748.37
647.59	2662.36
647.78	2480.09
647.97	2582.49
648.16	2564.06
648.35	2951.12
648.54	2799.57
648.73	2654.17
648.91	2824.15
649.10	2746.33
649.29	2504.67
649.48	2639.83
649.67	2754.52
649.86	2785.24
650.05	2621.40
650.23	2893.78
650.42	2619.35
650.61	2901.97
650.80	2858.96
650.99	2953.17
651.18	2916.31
651.36	2926.55
651.55	2664.41
651.74	2789.33
651.93	2748.37
652.12	2643.93
652.31	2664.41
652.49	2609.11
652.68	2717.65
652.87	2877.40
653.06	2641.88
653.25	2942.93
653.44	2744.28
653.62	3008.47
653.81	2609.11
654.00	2660.31
654.19	2830.29
654.38	3141.58
654.56	2818.00
654.75	2596.82
654.94	2834.39
655.13	2764.76
655.32	2662.36
655.51	2721.75
655.69	2703.32
655.88	2750.42
656.07	2531.29
656.26	2775.00
656.45	2514.91
656.63	2764.76
656.82	2684.89
657.01	2840.53
657.20	2627.54
657.38	2940.88
657.57	2592.73
657.76	2445.27
657.95	2848.72
658.14	2602.97
658.32	2777.05
658.51	2541.53
658.70	2736.09
658.89	2856.92
659.08	2654.17
659.26	2832.34
659.45	2682.84
659.64	2811.86
659.83	2691.03
660.01	2969.55
660.20	2777.05
660.39	2889.68
660.58	2496.47
660.76	2734.04
660.95	2514.91
661.14	2691.03
661.33	2605.02
661.51	2654.17
661.70	2650.07
661.89	2815.96
662.08	2643.93
662.26	2504.67
662.45	2684.89
662.64	3012.56
662.83	2707.41
663.01	2471.90
663.20	2676.70
663.39	2973.65
663.58	2697.17
663.76	2623.45
663.95	2775.00
664.14	2570.20
664.32	2648.02
664.51	2525.15
664.70	2498.52
664.89	2832.34
665.07	2590.68
665.26	2744.28
665.45	2539.48
665.64	2791.38
665.82	2676.70
666.01	2746.33
666.20	2531.29
666.38	2820.05
666.57	2772.95
666.76	4122.56
666.95	9901.93
667.13	17039.10
667.32	21100.22
667.51	23862.93
667.69	24979.07
667.88	21890.74
668.07	15431.44
668.25	13107.00
668.44	11218.77
668.63	9428.85
668.81	8521.60
669.00	7204.75
669.19	6596.51
669.38	5742.50
669.56	5011.38
669.75	4227.01
669.94	3792.84
670.12	3282.89
670.31	2897.88
670.50	2949.08
670.68	2861.01
670.87	2842.58
671.06	2682.84
671.24	2697.17
671.43	2912.21
671.62	2766.81
671.80	2643.93
671.99	2691.03
672.18	2703.32
672.36	2842.58
672.55	2768.85
672.74	2678.74
672.92	2676.70
673.11	2791.38
673.29	2590.68
673.48	2783.19
673.67	2701.27
673.85	2916.31
674.04	2605.02
674.23	2791.38
674.41	2940.88
674.60	2527.19
674.79	2416.60
674.97	2535.39
675.16	2813.91
675.34	2799.57
675.53	2578.39
675.72	2785.24
675.90	3049.43
676.09	2729.94
676.28	2664.41
676.46	2461.66
676.65	2815.96
676.83	2516.95
677.02	2766.81
677.21	2639.83
677.39	2764.76
677.58	2645.98
677.77	2648.02
677.95	2553.82
678.14	2705.37
678.32	2709.46
678.51	2625.50
678.70	2940.88
678.88	2639.83
679.07	2758.61
679.25	2682.84
679.44	2680.79
679.63	2559.96
679.81	2740.18
680.00	2871.25
680.18	2738.13
680.37	2959.31
680.55	2781.14
680.74	2465.75
680.93	2408.41
681.11	2795.48
681.30	2639.83
681.48	2641.88
681.67	2607.06
681.85	2758.61
682.04	2633.69
682.23	2772.95
682.41	2797.53
682.60	2607.06
682.78	2676.70
682.97	2580.44
683.15	2654.17
683.34	2725.85
683.53	2949.08
683.71	2547.67
683.90	2818.00
684.08	2957.27
684.27	2580.44
684.45	2721.75
684.64	2826.20
684.82	2674.65
685.01	2818.00
685.19	2658.26
685.38	2828.24
685.57	2721.75
685.75	2648.02
685.94	2537.43
686.12	2574.30
686.31	2568.15
686.49	2936.79
686.68	2521.05
686.86	2787.29
687.05	2723.80
687.23	2863.06
687.42	2678.74
687.60	2465.75
687.79	2865.11
687.97	2926.55
688.16	2838.48
688.34	2756.57
688.53	2596.82
688.71	2807.77
688.90	2897.88
689.08	2686.94
689.27	2486.23
689.45	2811.86
689.64	2789.33
689.82	2705.37
690.01	2785.24
690.19	2715.61
690.38	2719.70
690.56	2805.72
690.75	2602.97
690.93	2639.83
691.12	2615.26
691.30	2703.32
691.49	2695.13
691.67	2695.13
691.86	2951.12
692.04	2566.10
692.23	2691.03
692.41	2662.36
692.60	2981.84
692.78	2899.92
692.97	2721.75
693.15	2801.62
693.34	2867.16
693.52	2887.64
693.71	2693.08
693.89	2723.80
694.08	2449.37
694.26	2740.18
694.44	2809.81
694.63	2738.13
694.81	2568.15
695.00	2598.87
695.18	2908.12
695.37	3071.95
695.55	2713.56
695.74	2701.27
695.92	2645.98
696.10	2918.36
696.29	2541.53
696.47	2570.20
696.66	2615.26
696.84	2600.92
697.03	2662.36
697.21	2891.73
697.40	4106.18
697.58	2879.44
697.76	2645.98
697.95	2660.31
698.13	2557.91
698.32	2602.97
698.50	2703.32
698.68	2678.74
698.87	2701.27
699.05	2930.64
699.24	2627.54
699.42	2568.15
699.61	2762.71
699.79	2693.08
699.97	2709.46
700.16	2447.32
700.34	2568.15
700.53	2691.03
700.71	2807.77
700.89	2777.05
701.08	2693.08
701.26	2795.48
701.45	3153.87
701.63	2613.21
701.81	2643.93
702.00	2658.26
702.18	2717.65
702.37	2621.40
702.55	2940.88
702.73	2832.34
702.92	2639.83
703.10	2924.50
703.28	2973.65
703.47	2652.12
703.65	2858.96
703.84	2850.77
704.02	2627.54
704.20	2983.89
704.39	2621.40
704.57	2576.34
704.75	2867.16
704.94	2805.72
705.12	2736.09
705.30	3102.67
705.49	5851.05
705.67	11939.66
705.86	17858.29
706.04	20453.06
706.22	22763.17
706.41	22765.22
706.59	17731.31
706.77	13238.07
706.96	11538.26
707.14	10350.43
707.32	8947.58
707.51	7806.86
707.69	6395.81
707.87	5369.77
708.06	4380.61
708.24	3891.14
708.42	3413.96
708.61	3479.50
708.79	2719.70
708.97	2691.03
709.16	2811.86
709.34	2768.85
709.52	2607.06
709.71	2639.83
709.89	2727.89
710.07	2605.02
710.26	2543.58
710.44	2713.56
710.62	2858.96
710.80	2693.08
710.99	2797.53
711.17	2705.37
711.35	2592.73
711.54	2619.35
711.72	2840.53
711.90	2740.18
712.09	2699.22
712.27	2609.11
712.45	2709.46
712.63	2703.32
712.82	2783.19
713.00	2795.48
713.18	2762.71
713.37	2846.68
713.55	2842.58
713.73	2801.62
713.91	2697.17
714.10	2602.97
714.28	2760.66
714.46	2785.24
714.65	2656.22
714.83	2658.26
715.01	2756.57
715.19	2777.05
715.38	2512.86
715.56	2674.65
715.74	2633.69
715.92	2574.30
716.11	2813.91
716.29	2447.32
716.47	2715.61
716.65	2734.04
716.84	2506.71
717.02	2746.33
717.20	2502.62
717.38	2670.55
717.57	2754.52
717.75	2654.17
717.93	2666.46
718.11	2848.72
718.30	2535.39
718.48	2772.95
718.66	2828.24
718.84	2893.78
719.03	2605.02
719.21	2539.48
719.39	2944.98
719.57	2791.38
719.75	2740.18
719.94	2576.34
720.12	2711.51
720.30	2744.28
720.48	2764.76
720.67	2521.05
720.85	2658.26
721.03	2676.70
721.21	2596.82
721.39	2785.24
721.58	2795.48
721.76	2719.70
721.94	2721.75
722.12	2768.85
722.30	2916.31
722.49	2635.74
722.67	2648.02
722.85	2750.42
723.03	2529.24
723.21	2637.78
723.40	2672.60
723.58	2684.89
723.76	2863.06
723.94	2899.92
724.12	2666.46
724.30	2850.77
724.49	2875.35
724.67	2553.82
724.85	2723.80
725.03	2514.91
725.21	2813.91
725.40	2875.35
725.58	2570.20
725.76	2813.91
725.94	2832.34
726.12	2557.91
726.30	2660.31
726.49	2600.92
726.67	2672.60
726.85	2840.53
727.03	3084.24
727.21	3991.49
727.39	5134.26
727.57	5558.19
727.76	6023.08
727.94	6391.71
728.12	5646.25
728.30	4552.63
728.48	4308.93
728.66	4052.93
728.84	3782.60
729.03	3350.48
729.21	3166.16
729.39	3078.10
729.57	2850.77
729.75	2783.19
729.93	2777.05
730.11	2613.21
730.30	2688.98
730.48	2711.51
730.66	2764.76
730.84	2838.48
731.02	2695.13
731.20	2668.50
731.38	2715.61
731.56	2478.04
731.74	2592.73
731.93	2762.71
732.11	2727.89
732.29	2650.07
732.47	2805.72
732.65	2734.04
732.83	2785.24
733.01	2766.81
733.19	2631.64
733.37	2791.38
733.56	2658.26
733.74	2588.63
733.92	2801.62
734.10	2686.94
734.28	2736.09
734.46	2482.14
734.64	2680.79
734.82	2727.89
735.00	2621.40
735.18	2623.45
735.36	2678.74
735.54	2684.89
735.73	2621.40
735.91	2742.23
736.09	2920.40
736.27	2760.66
736.45	2824.15
736.63	2447.32
736.81	2764.76
736.99	2869.20
737.17	2805.72
737.35	2629.59
737.53	2731.99
737.71	2719.70
737.89	2848.72
738.07	2549.72
738.25	2635.74
738.43	2525.15
738.61	2637.78
738.80	2514.91
738.98	2602.97
739.16	2635.74
739.34	2652.12
739.52	2850.77
739.70	2703.32
739.88	2775.00
740.06	2881.49
740.24	2467.80
740.42	2924.50
740.60	2506.71
740.78	2641.88
740.96	2498.52
741.14	2719.70
741.32	2764.76
741.50	2500.57
741.68	2893.78
741.86	3002.32
742.04	2590.68
742.22	2574.30
742.40	2668.50
742.58	2803.67
742.76	2582.49
742.94	2766.81
743.12	2465.75
743.30	2695.13
743.48	2797.53
743.66	2588.63
743.84	2707.41
744.02	2711.51
744.20	2756.57
744.38	2537.43
744.56	2623.45
744.74	2975.70
744.92	2805.72
745.10	2846.68
745.28	2713.56
745.46	2934.74
745.64	2656.22
745.82	2750.42
746.00	2711.51
746.18	2744.28
746.36	2588.63
746.54	2721.75
746.72	2711.51
746.90	2559.96
747.08	2930.64
747.26	2605.02
747.44	2785.24
747.62	2826.20
747.80	2783.19
747.98	2762.71
748.15	2545.63
748.33	2942.93
748.51	2731.99
748.69	2736.09
748.87	2576.34
749.05	2760.66
749.23	2615.26
749.41	2709.46
749.59	2592.73
749.77	2822.10
749.95	2715.61
750.13	2637.78
750.31	2760.66
750.49	2764.76
750.67	2830.29
750.85	2828.24
751.03	2650.07
751.20	3012.56
751.38	2680.79
751.56	2609.11
751.74	2648.02
751.92	2660.31
752.10	2611.16
752.28	2795.48
752.46	2623.45
752.64	2697.17
752.82	2754.52
753.00	2785.24
753.18	2568.15
753.35	2684.89
753.53	2723.80
753.71	2617.30
753.89	2709.46
754.07	2783.19
754.25	2822.10
754.43	2752.47
754.61	2557.91
754.79	2852.82
754.97	2688.98
755.14	2809.81
755.32	2512.86
755.50	2697.17
755.68	2756.57
755.86	2512.86
756.04	2652.12
756.22	2494.43
756.40	2893.78
756.57	2846.68
756.75	2713.56
756.93	2877.40
757.11	2854.87
757.29	2529.24
757.47	2605.02
757.65	2459.61
757.82	2471.90
758.00	2627.54
758.18	2627.54
758.36	2574.30
758.54	2920.40
758.72	2494.43
758.90	2768.85
759.07	2858.96
759.25	2576.34
759.43	2719.70
759.61	2519.00
759.79	3925.96
759.97	2838.48
760.15	2678.74
760.32	2662.36
760.50	2824.15
760.68	2916.31
760.86	2512.86
761.04	2772.95
761.22	2777.05
761.39	2787.29
761.57	2731.99
761.75	2676.70
761.93	2901.97
762.11	2695.13
762.28	2631.64
762.46	2605.02
762.64	2844.63
762.82	2570.20
763.00	2559.96
763.18	2834.39
763.35	2510.81
763.53	2801.62
763.71	2602.97
763.89	2652.12
764.07	2775.00
764.24	2869.20
764.42	2797.53
764.60	2701.27
764.78	2824.15
764.96	2912.21
765.13	2709.46
765.31	2584.54
765.49	2805.72
765.67	2537.43
765.84	2625.50
766.02	2600.92
766.20	2549.72
766.38	2678.74
766.56	2707.41
766.73	2766.81
766.91	2723.80
767.09	2783.19
767.27	2734.04
767.44	2621.40
767.62	2797.53
767.80	2772.95
767.98	2617.30
768.15	2635.74
768.33	2848.72
768.51	2805.72
768.69	2768.85
768.87	2695.13
769.04	2768.85
769.22	3067.86
769.40	2744.28
769.58	2828.24
769.75	2768.85
769.93	2899.92
770.11	2564.06
770.28	2584.54
770.46	2809.81
770.64	2695.13
770.82	2637.78
770.99	2568.15
771.17	2813.91
771.35	2672.60
771.53	2686.94
771.70	2621.40
771.88	2879.44
772.06	2678.74
772.23	2670.55
772.41	2715.61
772.59	2564.06
772.77	2525.15
772.94	2701.27
773.12	2678.74
773.30	2676.70
773.47	2701.27
773.65	2596.82
773.83	2811.86
774.01	2678.74
774.18	2467.80
774.36	2684.89
774.54	2572.25
774.71	2846.68
774.89	2551.77
775.07	2453.47
775.24	2635.74
775.42	2650.07
775.60	2998.23
775.78	2572.25
775.95	2525.15
776.13	2428.89
776.31	2492.38
776.48	2727.89
776.66	2758.61
776.84	2648.02
777.01	2629.59
777.19	2600.92
777.37	2662.36
777.54	2811.86
777.72	3016.66
777.90	2736.09
778.07	2611.16
778.25	3188.69
778.43	2877.40
778.60	2602.97
778.78	2723.80
778.96	2912.21
779.13	2529.24
779.31	2715.61
779.49	2641.88
779.66	2727.89
779.84	2744.28
780.01	2676.70
780.19	2521.05
780.37	2838.48
780.54	2793.43
780.72	2594.78
780.90	2652.12
781.07	2750.42
781.25	2652.12
781.43	2895.83
781.60	2645.98
781.78	2893.78
781.95	2781.14
782.13	2635.74
782.31	2658.26
782.48	2469.85
782.66	2697.17
782.83	2840.53
783.01	2760.66
783.19	2861.01
783.36	2658.26
783.54	2441.18
783.72	2764.76
783.89	2637.78
784.07	2742.23
784.24	2789.33
784.42	2818.00
784.60	2709.46
784.77	2738.13
784.95	2430.94
785.12	2674.65
785.30	2764.76
785.47	2564.06
785.65	2586.58
785.83	2602.97
786.00	2643.93
786.18	2752.47
786.35	2521.05
786.53	2535.39
786.71	2867.16
786.88	2734.04
787.06	2654.17
787.23	2613.21
787.41	2547.67
787.58	2645.98
787.76	2598.87
787.94	2715.61
788.11	2777.05
788.29	2574.30
788.46	2605.02
788.64	2578.39
788.81	2645.98
788.99	2504.67
789.16	2605.02
789.34	2676.70
789.52	2645.98
789.69	2617.30
789.87	2430.94
790.04	2566.10
790.22	2699.22
790.39	3055.57
790.57	2512.86
790.74	2545.63
790.92	2891.73
791.09	2494.43
791.27	2713.56
791.44	2748.37
791.62	2723.80
791.79	2793.43
791.97	2703.32
792.15	3028.95
792.32	2818.00
792.50	2777.05
792.67	2904.02
792.85	2975.70
793.02	2693.08
793.20	2605.02
793.37	2510.81
793.55	2580.44
793.72	2572.25
793.90	2783.19
794.07	2582.49
794.25	2514.91
794.42	2756.57
794.60	2693.08
794.77	2674.65
794.95	2801.62
795.12	2895.83
795.30	2666.46
795.47	2480.09
795.65	3010.51
795.82	2783.19
796.00	2553.82
796.17	2682.84
796.34	2514.91
796.52	2818.00
796.69	2813.91
796.87	2752.47
797.04	2727.89
797.22	2918.36
797.39	2764.76
797.57	2793.43
797.74	2691.03
797.92	2762.71
798.09	2672.60
798.27	2813.91
798.44	2645.98
798.62	2582.49
798.79	2703.32
798.96	2750.42
799.14	2627.54
799.31	3096.53
799.49	2752.47
799.66	2676.70
799.84	2756.57
800.01	2533.34
800.19	2711.51
800.36	2473.95
800.53	2697.17
800.71	2801.62
800.88	2969.55
801.06	2576.34
801.23	2619.35
801.41	2662.36
801.58	2660.31
801.75	2613.21
801.93	2744.28
802.10	2832.34
802.28	2727.89
802.45	2693.08
802.63	2721.75
802.80	2904.02
802.97	2660.31
803.15	2635.74
803.32	2660.31
803.50	2623.45
803.67	2535.39
803.84	2578.39
804.02	2723.80
804.19	2645.98
804.37	2441.18
804.54	2494.43
804.71	2611.16
804.89	2693.08
805.06	2631.64
805.24	2533.34
805.41	2512.86
805.58	2682.84
805.76	3117.01
805.93	2709.46
806.10	2828.24
806.28	2805.72
806.45	2758.61
806.63	2777.05
806.80	2717.65
806.97	2756.57
807.15	2719.70
807.32	2719.70
807.49	2633.69
807.67	2512.86
807.84	2791.38
808.01	2512.86
808.19	2877.40
808.36	3080.14
808.54	2621.40
808.71	2641.88
808.88	2680.79
809.06	2856.92
809.23	2944.98
809.40	2580.44
809.58	2650.07
809.75	2643.93
809.92	2580.44
810.10	2912.21
810.27	2672.60
810.44	2785.24
810.62	2752.47
810.79	2775.00
810.96	2588.63
811.14	2711.51
811.31	2758.61
811.48	2852.82
811.66	2766.81
811.83	2871.25
812.00	2805.72
812.18	2709.46
812.35	3039.19
812.52	2662.36
812.69	2670.55
812.87	2609.11
813.04	2584.54
813.21	2693.08
813.39	2562.01
813.56	2621.40
813.73	2832.34
813.91	2553.82
814.08	2662.36
814.25	2633.69
814.42	2459.61
814.60	2744.28
814.77	2676.70
814.94	2650.07
815.12	2742.23
815.29	2955.22
815.46	2580.44
815.63	2666.46
815.81	2570.20
815.98	2678.74
816.15	2629.59
816.33	2738.13
816.50	2643.93
816.67	2672.60
816.84	2738.13
817.02	2510.81
817.19	2617.30
817.36	2815.96
817.53	2699.22
817.71	2623.45
817.88	2756.57
818.05	2760.66
818.22	2592.73
818.40	2775.00
818.57	2596.82
818.74	2768.85
818.91	2701.27
819.09	2727.89
819.26	2760.66
819.43	2588.63
819.60	2623.45
819.78	2707.41
819.95	2791.38
820.12	2576.34
820.29	2871.25
820.47	2877.40
820.64	2605.02
820.81	2533.34
820.98	2598.87
821.15	2641.88
821.33	2748.37
821.50	2496.47
821.67	2830.29
821.84	2637.78
822.02	2695.13
822.19	2906.07
822.36	2609.11
822.53	2686.94
822.70	2531.29
822.88	2639.83
823.05	2895.83
823.22	2699.22
823.39	2691.03
823.56	2637.78
823.74	3067.86
823.91	2621.40
824.08	2521.05
824.25	2562.01
824.42	2977.75
824.60	2480.09
824.77	2707.41
824.94	2744.28
825.11	2785.24
825.28	2586.58
825.45	2762.71
825.63	2703.32
825.80	2617.30
825.97	2699.22
826.14	2682.84
826.31	2424.80
826.48	2789.33
826.66	2586.58
826.83	2596.82
827.00	2662.36
827.17	2531.29
827.34	2658.26
827.51	2619.35
827.69	2783.19
827.86	2492.38
828.03	2654.17
828.20	2682.84
828.37	2656.22
828.54	2809.81
828.71	2602.97
828.89	2791.38
829.06	2746.33
829.23	2928.60
829.40	2566.10
829.57	2592.73
829.74	2883.54
829.91	2609.11
830.09	2623.45
830.26	2731.99
830.43	2910.16
830.60	2725.85
830.77	2695.13
830.94	2789.33
831.11	2875.35
831.28	2619.35
831.46	2670.55
831.63	2637.78
831.80	2889.68
831.97	2562.01
832.14	2564.06
832.31	2779.09
832.48	2736.09
832.65	2922.45
832.82	2742.23
832.99	2723.80
833.17	2516.95
833.34	2926.55
833.51	2703.32
833.68	2385.88
833.85	2781.14
834.02	2611.16
834.19	2557.91
834.36	2605.02
834.53	2777.05
834.70	2789.33
834.87	2691.03
835.04	2484.19
835.22	2643.93
835.39	2664.41
835.56	2514.91
835.73	2543.58
835.90	2920.40
836.07	2508.76
836.24	2672.60
836.41	2508.76
836.58	2639.83
836.75	2811.86
836.92	2570.20
837.09	2498.52
837.26	2701.27
837.43	2713.56
837.60	2652.12
837.77	2539.48
837.94	2832.34
838.12	2895.83
838.29	2572.25
838.46	2406.36
838.63	2574.30
838.80	2885.59
838.97	2654.17
839.14	2521.05
839.31	2734.04
839.48	2772.95
839.65	2568.15
839.82	2662.36
839.99	2670.55
840.16	2680.79
840.33	2535.39
840.50	2637.78
840.67	2615.26
840.84	2326.49
841.01	2492.38
841.18	2609.11
841.35	2777.05
841.52	2797.53
841.69	2758.61
841.86	2635.74
842.03	2715.61
842.20	2869.20
842.37	2680.79
842.54	2574.30
842.71	2691.03
842.88	2543.58
843.05	2535.39
843.22	2602.97
843.39	2787.29
843.56	2584.54
843.73	2537.43
843.90	2537.43
844.07	2686.94
844.24	2779.09
844.41	2668.50
844.58	2602.97
844.75	2668.50
844.92	2805.72
845.09	2588.63
845.26	2471.90
845.43	2885.59
845.60	2785.24
845.77	2719.70
845.94	2631.64
846.10	2863.06
846.27	2480.09
846.44	2475.99
846.61	2473.95
846.78	2717.65
846.95	2813.91
847.12	2555.86
847.29	2529.24
847.46	2660.31
847.63	2746.33
847.80	2445.27
847.97	2566.10
848.14	2959.31
848.31	2678.74
848.48	2478.04
848.65	2615.26
848.82	2607.06
848.98	3108.82
849.15	2695.13
849.32	2701.27
849.49	2846.68
849.66	2686.94
849.83	2582.49
850.00	2443.23
850.17	2822.10
850.34	2701.27
850.51	2578.39
850.68	2543.58
850.85	2983.89
851.01	2740.18
851.18	2578.39
851.35	2613.21
851.52	2772.95
851.69	2836.44
851.86	2387.93
852.03	2533.34
852.20	2838.48
852.37	2596.82
852.53	2396.12
852.70	2574.30
852.87	2693.08
853.04	2830.29
853.21	2621.40
853.38	2729.94
853.55	2850.77
853.72	2912.21
853.89	2465.75
854.05	2478.04
854.22	2678.74
854.39	2711.51
854.56	2639.83
854.73	2609.11
854.90	2512.86
855.07	2672.60
855.23	2422.75
855.40	2539.48
855.57	2686.94
855.74	2398.17
855.91	2746.33
856.08	2418.65
856.25	2478.04
856.41	2648.02
856.58	2580.44
856.75	2605.02
856.92	2549.72
857.09	2873.30
857.26	2375.64
857.42	2572.25
857.59	2740.18
857.76	2660.31
857.93	2594.78
858.10	2629.59
858.27	2555.86
858.43	2717.65
858.60	2557.91
858.77	2437.08
858.94	2627.54
859.11	2850.77
859.27	2598.87
859.44	2463.71
859.61	3061.71
859.78	2762.71
859.95	2584.54
860.12	2551.77
860.28	3020.75
860.45	3104.72
860.62	2574.30
860.79	2539.48
860.95	2619.35
861.12	2533.34
861.29	2537.43
861.46	2471.90
861.63	2711.51
861.79	2781.14
861.96	2523.10
862.13	2525.15
862.30	2852.82
862.47	2521.05
862.63	2414.56
862.80	2656.22
862.97	2834.39
863.14	2746.33
863.30	2613.21
863.47	2500.57
863.64	2953.17
863.81	2758.61
863.97	2473.95
864.14	2635.74
864.31	2654.17
864.48	2754.52
864.65	2654.17
864.81	2686.94
864.98	2826.20
865.15	2901.97
865.32	2605.02
865.48	2703.32
865.65	3037.14
865.82	2684.89
865.98	2582.49
866.15	2621.40
866.32	2662.36
866.49	2701.27
866.65	2666.46
866.82	2469.85
866.99	2719.70
867.16	2602.97
867.32	2580.44
867.49	2512.86
867.66	2656.22
867.83	2660.31
867.99	2463.71
868.16	2519.00
868.33	2496.47
868.49	2611.16
868.66	2596.82
868.83	2641.88
868.99	2768.85
869.16	2660.31
869.33	2668.50
869.50	2670.55
869.66	2701.27
869.83	2756.57
870.00	2502.62
870.16	2697.17
870.33	2613.21
870.50	2934.74
870.66	2559.96
870.83	2613.21
871.00	2648.02
871.17	2793.43
871.33	2588.63
871.50	2533.34
871.67	2711.51
871.83	2670.55
872.00	2654.17
872.17	2602.97
872.33	2910.16
872.50	2850.77
872.67	2586.58
872.83	2574.30
873.00	2727.89
873.17	2686.94
873.33	2625.50
873.50	2629.59
873.67	2584.54
873.83	2590.68
874.00	2592.73
874.16	2691.03
874.33	2715.61
874.50	2584.54
874.66	2531.29
874.83	2654.17
875.00	2875.35
875.16	2820.05
875.33	2660.31
875.50	2412.51
875.66	2580.44
875.83	2709.46
875.99	2605.02
876.16	2576.34
876.33	2592.73
876.49	2674.65
876.66	2613.21
876.83	2588.63
876.99	2549.72
877.16	2736.09
877.32	2494.43
877.49	2586.58
877.66	2721.75
877.82	2877.40
877.99	2506.71
878.15	2805.72
878.32	2875.35
878.49	2781.14
878.65	2568.15
878.82	2811.86
878.98	2615.26
879.15	2826.20
879.32	2703.32
879.48	2654.17
879.65	2654.17
879.81	2625.50
879.98	2566.10
880.15	2559.96
880.31	2856.92
880.48	2572.25
880.64	2627.54
880.81	2717.65
880.97	2949.08
881.14	2856.92
881.31	2488.28
881.47	2721.75
881.64	2617.30
881.80	2432.99
881.97	2688.98
882.13	2590.68
882.30	2572.25
882.47	2588.63
882.63	2516.95
882.80	2496.47
882.96	2613.21
883.13	2850.77
883.29	2584.54
883.46	2529.24
883.62	3061.71
883.79	2672.60
883.95	2670.55
884.12	2508.76
884.29	2895.83
884.45	2719.70
884.62	2627.54
884.78	2500.57
884.95	2877.40
885.11	2564.06
885.28	2670.55
885.44	2555.86
885.61	2834.39
885.77	2863.06
885.94	2682.84
886.10	2578.39
886.27	2676.70
886.43	3008.47
886.60	2752.47
886.76	2541.53
886.93	2643.93
887.09	2699.22
887.26	2453.47
887.42	2605.02
887.59	2807.77
887.75	3030.99
887.92	2703.32
888.08	2731.99
888.25	2969.55
888.41	2760.66
888.58	2672.60
888.74	2486.23
888.91	2676.70
>>>>>End Processed Spectral Data<<<<<
