SpectraSuite Data File
++++++++++++++++++++++++++++++++++++
Date: Fri May 06 08:14:10 CEST 2016
User: root
Dark Spectrum Present: No
Reference Spectrum Present: No
Number of Sampled Component Spectra: 1
Spectrometers: USB4C02835
Integration Time (usec): 100000 (USB4C02835)
Spectra Averaged: 1 (USB4C02835)
Boxcar Smoothing: 0 (USB4C02835)
Correct for Electrical Dark: No (USB4C02835)
Strobe/Lamp Enabled: No (USB4C02835)
Correct for Detector Non-linearity: No (USB4C02835)
Correct for Stray Light: No (USB4C02835)
Number of Pixels in Processed Spectrum: 3648
>>>>>Begin Processed Spectral Data<<<<<
177.47	2263.01
177.69	2263.01
177.91	2263.01
178.13	2256.86
178.36	2289.63
178.58	2957.27
178.80	3094.48
179.02	2940.88
179.24	3090.38
179.46	2738.13
179.68	2858.96
179.90	3235.79
180.13	3190.74
180.35	2625.50
180.57	2848.72
180.79	3385.29
181.01	3180.50
181.23	2858.96
181.45	3012.56
181.67	3368.91
181.90	3432.40
182.12	2983.89
182.34	2697.17
182.56	3446.73
182.78	3311.57
183.00	2795.48
183.22	2887.64
183.44	3000.27
183.66	3919.81
183.89	2983.89
184.11	2912.21
184.33	3336.14
184.55	3516.36
184.77	2852.82
184.99	2848.72
185.21	3207.12
185.43	3839.94
185.65	2764.76
185.87	2842.58
186.10	3774.41
186.32	3811.27
186.54	2936.79
186.76	2944.98
186.98	3553.23
187.20	3262.41
187.42	2879.44
187.64	2834.39
187.86	3436.49
188.08	3491.79
188.30	2795.48
188.52	2922.45
188.75	3592.14
188.97	3534.79
189.19	2918.36
189.41	2783.19
189.63	3440.59
189.85	3241.93
190.07	2795.48
190.29	2713.56
190.51	3360.72
190.73	3053.52
190.95	3035.09
191.17	2854.87
191.39	2983.89
191.61	3248.08
191.84	2848.72
192.06	3047.38
192.28	3063.76
192.50	3893.19
192.72	2947.03
192.94	2879.44
193.16	3557.32
193.38	3424.20
193.60	2734.04
193.82	3041.23
194.04	3547.08
194.26	3356.62
194.48	2961.36
194.70	2928.60
194.92	3229.65
195.14	3456.97
195.36	2801.62
195.58	2869.20
195.80	3317.71
196.02	3149.78
196.24	2836.44
196.46	2908.12
196.69	3223.50
196.91	3753.93
197.13	2955.22
197.35	2947.03
197.57	3610.57
197.79	3426.25
198.01	2861.01
198.23	2928.60
198.45	3377.10
198.67	3033.04
198.89	2682.84
199.11	2981.84
199.33	3155.92
199.55	2936.79
199.77	2775.00
199.99	3024.85
200.21	3229.65
200.43	3346.38
200.65	2727.89
200.87	2723.80
201.09	3272.65
201.31	3307.47
201.53	2928.60
201.75	2944.98
201.97	3354.57
202.19	3334.09
202.41	2987.99
202.63	2957.27
202.85	3452.88
203.07	3330.00
203.29	2979.79
203.51	2779.09
203.73	3090.38
203.95	3837.89
204.17	2885.59
204.39	2934.74
204.61	3209.17
204.83	3166.16
205.05	3016.66
205.27	3010.51
205.49	3606.47
205.71	3280.85
205.93	2729.94
206.15	2713.56
206.37	3387.34
206.59	3264.46
206.81	2705.37
207.03	2785.24
207.25	3127.25
207.47	3467.21
207.69	2848.72
207.91	3137.49
208.13	3647.43
208.34	3198.93
208.56	2869.20
208.78	2877.40
209.00	3157.97
209.22	3147.73
209.44	2942.93
209.66	2869.20
209.88	3303.37
210.10	3153.87
210.32	2854.87
210.54	2942.93
210.76	3293.13
210.98	3346.38
211.20	2762.71
211.42	3026.90
211.64	3528.65
211.86	3362.76
212.08	2904.02
212.30	2906.07
212.52	3139.54
212.74	3352.52
212.96	2922.45
213.17	2947.03
213.39	3477.45
213.61	3643.34
213.83	2836.44
214.05	2709.46
214.27	3508.17
214.49	3065.81
214.71	2809.81
214.93	3024.85
215.15	3241.93
215.37	3379.15
215.59	2680.79
215.81	2961.36
216.03	3549.13
216.24	3295.18
216.46	2820.05
216.68	2877.40
216.90	3430.35
217.12	3420.11
217.34	2852.82
217.56	2955.22
217.78	3583.95
218.00	3364.81
218.22	3030.99
218.44	2951.12
218.66	3325.90
218.87	3590.09
219.09	2951.12
219.31	2899.92
219.53	3379.15
219.75	3162.06
219.97	2916.31
220.19	2904.02
220.41	3260.37
220.63	3635.14
220.85	2934.74
221.06	2895.83
221.28	3647.43
221.50	3360.72
221.72	2897.88
221.94	2777.05
222.16	3295.18
222.38	3542.99
222.60	2856.92
222.82	2869.20
223.03	3553.23
223.25	3018.71
223.47	2912.21
223.69	3098.58
223.91	3364.81
224.13	3289.04
224.35	2764.76
224.57	3008.47
224.78	3377.10
225.00	3176.40
225.22	2947.03
225.44	2787.29
225.66	3381.20
225.88	3203.02
226.10	3030.99
226.32	2873.30
226.53	3608.52
226.75	3119.06
226.97	2932.69
227.19	2944.98
227.41	3084.24
227.63	3166.16
227.85	2617.30
228.06	2940.88
228.28	3311.57
228.50	3485.64
228.72	2723.80
228.94	2803.67
229.16	2944.98
229.37	3119.06
229.59	2750.42
229.81	3090.38
230.03	3198.93
230.25	3000.27
230.47	2682.84
230.69	2826.20
230.90	3516.36
231.12	3098.58
231.34	3006.42
231.56	2912.21
231.78	3076.05
232.00	3297.23
232.21	2938.84
232.43	2910.16
232.65	2838.48
232.87	3387.34
233.09	2756.57
233.30	2803.67
233.52	3475.40
233.74	3293.13
233.96	2770.90
234.18	3061.71
234.40	3276.75
234.61	3682.25
234.83	2772.95
235.05	2820.05
235.27	3719.11
235.49	3508.17
235.70	2754.52
235.92	2940.88
236.14	3385.29
236.36	3811.27
236.58	2772.95
236.79	2885.59
237.01	3260.37
237.23	3282.89
237.45	3153.87
237.67	2867.16
237.88	3336.14
238.10	3710.92
238.32	2803.67
238.54	2770.90
238.76	3264.46
238.97	3143.63
239.19	2764.76
239.41	2934.74
239.63	3442.64
239.85	3168.21
240.06	2930.64
240.28	2865.11
240.50	3516.36
240.72	3293.13
240.93	2750.42
241.15	2926.55
241.37	3395.53
241.59	3487.69
241.81	2897.88
242.02	2885.59
242.24	3291.09
242.46	3418.06
242.68	2680.79
242.89	2801.62
243.11	3497.93
243.33	3282.89
243.55	2953.17
243.76	2881.49
243.98	3180.50
244.20	3286.99
244.42	2881.49
244.64	2854.87
244.85	3065.81
245.07	3071.95
245.29	2854.87
245.51	2918.36
245.72	3375.05
245.94	3465.16
246.16	2801.62
246.38	2916.31
246.59	3137.49
246.81	3184.59
247.03	2791.38
247.24	2680.79
247.46	3192.78
247.68	3295.18
247.90	2906.07
248.11	2881.49
248.33	3377.10
248.55	3356.62
248.77	2930.64
248.98	2963.41
249.20	3626.95
249.42	3264.46
249.64	2858.96
249.85	2875.35
250.07	3180.50
250.29	3456.97
250.50	2944.98
250.72	2797.53
250.94	3373.00
251.16	3674.06
251.37	2854.87
251.59	2967.51
251.81	3418.06
252.02	3559.37
252.24	2779.09
252.46	2971.60
252.68	3141.58
252.89	3135.44
253.11	2686.94
253.33	3090.38
253.54	3600.33
253.76	3123.15
253.98	2838.48
254.20	2848.72
254.41	3051.47
254.63	3258.32
254.85	2797.53
255.06	2975.70
255.28	3405.77
255.50	3252.17
255.71	2846.68
255.93	2648.02
256.15	3282.89
256.36	3354.57
256.58	2781.14
256.80	2891.73
257.02	3227.60
257.23	3239.89
257.45	2942.93
257.67	3020.75
257.88	3200.98
258.10	3377.10
258.32	2836.44
258.53	2955.22
258.75	3682.25
258.97	3145.68
259.18	2766.81
259.40	2846.68
259.62	3639.24
259.83	3583.95
260.05	2852.82
260.27	3837.89
260.48	3448.78
260.70	3041.23
260.92	2807.77
261.13	2824.15
261.35	3215.31
261.57	3477.45
261.78	2762.71
262.00	2824.15
262.22	3409.87
262.43	3059.67
262.65	2861.01
262.86	2889.68
263.08	3766.21
263.30	3385.29
263.51	2678.74
263.73	2711.51
263.95	3688.39
264.16	3117.01
264.38	2777.05
264.60	2832.34
264.81	3293.13
265.03	3389.39
265.25	3233.74
265.46	2797.53
265.68	3555.27
265.89	3352.52
266.11	2781.14
266.33	2803.67
266.54	3481.55
266.76	3418.06
266.98	2990.03
267.19	3037.14
267.41	3534.79
267.62	3196.88
267.84	2715.61
268.06	2987.99
268.27	3358.67
268.49	3516.36
268.70	2889.68
268.92	2807.77
269.14	3112.91
269.35	2897.88
269.57	2934.74
269.79	2955.22
270.00	3209.17
270.22	3667.91
270.43	2713.56
270.65	2740.18
270.87	3309.52
271.08	3395.53
271.30	2947.03
271.51	2848.72
271.73	3413.96
271.95	3483.59
272.16	2832.34
272.38	3082.19
272.59	3137.49
272.81	3364.81
273.02	2834.39
273.24	2910.16
273.46	3487.69
273.67	3078.10
273.89	2709.46
274.10	2906.07
274.32	3561.42
274.54	3405.77
274.75	2963.41
274.97	2987.99
275.18	3368.91
275.40	3430.35
275.61	2901.97
275.83	3061.71
276.05	3049.43
276.26	3221.45
276.48	2928.60
276.69	2934.74
276.91	3217.36
277.12	3565.51
277.34	3098.58
277.55	3143.63
277.77	3256.27
277.99	3168.21
278.20	3053.52
278.42	2877.40
278.63	3155.92
278.85	3016.66
279.06	2985.94
279.28	3157.97
279.49	3471.31
279.71	3485.64
279.93	3008.47
280.14	3061.71
280.36	3061.71
280.57	3567.56
280.79	3061.71
281.00	2926.55
281.22	3166.16
281.43	3508.17
281.65	2783.19
281.86	2897.88
282.08	3420.11
282.29	3643.34
282.51	2822.10
282.73	2844.63
282.94	3041.23
283.16	3475.40
283.37	3055.57
283.59	2944.98
283.80	3377.10
284.02	3256.27
284.23	2998.23
284.45	3008.47
284.66	3119.06
284.88	3162.06
285.09	2963.41
285.31	3059.67
285.52	3350.48
285.74	2994.13
285.95	3209.17
286.17	2992.08
286.38	3536.84
286.60	3145.68
286.81	3010.51
287.03	2951.12
287.24	3268.56
287.46	3403.72
287.67	3119.06
287.89	3209.17
288.10	3344.33
288.32	3299.28
288.53	3127.25
288.75	3074.00
288.96	3430.35
289.18	3198.93
289.39	2969.55
289.61	3174.35
289.82	3688.39
290.04	3696.58
290.25	2914.26
290.47	3117.01
290.68	3186.64
290.90	3534.79
291.11	2826.20
291.33	3123.15
291.54	3082.19
291.76	3219.41
291.97	3149.78
292.18	3112.91
292.40	3190.74
292.61	3164.11
292.83	3336.14
293.04	2961.36
293.26	3321.81
293.47	3286.99
293.69	2922.45
293.90	2904.02
294.12	3549.13
294.33	3266.51
294.55	3078.10
294.76	3188.69
294.97	3604.42
295.19	3715.02
295.40	2996.18
295.62	3028.95
295.83	3442.64
296.05	3147.73
296.26	3268.56
296.48	2910.16
296.69	3270.61
296.90	3311.57
297.12	3164.11
297.33	3147.73
297.55	3319.76
297.76	3317.71
297.98	3039.19
298.19	3174.35
298.41	3330.00
298.62	3106.77
298.83	3188.69
299.05	3166.16
299.26	3180.50
299.48	3086.29
299.69	3084.24
299.90	2926.55
300.12	3049.43
300.33	3368.91
300.55	3110.86
300.76	3028.95
300.98	3114.96
301.19	3475.40
301.40	3045.33
301.62	2975.70
301.83	3407.82
302.05	3315.66
302.26	2975.70
302.47	3018.71
302.69	3024.85
302.90	3278.80
303.12	2820.05
303.33	3194.83
303.54	3678.15
303.76	3205.07
303.97	2990.03
304.19	3149.78
304.40	3139.54
304.61	3401.68
304.83	3084.24
305.04	3026.90
305.26	3463.12
305.47	3082.19
305.68	2926.55
305.90	2893.78
306.11	3588.04
306.33	3168.21
306.54	2815.96
306.75	2932.69
306.97	3018.71
307.18	3033.04
307.39	3045.33
307.61	3065.81
307.82	3301.33
308.04	3330.00
308.25	2934.74
308.46	3114.96
308.68	3381.20
308.89	3258.32
309.10	3123.15
309.32	3065.81
309.53	3207.12
309.74	3330.00
309.96	2949.08
310.17	3069.91
310.39	3186.64
310.60	3409.87
310.81	3028.95
311.03	2885.59
311.24	3348.43
311.45	3317.71
311.67	3252.17
311.88	3133.39
312.09	3225.55
312.31	3125.20
312.52	2963.41
312.73	2983.89
312.95	3018.71
313.16	3014.61
313.37	3180.50
313.59	3151.82
313.80	3426.25
314.01	3614.66
314.23	2955.22
314.44	2893.78
314.65	3080.14
314.87	3026.90
315.08	2961.36
315.29	2969.55
315.51	3121.10
315.72	3067.86
315.93	3065.81
316.15	3004.37
316.36	3252.17
316.57	3323.85
316.79	2994.13
317.00	2924.50
317.21	3368.91
317.43	3110.86
317.64	3057.62
317.85	2914.26
318.07	3243.98
318.28	3223.50
318.49	3114.96
318.70	3297.23
318.92	3272.65
319.13	3321.81
319.34	3198.93
319.56	2973.65
319.77	3403.72
319.98	3477.45
320.20	3229.65
320.41	3151.82
320.62	3448.78
320.83	3088.34
321.05	3184.59
321.26	3059.67
321.47	3272.65
321.69	3508.17
321.90	2910.16
322.11	2936.79
322.32	3327.95
322.54	3528.65
322.75	3043.28
322.96	3999.68
323.18	3006.42
323.39	2881.49
323.60	2936.79
323.81	3024.85
324.03	3092.43
324.24	3205.07
324.45	3147.73
324.66	2969.55
324.88	3545.03
325.09	3743.69
325.30	3047.38
325.52	2928.60
325.73	3368.91
325.94	3127.25
326.15	2885.59
326.37	2838.48
326.58	3520.46
326.79	3659.72
327.00	2985.94
327.22	2996.18
327.43	3141.58
327.64	3082.19
327.85	3180.50
328.07	2985.94
328.28	3659.72
328.49	3233.74
328.70	2936.79
328.92	3008.47
329.13	3213.26
329.34	3413.96
329.55	3188.69
329.76	3100.62
329.98	3215.31
330.19	3479.50
330.40	2992.08
330.61	3114.96
330.83	3485.64
331.04	2992.08
331.25	3039.19
331.46	2996.18
331.68	3119.06
331.89	3489.74
332.10	3043.28
332.31	2838.48
332.52	3196.88
332.74	3518.41
332.95	2869.20
333.16	2979.79
333.37	3385.29
333.58	3190.74
333.80	2963.41
334.01	2738.13
334.22	3237.84
334.43	3141.58
334.64	2865.11
334.86	2961.36
335.07	3074.00
335.28	3590.09
335.49	2844.63
335.70	3082.19
335.92	3559.37
336.13	3739.59
336.34	3033.04
336.55	2920.40
336.76	3411.92
336.98	2930.64
337.19	3041.23
337.40	3065.81
337.61	3811.27
337.82	3233.74
338.04	3149.78
338.25	2863.06
338.46	3243.98
338.67	3311.57
338.88	2914.26
339.09	2912.21
339.31	3139.54
339.52	3010.51
339.73	3014.61
339.94	2998.23
340.15	3473.36
340.36	3155.92
340.58	3092.43
340.79	2930.64
341.00	3401.68
341.21	3117.01
341.42	3258.32
341.63	2979.79
341.85	3557.32
342.06	3366.86
342.27	2947.03
342.48	3180.50
342.69	3049.43
342.90	3383.24
343.12	3385.29
343.33	2850.77
343.54	3565.51
343.75	3565.51
343.96	3213.26
344.17	2947.03
344.38	3246.03
344.60	3125.20
344.81	2955.22
345.02	3016.66
345.23	3454.92
345.44	3805.13
345.65	3106.77
345.86	3092.43
346.07	3311.57
346.29	3168.21
346.50	3188.69
346.71	3096.53
346.92	3588.04
347.13	3712.97
347.34	3065.81
347.55	2871.25
347.76	3430.35
347.98	3022.80
348.19	3121.10
348.40	3182.54
348.61	3260.37
348.82	3594.19
349.03	3002.32
349.24	2928.60
349.45	3688.39
349.66	2893.78
349.88	2990.03
350.09	2932.69
350.30	3620.81
350.51	3579.85
350.72	3196.88
350.93	2967.51
351.14	3155.92
351.35	3401.68
351.56	2992.08
351.77	3082.19
351.99	3336.14
352.20	3655.62
352.41	3153.87
352.62	2797.53
352.83	3266.51
353.04	3262.41
353.25	2998.23
353.46	2951.12
353.67	3538.89
353.88	2934.74
354.09	2934.74
354.30	3080.14
354.52	3411.92
354.73	3315.66
354.94	2963.41
355.15	3057.62
355.36	3749.83
355.57	3172.30
355.78	2904.02
355.99	2971.60
356.20	3188.69
356.41	3602.38
356.62	3024.85
356.83	2981.84
357.04	3508.17
357.25	2977.75
357.46	2975.70
357.68	2889.68
357.89	3057.62
358.10	3260.37
358.31	2951.12
358.52	3112.91
358.73	3131.34
358.94	3043.28
359.15	3059.67
359.36	2990.03
359.57	3289.04
359.78	3227.60
359.99	3145.68
360.20	2867.16
360.41	3235.79
360.62	3426.25
360.83	3117.01
361.04	3053.52
361.25	3311.57
361.46	3635.14
361.67	3155.92
361.88	3028.95
362.09	3479.50
362.30	3381.20
362.51	2975.70
362.72	3045.33
362.93	3428.30
363.14	3370.96
363.35	3147.73
363.56	2928.60
363.78	3479.50
363.99	3409.87
364.20	3065.81
364.41	3053.52
364.62	3678.15
364.83	3395.53
365.04	3033.04
365.25	3057.62
365.46	3641.29
365.67	3166.16
365.88	3217.36
366.09	3035.09
366.30	3190.74
366.51	3311.57
366.72	2920.40
366.93	2963.41
367.14	3346.38
367.35	3585.99
367.56	2971.60
367.77	3182.54
367.98	3327.95
368.18	3387.34
368.39	3129.30
368.60	2959.31
368.81	3354.57
369.02	3354.57
369.23	3024.85
369.44	2869.20
369.65	3198.93
369.86	3413.96
370.07	3106.77
370.28	2922.45
370.49	3346.38
370.70	3389.39
370.91	2877.40
371.12	2885.59
371.33	3456.97
371.54	3243.98
371.75	3110.86
371.96	2754.52
372.17	3266.51
372.38	3209.17
372.59	2963.41
372.80	3000.27
373.01	3172.30
373.22	3377.10
373.43	2979.79
373.64	2811.86
373.85	3567.56
374.06	3563.47
374.26	3119.06
374.47	3231.69
374.68	3508.17
374.89	3315.66
375.10	2955.22
375.31	3133.39
375.52	3313.61
375.73	3340.24
375.94	2852.82
376.15	3141.58
376.36	3119.06
376.57	3139.54
376.78	3098.58
376.99	3059.67
377.20	3516.36
377.40	3119.06
377.61	3282.89
377.82	2963.41
378.03	3571.66
378.24	3311.57
378.45	3022.80
378.66	3057.62
378.87	2969.55
379.08	3022.80
379.29	3049.43
379.50	3174.35
379.71	3217.36
379.91	3346.38
380.12	3071.95
380.33	3162.06
380.54	3258.32
380.75	3213.26
380.96	3024.85
381.17	3024.85
381.38	3274.70
381.59	3338.19
381.80	3033.04
382.00	3194.83
382.21	3352.52
382.42	3555.27
382.63	3448.78
382.84	3176.40
383.05	3379.15
383.26	3504.07
383.47	3147.73
383.68	2947.03
383.88	3444.68
384.09	3317.71
384.30	3235.79
384.51	3135.44
384.72	3200.98
384.93	2975.70
385.14	3098.58
385.35	3254.22
385.55	3010.51
385.76	3526.60
385.97	3016.66
386.18	2932.69
386.39	3129.30
386.60	3135.44
386.81	2973.65
387.02	2963.41
387.22	3018.71
387.43	3473.36
387.64	3049.43
387.85	3254.22
388.06	3282.89
388.27	4364.22
388.48	7700.36
388.68	12103.50
388.89	15097.63
389.10	16471.81
389.31	16123.66
389.52	13014.84
389.73	11333.46
389.93	10397.54
390.14	9213.81
390.35	8423.30
390.56	8044.42
390.77	6616.99
390.98	5027.76
391.18	4206.53
391.39	3876.80
391.60	3364.81
391.81	3272.65
392.02	3094.48
392.23	3790.79
392.43	3291.09
392.64	3127.25
392.85	3131.34
393.06	3618.76
393.27	3366.86
393.47	2975.70
393.68	3123.15
393.89	3182.54
394.10	3559.37
394.31	2967.51
394.52	2961.36
394.72	3121.10
394.93	3583.95
395.14	3020.75
395.35	3090.38
395.56	3155.92
395.76	3188.69
395.97	2955.22
396.18	3164.11
396.39	3270.61
396.60	3835.85
396.80	3397.58
397.01	3313.61
397.22	3475.40
397.43	3551.18
397.64	3074.00
397.84	3110.86
398.05	3725.26
398.26	3303.37
398.47	3174.35
398.67	3237.84
398.88	3241.93
399.09	3432.40
399.30	2985.94
399.51	3014.61
399.71	3112.91
399.92	3264.46
400.13	3157.97
400.34	3121.10
400.54	3342.28
400.75	3643.34
400.96	3225.55
401.17	3321.81
401.37	3344.33
401.58	3237.84
401.79	2979.79
402.00	3180.50
402.21	3719.11
402.41	3418.06
402.62	3346.38
402.83	3475.40
403.04	3680.20
403.24	4081.60
403.45	3239.89
403.66	3340.24
403.87	3438.54
404.07	3614.66
404.28	3225.55
404.49	3338.19
404.70	3397.58
404.90	3438.54
405.11	3100.62
405.32	3114.96
405.52	3094.48
405.73	3205.07
405.94	2951.12
406.15	3200.98
406.35	3444.68
406.56	3512.27
406.77	3084.24
406.98	3022.80
407.18	3098.58
407.39	3532.75
407.60	3166.16
407.80	3086.29
408.01	3170.26
408.22	3428.30
408.43	2951.12
408.63	3252.17
408.84	3473.36
409.05	3493.83
409.25	2957.27
409.46	3117.01
409.67	3225.55
409.88	3166.16
410.08	3096.53
410.29	3008.47
410.50	3551.18
410.70	3352.52
410.91	3012.56
411.12	3117.01
411.32	3221.45
411.53	3108.82
411.74	3131.34
411.95	3131.34
412.15	3272.65
412.36	3426.25
412.57	3237.84
412.77	3305.42
412.98	3248.08
413.19	3125.20
413.39	3033.04
413.60	3098.58
413.81	3618.76
414.01	3049.43
414.22	3076.05
414.43	3246.03
414.63	3262.41
414.84	3395.53
415.05	3022.80
415.25	2985.94
415.46	3356.62
415.67	3190.74
415.87	3026.90
416.08	3043.28
416.29	3157.97
416.49	3377.10
416.70	3151.82
416.91	3033.04
417.11	3266.51
417.32	3508.17
417.53	3065.81
417.73	3135.44
417.94	3284.94
418.15	3299.28
418.35	3100.62
418.56	3123.15
418.77	3796.93
418.97	3319.76
419.18	3121.10
419.38	2750.42
419.59	3270.61
419.80	3532.75
420.00	2963.41
420.21	3137.49
420.42	3536.84
420.62	3340.24
420.83	3074.00
421.04	2965.46
421.24	3213.26
421.45	3399.63
421.65	3110.86
421.86	3117.01
422.07	3422.16
422.27	3508.17
422.48	3002.32
422.69	2836.44
422.89	3346.38
423.10	3272.65
423.30	2987.99
423.51	3092.43
423.72	3434.44
423.92	3471.31
424.13	2926.55
424.33	3037.14
424.54	3477.45
424.75	3364.81
424.95	3243.98
425.16	2979.79
425.36	3217.36
425.57	3532.75
425.78	3117.01
425.98	3106.77
426.19	3266.51
426.39	3133.39
426.60	3131.34
426.81	3162.06
427.01	3315.66
427.22	3139.54
427.42	2942.93
427.63	3016.66
427.83	3491.79
428.04	3569.61
428.25	3098.58
428.45	3100.62
428.66	3545.03
428.86	3200.98
429.07	3057.62
429.28	3059.67
429.48	3278.80
429.69	3215.31
429.89	3137.49
430.10	3014.61
430.30	3487.69
430.51	3467.21
430.71	2987.99
430.92	3110.86
431.13	3180.50
431.33	3409.87
431.54	3157.97
431.74	3270.61
431.95	3770.31
432.15	3069.91
432.36	3012.56
432.56	3061.71
432.77	3721.16
432.98	3608.52
433.18	3112.91
433.39	2959.31
433.59	3299.28
433.80	3672.01
434.00	3246.03
434.21	3065.81
434.41	3043.28
434.62	3741.64
434.82	2975.70
435.03	2934.74
435.23	3336.14
435.44	3028.95
435.64	2971.60
435.85	3112.91
436.06	3485.64
436.26	3493.83
436.47	3022.80
436.67	2979.79
436.88	3282.89
437.08	3542.99
437.29	3198.93
437.49	3162.06
437.70	3520.46
437.90	3276.75
438.11	3284.94
438.31	3051.47
438.52	3581.90
438.72	3493.83
438.93	3454.92
439.13	3237.84
439.34	3393.48
439.54	3166.16
439.75	3221.45
439.95	3209.17
440.16	3205.07
440.36	3227.60
440.57	3092.43
440.77	3057.62
440.98	3243.98
441.18	3352.52
441.39	2942.93
441.59	2906.07
441.80	3657.67
442.00	3295.18
442.21	3200.98
442.41	2918.36
442.62	3559.37
442.82	3166.16
443.02	3047.38
443.23	3098.58
443.43	3188.69
443.64	3512.27
443.84	2879.44
444.05	3211.22
444.25	3231.69
444.46	3205.07
444.66	3002.32
444.87	3258.32
445.07	3045.33
445.28	3180.50
445.48	3248.08
445.69	3092.43
445.89	3819.46
446.09	3209.17
446.30	3393.48
446.50	3420.11
446.71	5050.29
446.91	6410.14
447.12	7206.80
447.32	7651.21
447.53	7575.44
447.73	6389.66
447.93	5547.95
448.14	5220.27
448.34	5543.85
448.55	4491.20
448.75	4509.63
448.96	4194.24
449.16	3989.44
449.36	3876.80
449.57	3307.47
449.77	3235.79
449.98	3188.69
450.18	3370.96
450.39	3039.19
450.59	3196.88
450.79	3270.61
451.00	3123.15
451.20	3289.04
451.41	3033.04
451.61	3356.62
451.81	3096.53
452.02	3078.10
452.22	3051.47
452.43	3184.59
452.63	3119.06
452.84	3190.74
453.04	2987.99
453.24	3295.18
453.45	3143.63
453.65	3071.95
453.86	3049.43
454.06	3313.61
454.26	3303.37
454.47	3047.38
454.67	3213.26
454.87	3393.48
455.08	3174.35
455.28	3188.69
455.49	3239.89
455.69	3147.73
455.89	3776.45
456.10	3188.69
456.30	2936.79
456.51	3411.92
456.71	3360.72
456.91	3196.88
457.12	3024.85
457.32	3368.91
457.52	3053.52
457.73	3221.45
457.93	3231.69
458.14	3176.40
458.34	2906.07
458.54	3000.27
458.75	2973.65
458.95	3452.88
459.15	3403.72
459.36	3090.38
459.56	3112.91
459.76	3688.39
459.97	3352.52
460.17	3057.62
460.37	3110.86
460.58	3215.31
460.78	3327.95
460.99	3139.54
461.19	3016.66
461.39	3172.30
461.60	3299.28
461.80	3102.67
462.00	2959.31
462.21	3237.84
462.41	3069.91
462.61	2975.70
462.82	2858.96
463.02	3278.80
463.22	3280.85
463.43	3127.25
463.63	2967.51
463.83	3522.51
464.04	3313.61
464.24	2975.70
464.44	3008.47
464.64	3352.52
464.85	3450.83
465.05	3088.34
465.25	2973.65
465.46	3121.10
465.66	3401.68
465.86	3166.16
466.07	3084.24
466.27	3246.03
466.47	2932.69
466.68	2871.25
466.88	3149.78
467.08	3444.68
467.29	3430.35
467.49	3100.62
467.69	3211.22
467.89	3373.00
468.10	3237.84
468.30	3180.50
468.50	3254.22
468.71	3483.59
468.91	2951.12
469.11	3221.45
469.31	3174.35
469.52	3086.29
469.72	3624.90
469.92	3223.50
470.13	3151.82
470.33	3229.65
470.53	3393.48
470.73	3461.07
470.94	3854.28
471.14	4218.82
471.34	4745.14
471.54	4310.97
471.75	4061.12
471.95	3844.04
472.15	3753.93
472.36	3700.68
472.56	3440.59
472.76	3823.56
472.96	3721.16
473.17	3409.87
473.37	3272.65
473.57	3278.80
473.77	3405.77
473.98	3186.64
474.18	3010.51
474.38	3975.11
474.58	3127.25
474.79	2877.40
474.99	3110.86
475.19	3514.31
475.39	3098.58
475.60	3119.06
475.80	3057.62
476.00	3321.81
476.20	3196.88
476.41	3170.26
476.61	3168.21
476.81	3461.07
477.01	3119.06
477.21	3426.25
477.42	3168.21
477.62	3112.91
477.82	3391.44
478.02	3018.71
478.23	3123.15
478.43	3098.58
478.63	3311.57
478.83	3071.95
479.03	3086.29
479.24	3555.27
479.44	3635.14
479.64	3030.99
479.84	2826.20
480.04	3043.28
480.25	3518.41
480.45	3018.71
480.65	2992.08
480.85	3520.46
481.06	3170.26
481.26	3172.30
481.46	2969.55
481.66	3409.87
481.86	3024.85
482.06	3243.98
482.27	3082.19
482.47	3125.20
482.67	3450.83
482.87	3078.10
483.07	3143.63
483.28	3157.97
483.48	3110.86
483.68	3045.33
483.88	2942.93
484.08	2881.49
484.29	3000.27
484.49	3172.30
484.69	2869.20
484.89	3598.28
485.09	3407.82
485.29	3106.77
485.50	3205.07
485.70	3127.25
485.90	3581.90
486.10	3188.69
486.30	3035.09
486.50	3579.85
486.71	3385.29
486.91	3174.35
487.11	3108.82
487.31	3016.66
487.51	3479.50
487.71	3018.71
487.91	3037.14
488.12	3106.77
488.32	2820.05
488.52	3026.90
488.72	2838.48
488.92	3383.24
489.12	3547.08
489.32	3139.54
489.53	3018.71
489.73	3008.47
489.93	3629.00
490.13	2994.13
490.33	2940.88
490.53	3315.66
490.73	3491.79
490.94	2873.30
491.14	3143.63
491.34	3497.93
491.54	3424.20
491.74	3981.25
491.94	4509.63
492.14	5183.41
492.34	5273.52
492.54	4814.77
492.75	4204.48
492.95	4376.51
493.15	3973.06
493.35	3831.75
493.55	3745.73
493.75	3751.88
493.95	3794.89
494.15	3282.89
494.35	3207.12
494.56	3188.69
494.76	3084.24
494.96	3217.36
495.16	2996.18
495.36	3260.37
495.56	3256.27
495.76	3084.24
495.96	3033.04
496.16	3131.34
496.36	3735.50
496.56	2975.70
496.77	3114.96
496.97	3213.26
497.17	3567.56
497.37	2897.88
497.57	3170.26
497.77	3344.33
497.97	3055.57
498.17	3127.25
498.37	3117.01
498.57	3377.10
498.77	3143.63
498.97	3243.98
499.17	3450.83
499.38	3252.17
499.58	3370.96
499.78	3188.69
499.98	3278.80
500.18	3219.41
500.38	3114.96
500.58	3282.89
500.78	3721.16
500.98	6133.67
501.18	8271.75
501.38	9811.82
501.58	10817.37
501.78	10848.09
501.98	9015.16
502.18	7507.85
502.38	6543.26
502.58	6453.15
502.78	5613.48
502.98	5410.73
503.18	5259.18
503.38	4999.09
503.59	4220.86
503.79	4011.97
503.99	3747.78
504.19	3977.16
504.39	3880.90
504.59	3776.45
504.79	3567.56
504.99	4003.78
505.19	3561.42
505.39	3348.43
505.59	3545.03
505.79	3696.58
505.99	3567.56
506.19	3172.30
506.39	3395.53
506.59	3129.30
506.79	3098.58
506.99	3332.05
507.19	3020.75
507.39	3311.57
507.59	3053.52
507.79	3020.75
507.99	3033.04
508.19	3211.22
508.39	3229.65
508.59	3141.58
508.79	3168.21
508.99	3733.45
509.19	3106.77
509.39	3180.50
509.59	3039.19
509.79	3180.50
509.99	3221.45
510.19	3205.07
510.39	3248.08
510.59	3250.13
510.79	3123.15
510.99	2838.48
511.19	3000.27
511.39	3639.24
511.59	3471.31
511.79	3168.21
511.99	3043.28
512.19	3557.32
512.38	3348.43
512.58	2969.55
512.78	2912.21
512.98	3504.07
513.18	3672.01
513.38	2904.02
513.58	3084.24
513.78	3227.60
513.98	3166.16
514.18	3010.51
514.38	3112.91
514.58	3336.14
514.78	3149.78
514.98	2969.55
515.18	3106.77
515.38	3114.96
515.58	3641.29
515.78	3055.57
515.98	3112.91
516.18	3379.15
516.38	3166.16
516.57	3049.43
516.77	3069.91
516.97	3362.76
517.17	3149.78
517.37	2852.82
517.57	3106.77
517.77	3254.22
517.97	3133.39
518.17	3174.35
518.37	2934.74
518.57	3176.40
518.77	3157.97
518.97	3090.38
519.16	3100.62
519.36	3481.55
519.56	3221.45
519.76	3000.27
519.96	3123.15
520.16	3583.95
520.36	3149.78
520.56	3231.69
520.76	2912.21
520.96	3258.32
521.16	3465.16
521.35	3254.22
521.55	3231.69
521.75	3280.85
521.95	3157.97
522.15	3020.75
522.35	2906.07
522.55	3098.58
522.75	3391.44
522.95	2971.60
523.14	2918.36
523.34	3235.79
523.54	3117.01
523.74	3172.30
523.94	3110.86
524.14	2987.99
524.34	3307.47
524.54	3213.26
524.73	3082.19
524.93	3403.72
525.13	3291.09
525.33	2930.64
525.53	3319.76
525.73	3459.02
525.93	3297.23
526.13	3133.39
526.32	2928.60
526.52	3526.60
526.72	3424.20
526.92	3096.53
527.12	2967.51
527.32	3002.32
527.52	3418.06
527.71	3147.73
527.91	3114.96
528.11	3139.54
528.31	3264.46
528.51	3035.09
528.71	3252.17
528.90	3395.53
529.10	3491.79
529.30	3108.82
529.50	2869.20
529.70	3332.05
529.90	3223.50
530.09	3051.47
530.29	2928.60
530.49	3108.82
530.69	3880.90
530.89	3248.08
531.09	3184.59
531.28	3215.31
531.48	3575.75
531.68	3057.62
531.88	3055.57
532.08	3389.39
532.28	3180.50
532.47	3131.34
532.67	3178.45
532.87	3456.97
533.07	3114.96
533.27	3074.00
533.46	3114.96
533.66	3293.13
533.86	3172.30
534.06	3086.29
534.26	3080.14
534.45	3219.41
534.65	3504.07
534.85	3184.59
535.05	3041.23
535.25	3508.17
535.44	2973.65
535.64	3114.96
535.84	3051.47
536.04	3196.88
536.24	3190.74
536.43	2977.75
536.63	3033.04
536.83	3225.55
537.03	3289.04
537.22	2820.05
537.42	2910.16
537.62	3291.09
537.82	3082.19
538.02	3215.31
538.21	3102.67
538.41	3784.65
538.61	3338.19
538.81	3088.34
539.00	3174.35
539.20	3026.90
539.40	3235.79
539.60	3041.23
539.79	3278.80
539.99	3272.65
540.19	3106.77
540.39	2969.55
540.58	3125.20
540.78	3497.93
540.98	3330.00
541.18	3291.09
541.37	3030.99
541.57	3323.85
541.77	3348.43
541.97	2949.08
542.16	2947.03
542.36	3196.88
542.56	3483.59
542.76	3254.22
542.95	3174.35
543.15	3379.15
543.35	3313.61
543.54	3045.33
543.74	2947.03
543.94	3575.75
544.14	3164.11
544.33	3143.63
544.53	3112.91
544.73	3229.65
544.93	3168.21
545.12	3004.37
545.32	3090.38
545.52	3221.45
545.71	3024.85
545.91	3110.86
546.11	2987.99
546.30	3102.67
546.50	3311.57
546.70	3147.73
546.90	3051.47
547.09	2881.49
547.29	3291.09
547.49	3180.50
547.68	2992.08
547.88	3155.92
548.08	3434.44
548.27	3366.86
548.47	2998.23
548.67	3114.96
548.87	3467.21
549.06	3033.04
549.26	3020.75
549.46	3399.63
549.65	3188.69
549.85	3129.30
550.05	3151.82
550.24	3028.95
550.44	3227.60
550.64	3121.10
550.83	3096.53
551.03	3499.98
551.23	3430.35
551.42	3108.82
551.62	3133.39
551.82	3317.71
552.01	3270.61
552.21	3389.39
552.41	3151.82
552.60	3528.65
552.80	3393.48
553.00	3020.75
553.19	3141.58
553.39	3624.90
553.59	3024.85
553.78	3192.78
553.98	3014.61
554.17	3053.52
554.37	3319.76
554.57	3094.48
554.76	2840.53
554.96	3194.83
555.16	3254.22
555.35	3100.62
555.55	3305.42
555.75	3241.93
555.94	3379.15
556.14	2871.25
556.33	3069.91
556.53	3262.41
556.73	3254.22
556.92	2994.13
557.12	2983.89
557.32	3649.48
557.51	3516.36
557.71	3082.19
557.90	3246.03
558.10	3563.47
558.30	3141.58
558.49	3094.48
558.69	2951.12
558.88	3401.68
559.08	3327.95
559.28	3104.72
559.47	3041.23
559.67	3334.09
559.86	3694.54
560.06	3055.57
560.26	3069.91
560.45	3475.40
560.65	3223.50
560.84	3362.76
561.04	2959.31
561.24	3377.10
561.43	3059.67
561.63	3397.58
561.82	3188.69
562.02	3356.62
562.22	3037.14
562.41	2983.89
562.61	3006.42
562.80	3049.43
563.00	3788.74
563.19	3172.30
563.39	3090.38
563.59	3309.52
563.78	2936.79
563.98	2869.20
564.17	3008.47
564.37	2912.21
564.56	3229.65
564.76	2914.26
564.96	3137.49
565.15	3370.96
565.35	3755.97
565.54	3102.67
565.74	3090.38
565.93	3397.58
566.13	3260.37
566.32	3112.91
566.52	3180.50
566.71	3307.47
566.91	3413.96
567.11	3178.45
567.30	3000.27
567.50	3407.82
567.69	3362.76
567.89	3012.56
568.08	2947.03
568.28	3315.66
568.47	2973.65
568.67	3076.05
568.86	3155.92
569.06	3430.35
569.25	3207.12
569.45	2897.88
569.64	3008.47
569.84	3123.15
570.04	3311.57
570.23	2969.55
570.43	3112.91
570.62	3332.05
570.82	3643.34
571.01	3024.85
571.21	3041.23
571.40	3119.06
571.60	3420.11
571.79	3155.92
571.99	3092.43
572.18	3076.05
572.38	3377.10
572.57	3157.97
572.77	3143.63
572.96	3856.33
573.16	3233.74
573.35	3028.95
573.55	3211.22
573.74	3416.01
573.94	3196.88
574.13	3061.71
574.33	3284.94
574.52	3514.31
574.71	3321.81
574.91	3219.41
575.10	2977.75
575.30	3241.93
575.49	3024.85
575.69	3002.32
575.88	3069.91
576.08	3198.93
576.27	3465.16
576.47	3022.80
576.66	3192.78
576.86	3487.69
577.05	3393.48
577.25	3157.97
577.44	3311.57
577.64	3252.17
577.83	3485.64
578.02	3024.85
578.22	3182.54
578.41	3717.06
578.61	3342.28
578.80	2951.12
579.00	3123.15
579.19	3237.84
579.39	3370.96
579.58	3209.17
579.77	3117.01
579.97	3428.30
580.16	3524.55
580.36	3252.17
580.55	3086.29
580.75	3293.13
580.94	3370.96
581.13	3264.46
581.33	3362.76
581.52	3325.90
581.72	3669.96
581.91	3155.92
582.11	2994.13
582.30	3391.44
582.49	3395.53
582.69	3373.00
582.88	3153.87
583.08	3332.05
583.27	3463.12
583.47	3176.40
583.66	3078.10
583.85	3119.06
584.05	3151.82
584.24	3221.45
584.44	3108.82
584.63	3409.87
584.82	3514.31
585.02	3258.32
585.21	3272.65
585.41	3510.22
585.60	3303.37
585.79	3330.00
585.99	3280.85
586.18	3375.05
586.37	4186.05
586.57	6205.35
586.76	17929.97
586.96	37344.71
587.15	50777.34
587.34	59407.48
587.54	63198.27
587.73	56444.07
587.93	40437.14
588.12	31626.78
588.31	25785.97
588.51	22765.22
588.70	21106.37
588.89	18593.51
589.09	15714.06
589.28	13829.93
589.47	10868.57
589.67	8146.82
589.86	6436.77
590.06	5111.73
590.25	4540.35
590.44	3958.72
590.64	3569.61
590.83	3590.09
591.02	3553.23
591.22	3082.19
591.41	3180.50
591.60	3264.46
591.80	3753.93
591.99	2959.31
592.18	3071.95
592.38	3377.10
592.57	3194.83
592.76	3065.81
592.96	3180.50
593.15	3286.99
593.34	3446.73
593.54	3090.38
593.73	3286.99
593.92	3370.96
594.12	3477.45
594.31	3170.26
594.50	3307.47
594.70	3336.14
594.89	3807.17
595.08	2912.21
595.28	3221.45
595.47	3893.19
595.66	3567.56
595.86	3020.75
596.05	2959.31
596.24	3190.74
596.43	3643.34
596.63	3127.25
596.82	3262.41
597.01	3334.09
597.21	3663.82
597.40	3076.05
597.59	3129.30
597.79	3196.88
597.98	3430.35
598.17	3192.78
598.36	3106.77
598.56	3391.44
598.75	3248.08
598.94	3194.83
599.14	3117.01
599.33	3151.82
599.52	3393.48
599.71	3178.45
599.91	3098.58
600.10	3409.87
600.29	3262.41
600.48	3176.40
600.68	3205.07
600.87	3241.93
601.06	3182.54
601.26	3219.41
601.45	3270.61
601.64	3190.74
601.83	3600.33
602.03	3008.47
602.22	3002.32
602.41	3549.13
602.60	3786.69
602.80	3112.91
602.99	3170.26
603.18	3180.50
603.37	3297.23
603.57	3022.80
603.76	3145.68
603.95	3383.24
604.14	3166.16
604.34	2987.99
604.53	3055.57
604.72	3303.37
604.91	3387.34
605.10	3059.67
605.30	2844.63
605.49	3663.82
605.68	3467.21
605.87	3110.86
606.07	3112.91
606.26	3276.75
606.45	3426.25
606.64	3112.91
606.84	2928.60
607.03	3307.47
607.22	3463.12
607.41	3129.30
607.60	3141.58
607.80	3450.83
607.99	3135.44
608.18	3188.69
608.37	3149.78
608.56	3092.43
608.76	3461.07
608.95	3336.14
609.14	3043.28
609.33	3549.13
609.52	3592.14
609.72	3209.17
609.91	3174.35
610.10	3327.95
610.29	3573.71
610.48	3266.51
610.68	3192.78
610.87	3213.26
611.06	3469.26
611.25	3172.30
611.44	3207.12
611.63	3180.50
611.83	3493.83
612.02	2994.13
612.21	3239.89
612.40	2938.84
612.59	3061.71
612.79	2990.03
612.98	3190.74
613.17	3653.58
613.36	3340.24
613.55	3250.13
613.74	3149.78
613.93	3368.91
614.13	3393.48
614.32	3350.48
614.51	3166.16
614.70	3330.00
614.89	3149.78
615.08	3133.39
615.28	3442.64
615.47	3090.38
615.66	3385.29
615.85	3035.09
616.04	3131.34
616.23	3248.08
616.42	3327.95
616.62	3176.40
616.81	3110.86
617.00	3307.47
617.19	3358.67
617.38	3067.86
617.57	3182.54
617.76	3438.54
617.95	3332.05
618.15	3160.02
618.34	3295.18
618.53	3035.09
618.72	3549.13
618.91	3149.78
619.10	3112.91
619.29	3303.37
619.48	3323.85
619.68	2979.79
619.87	3084.24
620.06	3002.32
620.25	3313.61
620.44	2975.70
620.63	3086.29
620.82	3286.99
621.01	3274.70
621.20	3123.15
621.39	3147.73
621.59	3362.76
621.78	3278.80
621.97	3119.06
622.16	3311.57
622.35	3426.25
622.54	3393.48
622.73	3182.54
622.92	2854.87
623.11	3479.50
623.30	3162.06
623.49	3176.40
623.68	2959.31
623.88	3508.17
624.07	3176.40
624.26	2983.89
624.45	3069.91
624.64	3229.65
624.83	3293.13
625.02	3080.14
625.21	3119.06
625.40	3428.30
625.59	3592.14
625.78	3188.69
625.97	3217.36
626.16	3524.55
626.35	3526.60
626.54	3114.96
626.74	3243.98
626.93	3215.31
627.12	3243.98
627.31	3127.25
627.50	3153.87
627.69	3497.93
627.88	3135.44
628.07	3037.14
628.26	2910.16
628.45	3106.77
628.64	3096.53
628.83	3014.61
629.02	2930.64
629.21	3393.48
629.40	3395.53
629.59	2961.36
629.78	3000.27
629.97	3274.70
630.16	3256.27
630.35	3002.32
630.54	3139.54
630.73	3164.11
630.92	3221.45
631.11	3004.37
631.30	3131.34
631.49	3481.55
631.68	3303.37
631.87	3141.58
632.06	3061.71
632.25	3766.21
632.44	3317.71
632.63	3231.69
632.82	3123.15
633.01	3155.92
633.20	3301.33
633.39	3082.19
633.58	2840.53
633.77	3307.47
633.96	3450.83
634.15	3241.93
634.34	3196.88
634.53	3309.52
634.72	3139.54
634.91	2930.64
635.10	3065.81
635.29	3405.77
635.48	3377.10
635.67	2930.64
635.86	2969.55
636.05	3551.18
636.24	3198.93
636.43	3055.57
636.62	3112.91
636.81	2836.44
637.00	3334.09
637.19	3039.19
637.38	3141.58
637.57	3205.07
637.76	3264.46
637.95	3241.93
638.14	3190.74
638.33	3452.88
638.52	3307.47
638.71	3004.37
638.89	3018.71
639.08	3813.32
639.27	3565.51
639.46	3401.68
639.65	3680.20
639.84	3878.85
640.03	4134.85
640.22	3575.75
640.41	3538.89
640.60	3403.72
640.79	3508.17
640.98	3256.27
641.17	3284.94
641.36	3471.31
641.55	3475.40
641.74	2965.46
641.92	3024.85
642.11	3231.69
642.30	3243.98
642.49	2973.65
642.68	2983.89
642.87	3405.77
643.06	3379.15
643.25	2906.07
643.44	3028.95
643.63	3241.93
643.82	3391.44
644.00	2977.75
644.19	3065.81
644.38	3057.62
644.57	3395.53
644.76	3135.44
644.95	3071.95
645.14	3286.99
645.33	3241.93
645.52	3162.06
645.71	2985.94
645.89	3053.52
646.08	3233.74
646.27	3110.86
646.46	3262.41
646.65	2990.03
646.84	3319.76
647.03	2955.22
647.22	3153.87
647.40	3289.04
647.59	3194.83
647.78	2908.12
647.97	3041.23
648.16	3086.29
648.35	3481.55
648.54	3286.99
648.73	3065.81
648.91	3393.48
649.10	3325.90
649.29	3094.48
649.48	3039.19
649.67	3393.48
649.86	3262.41
650.05	3153.87
650.23	3239.89
650.42	3162.06
650.61	3598.28
650.80	3434.44
650.99	3387.34
651.18	3598.28
651.36	3506.12
651.55	2985.94
651.74	3268.56
651.93	3207.12
652.12	3266.51
652.31	3039.19
652.49	3045.33
652.68	3243.98
652.87	3590.09
653.06	3166.16
653.25	3381.20
653.44	3350.48
653.62	3616.71
653.81	3131.34
654.00	3082.19
654.19	3385.29
654.38	3860.42
654.56	3192.78
654.75	3043.28
654.94	3438.54
655.13	3311.57
655.32	3010.51
655.51	3215.31
655.69	3153.87
655.88	3430.35
656.07	2942.93
656.26	3127.25
656.45	2893.78
656.63	3235.79
656.82	3008.47
657.01	3360.72
657.20	3121.10
657.38	3553.23
657.57	3067.86
657.76	2942.93
657.95	3499.98
658.14	3172.30
658.32	3289.04
658.51	2934.74
658.70	3254.22
658.89	3293.13
659.08	3106.77
659.26	3239.89
659.45	3114.96
659.64	3440.59
659.83	3098.58
660.01	3450.83
660.20	3303.37
660.39	3536.84
660.58	2803.67
660.76	3166.16
660.95	3037.14
661.14	3286.99
661.33	2883.54
661.51	3094.48
661.70	3106.77
661.89	3348.43
662.08	3168.21
662.26	2901.97
662.45	3082.19
662.64	3624.90
662.83	3205.07
663.01	2957.27
663.20	3137.49
663.39	3614.66
663.58	3117.01
663.76	3074.00
663.95	3483.59
664.14	3039.19
664.32	3143.63
664.51	2975.70
664.70	2885.59
664.89	3311.57
665.07	2951.12
665.26	3291.09
665.45	2990.03
665.64	3387.34
665.82	3086.29
666.01	3196.88
666.20	3076.05
666.38	3434.44
666.57	3438.54
666.76	5525.42
666.95	12891.96
667.13	20563.65
667.32	25028.23
667.51	28284.50
667.69	29402.69
667.88	24331.92
668.07	17379.06
668.25	14728.99
668.44	12865.34
668.63	11192.15
668.81	9660.27
669.00	8447.87
669.19	7692.17
669.38	6766.49
669.56	5715.88
669.75	5076.91
669.94	4374.46
670.12	3794.89
670.31	3471.31
670.50	3354.57
670.68	3608.52
670.87	3362.76
671.06	3086.29
671.24	3145.68
671.43	3643.34
671.62	3356.62
671.80	3067.86
671.99	3229.65
672.18	3309.52
672.36	3461.07
672.55	3231.69
672.74	3035.09
672.92	3325.90
673.11	3469.26
673.29	2885.59
673.48	3229.65
673.67	3217.36
673.85	3506.12
674.04	2961.36
674.23	3174.35
674.41	3647.43
674.60	3065.81
674.79	2906.07
674.97	2926.55
675.16	3395.53
675.34	3461.07
675.53	3006.42
675.72	3112.91
675.90	3592.14
676.09	3262.41
676.28	3123.15
676.46	2861.01
676.65	3465.16
676.83	3074.00
677.02	3127.25
677.21	3166.16
677.39	3377.10
677.58	3178.45
677.77	2996.18
677.95	2932.69
678.14	3157.97
678.32	3211.22
678.51	3067.86
678.70	3422.16
678.88	3071.95
679.07	3248.08
679.25	3151.82
679.44	3086.29
679.63	2992.08
679.81	3354.57
680.00	3268.56
680.18	3184.59
680.37	3585.99
680.55	3295.18
680.74	2912.21
680.93	2863.06
681.11	3364.81
681.30	3215.31
681.48	3043.28
681.67	3065.81
681.85	3291.09
682.04	3131.34
682.23	3276.75
682.41	3254.22
682.60	3196.88
682.78	3297.23
682.97	3012.56
683.15	3196.88
683.34	3262.41
683.53	3563.47
683.71	2969.55
683.90	3061.71
684.08	3645.38
684.27	3209.17
684.45	3049.43
684.64	3082.19
684.82	3348.43
685.01	3395.53
685.19	3067.86
685.38	3430.35
685.57	3278.80
685.75	3186.64
685.94	3010.51
686.12	2910.16
686.31	3192.78
686.49	3596.23
686.68	2877.40
686.86	3112.91
687.05	3291.09
687.23	3538.89
687.42	3135.44
687.60	2910.16
687.79	3461.07
687.97	3573.71
688.16	3219.41
688.34	3313.61
688.53	2959.31
688.71	3383.24
688.90	3413.96
689.08	3168.21
689.27	2967.51
689.45	3393.48
689.64	3215.31
689.82	3270.61
690.01	3352.52
690.19	3280.85
690.38	3170.26
690.56	3295.18
690.75	3135.44
690.93	3188.69
691.12	3047.38
691.30	3125.20
691.49	3102.67
691.67	3184.59
691.86	3446.73
692.04	3082.19
692.23	3100.62
692.41	3239.89
692.60	3481.55
692.78	3231.69
692.97	3250.13
693.15	3385.29
693.34	3248.08
693.52	3260.37
693.71	3151.82
693.89	3182.54
694.08	2938.84
694.26	3127.25
694.44	3469.26
694.63	3434.44
694.81	2987.99
695.00	3110.86
695.18	3442.64
695.37	3829.70
695.55	3143.63
695.74	3112.91
695.92	3117.01
696.10	3549.13
696.29	2983.89
696.47	3096.53
696.66	3008.47
696.84	3037.14
697.03	3104.72
697.21	3379.15
697.40	4739.00
697.58	3487.69
697.76	3041.23
697.95	3082.19
698.13	3067.86
698.32	3233.74
698.50	3008.47
698.68	3074.00
698.87	3295.18
699.05	3659.72
699.24	3069.91
699.42	3012.56
699.61	3313.61
699.79	3366.86
699.97	3151.82
700.16	3006.42
700.34	3074.00
700.53	3327.95
700.71	3377.10
700.89	3260.37
701.08	3209.17
701.26	3229.65
701.45	3504.07
701.63	3106.77
701.81	3196.88
702.00	3131.34
702.18	3209.17
702.37	3090.38
702.55	3569.61
702.73	3387.34
702.92	3180.50
703.10	3532.75
703.28	3473.36
703.47	3172.30
703.65	3344.33
703.84	3291.09
704.02	3198.93
704.20	3612.62
704.39	3098.58
704.57	3125.20
704.75	3405.77
704.94	3393.48
705.12	3317.71
705.30	4044.74
705.49	8667.00
705.67	16944.89
705.86	23709.33
706.04	27031.14
706.22	29886.01
706.41	28388.94
706.59	21378.75
706.77	16965.37
706.96	14552.87
707.14	13012.79
707.32	11237.20
707.51	9897.83
707.69	8124.29
707.87	6530.97
708.06	5287.86
708.24	4491.20
708.42	4026.31
708.61	4179.90
708.79	3274.70
708.97	3295.18
709.16	3456.97
709.34	3286.99
709.52	3133.39
709.71	3135.44
709.89	3401.68
710.07	3082.19
710.26	3014.61
710.44	3117.01
710.62	3397.58
710.80	3305.42
710.99	3256.27
711.17	3217.36
711.35	3086.29
711.54	3147.73
711.72	3264.46
711.90	3137.49
712.09	3426.25
712.27	3213.26
712.45	3250.13
712.63	3082.19
712.82	3342.28
713.00	3256.27
713.18	3276.75
713.37	3280.85
713.55	3434.44
713.73	3551.18
713.91	3104.72
714.10	3057.62
714.28	3209.17
714.46	3362.76
714.65	3190.74
714.83	3117.01
715.01	3280.85
715.19	3270.61
715.38	3020.75
715.56	3184.59
715.74	3237.84
715.92	3106.77
716.11	3377.10
716.29	2852.82
716.47	3383.24
716.65	3198.93
716.84	2920.40
717.02	3137.49
717.20	2963.41
717.38	3141.58
717.57	3147.73
717.75	3106.77
717.93	3110.86
718.11	3383.24
718.30	2906.07
718.48	3117.01
718.66	3475.40
718.84	3469.26
719.03	3065.81
719.21	2961.36
719.39	3571.66
719.57	3321.81
719.75	3196.88
719.94	2975.70
720.12	3119.06
720.30	3254.22
720.48	3170.26
720.67	3135.44
720.85	3061.71
721.03	3149.78
721.21	3022.80
721.39	3278.80
721.58	3366.86
721.76	3231.69
721.94	3203.02
722.12	3153.87
722.30	3637.19
722.49	3174.35
722.67	3071.95
722.85	3162.06
723.03	3022.80
723.21	3114.96
723.40	3112.91
723.58	3209.17
723.76	3428.30
723.94	3542.99
724.12	3106.77
724.30	3321.81
724.49	3553.23
724.67	3190.74
724.85	3215.31
725.03	2865.11
725.21	3409.87
725.40	3538.89
725.58	3123.15
725.76	3313.61
725.94	3340.24
726.12	3082.19
726.30	3071.95
726.49	3143.63
726.67	3252.17
726.85	3426.25
727.03	4032.45
727.21	5478.32
727.39	7184.27
727.57	8036.23
727.76	8394.62
727.94	8599.42
728.12	7448.46
728.30	5939.11
728.48	5629.87
728.66	5093.30
728.84	4741.05
729.03	4134.85
729.21	3833.80
729.39	3532.75
729.57	3389.39
729.75	3493.83
729.93	3444.68
730.11	3037.14
730.30	3149.78
730.48	3311.57
730.66	3078.10
730.84	3254.22
731.02	3307.47
731.20	3131.34
731.38	3170.26
731.56	3008.47
731.74	3065.81
731.93	3284.94
732.11	3188.69
732.29	3133.39
732.47	3375.05
732.65	3246.03
732.83	3317.71
733.01	3174.35
733.19	3039.19
733.37	3360.72
733.56	3106.77
733.74	2975.70
733.92	3555.27
734.10	3069.91
734.28	3258.32
734.46	2922.45
734.64	3213.26
734.82	3237.84
735.00	3106.77
735.18	3069.91
735.36	3200.98
735.54	3315.66
735.73	3076.05
735.91	3235.79
736.09	3581.90
736.27	3258.32
736.45	3147.73
736.63	2811.86
736.81	3182.54
736.99	3450.83
737.17	3309.52
737.35	3024.85
737.53	3252.17
737.71	3268.56
737.89	3286.99
738.07	2996.18
738.25	3172.30
738.43	3000.27
738.61	3123.15
738.80	2881.49
738.98	3059.67
739.16	3184.59
739.34	3037.14
739.52	3362.76
739.70	3274.70
739.88	3418.06
740.06	3291.09
740.24	2850.77
740.42	3489.74
740.60	2858.96
740.78	3041.23
740.96	2906.07
741.14	3209.17
741.32	3215.31
741.50	2901.97
741.68	3370.96
741.86	3536.84
742.04	3069.91
742.22	2992.08
742.40	3061.71
742.58	3399.63
742.76	3061.71
742.94	3305.42
743.12	2981.84
743.30	3295.18
743.48	3346.38
743.66	3051.47
743.84	3135.44
744.02	3174.35
744.20	3264.46
744.38	2955.22
744.56	3037.14
744.74	3577.80
744.92	3364.81
745.10	3321.81
745.28	3069.91
745.46	3624.90
745.64	3215.31
745.82	3188.69
746.00	3110.86
746.18	3479.50
746.36	3069.91
746.54	3147.73
746.72	3133.39
746.90	3067.86
747.08	3463.12
747.26	3084.24
747.44	3256.27
747.62	3471.31
747.80	3393.48
747.98	3104.72
748.15	3084.24
748.33	3614.66
748.51	3303.37
748.69	3119.06
748.87	2983.89
749.05	3239.89
749.23	3256.27
749.41	3065.81
749.59	3037.14
749.77	3413.96
749.95	3205.07
750.13	2998.23
750.31	3274.70
750.49	3223.50
750.67	3491.79
750.85	3221.45
751.03	3194.83
751.20	3647.43
751.38	3373.00
751.56	3106.77
751.74	3039.19
751.92	3250.13
752.10	3110.86
752.28	3248.08
752.46	3151.82
752.64	3215.31
752.82	3278.80
753.00	3250.13
753.18	2942.93
753.35	3248.08
753.53	3200.98
753.71	3022.80
753.89	3203.02
754.07	3280.85
754.25	3440.59
754.43	3151.82
754.61	2942.93
754.79	3409.87
754.97	3262.41
755.14	3299.28
755.32	2965.46
755.50	3295.18
755.68	3370.96
755.86	3037.14
756.04	3176.40
756.22	2953.17
756.40	3493.83
756.57	3270.61
756.75	3002.32
756.93	3485.64
757.11	3499.98
757.29	2992.08
757.47	2992.08
757.65	2947.03
757.82	2813.91
758.00	2967.51
758.18	3014.61
758.36	3100.62
758.54	3606.47
758.72	2922.45
758.90	3213.26
759.07	3397.58
759.25	3061.71
759.43	3160.02
759.61	2940.88
759.79	4511.68
759.97	3444.68
760.15	3166.16
760.32	2996.18
760.50	3354.57
760.68	3520.46
760.86	2934.74
761.04	3323.85
761.22	3471.31
761.39	3291.09
761.57	3235.79
761.75	3035.09
761.93	3325.90
762.11	3321.81
762.28	3149.78
762.46	3037.14
762.64	3524.55
762.82	3043.28
763.00	3002.32
763.18	3309.52
763.35	3084.24
763.53	3452.88
763.71	3149.78
763.89	3061.71
764.07	3274.70
764.24	3295.18
764.42	3162.06
764.60	3078.10
764.78	3368.91
764.96	3510.22
765.13	3274.70
765.31	2930.64
765.49	3381.20
765.67	3203.02
765.84	3117.01
766.02	3049.43
766.20	2936.79
766.38	3405.77
766.56	3147.73
766.73	3110.86
766.91	3227.60
767.09	3278.80
767.27	3102.67
767.44	3028.95
767.62	3393.48
767.80	3336.14
767.98	3096.53
768.15	3065.81
768.33	3436.49
768.51	3436.49
768.69	3209.17
768.87	3114.96
769.04	3330.00
769.22	3733.45
769.40	3192.78
769.58	3217.36
769.75	3327.95
769.93	3504.07
770.11	3153.87
770.28	3002.32
770.46	3432.40
770.64	3319.76
770.82	3117.01
770.99	3076.05
771.17	3395.53
771.35	3174.35
771.53	3098.58
771.70	3049.43
771.88	3489.74
772.06	3270.61
772.23	3049.43
772.41	3129.30
772.59	3160.02
772.77	3098.58
772.94	3143.63
773.12	3215.31
773.30	3112.91
773.47	3303.37
773.65	3082.19
773.83	3237.84
774.01	3284.94
774.18	2942.93
774.36	3080.14
774.54	2947.03
774.71	3334.09
774.89	2947.03
775.07	2990.03
775.24	3045.33
775.42	3207.12
775.60	3682.25
775.78	2983.89
775.95	2932.69
776.13	2908.12
776.31	2910.16
776.48	3307.47
776.66	3246.03
776.84	3155.92
777.01	3039.19
777.19	3024.85
777.37	2983.89
777.54	3393.48
777.72	3573.71
777.90	3209.17
778.07	2926.55
778.25	3966.92
778.43	3436.49
778.60	3069.91
778.78	3209.17
778.96	3540.94
779.13	3061.71
779.31	3135.44
779.49	3149.78
779.66	3223.50
779.84	3205.07
780.01	3018.71
780.19	3051.47
780.37	3485.64
780.54	3401.68
780.72	2992.08
780.90	3151.82
781.07	3215.31
781.25	3213.26
781.43	3295.18
781.60	3051.47
781.78	3514.31
781.95	3323.85
782.13	3092.43
782.31	3084.24
782.48	2977.75
782.66	3274.70
782.83	3315.66
783.01	3176.40
783.19	3434.44
783.36	3243.98
783.54	3057.62
783.72	3176.40
783.89	3108.82
784.07	3319.76
784.24	3151.82
784.42	3254.22
784.60	3293.13
784.77	3352.52
784.95	2846.68
785.12	3030.99
785.30	3330.00
785.47	3145.68
785.65	3028.95
785.83	3129.30
786.00	3229.65
786.18	3280.85
786.35	2981.84
786.53	2987.99
786.71	3553.23
786.88	3352.52
787.06	3276.75
787.23	3133.39
787.41	3045.33
787.58	3205.07
787.76	3028.95
787.94	3106.77
788.11	3233.74
788.29	3037.14
788.46	3057.62
788.64	2885.59
788.81	3166.16
788.99	3065.81
789.16	2926.55
789.34	3057.62
789.52	3094.48
789.69	3170.26
789.87	2901.97
790.04	3065.81
790.22	3313.61
790.39	3647.43
790.57	3057.62
790.74	3033.04
790.92	3409.87
791.09	2979.79
791.27	3114.96
791.44	3108.82
791.62	3276.75
791.79	3395.53
791.97	3121.10
792.15	3405.77
792.32	3442.64
792.50	3385.29
792.67	3258.32
792.85	3393.48
793.02	3368.91
793.20	3223.50
793.37	2934.74
793.55	3024.85
793.72	3051.47
793.90	3297.23
794.07	3098.58
794.25	2985.94
794.42	3336.14
794.60	3149.78
794.77	3082.19
794.95	3262.41
795.12	3469.26
795.30	3196.88
795.47	2852.82
795.65	3407.82
795.82	3385.29
796.00	3082.19
796.17	3160.02
796.34	3039.19
796.52	3416.01
796.69	3416.01
796.87	3198.93
797.04	3157.97
797.22	3428.30
797.39	3352.52
797.57	3286.99
797.74	3123.15
797.92	3313.61
798.09	3135.44
798.27	3395.53
798.44	3080.14
798.62	3168.21
798.79	3327.95
798.96	3282.89
799.14	3078.10
799.31	3747.78
799.49	3282.89
799.66	3067.86
799.84	3194.83
800.01	2987.99
800.19	3436.49
800.36	2863.06
800.53	3084.24
800.71	3305.42
800.88	3573.71
801.06	3026.90
801.23	3076.05
801.41	3168.21
801.58	3182.54
801.75	3018.71
801.93	3123.15
802.10	3405.77
802.28	3295.18
802.45	3057.62
802.63	3127.25
802.80	3590.09
802.97	3155.92
803.15	3008.47
803.32	3076.05
803.50	3139.54
803.67	3129.30
803.84	3016.66
804.02	3155.92
804.19	3139.54
804.37	2889.68
804.54	2877.40
804.71	3018.71
804.89	3276.75
805.06	3004.37
805.24	3028.95
805.41	2930.64
805.58	3211.22
805.76	3852.23
805.93	3098.58
806.10	3246.03
806.28	3377.10
806.45	3358.67
806.63	3243.98
806.80	3094.48
806.97	3321.81
807.15	3313.61
807.32	3162.06
807.49	3127.25
807.67	3028.95
807.84	3375.05
808.01	2852.82
808.19	3237.84
808.36	3645.38
808.54	3114.96
808.71	3024.85
808.88	2973.65
809.06	3493.83
809.23	3622.86
809.40	3149.78
809.58	3012.56
809.75	3237.84
809.92	3008.47
810.10	3307.47
810.27	3045.33
810.44	3352.52
810.62	3520.46
810.79	3078.10
810.96	3082.19
811.14	3203.02
811.31	3358.67
811.48	3256.27
811.66	3174.35
811.83	3524.55
812.00	3403.72
812.18	3123.15
812.35	3416.01
812.52	3180.50
812.69	3213.26
812.87	3096.53
813.04	2959.31
813.21	3186.64
813.39	3143.63
813.56	3067.86
813.73	3291.09
813.91	3000.27
814.08	3301.33
814.25	3049.43
814.42	2889.68
814.60	3221.45
814.77	3389.39
814.94	3016.66
815.12	3059.67
815.29	3614.66
815.46	3143.63
815.63	3076.05
815.81	3041.23
815.98	3209.17
816.15	3321.81
816.33	3237.84
816.50	3110.86
816.67	3262.41
816.84	3280.85
817.02	2926.55
817.19	3055.57
817.36	3303.37
817.53	3307.47
817.71	2955.22
817.88	3053.52
818.05	3270.61
818.22	3237.84
818.40	3266.51
818.57	3041.23
818.74	3401.68
818.91	3237.84
819.09	3209.17
819.26	3289.04
819.43	3135.44
819.60	3182.54
819.78	3215.31
819.95	3157.97
820.12	3061.71
820.29	3502.03
820.47	3366.86
820.64	2983.89
820.81	2967.51
820.98	3114.96
821.15	3033.04
821.33	3213.26
821.50	2983.89
821.67	3403.72
821.84	3117.01
822.02	3016.66
822.19	3397.58
822.36	3188.69
822.53	2963.41
822.70	2979.79
822.88	3137.49
823.05	3559.37
823.22	3207.12
823.39	3112.91
823.56	3291.09
823.74	3745.73
823.91	2967.51
824.08	2953.17
824.25	3024.85
824.42	3538.89
824.60	2877.40
824.77	3162.06
824.94	3229.65
825.11	3469.26
825.28	2910.16
825.45	3229.65
825.63	3239.89
825.80	3090.38
825.97	3184.59
826.14	3190.74
826.31	2959.31
826.48	3330.00
826.66	3096.53
826.83	2951.12
827.00	3166.16
827.17	3106.77
827.34	3078.10
827.51	3008.47
827.69	3176.40
827.86	3033.04
828.03	3037.14
828.20	3133.39
828.37	3137.49
828.54	3340.24
828.71	3012.56
828.89	3182.54
829.06	3334.09
829.23	3524.55
829.40	2957.27
829.57	3020.75
829.74	3370.96
829.91	3141.58
830.09	2985.94
830.26	3186.64
830.43	3557.32
830.60	3248.08
830.77	3114.96
830.94	3309.52
831.11	3448.78
831.28	3166.16
831.46	3282.89
831.63	3022.80
831.80	3485.64
831.97	3102.67
832.14	3088.34
832.31	3102.67
832.48	3278.80
832.65	3391.44
832.82	3188.69
832.99	3213.26
833.17	3022.80
833.34	3510.22
833.51	2981.84
833.68	2869.20
833.85	3493.83
834.02	3065.81
834.19	3051.47
834.36	3059.67
834.53	3370.96
834.70	3413.96
834.87	3026.90
835.04	2832.34
835.22	3065.81
835.39	3205.07
835.56	2797.53
835.73	3057.62
835.90	3393.48
836.07	3137.49
836.24	3071.95
836.41	2944.98
836.58	3139.54
836.75	3506.12
836.92	2967.51
837.09	2805.72
837.26	3506.12
837.43	3381.20
837.60	2992.08
837.77	2987.99
837.94	3409.87
838.12	3575.75
838.29	2818.00
838.46	2832.34
838.63	3016.66
838.80	3581.90
838.97	3020.75
839.14	2863.06
839.31	3366.86
839.48	3338.19
839.65	2891.73
839.82	3082.19
839.99	3241.93
840.16	3270.61
840.33	2877.40
840.50	3074.00
840.67	3145.68
840.84	2791.38
841.01	2840.53
841.18	2918.36
841.35	3272.65
841.52	3385.29
841.69	3207.12
841.86	3010.51
842.03	3344.33
842.20	3428.30
842.37	2912.21
842.54	2971.60
842.71	3207.12
842.88	2971.60
843.05	2957.27
843.22	2904.02
843.39	3405.77
843.56	3151.82
843.73	2918.36
843.90	2930.64
844.07	3266.51
844.24	3452.88
844.41	2955.22
844.58	2897.88
844.75	3209.17
844.92	3395.53
845.09	2994.13
845.26	2893.78
845.43	3364.81
845.60	3194.83
845.77	3004.37
845.94	2977.75
846.10	3483.59
846.27	2961.36
846.44	2795.48
846.61	2830.29
846.78	3319.76
846.95	3499.98
847.12	2938.84
847.29	2877.40
847.46	3057.62
847.63	3413.96
847.80	2867.16
847.97	2924.50
848.14	3631.05
848.31	3198.93
848.48	2791.38
848.65	2877.40
848.82	3104.72
848.98	3821.51
849.15	3057.62
849.32	3045.33
849.49	3512.27
849.66	3227.60
849.83	2881.49
850.00	2863.06
850.17	3430.35
850.34	3139.54
850.51	2881.49
850.68	3028.95
850.85	3788.74
851.01	3272.65
851.18	2830.29
851.35	2969.55
851.52	3262.41
851.69	3585.99
851.86	2889.68
852.03	2789.33
852.20	3401.68
852.37	3299.28
852.53	2779.09
852.70	2885.59
852.87	3344.33
853.04	3387.34
853.21	2904.02
853.38	3160.02
853.55	3493.83
853.72	3547.08
853.89	2832.34
854.05	2904.02
854.22	3117.01
854.39	3149.78
854.56	2887.64
854.73	3059.67
854.90	3051.47
855.07	3237.84
855.23	2758.61
855.40	2877.40
855.57	3233.74
855.74	2824.15
855.91	3106.77
856.08	2752.47
856.25	3026.90
856.41	3141.58
856.58	2979.79
856.75	2893.78
856.92	2994.13
857.09	3456.97
857.26	2766.81
857.42	3026.90
857.59	3403.72
857.76	3065.81
857.93	2910.16
858.10	2895.83
858.27	3069.91
858.43	3350.48
858.60	2951.12
858.77	2826.20
858.94	3129.30
859.11	3518.41
859.27	2973.65
859.44	2807.77
859.61	3682.25
859.78	3303.37
859.95	2957.27
860.12	2854.87
860.28	3753.93
860.45	3567.56
860.62	2914.26
860.79	2940.88
860.95	3147.73
861.12	3104.72
861.29	2834.39
861.46	2924.50
861.63	3223.50
861.79	3344.33
861.96	2775.00
862.13	2904.02
862.30	3569.61
862.47	3078.10
862.63	2783.19
862.80	2953.17
862.97	3512.27
863.14	3348.43
863.30	2969.55
863.47	2897.88
863.64	3502.03
863.81	3323.85
863.97	2762.71
864.14	2930.64
864.31	3112.91
864.48	3266.51
864.65	2947.03
864.81	2998.23
864.98	3348.43
865.15	3422.16
865.32	2922.45
865.48	3028.95
865.65	3661.77
865.82	3209.17
865.98	3004.37
866.15	2893.78
866.32	3231.69
866.49	3100.62
866.65	3000.27
866.82	2963.41
866.99	3188.69
867.16	3192.78
867.32	2885.59
867.49	2807.77
867.66	3239.89
867.83	3133.39
867.99	2820.05
868.16	2916.31
868.33	3059.67
868.49	3239.89
868.66	2947.03
868.83	3102.67
868.99	3246.03
869.16	3291.09
869.33	3039.19
869.50	3010.51
869.66	3237.84
869.83	3215.31
870.00	2832.34
870.16	3086.29
870.33	3178.45
870.50	3485.64
870.66	2967.51
870.83	2926.55
871.00	3143.63
871.17	3373.00
871.33	2969.55
871.50	2963.41
871.67	3229.65
871.83	3254.22
872.00	3018.71
872.17	2934.74
872.33	3608.52
872.50	3450.83
872.67	2897.88
872.83	2912.21
873.00	3344.33
873.17	3266.51
873.33	2987.99
873.50	3008.47
873.67	3133.39
873.83	3098.58
874.00	2926.55
874.16	3133.39
874.33	3221.45
874.50	3026.90
874.66	2824.15
874.83	2940.88
875.00	3411.92
875.16	3454.92
875.33	2992.08
875.50	2709.46
875.66	3172.30
875.83	3344.33
875.99	3053.52
876.16	3053.52
876.33	3012.56
876.49	3221.45
876.66	3002.32
876.83	2957.27
876.99	2947.03
877.16	3286.99
877.32	2799.57
877.49	2977.75
877.66	3411.92
877.82	3557.32
877.99	3000.27
878.15	3207.12
878.32	3346.38
878.49	3278.80
878.65	2994.13
878.82	3149.78
878.98	3112.91
879.15	3549.13
879.32	3033.04
879.48	3074.00
879.65	3301.33
879.81	3203.02
879.98	3045.33
880.15	3014.61
880.31	3477.45
880.48	3071.95
880.64	3065.81
880.81	2967.51
880.97	3585.99
881.14	3545.03
881.31	2906.07
881.47	3080.14
881.64	3256.27
881.80	2928.60
881.97	3020.75
882.13	2951.12
882.30	2979.79
882.47	3153.87
882.63	2959.31
882.80	2908.12
882.96	3160.02
883.13	3438.54
883.29	3008.47
883.46	2967.51
883.62	3680.20
883.79	3147.73
883.95	3135.44
884.12	2875.35
884.29	3432.40
884.45	3239.89
884.62	2947.03
884.78	2959.31
884.95	3598.28
885.11	3026.90
885.28	2994.13
885.44	2942.93
885.61	3373.00
885.77	3461.07
885.94	3061.71
886.10	2971.60
886.27	3299.28
886.43	3669.96
886.60	3090.38
886.76	2973.65
886.93	3102.67
887.09	3301.33
887.26	2750.42
887.42	3037.14
887.59	3526.60
887.75	3710.92
887.92	3096.53
888.08	3078.10
888.25	3526.60
888.41	3426.25
888.58	2977.75
888.74	2842.58
888.91	3110.86
>>>>>End Processed Spectral Data<<<<<
