SpectraSuite Data File
++++++++++++++++++++++++++++++++++++
Date: Fri May 06 08:14:15 CEST 2016
User: root
Dark Spectrum Present: No
Reference Spectrum Present: No
Number of Sampled Component Spectra: 1
Spectrometers: USB4C02835
Integration Time (usec): 100000 (USB4C02835)
Spectra Averaged: 1 (USB4C02835)
Boxcar Smoothing: 0 (USB4C02835)
Correct for Electrical Dark: No (USB4C02835)
Strobe/Lamp Enabled: No (USB4C02835)
Correct for Detector Non-linearity: No (USB4C02835)
Correct for Stray Light: No (USB4C02835)
Number of Pixels in Processed Spectrum: 3648
>>>>>Begin Processed Spectral Data<<<<<
177.47	2258.91
177.69	2258.91
177.91	2258.91
178.13	2246.62
178.36	2244.57
178.58	2990.03
178.80	3160.02
179.02	2938.84
179.24	3069.91
179.46	2772.95
179.68	2836.44
179.90	3211.22
180.13	3243.98
180.35	2635.74
180.57	2822.10
180.79	3409.87
181.01	3215.31
181.23	2834.39
181.45	3014.61
181.67	3420.11
181.90	3465.16
182.12	2889.68
182.34	2777.05
182.56	3405.77
182.78	3409.87
183.00	2838.48
183.22	2961.36
183.44	2944.98
183.66	3868.61
183.89	2969.55
184.11	2901.97
184.33	3450.83
184.55	3508.17
184.77	2850.77
184.99	2820.05
185.21	3127.25
185.43	3811.27
185.65	2775.00
185.87	2803.67
186.10	3657.67
186.32	3786.69
186.54	3002.32
186.76	2912.21
186.98	3520.46
187.20	3315.66
187.42	2914.26
187.64	2805.72
187.86	3411.92
188.08	3510.22
188.30	2717.65
188.52	2881.49
188.75	3555.27
188.97	3428.30
189.19	2856.92
189.41	2799.57
189.63	3420.11
189.85	3198.93
190.07	2775.00
190.29	2697.17
190.51	3420.11
190.73	3084.24
190.95	3039.19
191.17	2912.21
191.39	2965.46
191.61	3166.16
191.84	2885.59
192.06	3057.62
192.28	2934.74
192.50	4032.45
192.72	3026.90
192.94	3026.90
193.16	3487.69
193.38	3381.20
193.60	2772.95
193.82	3061.71
194.04	3555.27
194.26	3401.68
194.48	2881.49
194.70	2885.59
194.92	3125.20
195.14	3477.45
195.36	2775.00
195.58	2959.31
195.80	3241.93
196.02	3172.30
196.24	2807.77
196.46	2936.79
196.69	3196.88
196.91	3727.30
197.13	2879.44
197.35	2854.87
197.57	3598.28
197.79	3317.71
198.01	2891.73
198.23	2951.12
198.45	3403.72
198.67	3078.10
198.89	2703.32
199.11	2975.70
199.33	3000.27
199.55	2789.33
199.77	2832.34
199.99	3078.10
200.21	3190.74
200.43	3377.10
200.65	2775.00
200.87	2754.52
201.09	3321.81
201.31	3286.99
201.53	2813.91
201.75	2955.22
201.97	3323.85
202.19	3262.41
202.41	2899.92
202.63	3043.28
202.85	3426.25
203.07	3418.06
203.29	2942.93
203.51	2832.34
203.73	3112.91
203.95	3866.56
204.17	2871.25
204.39	3088.34
204.61	3264.46
204.83	3278.80
205.05	3016.66
205.27	2967.51
205.49	3655.62
205.71	3274.70
205.93	2734.04
206.15	2775.00
206.37	3272.65
206.59	3237.84
206.81	2682.84
207.03	2727.89
207.25	3037.14
207.47	3440.59
207.69	2789.33
207.91	3090.38
208.13	3672.01
208.34	3180.50
208.56	2951.12
208.78	2942.93
209.00	3147.73
209.22	3260.37
209.44	2846.68
209.66	2832.34
209.88	3327.95
210.10	3207.12
210.32	2934.74
210.54	2928.60
210.76	3246.03
210.98	3542.99
211.20	2781.14
211.42	2969.55
211.64	3553.23
211.86	3426.25
212.08	2887.64
212.30	2897.88
212.52	3227.60
212.74	3434.44
212.96	2908.12
213.17	2852.82
213.39	3450.83
213.61	3571.66
213.83	2754.52
214.05	2781.14
214.27	3456.97
214.49	3067.86
214.71	2840.53
214.93	3043.28
215.15	3303.37
215.37	3495.88
215.59	2754.52
215.81	2959.31
216.03	3571.66
216.24	3291.09
216.46	2836.44
216.68	2893.78
216.90	3461.07
217.12	3461.07
217.34	2865.11
217.56	3018.71
217.78	3618.76
218.00	3416.01
218.22	2971.60
218.44	3024.85
218.66	3246.03
218.87	3594.19
219.09	2871.25
219.31	2869.20
219.53	3350.48
219.75	3209.17
219.97	2963.41
220.19	2938.84
220.41	3219.41
220.63	3624.90
220.85	2873.30
221.06	2908.12
221.28	3540.94
221.50	3409.87
221.72	2840.53
221.94	2756.57
222.16	3286.99
222.38	3504.07
222.60	2836.44
222.82	2832.34
223.03	3497.93
223.25	3051.47
223.47	2801.62
223.69	3035.09
223.91	3430.35
224.13	3327.95
224.35	2684.89
224.57	3096.53
224.78	3526.60
225.00	3080.14
225.22	2951.12
225.44	2828.24
225.66	3444.68
225.88	3164.11
226.10	3010.51
226.32	2869.20
226.53	3590.09
226.75	3213.26
226.97	2904.02
227.19	2832.34
227.41	3155.92
227.63	3198.93
227.85	2791.38
228.06	2926.55
228.28	3321.81
228.50	3520.46
228.72	2684.89
228.94	2797.53
229.16	2932.69
229.37	3043.28
229.59	2777.05
229.81	3114.96
230.03	3151.82
230.25	2981.84
230.47	2713.56
230.69	2848.72
230.90	3504.07
231.12	3139.54
231.34	2977.75
231.56	3004.37
231.78	3051.47
232.00	3317.71
232.21	2973.65
232.43	2897.88
232.65	2848.72
232.87	3330.00
233.09	2742.23
233.30	2852.82
233.52	3540.94
233.74	3248.08
233.96	2844.63
234.18	3051.47
234.40	3270.61
234.61	3762.12
234.83	2775.00
235.05	2830.29
235.27	3805.13
235.49	3499.98
235.70	2686.94
235.92	2885.59
236.14	3391.44
236.36	3831.75
236.58	2744.28
236.79	2949.08
237.01	3274.70
237.23	3254.22
237.45	3074.00
237.67	2885.59
237.88	3370.96
238.10	3667.91
238.32	2858.96
238.54	2815.96
238.76	3241.93
238.97	3092.43
239.19	2758.61
239.41	2926.55
239.63	3487.69
239.85	3133.39
240.06	2889.68
240.28	2740.18
240.50	3542.99
240.72	3190.74
240.93	2785.24
241.15	2992.08
241.37	3301.33
241.59	3622.86
241.81	2856.92
242.02	2930.64
242.24	3280.85
242.46	3405.77
242.68	2740.18
242.89	2838.48
243.11	3465.16
243.33	3262.41
243.55	2869.20
243.76	2838.48
243.98	3176.40
244.20	3239.89
244.42	2811.86
244.64	2787.29
244.85	3002.32
245.07	3082.19
245.29	2719.70
245.51	2863.06
245.72	3309.52
245.94	3520.46
246.16	2844.63
246.38	2877.40
246.59	3121.10
246.81	3137.49
247.03	2779.09
247.24	2705.37
247.46	3262.41
247.68	3307.47
247.90	2705.37
248.11	2865.11
248.33	3413.96
248.55	3219.41
248.77	2922.45
248.98	2990.03
249.20	3610.57
249.42	3352.52
249.64	2789.33
249.85	2832.34
250.07	3225.55
250.29	3336.14
250.50	2918.36
250.72	2764.76
250.94	3403.72
251.16	3809.22
251.37	2895.83
251.59	2977.75
251.81	3403.72
252.02	3643.34
252.24	2758.61
252.46	3061.71
252.68	3119.06
252.89	3133.39
253.11	2701.27
253.33	3078.10
253.54	3551.18
253.76	3092.43
253.98	2854.87
254.20	2832.34
254.41	2967.51
254.63	3200.98
254.85	2775.00
255.06	2975.70
255.28	3377.10
255.50	3229.65
255.71	2781.14
255.93	2645.98
256.15	3274.70
256.36	3434.44
256.58	2750.42
256.80	2799.57
257.02	3241.93
257.23	3207.12
257.45	2850.77
257.67	2971.60
257.88	3172.30
258.10	3342.28
258.32	2793.43
258.53	2967.51
258.75	3522.51
258.97	3063.76
259.18	2805.72
259.40	2854.87
259.62	3667.91
259.83	3624.90
260.05	2926.55
260.27	3774.41
260.48	3493.83
260.70	3057.62
260.92	2731.99
261.13	2951.12
261.35	3354.57
261.57	3383.24
261.78	2746.33
262.00	2762.71
262.22	3352.52
262.43	3098.58
262.65	2879.44
262.86	2992.08
263.08	3819.46
263.30	3297.23
263.51	2688.98
263.73	2811.86
263.95	3672.01
264.16	2996.18
264.38	2656.22
264.60	2826.20
264.81	3252.17
265.03	3510.22
265.25	3231.69
265.46	2760.66
265.68	3493.83
265.89	3360.72
266.11	2760.66
266.33	2824.15
266.54	3467.21
266.76	3428.30
266.98	2934.74
267.19	3082.19
267.41	3487.69
267.62	3190.74
267.84	2734.04
268.06	2979.79
268.27	3323.85
268.49	3438.54
268.70	2912.21
268.92	2840.53
269.14	3069.91
269.35	2979.79
269.57	2996.18
269.79	2963.41
270.00	3198.93
270.22	3577.80
270.43	2758.61
270.65	2740.18
270.87	3397.58
271.08	3524.55
271.30	2895.83
271.51	2875.35
271.73	3461.07
271.95	3567.56
272.16	2822.10
272.38	2985.94
272.59	3237.84
272.81	3393.48
273.02	2820.05
273.24	2852.82
273.46	3528.65
273.67	3014.61
273.89	2686.94
274.10	2820.05
274.32	3528.65
274.54	3336.14
274.75	2934.74
274.97	2899.92
275.18	3381.20
275.40	3409.87
275.61	2928.60
275.83	3041.23
276.05	3004.37
276.26	3270.61
276.48	2908.12
276.69	2975.70
276.91	3172.30
277.12	3561.42
277.34	2998.23
277.55	3061.71
277.77	3254.22
277.99	3221.45
278.20	3020.75
278.42	2959.31
278.63	3123.15
278.85	3098.58
279.06	2910.16
279.28	2996.18
279.49	3448.78
279.71	3383.24
279.93	2998.23
280.14	3057.62
280.36	3211.22
280.57	3442.64
280.79	3020.75
281.00	2856.92
281.22	3123.15
281.43	3573.71
281.65	2797.53
281.86	2916.31
282.08	3409.87
282.29	3741.64
282.51	2889.68
282.73	3008.47
282.94	2992.08
283.16	3442.64
283.37	3092.43
283.59	2953.17
283.80	3401.68
284.02	3184.59
284.23	3069.91
284.45	3080.14
284.66	3094.48
284.88	3104.72
285.09	2904.02
285.31	3059.67
285.52	3336.14
285.74	2998.23
285.95	3211.22
286.17	3043.28
286.38	3516.36
286.60	3188.69
286.81	2944.98
287.03	2930.64
287.24	3205.07
287.46	3381.20
287.67	3123.15
287.89	3205.07
288.10	3219.41
288.32	3282.89
288.53	3200.98
288.75	3049.43
288.96	3391.44
289.18	3098.58
289.39	2887.64
289.61	3096.53
289.82	3762.12
290.04	3676.10
290.25	2850.77
290.47	3094.48
290.68	3297.23
290.90	3469.26
291.11	2736.09
291.33	3194.83
291.54	3098.58
291.76	3200.98
291.97	3172.30
292.18	3065.81
292.40	3200.98
292.61	3215.31
292.83	3272.65
293.04	3041.23
293.26	3252.17
293.47	3190.74
293.69	2918.36
293.90	2967.51
294.12	3493.83
294.33	3250.13
294.55	3028.95
294.76	3196.88
294.97	3606.47
295.19	3588.04
295.40	2916.31
295.62	3045.33
295.83	3467.21
296.05	3141.58
296.26	3209.17
296.48	2947.03
296.69	3276.75
296.90	3323.85
297.12	3082.19
297.33	3141.58
297.55	3211.22
297.76	3385.29
297.98	3082.19
298.19	3211.22
298.41	3239.89
298.62	3135.44
298.83	3213.26
299.05	3127.25
299.26	3295.18
299.48	3080.14
299.69	3117.01
299.90	2996.18
300.12	3106.77
300.33	3418.06
300.55	3061.71
300.76	3065.81
300.98	3147.73
301.19	3373.00
301.40	2977.75
301.62	2987.99
301.83	3413.96
302.05	3307.47
302.26	2971.60
302.47	2961.36
302.69	3121.10
302.90	3270.61
303.12	2824.15
303.33	3139.54
303.54	3596.23
303.76	3176.40
303.97	2904.02
304.19	3166.16
304.40	3106.77
304.61	3401.68
304.83	3125.20
305.04	3045.33
305.26	3553.23
305.47	3196.88
305.68	2983.89
305.90	2879.44
306.11	3567.56
306.33	3295.18
306.54	2807.77
306.75	2949.08
306.97	2957.27
307.18	3016.66
307.39	2961.36
307.61	3061.71
307.82	3192.78
308.04	3334.09
308.25	2914.26
308.46	3250.13
308.68	3297.23
308.89	3162.06
309.10	3043.28
309.32	3008.47
309.53	3319.76
309.74	3424.20
309.96	2951.12
310.17	3063.76
310.39	3190.74
310.60	3385.29
310.81	3037.14
311.03	2904.02
311.24	3477.45
311.45	3336.14
311.67	3260.37
311.88	3127.25
312.09	3055.57
312.31	3106.77
312.52	2889.68
312.73	2953.17
312.95	3002.32
313.16	3127.25
313.37	3139.54
313.59	3164.11
313.80	3459.02
314.01	3581.90
314.23	3063.76
314.44	2914.26
314.65	3016.66
314.87	3155.92
315.08	3024.85
315.29	3014.61
315.51	3088.34
315.72	2928.60
315.93	3102.67
316.15	3084.24
316.36	3100.62
316.57	3256.27
316.79	3012.56
317.00	2912.21
317.21	3413.96
317.43	3071.95
317.64	3014.61
317.85	2983.89
318.07	3127.25
318.28	3213.26
318.49	3004.37
318.70	3297.23
318.92	3291.09
319.13	3299.28
319.34	3241.93
319.56	2942.93
319.77	3350.48
319.98	3452.88
320.20	3237.84
320.41	3143.63
320.62	3528.65
320.83	3024.85
321.05	3270.61
321.26	3074.00
321.47	3311.57
321.69	3436.49
321.90	2899.92
322.11	2953.17
322.32	3305.42
322.54	3524.55
322.75	3059.67
322.96	4016.07
323.18	2934.74
323.39	2920.40
323.60	2828.24
323.81	3151.82
324.03	3129.30
324.24	3237.84
324.45	3074.00
324.66	2885.59
324.88	3493.83
325.09	3590.09
325.30	2967.51
325.52	2977.75
325.73	3426.25
325.94	3114.96
326.15	2865.11
326.37	2840.53
326.58	3407.82
326.79	3565.51
327.00	2932.69
327.22	2973.65
327.43	3207.12
327.64	3166.16
327.85	3207.12
328.07	3084.24
328.28	3737.54
328.49	3157.97
328.70	3028.95
328.92	2977.75
329.13	3196.88
329.34	3305.42
329.55	3196.88
329.76	3198.93
329.98	3196.88
330.19	3485.64
330.40	3137.49
330.61	3166.16
330.83	3383.24
331.04	3131.34
331.25	3051.47
331.46	3000.27
331.68	3053.52
331.89	3475.40
332.10	3020.75
332.31	2947.03
332.52	3205.07
332.74	3489.74
332.95	2824.15
333.16	3059.67
333.37	3450.83
333.58	3157.97
333.80	3047.38
334.01	2789.33
334.22	3276.75
334.43	3205.07
334.64	2895.83
334.86	2887.64
335.07	3053.52
335.28	3569.61
335.49	2951.12
335.70	3108.82
335.92	3567.56
336.13	3704.78
336.34	3102.67
336.55	2942.93
336.76	3313.61
336.98	2924.50
337.19	3057.62
337.40	3004.37
337.61	3766.21
337.82	3243.98
338.04	3098.58
338.25	2826.20
338.46	3219.41
338.67	3237.84
338.88	2832.34
339.09	2918.36
339.31	3252.17
339.52	3131.34
339.73	2910.16
339.94	3026.90
340.15	3450.83
340.36	3143.63
340.58	3071.95
340.79	2918.36
341.00	3432.40
341.21	2983.89
341.42	3325.90
341.63	3037.14
341.85	3467.21
342.06	3330.00
342.27	2947.03
342.48	3076.05
342.69	2959.31
342.90	3348.43
343.12	3405.77
343.33	2965.46
343.54	3452.88
343.75	3545.03
343.96	3082.19
344.17	2844.63
344.38	3233.74
344.60	3104.72
344.81	2965.46
345.02	3002.32
345.23	3475.40
345.44	3844.04
345.65	3039.19
345.86	3117.01
346.07	3377.10
346.29	3213.26
346.50	3086.29
346.71	3000.27
346.92	3594.19
347.13	3770.31
347.34	3119.06
347.55	2887.64
347.76	3434.44
347.98	3067.86
348.19	3078.10
348.40	3153.87
348.61	3229.65
348.82	3594.19
349.03	3045.33
349.24	2912.21
349.45	3704.78
349.66	2926.55
349.88	3010.51
350.09	2897.88
350.30	3532.75
350.51	3495.88
350.72	3157.97
350.93	2936.79
351.14	3225.55
351.35	3362.76
351.56	3014.61
351.77	3026.90
351.99	3340.24
352.20	3602.38
352.41	3112.91
352.62	2873.30
352.83	3311.57
353.04	3190.74
353.25	3008.47
353.46	3020.75
353.67	3514.31
353.88	2893.78
354.09	2869.20
354.30	3057.62
354.52	3459.02
354.73	3241.93
354.94	3043.28
355.15	3041.23
355.36	3655.62
355.57	3033.04
355.78	2879.44
355.99	2969.55
356.20	3313.61
356.41	3467.21
356.62	2961.36
356.83	3090.38
357.04	3540.94
357.25	2961.36
357.46	3020.75
357.68	2844.63
357.89	3090.38
358.10	3313.61
358.31	3002.32
358.52	2992.08
358.73	3061.71
358.94	3082.19
359.15	3020.75
359.36	3063.76
359.57	3307.47
359.78	3184.59
359.99	3264.46
360.20	2869.20
360.41	3336.14
360.62	3467.21
360.83	3078.10
361.04	2955.22
361.25	3327.95
361.46	3614.66
361.67	3024.85
361.88	3030.99
362.09	3542.99
362.30	3348.43
362.51	2942.93
362.72	3033.04
362.93	3389.39
363.14	3379.15
363.35	3123.15
363.56	2934.74
363.78	3526.60
363.99	3547.08
364.20	3004.37
364.41	3110.86
364.62	3665.86
364.83	3356.62
365.04	2987.99
365.25	3092.43
365.46	3616.71
365.67	3141.58
365.88	3170.26
366.09	2971.60
366.30	3174.35
366.51	3256.27
366.72	3024.85
366.93	2930.64
367.14	3317.71
367.35	3506.12
367.56	2901.97
367.77	3135.44
367.98	3375.05
368.18	3364.81
368.39	3239.89
368.60	2951.12
368.81	3426.25
369.02	3405.77
369.23	2985.94
369.44	2871.25
369.65	3149.78
369.86	3461.07
370.07	3090.38
370.28	2936.79
370.49	3323.85
370.70	3356.62
370.91	2938.84
371.12	2883.54
371.33	3471.31
371.54	3172.30
371.75	3117.01
371.96	2734.04
372.17	3293.13
372.38	3227.60
372.59	3047.38
372.80	2926.55
373.01	3356.62
373.22	3286.99
373.43	3000.27
373.64	2807.77
373.85	3577.80
374.06	3549.13
374.26	3190.74
374.47	3160.02
374.68	3540.94
374.89	3352.52
375.10	2959.31
375.31	3028.95
375.52	3286.99
375.73	3325.90
375.94	2908.12
376.15	3096.53
376.36	3098.58
376.57	3176.40
376.78	2977.75
376.99	3125.20
377.20	3516.36
377.40	3190.74
377.61	3311.57
377.82	3000.27
378.03	3565.51
378.24	3395.53
378.45	3106.77
378.66	3071.95
378.87	2971.60
379.08	3006.42
379.29	3010.51
379.50	3147.73
379.71	3213.26
379.91	3346.38
380.12	3090.38
380.33	3121.10
380.54	3239.89
380.75	3203.02
380.96	3012.56
381.17	3000.27
381.38	3217.36
381.59	3203.02
381.80	3108.82
382.00	3182.54
382.21	3284.94
382.42	3532.75
382.63	3325.90
382.84	3190.74
383.05	3436.49
383.26	3549.13
383.47	3227.60
383.68	3006.42
383.88	3368.91
384.09	3301.33
384.30	3229.65
384.51	3121.10
384.72	3131.34
384.93	2996.18
385.14	3127.25
385.35	3364.81
385.55	3086.29
385.76	3551.18
385.97	3082.19
386.18	2889.68
386.39	3141.58
386.60	3149.78
386.81	2971.60
387.02	2916.31
387.22	3125.20
387.43	3401.68
387.64	3106.77
387.85	3334.09
388.06	3342.28
388.27	4231.10
388.48	7872.39
388.68	11992.90
388.89	15169.30
389.10	16443.14
389.31	16113.42
389.52	12910.40
389.73	11269.97
389.93	10325.86
390.14	9021.30
390.35	8699.77
390.56	7878.54
390.77	6694.81
390.98	4968.37
391.18	4093.89
391.39	3887.04
391.60	3338.19
391.81	3272.65
392.02	3071.95
392.23	3749.83
392.43	3327.95
392.64	3139.54
392.85	3106.77
393.06	3577.80
393.27	3225.55
393.47	2971.60
393.68	3104.72
393.89	3250.13
394.10	3532.75
394.31	3043.28
394.52	2949.08
394.72	3106.77
394.93	3565.51
395.14	2973.65
395.35	3178.45
395.56	3069.91
395.76	3229.65
395.97	3024.85
396.18	3209.17
396.39	3282.89
396.60	3928.00
396.80	3383.24
397.01	3270.61
397.22	3409.87
397.43	3432.40
397.64	3024.85
397.84	3119.06
398.05	3727.30
398.26	3186.64
398.47	3174.35
398.67	3280.85
398.88	3286.99
399.09	3411.92
399.30	3022.80
399.51	3092.43
399.71	3125.20
399.92	3217.36
400.13	3110.86
400.34	3061.71
400.54	3276.75
400.75	3629.00
400.96	3172.30
401.17	3373.00
401.37	3432.40
401.58	3231.69
401.79	3028.95
402.00	3205.07
402.21	3827.65
402.41	3495.88
402.62	3342.28
402.83	3407.82
403.04	3667.91
403.24	4026.31
403.45	3139.54
403.66	3297.23
403.87	3389.39
404.07	3575.75
404.28	3276.75
404.49	3395.53
404.70	3336.14
404.90	3559.37
405.11	3026.90
405.32	3123.15
405.52	3108.82
405.73	3225.55
405.94	2942.93
406.15	3117.01
406.35	3428.30
406.56	3475.40
406.77	3080.14
406.98	3082.19
407.18	3110.86
407.39	3573.71
407.60	3053.52
407.80	3211.22
408.01	3180.50
408.22	3377.10
408.43	2904.02
408.63	3172.30
408.84	3452.88
409.05	3497.93
409.25	2975.70
409.46	3071.95
409.67	3200.98
409.88	3131.34
410.08	3112.91
410.29	2977.75
410.50	3493.83
410.70	3407.82
410.91	2990.03
411.12	3030.99
411.32	3364.81
411.53	3151.82
411.74	3039.19
411.95	3203.02
412.15	3246.03
412.36	3491.79
412.57	3196.88
412.77	3198.93
412.98	3250.13
413.19	3178.45
413.39	3137.49
413.60	3094.48
413.81	3557.32
414.01	3055.57
414.22	2973.65
414.43	3217.36
414.63	3176.40
414.84	3487.69
415.05	3100.62
415.25	2877.40
415.46	3434.44
415.67	3139.54
415.87	3026.90
416.08	3092.43
416.29	3270.61
416.49	3438.54
416.70	3104.72
416.91	3010.51
417.11	3190.74
417.32	3565.51
417.53	3170.26
417.73	3106.77
417.94	3256.27
418.15	3299.28
418.35	3139.54
418.56	3121.10
418.77	3706.82
418.97	3346.38
419.18	3155.92
419.38	2775.00
419.59	3184.59
419.80	3502.03
420.00	2963.41
420.21	3049.43
420.42	3545.03
420.62	3356.62
420.83	3035.09
421.04	3086.29
421.24	3270.61
421.45	3450.83
421.65	3035.09
421.86	3004.37
422.07	3483.59
422.27	3358.67
422.48	2994.13
422.69	2869.20
422.89	3330.00
423.10	3198.93
423.30	2953.17
423.51	3049.43
423.72	3340.24
423.92	3405.77
424.13	3008.47
424.33	3112.91
424.54	3450.83
424.75	3317.71
424.95	3239.89
425.16	2985.94
425.36	3254.22
425.57	3532.75
425.78	3272.65
425.98	3127.25
426.19	3307.47
426.39	3047.38
426.60	3133.39
426.81	3213.26
427.01	3321.81
427.22	3059.67
427.42	2820.05
427.63	2971.60
427.83	3446.73
428.04	3688.39
428.25	3155.92
428.45	3137.49
428.66	3487.69
428.86	3225.55
429.07	3018.71
429.28	3114.96
429.48	3231.69
429.69	3102.67
429.89	3149.78
430.10	2975.70
430.30	3428.30
430.51	3536.84
430.71	3000.27
430.92	3110.86
431.13	3215.31
431.33	3411.92
431.54	3170.26
431.74	3274.70
431.95	3749.83
432.15	3106.77
432.36	3026.90
432.56	3047.38
432.77	3719.11
432.98	3770.31
433.18	3125.20
433.39	2963.41
433.59	3262.41
433.80	3770.31
434.00	3160.02
434.21	3119.06
434.41	3125.20
434.62	3819.46
434.82	3035.09
435.03	2920.40
435.23	3381.20
435.44	2992.08
435.64	3053.52
435.85	3108.82
436.06	3495.88
436.26	3485.64
436.47	3069.91
436.67	3035.09
436.88	3243.98
437.08	3432.40
437.29	3219.41
437.49	3166.16
437.70	3581.90
437.90	3284.94
438.11	3243.98
438.31	3172.30
438.52	3571.66
438.72	3393.48
438.93	3467.21
439.13	3063.76
439.34	3499.98
439.54	3164.11
439.75	3227.60
439.95	3145.68
440.16	3133.39
440.36	3276.75
440.57	3041.23
440.77	3065.81
440.98	3209.17
441.18	3282.89
441.39	2901.97
441.59	2985.94
441.80	3674.06
442.00	3248.08
442.21	3198.93
442.41	2926.55
442.62	3565.51
442.82	3174.35
443.02	3022.80
443.23	3168.21
443.43	3241.93
443.64	3542.99
443.84	2889.68
444.05	3119.06
444.25	3301.33
444.46	3182.54
444.66	3030.99
444.87	3254.22
445.07	3041.23
445.28	3133.39
445.48	3186.64
445.69	3137.49
445.89	3749.83
446.09	3145.68
446.30	3389.39
446.50	3450.83
446.71	5011.38
446.91	6352.80
447.12	7182.23
447.32	7683.98
447.53	7587.72
447.73	6473.63
447.93	5453.74
448.14	5257.14
448.34	5455.79
448.55	4583.35
448.75	4470.72
448.96	4222.91
449.16	4067.27
449.36	3999.68
449.57	3340.24
449.77	3176.40
449.98	3164.11
450.18	3436.49
450.39	2969.55
450.59	3221.45
450.79	3340.24
451.00	3119.06
451.20	3260.37
451.41	3078.10
451.61	3303.37
451.81	3217.36
452.02	3000.27
452.22	3067.86
452.43	3190.74
452.63	3114.96
452.84	3104.72
453.04	3039.19
453.24	3397.58
453.45	3082.19
453.65	3117.01
453.86	3067.86
454.06	3325.90
454.26	3323.85
454.47	3008.47
454.67	3289.04
454.87	3311.57
455.08	3188.69
455.28	3256.27
455.49	3241.93
455.69	3045.33
455.89	3690.44
456.10	3182.54
456.30	2977.75
456.51	3448.78
456.71	3205.07
456.91	3192.78
457.12	3057.62
457.32	3391.44
457.52	3104.72
457.73	3205.07
457.93	3217.36
458.14	3174.35
458.34	2990.03
458.54	3024.85
458.75	2996.18
458.95	3528.65
459.15	3416.01
459.36	3192.78
459.56	2994.13
459.76	3805.13
459.97	3286.99
460.17	3092.43
460.37	3139.54
460.58	3299.28
460.78	3416.01
460.99	3043.28
461.19	2998.23
461.39	3117.01
461.60	3233.74
461.80	3110.86
462.00	3024.85
462.21	3172.30
462.41	3074.00
462.61	2891.73
462.82	2838.48
463.02	3309.52
463.22	3219.41
463.43	3047.38
463.63	3016.66
463.83	3651.53
464.04	3319.76
464.24	3078.10
464.44	2987.99
464.64	3305.42
464.85	3434.44
465.05	3106.77
465.25	2983.89
465.46	3182.54
465.66	3454.92
465.86	3117.01
466.07	2912.21
466.27	3293.13
466.47	2942.93
466.68	2844.63
466.88	3188.69
467.08	3389.39
467.29	3497.93
467.49	3074.00
467.69	3207.12
467.89	3344.33
468.10	3190.74
468.30	3125.20
468.50	3139.54
468.71	3452.88
468.91	2951.12
469.11	3221.45
469.31	3067.86
469.52	3098.58
469.72	3649.48
469.92	3332.05
470.13	3018.71
470.33	3291.09
470.53	3364.81
470.73	3520.46
470.94	3827.65
471.14	4229.06
471.34	4724.66
471.54	4339.65
471.75	4079.55
471.95	3809.22
472.15	3827.65
472.36	3717.06
472.56	3520.46
472.76	3885.00
472.96	3737.54
473.17	3338.19
473.37	3284.94
473.57	3295.18
473.77	3379.15
473.98	3203.02
474.18	2918.36
474.38	4052.93
474.58	3231.69
474.79	2965.46
474.99	3219.41
475.19	3491.79
475.39	3076.05
475.60	3172.30
475.80	3002.32
476.00	3307.47
476.20	3188.69
476.41	3166.16
476.61	3172.30
476.81	3594.19
477.01	3000.27
477.21	3278.80
477.42	3196.88
477.62	3157.97
477.82	3459.02
478.02	2961.36
478.23	3123.15
478.43	3227.60
478.63	3229.65
478.83	3061.71
479.03	3106.77
479.24	3610.57
479.44	3622.86
479.64	3051.47
479.84	2906.07
480.04	3137.49
480.25	3475.40
480.45	2944.98
480.65	3043.28
480.85	3532.75
481.06	3135.44
481.26	3125.20
481.46	3104.72
481.66	3393.48
481.86	3176.40
482.06	3200.98
482.27	3125.20
482.47	3059.67
482.67	3356.62
482.87	3035.09
483.07	3104.72
483.28	3207.12
483.48	3102.67
483.68	3157.97
483.88	2889.68
484.08	2887.64
484.29	3000.27
484.49	3078.10
484.69	2861.01
484.89	3624.90
485.09	3545.03
485.29	3045.33
485.50	3256.27
485.70	3207.12
485.90	3483.59
486.10	3248.08
486.30	3061.71
486.50	3569.61
486.71	3344.33
486.91	3102.67
487.11	3135.44
487.31	2990.03
487.51	3428.30
487.71	3033.04
487.91	3039.19
488.12	3123.15
488.32	2850.77
488.52	3026.90
488.72	2852.82
488.92	3319.76
489.12	3549.13
489.32	3133.39
489.53	3026.90
489.73	3014.61
489.93	3590.09
490.13	3071.95
490.33	2893.78
490.53	3209.17
490.73	3467.21
490.94	2889.68
491.14	3157.97
491.34	3391.44
491.54	3364.81
491.74	3977.16
491.94	4519.87
492.14	5033.91
492.34	5195.70
492.54	4757.43
492.75	4159.42
492.95	4483.00
493.15	3958.72
493.35	3835.85
493.55	3749.83
493.75	3715.02
493.95	3819.46
494.15	3332.05
494.35	3205.07
494.56	3198.93
494.76	3133.39
494.96	3270.61
495.16	3024.85
495.36	3291.09
495.56	3268.56
495.76	3092.43
495.96	3098.58
496.16	3221.45
496.36	3618.76
496.56	3092.43
496.77	3053.52
496.97	3334.09
497.17	3569.61
497.37	2830.29
497.57	3125.20
497.77	3311.57
497.97	3037.14
498.17	3117.01
498.37	3074.00
498.57	3381.20
498.77	3190.74
498.97	3235.79
499.17	3432.40
499.38	3246.03
499.58	3403.72
499.78	3239.89
499.98	3198.93
500.18	3200.98
500.38	3123.15
500.58	3252.17
500.78	3600.33
500.98	6027.17
501.18	8241.03
501.38	9713.52
501.58	10815.32
501.78	10909.53
501.98	8902.52
502.18	7524.24
502.38	6444.96
502.58	6406.05
502.78	5685.16
502.98	5414.83
503.18	5121.97
503.38	4908.98
503.59	4210.62
503.79	4032.45
503.99	3772.36
504.19	3889.09
504.39	3909.57
504.59	3620.81
504.79	3461.07
504.99	3958.72
505.19	3608.52
505.39	3377.10
505.59	3602.38
505.79	3672.01
505.99	3495.88
506.19	3180.50
506.39	3422.16
506.59	3254.22
506.79	3227.60
506.99	3291.09
507.19	3033.04
507.39	3393.48
507.59	2975.70
507.79	3090.38
507.99	2959.31
508.19	3241.93
508.39	3205.07
508.59	3100.62
508.79	3129.30
508.99	3639.24
509.19	3108.82
509.39	3143.63
509.59	2949.08
509.79	3160.02
509.99	3311.57
510.19	3231.69
510.39	3190.74
510.59	3321.81
510.79	3123.15
510.99	2895.83
511.19	3055.57
511.39	3604.42
511.59	3467.21
511.79	3205.07
511.99	3065.81
512.19	3655.62
512.38	3317.71
512.58	3018.71
512.78	2961.36
512.98	3561.42
513.18	3610.57
513.38	2975.70
513.58	3180.50
513.78	3315.66
513.98	3164.11
514.18	3043.28
514.38	3076.05
514.58	3309.52
514.78	3076.05
514.98	2994.13
515.18	3069.91
515.38	2959.31
515.58	3712.97
515.78	3065.81
515.98	2987.99
516.18	3403.72
516.38	3233.74
516.57	2990.03
516.77	2998.23
516.97	3442.64
517.17	3090.38
517.37	2897.88
517.57	3051.47
517.77	3266.51
517.97	3084.24
518.17	3155.92
518.37	2959.31
518.57	3180.50
518.77	3192.78
518.97	3088.34
519.16	3129.30
519.36	3520.46
519.56	3086.29
519.76	3035.09
519.96	3016.66
520.16	3590.09
520.36	3057.62
520.56	3172.30
520.76	2959.31
520.96	3219.41
521.16	3483.59
521.35	3258.32
521.55	3104.72
521.75	3315.66
521.95	3182.54
522.15	3033.04
522.35	2930.64
522.55	3127.25
522.75	3373.00
522.95	2914.26
523.14	2818.00
523.34	3264.46
523.54	3164.11
523.74	3227.60
523.94	3090.38
524.14	2959.31
524.34	3338.19
524.54	3239.89
524.73	3119.06
524.93	3422.16
525.13	3305.42
525.33	2865.11
525.53	3278.80
525.73	3426.25
525.93	3282.89
526.13	3055.57
526.32	2992.08
526.52	3450.83
526.72	3475.40
526.92	3065.81
527.12	3059.67
527.32	2996.18
527.52	3360.72
527.71	3039.19
527.91	3100.62
528.11	3157.97
528.31	3311.57
528.51	3026.90
528.71	3164.11
528.90	3360.72
529.10	3434.44
529.30	3178.45
529.50	2838.48
529.70	3356.62
529.90	3123.15
530.09	3047.38
530.29	2922.45
530.49	3198.93
530.69	3829.70
530.89	3233.74
531.09	3221.45
531.28	3192.78
531.48	3528.65
531.68	2990.03
531.88	3119.06
532.08	3428.30
532.28	3205.07
532.47	3133.39
532.67	3215.31
532.87	3422.16
533.07	3127.25
533.27	3014.61
533.46	3155.92
533.66	3377.10
533.86	3198.93
534.06	3192.78
534.26	3088.34
534.45	3219.41
534.65	3467.21
534.85	3225.55
535.05	2951.12
535.25	3430.35
535.44	2887.64
535.64	3213.26
535.84	3133.39
536.04	3160.02
536.24	3065.81
536.43	3053.52
536.63	3084.24
536.83	3221.45
537.03	3198.93
537.22	2846.68
537.42	2908.12
537.62	3344.33
537.82	3106.77
538.02	3260.37
538.21	3237.84
538.41	3803.08
538.61	3379.15
538.81	3147.73
539.00	3196.88
539.20	2977.75
539.40	3217.36
539.60	3016.66
539.79	3334.09
539.99	3237.84
540.19	3076.05
540.39	3020.75
540.58	3131.34
540.78	3524.55
540.98	3231.69
541.18	3377.10
541.37	3100.62
541.57	3289.04
541.77	3354.57
541.97	3057.62
542.16	2832.34
542.36	3243.98
542.56	3117.01
542.76	3151.82
542.95	3160.02
543.15	3362.76
543.35	3477.45
543.54	3006.42
543.74	2985.94
543.94	3467.21
544.14	3223.50
544.33	3237.84
544.53	3033.04
544.73	3319.76
544.93	3129.30
545.12	3014.61
545.32	3022.80
545.52	3241.93
545.71	3092.43
545.91	3028.95
546.11	3051.47
546.30	3131.34
546.50	3237.84
546.70	3131.34
546.90	3147.73
547.09	3016.66
547.29	3188.69
547.49	3190.74
547.68	3094.48
547.88	3188.69
548.08	3420.11
548.27	3336.14
548.47	3041.23
548.67	3135.44
548.87	3313.61
549.06	2961.36
549.26	3008.47
549.46	3272.65
549.65	3254.22
549.85	3080.14
550.05	3129.30
550.24	2926.55
550.44	3346.38
550.64	3133.39
550.83	3121.10
551.03	3581.90
551.23	3475.40
551.42	3157.97
551.62	3194.83
551.82	3291.09
552.01	3205.07
552.21	3364.81
552.41	3157.97
552.60	3483.59
552.80	3225.55
553.00	3051.47
553.19	3080.14
553.39	3592.14
553.59	3100.62
553.78	3205.07
553.98	3090.38
554.17	3012.56
554.37	3180.50
554.57	3082.19
554.76	2971.60
554.96	3225.55
555.16	3295.18
555.35	3149.78
555.55	3268.56
555.75	3289.04
555.94	3401.68
556.14	2910.16
556.33	3035.09
556.53	3289.04
556.73	3325.90
556.92	3071.95
557.12	3028.95
557.32	3729.35
557.51	3563.47
557.71	3151.82
557.90	3303.37
558.10	3557.32
558.30	3252.17
558.49	3108.82
558.69	3069.91
558.88	3368.91
559.08	3233.74
559.28	3117.01
559.47	3020.75
559.67	3409.87
559.86	3684.30
560.06	3037.14
560.26	3074.00
560.45	3377.10
560.65	3260.37
560.84	3366.86
561.04	3065.81
561.24	3426.25
561.43	3065.81
561.63	3358.67
561.82	3207.12
562.02	3358.67
562.22	3037.14
562.41	2992.08
562.61	3098.58
562.80	3104.72
563.00	3776.45
563.19	3172.30
563.39	3172.30
563.59	3393.48
563.78	3008.47
563.98	2828.24
564.17	2957.27
564.37	2971.60
564.56	3139.54
564.76	2934.74
564.96	3133.39
565.15	3299.28
565.35	3776.45
565.54	3090.38
565.74	3049.43
565.93	3491.79
566.13	3293.13
566.32	3135.44
566.52	3205.07
566.71	3274.70
566.91	3448.78
567.11	3149.78
567.30	2996.18
567.50	3391.44
567.69	3330.00
567.89	3102.67
568.08	2936.79
568.28	3291.09
568.47	3030.99
568.67	3176.40
568.86	3018.71
569.06	3434.44
569.25	3162.06
569.45	2983.89
569.64	3084.24
569.84	3129.30
570.04	3360.72
570.23	3033.04
570.43	3123.15
570.62	3315.66
570.82	3618.76
571.01	2979.79
571.21	2985.94
571.40	3110.86
571.60	3467.21
571.79	3123.15
571.99	2990.03
572.18	3006.42
572.38	3289.04
572.57	3065.81
572.77	3200.98
572.96	3766.21
573.16	3336.14
573.35	3114.96
573.55	3196.88
573.74	3282.89
573.94	3225.55
574.13	3166.16
574.33	3233.74
574.52	3473.36
574.71	3350.48
574.91	3147.73
575.10	2899.92
575.30	3223.50
575.49	3078.10
575.69	3010.51
575.88	3065.81
576.08	3284.94
576.27	3524.55
576.47	2983.89
576.66	3262.41
576.86	3561.42
577.05	3293.13
577.25	3164.11
577.44	3252.17
577.64	3168.21
577.83	3463.12
578.02	3057.62
578.22	3231.69
578.41	3690.44
578.61	3295.18
578.80	2875.35
579.00	3049.43
579.19	3239.89
579.39	3344.33
579.58	3178.45
579.77	3137.49
579.97	3551.18
580.16	3428.30
580.36	3243.98
580.55	3194.83
580.75	3418.06
580.94	3215.31
581.13	3303.37
581.33	3313.61
581.52	3274.70
581.72	3692.49
581.91	3225.55
582.11	3106.77
582.30	3592.14
582.49	3327.95
582.69	3352.52
582.88	3078.10
583.08	3340.24
583.27	3483.59
583.47	3231.69
583.66	3041.23
583.85	3047.38
584.05	3246.03
584.24	3145.68
584.44	3086.29
584.63	3442.64
584.82	3493.83
585.02	3356.62
585.21	3332.05
585.41	3456.97
585.60	3381.20
585.79	3327.95
585.99	3446.73
586.18	3330.00
586.37	4302.78
586.57	6336.42
586.76	17770.22
586.96	37443.01
587.15	50371.84
587.34	59147.39
587.54	63073.34
587.73	56364.20
587.93	41121.16
588.12	31161.89
588.31	25611.90
588.51	22910.63
588.70	20991.68
588.89	18388.71
589.09	15568.66
589.28	13692.72
589.47	10733.40
589.67	8359.81
589.86	6469.53
590.06	4990.90
590.25	4433.85
590.44	3833.80
590.64	3575.75
590.83	3592.14
591.02	3565.51
591.22	3059.67
591.41	3123.15
591.60	3192.78
591.80	3774.41
591.99	2957.27
592.18	3041.23
592.38	3534.79
592.57	3164.11
592.76	3033.04
592.96	3112.91
593.15	3260.37
593.34	3524.55
593.54	3037.14
593.73	3278.80
593.92	3360.72
594.12	3459.02
594.31	3243.98
594.50	3289.04
594.70	3442.64
594.89	3856.33
595.08	2922.45
595.28	3174.35
595.47	3942.34
595.66	3467.21
595.86	2977.75
596.05	2971.60
596.24	3180.50
596.43	3680.20
596.63	3223.50
596.82	3268.56
597.01	3411.92
597.21	3657.67
597.40	3057.62
597.59	3119.06
597.79	3178.45
597.98	3354.57
598.17	3162.06
598.36	3117.01
598.56	3499.98
598.75	3180.50
598.94	3135.44
599.14	3200.98
599.33	3170.26
599.52	3387.34
599.71	3106.77
599.91	3123.15
600.10	3379.15
600.29	3332.05
600.48	3151.82
600.68	3229.65
600.87	3276.75
601.06	3166.16
601.26	3180.50
601.45	3219.41
601.64	3256.27
601.83	3530.70
602.03	2949.08
602.22	3000.27
602.41	3475.40
602.60	3839.94
602.80	3110.86
602.99	3239.89
603.18	3176.40
603.37	3346.38
603.57	2938.84
603.76	3067.86
603.95	3528.65
604.14	3147.73
604.34	2951.12
604.53	3037.14
604.72	3315.66
604.91	3461.07
605.10	3139.54
605.30	3024.85
605.49	3745.73
605.68	3399.63
605.87	3119.06
606.07	3008.47
606.26	3307.47
606.45	3426.25
606.64	3033.04
606.84	3016.66
607.03	3348.43
607.22	3456.97
607.41	3168.21
607.60	3096.53
607.80	3538.89
607.99	3190.74
608.18	3045.33
608.37	3123.15
608.56	3237.84
608.76	3409.87
608.95	3284.94
609.14	3088.34
609.33	3495.88
609.52	3641.29
609.72	3155.92
609.91	3258.32
610.10	3440.59
610.29	3674.06
610.48	3205.07
610.68	3217.36
610.87	3184.59
611.06	3432.40
611.25	3053.52
611.44	3213.26
611.63	3164.11
611.83	3592.14
612.02	2912.21
612.21	3192.78
612.40	2959.31
612.59	3074.00
612.79	3000.27
612.98	3160.02
613.17	3567.56
613.36	3233.74
613.55	3194.83
613.74	3123.15
613.93	3387.34
614.13	3516.36
614.32	3241.93
614.51	3192.78
614.70	3219.41
614.89	3209.17
615.08	3192.78
615.28	3467.21
615.47	3053.52
615.66	3465.16
615.85	3133.39
616.04	3157.97
616.23	3262.41
616.42	3254.22
616.62	3069.91
616.81	3112.91
617.00	3313.61
617.19	3381.20
617.38	3133.39
617.57	3215.31
617.76	3434.44
617.95	3456.97
618.15	3282.89
618.34	3280.85
618.53	3069.91
618.72	3459.02
618.91	3065.81
619.10	3139.54
619.29	3246.03
619.48	3270.61
619.68	3004.37
619.87	3030.99
620.06	2985.94
620.25	3413.96
620.44	3051.47
620.63	3033.04
620.82	3360.72
621.01	3381.20
621.20	3090.38
621.39	3207.12
621.59	3375.05
621.78	3246.03
621.97	3076.05
622.16	3151.82
622.35	3338.19
622.54	3409.87
622.73	3223.50
622.92	2885.59
623.11	3473.36
623.30	3203.02
623.49	3176.40
623.68	3024.85
623.88	3606.47
624.07	3090.38
624.26	3008.47
624.45	3131.34
624.64	3192.78
624.83	3342.28
625.02	3020.75
625.21	3024.85
625.40	3401.68
625.59	3561.42
625.78	3178.45
625.97	3241.93
626.16	3534.79
626.35	3477.45
626.54	3168.21
626.74	3368.91
626.93	3168.21
627.12	3305.42
627.31	3162.06
627.50	3082.19
627.69	3440.59
627.88	3049.43
628.07	2994.13
628.26	2897.88
628.45	3106.77
628.64	3117.01
628.83	3092.43
629.02	2942.93
629.21	3368.91
629.40	3393.48
629.59	2990.03
629.78	2953.17
629.97	3360.72
630.16	3299.28
630.35	3053.52
630.54	3205.07
630.73	3246.03
630.92	3315.66
631.11	2953.17
631.30	3092.43
631.49	3456.97
631.68	3262.41
631.87	3127.25
632.06	2963.41
632.25	3774.41
632.44	3342.28
632.63	3157.97
632.82	3090.38
633.01	3239.89
633.20	3332.05
633.39	3147.73
633.58	2987.99
633.77	3422.16
633.96	3409.87
634.15	3282.89
634.34	3112.91
634.53	3440.59
634.72	3166.16
634.91	2928.60
635.10	3100.62
635.29	3493.83
635.48	3295.18
635.67	2901.97
635.86	2994.13
636.05	3528.65
636.24	3262.41
636.43	3100.62
636.62	3149.78
636.81	2897.88
637.00	3272.65
637.19	3022.80
637.38	3090.38
637.57	3069.91
637.76	3327.95
637.95	3313.61
638.14	3274.70
638.33	3393.48
638.52	3364.81
638.71	2975.70
638.89	2936.79
639.08	3866.56
639.27	3526.60
639.46	3340.24
639.65	3622.86
639.84	3778.50
640.03	4059.07
640.22	3706.82
640.41	3557.32
640.60	3418.06
640.79	3477.45
640.98	3381.20
641.17	3291.09
641.36	3489.74
641.55	3409.87
641.74	2969.55
641.92	3020.75
642.11	3131.34
642.30	3188.69
642.49	3037.14
642.68	3016.66
642.87	3370.96
643.06	3295.18
643.25	2975.70
643.44	2971.60
643.63	3254.22
643.82	3428.30
644.00	3022.80
644.19	3127.25
644.38	3092.43
644.57	3422.16
644.76	3149.78
644.95	3112.91
645.14	3299.28
645.33	3215.31
645.52	3172.30
645.71	2928.60
645.89	3108.82
646.08	3164.11
646.27	3065.81
646.46	3270.61
646.65	2938.84
646.84	3280.85
647.03	3014.61
647.22	3325.90
647.40	3334.09
647.59	3250.13
647.78	2809.81
647.97	3045.33
648.16	3129.30
648.35	3569.61
648.54	3278.80
648.73	3090.38
648.91	3444.68
649.10	3297.23
649.29	3041.23
649.48	2953.17
649.67	3332.05
649.86	3342.28
650.05	3137.49
650.23	3246.03
650.42	3162.06
650.61	3491.79
650.80	3299.28
650.99	3323.85
651.18	3463.12
651.36	3477.45
651.55	3039.19
651.74	3282.89
651.93	3270.61
652.12	3262.41
652.31	3074.00
652.49	3147.73
652.68	3127.25
652.87	3542.99
653.06	3172.30
653.25	3313.61
653.44	3262.41
653.62	3614.66
653.81	3045.33
654.00	3008.47
654.19	3426.25
654.38	3819.46
654.56	3078.10
654.75	2977.75
654.94	3499.98
655.13	3303.37
655.32	3028.95
655.51	3135.44
655.69	3164.11
655.88	3416.01
656.07	2934.74
656.26	3078.10
656.45	3143.63
656.63	3319.76
656.82	3024.85
657.01	3368.91
657.20	3139.54
657.38	3524.55
657.57	2987.99
657.76	2895.83
657.95	3409.87
658.14	3080.14
658.32	3215.31
658.51	2987.99
658.70	3291.09
658.89	3330.00
659.08	3114.96
659.26	3278.80
659.45	3137.49
659.64	3461.07
659.83	3117.01
660.01	3487.69
660.20	3389.39
660.39	3563.47
660.58	2815.96
660.76	3127.25
660.95	3000.27
661.14	3213.26
661.33	2897.88
661.51	3067.86
661.70	3178.45
661.89	3321.81
662.08	3127.25
662.26	2885.59
662.45	3067.86
662.64	3715.02
662.83	3102.67
663.01	2959.31
663.20	3145.68
663.39	3577.80
663.58	3098.58
663.76	3108.82
663.95	3385.29
664.14	3123.15
664.32	3121.10
664.51	2961.36
664.70	2926.55
664.89	3295.18
665.07	2904.02
665.26	3221.45
665.45	3022.80
665.64	3387.34
665.82	3145.68
666.01	3192.78
666.20	2996.18
666.38	3385.29
666.57	3407.82
666.76	5595.05
666.95	12949.31
667.13	20553.41
667.32	24755.85
667.51	28282.45
667.69	28780.10
667.88	23819.92
668.07	17393.40
668.25	14876.44
668.44	13045.56
668.63	11376.47
668.81	9650.03
669.00	8488.83
669.19	7653.26
669.38	6711.19
669.56	5728.17
669.75	4939.70
669.94	4425.66
670.12	3854.28
670.31	3381.20
670.50	3323.85
670.68	3555.27
670.87	3420.11
671.06	3074.00
671.24	3155.92
671.43	3678.15
671.62	3375.05
671.80	3076.05
671.99	3188.69
672.18	3260.37
672.36	3440.59
672.55	3127.25
672.74	3157.97
672.92	3239.89
673.11	3426.25
673.29	2969.55
673.48	3262.41
673.67	3180.50
673.85	3481.55
674.04	3061.71
674.23	3209.17
674.41	3645.38
674.60	3082.19
674.79	2863.06
674.97	2912.21
675.16	3434.44
675.34	3491.79
675.53	3094.48
675.72	3112.91
675.90	3651.53
676.09	3149.78
676.28	3194.83
676.46	2934.74
676.65	3430.35
676.83	3125.20
677.02	3051.47
677.21	3157.97
677.39	3303.37
677.58	3160.02
677.77	2967.51
677.95	3028.95
678.14	3174.35
678.32	3235.79
678.51	3100.62
678.70	3379.15
678.88	3170.26
679.07	3387.34
679.25	3057.62
679.44	3094.48
679.63	3039.19
679.81	3286.99
680.00	3389.39
680.18	3198.93
680.37	3530.70
680.55	3264.46
680.74	2936.79
680.93	2762.71
681.11	3291.09
681.30	3205.07
681.48	3137.49
681.67	3074.00
681.85	3284.94
682.04	3147.73
682.23	3289.04
682.41	3278.80
682.60	3235.79
682.78	3239.89
682.97	2990.03
683.15	3096.53
683.34	3434.44
683.53	3590.09
683.71	2959.31
683.90	3151.82
684.08	3626.95
684.27	3280.85
684.45	3121.10
684.64	3256.27
684.82	3356.62
685.01	3319.76
685.19	3100.62
685.38	3377.10
685.57	3250.13
685.75	3172.30
685.94	3014.61
686.12	2944.98
686.31	3174.35
686.49	3559.37
686.68	2897.88
686.86	3033.04
687.05	3164.11
687.23	3680.20
687.42	3035.09
687.60	2901.97
687.79	3436.49
687.97	3614.66
688.16	3235.79
688.34	3260.37
688.53	2887.64
688.71	3436.49
688.90	3454.92
689.08	3100.62
689.27	3016.66
689.45	3403.72
689.64	3315.66
689.82	3162.06
690.01	3368.91
690.19	3319.76
690.38	3125.20
690.56	3252.17
690.75	3092.43
690.93	3188.69
691.12	3051.47
691.30	3135.44
691.49	3147.73
691.67	3284.94
691.86	3407.82
692.04	3217.36
692.23	3207.12
692.41	3264.46
692.60	3420.11
692.78	3252.17
692.97	3315.66
693.15	3362.76
693.34	3379.15
693.52	3223.50
693.71	3184.59
693.89	3188.69
694.08	2967.51
694.26	3135.44
694.44	3397.58
694.63	3454.92
694.81	3051.47
695.00	3151.82
695.18	3508.17
695.37	3762.12
695.55	3250.13
695.74	3059.67
695.92	3104.72
696.10	3475.40
696.29	2967.51
696.47	3067.86
696.66	3131.34
696.84	3053.52
697.03	3186.64
697.21	3305.42
697.40	4638.65
697.58	3497.93
697.76	3057.62
697.95	2987.99
698.13	3024.85
698.32	3168.21
698.50	3110.86
698.68	3059.67
698.87	3383.24
699.05	3563.47
699.24	3084.24
699.42	3008.47
699.61	3323.85
699.79	3196.88
699.97	3088.34
700.16	2979.79
700.34	3035.09
700.53	3256.27
700.71	3264.46
700.89	3215.31
701.08	3219.41
701.26	3254.22
701.45	3391.44
701.63	3074.00
701.81	3168.21
702.00	3110.86
702.18	3196.88
702.37	3030.99
702.55	3495.88
702.73	3368.91
702.92	3147.73
703.10	3592.14
703.28	3452.88
703.47	3041.23
703.65	3391.44
703.84	3264.46
704.02	3198.93
704.20	3598.28
704.39	2963.41
704.57	3043.28
704.75	3401.68
704.94	3399.63
705.12	3215.31
705.30	3936.20
705.49	8630.14
705.67	17020.67
705.86	23742.10
706.04	27332.19
706.22	29732.41
706.41	28317.26
706.59	21331.64
706.77	16594.69
706.96	14520.10
707.14	13164.34
707.32	11317.08
707.51	9797.48
707.69	7999.37
707.87	6502.30
708.06	5269.42
708.24	4597.69
708.42	4122.56
708.61	4300.73
708.79	3307.47
708.97	3354.57
709.16	3401.68
709.34	3352.52
709.52	3139.54
709.71	3149.78
709.89	3434.44
710.07	3129.30
710.26	2994.13
710.44	3096.53
710.62	3545.03
710.80	3299.28
710.99	3223.50
711.17	3227.60
711.35	3223.50
711.54	3168.21
711.72	3176.40
711.90	3174.35
712.09	3397.58
712.27	3127.25
712.45	3307.47
712.63	3061.71
712.82	3370.96
713.00	3305.42
713.18	3186.64
713.37	3276.75
713.55	3499.98
713.73	3446.73
713.91	3155.92
714.10	3133.39
714.28	3176.40
714.46	3381.20
714.65	3289.04
714.83	3170.26
715.01	3276.75
715.19	3307.47
715.38	3010.51
715.56	3246.03
715.74	3119.06
715.92	3125.20
716.11	3393.48
716.29	2871.25
716.47	3213.26
716.65	3237.84
716.84	2953.17
717.02	3137.49
717.20	2910.16
717.38	3149.78
717.57	3178.45
717.75	3117.01
717.93	3246.03
718.11	3418.06
718.30	2953.17
718.48	3106.77
718.66	3450.83
718.84	3475.40
719.03	3108.82
719.21	2967.51
719.39	3669.96
719.57	3436.49
719.75	3213.26
719.94	3098.58
720.12	3286.99
720.30	3286.99
720.48	3192.78
720.67	3104.72
720.85	3084.24
721.03	3237.84
721.21	3121.10
721.39	3176.40
721.58	3383.24
721.76	3266.51
721.94	3166.16
722.12	3123.15
722.30	3565.51
722.49	3237.84
722.67	3055.57
722.85	3174.35
723.03	3037.14
723.21	3207.12
723.40	3102.67
723.58	3246.03
723.76	3401.68
723.94	3475.40
724.12	3092.43
724.30	3409.87
724.49	3434.44
724.67	3041.23
724.85	3211.22
725.03	2996.18
725.21	3448.78
725.40	3483.59
725.58	3117.01
725.76	3297.23
725.94	3420.11
726.12	3114.96
726.30	3135.44
726.49	3104.72
726.67	3227.60
726.85	3370.96
727.03	3975.11
727.21	5572.52
727.39	7104.40
727.57	7751.56
727.76	8468.35
727.94	8331.14
728.12	7333.78
728.30	6053.80
728.48	5570.48
728.66	5195.70
728.84	4691.90
729.03	4192.19
729.21	3823.56
729.39	3581.90
729.57	3366.86
729.75	3442.64
729.93	3332.05
730.11	2949.08
730.30	3209.17
730.48	3270.61
730.66	3198.93
730.84	3170.26
731.02	3250.13
731.20	3157.97
731.38	3170.26
731.56	3049.43
731.74	3045.33
731.93	3336.14
732.11	3176.40
732.29	3049.43
732.47	3403.72
732.65	3340.24
732.83	3297.23
733.01	3239.89
733.19	3170.26
733.37	3385.29
733.56	3160.02
733.74	2953.17
733.92	3520.46
734.10	3131.34
734.28	3276.75
734.46	2953.17
734.64	3241.93
734.82	3258.32
735.00	3008.47
735.18	3076.05
735.36	3248.08
735.54	3266.51
735.73	3065.81
735.91	3219.41
736.09	3659.72
736.27	3291.09
736.45	3178.45
736.63	2865.11
736.81	3137.49
736.99	3422.16
737.17	3282.89
737.35	3028.95
737.53	3327.95
737.71	3188.69
737.89	3303.37
738.07	3082.19
738.25	3106.77
738.43	2893.78
738.61	3096.53
738.80	2914.26
738.98	3139.54
739.16	3190.74
739.34	2975.70
739.52	3405.77
739.70	3270.61
739.88	3405.77
740.06	3200.98
740.24	2846.68
740.42	3377.10
740.60	2953.17
740.78	3041.23
740.96	2826.20
741.14	3229.65
741.32	3250.13
741.50	2990.03
741.68	3346.38
741.86	3516.36
742.04	3065.81
742.22	3033.04
742.40	3127.25
742.58	3440.59
742.76	3082.19
742.94	3256.27
743.12	2910.16
743.30	3272.65
743.48	3403.72
743.66	2953.17
743.84	3100.62
744.02	3207.12
744.20	3311.57
744.38	2940.88
744.56	3067.86
744.74	3604.42
744.92	3446.73
745.10	3282.89
745.28	3131.34
745.46	3561.42
745.64	3229.65
745.82	3188.69
746.00	3049.43
746.18	3377.10
746.36	3033.04
746.54	3114.96
746.72	3106.77
746.90	3049.43
747.08	3502.03
747.26	3043.28
747.44	3239.89
747.62	3387.34
747.80	3289.04
747.98	3155.92
748.15	2990.03
748.33	3622.86
748.51	3229.65
748.69	3229.65
748.87	2994.13
749.05	3198.93
749.23	3092.43
749.41	2994.13
749.59	3057.62
749.77	3475.40
749.95	3098.58
750.13	3061.71
750.31	3225.55
750.49	3182.54
750.67	3385.29
750.85	3293.13
751.03	3106.77
751.20	3651.53
751.38	3203.02
751.56	3123.15
751.74	3028.95
751.92	3219.41
752.10	2977.75
752.28	3323.85
752.46	3082.19
752.64	3227.60
752.82	3180.50
753.00	3223.50
753.18	2969.55
753.35	3223.50
753.53	3241.93
753.71	3074.00
753.89	3170.26
754.07	3278.80
754.25	3491.79
754.43	3180.50
754.61	3033.04
754.79	3346.38
754.97	3276.75
755.14	3270.61
755.32	2949.08
755.50	3229.65
755.68	3309.52
755.86	2998.23
756.04	3053.52
756.22	2875.35
756.40	3393.48
756.57	3317.71
756.75	3002.32
756.93	3514.31
757.11	3442.64
757.29	3008.47
757.47	3080.14
757.65	3008.47
757.82	2799.57
758.00	2967.51
758.18	3030.99
758.36	3164.11
758.54	3540.94
758.72	2949.08
758.90	3272.65
759.07	3413.96
759.25	3084.24
759.43	3170.26
759.61	2942.93
759.79	4401.08
759.97	3461.07
760.15	3104.72
760.32	3033.04
760.50	3311.57
760.68	3592.14
760.86	2969.55
761.04	3305.42
761.22	3385.29
761.39	3229.65
761.57	3268.56
761.75	3114.96
761.93	3491.79
762.11	3207.12
762.28	3178.45
762.46	3078.10
762.64	3508.17
762.82	3082.19
763.00	3108.82
763.18	3278.80
763.35	3104.72
763.53	3370.96
763.71	3164.11
763.89	2992.08
764.07	3286.99
764.24	3160.02
764.42	3207.12
764.60	3090.38
764.78	3373.00
764.96	3520.46
765.13	3246.03
765.31	3002.32
765.49	3420.11
765.67	3098.58
765.84	2959.31
766.02	3006.42
766.20	2922.45
766.38	3413.96
766.56	3119.06
766.73	3162.06
766.91	3258.32
767.09	3241.93
767.27	3114.96
767.44	3047.38
767.62	3416.01
767.80	3416.01
767.98	2947.03
768.15	3102.67
768.33	3448.78
768.51	3426.25
768.69	3291.09
768.87	3149.78
769.04	3299.28
769.22	3872.71
769.40	3252.17
769.58	3188.69
769.75	3311.57
769.93	3467.21
770.11	3012.56
770.28	2951.12
770.46	3512.27
770.64	3200.98
770.82	3149.78
770.99	3033.04
771.17	3413.96
771.35	3119.06
771.53	3106.77
771.70	3074.00
771.88	3348.43
772.06	3203.02
772.23	3067.86
772.41	3186.64
772.59	3229.65
772.77	3045.33
772.94	3160.02
773.12	3108.82
773.30	3151.82
773.47	3323.85
773.65	2920.40
773.83	3303.37
774.01	3327.95
774.18	2957.27
774.36	3110.86
774.54	2938.84
774.71	3319.76
774.89	2947.03
775.07	2959.31
775.24	3018.71
775.42	3166.16
775.60	3610.57
775.78	3065.81
775.95	2901.97
776.13	2942.93
776.31	2924.50
776.48	3262.41
776.66	3258.32
776.84	3170.26
777.01	3205.07
777.19	2965.46
777.37	3065.81
777.54	3368.91
777.72	3739.59
777.90	3176.40
778.07	3028.95
778.25	3997.64
778.43	3456.97
778.60	3047.38
778.78	3108.82
778.96	3542.99
779.13	2975.70
779.31	3182.54
779.49	3141.58
779.66	3268.56
779.84	3186.64
780.01	3037.14
780.19	3018.71
780.37	3542.99
780.54	3395.53
780.72	2926.55
780.90	3106.77
781.07	3213.26
781.25	3176.40
781.43	3330.00
781.60	3094.48
781.78	3491.79
781.95	3317.71
782.13	2967.51
782.31	3053.52
782.48	2951.12
782.66	3186.64
782.83	3307.47
783.01	3203.02
783.19	3446.73
783.36	3182.54
783.54	2918.36
783.72	3074.00
783.89	3354.57
784.07	3303.37
784.24	3178.45
784.42	3276.75
784.60	3373.00
784.77	3348.43
784.95	2904.02
785.12	3065.81
785.30	3278.80
785.47	3094.48
785.65	3033.04
785.83	3094.48
786.00	3215.31
786.18	3278.80
786.35	3035.09
786.53	2990.03
786.71	3540.94
786.88	3420.11
787.06	3213.26
787.23	3143.63
787.41	3047.38
787.58	3205.07
787.76	2944.98
787.94	3080.14
788.11	3307.47
788.29	3047.38
788.46	3096.53
788.64	2944.98
788.81	3141.58
788.99	3014.61
789.16	3133.39
789.34	3164.11
789.52	3188.69
789.69	3153.87
789.87	2863.06
790.04	3082.19
790.22	3248.08
790.39	3680.20
790.57	2990.03
790.74	3030.99
790.92	3485.64
791.09	2938.84
791.27	3121.10
791.44	3164.11
791.62	3266.51
791.79	3317.71
791.97	3252.17
792.15	3389.39
792.32	3323.85
792.50	3413.96
792.67	3217.36
792.85	3364.81
793.02	3266.51
793.20	3137.49
793.37	2992.08
793.55	2967.51
793.72	3092.43
793.90	3373.00
794.07	3059.67
794.25	2998.23
794.42	3313.61
794.60	3133.39
794.77	3215.31
794.95	3229.65
795.12	3424.20
795.30	3182.54
795.47	2842.58
795.65	3393.48
795.82	3344.33
796.00	3119.06
796.17	3166.16
796.34	3006.42
796.52	3327.95
796.69	3524.55
796.87	3108.82
797.04	3205.07
797.22	3362.76
797.39	3348.43
797.57	3231.69
797.74	3143.63
797.92	3305.42
798.09	3121.10
798.27	3434.44
798.44	3082.19
798.62	3168.21
798.79	3389.39
798.96	3172.30
799.14	3069.91
799.31	3743.69
799.49	3225.55
799.66	3069.91
799.84	3143.63
800.01	2967.51
800.19	3411.92
800.36	2871.25
800.53	3092.43
800.71	3319.76
800.88	3583.95
801.06	3008.47
801.23	3055.57
801.41	3268.56
801.58	3243.98
801.75	3133.39
801.93	3067.86
802.10	3442.64
802.28	3213.26
802.45	3125.20
802.63	3119.06
802.80	3557.32
802.97	3176.40
803.15	3157.97
803.32	3055.57
803.50	3086.29
803.67	3153.87
803.84	3051.47
804.02	3137.49
804.19	3258.32
804.37	2713.56
804.54	2881.49
804.71	3129.30
804.89	3168.21
805.06	3051.47
805.24	2959.31
805.41	2959.31
805.58	3053.52
805.76	3682.25
805.93	3061.71
806.10	3180.50
806.28	3379.15
806.45	3231.69
806.63	3205.07
806.80	3110.86
806.97	3325.90
807.15	3284.94
807.32	3123.15
807.49	2994.13
807.67	3049.43
807.84	3364.81
808.01	2955.22
808.19	3354.57
808.36	3745.73
808.54	3217.36
808.71	3084.24
808.88	3028.95
809.06	3469.26
809.23	3553.23
809.40	3129.30
809.58	3067.86
809.75	3270.61
809.92	3037.14
810.10	3352.52
810.27	2971.60
810.44	3383.24
810.62	3344.33
810.79	3076.05
810.96	3092.43
811.14	3207.12
811.31	3342.28
811.48	3270.61
811.66	3178.45
811.83	3532.75
812.00	3411.92
812.18	3229.65
812.35	3389.39
812.52	3100.62
812.69	3166.16
812.87	3045.33
813.04	3008.47
813.21	3248.08
813.39	3084.24
813.56	2971.60
813.73	3282.89
813.91	2949.08
814.08	3330.00
814.25	3074.00
814.42	2916.31
814.60	3182.54
814.77	3311.57
814.94	2990.03
815.12	3254.22
815.29	3682.25
815.46	3106.77
815.63	3067.86
815.81	3102.67
815.98	3147.73
816.15	3215.31
816.33	3184.59
816.50	3047.38
816.67	3231.69
816.84	3276.75
817.02	3008.47
817.19	3086.29
817.36	3416.01
817.53	3295.18
817.71	2944.98
817.88	3067.86
818.05	3205.07
818.22	3184.59
818.40	3270.61
818.57	3112.91
818.74	3291.09
818.91	3209.17
819.09	3321.81
819.26	3153.87
819.43	3178.45
819.60	3069.91
819.78	3231.69
819.95	3153.87
820.12	3061.71
820.29	3573.71
820.47	3397.58
820.64	3114.96
820.81	2994.13
820.98	3065.81
821.15	3086.29
821.33	3190.74
821.50	2967.51
821.67	3426.25
821.84	3030.99
822.02	3131.34
822.19	3348.43
822.36	3217.36
822.53	3053.52
822.70	2961.36
822.88	3153.87
823.05	3581.90
823.22	3205.07
823.39	3108.82
823.56	3291.09
823.74	3680.20
823.91	2959.31
824.08	2975.70
824.25	3020.75
824.42	3571.66
824.60	2922.45
824.77	3160.02
824.94	3190.74
825.11	3379.15
825.28	2951.12
825.45	3182.54
825.63	3360.72
825.80	3082.19
825.97	3170.26
826.14	3112.91
826.31	2973.65
826.48	3426.25
826.66	3090.38
826.83	3035.09
827.00	3131.34
827.17	3059.67
827.34	3094.48
827.51	3020.75
827.69	3256.27
827.86	3008.47
828.03	3172.30
828.20	3200.98
828.37	3155.92
828.54	3356.62
828.71	3020.75
828.89	3147.73
829.06	3272.65
829.23	3493.83
829.40	3092.43
829.57	2994.13
829.74	3354.57
829.91	3137.49
830.09	3010.51
830.26	3256.27
830.43	3649.48
830.60	3248.08
830.77	3190.74
830.94	3264.46
831.11	3332.05
831.28	3174.35
831.46	3203.02
831.63	3074.00
831.80	3430.35
831.97	3041.23
832.14	3137.49
832.31	3071.95
832.48	3274.70
832.65	3442.64
832.82	3262.41
832.99	3119.06
833.17	3098.58
833.34	3475.40
833.51	3125.20
833.68	2840.53
833.85	3440.59
834.02	3108.82
834.19	2979.79
834.36	3041.23
834.53	3307.47
834.70	3432.40
834.87	3035.09
835.04	2848.72
835.22	3059.67
835.39	3123.15
835.56	2957.27
835.73	2897.88
835.90	3401.68
836.07	3074.00
836.24	3045.33
836.41	2906.07
836.58	3112.91
836.75	3514.31
836.92	2965.46
837.09	2879.44
837.26	3348.43
837.43	3252.17
837.60	3020.75
837.77	2938.84
837.94	3452.88
838.12	3442.64
838.29	2889.68
838.46	2799.57
838.63	3041.23
838.80	3545.03
838.97	3010.51
839.14	2973.65
839.31	3246.03
839.48	3327.95
839.65	2926.55
839.82	3033.04
839.99	3354.57
840.16	3274.70
840.33	2822.10
840.50	2887.64
840.67	3037.14
840.84	2775.00
841.01	2922.45
841.18	2846.68
841.35	3172.30
841.52	3352.52
841.69	3336.14
841.86	2975.70
842.03	3233.74
842.20	3405.77
842.37	2897.88
842.54	2846.68
842.71	3237.84
842.88	2963.41
843.05	2940.88
843.22	2869.20
843.39	3385.29
843.56	3190.74
843.73	2924.50
843.90	3012.56
844.07	3272.65
844.24	3463.12
844.41	2977.75
844.58	2967.51
844.75	3198.93
844.92	3327.95
845.09	3030.99
845.26	2877.40
845.43	3305.42
845.60	3241.93
845.77	3051.47
845.94	3018.71
846.10	3497.93
846.27	2951.12
846.44	2799.57
846.61	2750.42
846.78	3370.96
846.95	3461.07
847.12	2832.34
847.29	2934.74
847.46	3186.64
847.63	3340.24
847.80	2883.54
847.97	2904.02
848.14	3733.45
848.31	3274.70
848.48	2805.72
848.65	2895.83
848.82	3061.71
848.98	3811.27
849.15	3051.47
849.32	3020.75
849.49	3497.93
849.66	3180.50
849.83	2887.64
850.00	2863.06
850.17	3379.15
850.34	3098.58
850.51	2834.39
850.68	2887.64
850.85	3774.41
851.01	3254.22
851.18	2914.26
851.35	3016.66
851.52	3311.57
851.69	3508.17
851.86	2918.36
852.03	2865.11
852.20	3428.30
852.37	3280.85
852.53	2813.91
852.70	2850.77
852.87	3264.46
853.04	3438.54
853.21	2918.36
853.38	3186.64
853.55	3545.03
853.72	3502.03
853.89	2869.20
854.05	2869.20
854.22	3209.17
854.39	3162.06
854.56	2854.87
854.73	3119.06
854.90	3123.15
855.07	3170.26
855.23	2766.81
855.40	2836.44
855.57	3207.12
855.74	2813.91
855.91	3063.76
856.08	2764.76
856.25	2992.08
856.41	3117.01
856.58	2932.69
856.75	2969.55
856.92	3082.19
857.09	3495.88
857.26	2711.51
857.42	2936.79
857.59	3375.05
857.76	3190.74
857.93	2861.01
858.10	2987.99
858.27	3065.81
858.43	3252.17
858.60	2852.82
858.77	2789.33
858.94	3100.62
859.11	3454.92
859.27	2947.03
859.44	2779.09
859.61	3688.39
859.78	3399.63
859.95	2932.69
860.12	2793.43
860.28	3692.49
860.45	3672.01
860.62	2863.06
860.79	3092.43
860.95	3178.45
861.12	3186.64
861.29	2838.48
861.46	2887.64
861.63	3266.51
861.79	3280.85
861.96	2791.38
862.13	2918.36
862.30	3495.88
862.47	3069.91
862.63	2838.48
862.80	2983.89
862.97	3448.78
863.14	3307.47
863.30	2928.60
863.47	2824.15
863.64	3585.99
863.81	3303.37
863.97	2826.20
864.14	2856.92
864.31	3194.83
864.48	3291.09
864.65	2877.40
864.81	3033.04
864.98	3389.39
865.15	3477.45
865.32	3090.38
865.48	3041.23
865.65	3565.51
865.82	3164.11
865.98	3008.47
866.15	3000.27
866.32	3270.61
866.49	3149.78
866.65	3088.34
866.82	2910.16
866.99	3256.27
867.16	3186.64
867.32	2906.07
867.49	2824.15
867.66	3217.36
867.83	3192.78
867.99	2830.29
868.16	2969.55
868.33	2983.89
868.49	3233.74
868.66	2953.17
868.83	3035.09
868.99	3354.57
869.16	3303.37
869.33	3088.34
869.50	2965.46
869.66	3270.61
869.83	3246.03
870.00	2789.33
870.16	3065.81
870.33	3231.69
870.50	3411.92
870.66	2953.17
870.83	2949.08
871.00	3213.26
871.17	3348.43
871.33	2996.18
871.50	2971.60
871.67	3274.70
871.83	2951.12
872.00	2965.46
872.17	2938.84
872.33	3575.75
872.50	3510.22
872.67	2865.11
872.83	2922.45
873.00	3364.81
873.17	3203.02
873.33	2936.79
873.50	2944.98
873.67	3112.91
873.83	3127.25
874.00	2932.69
874.16	3086.29
874.33	3377.10
874.50	3094.48
874.66	2840.53
874.83	2977.75
875.00	3540.94
875.16	3409.87
875.33	3018.71
875.50	2717.65
875.66	3162.06
875.83	3307.47
875.99	2918.36
876.16	3071.95
876.33	3114.96
876.49	3209.17
876.66	2971.60
876.83	2969.55
876.99	2947.03
877.16	3276.75
877.32	2947.03
877.49	3018.71
877.66	3282.89
877.82	3575.75
877.99	2994.13
878.15	3221.45
878.32	3360.72
878.49	3336.14
878.65	2934.74
878.82	3260.37
878.98	3137.49
879.15	3459.02
879.32	3139.54
879.48	3151.82
879.65	3188.69
879.81	3211.22
879.98	2926.55
880.15	2967.51
880.31	3377.10
880.48	3065.81
880.64	3090.38
880.81	3133.39
880.97	3510.22
881.14	3465.16
881.31	2930.64
881.47	3121.10
881.64	3194.83
881.80	2947.03
881.97	3051.47
882.13	2944.98
882.30	3004.37
882.47	3147.73
882.63	2918.36
882.80	2928.60
882.96	3102.67
883.13	3448.78
883.29	2967.51
883.46	2920.40
883.62	3723.21
883.79	3286.99
883.95	3129.30
884.12	2895.83
884.29	3454.92
884.45	3303.37
884.62	2916.31
884.78	2916.31
884.95	3530.70
885.11	3041.23
885.28	3049.43
885.44	2926.55
885.61	3377.10
885.77	3557.32
885.94	3041.23
886.10	2967.51
886.27	3278.80
886.43	3608.52
886.60	3168.21
886.76	2996.18
886.93	3074.00
887.09	3295.18
887.26	2799.57
887.42	2973.65
887.59	3559.37
887.75	3708.87
887.92	3119.06
888.08	3110.86
888.25	3583.95
888.41	3409.87
888.58	2852.82
888.74	2965.46
888.91	3196.88
>>>>>End Processed Spectral Data<<<<<
