SpectraSuite Data File
++++++++++++++++++++++++++++++++++++
Date: Fri May 06 08:14:02 CEST 2016
User: root
Dark Spectrum Present: No
Reference Spectrum Present: No
Number of Sampled Component Spectra: 1
Spectrometers: USB4C02835
Integration Time (usec): 100000 (USB4C02835)
Spectra Averaged: 1 (USB4C02835)
Boxcar Smoothing: 0 (USB4C02835)
Correct for Electrical Dark: No (USB4C02835)
Strobe/Lamp Enabled: No (USB4C02835)
Correct for Detector Non-linearity: No (USB4C02835)
Correct for Stray Light: No (USB4C02835)
Number of Pixels in Processed Spectrum: 3648
>>>>>Begin Processed Spectral Data<<<<<
177.47	2248.67
177.69	2248.67
177.91	2248.67
178.13	2273.25
178.36	2263.01
178.58	2963.41
178.80	3063.76
179.02	2949.08
179.24	2992.08
179.46	2711.51
179.68	2858.96
179.90	3258.32
180.13	3246.03
180.35	2705.37
180.57	2832.34
180.79	3397.58
181.01	3254.22
181.23	2875.35
181.45	2973.65
181.67	3436.49
181.90	3418.06
182.12	2897.88
182.34	2645.98
182.56	3389.39
182.78	3407.82
183.00	2828.24
183.22	2871.25
183.44	2949.08
183.66	3925.96
183.89	3008.47
184.11	2848.72
184.33	3413.96
184.55	3479.50
184.77	2879.44
184.99	2877.40
185.21	3172.30
185.43	3817.41
185.65	2836.44
185.87	2832.34
186.10	3784.65
186.32	3819.46
186.54	3057.62
186.76	2912.21
186.98	3600.33
187.20	3291.09
187.42	2893.78
187.64	2846.68
187.86	3344.33
188.08	3549.13
188.30	2758.61
188.52	2889.68
188.75	3540.94
188.97	3487.69
189.19	2887.64
189.41	2807.77
189.63	3512.27
189.85	3272.65
190.07	2725.85
190.29	2748.37
190.51	3256.27
190.73	2944.98
190.95	3092.43
191.17	2967.51
191.39	2926.55
191.61	3233.74
191.84	2832.34
192.06	2969.55
192.28	2959.31
192.50	3844.04
192.72	3000.27
192.94	2869.20
193.16	3502.03
193.38	3434.44
193.60	2809.81
193.82	3092.43
194.04	3510.22
194.26	3346.38
194.48	2914.26
194.70	2856.92
194.92	3153.87
195.14	3418.06
195.36	2863.06
195.58	2942.93
195.80	3231.69
196.02	3213.26
196.24	2799.57
196.46	2944.98
196.69	3241.93
196.91	3874.76
197.13	2783.19
197.35	2850.77
197.57	3606.47
197.79	3448.78
198.01	2899.92
198.23	2871.25
198.45	3387.34
198.67	3051.47
198.89	2684.89
199.11	2947.03
199.33	3127.25
199.55	2834.39
199.77	2885.59
199.99	2967.51
200.21	3239.89
200.43	3379.15
200.65	2664.41
200.87	2760.66
201.09	3346.38
201.31	3243.98
201.53	2928.60
201.75	2901.97
201.97	3354.57
202.19	3186.64
202.41	3067.86
202.63	2975.70
202.85	3424.20
203.07	3270.61
203.29	2975.70
203.51	2770.90
203.73	3069.91
203.95	3735.50
204.17	2848.72
204.39	2969.55
204.61	3262.41
204.83	3117.01
205.05	2990.03
205.27	2942.93
205.49	3708.87
205.71	3254.22
205.93	2793.43
206.15	2740.18
206.37	3330.00
206.59	3360.72
206.81	2754.52
207.03	2676.70
207.25	3151.82
207.47	3424.20
207.69	2842.58
207.91	3016.66
208.13	3635.14
208.34	3182.54
208.56	2805.72
208.78	2893.78
209.00	3237.84
209.22	3262.41
209.44	2963.41
209.66	2772.95
209.88	3340.24
210.10	3262.41
210.32	2848.72
210.54	2961.36
210.76	3139.54
210.98	3485.64
211.20	2707.41
211.42	2955.22
211.64	3504.07
211.86	3418.06
212.08	2914.26
212.30	2926.55
212.52	3231.69
212.74	3270.61
212.96	2961.36
213.17	2947.03
213.39	3459.02
213.61	3540.94
213.83	2795.48
214.05	2768.85
214.27	3485.64
214.49	3018.71
214.71	2877.40
214.93	3000.27
215.15	3325.90
215.37	3411.92
215.59	2770.90
215.81	2940.88
216.03	3590.09
216.24	3272.65
216.46	2842.58
216.68	2957.27
216.90	3377.10
217.12	3491.79
217.34	2828.24
217.56	3065.81
217.78	3610.57
218.00	3370.96
218.22	2969.55
218.44	2951.12
218.66	3315.66
218.87	3598.28
219.09	2920.40
219.31	2885.59
219.53	3399.63
219.75	3112.91
219.97	2852.82
220.19	2926.55
220.41	3305.42
220.63	3557.32
220.85	2865.11
221.06	2815.96
221.28	3571.66
221.50	3330.00
221.72	2922.45
221.94	2758.61
222.16	3289.04
222.38	3461.07
222.60	2848.72
222.82	2983.89
223.03	3452.88
223.25	3051.47
223.47	2772.95
223.69	3147.73
223.91	3370.96
224.13	3305.42
224.35	2746.33
224.57	3082.19
224.78	3389.39
225.00	3166.16
225.22	2955.22
225.44	2795.48
225.66	3512.27
225.88	3278.80
226.10	2947.03
226.32	2820.05
226.53	3585.99
226.75	3196.88
226.97	2926.55
227.19	2889.68
227.41	3137.49
227.63	3149.78
227.85	2664.41
228.06	2887.64
228.28	3309.52
228.50	3393.48
228.72	2674.65
228.94	2799.57
229.16	2973.65
229.37	3076.05
229.59	2797.53
229.81	3168.21
230.03	3194.83
230.25	3065.81
230.47	2617.30
230.69	2779.09
230.90	3377.10
231.12	3059.67
231.34	2959.31
231.56	2992.08
231.78	3123.15
232.00	3295.18
232.21	2957.27
232.43	2953.17
232.65	2836.44
232.87	3420.11
233.09	2627.54
233.30	2787.29
233.52	3532.75
233.74	3196.88
233.96	2799.57
234.18	3020.75
234.40	3260.37
234.61	3788.74
234.83	2686.94
235.05	2787.29
235.27	3858.37
235.49	3493.83
235.70	2762.71
235.92	2934.74
236.14	3368.91
236.36	3772.36
236.58	2729.94
236.79	3030.99
237.01	3241.93
237.23	3366.86
237.45	3024.85
237.67	2942.93
237.88	3413.96
238.10	3745.73
238.32	2734.04
238.54	2822.10
238.76	3305.42
238.97	3092.43
239.19	2721.75
239.41	2924.50
239.63	3516.36
239.85	3268.56
240.06	2861.01
240.28	2789.33
240.50	3465.16
240.72	3293.13
240.93	2738.13
241.15	2934.74
241.37	3327.95
241.59	3567.56
241.81	2740.18
242.02	2932.69
242.24	3377.10
242.46	3508.17
242.68	2725.85
242.89	2818.00
243.11	3491.79
243.33	3299.28
243.55	2861.01
243.76	2856.92
243.98	3176.40
244.20	3229.65
244.42	2895.83
244.64	2852.82
244.85	2955.22
245.07	3108.82
245.29	2944.98
245.51	2953.17
245.72	3350.48
245.94	3563.47
246.16	2861.01
246.38	2899.92
246.59	3121.10
246.81	3086.29
247.03	2785.24
247.24	2754.52
247.46	3190.74
247.68	3286.99
247.90	2707.41
248.11	2834.39
248.33	3393.48
248.55	3276.75
248.77	2936.79
248.98	2951.12
249.20	3553.23
249.42	3291.09
249.64	2787.29
249.85	2893.78
250.07	3205.07
250.29	3473.36
250.50	2906.07
250.72	2727.89
250.94	3360.72
251.16	3717.06
251.37	2791.38
251.59	2959.31
251.81	3477.45
252.02	3534.79
252.24	2801.62
252.46	2987.99
252.68	3135.44
252.89	3143.63
253.11	2691.03
253.33	2987.99
253.54	3559.37
253.76	3067.86
253.98	2805.72
254.20	2897.88
254.41	3033.04
254.63	3188.69
254.85	2717.65
255.06	3008.47
255.28	3364.81
255.50	3172.30
255.71	2871.25
255.93	2754.52
256.15	3196.88
256.36	3422.16
256.58	2746.33
256.80	2807.77
257.02	3203.02
257.23	3215.31
257.45	2910.16
257.67	2938.84
257.88	3260.37
258.10	3385.29
258.32	2879.44
258.53	2887.64
258.75	3612.62
258.97	3151.82
259.18	2754.52
259.40	2791.38
259.62	3614.66
259.83	3581.90
260.05	2818.00
260.27	3852.23
260.48	3483.59
260.70	3112.91
260.92	2723.80
261.13	2719.70
261.35	3299.28
261.57	3373.00
261.78	2756.57
262.00	2777.05
262.22	3387.34
262.43	3123.15
262.65	2879.44
262.86	2899.92
263.08	3782.60
263.30	3362.76
263.51	2609.11
263.73	2822.10
263.95	3590.09
264.16	3098.58
264.38	2641.88
264.60	2805.72
264.81	3200.98
265.03	3526.60
265.25	3305.42
265.46	2818.00
265.68	3487.69
265.89	3434.44
266.11	2711.51
266.33	2848.72
266.54	3471.31
266.76	3383.24
266.98	2967.51
267.19	3051.47
267.41	3528.65
267.62	3258.32
267.84	2631.64
268.06	2947.03
268.27	3383.24
268.49	3526.60
268.70	2932.69
268.92	2830.29
269.14	3086.29
269.35	2992.08
269.57	2975.70
269.79	2938.84
270.00	3139.54
270.22	3649.48
270.43	2865.11
270.65	2725.85
270.87	3311.57
271.08	3381.20
271.30	2928.60
271.51	2887.64
271.73	3409.87
271.95	3600.33
272.16	2842.58
272.38	3006.42
272.59	3139.54
272.81	3383.24
273.02	2770.90
273.24	2975.70
273.46	3557.32
273.67	3037.14
273.89	2738.13
274.10	2813.91
274.32	3526.60
274.54	3420.11
274.75	2971.60
274.97	2889.68
275.18	3395.53
275.40	3393.48
275.61	2938.84
275.83	3074.00
276.05	3112.91
276.26	3284.94
276.48	2992.08
276.69	3045.33
276.91	3166.16
277.12	3626.95
277.34	3164.11
277.55	3110.86
277.77	3315.66
277.99	3143.63
278.20	3020.75
278.42	2881.49
278.63	3125.20
278.85	3102.67
279.06	2942.93
279.28	3119.06
279.49	3499.98
279.71	3409.87
279.93	3028.95
280.14	3065.81
280.36	3041.23
280.57	3387.34
280.79	2998.23
281.00	2873.30
281.22	3188.69
281.43	3495.88
281.65	2818.00
281.86	2944.98
282.08	3356.62
282.29	3659.72
282.51	2856.92
282.73	2881.49
282.94	2949.08
283.16	3502.03
283.37	3139.54
283.59	3006.42
283.80	3506.12
284.02	3295.18
284.23	3100.62
284.45	3069.91
284.66	3155.92
284.88	3106.77
285.09	2930.64
285.31	3065.81
285.52	3334.09
285.74	2897.88
285.95	3223.50
286.17	3047.38
286.38	3446.73
286.60	3180.50
286.81	2938.84
287.03	2895.83
287.24	3307.47
287.46	3360.72
287.67	3114.96
287.89	3233.74
288.10	3311.57
288.32	3237.84
288.53	3127.25
288.75	3024.85
288.96	3381.20
289.18	3211.22
289.39	2947.03
289.61	3041.23
289.82	3792.84
290.04	3602.38
290.25	2942.93
290.47	3030.99
290.68	3274.70
290.90	3516.36
291.11	2797.53
291.33	3112.91
291.54	3067.86
291.76	3164.11
291.97	3196.88
292.18	3090.38
292.40	3229.65
292.61	3139.54
292.83	3303.37
293.04	2967.51
293.26	3180.50
293.47	3186.64
293.69	2914.26
293.90	2967.51
294.12	3545.03
294.33	3237.84
294.55	3078.10
294.76	3190.74
294.97	3577.80
295.19	3688.39
295.40	2932.69
295.62	3086.29
295.83	3436.49
296.05	3117.01
296.26	3254.22
296.48	2916.31
296.69	3223.50
296.90	3213.26
297.12	3176.40
297.33	3110.86
297.55	3319.76
297.76	3377.10
297.98	3051.47
298.19	3147.73
298.41	3190.74
298.62	3020.75
298.83	3153.87
299.05	2996.18
299.26	3184.59
299.48	3065.81
299.69	3082.19
299.90	3016.66
300.12	3135.44
300.33	3409.87
300.55	2992.08
300.76	2971.60
300.98	3024.85
301.19	3379.15
301.40	2998.23
301.62	2932.69
301.83	3317.71
302.05	3401.68
302.26	2963.41
302.47	3053.52
302.69	3055.57
302.90	3213.26
303.12	2783.19
303.33	3100.62
303.54	3696.58
303.76	3180.50
303.97	2906.07
304.19	3221.45
304.40	3098.58
304.61	3346.38
304.83	3147.73
305.04	3035.09
305.26	3422.16
305.47	3180.50
305.68	3063.76
305.90	2867.16
306.11	3481.55
306.33	3219.41
306.54	2840.53
306.75	2947.03
306.97	3018.71
307.18	3086.29
307.39	2944.98
307.61	3049.43
307.82	3274.70
308.04	3379.15
308.25	2840.53
308.46	3162.06
308.68	3260.37
308.89	3235.79
309.10	3139.54
309.32	3057.62
309.53	3254.22
309.74	3360.72
309.96	2934.74
310.17	3092.43
310.39	3196.88
310.60	3413.96
310.81	3045.33
311.03	2901.97
311.24	3405.77
311.45	3250.13
311.67	3274.70
311.88	3160.02
312.09	3299.28
312.31	3106.77
312.52	2979.79
312.73	2926.55
312.95	2963.41
313.16	3094.48
313.37	3145.68
313.59	3106.77
313.80	3340.24
314.01	3551.18
314.23	3059.67
314.44	3004.37
314.65	3049.43
314.87	3108.82
315.08	2977.75
315.29	2967.51
315.51	3049.43
315.72	2908.12
315.93	3094.48
316.15	3043.28
316.36	3225.55
316.57	3299.28
316.79	2910.16
317.00	2930.64
317.21	3434.44
317.43	3098.58
317.64	3141.58
317.85	2885.59
318.07	3114.96
318.28	3147.73
318.49	3121.10
318.70	3256.27
318.92	3352.52
319.13	3446.73
319.34	3172.30
319.56	2957.27
319.77	3471.31
319.98	3313.61
320.20	3235.79
320.41	3145.68
320.62	3397.58
320.83	3002.32
321.05	3205.07
321.26	3059.67
321.47	3297.23
321.69	3387.34
321.90	2899.92
322.11	2961.36
322.32	3348.43
322.54	3631.05
322.75	3028.95
322.96	4011.97
323.18	2965.46
323.39	2977.75
323.60	2813.91
323.81	3123.15
324.03	3168.21
324.24	3241.93
324.45	3067.86
324.66	2942.93
324.88	3536.84
325.09	3542.99
325.30	3010.51
325.52	2934.74
325.73	3381.20
325.94	3030.99
326.15	2891.73
326.37	2877.40
326.58	3569.61
326.79	3559.37
327.00	2822.10
327.22	3012.56
327.43	3125.20
327.64	3104.72
327.85	3098.58
328.07	2967.51
328.28	3653.58
328.49	3172.30
328.70	3071.95
328.92	3016.66
329.13	3223.50
329.34	3399.63
329.55	3217.36
329.76	3221.45
329.98	3143.63
330.19	3438.54
330.40	3057.62
330.61	3123.15
330.83	3450.83
331.04	3174.35
331.25	3127.25
331.46	3041.23
331.68	3037.14
331.89	3434.44
332.10	3006.42
332.31	2856.92
332.52	3233.74
332.74	3502.03
332.95	2793.43
333.16	2957.27
333.37	3381.20
333.58	3131.34
333.80	3030.99
334.01	2836.44
334.22	3205.07
334.43	3239.89
334.64	2914.26
334.86	2914.26
335.07	3078.10
335.28	3545.03
335.49	2885.59
335.70	3137.49
335.92	3499.98
336.13	3678.15
336.34	3016.66
336.55	3024.85
336.76	3303.37
336.98	2910.16
337.19	2994.13
337.40	3055.57
337.61	3786.69
337.82	3254.22
338.04	3090.38
338.25	2932.69
338.46	3278.80
338.67	3262.41
338.88	2885.59
339.09	2871.25
339.31	3198.93
339.52	3082.19
339.73	2983.89
339.94	3057.62
340.15	3368.91
340.36	3207.12
340.58	3024.85
340.79	2912.21
341.00	3389.39
341.21	3088.34
341.42	3233.74
341.63	2973.65
341.85	3489.74
342.06	3315.66
342.27	3008.47
342.48	3196.88
342.69	3020.75
342.90	3413.96
343.12	3340.24
343.33	2998.23
343.54	3545.03
343.75	3549.13
343.96	3145.68
344.17	2934.74
344.38	3284.94
344.60	3123.15
344.81	2889.68
345.02	2951.12
345.23	3594.19
345.44	3751.88
345.65	3061.71
345.86	3121.10
346.07	3266.51
346.29	3119.06
346.50	3117.01
346.71	3147.73
346.92	3567.56
347.13	3784.65
347.34	3024.85
347.55	2901.97
347.76	3338.19
347.98	2990.03
348.19	3117.01
348.40	3143.63
348.61	3215.31
348.82	3497.93
349.03	3018.71
349.24	2856.92
349.45	3610.57
349.66	2889.68
349.88	2998.23
350.09	2926.55
350.30	3571.66
350.51	3553.23
350.72	3213.26
350.93	2967.51
351.14	3082.19
351.35	3405.77
351.56	2998.23
351.77	3065.81
351.99	3446.73
352.20	3538.89
352.41	3096.53
352.62	2840.53
352.83	3239.89
353.04	3338.19
353.25	3016.66
353.46	3035.09
353.67	3495.88
353.88	2897.88
354.09	2920.40
354.30	3045.33
354.52	3454.92
354.73	3258.32
354.94	2979.79
355.15	3018.71
355.36	3649.48
355.57	3164.11
355.78	3024.85
355.99	3016.66
356.20	3221.45
356.41	3424.20
356.62	3082.19
356.83	3033.04
357.04	3465.16
357.25	2910.16
357.46	2973.65
357.68	2877.40
357.89	3098.58
358.10	3313.61
358.31	2920.40
358.52	3000.27
358.73	3053.52
358.94	3049.43
359.15	2996.18
359.36	3006.42
359.57	3237.84
359.78	3166.16
359.99	3098.58
360.20	2967.51
360.41	3286.99
360.62	3432.40
360.83	3080.14
361.04	3024.85
361.25	3321.81
361.46	3573.71
361.67	3030.99
361.88	3047.38
362.09	3411.92
362.30	3346.38
362.51	2987.99
362.72	3096.53
362.93	3428.30
363.14	3385.29
363.35	3065.81
363.56	2865.11
363.78	3551.18
363.99	3510.22
364.20	3024.85
364.41	3084.24
364.62	3704.78
364.83	3352.52
365.04	2914.26
365.25	3041.23
365.46	3766.21
365.67	3117.01
365.88	3213.26
366.09	2992.08
366.30	3139.54
366.51	3174.35
366.72	2961.36
366.93	2967.51
367.14	3383.24
367.35	3610.57
367.56	2920.40
367.77	3065.81
367.98	3252.17
368.18	3436.49
368.39	3168.21
368.60	2901.97
368.81	3420.11
369.02	3346.38
369.23	2981.84
369.44	2799.57
369.65	3213.26
369.86	3401.68
370.07	3030.99
370.28	2912.21
370.49	3268.56
370.70	3340.24
370.91	2838.48
371.12	2887.64
371.33	3442.64
371.54	3207.12
371.75	3084.24
371.96	2699.22
372.17	3289.04
372.38	3211.22
372.59	3035.09
372.80	2998.23
373.01	3114.96
373.22	3340.24
373.43	2992.08
373.64	2869.20
373.85	3516.36
374.06	3567.56
374.26	3207.12
374.47	3096.53
374.68	3536.84
374.89	3280.85
375.10	2936.79
375.31	3059.67
375.52	3387.34
375.73	3233.74
375.94	2840.53
376.15	3135.44
376.36	3125.20
376.57	3223.50
376.78	3098.58
376.99	3045.33
377.20	3532.75
377.40	3155.92
377.61	3301.33
377.82	2918.36
378.03	3606.47
378.24	3373.00
378.45	3082.19
378.66	3133.39
378.87	2934.74
379.08	3016.66
379.29	2940.88
379.50	3090.38
379.71	3313.61
379.91	3426.25
380.12	2990.03
380.33	3074.00
380.54	3170.26
380.75	3258.32
380.96	3094.48
381.17	3059.67
381.38	3278.80
381.59	3250.13
381.80	3082.19
382.00	3180.50
382.21	3278.80
382.42	3606.47
382.63	3434.44
382.84	3225.55
383.05	3512.27
383.26	3614.66
383.47	3092.43
383.68	2924.50
383.88	3436.49
384.09	3321.81
384.30	3264.46
384.51	3088.34
384.72	3160.02
384.93	2985.94
385.14	3123.15
385.35	3315.66
385.55	3053.52
385.76	3524.55
385.97	3047.38
386.18	2861.01
386.39	3106.77
386.60	3117.01
386.81	2985.94
387.02	2953.17
387.22	3088.34
387.43	3368.91
387.64	3106.77
387.85	3266.51
388.06	3332.05
388.27	4442.04
388.48	7864.20
388.68	12009.29
388.89	15140.63
389.10	16590.59
389.31	16410.37
389.52	13240.12
389.73	11370.32
389.93	10504.03
390.14	9346.93
390.35	8550.27
390.56	8001.41
390.77	6582.17
390.98	5078.96
391.18	4235.20
391.39	3921.86
391.60	3327.95
391.81	3295.18
392.02	3065.81
392.23	3737.54
392.43	3362.76
392.64	3129.30
392.85	3123.15
393.06	3661.77
393.27	3209.17
393.47	3082.19
393.68	3065.81
393.89	3282.89
394.10	3401.68
394.31	3086.29
394.52	2953.17
394.72	3057.62
394.93	3540.94
395.14	2965.46
395.35	3131.34
395.56	3135.44
395.76	3284.94
395.97	3069.91
396.18	3135.44
396.39	3336.14
396.60	4011.97
396.80	3450.83
397.01	3241.93
397.22	3479.50
397.43	3497.93
397.64	2965.46
397.84	3106.77
398.05	3758.02
398.26	3272.65
398.47	3168.21
398.67	3311.57
398.88	3332.05
399.09	3428.30
399.30	3016.66
399.51	3106.77
399.71	3139.54
399.92	3327.95
400.13	3141.58
400.34	3078.10
400.54	3225.55
400.75	3622.86
400.96	3280.85
401.17	3344.33
401.37	3448.78
401.58	3219.41
401.79	2992.08
402.00	3182.54
402.21	3729.35
402.41	3393.48
402.62	3444.68
402.83	3471.31
403.04	3680.20
403.24	4138.94
403.45	3209.17
403.66	3348.43
403.87	3442.64
404.07	3672.01
404.28	3274.70
404.49	3426.25
404.70	3352.52
404.90	3440.59
405.11	3028.95
405.32	3221.45
405.52	3217.36
405.73	3090.38
405.94	2979.79
406.15	3096.53
406.35	3327.95
406.56	3467.21
406.77	3125.20
406.98	3076.05
407.18	3096.53
407.39	3631.05
407.60	3137.49
407.80	3127.25
408.01	3147.73
408.22	3340.24
408.43	2924.50
408.63	3135.44
408.84	3420.11
409.05	3434.44
409.25	2963.41
409.46	3084.24
409.67	3207.12
409.88	3160.02
410.08	3125.20
410.29	3088.34
410.50	3485.64
410.70	3368.91
410.91	2955.22
411.12	3123.15
411.32	3252.17
411.53	3114.96
411.74	3045.33
411.95	3139.54
412.15	3280.85
412.36	3426.25
412.57	3172.30
412.77	3295.18
412.98	3219.41
413.19	3188.69
413.39	3184.59
413.60	3110.86
413.81	3575.75
414.01	3157.97
414.22	3004.37
414.43	3266.51
414.63	3198.93
414.84	3465.16
415.05	3203.02
415.25	2858.96
415.46	3381.20
415.67	3196.88
415.87	3069.91
416.08	3084.24
416.29	3186.64
416.49	3385.29
416.70	3100.62
416.91	3067.86
417.11	3215.31
417.32	3530.70
417.53	3172.30
417.73	3176.40
417.94	3241.93
418.15	3356.62
418.35	3121.10
418.56	3108.82
418.77	3727.30
418.97	3291.09
419.18	3123.15
419.38	2760.66
419.59	3262.41
419.80	3534.79
420.00	2955.22
420.21	3110.86
420.42	3518.41
420.62	3307.47
420.83	3016.66
421.04	3020.75
421.24	3323.85
421.45	3463.12
421.65	3071.95
421.86	3084.24
422.07	3495.88
422.27	3319.76
422.48	3078.10
422.69	2895.83
422.89	3373.00
423.10	3200.98
423.30	3084.24
423.51	3121.10
423.72	3282.89
423.92	3395.53
424.13	2983.89
424.33	3178.45
424.54	3502.03
424.75	3383.24
424.95	3266.51
425.16	2955.22
425.36	3305.42
425.57	3444.68
425.78	3319.76
425.98	3147.73
426.19	3246.03
426.39	3145.68
426.60	3131.34
426.81	3157.97
427.01	3405.77
427.22	3125.20
427.42	2893.78
427.63	2990.03
427.83	3473.36
428.04	3532.75
428.25	3155.92
428.45	3127.25
428.66	3538.89
428.86	3295.18
429.07	3086.29
429.28	3026.90
429.48	3293.13
429.69	3139.54
429.89	3147.73
430.10	2914.26
430.30	3413.96
430.51	3434.44
430.71	3010.51
430.92	3065.81
431.13	3213.26
431.33	3434.44
431.54	3125.20
431.74	3307.47
431.95	3733.45
432.15	3143.63
432.36	3123.15
432.56	3147.73
432.77	3610.57
432.98	3686.34
433.18	3119.06
433.39	3035.09
433.59	3184.59
433.80	3663.82
434.00	3190.74
434.21	3065.81
434.41	3135.44
434.62	3831.75
434.82	2992.08
435.03	2969.55
435.23	3323.85
435.44	2887.64
435.64	3121.10
435.85	3051.47
436.06	3424.20
436.26	3454.92
436.47	3074.00
436.67	3024.85
436.88	3164.11
437.08	3495.88
437.29	3172.30
437.49	3141.58
437.70	3545.03
437.90	3289.04
438.11	3297.23
438.31	3180.50
438.52	3487.69
438.72	3487.69
438.93	3422.16
439.13	3258.32
439.34	3487.69
439.54	3209.17
439.75	3178.45
439.95	3190.74
440.16	3121.10
440.36	3264.46
440.57	3127.25
440.77	3067.86
440.98	3223.50
441.18	3442.64
441.39	2949.08
441.59	2959.31
441.80	3712.97
442.00	3233.74
442.21	3153.87
442.41	2971.60
442.62	3522.51
442.82	3114.96
443.02	3030.99
443.23	3123.15
443.43	3270.61
443.64	3545.03
443.84	3024.85
444.05	3166.16
444.25	3330.00
444.46	3198.93
444.66	3084.24
444.87	3311.57
445.07	2908.12
445.28	3211.22
445.48	3196.88
445.69	3108.82
445.89	3835.85
446.09	3184.59
446.30	3399.63
446.50	3418.06
446.71	5113.78
446.91	6375.33
447.12	7135.12
447.32	7677.83
447.53	7726.99
447.73	6543.26
447.93	5623.72
448.14	5271.47
448.34	5443.50
448.55	4607.93
448.75	4454.33
448.96	4190.14
449.16	4130.75
449.36	3944.39
449.57	3336.14
449.77	3198.93
449.98	3162.06
450.18	3481.55
450.39	2967.51
450.59	3301.33
450.79	3250.13
451.00	3100.62
451.20	3373.00
451.41	3010.51
451.61	3346.38
451.81	3237.84
452.02	3008.47
452.22	3086.29
452.43	3155.92
452.63	3028.95
452.84	3125.20
453.04	3035.09
453.24	3344.33
453.45	3178.45
453.65	3143.63
453.86	3016.66
454.06	3295.18
454.26	3350.48
454.47	3008.47
454.67	3205.07
454.87	3393.48
455.08	3227.60
455.28	3184.59
455.49	3196.88
455.69	3129.30
455.89	3694.54
456.10	3147.73
456.30	3051.47
456.51	3459.02
456.71	3305.42
456.91	3237.84
457.12	3041.23
457.32	3289.04
457.52	3110.86
457.73	3215.31
457.93	3207.12
458.14	3160.02
458.34	2885.59
458.54	3078.10
458.75	3018.71
458.95	3401.68
459.15	3399.63
459.36	3084.24
459.56	3043.28
459.76	3772.36
459.97	3256.27
460.17	2969.55
460.37	3168.21
460.58	3336.14
460.78	3422.16
460.99	3082.19
461.19	2957.27
461.39	3233.74
461.60	3297.23
461.80	3217.36
462.00	2951.12
462.21	3254.22
462.41	3164.11
462.61	2979.79
462.82	2822.10
463.02	3311.57
463.22	3233.74
463.43	3088.34
463.63	2957.27
463.83	3454.92
464.04	3364.81
464.24	3047.38
464.44	2975.70
464.64	3317.71
464.85	3413.96
465.05	3057.62
465.25	3026.90
465.46	3184.59
465.66	3368.91
465.86	3080.14
466.07	3002.32
466.27	3205.07
466.47	2963.41
466.68	2949.08
466.88	3182.54
467.08	3297.23
467.29	3473.36
467.49	3102.67
467.69	3196.88
467.89	3385.29
468.10	3282.89
468.30	3061.71
468.50	3176.40
468.71	3403.72
468.91	2914.26
469.11	3192.78
469.31	3092.43
469.52	3004.37
469.72	3577.80
469.92	3299.28
470.13	3071.95
470.33	3325.90
470.53	3344.33
470.73	3428.30
470.94	3917.76
471.14	4032.45
471.34	4757.43
471.54	4374.46
471.75	4083.65
471.95	3807.17
472.15	3717.06
472.36	3680.20
472.56	3624.90
472.76	3839.94
472.96	3665.86
473.17	3303.37
473.37	3198.93
473.57	3209.17
473.77	3366.86
473.98	3190.74
474.18	3002.32
474.38	4034.50
474.58	3170.26
474.79	3002.32
474.99	3180.50
475.19	3502.03
475.39	3110.86
475.60	3192.78
475.80	3049.43
476.00	3305.42
476.20	3182.54
476.41	3194.83
476.61	3086.29
476.81	3612.62
477.01	3024.85
477.21	3323.85
477.42	3205.07
477.62	3129.30
477.82	3407.82
478.02	3020.75
478.23	3078.10
478.43	3190.74
478.63	3235.79
478.83	3057.62
479.03	3121.10
479.24	3536.84
479.44	3585.99
479.64	2883.54
479.84	2828.24
480.04	3098.58
480.25	3448.78
480.45	3024.85
480.65	2996.18
480.85	3571.66
481.06	3203.02
481.26	3162.06
481.46	3039.19
481.66	3325.90
481.86	3008.47
482.06	3207.12
482.27	3047.38
482.47	3110.86
482.67	3303.37
482.87	3028.95
483.07	3094.48
483.28	3145.68
483.48	3121.10
483.68	3086.29
483.88	2969.55
484.08	2901.97
484.29	3033.04
484.49	3196.88
484.69	2899.92
484.89	3606.47
485.09	3483.59
485.29	3086.29
485.50	3239.89
485.70	3184.59
485.90	3581.90
486.10	3194.83
486.30	3090.38
486.50	3534.79
486.71	3346.38
486.91	3059.67
487.11	3143.63
487.31	3016.66
487.51	3446.73
487.71	3045.33
487.91	3018.71
488.12	3069.91
488.32	2772.95
488.52	3067.86
488.72	2762.71
488.92	3327.95
489.12	3459.02
489.32	3225.55
489.53	3016.66
489.73	2994.13
489.93	3585.99
490.13	2983.89
490.33	2885.59
490.53	3323.85
490.73	3459.02
490.94	2918.36
491.14	3203.02
491.34	3377.10
491.54	3467.21
491.74	4040.64
491.94	4485.05
492.14	5232.56
492.34	5250.99
492.54	4892.60
492.75	4091.84
492.95	4444.09
493.15	4163.52
493.35	3745.73
493.55	3805.13
493.75	3653.58
493.95	3958.72
494.15	3293.13
494.35	3141.58
494.56	3319.76
494.76	3135.44
494.96	3194.83
495.16	2990.03
495.36	3264.46
495.56	3276.75
495.76	3166.16
495.96	3051.47
496.16	3086.29
496.36	3739.59
496.56	3024.85
496.77	3108.82
496.97	3270.61
497.17	3461.07
497.37	2848.72
497.57	3166.16
497.77	3276.75
497.97	3084.24
498.17	3065.81
498.37	3059.67
498.57	3362.76
498.77	3182.54
498.97	3229.65
499.17	3428.30
499.38	3196.88
499.58	3436.49
499.78	3147.73
499.98	3196.88
500.18	3233.74
500.38	3092.43
500.58	3289.04
500.78	3672.01
500.98	6043.56
501.18	8259.46
501.38	9858.92
501.58	10878.81
501.78	10981.21
501.98	9111.41
502.18	7464.85
502.38	6576.03
502.58	6459.29
502.78	5631.91
502.98	5482.41
503.18	5267.38
503.38	4954.04
503.59	4173.76
503.79	4159.42
503.99	3729.35
504.19	3915.72
504.39	3895.24
504.59	3719.11
504.79	3600.33
504.99	3975.11
505.19	3651.53
505.39	3315.66
505.59	3506.12
505.79	3702.73
505.99	3518.41
506.19	3188.69
506.39	3319.76
506.59	3258.32
506.79	3258.32
506.99	3350.48
507.19	3063.76
507.39	3282.89
507.59	2985.94
507.79	2981.84
507.99	3043.28
508.19	3284.94
508.39	3168.21
508.59	3045.33
508.79	3106.77
508.99	3792.84
509.19	3022.80
509.39	3123.15
509.59	2930.64
509.79	3110.86
509.99	3342.28
510.19	3213.26
510.39	3219.41
510.59	3424.20
510.79	3176.40
510.99	2899.92
511.19	3053.52
511.39	3545.03
511.59	3526.60
511.79	3207.12
511.99	3106.77
512.19	3704.78
512.38	3311.57
512.58	3024.85
512.78	2973.65
512.98	3530.70
513.18	3657.67
513.38	2936.79
513.58	3155.92
513.78	3223.50
513.98	3229.65
514.18	3082.19
514.38	2996.18
514.58	3340.24
514.78	3176.40
514.98	2955.22
515.18	3102.67
515.38	3088.34
515.58	3649.48
515.78	3026.90
515.98	3063.76
516.18	3477.45
516.38	3207.12
516.57	3139.54
516.77	3039.19
516.97	3413.96
517.17	3106.77
517.37	2850.77
517.57	3049.43
517.77	3346.38
517.97	3131.34
518.17	3145.68
518.37	2893.78
518.57	3080.14
518.77	3180.50
518.97	3053.52
519.16	3094.48
519.36	3536.84
519.56	3145.68
519.76	2961.36
519.96	3151.82
520.16	3608.52
520.36	3078.10
520.56	3321.81
520.76	3002.32
520.96	3188.69
521.16	3436.49
521.35	3325.90
521.55	3243.98
521.75	3260.37
521.95	3155.92
522.15	2979.79
522.35	2953.17
522.55	3080.14
522.75	3444.68
522.95	3000.27
523.14	2942.93
523.34	3286.99
523.54	3160.02
523.74	3135.44
523.94	3180.50
524.14	3022.80
524.34	3293.13
524.54	3325.90
524.73	3061.71
524.93	3377.10
525.13	3366.86
525.33	3043.28
525.53	3309.52
525.73	3532.75
525.93	3352.52
526.13	3123.15
526.32	2899.92
526.52	3510.22
526.72	3491.79
526.92	3117.01
527.12	2967.51
527.32	3041.23
527.52	3299.28
527.71	3069.91
527.91	3147.73
528.11	3178.45
528.31	3280.85
528.51	3014.61
528.71	3180.50
528.90	3461.07
529.10	3598.28
529.30	3155.92
529.50	2789.33
529.70	3360.72
529.90	3221.45
530.09	3092.43
530.29	2951.12
530.49	3131.34
530.69	3862.47
530.89	3143.63
531.09	3188.69
531.28	3211.22
531.48	3549.13
531.68	3076.05
531.88	3100.62
532.08	3434.44
532.28	3303.37
532.47	3182.54
532.67	3155.92
532.87	3403.72
533.07	3065.81
533.27	3069.91
533.46	3104.72
533.66	3327.95
533.86	3330.00
534.06	3164.11
534.26	3043.28
534.45	3190.74
534.65	3438.54
534.85	3209.17
535.05	3012.56
535.25	3459.02
535.44	2895.83
535.64	3127.25
535.84	3057.62
536.04	3157.97
536.24	3166.16
536.43	3012.56
536.63	3000.27
536.83	3205.07
537.03	3264.46
537.22	2822.10
537.42	2914.26
537.62	3387.34
537.82	3024.85
538.02	3217.36
538.21	3108.82
538.41	3878.85
538.61	3350.48
538.81	3114.96
539.00	3200.98
539.20	3026.90
539.40	3256.27
539.60	3006.42
539.79	3280.85
539.99	3229.65
540.19	3141.58
540.39	2979.79
540.58	3157.97
540.78	3536.84
540.98	3327.95
541.18	3344.33
541.37	3082.19
541.57	3200.98
541.77	3395.53
541.97	2926.55
542.16	2938.84
542.36	3254.22
542.56	3160.02
542.76	3301.33
542.95	3162.06
543.15	3393.48
543.35	3395.53
543.54	3018.71
543.74	2947.03
543.94	3606.47
544.14	3211.22
544.33	3155.92
544.53	3074.00
544.73	3196.88
544.93	3153.87
545.12	3049.43
545.32	3012.56
545.52	3248.08
545.71	2985.94
545.91	3016.66
546.11	3033.04
546.30	3211.22
546.50	3231.69
546.70	3182.54
546.90	3135.44
547.09	2955.22
547.29	3311.57
547.49	3184.59
547.68	3084.24
547.88	3164.11
548.08	3358.67
548.27	3385.29
548.47	3018.71
548.67	3250.13
548.87	3362.76
549.06	3033.04
549.26	2965.46
549.46	3317.71
549.65	3205.07
549.85	3106.77
550.05	3147.73
550.24	3082.19
550.44	3188.69
550.64	3153.87
550.83	3059.67
551.03	3573.71
551.23	3432.40
551.42	3108.82
551.62	3186.64
551.82	3250.13
552.01	3213.26
552.21	3395.53
552.41	3076.05
552.60	3592.14
552.80	3266.51
553.00	2975.70
553.19	3121.10
553.39	3618.76
553.59	3074.00
553.78	3233.74
553.98	3059.67
554.17	3123.15
554.37	3389.39
554.57	3121.10
554.76	2985.94
554.96	3184.59
555.16	3176.40
555.35	3092.43
555.55	3282.89
555.75	3413.96
555.94	3401.68
556.14	2818.00
556.33	3074.00
556.53	3233.74
556.73	3346.38
556.92	3039.19
557.12	3016.66
557.32	3725.26
557.51	3540.94
557.71	3131.34
557.90	3258.32
558.10	3545.03
558.30	3141.58
558.49	3117.01
558.69	3016.66
558.88	3397.58
559.08	3278.80
559.28	3110.86
559.47	3155.92
559.67	3311.57
559.86	3680.20
560.06	3106.77
560.26	3080.14
560.45	3358.67
560.65	3217.36
560.84	3309.52
561.04	2979.79
561.24	3373.00
561.43	3076.05
561.63	3262.41
561.82	3229.65
562.02	3467.21
562.22	3053.52
562.41	3026.90
562.61	3006.42
562.80	3114.96
563.00	3702.73
563.19	3162.06
563.39	3166.16
563.59	3338.19
563.78	2998.23
563.98	2850.77
564.17	3096.53
564.37	2834.39
564.56	3309.52
564.76	2928.60
564.96	3164.11
565.15	3340.24
565.35	3737.54
565.54	3041.23
565.74	3129.30
565.93	3360.72
566.13	3286.99
566.32	3155.92
566.52	3209.17
566.71	3303.37
566.91	3391.44
567.11	3141.58
567.30	3047.38
567.50	3428.30
567.69	3444.68
567.89	3090.38
568.08	2987.99
568.28	3301.33
568.47	2981.84
568.67	3047.38
568.86	2967.51
569.06	3426.25
569.25	3213.26
569.45	2969.55
569.64	3024.85
569.84	3162.06
570.04	3379.15
570.23	3076.05
570.43	3098.58
570.62	3311.57
570.82	3563.47
571.01	2940.88
571.21	3102.67
571.40	3051.47
571.60	3481.55
571.79	3086.29
571.99	3053.52
572.18	3094.48
572.38	3370.96
572.57	3114.96
572.77	3190.74
572.96	3801.03
573.16	3239.89
573.35	3022.80
573.55	3157.97
573.74	3399.63
573.94	3160.02
574.13	3059.67
574.33	3291.09
574.52	3536.84
574.71	3229.65
574.91	3143.63
575.10	2936.79
575.30	3180.50
575.49	3098.58
575.69	3020.75
575.88	3051.47
576.08	3248.08
576.27	3471.31
576.47	3047.38
576.66	3239.89
576.86	3569.61
577.05	3278.80
577.25	3078.10
577.44	3225.55
577.64	3209.17
577.83	3405.77
578.02	3178.45
578.22	3162.06
578.41	3657.67
578.61	3241.93
578.80	2914.26
579.00	3102.67
579.19	3327.95
579.39	3493.83
579.58	3172.30
579.77	3178.45
579.97	3563.47
580.16	3430.35
580.36	3295.18
580.55	3149.78
580.75	3411.92
580.94	3319.76
581.13	3248.08
581.33	3389.39
581.52	3295.18
581.72	3674.06
581.91	3190.74
582.11	2987.99
582.30	3463.12
582.49	3309.52
582.69	3352.52
582.88	3106.77
583.08	3319.76
583.27	3483.59
583.47	3203.02
583.66	3061.71
583.85	3067.86
584.05	3286.99
584.24	3180.50
584.44	3061.71
584.63	3551.18
584.82	3512.27
585.02	3332.05
585.21	3182.54
585.41	3387.34
585.60	3315.66
585.79	3305.42
585.99	3373.00
586.18	3282.89
586.37	4212.67
586.57	6438.81
586.76	17815.28
586.96	37629.38
587.15	51270.90
587.34	59485.30
587.54	63700.02
587.73	57126.04
587.93	41096.59
588.12	31690.27
588.31	25878.13
588.51	22691.49
588.70	21165.76
588.89	18523.88
589.09	15931.15
589.28	14014.25
589.47	10848.09
589.67	8341.38
589.86	6467.49
590.06	5181.36
590.25	4564.92
590.44	3864.52
590.64	3524.55
590.83	3545.03
591.02	3536.84
591.22	3065.81
591.41	3213.26
591.60	3266.51
591.80	3786.69
591.99	2996.18
592.18	3074.00
592.38	3499.98
592.57	3225.55
592.76	3127.25
592.96	3207.12
593.15	3225.55
593.34	3450.83
593.54	3104.72
593.73	3241.93
593.92	3446.73
594.12	3327.95
594.31	3203.02
594.50	3256.27
594.70	3381.20
594.89	3876.80
595.08	2981.84
595.28	3250.13
595.47	3938.24
595.66	3475.40
595.86	3020.75
596.05	2895.83
596.24	3203.02
596.43	3663.82
596.63	3139.54
596.82	3229.65
597.01	3368.91
597.21	3622.86
597.40	3131.34
597.59	3160.02
597.79	3213.26
597.98	3375.05
598.17	3143.63
598.36	3061.71
598.56	3528.65
598.75	3125.20
598.94	3127.25
599.14	3133.39
599.33	3184.59
599.52	3420.11
599.71	3164.11
599.91	3114.96
600.10	3430.35
600.29	3246.03
600.48	3153.87
600.68	3231.69
600.87	3389.39
601.06	3170.26
601.26	3207.12
601.45	3262.41
601.64	3196.88
601.83	3583.95
602.03	2947.03
602.22	3014.61
602.41	3477.45
602.60	3794.89
602.80	3133.39
602.99	3254.22
603.18	3168.21
603.37	3305.42
603.57	3002.32
603.76	3139.54
603.95	3508.17
604.14	3157.97
604.34	2961.36
604.53	3035.09
604.72	3252.17
604.91	3512.27
605.10	3082.19
605.30	2901.97
605.49	3719.11
605.68	3434.44
605.87	3082.19
606.07	3049.43
606.26	3301.33
606.45	3348.43
606.64	3098.58
606.84	2889.68
607.03	3344.33
607.22	3456.97
607.41	3135.44
607.60	3024.85
607.80	3483.59
607.99	3340.24
608.18	3114.96
608.37	3033.04
608.56	3207.12
608.76	3493.83
608.95	3225.55
609.14	3028.95
609.33	3561.42
609.52	3614.66
609.72	3211.22
609.91	3217.36
610.10	3336.14
610.29	3631.05
610.48	3182.54
610.68	3205.07
610.87	3321.81
611.06	3442.64
611.25	3082.19
611.44	3162.06
611.63	3264.46
611.83	3559.37
612.02	2963.41
612.21	3213.26
612.40	3024.85
612.59	3078.10
612.79	3014.61
612.98	3074.00
613.17	3641.29
613.36	3231.69
613.55	3237.84
613.74	3198.93
613.93	3336.14
614.13	3383.24
614.32	3311.57
614.51	3114.96
614.70	3327.95
614.89	3272.65
615.08	3182.54
615.28	3430.35
615.47	3084.24
615.66	3416.01
615.85	3104.72
616.04	3147.73
616.23	3338.19
616.42	3254.22
616.62	3100.62
616.81	3071.95
617.00	3239.89
617.19	3358.67
617.38	3133.39
617.57	3221.45
617.76	3411.92
617.95	3495.88
618.15	3274.70
618.34	3250.13
618.53	2992.08
618.72	3528.65
618.91	3155.92
619.10	3121.10
619.29	3272.65
619.48	3315.66
619.68	3012.56
619.87	3000.27
620.06	3035.09
620.25	3405.77
620.44	3059.67
620.63	3012.56
620.82	3327.95
621.01	3241.93
621.20	3065.81
621.39	3117.01
621.59	3381.20
621.78	3264.46
621.97	3123.15
622.16	3227.60
622.35	3362.76
622.54	3409.87
622.73	3110.86
622.92	2846.68
623.11	3487.69
623.30	3248.08
623.49	3243.98
623.68	2951.12
623.88	3575.75
624.07	3270.61
624.26	3045.33
624.45	3049.43
624.64	3237.84
624.83	3397.58
625.02	3014.61
625.21	3088.34
625.40	3307.47
625.59	3479.50
625.78	3176.40
625.97	3190.74
626.16	3577.80
626.35	3524.55
626.54	3166.16
626.74	3350.48
626.93	3225.55
627.12	3332.05
627.31	3100.62
627.50	3135.44
627.69	3497.93
627.88	3108.82
628.07	3026.90
628.26	2938.84
628.45	3094.48
628.64	3067.86
628.83	3024.85
629.02	2957.27
629.21	3413.96
629.40	3286.99
629.59	3012.56
629.78	3012.56
629.97	3256.27
630.16	3321.81
630.35	2996.18
630.54	3160.02
630.73	3166.16
630.92	3330.00
631.11	3037.14
631.30	3082.19
631.49	3469.26
631.68	3227.60
631.87	3143.63
632.06	3004.37
632.25	3762.12
632.44	3319.76
632.63	3190.74
632.82	3143.63
633.01	3200.98
633.20	3360.72
633.39	3026.90
633.58	2910.16
633.77	3323.85
633.96	3319.76
634.15	3168.21
634.34	3174.35
634.53	3358.67
634.72	3217.36
634.91	2836.44
635.10	3110.86
635.29	3438.54
635.48	3334.09
635.67	2916.31
635.86	2981.84
636.05	3608.52
636.24	3356.62
636.43	3063.76
636.62	3164.11
636.81	2838.48
637.00	3274.70
637.19	3164.11
637.38	3155.92
637.57	3188.69
637.76	3401.68
637.95	3276.75
638.14	3125.20
638.33	3317.71
638.52	3336.14
638.71	3045.33
638.89	2973.65
639.08	3897.28
639.27	3526.60
639.46	3364.81
639.65	3633.10
639.84	3962.82
640.03	3991.49
640.22	3629.00
640.41	3565.51
640.60	3401.68
640.79	3499.98
640.98	3327.95
641.17	3350.48
641.36	3499.98
641.55	3536.84
641.74	3008.47
641.92	3063.76
642.11	3172.30
642.30	3293.13
642.49	3049.43
642.68	3022.80
642.87	3342.28
643.06	3354.57
643.25	2914.26
643.44	2942.93
643.63	3278.80
643.82	3426.25
644.00	3006.42
644.19	3076.05
644.38	3047.38
644.57	3403.72
644.76	3063.76
644.95	3125.20
645.14	3319.76
645.33	3282.89
645.52	3106.77
645.71	2899.92
645.89	3117.01
646.08	3268.56
646.27	3123.15
646.46	3272.65
646.65	2936.79
646.84	3268.56
647.03	2981.84
647.22	3217.36
647.40	3297.23
647.59	3303.37
647.78	2906.07
647.97	3098.58
648.16	3131.34
648.35	3553.23
648.54	3325.90
648.73	2985.94
648.91	3454.92
649.10	3264.46
649.29	2992.08
649.48	3012.56
649.67	3370.96
649.86	3364.81
650.05	3123.15
650.23	3385.29
650.42	3153.87
650.61	3606.47
650.80	3434.44
650.99	3356.62
651.18	3526.60
651.36	3590.09
651.55	3020.75
651.74	3184.59
651.93	3131.34
652.12	3176.40
652.31	3110.86
652.49	3131.34
652.68	3237.84
652.87	3532.75
653.06	3209.17
653.25	3303.37
653.44	3239.89
653.62	3559.37
653.81	3055.57
654.00	3043.28
654.19	3532.75
654.38	3749.83
654.56	3166.16
654.75	3008.47
654.94	3461.07
655.13	3375.05
655.32	3030.99
655.51	3061.71
655.69	3180.50
655.88	3409.87
656.07	2942.93
656.26	3080.14
656.45	3024.85
656.63	3278.80
656.82	3049.43
657.01	3377.10
657.20	3188.69
657.38	3536.84
657.57	3092.43
657.76	2951.12
657.95	3373.00
658.14	3209.17
658.32	3184.59
658.51	2992.08
658.70	3352.52
658.89	3379.15
659.08	3172.30
659.26	3358.67
659.45	3139.54
659.64	3291.09
659.83	3106.77
660.01	3467.21
660.20	3295.18
660.39	3557.32
660.58	2787.29
660.76	3188.69
660.95	3049.43
661.14	3307.47
661.33	2934.74
661.51	3076.05
661.70	3129.30
661.89	3340.24
662.08	3153.87
662.26	2955.22
662.45	3078.10
662.64	3690.44
662.83	3114.96
663.01	2983.89
663.20	3182.54
663.39	3549.13
663.58	3125.20
663.76	3030.99
663.95	3438.54
664.14	3043.28
664.32	3106.77
664.51	3051.47
664.70	2914.26
664.89	3389.39
665.07	2928.60
665.26	3184.59
665.45	3028.95
665.64	3352.52
665.82	3061.71
666.01	3319.76
666.20	3008.47
666.38	3395.53
666.57	3450.83
666.76	5588.91
666.95	13199.16
667.13	20901.57
667.32	24866.44
667.51	28317.26
667.69	29140.55
667.88	24379.02
668.07	17481.46
668.25	15027.99
668.44	13037.37
668.63	11065.18
668.81	9721.71
669.00	8511.36
669.19	7810.95
669.38	6846.36
669.56	5707.69
669.75	4978.61
669.94	4464.57
670.12	3764.17
670.31	3495.88
670.50	3399.63
670.68	3485.64
670.87	3381.20
671.06	3094.48
671.24	3260.37
671.43	3635.14
671.62	3272.65
671.80	3076.05
671.99	3182.54
672.18	3254.22
672.36	3454.92
672.55	3256.27
672.74	3143.63
672.92	3203.02
673.11	3352.52
673.29	3069.91
673.48	3254.22
673.67	3225.55
673.85	3432.40
674.04	3043.28
674.23	3282.89
674.41	3688.39
674.60	3057.62
674.79	2951.12
674.97	2975.70
675.16	3393.48
675.34	3504.07
675.53	3069.91
675.72	3137.49
675.90	3719.11
676.09	3178.45
676.28	3207.12
676.46	2846.68
676.65	3401.68
676.83	3090.38
677.02	3157.97
677.21	3114.96
677.39	3278.80
677.58	3137.49
677.77	3106.77
677.95	2955.22
678.14	3274.70
678.32	3207.12
678.51	3069.91
678.70	3387.34
678.88	3180.50
679.07	3262.41
679.25	3012.56
679.44	3074.00
679.63	3106.77
679.81	3278.80
680.00	3350.48
680.18	3213.26
680.37	3499.98
680.55	3237.84
680.74	2938.84
680.93	2885.59
681.11	3297.23
681.30	3289.04
681.48	3080.14
681.67	3084.24
681.85	3385.29
682.04	3180.50
682.23	3235.79
682.41	3213.26
682.60	3196.88
682.78	3188.69
682.97	3059.67
683.15	3147.73
683.34	3358.67
683.53	3608.52
683.71	2875.35
683.90	3143.63
684.08	3704.78
684.27	3160.02
684.45	3078.10
684.64	3172.30
684.82	3254.22
685.01	3442.64
685.19	3041.23
685.38	3401.68
685.57	3170.26
685.75	3096.53
685.94	2944.98
686.12	3004.37
686.31	3059.67
686.49	3661.77
686.68	2920.40
686.86	3129.30
687.05	3131.34
687.23	3520.46
687.42	3094.48
687.60	2983.89
687.79	3495.88
687.97	3526.60
688.16	3205.07
688.34	3231.69
688.53	2983.89
688.71	3409.87
688.90	3364.81
689.08	3024.85
689.27	2949.08
689.45	3395.53
689.64	3278.80
689.82	3168.21
690.01	3356.62
690.19	3420.11
690.38	3180.50
690.56	3278.80
690.75	3008.47
690.93	3088.34
691.12	3074.00
691.30	3094.48
691.49	3117.01
691.67	3237.84
691.86	3456.97
692.04	3057.62
692.23	3078.10
692.41	3305.42
692.60	3424.20
692.78	3258.32
692.97	3307.47
693.15	3440.59
693.34	3377.10
693.52	3280.85
693.71	3129.30
693.89	3106.77
694.08	2953.17
694.26	3153.87
694.44	3420.11
694.63	3426.25
694.81	2914.26
695.00	3037.14
695.18	3555.27
695.37	3692.49
695.55	3114.96
695.74	3121.10
695.92	3123.15
696.10	3497.93
696.29	2961.36
696.47	3084.24
696.66	3045.33
696.84	3061.71
697.03	3213.26
697.21	3368.91
697.40	4681.66
697.58	3405.77
697.76	3018.71
697.95	3082.19
698.13	3112.91
698.32	3082.19
698.50	3080.14
698.68	3139.54
698.87	3321.81
699.05	3741.64
699.24	3205.07
699.42	3061.71
699.61	3299.28
699.79	3274.70
699.97	3143.63
700.16	2887.64
700.34	3059.67
700.53	3286.99
700.71	3368.91
700.89	3258.32
701.08	3182.54
701.26	3258.32
701.45	3469.26
701.63	3033.04
701.81	3188.69
702.00	3145.68
702.18	3254.22
702.37	3057.62
702.55	3510.22
702.73	3452.88
702.92	3057.62
703.10	3428.30
703.28	3375.05
703.47	3108.82
703.65	3364.81
703.84	3196.88
704.02	3139.54
704.20	3573.71
704.39	3035.09
704.57	3110.86
704.75	3432.40
704.94	3373.00
705.12	3299.28
705.30	4106.18
705.49	8834.94
705.67	17055.48
705.86	23864.98
706.04	26941.03
706.22	30400.05
706.41	28870.22
706.59	21782.20
706.77	17010.43
706.96	14694.18
707.14	13313.84
707.32	11495.25
707.51	9820.01
707.69	8105.86
707.87	6703.00
708.06	5312.43
708.24	4507.58
708.42	4075.46
708.61	4278.21
708.79	3289.04
708.97	3243.98
709.16	3377.10
709.34	3346.38
709.52	3067.86
709.71	3166.16
709.89	3395.53
710.07	3080.14
710.26	2953.17
710.44	3086.29
710.62	3475.40
710.80	3266.51
710.99	3172.30
711.17	3209.17
711.35	3123.15
711.54	3149.78
711.72	3381.20
711.90	3205.07
712.09	3344.33
712.27	3178.45
712.45	3166.16
712.63	3104.72
712.82	3332.05
713.00	3270.61
713.18	3233.74
713.37	3225.55
713.55	3450.83
713.73	3307.47
713.91	3196.88
714.10	3123.15
714.28	3289.04
714.46	3377.10
714.65	3119.06
714.83	3137.49
715.01	3297.23
715.19	3266.51
715.38	3082.19
715.56	3180.50
715.74	3104.72
715.92	3160.02
716.11	3438.54
716.29	2883.54
716.47	3270.61
716.65	3209.17
716.84	2967.51
717.02	3139.54
717.20	2967.51
717.38	3231.69
717.57	3143.63
717.75	3180.50
717.93	3149.78
718.11	3420.11
718.30	2977.75
718.48	3137.49
718.66	3497.93
718.84	3483.59
719.03	3153.87
719.21	2875.35
719.39	3702.73
719.57	3430.35
719.75	3235.79
719.94	3092.43
720.12	3246.03
720.30	3237.84
720.48	3164.11
720.67	3106.77
720.85	3086.29
721.03	3131.34
721.21	2969.55
721.39	3123.15
721.58	3319.76
721.76	3379.15
721.94	3143.63
722.12	3180.50
722.30	3571.66
722.49	3200.98
722.67	3012.56
722.85	3112.91
723.03	3024.85
723.21	3153.87
723.40	3205.07
723.58	3176.40
723.76	3430.35
723.94	3536.84
724.12	3180.50
724.30	3307.47
724.49	3456.97
724.67	3082.19
724.85	3256.27
725.03	2971.60
725.21	3456.97
725.40	3563.47
725.58	3108.82
725.76	3315.66
725.94	3409.87
726.12	3069.91
726.30	3155.92
726.49	3106.77
726.67	3332.05
726.85	3446.73
727.03	3878.85
727.21	5539.76
727.39	7288.72
727.57	7804.81
727.76	8570.75
727.94	8394.62
728.12	7468.94
728.30	6018.98
728.48	5609.39
728.66	5175.22
728.84	4802.49
729.03	4118.47
729.21	3821.51
729.39	3569.61
729.57	3438.54
729.75	3514.31
729.93	3395.53
730.11	3067.86
730.30	3178.45
730.48	3262.41
730.66	3231.69
730.84	3280.85
731.02	3346.38
731.20	3114.96
731.38	3123.15
731.56	2981.84
731.74	3008.47
731.93	3352.52
732.11	3256.27
732.29	3039.19
732.47	3393.48
732.65	3385.29
732.83	3319.76
733.01	3184.59
733.19	3094.48
733.37	3354.57
733.56	3076.05
733.74	3035.09
733.92	3555.27
734.10	3198.93
734.28	3332.05
734.46	2916.31
734.64	3198.93
734.82	3235.79
735.00	3026.90
735.18	2975.70
735.36	3256.27
735.54	3352.52
735.73	3131.34
735.91	3217.36
736.09	3536.84
736.27	3297.23
736.45	3162.06
736.63	2856.92
736.81	3125.20
736.99	3471.31
737.17	3278.80
737.35	3092.43
737.53	3309.52
737.71	3225.55
737.89	3395.53
738.07	3135.44
738.25	3117.01
738.43	2977.75
738.61	3100.62
738.80	3012.56
738.98	3090.38
739.16	3229.65
739.34	3076.05
739.52	3418.06
739.70	3299.28
739.88	3475.40
740.06	3223.50
740.24	2852.82
740.42	3426.25
740.60	2992.08
740.78	3149.78
740.96	2795.48
741.14	3241.93
741.32	3203.02
741.50	2908.12
741.68	3280.85
741.86	3518.41
742.04	2967.51
742.22	2942.93
742.40	3114.96
742.58	3487.69
742.76	3106.77
742.94	3286.99
743.12	2910.16
743.30	3284.94
743.48	3373.00
743.66	3012.56
743.84	3145.68
744.02	3203.02
744.20	3241.93
744.38	3045.33
744.56	3074.00
744.74	3657.67
744.92	3389.39
745.10	3354.57
745.28	3102.67
745.46	3598.28
745.64	3198.93
745.82	3121.10
746.00	3057.62
746.18	3350.48
746.36	3221.45
746.54	3170.26
746.72	3139.54
746.90	3063.76
747.08	3475.40
747.26	3061.71
747.44	3149.78
747.62	3334.09
747.80	3209.17
747.98	3190.74
748.15	3041.23
748.33	3712.97
748.51	3252.17
748.69	3092.43
748.87	3065.81
749.05	3194.83
749.23	3155.92
749.41	3074.00
749.59	3135.44
749.77	3559.37
749.95	3270.61
750.13	3053.52
750.31	3299.28
750.49	3282.89
750.67	3452.88
750.85	3264.46
751.03	3090.38
751.20	3700.68
751.38	3286.99
751.56	3076.05
751.74	3164.11
751.92	3190.74
752.10	3100.62
752.28	3254.22
752.46	3067.86
752.64	3332.05
752.82	3215.31
753.00	3106.77
753.18	3035.09
753.35	3166.16
753.53	3229.65
753.71	3084.24
753.89	3141.58
754.07	3358.67
754.25	3397.58
754.43	3155.92
754.61	2973.65
754.79	3350.48
754.97	3268.56
755.14	3241.93
755.32	2961.36
755.50	3272.65
755.68	3356.62
755.86	3000.27
756.04	3090.38
756.22	2895.83
756.40	3452.88
756.57	3344.33
756.75	3024.85
756.93	3401.68
757.11	3452.88
757.29	3000.27
757.47	2967.51
757.65	2949.08
757.82	2793.43
758.00	2998.23
758.18	3018.71
758.36	3108.82
758.54	3665.86
758.72	2947.03
758.90	3209.17
759.07	3407.82
759.25	3057.62
759.43	3151.82
759.61	2834.39
759.79	4507.58
759.97	3467.21
760.15	3143.63
760.32	3045.33
760.50	3325.90
760.68	3549.13
760.86	3033.04
761.04	3301.33
761.22	3471.31
761.39	3282.89
761.57	3319.76
761.75	3104.72
761.93	3481.55
762.11	3221.45
762.28	3147.73
762.46	3049.43
762.64	3497.93
762.82	3076.05
763.00	3028.95
763.18	3291.09
763.35	3088.34
763.53	3297.23
763.71	3157.97
763.89	3020.75
764.07	3311.57
764.24	3289.04
764.42	3176.40
764.60	3100.62
764.78	3315.66
764.96	3436.49
765.13	3311.57
765.31	2963.41
765.49	3442.64
765.67	3067.86
765.84	3041.23
766.02	2977.75
766.20	2947.03
766.38	3393.48
766.56	3147.73
766.73	3166.16
766.91	3200.98
767.09	3231.69
767.27	3092.43
767.44	3008.47
767.62	3393.48
767.80	3344.33
767.98	2992.08
768.15	3084.24
768.33	3395.53
768.51	3430.35
768.69	3221.45
768.87	3074.00
769.04	3344.33
769.22	3755.97
769.40	3254.22
769.58	3108.82
769.75	3411.92
769.93	3522.51
770.11	3211.22
770.28	2979.79
770.46	3375.05
770.64	3375.05
770.82	3086.29
770.99	3016.66
771.17	3508.17
771.35	3256.27
771.53	3164.11
771.70	3030.99
771.88	3403.72
772.06	3209.17
772.23	3059.67
772.41	3084.24
772.59	3164.11
772.77	3147.73
772.94	3082.19
773.12	3233.74
773.30	3223.50
773.47	3233.74
773.65	2994.13
773.83	3194.83
774.01	3272.65
774.18	2944.98
774.36	3059.67
774.54	2951.12
774.71	3332.05
774.89	3028.95
775.07	2922.45
775.24	2979.79
775.42	3090.38
775.60	3563.47
775.78	3020.75
775.95	2901.97
776.13	2942.93
776.31	2904.02
776.48	3270.61
776.66	3295.18
776.84	3196.88
777.01	3071.95
777.19	3020.75
777.37	3041.23
777.54	3330.00
777.72	3616.71
777.90	3131.34
778.07	3028.95
778.25	3901.38
778.43	3467.21
778.60	3014.61
778.78	3164.11
778.96	3512.27
779.13	3008.47
779.31	3166.16
779.49	3188.69
779.66	3411.92
779.84	3217.36
780.01	3012.56
780.19	3047.38
780.37	3540.94
780.54	3411.92
780.72	2877.40
780.90	3090.38
781.07	3149.78
781.25	3135.44
781.43	3352.52
781.60	3000.27
781.78	3520.46
781.95	3366.86
782.13	3028.95
782.31	3055.57
782.48	2918.36
782.66	3299.28
782.83	3350.48
783.01	3180.50
783.19	3409.87
783.36	3223.50
783.54	2994.13
783.72	3172.30
783.89	3166.16
784.07	3344.33
784.24	3243.98
784.42	3295.18
784.60	3223.50
784.77	3409.87
784.95	2897.88
785.12	3117.01
785.30	3248.08
785.47	3020.75
785.65	3090.38
785.83	3100.62
786.00	3207.12
786.18	3321.81
786.35	3012.56
786.53	2977.75
786.71	3481.55
786.88	3379.15
787.06	3178.45
787.23	3153.87
787.41	3016.66
787.58	3303.37
787.76	3006.42
787.94	3114.96
788.11	3332.05
788.29	3024.85
788.46	3123.15
788.64	2928.60
788.81	3272.65
788.99	3016.66
789.16	3012.56
789.34	3067.86
789.52	3166.16
789.69	3153.87
789.87	2836.44
790.04	3016.66
790.22	3289.04
790.39	3626.95
790.57	2992.08
790.74	2955.22
790.92	3422.16
791.09	2949.08
791.27	3131.34
791.44	3174.35
791.62	3284.94
791.79	3336.14
791.97	3149.78
792.15	3444.68
792.32	3422.16
792.50	3409.87
792.67	3241.93
792.85	3379.15
793.02	3366.86
793.20	3213.26
793.37	2885.59
793.55	3000.27
793.72	3016.66
793.90	3305.42
794.07	2977.75
794.25	3043.28
794.42	3260.37
794.60	3209.17
794.77	3104.72
794.95	3221.45
795.12	3336.14
795.30	3188.69
795.47	2854.87
795.65	3440.59
795.82	3370.96
796.00	3155.92
796.17	3170.26
796.34	2942.93
796.52	3346.38
796.69	3491.79
796.87	3094.48
797.04	3248.08
797.22	3407.82
797.39	3278.80
797.57	3278.80
797.74	3180.50
797.92	3327.95
798.09	3106.77
798.27	3442.64
798.44	3090.38
798.62	3280.85
798.79	3336.14
798.96	3176.40
799.14	3084.24
799.31	3739.59
799.49	3217.36
799.66	3102.67
799.84	3143.63
800.01	2918.36
800.19	3317.71
800.36	2961.36
800.53	3074.00
800.71	3272.65
800.88	3602.38
801.06	3022.80
801.23	3024.85
801.41	3198.93
801.58	3155.92
801.75	3114.96
801.93	3200.98
802.10	3399.63
802.28	3221.45
802.45	3082.19
802.63	3170.26
802.80	3536.84
802.97	3065.81
803.15	3157.97
803.32	3022.80
803.50	3112.91
803.67	3157.97
803.84	3082.19
804.02	3180.50
804.19	3149.78
804.37	2811.86
804.54	2869.20
804.71	3039.19
804.89	3274.70
805.06	3117.01
805.24	3020.75
805.41	2871.25
805.58	3055.57
805.76	3831.75
805.93	3147.73
806.10	3215.31
806.28	3323.85
806.45	3270.61
806.63	3170.26
806.80	3176.40
806.97	3291.09
807.15	3336.14
807.32	3168.21
807.49	3049.43
807.67	3024.85
807.84	3325.90
808.01	2983.89
808.19	3258.32
808.36	3663.82
808.54	3141.58
808.71	3133.39
808.88	3117.01
809.06	3561.42
809.23	3536.84
809.40	3090.38
809.58	3045.33
809.75	3229.65
809.92	3153.87
810.10	3340.24
810.27	3051.47
810.44	3303.37
810.62	3459.02
810.79	3100.62
810.96	3084.24
811.14	3223.50
811.31	3370.96
811.48	3211.22
811.66	3119.06
811.83	3508.17
812.00	3375.05
812.18	3229.65
812.35	3393.48
812.52	3229.65
812.69	3203.02
812.87	3045.33
813.04	3016.66
813.21	3223.50
813.39	3139.54
813.56	2985.94
813.73	3323.85
813.91	3028.95
814.08	3237.84
814.25	3131.34
814.42	2883.54
814.60	3196.88
814.77	3301.33
814.94	3012.56
815.12	3149.78
815.29	3676.10
815.46	3114.96
815.63	3067.86
815.81	3043.28
815.98	3233.74
816.15	3219.41
816.33	3178.45
816.50	3086.29
816.67	3178.45
816.84	3168.21
817.02	2942.93
817.19	3065.81
817.36	3317.71
817.53	3387.34
817.71	2947.03
817.88	3090.38
818.05	3207.12
818.22	3209.17
818.40	3266.51
818.57	3051.47
818.74	3409.87
818.91	3313.61
819.09	3280.85
819.26	3272.65
819.43	3092.43
819.60	3137.49
819.78	3280.85
819.95	3100.62
820.12	3039.19
820.29	3559.37
820.47	3319.76
820.64	2992.08
820.81	3037.14
820.98	3131.34
821.15	2975.70
821.33	3327.95
821.50	2895.83
821.67	3375.05
821.84	3084.24
822.02	3049.43
822.19	3352.52
822.36	3209.17
822.53	3065.81
822.70	2930.64
822.88	3180.50
823.05	3555.27
823.22	3192.78
823.39	3055.57
823.56	3221.45
823.74	3669.96
823.91	2930.64
824.08	2955.22
824.25	3092.43
824.42	3551.18
824.60	2936.79
824.77	3155.92
824.94	3153.87
825.11	3385.29
825.28	2979.79
825.45	3219.41
825.63	3293.13
825.80	3076.05
825.97	3180.50
826.14	3209.17
826.31	2908.12
826.48	3305.42
826.66	3110.86
826.83	2951.12
827.00	3252.17
827.17	3059.67
827.34	3092.43
827.51	3002.32
827.69	3188.69
827.86	2990.03
828.03	3125.20
828.20	3131.34
828.37	3235.79
828.54	3377.10
828.71	3098.58
828.89	3207.12
829.06	3364.81
829.23	3536.84
829.40	3151.82
829.57	3039.19
829.74	3385.29
829.91	3153.87
830.09	3033.04
830.26	3203.02
830.43	3590.09
830.60	3213.26
830.77	3229.65
830.94	3250.13
831.11	3393.48
831.28	3209.17
831.46	3215.31
831.63	3133.39
831.80	3370.96
831.97	3145.68
832.14	3061.71
832.31	3086.29
832.48	3315.66
832.65	3434.44
832.82	3147.73
832.99	3182.54
833.17	3028.95
833.34	3573.71
833.51	3041.23
833.68	2850.77
833.85	3504.07
834.02	3074.00
834.19	2996.18
834.36	3096.53
834.53	3321.81
834.70	3467.21
834.87	3063.76
835.04	2875.35
835.22	3100.62
835.39	3205.07
835.56	2926.55
835.73	2920.40
835.90	3524.55
836.07	3069.91
836.24	3016.66
836.41	2883.54
836.58	3123.15
836.75	3475.40
836.92	2895.83
837.09	2848.72
837.26	3405.77
837.43	3368.91
837.60	2942.93
837.77	2916.31
837.94	3493.83
838.12	3475.40
838.29	2942.93
838.46	2807.77
838.63	3016.66
838.80	3585.99
838.97	3030.99
839.14	2858.96
839.31	3295.18
839.48	3305.42
839.65	2852.82
839.82	2992.08
839.99	3274.70
840.16	3286.99
840.33	2844.63
840.50	2928.60
840.67	3188.69
840.84	2830.29
841.01	2887.64
841.18	2891.73
841.35	3241.93
841.52	3395.53
841.69	3323.85
841.86	3022.80
842.03	3284.94
842.20	3438.54
842.37	2899.92
842.54	2951.12
842.71	3262.41
842.88	2963.41
843.05	2858.96
843.22	2893.78
843.39	3461.07
843.56	3117.01
843.73	2852.82
843.90	2985.94
844.07	3174.35
844.24	3420.11
844.41	3012.56
844.58	3012.56
844.75	3268.56
844.92	3243.98
845.09	2969.55
845.26	2963.41
845.43	3442.64
845.60	3190.74
845.77	3049.43
845.94	2947.03
846.10	3418.06
846.27	2889.68
846.44	2805.72
846.61	2787.29
846.78	3418.06
846.95	3395.53
847.12	2926.55
847.29	3002.32
847.46	3117.01
847.63	3399.63
847.80	2809.81
847.97	2895.83
848.14	3702.73
848.31	3229.65
848.48	2731.99
848.65	2926.55
848.82	3162.06
848.98	3841.99
849.15	3106.77
849.32	3041.23
849.49	3495.88
849.66	3180.50
849.83	2930.64
850.00	2906.07
850.17	3459.02
850.34	3082.19
850.51	2836.44
850.68	2906.07
850.85	3776.45
851.01	3270.61
851.18	2904.02
851.35	2959.31
851.52	3276.75
851.69	3577.80
851.86	2822.10
852.03	2869.20
852.20	3446.73
852.37	3315.66
852.53	2768.85
852.70	2856.92
852.87	3231.69
853.04	3407.82
853.21	2951.12
853.38	3227.60
853.55	3506.12
853.72	3532.75
853.89	2803.67
854.05	2904.02
854.22	3319.76
854.39	3141.58
854.56	2799.57
854.73	3069.91
854.90	3049.43
855.07	3213.26
855.23	2863.06
855.40	2844.63
855.57	3203.02
855.74	2877.40
855.91	3051.47
856.08	2781.14
856.25	2987.99
856.41	3131.34
856.58	2928.60
856.75	2965.46
856.92	3110.86
857.09	3481.55
857.26	2748.37
857.42	3008.47
857.59	3381.20
857.76	3188.69
857.93	2918.36
858.10	3041.23
858.27	3024.85
858.43	3248.08
858.60	2957.27
858.77	2813.91
858.94	3174.35
859.11	3590.09
859.27	2987.99
859.44	2861.01
859.61	3682.25
859.78	3293.13
859.95	2848.72
860.12	2893.78
860.28	3659.72
860.45	3700.68
860.62	2897.88
860.79	2983.89
860.95	3194.83
861.12	3098.58
861.29	2764.76
861.46	2820.05
861.63	3231.69
861.79	3325.90
861.96	2897.88
862.13	2856.92
862.30	3536.84
862.47	3149.78
862.63	2811.86
862.80	2904.02
862.97	3536.84
863.14	3286.99
863.30	2990.03
863.47	2865.11
863.64	3485.64
863.81	3354.57
863.97	2854.87
864.14	2992.08
864.31	3235.79
864.48	3330.00
864.65	2926.55
864.81	3051.47
864.98	3387.34
865.15	3426.25
865.32	2977.75
865.48	3026.90
865.65	3665.86
865.82	3094.48
865.98	2973.65
866.15	2942.93
866.32	3207.12
866.49	3205.07
866.65	3086.29
866.82	2826.20
866.99	3209.17
867.16	3086.29
867.32	2912.21
867.49	2838.48
867.66	3182.54
867.83	3141.58
867.99	2822.10
868.16	2971.60
868.33	3106.77
868.49	3186.64
868.66	2932.69
868.83	2934.74
868.99	3229.65
869.16	3278.80
869.33	3035.09
869.50	3033.04
869.66	3297.23
869.83	3139.54
870.00	2850.77
870.16	3084.24
870.33	3243.98
870.50	3409.87
870.66	3047.38
870.83	2969.55
871.00	3225.55
871.17	3268.56
871.33	2932.69
871.50	2852.82
871.67	3155.92
871.83	3100.62
872.00	3102.67
872.17	2957.27
872.33	3661.77
872.50	3459.02
872.67	2912.21
872.83	2914.26
873.00	3303.37
873.17	3319.76
873.33	2912.21
873.50	2957.27
873.67	3106.77
873.83	3067.86
874.00	2869.20
874.16	3065.81
874.33	3221.45
874.50	2940.88
874.66	2861.01
874.83	3035.09
875.00	3561.42
875.16	3493.83
875.33	2951.12
875.50	2709.46
875.66	3157.97
875.83	3291.09
875.99	2996.18
876.16	3028.95
876.33	3051.47
876.49	3139.54
876.66	2979.79
876.83	2885.59
876.99	3000.27
877.16	3291.09
877.32	2951.12
877.49	2922.45
877.66	3377.10
877.82	3542.99
877.99	2955.22
878.15	3229.65
878.32	3254.22
878.49	3289.04
878.65	2934.74
878.82	3209.17
878.98	3168.21
879.15	3456.97
879.32	3119.06
879.48	3139.54
879.65	3284.94
879.81	3215.31
879.98	3010.51
880.15	2953.17
880.31	3401.68
880.48	3108.82
880.64	3026.90
880.81	3127.25
880.97	3538.89
881.14	3540.94
881.31	2901.97
881.47	3137.49
881.64	3248.08
881.80	3047.38
881.97	3030.99
882.13	2916.31
882.30	3014.61
882.47	3145.68
882.63	2981.84
882.80	2967.51
882.96	3106.77
883.13	3461.07
883.29	2910.16
883.46	2834.39
883.62	3737.54
883.79	3164.11
883.95	3164.11
884.12	2875.35
884.29	3485.64
884.45	3311.57
884.62	2973.65
884.78	2947.03
884.95	3577.80
885.11	2985.94
885.28	2967.51
885.44	2996.18
885.61	3364.81
885.77	3520.46
885.94	3076.05
886.10	3039.19
886.27	3246.03
886.43	3657.67
886.60	3186.64
886.76	3024.85
886.93	3160.02
887.09	3311.57
887.26	2779.09
887.42	2975.70
887.59	3520.46
887.75	3766.21
887.92	3065.81
888.08	3008.47
888.25	3688.39
888.41	3502.03
888.58	2912.21
888.74	2936.79
888.91	3147.73
>>>>>End Processed Spectral Data<<<<<
