SpectraSuite Data File
++++++++++++++++++++++++++++++++++++
Date: Fri May 06 08:14:40 CEST 2016
User: root
Dark Spectrum Present: No
Reference Spectrum Present: No
Number of Sampled Component Spectra: 1
Spectrometers: USB4C02835
Integration Time (usec): 100000 (USB4C02835)
Spectra Averaged: 1 (USB4C02835)
Boxcar Smoothing: 0 (USB4C02835)
Correct for Electrical Dark: No (USB4C02835)
Strobe/Lamp Enabled: No (USB4C02835)
Correct for Detector Non-linearity: No (USB4C02835)
Correct for Stray Light: No (USB4C02835)
Number of Pixels in Processed Spectrum: 3648
>>>>>Begin Processed Spectral Data<<<<<
177.47	2248.67
177.69	2248.67
177.91	2248.67
178.13	2228.19
178.36	2283.49
178.58	3045.33
178.80	3092.43
179.02	3008.47
179.24	3125.20
179.46	2764.76
179.68	2856.92
179.90	3266.51
180.13	3311.57
180.35	2639.83
180.57	2828.24
180.79	3452.88
181.01	3223.50
181.23	2916.31
181.45	3016.66
181.67	3444.68
181.90	3446.73
182.12	2963.41
182.34	2682.84
182.56	3424.20
182.78	3405.77
183.00	2881.49
183.22	2926.55
183.44	2969.55
183.66	3870.66
183.89	3071.95
184.11	2918.36
184.33	3459.02
184.55	3542.99
184.77	2807.77
184.99	2838.48
185.21	3258.32
185.43	3749.83
185.65	2848.72
185.87	2799.57
186.10	3686.34
186.32	3745.73
186.54	3014.61
186.76	2967.51
186.98	3432.40
187.20	3256.27
187.42	2934.74
187.64	2877.40
187.86	3393.48
188.08	3522.51
188.30	2734.04
188.52	2848.72
188.75	3583.95
188.97	3542.99
189.19	2840.53
189.41	2885.59
189.63	3393.48
189.85	3248.08
190.07	2721.75
190.29	2742.23
190.51	3426.25
190.73	3071.95
190.95	3057.62
191.17	2928.60
191.39	2985.94
191.61	3221.45
191.84	2877.40
192.06	3074.00
192.28	3022.80
192.50	3942.34
192.72	3026.90
192.94	2969.55
193.16	3491.79
193.38	3370.96
193.60	2740.18
193.82	3008.47
194.04	3491.79
194.26	3354.57
194.48	2836.44
194.70	2828.24
194.92	3297.23
195.14	3426.25
195.36	2783.19
195.58	3000.27
195.80	3254.22
196.02	3168.21
196.24	2725.85
196.46	2928.60
196.69	3200.98
196.91	3774.41
197.13	2973.65
197.35	2924.50
197.57	3669.96
197.79	3330.00
198.01	2908.12
198.23	2875.35
198.45	3502.03
198.67	3018.71
198.89	2729.94
199.11	3024.85
199.33	3078.10
199.55	2824.15
199.77	2840.53
199.99	3063.76
200.21	3213.26
200.43	3413.96
200.65	2738.13
200.87	2746.33
201.09	3237.84
201.31	3225.55
201.53	2895.83
201.75	2949.08
201.97	3254.22
202.19	3233.74
202.41	2885.59
202.63	3026.90
202.85	3428.30
203.07	3315.66
203.29	2963.41
203.51	2723.80
203.73	3164.11
203.95	3760.07
204.17	2863.06
204.39	3010.51
204.61	3307.47
204.83	3198.93
205.05	3010.51
205.27	2901.97
205.49	3663.82
205.71	3358.67
205.93	2715.61
206.15	2705.37
206.37	3336.14
206.59	3241.93
206.81	2697.17
207.03	2680.79
207.25	3123.15
207.47	3526.60
207.69	2883.54
207.91	3074.00
208.13	3616.71
208.34	3098.58
208.56	2852.82
208.78	2893.78
209.00	3186.64
209.22	3256.27
209.44	2893.78
209.66	2838.48
209.88	3299.28
210.10	3207.12
210.32	2715.61
210.54	2885.59
210.76	3149.78
210.98	3516.36
211.20	2754.52
211.42	2975.70
211.64	3567.56
211.86	3442.64
212.08	2912.21
212.30	2844.63
212.52	3174.35
212.74	3438.54
212.96	2983.89
213.17	2983.89
213.39	3401.68
213.61	3633.10
213.83	2842.58
214.05	2734.04
214.27	3516.36
214.49	3092.43
214.71	2844.63
214.93	3067.86
215.15	3274.70
215.37	3450.83
215.59	2721.75
215.81	2924.50
216.03	3618.76
216.24	3332.05
216.46	2879.44
216.68	2901.97
216.90	3487.69
217.12	3444.68
217.34	2852.82
217.56	3090.38
217.78	3581.90
218.00	3426.25
218.22	2994.13
218.44	2942.93
218.66	3360.72
218.87	3624.90
219.09	2901.97
219.31	2885.59
219.53	3354.57
219.75	3168.21
219.97	2877.40
220.19	2934.74
220.41	3311.57
220.63	3624.90
220.85	2928.60
221.06	2889.68
221.28	3481.55
221.50	3418.06
221.72	2854.87
221.94	2787.29
222.16	3274.70
222.38	3502.03
222.60	2852.82
222.82	2930.64
223.03	3461.07
223.25	3008.47
223.47	2832.34
223.69	3096.53
223.91	3340.24
224.13	3268.56
224.35	2746.33
224.57	3047.38
224.78	3368.91
225.00	3153.87
225.22	2979.79
225.44	2824.15
225.66	3383.24
225.88	3229.65
226.10	2975.70
226.32	2920.40
226.53	3491.79
226.75	3200.98
226.97	2947.03
227.19	2848.72
227.41	3121.10
227.63	3215.31
227.85	2660.31
228.06	2895.83
228.28	3313.61
228.50	3461.07
228.72	2672.60
228.94	2820.05
229.16	2883.54
229.37	3074.00
229.59	2834.39
229.81	3176.40
230.03	3211.22
230.25	2895.83
230.47	2727.89
230.69	2848.72
230.90	3452.88
231.12	3166.16
231.34	2979.79
231.56	2942.93
231.78	3098.58
232.00	3315.66
232.21	2867.16
232.43	2996.18
232.65	2828.24
232.87	3407.82
233.09	2693.08
233.30	2805.72
233.52	3473.36
233.74	3205.07
233.96	2754.52
234.18	2992.08
234.40	3192.78
234.61	3803.08
234.83	2721.75
235.05	2795.48
235.27	3762.12
235.49	3491.79
235.70	2838.48
235.92	2936.79
236.14	3354.57
236.36	3807.17
236.58	2777.05
236.79	2922.45
237.01	3311.57
237.23	3293.13
237.45	3100.62
237.67	2899.92
237.88	3360.72
238.10	3590.09
238.32	2754.52
238.54	2881.49
238.76	3235.79
238.97	3071.95
239.19	2783.19
239.41	2959.31
239.63	3565.51
239.85	3254.22
240.06	2924.50
240.28	2836.44
240.50	3510.22
240.72	3309.52
240.93	2797.53
241.15	2926.55
241.37	3282.89
241.59	3565.51
241.81	2893.78
242.02	2973.65
242.24	3387.34
242.46	3418.06
242.68	2682.84
242.89	2779.09
243.11	3489.74
243.33	3252.17
243.55	2959.31
243.76	2838.48
243.98	3117.01
244.20	3252.17
244.42	2750.42
244.64	2793.43
244.85	3098.58
245.07	3078.10
245.29	2861.01
245.51	2811.86
245.72	3317.71
245.94	3483.59
246.16	2889.68
246.38	2949.08
246.59	3241.93
246.81	3137.49
247.03	2760.66
247.24	2723.80
247.46	3172.30
247.68	3246.03
247.90	2820.05
248.11	2838.48
248.33	3379.15
248.55	3225.55
248.77	2869.20
248.98	2975.70
249.20	3616.71
249.42	3338.19
249.64	2803.67
249.85	2863.06
250.07	3196.88
250.29	3454.92
250.50	2904.02
250.72	2877.40
250.94	3385.29
251.16	3698.63
251.37	2787.29
251.59	2912.21
251.81	3373.00
252.02	3655.62
252.24	2723.80
252.46	2971.60
252.68	3106.77
252.89	3108.82
253.11	2648.02
253.33	3016.66
253.54	3610.57
253.76	3041.23
253.98	2899.92
254.20	2848.72
254.41	3033.04
254.63	3205.07
254.85	2738.13
255.06	2930.64
255.28	3452.88
255.50	3258.32
255.71	2748.37
255.93	2723.80
256.15	3280.85
256.36	3330.00
256.58	2695.13
256.80	2787.29
257.02	3176.40
257.23	3237.84
257.45	2883.54
257.67	2981.84
257.88	3243.98
258.10	3418.06
258.32	2822.10
258.53	2926.55
258.75	3635.14
258.97	3108.82
259.18	2744.28
259.40	2783.19
259.62	3665.86
259.83	3688.39
260.05	2934.74
260.27	3862.47
260.48	3479.50
260.70	3119.06
260.92	2691.03
261.13	2910.16
261.35	3278.80
261.57	3330.00
261.78	2791.38
262.00	2766.81
262.22	3377.10
262.43	3168.21
262.65	2885.59
262.86	2918.36
263.08	3780.55
263.30	3330.00
263.51	2699.22
263.73	2801.62
263.95	3493.83
264.16	3203.02
264.38	2756.57
264.60	2758.61
264.81	3248.08
265.03	3532.75
265.25	3366.86
265.46	2809.81
265.68	3430.35
265.89	3391.44
266.11	2709.46
266.33	2877.40
266.54	3473.36
266.76	3362.76
266.98	2975.70
267.19	3106.77
267.41	3463.12
267.62	3282.89
267.84	2686.94
268.06	2959.31
268.27	3262.41
268.49	3575.75
268.70	2926.55
268.92	2879.44
269.14	3082.19
269.35	2949.08
269.57	2957.27
269.79	2914.26
270.00	3131.34
270.22	3626.95
270.43	2736.09
270.65	2717.65
270.87	3364.81
271.08	3356.62
271.30	2971.60
271.51	2871.25
271.73	3387.34
271.95	3553.23
272.16	2832.34
272.38	3022.80
272.59	3196.88
272.81	3446.73
273.02	2813.91
273.24	2914.26
273.46	3545.03
273.67	3004.37
273.89	2695.13
274.10	2912.21
274.32	3495.88
274.54	3321.81
274.75	3006.42
274.97	3024.85
275.18	3368.91
275.40	3344.33
275.61	2928.60
275.83	3035.09
276.05	3063.76
276.26	3338.19
276.48	3018.71
276.69	3014.61
276.91	3117.01
277.12	3598.28
277.34	3063.76
277.55	3057.62
277.77	3393.48
277.99	3217.36
278.20	3059.67
278.42	2906.07
278.63	3149.78
278.85	3080.14
279.06	2942.93
279.28	3067.86
279.49	3569.61
279.71	3405.77
279.93	2963.41
280.14	3098.58
280.36	3176.40
280.57	3594.19
280.79	3139.54
281.00	2809.81
281.22	3180.50
281.43	3526.60
281.65	2797.53
281.86	2942.93
282.08	3401.68
282.29	3629.00
282.51	2852.82
282.73	2899.92
282.94	2975.70
283.16	3446.73
283.37	3086.29
283.59	3020.75
283.80	3387.34
284.02	3235.79
284.23	3030.99
284.45	3076.05
284.66	3094.48
284.88	3094.48
285.09	2861.01
285.31	3100.62
285.52	3405.77
285.74	3010.51
285.95	3127.25
286.17	3086.29
286.38	3553.23
286.60	3248.08
286.81	2932.69
287.03	2881.49
287.24	3258.32
287.46	3504.07
287.67	3172.30
287.89	3192.78
288.10	3282.89
288.32	3303.37
288.53	3131.34
288.75	2990.03
288.96	3399.63
289.18	3168.21
289.39	3026.90
289.61	3084.24
289.82	3786.69
290.04	3723.21
290.25	2879.44
290.47	3082.19
290.68	3213.26
290.90	3495.88
291.11	2850.77
291.33	3121.10
291.54	3119.06
291.76	3200.98
291.97	3078.10
292.18	3030.99
292.40	3174.35
292.61	3090.38
292.83	3268.56
293.04	2992.08
293.26	3254.22
293.47	3198.93
293.69	2906.07
293.90	2887.64
294.12	3540.94
294.33	3295.18
294.55	2961.36
294.76	3137.49
294.97	3540.94
295.19	3807.17
295.40	2920.40
295.62	3012.56
295.83	3504.07
296.05	3108.82
296.26	3260.37
296.48	2949.08
296.69	3323.85
296.90	3303.37
297.12	3162.06
297.33	3131.34
297.55	3282.89
297.76	3399.63
297.98	3119.06
298.19	3069.91
298.41	3250.13
298.62	3139.54
298.83	3203.02
299.05	3080.14
299.26	3227.60
299.48	3098.58
299.69	3033.04
299.90	2981.84
300.12	3053.52
300.33	3344.33
300.55	3049.43
300.76	3051.47
300.98	3055.57
301.19	3362.76
301.40	3057.62
301.62	3000.27
301.83	3383.24
302.05	3309.52
302.26	2928.60
302.47	3106.77
302.69	2996.18
302.90	3221.45
303.12	2822.10
303.33	3196.88
303.54	3686.34
303.76	3198.93
303.97	2920.40
304.19	3149.78
304.40	3172.30
304.61	3387.34
304.83	3045.33
305.04	3028.95
305.26	3370.96
305.47	3196.88
305.68	2983.89
305.90	2758.61
306.11	3534.79
306.33	3205.07
306.54	2822.10
306.75	2908.12
306.97	3024.85
307.18	3074.00
307.39	2959.31
307.61	3033.04
307.82	3237.84
308.04	3330.00
308.25	2850.77
308.46	3157.97
308.68	3217.36
308.89	3282.89
309.10	3084.24
309.32	3039.19
309.53	3229.65
309.74	3332.05
309.96	2908.12
310.17	3067.86
310.39	3192.78
310.60	3397.58
310.81	3151.82
311.03	2940.88
311.24	3452.88
311.45	3284.94
311.67	3207.12
311.88	3102.67
312.09	3174.35
312.31	3129.30
312.52	2889.68
312.73	2955.22
312.95	3061.71
313.16	3166.16
313.37	3160.02
313.59	3205.07
313.80	3393.48
314.01	3532.75
314.23	2994.13
314.44	2904.02
314.65	3112.91
314.87	3059.67
315.08	2975.70
315.29	2994.13
315.51	3090.38
315.72	3006.42
315.93	3051.47
316.15	2996.18
316.36	3162.06
316.57	3399.63
316.79	2944.98
317.00	2985.94
317.21	3559.37
317.43	3141.58
317.64	3006.42
317.85	2928.60
318.07	3157.97
318.28	3264.46
318.49	3069.91
318.70	3123.15
318.92	3401.68
319.13	3368.91
319.34	3125.20
319.56	3016.66
319.77	3336.14
319.98	3479.50
320.20	3278.80
320.41	3174.35
320.62	3379.15
320.83	3086.29
321.05	3182.54
321.26	2987.99
321.47	3295.18
321.69	3450.83
321.90	2928.60
322.11	2889.68
322.32	3375.05
322.54	3526.60
322.75	3106.77
322.96	3958.72
323.18	2969.55
323.39	2914.26
323.60	2887.64
323.81	3030.99
324.03	3137.49
324.24	3200.98
324.45	3143.63
324.66	2936.79
324.88	3442.64
325.09	3641.29
325.30	3024.85
325.52	2914.26
325.73	3325.90
325.94	3102.67
326.15	2904.02
326.37	2914.26
326.58	3536.84
326.79	3680.20
327.00	2965.46
327.22	2934.74
327.43	3117.01
327.64	3108.82
327.85	3196.88
328.07	3078.10
328.28	3629.00
328.49	3155.92
328.70	2928.60
328.92	3037.14
329.13	3272.65
329.34	3344.33
329.55	3235.79
329.76	3157.97
329.98	3229.65
330.19	3469.26
330.40	3162.06
330.61	3192.78
330.83	3473.36
331.04	3059.67
331.25	3067.86
331.46	3164.11
331.68	3024.85
331.89	3567.56
332.10	3074.00
332.31	2858.96
332.52	3227.60
332.74	3469.26
332.95	2854.87
333.16	3014.61
333.37	3379.15
333.58	3141.58
333.80	3039.19
334.01	2836.44
334.22	3256.27
334.43	3254.22
334.64	2969.55
334.86	2983.89
335.07	3131.34
335.28	3553.23
335.49	2942.93
335.70	3172.30
335.92	3585.99
336.13	3764.17
336.34	3047.38
336.55	2975.70
336.76	3362.76
336.98	2969.55
337.19	3016.66
337.40	3106.77
337.61	3831.75
337.82	3180.50
338.04	3057.62
338.25	2848.72
338.46	3207.12
338.67	3211.22
338.88	2926.55
339.09	2848.72
339.31	3205.07
339.52	3018.71
339.73	2965.46
339.94	3037.14
340.15	3508.17
340.36	3155.92
340.58	3067.86
340.79	2987.99
341.00	3340.24
341.21	3063.76
341.42	3248.08
341.63	2996.18
341.85	3463.12
342.06	3219.41
342.27	2944.98
342.48	3172.30
342.69	3041.23
342.90	3356.62
343.12	3370.96
343.33	2926.55
343.54	3450.83
343.75	3528.65
343.96	3125.20
344.17	2883.54
344.38	3225.55
344.60	3090.38
344.81	2910.16
345.02	2983.89
345.23	3463.12
345.44	3866.56
345.65	3035.09
345.86	3076.05
346.07	3299.28
346.29	3143.63
346.50	3160.02
346.71	3006.42
346.92	3499.98
347.13	3762.12
347.34	3074.00
347.55	2885.59
347.76	3344.33
347.98	3039.19
348.19	3057.62
348.40	3176.40
348.61	3229.65
348.82	3542.99
349.03	3117.01
349.24	2836.44
349.45	3694.54
349.66	2871.25
349.88	2961.36
350.09	2865.11
350.30	3502.03
350.51	3565.51
350.72	3143.63
350.93	3065.81
351.14	3149.78
351.35	3418.06
351.56	3004.37
351.77	3100.62
351.99	3393.48
352.20	3545.03
352.41	3153.87
352.62	2865.11
352.83	3286.99
353.04	3246.03
353.25	3024.85
353.46	3035.09
353.67	3577.80
353.88	2955.22
354.09	2891.73
354.30	3049.43
354.52	3426.25
354.73	3194.83
354.94	2887.64
355.15	3045.33
355.36	3686.34
355.57	3209.17
355.78	2934.74
355.99	3076.05
356.20	3239.89
356.41	3526.60
356.62	3094.48
356.83	3010.51
357.04	3461.07
357.25	2969.55
357.46	3006.42
357.68	2992.08
357.89	3131.34
358.10	3272.65
358.31	2977.75
358.52	2953.17
358.73	2998.23
358.94	3002.32
359.15	2975.70
359.36	3078.10
359.57	3350.48
359.78	3252.17
359.99	3180.50
360.20	2930.64
360.41	3215.31
360.62	3366.86
360.83	3028.95
361.04	3041.23
361.25	3323.85
361.46	3657.67
361.67	3114.96
361.88	3041.23
362.09	3452.88
362.30	3301.33
362.51	2942.93
362.72	3110.86
362.93	3420.11
363.14	3467.21
363.35	3090.38
363.56	2961.36
363.78	3475.40
363.99	3483.59
364.20	3016.66
364.41	3090.38
364.62	3637.19
364.83	3360.72
365.04	3096.53
365.25	3059.67
365.46	3694.54
365.67	3157.97
365.88	3155.92
366.09	3016.66
366.30	3219.41
366.51	3340.24
366.72	3008.47
366.93	3055.57
367.14	3327.95
367.35	3542.99
367.56	2930.64
367.77	3135.44
367.98	3217.36
368.18	3385.29
368.39	3135.44
368.60	2949.08
368.81	3401.68
369.02	3327.95
369.23	3084.24
369.44	2807.77
369.65	3112.91
369.86	3358.67
370.07	3045.33
370.28	2951.12
370.49	3309.52
370.70	3340.24
370.91	2985.94
371.12	2858.96
371.33	3504.07
371.54	3147.73
371.75	3108.82
371.96	2791.38
372.17	3383.24
372.38	3256.27
372.59	2959.31
372.80	2971.60
373.01	3299.28
373.22	3295.18
373.43	2992.08
373.64	2879.44
373.85	3547.08
374.06	3616.71
374.26	3164.11
374.47	3063.76
374.68	3508.17
374.89	3276.75
375.10	2975.70
375.31	3106.77
375.52	3254.22
375.73	3332.05
375.94	2883.54
376.15	3170.26
376.36	3174.35
376.57	3078.10
376.78	3026.90
376.99	3074.00
377.20	3463.12
377.40	3184.59
377.61	3286.99
377.82	2975.70
378.03	3602.38
378.24	3350.48
378.45	3074.00
378.66	3057.62
378.87	3008.47
379.08	3053.52
379.29	2944.98
379.50	3127.25
379.71	3200.98
379.91	3364.81
380.12	2906.07
380.33	3098.58
380.54	3266.51
380.75	3231.69
380.96	3080.14
381.17	3041.23
381.38	3143.63
381.59	3248.08
381.80	3041.23
382.00	3168.21
382.21	3389.39
382.42	3581.90
382.63	3307.47
382.84	3229.65
383.05	3475.40
383.26	3549.13
383.47	3178.45
383.68	2981.84
383.88	3362.76
384.09	3323.85
384.30	3246.03
384.51	3190.74
384.72	3205.07
384.93	3080.14
385.14	3053.52
385.35	3270.61
385.55	2959.31
385.76	3534.79
385.97	3080.14
386.18	2883.54
386.39	3139.54
386.60	3172.30
386.81	3086.29
387.02	2932.69
387.22	3082.19
387.43	3313.61
387.64	3145.68
387.85	3246.03
388.06	3262.41
388.27	4362.17
388.48	7735.18
388.68	11917.13
388.89	15097.63
389.10	16215.82
389.31	16019.21
389.52	12945.21
389.73	11216.72
389.93	10340.19
390.14	9209.72
390.35	8613.76
390.56	7878.54
390.77	6557.60
390.98	4986.80
391.18	4147.14
391.39	3934.15
391.60	3239.89
391.81	3311.57
392.02	3024.85
392.23	3794.89
392.43	3325.90
392.64	3200.98
392.85	3200.98
393.06	3581.90
393.27	3248.08
393.47	2961.36
393.68	3080.14
393.89	3198.93
394.10	3483.59
394.31	3028.95
394.52	2977.75
394.72	3155.92
394.93	3610.57
395.14	2932.69
395.35	3123.15
395.56	3198.93
395.76	3241.93
395.97	3049.43
396.18	3209.17
396.39	3319.76
396.60	3944.39
396.80	3469.26
397.01	3299.28
397.22	3463.12
397.43	3540.94
397.64	3059.67
397.84	3071.95
398.05	3631.05
398.26	3303.37
398.47	3147.73
398.67	3278.80
398.88	3332.05
399.09	3487.69
399.30	3002.32
399.51	3069.91
399.71	3041.23
399.92	3250.13
400.13	3133.39
400.34	3129.30
400.54	3254.22
400.75	3553.23
400.96	3194.83
401.17	3346.38
401.37	3356.62
401.58	3272.65
401.79	2981.84
402.00	3106.77
402.21	3866.56
402.41	3399.63
402.62	3389.39
402.83	3434.44
403.04	3778.50
403.24	4104.13
403.45	3176.40
403.66	3377.10
403.87	3534.79
404.07	3565.51
404.28	3323.85
404.49	3319.76
404.70	3403.72
404.90	3493.83
405.11	2975.70
405.32	3076.05
405.52	3190.74
405.73	3190.74
405.94	2963.41
406.15	3114.96
406.35	3389.39
406.56	3428.30
406.77	3104.72
406.98	3055.57
407.18	3166.16
407.39	3565.51
407.60	3157.97
407.80	3082.19
408.01	3274.70
408.22	3418.06
408.43	2942.93
408.63	3100.62
408.84	3403.72
409.05	3446.73
409.25	2990.03
409.46	3041.23
409.67	3241.93
409.88	3190.74
410.08	3078.10
410.29	2981.84
410.50	3475.40
410.70	3348.43
410.91	2912.21
411.12	3125.20
411.32	3241.93
411.53	3131.34
411.74	3057.62
411.95	3088.34
412.15	3405.77
412.36	3497.93
412.57	3221.45
412.77	3215.31
412.98	3241.93
413.19	3211.22
413.39	3164.11
413.60	3084.24
413.81	3547.08
414.01	3102.67
414.22	3090.38
414.43	3229.65
414.63	3182.54
414.84	3442.64
415.05	3012.56
415.25	2955.22
415.46	3413.96
415.67	3147.73
415.87	3037.14
416.08	3053.52
416.29	3225.55
416.49	3407.82
416.70	3121.10
416.91	3057.62
417.11	3241.93
417.32	3506.12
417.53	3147.73
417.73	3110.86
417.94	3219.41
418.15	3346.38
418.35	3074.00
418.56	3082.19
418.77	3704.78
418.97	3307.47
419.18	3164.11
419.38	2705.37
419.59	3239.89
419.80	3647.43
420.00	2967.51
420.21	3069.91
420.42	3567.56
420.62	3450.83
420.83	3117.01
421.04	3028.95
421.24	3229.65
421.45	3368.91
421.65	3133.39
421.86	3026.90
422.07	3479.50
422.27	3448.78
422.48	2949.08
422.69	2871.25
422.89	3262.41
423.10	3254.22
423.30	3018.71
423.51	3104.72
423.72	3354.57
423.92	3387.34
424.13	2850.77
424.33	3160.02
424.54	3499.98
424.75	3305.42
424.95	3207.12
425.16	2987.99
425.36	3231.69
425.57	3467.21
425.78	3145.68
425.98	3176.40
426.19	3301.33
426.39	3108.82
426.60	3151.82
426.81	3188.69
427.01	3430.35
427.22	3155.92
427.42	2926.55
427.63	3000.27
427.83	3545.03
428.04	3647.43
428.25	3184.59
428.45	3117.01
428.66	3469.26
428.86	3254.22
429.07	3160.02
429.28	3123.15
429.48	3278.80
429.69	3141.58
429.89	3129.30
430.10	2977.75
430.30	3485.64
430.51	3545.03
430.71	3039.19
430.92	3076.05
431.13	3192.78
431.33	3401.68
431.54	3190.74
431.74	3284.94
431.95	3645.38
432.15	3043.28
432.36	3030.99
432.56	3129.30
432.77	3659.72
432.98	3641.29
433.18	3119.06
433.39	2871.25
433.59	3241.93
433.80	3672.01
434.00	3272.65
434.21	3102.67
434.41	3112.91
434.62	3852.23
434.82	2942.93
435.03	3016.66
435.23	3289.04
435.44	3000.27
435.64	3063.76
435.85	3096.53
436.06	3461.07
436.26	3573.71
436.47	3078.10
436.67	2959.31
436.88	3207.12
437.08	3461.07
437.29	3125.20
437.49	3172.30
437.70	3569.61
437.90	3237.84
438.11	3286.99
438.31	3059.67
438.52	3524.55
438.72	3522.51
438.93	3344.33
439.13	3106.77
439.34	3499.98
439.54	3229.65
439.75	3243.98
439.95	3155.92
440.16	3114.96
440.36	3248.08
440.57	3047.38
440.77	3035.09
440.98	3289.04
441.18	3379.15
441.39	2897.88
441.59	3059.67
441.80	3647.43
442.00	3241.93
442.21	3231.69
442.41	2871.25
442.62	3426.25
442.82	3094.48
443.02	3057.62
443.23	3114.96
443.43	3172.30
443.64	3477.45
443.84	2961.36
444.05	3196.88
444.25	3258.32
444.46	3237.84
444.66	3071.95
444.87	3338.19
445.07	2975.70
445.28	3213.26
445.48	3270.61
445.69	3194.83
445.89	3807.17
446.09	3248.08
446.30	3416.01
446.50	3512.27
446.71	5162.93
446.91	6258.59
447.12	7094.16
447.32	7608.20
447.53	7546.76
447.73	6455.20
447.93	5687.21
448.14	5214.13
448.34	5371.82
448.55	4591.55
448.75	4556.73
448.96	4288.45
449.16	4100.03
449.36	3837.89
449.57	3358.67
449.77	3176.40
449.98	3196.88
450.18	3315.66
450.39	2998.23
450.59	3260.37
450.79	3270.61
451.00	3139.54
451.20	3323.85
451.41	3076.05
451.61	3393.48
451.81	3139.54
452.02	3002.32
452.22	3022.80
452.43	3098.58
452.63	3225.55
452.84	3155.92
453.04	2901.97
453.24	3315.66
453.45	3153.87
453.65	3057.62
453.86	3127.25
454.06	3301.33
454.26	3264.46
454.47	3071.95
454.67	3225.55
454.87	3336.14
455.08	3270.61
455.28	3190.74
455.49	3229.65
455.69	3051.47
455.89	3778.50
456.10	3178.45
456.30	3049.43
456.51	3530.70
456.71	3239.89
456.91	3168.21
457.12	3053.52
457.32	3413.96
457.52	3086.29
457.73	3229.65
457.93	3205.07
458.14	3145.68
458.34	2858.96
458.54	3090.38
458.75	3002.32
458.95	3557.32
459.15	3346.38
459.36	3069.91
459.56	3084.24
459.76	3786.69
459.97	3254.22
460.17	3051.47
460.37	3102.67
460.58	3207.12
460.78	3450.83
460.99	3082.19
461.19	3098.58
461.39	3172.30
461.60	3186.64
461.80	3131.34
462.00	2961.36
462.21	3272.65
462.41	3067.86
462.61	2947.03
462.82	2893.78
463.02	3360.72
463.22	3256.27
463.43	3082.19
463.63	2992.08
463.83	3487.69
464.04	3305.42
464.24	3004.37
464.44	3039.19
464.64	3295.18
464.85	3491.79
465.05	3080.14
465.25	2947.03
465.46	3155.92
465.66	3422.16
465.86	3200.98
466.07	3012.56
466.27	3205.07
466.47	3020.75
466.68	2940.88
466.88	3131.34
467.08	3387.34
467.29	3471.31
467.49	3090.38
467.69	3160.02
467.89	3418.06
468.10	3282.89
468.30	3084.24
468.50	3231.69
468.71	3356.62
468.91	3002.32
469.11	3237.84
469.31	3125.20
469.52	3131.34
469.72	3581.90
469.92	3348.43
470.13	3028.95
470.33	3239.89
470.53	3315.66
470.73	3479.50
470.94	3782.60
471.14	4143.04
471.34	4718.52
471.54	4325.31
471.75	4061.12
471.95	3866.56
472.15	3803.08
472.36	3651.53
472.56	3499.98
472.76	3846.09
472.96	3680.20
473.17	3387.34
473.37	3133.39
473.57	3299.28
473.77	3487.69
473.98	3203.02
474.18	2920.40
474.38	4011.97
474.58	3219.41
474.79	2899.92
474.99	3198.93
475.19	3461.07
475.39	3035.09
475.60	3063.76
475.80	3080.14
476.00	3319.76
476.20	3203.02
476.41	3155.92
476.61	3106.77
476.81	3497.93
477.01	3129.30
477.21	3344.33
477.42	3266.51
477.62	3053.52
477.82	3348.43
478.02	2944.98
478.23	3004.37
478.43	3069.91
478.63	3172.30
478.83	3110.86
479.03	3121.10
479.24	3536.84
479.44	3690.44
479.64	2994.13
479.84	2861.01
480.04	3170.26
480.25	3395.53
480.45	3041.23
480.65	2971.60
480.85	3545.03
481.06	3094.48
481.26	3131.34
481.46	3076.05
481.66	3356.62
481.86	3053.52
482.06	3223.50
482.27	3090.38
482.47	3178.45
482.67	3325.90
482.87	3096.53
483.07	3092.43
483.28	3196.88
483.48	2975.70
483.68	3102.67
483.88	2934.74
484.08	2867.16
484.29	3035.09
484.49	3125.20
484.69	2869.20
484.89	3538.89
485.09	3508.17
485.29	3051.47
485.50	3231.69
485.70	3217.36
485.90	3475.40
486.10	3237.84
486.30	3051.47
486.50	3542.99
486.71	3319.76
486.91	3155.92
487.11	3112.91
487.31	2961.36
487.51	3360.72
487.71	3051.47
487.91	2916.31
488.12	3114.96
488.32	2850.77
488.52	3037.14
488.72	2713.56
488.92	3229.65
489.12	3540.94
489.32	3209.17
489.53	3024.85
489.73	3020.75
489.93	3665.86
490.13	3014.61
490.33	2893.78
490.53	3313.61
490.73	3522.51
490.94	2877.40
491.14	3176.40
491.34	3424.20
491.54	3416.01
491.74	3923.91
491.94	4575.16
492.14	5072.82
492.34	5162.93
492.54	4839.35
492.75	4165.57
492.95	4376.51
493.15	4097.99
493.35	3885.00
493.55	3770.31
493.75	3653.58
493.95	3950.53
494.15	3334.09
494.35	3207.12
494.56	3309.52
494.76	3160.02
494.96	3270.61
495.16	2983.89
495.36	3321.81
495.56	3297.23
495.76	3127.25
495.96	3137.49
496.16	3164.11
496.36	3729.35
496.56	3041.23
496.77	3172.30
496.97	3299.28
497.17	3553.23
497.37	2901.97
497.57	3182.54
497.77	3344.33
497.97	3067.86
498.17	3106.77
498.37	3053.52
498.57	3387.34
498.77	3213.26
498.97	3278.80
499.17	3391.44
499.38	3299.28
499.58	3360.72
499.78	3258.32
499.98	3250.13
500.18	3229.65
500.38	3147.73
500.58	3289.04
500.78	3647.43
500.98	6172.58
501.18	8165.25
501.38	9725.80
501.58	10917.72
501.78	10889.05
501.98	9160.56
502.18	7616.40
502.38	6422.43
502.58	6432.67
502.78	5672.87
502.98	5343.15
503.18	5130.16
503.38	4886.45
503.59	4222.91
503.79	4188.10
503.99	3676.10
504.19	3903.43
504.39	3891.14
504.59	3698.63
504.79	3551.18
504.99	4036.55
505.19	3516.36
505.39	3293.13
505.59	3510.22
505.79	3653.58
505.99	3569.61
506.19	3076.05
506.39	3461.07
506.59	3164.11
506.79	3237.84
506.99	3305.42
507.19	3045.33
507.39	3313.61
507.59	3026.90
507.79	3010.51
507.99	3008.47
508.19	3246.03
508.39	3172.30
508.59	3100.62
508.79	3200.98
508.99	3715.02
509.19	3194.83
509.39	3061.71
509.59	2994.13
509.79	3125.20
509.99	3229.65
510.19	3194.83
510.39	3151.82
510.59	3420.11
510.79	3190.74
510.99	2887.64
511.19	3018.71
511.39	3592.14
511.59	3559.37
511.79	3168.21
511.99	3035.09
512.19	3680.20
512.38	3252.17
512.58	3051.47
512.78	2949.08
512.98	3512.27
513.18	3665.86
513.38	2992.08
513.58	3088.34
513.78	3303.37
513.98	3213.26
514.18	3123.15
514.38	3067.86
514.58	3387.34
514.78	3205.07
514.98	3002.32
515.18	3119.06
515.38	3010.51
515.58	3639.24
515.78	3000.27
515.98	3096.53
516.18	3418.06
516.38	3254.22
516.57	3045.33
516.77	3074.00
516.97	3377.10
517.17	3125.20
517.37	2863.06
517.57	3135.44
517.77	3286.99
517.97	3143.63
518.17	3090.38
518.37	2910.16
518.57	3160.02
518.77	3246.03
518.97	3117.01
519.16	3076.05
519.36	3540.94
519.56	3174.35
519.76	2979.79
519.96	3135.44
520.16	3573.71
520.36	3082.19
520.56	3250.13
520.76	2949.08
520.96	3160.02
521.16	3459.02
521.35	3219.41
521.55	3217.36
521.75	3364.81
521.95	3188.69
522.15	3033.04
522.35	2940.88
522.55	3074.00
522.75	3348.43
522.95	2877.40
523.14	2899.92
523.34	3254.22
523.54	3143.63
523.74	3215.31
523.94	3155.92
524.14	3061.71
524.34	3350.48
524.54	3307.47
524.73	3164.11
524.93	3409.87
525.13	3307.47
525.33	2914.26
525.53	3327.95
525.73	3467.21
525.93	3223.50
526.13	3100.62
526.32	2934.74
526.52	3469.26
526.72	3475.40
526.92	3041.23
527.12	2969.55
527.32	2953.17
527.52	3377.10
527.71	3067.86
527.91	3074.00
528.11	3137.49
528.31	3221.45
528.51	3012.56
528.71	3200.98
528.90	3399.63
529.10	3479.50
529.30	3180.50
529.50	2803.67
529.70	3430.35
529.90	3239.89
530.09	3076.05
530.29	2967.51
530.49	3153.87
530.69	3762.12
530.89	3256.27
531.09	3254.22
531.28	3153.87
531.48	3538.89
531.68	3063.76
531.88	3090.38
532.08	3446.73
532.28	3172.30
532.47	3215.31
532.67	3114.96
532.87	3336.14
533.07	3110.86
533.27	3127.25
533.46	3098.58
533.66	3336.14
533.86	3319.76
534.06	3092.43
534.26	3076.05
534.45	3237.84
534.65	3510.22
534.85	3223.50
535.05	2949.08
535.25	3446.73
535.44	2861.01
535.64	3166.16
535.84	3147.73
536.04	3241.93
536.24	3196.88
536.43	2979.79
536.63	3102.67
536.83	3321.81
537.03	3303.37
537.22	2910.16
537.42	2881.49
537.62	3397.58
537.82	3129.30
538.02	3207.12
538.21	3051.47
538.41	3885.00
538.61	3422.16
538.81	3117.01
539.00	3215.31
539.20	2983.89
539.40	3205.07
539.60	3000.27
539.79	3266.51
539.99	3274.70
540.19	3088.34
540.39	2957.27
540.58	3069.91
540.78	3477.45
540.98	3252.17
541.18	3268.56
541.37	3129.30
541.57	3278.80
541.77	3452.88
541.97	2942.93
542.16	2893.78
542.36	3194.83
542.56	3188.69
542.76	3270.61
542.95	3182.54
543.15	3379.15
543.35	3395.53
543.54	3033.04
543.74	2928.60
543.94	3581.90
544.14	3051.47
544.33	3213.26
544.53	2985.94
544.73	3194.83
544.93	3184.59
545.12	3035.09
545.32	2998.23
545.52	3264.46
545.71	3074.00
545.91	3049.43
546.11	3000.27
546.30	3125.20
546.50	3262.41
546.70	3088.34
546.90	3049.43
547.09	2897.88
547.29	3276.75
547.49	3200.98
547.68	3114.96
547.88	3196.88
548.08	3362.76
548.27	3377.10
548.47	3020.75
548.67	3080.14
548.87	3250.13
549.06	3014.61
549.26	3033.04
549.46	3356.62
549.65	3139.54
549.85	3037.14
550.05	3123.15
550.24	3110.86
550.44	3225.55
550.64	3141.58
550.83	3131.34
551.03	3592.14
551.23	3422.16
551.42	3143.63
551.62	3166.16
551.82	3231.69
552.01	3225.55
552.21	3344.33
552.41	3108.82
552.60	3522.51
552.80	3266.51
553.00	3000.27
553.19	3020.75
553.39	3604.42
553.59	2994.13
553.78	3160.02
553.98	2979.79
554.17	3041.23
554.37	3348.43
554.57	3090.38
554.76	2918.36
554.96	3168.21
555.16	3293.13
555.35	3223.50
555.55	3272.65
555.75	3373.00
555.94	3305.42
556.14	2869.20
556.33	3037.14
556.53	3174.35
556.73	3243.98
556.92	3028.95
557.12	3024.85
557.32	3710.92
557.51	3487.69
557.71	3188.69
557.90	3243.98
558.10	3585.99
558.30	3221.45
558.49	3047.38
558.69	3024.85
558.88	3381.20
559.08	3266.51
559.28	3065.81
559.47	3049.43
559.67	3342.28
559.86	3637.19
560.06	3074.00
560.26	3102.67
560.45	3416.01
560.65	3192.78
560.84	3356.62
561.04	2918.36
561.24	3418.06
561.43	3020.75
561.63	3362.76
561.82	3143.63
562.02	3424.20
562.22	3057.62
562.41	3037.14
562.61	3030.99
562.80	3100.62
563.00	3860.42
563.19	3168.21
563.39	3184.59
563.59	3381.20
563.78	3129.30
563.98	2861.01
564.17	3067.86
564.37	2875.35
564.56	3256.27
564.76	2906.07
564.96	3160.02
565.15	3313.61
565.35	3821.51
565.54	3119.06
565.74	3157.97
565.93	3274.70
566.13	3252.17
566.32	3069.91
566.52	3182.54
566.71	3305.42
566.91	3459.02
567.11	3209.17
567.30	2987.99
567.50	3313.61
567.69	3424.20
567.89	3045.33
568.08	2963.41
568.28	3393.48
568.47	3141.58
568.67	3112.91
568.86	3039.19
569.06	3348.43
569.25	3129.30
569.45	3006.42
569.64	3135.44
569.84	3176.40
570.04	3307.47
570.23	3028.95
570.43	3086.29
570.62	3313.61
570.82	3610.57
571.01	2951.12
571.21	3057.62
571.40	3166.16
571.60	3438.54
571.79	3188.69
571.99	2979.79
572.18	3127.25
572.38	3346.38
572.57	3188.69
572.77	3106.77
572.96	3811.27
573.16	3373.00
573.35	3026.90
573.55	3268.56
573.74	3413.96
573.94	3289.04
574.13	3057.62
574.33	3278.80
574.52	3588.04
574.71	3291.09
574.91	3110.86
575.10	3002.32
575.30	3157.97
575.49	3094.48
575.69	3028.95
575.88	3049.43
576.08	3272.65
576.27	3516.36
576.47	3014.61
576.66	3182.54
576.86	3473.36
577.05	3360.72
577.25	3180.50
577.44	3270.61
577.64	3258.32
577.83	3448.78
578.02	3024.85
578.22	3217.36
578.41	3684.30
578.61	3231.69
578.80	2961.36
579.00	3024.85
579.19	3262.41
579.39	3319.76
579.58	3213.26
579.77	3137.49
579.97	3504.07
580.16	3540.94
580.36	3266.51
580.55	3172.30
580.75	3327.95
580.94	3354.57
581.13	3246.03
581.33	3330.00
581.52	3248.08
581.72	3665.86
581.91	3174.35
582.11	3045.33
582.30	3508.17
582.49	3321.81
582.69	3346.38
582.88	3164.11
583.08	3332.05
583.27	3499.98
583.47	3246.03
583.66	3059.67
583.85	3207.12
584.05	3207.12
584.24	3198.93
584.44	3123.15
584.63	3409.87
584.82	3444.68
585.02	3387.34
585.21	3213.26
585.41	3344.33
585.60	3338.19
585.79	3274.70
585.99	3393.48
586.18	3327.95
586.37	4220.86
586.57	6457.25
586.76	17770.22
586.96	37307.85
587.15	50142.47
587.34	59499.64
587.54	63484.98
587.73	56585.38
587.93	40773.01
588.12	31524.38
588.31	25579.13
588.51	22580.90
588.70	21274.30
588.89	18362.09
589.09	15830.80
589.28	13793.07
589.47	10768.22
589.67	8468.35
589.86	6416.29
590.06	5183.41
590.25	4560.83
590.44	3860.42
590.64	3532.75
590.83	3491.79
591.02	3542.99
591.22	3071.95
591.41	3135.44
591.60	3258.32
591.80	3841.99
591.99	2944.98
592.18	3065.81
592.38	3545.03
592.57	3184.59
592.76	3067.86
592.96	3192.78
593.15	3233.74
593.34	3557.32
593.54	3022.80
593.73	3246.03
593.92	3385.29
594.12	3383.24
594.31	3125.20
594.50	3237.84
594.70	3397.58
594.89	3917.76
595.08	2983.89
595.28	3157.97
595.47	3815.37
595.66	3430.35
595.86	3018.71
596.05	2930.64
596.24	3264.46
596.43	3688.39
596.63	3198.93
596.82	3264.46
597.01	3377.10
597.21	3659.72
597.40	3008.47
597.59	3153.87
597.79	3268.56
597.98	3473.36
598.17	3145.68
598.36	3067.86
598.56	3454.92
598.75	3192.78
598.94	3094.48
599.14	3078.10
599.33	3264.46
599.52	3493.83
599.71	3143.63
599.91	3160.02
600.10	3471.31
600.29	3262.41
600.48	3192.78
600.68	3227.60
600.87	3358.67
601.06	3049.43
601.26	3227.60
601.45	3108.82
601.64	3246.03
601.83	3487.69
602.03	2934.74
602.22	3078.10
602.41	3518.41
602.60	3704.78
602.80	3110.86
602.99	3225.55
603.18	3160.02
603.37	3254.22
603.57	3006.42
603.76	3047.38
603.95	3502.03
604.14	3190.74
604.34	2963.41
604.53	3110.86
604.72	3327.95
604.91	3452.88
605.10	3037.14
605.30	3008.47
605.49	3729.35
605.68	3495.88
605.87	3026.90
606.07	2949.08
606.26	3260.37
606.45	3362.76
606.64	3092.43
606.84	2992.08
607.03	3209.17
607.22	3471.31
607.41	3186.64
607.60	3055.57
607.80	3526.60
607.99	3217.36
608.18	3082.19
608.37	3084.24
608.56	3084.24
608.76	3481.55
608.95	3160.02
609.14	3102.67
609.33	3518.41
609.52	3565.51
609.72	3166.16
609.91	3190.74
610.10	3332.05
610.29	3647.43
610.48	3227.60
610.68	3215.31
610.87	3178.45
611.06	3389.39
611.25	3108.82
611.44	3311.57
611.63	3200.98
611.83	3577.80
612.02	2977.75
612.21	3157.97
612.40	2998.23
612.59	3102.67
612.79	2959.31
612.98	3059.67
613.17	3680.20
613.36	3178.45
613.55	3184.59
613.74	3133.39
613.93	3303.37
614.13	3413.96
614.32	3282.89
614.51	3114.96
614.70	3307.47
614.89	3258.32
615.08	3233.74
615.28	3434.44
615.47	3164.11
615.66	3362.76
615.85	3133.39
616.04	3114.96
616.23	3284.94
616.42	3332.05
616.62	3078.10
616.81	3125.20
617.00	3237.84
617.19	3407.82
617.38	3002.32
617.57	3151.82
617.76	3426.25
617.95	3547.08
618.15	3264.46
618.34	3280.85
618.53	3047.38
618.72	3446.73
618.91	3186.64
619.10	3213.26
619.29	3243.98
619.48	3266.51
619.68	2959.31
619.87	3035.09
620.06	2992.08
620.25	3432.40
620.44	3014.61
620.63	3069.91
620.82	3276.75
621.01	3272.65
621.20	3065.81
621.39	3133.39
621.59	3336.14
621.78	3188.69
621.97	3194.83
622.16	3286.99
622.35	3356.62
622.54	3416.01
622.73	3108.82
622.92	2858.96
623.11	3409.87
623.30	3139.54
623.49	3180.50
623.68	2877.40
623.88	3540.94
624.07	3143.63
624.26	2965.46
624.45	3139.54
624.64	3192.78
624.83	3340.24
625.02	3119.06
625.21	3114.96
625.40	3237.84
625.59	3526.60
625.78	3184.59
625.97	3176.40
626.16	3559.37
626.35	3502.03
626.54	3088.34
626.74	3291.09
626.93	3164.11
627.12	3243.98
627.31	3106.77
627.50	3110.86
627.69	3508.17
627.88	3170.26
628.07	2963.41
628.26	2901.97
628.45	3139.54
628.64	3090.38
628.83	3104.72
629.02	2930.64
629.21	3387.34
629.40	3321.81
629.59	2987.99
629.78	3024.85
629.97	3254.22
630.16	3297.23
630.35	3057.62
630.54	3147.73
630.73	3145.68
630.92	3272.65
631.11	3069.91
631.30	3176.40
631.49	3475.40
631.68	3264.46
631.87	3112.91
632.06	3010.51
632.25	3743.69
632.44	3223.50
632.63	3129.30
632.82	3219.41
633.01	3127.25
633.20	3299.28
633.39	3106.77
633.58	2959.31
633.77	3387.34
633.96	3426.25
634.15	3180.50
634.34	3182.54
634.53	3385.29
634.72	3194.83
634.91	2951.12
635.10	3160.02
635.29	3522.51
635.48	3327.95
635.67	3000.27
635.86	2930.64
636.05	3563.47
636.24	3307.47
636.43	3002.32
636.62	3106.77
636.81	2797.53
637.00	3272.65
637.19	3143.63
637.38	3086.29
637.57	3215.31
637.76	3233.74
637.95	3327.95
638.14	3168.21
638.33	3401.68
638.52	3325.90
638.71	3057.62
638.89	2947.03
639.08	3819.46
639.27	3567.56
639.46	3340.24
639.65	3651.53
639.84	3823.56
640.03	3987.40
640.22	3624.90
640.41	3522.51
640.60	3336.14
640.79	3526.60
640.98	3215.31
641.17	3272.65
641.36	3516.36
641.55	3467.21
641.74	2990.03
641.92	2938.84
642.11	3110.86
642.30	3166.16
642.49	3069.91
642.68	3067.86
642.87	3295.18
643.06	3377.10
643.25	2932.69
643.44	3020.75
643.63	3155.92
643.82	3344.33
644.00	2930.64
644.19	3078.10
644.38	3098.58
644.57	3409.87
644.76	3090.38
644.95	3137.49
645.14	3305.42
645.33	3180.50
645.52	3131.34
645.71	2846.68
645.89	3024.85
646.08	3231.69
646.27	3076.05
646.46	3243.98
646.65	2957.27
646.84	3297.23
647.03	3006.42
647.22	3213.26
647.40	3344.33
647.59	3262.41
647.78	2848.72
647.97	3051.47
648.16	3053.52
648.35	3545.03
648.54	3323.85
648.73	3121.10
648.91	3373.00
649.10	3243.98
649.29	2928.60
649.48	3059.67
649.67	3325.90
649.86	3256.27
650.05	3221.45
650.23	3233.74
650.42	3160.02
650.61	3540.94
650.80	3340.24
650.99	3387.34
651.18	3409.87
651.36	3567.56
651.55	2990.03
651.74	3256.27
651.93	3194.83
652.12	3258.32
652.31	3092.43
652.49	3117.01
652.68	3239.89
652.87	3561.42
653.06	3205.07
653.25	3295.18
653.44	3237.84
653.62	3618.76
653.81	3112.91
654.00	3078.10
654.19	3465.16
654.38	3880.90
654.56	3149.78
654.75	2996.18
654.94	3473.36
655.13	3403.72
655.32	2963.41
655.51	3178.45
655.69	3229.65
655.88	3452.88
656.07	2992.08
656.26	3135.44
656.45	2957.27
656.63	3309.52
656.82	3153.87
657.01	3291.09
657.20	3149.78
657.38	3616.71
657.57	2953.17
657.76	2990.03
657.95	3393.48
658.14	3196.88
658.32	3200.98
658.51	2971.60
658.70	3280.85
658.89	3305.42
659.08	3200.98
659.26	3303.37
659.45	3051.47
659.64	3426.25
659.83	3041.23
660.01	3483.59
660.20	3356.62
660.39	3555.27
660.58	2779.09
660.76	3022.80
660.95	2922.45
661.14	3239.89
661.33	2981.84
661.51	3014.61
661.70	3100.62
661.89	3381.20
662.08	3065.81
662.26	2967.51
662.45	3162.06
662.64	3571.66
662.83	3139.54
663.01	2920.40
663.20	3186.64
663.39	3583.95
663.58	3104.72
663.76	3049.43
663.95	3418.06
664.14	2975.70
664.32	3133.39
664.51	3008.47
664.70	2877.40
664.89	3370.96
665.07	2901.97
665.26	3301.33
665.45	3006.42
665.64	3387.34
665.82	3004.37
666.01	3366.86
666.20	2942.93
666.38	3336.14
666.57	3444.68
666.76	5427.12
666.95	12879.68
667.13	20418.25
667.32	24999.55
667.51	28094.04
667.69	29079.11
667.88	24065.68
668.07	17485.56
668.25	14915.36
668.44	12791.61
668.63	11083.61
668.81	9604.97
669.00	8533.89
669.19	7833.48
669.38	6674.33
669.56	5691.31
669.75	4933.56
669.94	4501.44
670.12	3876.80
670.31	3413.96
670.50	3426.25
670.68	3440.59
670.87	3399.63
671.06	2985.94
671.24	3203.02
671.43	3585.99
671.62	3319.76
671.80	3016.66
671.99	3213.26
672.18	3325.90
672.36	3512.27
672.55	3211.22
672.74	3145.68
672.92	3176.40
673.11	3432.40
673.29	2856.92
673.48	3198.93
673.67	3217.36
673.85	3430.35
674.04	3069.91
674.23	3129.30
674.41	3680.20
674.60	3039.19
674.79	2893.78
674.97	2979.79
675.16	3354.57
675.34	3491.79
675.53	3084.24
675.72	3098.58
675.90	3622.86
676.09	3141.58
676.28	3133.39
676.46	2836.44
676.65	3481.55
676.83	3094.48
677.02	3176.40
677.21	3137.49
677.39	3286.99
677.58	3094.48
677.77	3051.47
677.95	2951.12
678.14	3233.74
678.32	3203.02
678.51	3112.91
678.70	3469.26
678.88	3205.07
679.07	3270.61
679.25	3086.29
679.44	3037.14
679.63	3020.75
679.81	3299.28
680.00	3366.86
680.18	3188.69
680.37	3653.58
680.55	3395.53
680.74	2969.55
680.93	2811.86
681.11	3299.28
681.30	3340.24
681.48	3112.91
681.67	3137.49
681.85	3295.18
682.04	3172.30
682.23	3203.02
682.41	3164.11
682.60	3131.34
682.78	3286.99
682.97	3018.71
683.15	3139.54
683.34	3370.96
683.53	3528.65
683.71	2979.79
683.90	3135.44
684.08	3669.96
684.27	3211.22
684.45	3149.78
684.64	3239.89
684.82	3278.80
685.01	3360.72
685.19	3041.23
685.38	3303.37
685.57	3233.74
685.75	3151.82
685.94	3033.04
686.12	3004.37
686.31	3172.30
686.49	3629.00
686.68	2934.74
686.86	3057.62
687.05	3252.17
687.23	3538.89
687.42	3067.86
687.60	2951.12
687.79	3432.40
687.97	3618.76
688.16	3223.50
688.34	3311.57
688.53	2910.16
688.71	3434.44
688.90	3413.96
689.08	3131.34
689.27	2920.40
689.45	3456.97
689.64	3184.59
689.82	3131.34
690.01	3356.62
690.19	3327.95
690.38	3231.69
690.56	3207.12
690.75	3074.00
690.93	3276.75
691.12	3069.91
691.30	3102.67
691.49	3147.73
691.67	3196.88
691.86	3436.49
692.04	3123.15
692.23	3172.30
692.41	3352.52
692.60	3428.30
692.78	3375.05
692.97	3295.18
693.15	3403.72
693.34	3301.33
693.52	3332.05
693.71	3233.74
693.89	3157.97
694.08	2959.31
694.26	3157.97
694.44	3512.27
694.63	3465.16
694.81	2990.03
695.00	3092.43
695.18	3522.51
695.37	3682.25
695.55	3209.17
695.74	3139.54
695.92	3143.63
696.10	3475.40
696.29	3016.66
696.47	3063.76
696.66	3022.80
696.84	3047.38
697.03	3168.21
697.21	3362.76
697.40	4693.94
697.58	3508.17
697.76	3094.48
697.95	3094.48
698.13	3020.75
698.32	3143.63
698.50	3112.91
698.68	3074.00
698.87	3391.44
699.05	3573.71
699.24	3084.24
699.42	2983.89
699.61	3360.72
699.79	3330.00
699.97	3176.40
700.16	2965.46
700.34	3037.14
700.53	3254.22
700.71	3346.38
700.89	3262.41
701.08	3254.22
701.26	3227.60
701.45	3424.20
701.63	3123.15
701.81	3221.45
702.00	3114.96
702.18	3172.30
702.37	3061.71
702.55	3639.24
702.73	3518.41
702.92	3133.39
703.10	3467.21
703.28	3499.98
703.47	3084.24
703.65	3385.29
703.84	3213.26
704.02	3284.94
704.20	3573.71
704.39	3131.34
704.57	3141.58
704.75	3446.73
704.94	3416.01
705.12	3272.65
705.30	3983.30
705.49	8566.65
705.67	16826.11
705.86	23344.80
706.04	26463.85
706.22	29666.88
706.41	28296.78
706.59	21475.00
706.77	16547.59
706.96	14339.88
707.14	12934.97
707.32	11226.96
707.51	9848.68
707.69	8003.46
707.87	6508.44
708.06	5275.57
708.24	4491.20
708.42	4106.18
708.61	4198.34
708.79	3231.69
708.97	3289.04
709.16	3389.39
709.34	3295.18
709.52	3153.87
709.71	3100.62
709.89	3356.62
710.07	3155.92
710.26	2975.70
710.44	3168.21
710.62	3416.01
710.80	3278.80
710.99	3209.17
711.17	3221.45
711.35	3141.58
711.54	3129.30
711.72	3282.89
711.90	3096.53
712.09	3352.52
712.27	3153.87
712.45	3209.17
712.63	3131.34
712.82	3258.32
713.00	3389.39
713.18	3137.49
713.37	3219.41
713.55	3450.83
713.73	3354.57
713.91	3239.89
714.10	3088.34
714.28	3258.32
714.46	3297.23
714.65	3231.69
714.83	3160.02
715.01	3354.57
715.19	3295.18
715.38	3057.62
715.56	3176.40
715.74	3114.96
715.92	3102.67
716.11	3377.10
716.29	2904.02
716.47	3266.51
716.65	3284.94
716.84	2944.98
717.02	3102.67
717.20	2953.17
717.38	3157.97
717.57	3209.17
717.75	3067.86
717.93	3135.44
718.11	3327.95
718.30	3067.86
718.48	3098.58
718.66	3461.07
718.84	3502.03
719.03	3067.86
719.21	3014.61
719.39	3643.34
719.57	3360.72
719.75	3215.31
719.94	3016.66
720.12	3250.13
720.30	3155.92
720.48	3160.02
720.67	3037.14
720.85	3065.81
721.03	3170.26
721.21	2971.60
721.39	3190.74
721.58	3409.87
721.76	3370.96
721.94	3086.29
722.12	3233.74
722.30	3555.27
722.49	3203.02
722.67	3174.35
722.85	3112.91
723.03	2951.12
723.21	3174.35
723.40	3104.72
723.58	3235.79
723.76	3463.12
723.94	3465.16
724.12	3151.82
724.30	3241.93
724.49	3471.31
724.67	3006.42
724.85	3262.41
725.03	3000.27
725.21	3405.77
725.40	3463.12
725.58	3071.95
725.76	3299.28
725.94	3307.47
726.12	3063.76
726.30	3188.69
726.49	3100.62
726.67	3127.25
726.85	3346.38
727.03	4007.87
727.21	5517.23
727.39	7237.52
727.57	7638.92
727.76	8380.29
727.94	8411.01
728.12	7354.26
728.30	6006.69
728.48	5580.71
728.66	5001.14
728.84	4810.68
729.03	4157.38
729.21	3778.50
729.39	3567.56
729.57	3411.92
729.75	3350.48
729.93	3442.64
730.11	3123.15
730.30	3239.89
730.48	3203.02
730.66	3213.26
730.84	3229.65
731.02	3239.89
731.20	3198.93
731.38	3203.02
731.56	2951.12
731.74	2998.23
731.93	3327.95
732.11	3184.59
732.29	3137.49
732.47	3540.94
732.65	3330.00
732.83	3211.22
733.01	3133.39
733.19	3143.63
733.37	3413.96
733.56	3110.86
733.74	3028.95
733.92	3600.33
734.10	3174.35
734.28	3303.37
734.46	2875.35
734.64	3112.91
734.82	3184.59
735.00	3078.10
735.18	3006.42
735.36	3256.27
735.54	3336.14
735.73	3018.71
735.91	3231.69
736.09	3571.66
736.27	3307.47
736.45	3162.06
736.63	2869.20
736.81	3262.41
736.99	3493.83
737.17	3282.89
737.35	3035.09
737.53	3233.74
737.71	3176.40
737.89	3235.79
738.07	3123.15
738.25	3155.92
738.43	2959.31
738.61	3076.05
738.80	3018.71
738.98	3088.34
739.16	3069.91
739.34	2961.36
739.52	3407.82
739.70	3317.71
739.88	3405.77
740.06	3209.17
740.24	2854.87
740.42	3446.73
740.60	2908.12
740.78	3117.01
740.96	2828.24
741.14	3227.60
741.32	3270.61
741.50	2844.63
741.68	3289.04
741.86	3581.90
742.04	3069.91
742.22	2910.16
742.40	3059.67
742.58	3514.31
742.76	3092.43
742.94	3332.05
743.12	2914.26
743.30	3260.37
743.48	3422.16
743.66	3033.04
743.84	3151.82
744.02	3200.98
744.20	3180.50
744.38	3002.32
744.56	3069.91
744.74	3540.94
744.92	3440.59
745.10	3393.48
745.28	3125.20
745.46	3549.13
745.64	3237.84
745.82	3160.02
746.00	3076.05
746.18	3311.57
746.36	3090.38
746.54	3166.16
746.72	3053.52
746.90	3000.27
747.08	3491.79
747.26	3074.00
747.44	3237.84
747.62	3432.40
747.80	3282.89
747.98	3227.60
748.15	3041.23
748.33	3577.80
748.51	3344.33
748.69	3139.54
748.87	3061.71
749.05	3219.41
749.23	3225.55
749.41	2975.70
749.59	3067.86
749.77	3477.45
749.95	3149.78
750.13	3071.95
750.31	3299.28
750.49	3180.50
750.67	3444.68
750.85	3254.22
751.03	3106.77
751.20	3678.15
751.38	3305.42
751.56	3149.78
751.74	3090.38
751.92	3172.30
752.10	3069.91
752.28	3256.27
752.46	3008.47
752.64	3217.36
752.82	3176.40
753.00	3233.74
753.18	3069.91
753.35	3219.41
753.53	3207.12
753.71	2967.51
753.89	3182.54
754.07	3327.95
754.25	3508.17
754.43	3209.17
754.61	2938.84
754.79	3375.05
754.97	3286.99
755.14	3338.19
755.32	3016.66
755.50	3272.65
755.68	3268.56
755.86	3000.27
756.04	3002.32
756.22	2861.01
756.40	3483.59
756.57	3256.27
756.75	3014.61
756.93	3479.50
757.11	3561.42
757.29	3008.47
757.47	3016.66
757.65	2996.18
757.82	2826.20
758.00	2994.13
758.18	2996.18
758.36	3074.00
758.54	3610.57
758.72	2885.59
758.90	3246.03
759.07	3356.62
759.25	3053.52
759.43	3196.88
759.61	2930.64
759.79	4489.15
759.97	3475.40
760.15	3127.25
760.32	3057.62
760.50	3317.71
760.68	3502.03
760.86	2963.41
761.04	3387.34
761.22	3479.50
761.39	3313.61
761.57	3196.88
761.75	3045.33
761.93	3391.44
762.11	3190.74
762.28	3143.63
762.46	2983.89
762.64	3450.83
762.82	2953.17
763.00	3035.09
763.18	3280.85
763.35	3012.56
763.53	3291.09
763.71	3225.55
763.89	3061.71
764.07	3215.31
764.24	3223.50
764.42	3286.99
764.60	3069.91
764.78	3377.10
764.96	3375.05
765.13	3254.22
765.31	3016.66
765.49	3428.30
765.67	3041.23
765.84	2969.55
766.02	3084.24
766.20	3004.37
766.38	3375.05
766.56	3184.59
766.73	3241.93
766.91	3274.70
767.09	3254.22
767.27	3117.01
767.44	3022.80
767.62	3452.88
767.80	3305.42
767.98	2985.94
768.15	3061.71
768.33	3483.59
768.51	3454.92
768.69	3280.85
768.87	3080.14
769.04	3307.47
769.22	3796.93
769.40	3286.99
769.58	3276.75
769.75	3434.44
769.93	3540.94
770.11	3135.44
770.28	2965.46
770.46	3475.40
770.64	3338.19
770.82	3002.32
770.99	3043.28
771.17	3477.45
771.35	3104.72
771.53	3110.86
771.70	3090.38
771.88	3452.88
772.06	3264.46
772.23	3078.10
772.41	3084.24
772.59	3264.46
772.77	3078.10
772.94	3133.39
773.12	3106.77
773.30	3217.36
773.47	3340.24
773.65	2985.94
773.83	3334.09
774.01	3241.93
774.18	2926.55
774.36	3151.82
774.54	2981.84
774.71	3336.14
774.89	2951.12
775.07	2977.75
775.24	3047.38
775.42	3203.02
775.60	3663.82
775.78	3026.90
775.95	2918.36
776.13	2885.59
776.31	3022.80
776.48	3250.13
776.66	3272.65
776.84	3225.55
777.01	3149.78
777.19	2994.13
777.37	3035.09
777.54	3360.72
777.72	3649.48
777.90	3198.93
778.07	2992.08
778.25	3938.24
778.43	3450.83
778.60	3035.09
778.78	3237.84
778.96	3592.14
779.13	2963.41
779.31	3110.86
779.49	3131.34
779.66	3332.05
779.84	3211.22
780.01	3057.62
780.19	2977.75
780.37	3489.74
780.54	3344.33
780.72	2895.83
780.90	3024.85
781.07	3170.26
781.25	3143.63
781.43	3293.13
781.60	3065.81
781.78	3502.03
781.95	3377.10
782.13	3033.04
782.31	3004.37
782.48	2940.88
782.66	3227.60
782.83	3356.62
783.01	3186.64
783.19	3440.59
783.36	3223.50
783.54	3024.85
783.72	3194.83
783.89	3151.82
784.07	3309.52
784.24	3153.87
784.42	3274.70
784.60	3330.00
784.77	3325.90
784.95	2836.44
785.12	3082.19
785.30	3276.75
785.47	3139.54
785.65	2987.99
785.83	3041.23
786.00	3174.35
786.18	3295.18
786.35	3010.51
786.53	2971.60
786.71	3538.89
786.88	3356.62
787.06	3168.21
787.23	3133.39
787.41	3014.61
787.58	3160.02
787.76	3014.61
787.94	3153.87
788.11	3334.09
788.29	3033.04
788.46	3039.19
788.64	2918.36
788.81	3143.63
788.99	3133.39
789.16	3071.95
789.34	3149.78
789.52	3082.19
789.69	3174.35
789.87	2863.06
790.04	3071.95
790.22	3207.12
790.39	3594.19
790.57	3049.43
790.74	3045.33
790.92	3434.44
791.09	2953.17
791.27	3147.73
791.44	3166.16
791.62	3239.89
791.79	3401.68
791.97	3166.16
792.15	3416.01
792.32	3364.81
792.50	3334.09
792.67	3348.43
792.85	3381.20
793.02	3266.51
793.20	3239.89
793.37	2930.64
793.55	2992.08
793.72	3000.27
793.90	3356.62
794.07	3082.19
794.25	3088.34
794.42	3338.19
794.60	3164.11
794.77	3098.58
794.95	3286.99
795.12	3411.92
795.30	3280.85
795.47	2852.82
795.65	3454.92
795.82	3309.52
796.00	3127.25
796.17	3145.68
796.34	3004.37
796.52	3360.72
796.69	3434.44
796.87	3223.50
797.04	3174.35
797.22	3387.34
797.39	3299.28
797.57	3319.76
797.74	3133.39
797.92	3325.90
798.09	3168.21
798.27	3254.22
798.44	3026.90
798.62	3131.34
798.79	3282.89
798.96	3200.98
799.14	3102.67
799.31	3819.46
799.49	3213.26
799.66	3071.95
799.84	3153.87
800.01	2971.60
800.19	3282.89
800.36	2899.92
800.53	3096.53
800.71	3368.91
800.88	3602.38
801.06	2967.51
801.23	3063.76
801.41	3246.03
801.58	3172.30
801.75	2981.84
801.93	3061.71
802.10	3360.72
802.28	3241.93
802.45	3078.10
802.63	3174.35
802.80	3569.61
802.97	3262.41
803.15	3100.62
803.32	3133.39
803.50	3110.86
803.67	3076.05
803.84	2965.46
804.02	3229.65
804.19	3180.50
804.37	2828.24
804.54	2957.27
804.71	3020.75
804.89	3299.28
805.06	3200.98
805.24	2996.18
805.41	2961.36
805.58	3114.96
805.76	3639.24
805.93	3053.52
806.10	3209.17
806.28	3366.86
806.45	3280.85
806.63	3225.55
806.80	3061.71
806.97	3295.18
807.15	3364.81
807.32	3164.11
807.49	3018.71
807.67	3039.19
807.84	3313.61
808.01	2901.97
808.19	3256.27
808.36	3706.82
808.54	3196.88
808.71	3100.62
808.88	3080.14
809.06	3545.03
809.23	3657.67
809.40	3217.36
809.58	3000.27
809.75	3284.94
809.92	3024.85
810.10	3295.18
810.27	3063.76
810.44	3321.81
810.62	3467.21
810.79	3043.28
810.96	3082.19
811.14	3248.08
811.31	3354.57
811.48	3313.61
811.66	3049.43
811.83	3467.21
812.00	3379.15
812.18	3172.30
812.35	3444.68
812.52	3246.03
812.69	3178.45
812.87	3030.99
813.04	3030.99
813.21	3262.41
813.39	3080.14
813.56	3041.23
813.73	3338.19
813.91	2990.03
814.08	3274.70
814.25	3065.81
814.42	2869.20
814.60	3203.02
814.77	3286.99
814.94	2985.94
815.12	3110.86
815.29	3538.89
815.46	3188.69
815.63	3123.15
815.81	3041.23
815.98	3172.30
816.15	3274.70
816.33	3200.98
816.50	3033.04
816.67	3250.13
816.84	3248.08
817.02	3002.32
817.19	3026.90
817.36	3356.62
817.53	3373.00
817.71	3002.32
817.88	3125.20
818.05	3198.93
818.22	3194.83
818.40	3319.76
818.57	3090.38
818.74	3377.10
818.91	3262.41
819.09	3243.98
819.26	3219.41
819.43	3153.87
819.60	3110.86
819.78	3264.46
819.95	3127.25
820.12	3092.43
820.29	3614.66
820.47	3293.13
820.64	3006.42
820.81	3012.56
820.98	3104.72
821.15	3078.10
821.33	3192.78
821.50	2961.36
821.67	3336.14
821.84	3006.42
822.02	3157.97
822.19	3499.98
822.36	3188.69
822.53	3037.14
822.70	2996.18
822.88	3160.02
823.05	3557.32
823.22	3157.97
823.39	3147.73
823.56	3155.92
823.74	3672.01
823.91	2947.03
824.08	2916.31
824.25	3055.57
824.42	3461.07
824.60	2881.49
824.77	3200.98
824.94	3291.09
825.11	3342.28
825.28	2918.36
825.45	3254.22
825.63	3317.71
825.80	3110.86
825.97	3129.30
826.14	3153.87
826.31	2955.22
826.48	3354.57
826.66	3000.27
826.83	3049.43
827.00	3170.26
827.17	3063.76
827.34	3088.34
827.51	3033.04
827.69	3182.54
827.86	2947.03
828.03	3174.35
828.20	3135.44
828.37	3139.54
828.54	3381.20
828.71	2992.08
828.89	3178.45
829.06	3319.76
829.23	3532.75
829.40	3020.75
829.57	3004.37
829.74	3475.40
829.91	3182.54
830.09	2961.36
830.26	3237.84
830.43	3583.95
830.60	3098.58
830.77	3143.63
830.94	3303.37
831.11	3387.34
831.28	3123.15
831.46	3200.98
831.63	2985.94
831.80	3395.53
831.97	3098.58
832.14	3117.01
832.31	3045.33
832.48	3196.88
832.65	3360.72
832.82	3157.97
832.99	3119.06
833.17	3053.52
833.34	3434.44
833.51	3053.52
833.68	2875.35
833.85	3502.03
834.02	3112.91
834.19	3018.71
834.36	3057.62
834.53	3346.38
834.70	3454.92
834.87	3078.10
835.04	2840.53
835.22	3092.43
835.39	3174.35
835.56	2920.40
835.73	2947.03
835.90	3563.47
836.07	3133.39
836.24	3041.23
836.41	2926.55
836.58	3166.16
836.75	3409.87
836.92	2985.94
837.09	2826.20
837.26	3348.43
837.43	3403.72
837.60	2914.26
837.77	2957.27
837.94	3377.10
838.12	3563.47
838.29	2863.06
838.46	2844.63
838.63	3084.24
838.80	3499.98
838.97	3024.85
839.14	2844.63
839.31	3270.61
839.48	3373.00
839.65	2904.02
839.82	2951.12
839.99	3315.66
840.16	3334.09
840.33	2805.72
840.50	2889.68
840.67	3084.24
840.84	2799.57
841.01	2828.24
841.18	2899.92
841.35	3205.07
841.52	3450.83
841.69	3227.60
841.86	2934.74
842.03	3254.22
842.20	3499.98
842.37	2901.97
842.54	3002.32
842.71	3264.46
842.88	2983.89
843.05	2981.84
843.22	2893.78
843.39	3411.92
843.56	3254.22
843.73	2904.02
843.90	2998.23
844.07	3260.37
844.24	3428.30
844.41	3080.14
844.58	2934.74
844.75	3225.55
844.92	3332.05
845.09	2940.88
845.26	2928.60
845.43	3307.47
845.60	3192.78
845.77	3055.57
845.94	3053.52
846.10	3459.02
846.27	2983.89
846.44	2781.14
846.61	2772.95
846.78	3366.86
846.95	3452.88
847.12	2887.64
847.29	2977.75
847.46	3145.68
847.63	3522.51
847.80	2879.44
847.97	2969.55
848.14	3641.29
848.31	3205.07
848.48	2787.29
848.65	2918.36
848.82	3213.26
848.98	3790.79
849.15	3016.66
849.32	3045.33
849.49	3403.72
849.66	3268.56
849.83	2885.59
850.00	2871.25
850.17	3495.88
850.34	3192.78
850.51	2885.59
850.68	2963.41
850.85	3745.73
851.01	3370.96
851.18	2926.55
851.35	2940.88
851.52	3246.03
851.69	3594.19
851.86	2906.07
852.03	2887.64
852.20	3356.62
852.37	3223.50
852.53	2820.05
852.70	2822.10
852.87	3307.47
853.04	3356.62
853.21	2826.20
853.38	3250.13
853.55	3583.95
853.72	3557.32
853.89	2797.53
854.05	2885.59
854.22	3151.82
854.39	3147.73
854.56	2844.63
854.73	3088.34
854.90	3008.47
855.07	3243.98
855.23	2854.87
855.40	2838.48
855.57	3143.63
855.74	2803.67
855.91	3110.86
856.08	2734.04
856.25	3022.80
856.41	3139.54
856.58	2897.88
856.75	2949.08
856.92	3045.33
857.09	3446.73
857.26	2658.26
857.42	2967.51
857.59	3442.64
857.76	3139.54
857.93	2987.99
858.10	2957.27
858.27	3051.47
858.43	3362.76
858.60	2955.22
858.77	2815.96
858.94	3133.39
859.11	3350.48
859.27	3000.27
859.44	2852.82
859.61	3696.58
859.78	3442.64
859.95	2910.16
860.12	2879.44
860.28	3758.02
860.45	3704.78
860.62	2871.25
860.79	2992.08
860.95	3114.96
861.12	3168.21
861.29	2834.39
861.46	2922.45
861.63	3192.78
861.79	3254.22
861.96	2688.98
862.13	2926.55
862.30	3540.94
862.47	3084.24
862.63	2873.30
862.80	3024.85
862.97	3395.53
863.14	3348.43
863.30	3012.56
863.47	2844.63
863.64	3610.57
863.81	3303.37
863.97	2754.52
864.14	2987.99
864.31	3215.31
864.48	3264.46
864.65	2901.97
864.81	3043.28
864.98	3354.57
865.15	3448.78
865.32	2885.59
865.48	3004.37
865.65	3551.18
865.82	3162.06
865.98	2942.93
866.15	3041.23
866.32	3174.35
866.49	3207.12
866.65	3020.75
866.82	3024.85
866.99	3229.65
867.16	3129.30
867.32	2949.08
867.49	2828.24
867.66	3153.87
867.83	3119.06
867.99	2901.97
868.16	2942.93
868.33	3002.32
868.49	3246.03
868.66	2861.01
868.83	2990.03
868.99	3262.41
869.16	3289.04
869.33	3039.19
869.50	3047.38
869.66	3248.08
869.83	3272.65
870.00	2811.86
870.16	3061.71
870.33	3315.66
870.50	3379.15
870.66	2981.84
870.83	2949.08
871.00	3268.56
871.17	3315.66
871.33	2955.22
871.50	2893.78
871.67	3293.13
871.83	3215.31
872.00	2971.60
872.17	2992.08
872.33	3575.75
872.50	3446.73
872.67	2969.55
872.83	2895.83
873.00	3334.09
873.17	3295.18
873.33	2904.02
873.50	2979.79
873.67	3145.68
873.83	3096.53
874.00	2996.18
874.16	3135.44
874.33	3291.09
874.50	3065.81
874.66	2899.92
874.83	3024.85
875.00	3551.18
875.16	3483.59
875.33	2910.16
875.50	2668.50
875.66	3164.11
875.83	3239.89
875.99	3051.47
876.16	3002.32
876.33	3098.58
876.49	3141.58
876.66	3026.90
876.83	2934.74
876.99	3022.80
877.16	3225.55
877.32	2824.15
877.49	3030.99
877.66	3383.24
877.82	3520.46
877.99	3043.28
878.15	3143.63
878.32	3223.50
878.49	3270.61
878.65	2996.18
878.82	3213.26
878.98	3166.16
879.15	3532.75
879.32	3108.82
879.48	3192.78
879.65	3270.61
879.81	3106.77
879.98	2971.60
880.15	3035.09
880.31	3377.10
880.48	3145.68
880.64	3016.66
880.81	3076.05
880.97	3622.86
881.14	3545.03
881.31	2879.44
881.47	3125.20
881.64	3180.50
881.80	2959.31
881.97	3182.54
882.13	2973.65
882.30	3033.04
882.47	3141.58
882.63	2854.87
882.80	2840.53
882.96	3155.92
883.13	3434.44
883.29	2904.02
883.46	2885.59
883.62	3710.92
883.79	3221.45
883.95	3090.38
884.12	2807.77
884.29	3483.59
884.45	3344.33
884.62	2912.21
884.78	2869.20
884.95	3641.29
885.11	3061.71
885.28	2977.75
885.44	3028.95
885.61	3446.73
885.77	3520.46
885.94	3080.14
886.10	2967.51
886.27	3256.27
886.43	3557.32
886.60	3172.30
886.76	2924.50
886.93	3053.52
887.09	3356.62
887.26	2811.86
887.42	3067.86
887.59	3493.83
887.75	3792.84
887.92	3155.92
888.08	3022.80
888.25	3610.57
888.41	3401.68
888.58	3016.66
888.74	2791.38
888.91	3028.95
>>>>>End Processed Spectral Data<<<<<
