SpectraSuite Data File
++++++++++++++++++++++++++++++++++++
Date: Fri May 06 08:13:51 CEST 2016
User: root
Dark Spectrum Present: No
Reference Spectrum Present: No
Number of Sampled Component Spectra: 1
Spectrometers: USB4C02835
Integration Time (usec): 100000 (USB4C02835)
Spectra Averaged: 1 (USB4C02835)
Boxcar Smoothing: 0 (USB4C02835)
Correct for Electrical Dark: No (USB4C02835)
Strobe/Lamp Enabled: No (USB4C02835)
Correct for Detector Non-linearity: No (USB4C02835)
Correct for Stray Light: No (USB4C02835)
Number of Pixels in Processed Spectrum: 3648
>>>>>Begin Processed Spectral Data<<<<<
177.47	2289.63
177.69	2289.63
177.91	2289.63
178.13	2258.91
178.36	2279.39
178.58	3059.67
178.80	3043.28
179.02	3063.76
179.24	3008.47
179.46	2770.90
179.68	2832.34
179.90	3184.59
180.13	3338.19
180.35	2666.46
180.57	2822.10
180.79	3393.48
181.01	3209.17
181.23	2867.16
181.45	3022.80
181.67	3473.36
181.90	3487.69
182.12	2930.64
182.34	2668.50
182.56	3309.52
182.78	3301.33
183.00	2797.53
183.22	2848.72
183.44	2899.92
183.66	3880.90
183.89	3028.95
184.11	2926.55
184.33	3393.48
184.55	3524.55
184.77	2852.82
184.99	2787.29
185.21	3209.17
185.43	3798.98
185.65	2885.59
185.87	2795.48
186.10	3768.26
186.32	3780.55
186.54	3067.86
186.76	2963.41
186.98	3497.93
187.20	3200.98
187.42	2887.64
187.64	2893.78
187.86	3336.14
188.08	3499.98
188.30	2766.81
188.52	2901.97
188.75	3491.79
188.97	3489.74
189.19	2822.10
189.41	2861.01
189.63	3389.39
189.85	3192.78
190.07	2746.33
190.29	2645.98
190.51	3510.22
190.73	3004.37
190.95	3059.67
191.17	2883.54
191.39	2971.60
191.61	3198.93
191.84	2861.01
192.06	3012.56
192.28	2947.03
192.50	3956.68
192.72	3033.04
192.94	2979.79
193.16	3557.32
193.38	3299.28
193.60	2764.76
193.82	2947.03
194.04	3512.27
194.26	3338.19
194.48	2883.54
194.70	2885.59
194.92	3211.22
195.14	3442.64
195.36	2830.29
195.58	2981.84
195.80	3278.80
196.02	3231.69
196.24	2879.44
196.46	2920.40
196.69	3231.69
196.91	3721.16
197.13	2949.08
197.35	2926.55
197.57	3549.13
197.79	3379.15
198.01	2967.51
198.23	2838.48
198.45	3377.10
198.67	2992.08
198.89	2731.99
199.11	2967.51
199.33	3135.44
199.55	2803.67
199.77	2865.11
199.99	3000.27
200.21	3282.89
200.43	3426.25
200.65	2762.71
200.87	2717.65
201.09	3291.09
201.31	3246.03
201.53	2936.79
201.75	2996.18
201.97	3303.37
202.19	3246.03
202.41	2889.68
202.63	2969.55
202.85	3418.06
203.07	3379.15
203.29	2955.22
203.51	2791.38
203.73	3139.54
203.95	3899.33
204.17	2795.48
204.39	2914.26
204.61	3303.37
204.83	3190.74
205.05	2990.03
205.27	2854.87
205.49	3782.60
205.71	3305.42
205.93	2686.94
206.15	2783.19
206.37	3254.22
206.59	3293.13
206.81	2682.84
207.03	2723.80
207.25	3117.01
207.47	3344.33
207.69	2879.44
207.91	3074.00
208.13	3614.66
208.34	3131.34
208.56	2838.48
208.78	2926.55
209.00	3227.60
209.22	3207.12
209.44	2910.16
209.66	2844.63
209.88	3258.32
210.10	3219.41
210.32	2854.87
210.54	2983.89
210.76	3200.98
210.98	3444.68
211.20	2719.70
211.42	3000.27
211.64	3585.99
211.86	3446.73
212.08	2987.99
212.30	2901.97
212.52	3241.93
212.74	3442.64
212.96	2947.03
213.17	2969.55
213.39	3440.59
213.61	3635.14
213.83	2838.48
214.05	2711.51
214.27	3475.40
214.49	3074.00
214.71	2756.57
214.93	2961.36
215.15	3231.69
215.37	3489.74
215.59	2707.41
215.81	2893.78
216.03	3538.89
216.24	3243.98
216.46	2873.30
216.68	2891.73
216.90	3588.04
217.12	3434.44
217.34	2740.18
217.56	3020.75
217.78	3608.52
218.00	3405.77
218.22	2963.41
218.44	2975.70
218.66	3258.32
218.87	3647.43
219.09	2963.41
219.31	2820.05
219.53	3297.23
219.75	3184.59
219.97	2996.18
220.19	2897.88
220.41	3164.11
220.63	3600.33
220.85	2920.40
221.06	2879.44
221.28	3504.07
221.50	3456.97
221.72	2887.64
221.94	2822.10
222.16	3321.81
222.38	3514.31
222.60	2826.20
222.82	2846.68
223.03	3475.40
223.25	3018.71
223.47	2881.49
223.69	3151.82
223.91	3413.96
224.13	3262.41
224.35	2725.85
224.57	3037.14
224.78	3477.45
225.00	3086.29
225.22	2957.27
225.44	2764.76
225.66	3373.00
225.88	3186.64
226.10	3028.95
226.32	2850.77
226.53	3575.75
226.75	3205.07
226.97	3000.27
227.19	2824.15
227.41	3098.58
227.63	3186.64
227.85	2672.60
228.06	2926.55
228.28	3284.94
228.50	3538.89
228.72	2713.56
228.94	2910.16
229.16	2961.36
229.37	3026.90
229.59	2738.13
229.81	3139.54
230.03	3217.36
230.25	2981.84
230.47	2717.65
230.69	2811.86
230.90	3475.40
231.12	3190.74
231.34	2920.40
231.56	2947.03
231.78	2983.89
232.00	3319.76
232.21	2928.60
232.43	2885.59
232.65	2873.30
232.87	3444.68
233.09	2740.18
233.30	2879.44
233.52	3542.99
233.74	3338.19
233.96	2873.30
234.18	3006.42
234.40	3256.27
234.61	3790.79
234.83	2750.42
235.05	2836.44
235.27	3885.00
235.49	3557.32
235.70	2783.19
235.92	2863.06
236.14	3360.72
236.36	3893.19
236.58	2861.01
236.79	2987.99
237.01	3223.50
237.23	3246.03
237.45	3096.53
237.67	2807.77
237.88	3370.96
238.10	3659.72
238.32	2834.39
238.54	2830.29
238.76	3319.76
238.97	3106.77
239.19	2791.38
239.41	2901.97
239.63	3528.65
239.85	3166.16
240.06	2938.84
240.28	2883.54
240.50	3514.31
240.72	3315.66
240.93	2715.61
241.15	2895.83
241.37	3215.31
241.59	3473.36
241.81	2858.96
242.02	2953.17
242.24	3368.91
242.46	3463.12
242.68	2744.28
242.89	2768.85
243.11	3481.55
243.33	3223.50
243.55	2834.39
243.76	2836.44
243.98	3084.24
244.20	3258.32
244.42	2838.48
244.64	2803.67
244.85	3051.47
245.07	3037.14
245.29	2875.35
245.51	2930.64
245.72	3309.52
245.94	3497.93
246.16	2893.78
246.38	2918.36
246.59	3176.40
246.81	3147.73
247.03	2738.13
247.24	2660.31
247.46	3139.54
247.68	3307.47
247.90	2738.13
248.11	2895.83
248.33	3368.91
248.55	3295.18
248.77	2883.54
248.98	3000.27
249.20	3659.72
249.42	3258.32
249.64	2797.53
249.85	2856.92
250.07	3121.10
250.29	3461.07
250.50	2928.60
250.72	2852.82
250.94	3346.38
251.16	3854.28
251.37	2803.67
251.59	2910.16
251.81	3373.00
252.02	3559.37
252.24	2772.95
252.46	2959.31
252.68	3200.98
252.89	3174.35
253.11	2650.07
253.33	2965.46
253.54	3606.47
253.76	3074.00
253.98	2858.96
254.20	2899.92
254.41	3100.62
254.63	3272.65
254.85	2775.00
255.06	3000.27
255.28	3334.09
255.50	3221.45
255.71	2813.91
255.93	2705.37
256.15	3254.22
256.36	3364.81
256.58	2736.09
256.80	2793.43
257.02	3157.97
257.23	3252.17
257.45	2904.02
257.67	2977.75
257.88	3200.98
258.10	3401.68
258.32	2856.92
258.53	2955.22
258.75	3637.19
258.97	3164.11
259.18	2789.33
259.40	2801.62
259.62	3536.84
259.83	3524.55
260.05	2889.68
260.27	3770.31
260.48	3467.21
260.70	3143.63
260.92	2760.66
261.13	2840.53
261.35	3381.20
261.57	3387.34
261.78	2781.14
262.00	2725.85
262.22	3395.53
262.43	3151.82
262.65	2887.64
262.86	2908.12
263.08	3811.27
263.30	3286.99
263.51	2723.80
263.73	2781.14
263.95	3612.62
264.16	3127.25
264.38	2756.57
264.60	2828.24
264.81	3223.50
265.03	3483.59
265.25	3325.90
265.46	2797.53
265.68	3608.52
265.89	3452.88
266.11	2807.77
266.33	2822.10
266.54	3549.13
266.76	3313.61
266.98	2936.79
267.19	3000.27
267.41	3530.70
267.62	3221.45
267.84	2723.80
268.06	3008.47
268.27	3270.61
268.49	3516.36
268.70	2863.06
268.92	2983.89
269.14	3049.43
269.35	2959.31
269.57	2883.54
269.79	2928.60
270.00	3188.69
270.22	3667.91
270.43	2746.33
270.65	2705.37
270.87	3241.93
271.08	3475.40
271.30	2971.60
271.51	2836.44
271.73	3438.54
271.95	3577.80
272.16	2740.18
272.38	2983.89
272.59	3237.84
272.81	3344.33
273.02	2838.48
273.24	3002.32
273.46	3467.21
273.67	3071.95
273.89	2740.18
274.10	2832.34
274.32	3512.27
274.54	3256.27
274.75	2918.36
274.97	2983.89
275.18	3465.16
275.40	3373.00
275.61	2910.16
275.83	3018.71
276.05	3082.19
276.26	3286.99
276.48	3010.51
276.69	3020.75
276.91	3131.34
277.12	3588.04
277.34	3033.04
277.55	3155.92
277.77	3299.28
277.99	3225.55
278.20	3059.67
278.42	2924.50
278.63	3098.58
278.85	3123.15
279.06	2955.22
279.28	3114.96
279.49	3411.92
279.71	3440.59
279.93	2944.98
280.14	3100.62
280.36	3151.82
280.57	3461.07
280.79	3139.54
281.00	2887.64
281.22	3186.64
281.43	3641.29
281.65	2768.85
281.86	2865.11
282.08	3327.95
282.29	3745.73
282.51	2820.05
282.73	2910.16
282.94	2938.84
283.16	3411.92
283.37	3143.63
283.59	3000.27
283.80	3344.33
284.02	3291.09
284.23	3041.23
284.45	3084.24
284.66	3098.58
284.88	3092.43
285.09	2895.83
285.31	3035.09
285.52	3366.86
285.74	3020.75
285.95	3082.19
286.17	3041.23
286.38	3510.22
286.60	3213.26
286.81	2963.41
287.03	3065.81
287.24	3250.13
287.46	3389.39
287.67	3059.67
287.89	3139.54
288.10	3266.51
288.32	3342.28
288.53	3155.92
288.75	3035.09
288.96	3596.23
289.18	3168.21
289.39	2834.39
289.61	3076.05
289.82	3753.93
290.04	3682.25
290.25	2869.20
290.47	3076.05
290.68	3198.93
290.90	3467.21
291.11	2775.00
291.33	3149.78
291.54	3141.58
291.76	3223.50
291.97	3137.49
292.18	3174.35
292.40	3129.30
292.61	3168.21
292.83	3211.22
293.04	2985.94
293.26	3313.61
293.47	3241.93
293.69	2961.36
293.90	2908.12
294.12	3651.53
294.33	3264.46
294.55	2979.79
294.76	3227.60
294.97	3637.19
295.19	3608.52
295.40	2981.84
295.62	3030.99
295.83	3461.07
296.05	3053.52
296.26	3233.74
296.48	2963.41
296.69	3213.26
296.90	3270.61
297.12	3155.92
297.33	3155.92
297.55	3327.95
297.76	3387.34
297.98	3084.24
298.19	3213.26
298.41	3225.55
298.62	3061.71
298.83	3217.36
299.05	3090.38
299.26	3233.74
299.48	3160.02
299.69	3082.19
299.90	2973.65
300.12	3096.53
300.33	3487.69
300.55	2975.70
300.76	3090.38
300.98	3127.25
301.19	3393.48
301.40	3006.42
301.62	2932.69
301.83	3387.34
302.05	3258.32
302.26	2926.55
302.47	3090.38
302.69	3067.86
302.90	3270.61
303.12	2850.77
303.33	3100.62
303.54	3610.57
303.76	3219.41
303.97	2936.79
304.19	3137.49
304.40	3155.92
304.61	3407.82
304.83	3125.20
305.04	3084.24
305.26	3362.76
305.47	3225.55
305.68	2990.03
305.90	2887.64
306.11	3528.65
306.33	3248.08
306.54	2785.24
306.75	3063.76
306.97	2979.79
307.18	3051.47
307.39	2981.84
307.61	3182.54
307.82	3280.85
308.04	3381.20
308.25	2791.38
308.46	3112.91
308.68	3241.93
308.89	3297.23
309.10	3090.38
309.32	3084.24
309.53	3270.61
309.74	3403.72
309.96	2916.31
310.17	3102.67
310.39	3143.63
310.60	3370.96
310.81	3024.85
311.03	2994.13
311.24	3430.35
311.45	3305.42
311.67	3301.33
311.88	3082.19
312.09	3188.69
312.31	3157.97
312.52	2842.58
312.73	2893.78
312.95	3033.04
313.16	3024.85
313.37	3147.73
313.59	3188.69
313.80	3489.74
314.01	3532.75
314.23	3030.99
314.44	2916.31
314.65	3049.43
314.87	3176.40
315.08	2975.70
315.29	2987.99
315.51	3092.43
315.72	2926.55
315.93	3069.91
316.15	3008.47
316.36	3194.83
316.57	3385.29
316.79	3051.47
317.00	2947.03
317.21	3375.05
317.43	3084.24
317.64	2969.55
317.85	2934.74
318.07	3098.58
318.28	3211.22
318.49	3114.96
318.70	3276.75
318.92	3373.00
319.13	3424.20
319.34	3248.08
319.56	3049.43
319.77	3307.47
319.98	3504.07
320.20	3356.62
320.41	3229.65
320.62	3454.92
320.83	3061.71
321.05	3198.93
321.26	3049.43
321.47	3330.00
321.69	3508.17
321.90	2883.54
322.11	2965.46
322.32	3334.09
322.54	3618.76
322.75	2969.55
322.96	3917.76
323.18	3000.27
323.39	2959.31
323.60	2906.07
323.81	3098.58
324.03	3188.69
324.24	3262.41
324.45	3147.73
324.66	2846.68
324.88	3497.93
325.09	3520.46
325.30	2985.94
325.52	2899.92
325.73	3327.95
325.94	3053.52
326.15	2883.54
326.37	2910.16
326.58	3424.20
326.79	3610.57
327.00	2942.93
327.22	3028.95
327.43	3229.65
327.64	3039.19
327.85	3149.78
328.07	3051.47
328.28	3729.35
328.49	3188.69
328.70	3006.42
328.92	2942.93
329.13	3252.17
329.34	3403.72
329.55	3192.78
329.76	3090.38
329.98	3254.22
330.19	3510.22
330.40	3016.66
330.61	3092.43
330.83	3407.82
331.04	3098.58
331.25	3074.00
331.46	3024.85
331.68	3033.04
331.89	3399.63
332.10	2996.18
332.31	2834.39
332.52	3213.26
332.74	3475.40
332.95	2899.92
333.16	3028.95
333.37	3424.20
333.58	3090.38
333.80	3016.66
334.01	2783.19
334.22	3311.57
334.43	3129.30
334.64	2934.74
334.86	2975.70
335.07	3114.96
335.28	3557.32
335.49	2928.60
335.70	3037.14
335.92	3563.47
336.13	3747.78
336.34	3041.23
336.55	2985.94
336.76	3426.25
336.98	2805.72
337.19	2983.89
337.40	3098.58
337.61	3729.35
337.82	3239.89
338.04	3033.04
338.25	2836.44
338.46	3246.03
338.67	3190.74
338.88	2908.12
339.09	2906.07
339.31	3200.98
339.52	3022.80
339.73	2926.55
339.94	3078.10
340.15	3469.26
340.36	3192.78
340.58	3086.29
340.79	2904.02
341.00	3434.44
341.21	3039.19
341.42	3192.78
341.63	3002.32
341.85	3491.79
342.06	3301.33
342.27	2942.93
342.48	3151.82
342.69	3026.90
342.90	3370.96
343.12	3350.48
343.33	2955.22
343.54	3536.84
343.75	3590.09
343.96	3119.06
344.17	2930.64
344.38	3246.03
344.60	3141.58
344.81	2947.03
345.02	3004.37
345.23	3487.69
345.44	3796.93
345.65	3139.54
345.86	3049.43
346.07	3360.72
346.29	3151.82
346.50	3188.69
346.71	3067.86
346.92	3610.57
347.13	3694.54
347.34	3010.51
347.55	2940.88
347.76	3418.06
347.98	2979.79
348.19	3069.91
348.40	3200.98
348.61	3147.73
348.82	3657.67
349.03	3139.54
349.24	2908.12
349.45	3684.30
349.66	2865.11
349.88	3018.71
350.09	2942.93
350.30	3510.22
350.51	3530.70
350.72	3186.64
350.93	3006.42
351.14	3176.40
351.35	3327.95
351.56	3022.80
351.77	3125.20
351.99	3334.09
352.20	3493.83
352.41	3074.00
352.62	2789.33
352.83	3225.55
353.04	3307.47
353.25	2934.74
353.46	3006.42
353.67	3569.61
353.88	2828.24
354.09	2957.27
354.30	3076.05
354.52	3432.40
354.73	3264.46
354.94	3010.51
355.15	2965.46
355.36	3721.16
355.57	3231.69
355.78	2936.79
355.99	2930.64
356.20	3229.65
356.41	3602.38
356.62	3024.85
356.83	3041.23
357.04	3559.37
357.25	2973.65
357.46	2983.89
357.68	2781.14
357.89	3119.06
358.10	3317.71
358.31	2975.70
358.52	2944.98
358.73	3026.90
358.94	2971.60
359.15	2953.17
359.36	2971.60
359.57	3319.76
359.78	3282.89
359.99	3180.50
360.20	2901.97
360.41	3198.93
360.62	3499.98
360.83	3119.06
361.04	2981.84
361.25	3389.39
361.46	3551.18
361.67	3155.92
361.88	3051.47
362.09	3557.32
362.30	3284.94
362.51	2951.12
362.72	3090.38
362.93	3499.98
363.14	3387.34
363.35	3180.50
363.56	2985.94
363.78	3520.46
363.99	3467.21
364.20	3043.28
364.41	3061.71
364.62	3538.89
364.83	3332.05
365.04	3024.85
365.25	2996.18
365.46	3766.21
365.67	3131.34
365.88	3200.98
366.09	2985.94
366.30	3123.15
366.51	3368.91
366.72	2963.41
366.93	2897.88
367.14	3311.57
367.35	3534.79
367.56	2885.59
367.77	3149.78
367.98	3235.79
368.18	3336.14
368.39	3151.82
368.60	2879.44
368.81	3479.50
369.02	3356.62
369.23	3020.75
369.44	2901.97
369.65	3155.92
369.86	3327.95
370.07	3055.57
370.28	2942.93
370.49	3426.25
370.70	3336.14
370.91	2928.60
371.12	2877.40
371.33	3520.46
371.54	3200.98
371.75	3131.34
371.96	2799.57
372.17	3375.05
372.38	3291.09
372.59	2992.08
372.80	3008.47
373.01	3153.87
373.22	3237.84
373.43	2942.93
373.64	2863.06
373.85	3463.12
374.06	3655.62
374.26	3198.93
374.47	3196.88
374.68	3567.56
374.89	3377.10
375.10	2871.25
375.31	3092.43
375.52	3280.85
375.73	3219.41
375.94	2854.87
376.15	3157.97
376.36	3157.97
376.57	3170.26
376.78	3065.81
376.99	3028.95
377.20	3555.27
377.40	3346.38
377.61	3309.52
377.82	3047.38
378.03	3499.98
378.24	3403.72
378.45	3106.77
378.66	3076.05
378.87	2983.89
379.08	2987.99
379.29	2934.74
379.50	3172.30
379.71	3262.41
379.91	3526.60
380.12	2998.23
380.33	3086.29
380.54	3274.70
380.75	3211.22
380.96	3051.47
381.17	2973.65
381.38	3307.47
381.59	3356.62
381.80	3065.81
382.00	3112.91
382.21	3334.09
382.42	3678.15
382.63	3334.09
382.84	3221.45
383.05	3450.83
383.26	3573.71
383.47	3121.10
383.68	2934.74
383.88	3438.54
384.09	3368.91
384.30	3313.61
384.51	3108.82
384.72	3227.60
384.93	3094.48
385.14	3141.58
385.35	3256.27
385.55	2971.60
385.76	3581.90
385.97	3059.67
386.18	2910.16
386.39	3164.11
386.60	3198.93
386.81	3061.71
387.02	2934.74
387.22	3008.47
387.43	3352.52
387.64	3055.57
387.85	3231.69
388.06	3315.66
388.27	4343.74
388.48	7923.59
388.68	12056.39
388.89	15118.11
389.10	16602.88
389.31	16289.54
389.52	13090.62
389.73	11210.58
389.93	10311.52
390.14	9363.31
390.35	8517.50
390.56	8118.15
390.77	6608.80
390.98	5007.28
391.18	4124.61
391.39	3913.67
391.60	3383.24
391.81	3299.28
392.02	3098.58
392.23	3758.02
392.43	3319.76
392.64	3139.54
392.85	3114.96
393.06	3551.18
393.27	3229.65
393.47	2990.03
393.68	3117.01
393.89	3229.65
394.10	3551.18
394.31	2934.74
394.52	2899.92
394.72	3164.11
394.93	3649.48
395.14	2926.55
395.35	3147.73
395.56	3129.30
395.76	3125.20
395.97	2975.70
396.18	3213.26
396.39	3395.53
396.60	3991.49
396.80	3456.97
397.01	3258.32
397.22	3473.36
397.43	3454.92
397.64	3026.90
397.84	3160.02
398.05	3745.73
398.26	3266.51
398.47	3184.59
398.67	3268.56
398.88	3198.93
399.09	3395.53
399.30	2955.22
399.51	3114.96
399.71	3182.54
399.92	3266.51
400.13	3112.91
400.34	3065.81
400.54	3313.61
400.75	3571.66
400.96	3219.41
401.17	3381.20
401.37	3397.58
401.58	3213.26
401.79	3037.14
402.00	3223.50
402.21	3778.50
402.41	3448.78
402.62	3399.63
402.83	3563.47
403.04	3661.77
403.24	4065.22
403.45	3225.55
403.66	3426.25
403.87	3475.40
404.07	3585.99
404.28	3327.95
404.49	3393.48
404.70	3348.43
404.90	3418.06
405.11	2992.08
405.32	3178.45
405.52	3151.82
405.73	3155.92
405.94	3000.27
406.15	3157.97
406.35	3420.11
406.56	3422.16
406.77	3078.10
406.98	3051.47
407.18	3127.25
407.39	3616.71
407.60	3074.00
407.80	3139.54
408.01	3186.64
408.22	3411.92
408.43	2910.16
408.63	3180.50
408.84	3450.83
409.05	3407.82
409.25	2936.79
409.46	2994.13
409.67	3213.26
409.88	3117.01
410.08	3127.25
410.29	2983.89
410.50	3497.93
410.70	3348.43
410.91	2979.79
411.12	3164.11
411.32	3313.61
411.53	3133.39
411.74	3059.67
411.95	3198.93
412.15	3274.70
412.36	3391.44
412.57	3243.98
412.77	3264.46
412.98	3229.65
413.19	3248.08
413.39	3170.26
413.60	3110.86
413.81	3542.99
414.01	3024.85
414.22	3069.91
414.43	3266.51
414.63	3246.03
414.84	3510.22
415.05	3057.62
415.25	2959.31
415.46	3401.68
415.67	3127.25
415.87	3059.67
416.08	3002.32
416.29	3225.55
416.49	3354.57
416.70	3028.95
416.91	3082.19
417.11	3182.54
417.32	3532.75
417.53	3168.21
417.73	3135.44
417.94	3254.22
418.15	3295.18
418.35	3121.10
418.56	3039.19
418.77	3737.54
418.97	3291.09
419.18	3254.22
419.38	2762.71
419.59	3272.65
419.80	3549.13
420.00	2942.93
420.21	3043.28
420.42	3483.59
420.62	3377.10
420.83	3039.19
421.04	3041.23
421.24	3262.41
421.45	3448.78
421.65	3065.81
421.86	3090.38
422.07	3516.36
422.27	3344.33
422.48	2961.36
422.69	2889.68
422.89	3268.56
423.10	3145.68
423.30	2893.78
423.51	3090.38
423.72	3309.52
423.92	3403.72
424.13	2916.31
424.33	3123.15
424.54	3452.88
424.75	3332.05
424.95	3286.99
425.16	3086.29
425.36	3264.46
425.57	3459.02
425.78	3229.65
425.98	3172.30
426.19	3274.70
426.39	3110.86
426.60	3153.87
426.81	3131.34
427.01	3395.53
427.22	3174.35
427.42	2779.09
427.63	3004.37
427.83	3526.60
428.04	3631.05
428.25	3094.48
428.45	3184.59
428.66	3487.69
428.86	3209.17
429.07	3069.91
429.28	3074.00
429.48	3297.23
429.69	3098.58
429.89	3071.95
430.10	2996.18
430.30	3485.64
430.51	3459.02
430.71	2947.03
430.92	3114.96
431.13	3264.46
431.33	3395.53
431.54	3178.45
431.74	3203.02
431.95	3729.35
432.15	2992.08
432.36	3037.14
432.56	3102.67
432.77	3710.92
432.98	3663.82
433.18	3098.58
433.39	2928.60
433.59	3215.31
433.80	3715.02
434.00	3198.93
434.21	3041.23
434.41	3125.20
434.62	3733.45
434.82	2910.16
435.03	2967.51
435.23	3336.14
435.44	2869.20
435.64	3012.56
435.85	3098.58
436.06	3493.83
436.26	3520.46
436.47	3024.85
436.67	3008.47
436.88	3229.65
437.08	3487.69
437.29	3172.30
437.49	3196.88
437.70	3481.55
437.90	3295.18
438.11	3346.38
438.31	3084.24
438.52	3549.13
438.72	3497.93
438.93	3405.77
439.13	3182.54
439.34	3508.17
439.54	3268.56
439.75	3205.07
439.95	3188.69
440.16	3147.73
440.36	3291.09
440.57	3117.01
440.77	3063.76
440.98	3205.07
441.18	3395.53
441.39	2971.60
441.59	2983.89
441.80	3712.97
442.00	3258.32
442.21	3145.68
442.41	2922.45
442.62	3555.27
442.82	3239.89
443.02	3059.67
443.23	3055.57
443.43	3198.93
443.64	3612.62
443.84	2973.65
444.05	3164.11
444.25	3340.24
444.46	3215.31
444.66	2983.89
444.87	3334.09
445.07	2983.89
445.28	3260.37
445.48	3235.79
445.69	3166.16
445.89	3819.46
446.09	3317.71
446.30	3375.05
446.50	3465.16
446.71	4974.52
446.91	6285.22
447.12	7182.23
447.32	7763.85
447.53	7663.50
447.73	6412.19
447.93	5703.59
448.14	5269.42
448.34	5345.20
448.55	4440.00
448.75	4523.96
448.96	4198.34
449.16	4093.89
449.36	3936.20
449.57	3327.95
449.77	3168.21
449.98	3164.11
450.18	3420.11
450.39	3000.27
450.59	3233.74
450.79	3315.66
451.00	3141.58
451.20	3213.26
451.41	3016.66
451.61	3346.38
451.81	3221.45
452.02	3000.27
452.22	3121.10
452.43	3190.74
452.63	3143.63
452.84	3184.59
453.04	3008.47
453.24	3364.81
453.45	3176.40
453.65	3043.28
453.86	3010.51
454.06	3289.04
454.26	3254.22
454.47	2951.12
454.67	3327.95
454.87	3373.00
455.08	3213.26
455.28	3166.16
455.49	3248.08
455.69	3153.87
455.89	3739.59
456.10	3160.02
456.30	2985.94
456.51	3366.86
456.71	3305.42
456.91	3233.74
457.12	3074.00
457.32	3395.53
457.52	3080.14
457.73	3270.61
457.93	3293.13
458.14	3256.27
458.34	2942.93
458.54	3100.62
458.75	2981.84
458.95	3512.27
459.15	3465.16
459.36	3119.06
459.56	3082.19
459.76	3749.83
459.97	3327.95
460.17	3014.61
460.37	3133.39
460.58	3323.85
460.78	3362.76
460.99	3139.54
461.19	3114.96
461.39	3127.25
461.60	3227.60
461.80	3094.48
462.00	2996.18
462.21	3262.41
462.41	3143.63
462.61	2889.68
462.82	2846.68
463.02	3336.14
463.22	3321.81
463.43	3147.73
463.63	2934.74
463.83	3532.75
464.04	3436.49
464.24	3069.91
464.44	2944.98
464.64	3323.85
464.85	3413.96
465.05	3125.20
465.25	3000.27
465.46	3207.12
465.66	3356.62
465.86	3176.40
466.07	3069.91
466.27	3217.36
466.47	3065.81
466.68	2858.96
466.88	3172.30
467.08	3440.59
467.29	3471.31
467.49	3016.66
467.69	3219.41
467.89	3459.02
468.10	3270.61
468.30	3125.20
468.50	3225.55
468.71	3387.34
468.91	2967.51
469.11	3264.46
469.31	3178.45
469.52	3090.38
469.72	3579.85
469.92	3330.00
470.13	3039.19
470.33	3284.94
470.53	3266.51
470.73	3569.61
470.94	3909.57
471.14	4100.03
471.34	4794.29
471.54	4417.47
471.75	4073.41
471.95	3825.61
472.15	3829.70
472.36	3715.02
472.56	3561.42
472.76	3831.75
472.96	3764.17
473.17	3409.87
473.37	3184.59
473.57	3278.80
473.77	3463.12
473.98	3200.98
474.18	3014.61
474.38	3966.92
474.58	3196.88
474.79	2971.60
474.99	3168.21
475.19	3499.98
475.39	3164.11
475.60	3168.21
475.80	2957.27
476.00	3295.18
476.20	3131.34
476.41	3125.20
476.61	3078.10
476.81	3499.98
477.01	3074.00
477.21	3366.86
477.42	3123.15
477.62	3041.23
477.82	3303.37
478.02	3041.23
478.23	3065.81
478.43	3110.86
478.63	3225.55
478.83	3061.71
479.03	3157.97
479.24	3528.65
479.44	3663.82
479.64	3127.25
479.84	2838.48
480.04	3200.98
480.25	3448.78
480.45	3057.62
480.65	2985.94
480.85	3629.00
481.06	3123.15
481.26	3127.25
481.46	3080.14
481.66	3411.92
481.86	3084.24
482.06	3237.84
482.27	3186.64
482.47	3209.17
482.67	3418.06
482.87	3131.34
483.07	3127.25
483.28	3164.11
483.48	3041.23
483.68	3080.14
483.88	2992.08
484.08	2873.30
484.29	2934.74
484.49	3221.45
484.69	2897.88
484.89	3573.71
485.09	3454.92
485.29	3078.10
485.50	3237.84
485.70	3211.22
485.90	3499.98
486.10	3112.91
486.30	3010.51
486.50	3545.03
486.71	3274.70
486.91	3108.82
487.11	3155.92
487.31	3028.95
487.51	3411.92
487.71	3061.71
487.91	2942.93
488.12	3086.29
488.32	2834.39
488.52	3100.62
488.72	2764.76
488.92	3278.80
489.12	3465.16
489.32	3248.08
489.53	3041.23
489.73	3000.27
489.93	3667.91
490.13	3061.71
490.33	2969.55
490.53	3340.24
490.73	3514.31
490.94	2920.40
491.14	3172.30
491.34	3485.64
491.54	3459.02
491.74	4036.55
491.94	4634.55
492.14	5152.69
492.34	5205.94
492.54	4868.02
492.75	4263.87
492.95	4421.56
493.15	3997.64
493.35	3911.62
493.55	3803.08
493.75	3758.02
493.95	3889.09
494.15	3327.95
494.35	3215.31
494.56	3311.57
494.76	3196.88
494.96	3184.59
495.16	2951.12
495.36	3286.99
495.56	3354.57
495.76	3114.96
495.96	3074.00
496.16	3149.78
496.36	3684.30
496.56	2981.84
496.77	3127.25
496.97	3307.47
497.17	3631.05
497.37	2914.26
497.57	3117.01
497.77	3266.51
497.97	3057.62
498.17	3049.43
498.37	3065.81
498.57	3487.69
498.77	3264.46
498.97	3194.83
499.17	3413.96
499.38	3200.98
499.58	3418.06
499.78	3297.23
499.98	3233.74
500.18	3188.69
500.38	3065.81
500.58	3266.51
500.78	3743.69
500.98	6244.26
501.18	8359.81
501.38	9852.78
501.58	10813.28
501.78	10796.89
501.98	9037.69
502.18	7620.49
502.38	6555.55
502.58	6559.64
502.78	5744.55
502.98	5418.93
503.18	5279.66
503.38	4911.03
503.59	4134.85
503.79	4005.83
503.99	3717.06
504.19	3897.28
504.39	3946.44
504.59	3715.02
504.79	3614.66
504.99	4052.93
505.19	3715.02
505.39	3403.72
505.59	3530.70
505.79	3792.84
505.99	3446.73
506.19	3186.64
506.39	3416.01
506.59	3176.40
506.79	3184.59
506.99	3307.47
507.19	3057.62
507.39	3354.57
507.59	3110.86
507.79	3045.33
507.99	3069.91
508.19	3358.67
508.39	3170.26
508.59	3045.33
508.79	3123.15
508.99	3708.87
509.19	3102.67
509.39	3135.44
509.59	2985.94
509.79	3139.54
509.99	3389.39
510.19	3196.88
510.39	3160.02
510.59	3325.90
510.79	3237.84
510.99	2891.73
511.19	2961.36
511.39	3637.19
511.59	3532.75
511.79	3233.74
511.99	3084.24
512.19	3532.75
512.38	3248.08
512.58	3004.37
512.78	3008.47
512.98	3561.42
513.18	3606.47
513.38	2998.23
513.58	3168.21
513.78	3278.80
513.98	3276.75
514.18	3008.47
514.38	3065.81
514.58	3327.95
514.78	3133.39
514.98	3002.32
515.18	3010.51
515.38	3020.75
515.58	3622.86
515.78	3076.05
515.98	3108.82
516.18	3377.10
516.38	3299.28
516.57	3057.62
516.77	3123.15
516.97	3387.34
517.17	3180.50
517.37	2885.59
517.57	3110.86
517.77	3295.18
517.97	3106.77
518.17	3166.16
518.37	2926.55
518.57	3139.54
518.77	3170.26
518.97	3094.48
519.16	3043.28
519.36	3577.80
519.56	3155.92
519.76	2987.99
519.96	3106.77
520.16	3540.94
520.36	3135.44
520.56	3303.37
520.76	2920.40
520.96	3239.89
521.16	3602.38
521.35	3241.93
521.55	3170.26
521.75	3286.99
521.95	3190.74
522.15	2944.98
522.35	3006.42
522.55	3117.01
522.75	3454.92
522.95	2961.36
523.14	2901.97
523.34	3221.45
523.54	3071.95
523.74	3088.34
523.94	3119.06
524.14	3018.71
524.34	3370.96
524.54	3190.74
524.73	3043.28
524.93	3430.35
525.13	3239.89
525.33	2918.36
525.53	3276.75
525.73	3454.92
525.93	3276.75
526.13	3030.99
526.32	2953.17
526.52	3551.18
526.72	3493.83
526.92	3123.15
527.12	3067.86
527.32	3071.95
527.52	3286.99
527.71	3053.52
527.91	3131.34
528.11	3200.98
528.31	3250.13
528.51	3004.37
528.71	3127.25
528.90	3432.40
529.10	3459.02
529.30	3094.48
529.50	2764.76
529.70	3286.99
529.90	3127.25
530.09	3047.38
530.29	2916.31
530.49	3176.40
530.69	3819.46
530.89	3227.60
531.09	3131.34
531.28	3278.80
531.48	3545.03
531.68	3100.62
531.88	3143.63
532.08	3477.45
532.28	3176.40
532.47	3192.78
532.67	3049.43
532.87	3438.54
533.07	3139.54
533.27	3131.34
533.46	3137.49
533.66	3407.82
533.86	3225.55
534.06	3100.62
534.26	3088.34
534.45	3157.97
534.65	3442.64
534.85	3188.69
535.05	3065.81
535.25	3487.69
535.44	2975.70
535.64	3102.67
535.84	3121.10
536.04	3137.49
536.24	3131.34
536.43	3051.47
536.63	2971.60
536.83	3217.36
537.03	3301.33
537.22	2893.78
537.42	2910.16
537.62	3379.15
537.82	3160.02
538.02	3239.89
538.21	3141.58
538.41	3823.56
538.61	3323.85
538.81	3047.38
539.00	3131.34
539.20	3049.43
539.40	3110.86
539.60	3049.43
539.79	3276.75
539.99	3260.37
540.19	3080.14
540.39	2963.41
540.58	3088.34
540.78	3491.79
540.98	3319.76
541.18	3315.66
541.37	3039.19
541.57	3321.81
541.77	3385.29
541.97	2998.23
542.16	2914.26
542.36	3180.50
542.56	3127.25
542.76	3188.69
542.95	3137.49
543.15	3454.92
543.35	3405.77
543.54	3000.27
543.74	3004.37
543.94	3608.52
544.14	3069.91
544.33	3162.06
544.53	3037.14
544.73	3172.30
544.93	3254.22
545.12	3059.67
545.32	3088.34
545.52	3160.02
545.71	3037.14
545.91	3033.04
546.11	3024.85
546.30	3082.19
546.50	3334.09
546.70	3184.59
546.90	3076.05
547.09	3004.37
547.29	3270.61
547.49	3147.73
547.68	3071.95
547.88	3190.74
548.08	3491.79
548.27	3424.20
548.47	3020.75
548.67	3164.11
548.87	3354.57
549.06	2975.70
549.26	3020.75
549.46	3393.48
549.65	3151.82
549.85	3114.96
550.05	3053.52
550.24	3067.86
550.44	3186.64
550.64	3125.20
550.83	3043.28
551.03	3483.59
551.23	3401.68
551.42	3119.06
551.62	3123.15
551.82	3260.37
552.01	3205.07
552.21	3444.68
552.41	3084.24
552.60	3629.00
552.80	3227.60
553.00	2996.18
553.19	3094.48
553.39	3571.66
553.59	3049.43
553.78	3137.49
553.98	3014.61
554.17	3065.81
554.37	3319.76
554.57	3180.50
554.76	2926.55
554.96	3200.98
555.16	3305.42
555.35	3117.01
555.55	3196.88
555.75	3315.66
555.94	3444.68
556.14	2899.92
556.33	3082.19
556.53	3196.88
556.73	3205.07
556.92	3051.47
557.12	3024.85
557.32	3715.02
557.51	3510.22
557.71	3186.64
557.90	3254.22
558.10	3459.02
558.30	3215.31
558.49	3147.73
558.69	3061.71
558.88	3483.59
559.08	3321.81
559.28	3117.01
559.47	3123.15
559.67	3416.01
559.86	3719.11
560.06	3016.66
560.26	3049.43
560.45	3450.83
560.65	3151.82
560.84	3360.72
561.04	2992.08
561.24	3413.96
561.43	3000.27
561.63	3219.41
561.82	3166.16
562.02	3385.29
562.22	3039.19
562.41	2987.99
562.61	3049.43
562.80	3035.09
563.00	3708.87
563.19	3098.58
563.39	3192.78
563.59	3411.92
563.78	3055.57
563.98	2912.21
564.17	2992.08
564.37	2977.75
564.56	3190.74
564.76	2938.84
564.96	3164.11
565.15	3315.66
565.35	3862.47
565.54	3092.43
565.74	3002.32
565.93	3346.38
566.13	3246.03
566.32	3157.97
566.52	3192.78
566.71	3356.62
566.91	3387.34
567.11	3123.15
567.30	3000.27
567.50	3332.05
567.69	3327.95
567.89	3084.24
568.08	2975.70
568.28	3319.76
568.47	3055.57
568.67	3082.19
568.86	3022.80
569.06	3401.68
569.25	3180.50
569.45	2912.21
569.64	3125.20
569.84	3211.22
570.04	3346.38
570.23	3041.23
570.43	3090.38
570.62	3250.13
570.82	3614.66
571.01	2877.40
571.21	2994.13
571.40	3098.58
571.60	3444.68
571.79	3147.73
571.99	3041.23
572.18	3057.62
572.38	3250.13
572.57	3078.10
572.77	3114.96
572.96	3928.00
573.16	3344.33
573.35	3035.09
573.55	3252.17
573.74	3526.60
573.94	3229.65
574.13	3086.29
574.33	3262.41
574.52	3639.24
574.71	3194.83
574.91	3065.81
575.10	2992.08
575.30	3117.01
575.49	3098.58
575.69	2914.26
575.88	3112.91
576.08	3209.17
576.27	3514.31
576.47	2920.40
576.66	3327.95
576.86	3577.80
577.05	3381.20
577.25	3086.29
577.44	3272.65
577.64	3200.98
577.83	3504.07
578.02	3090.38
578.22	3272.65
578.41	3598.28
578.61	3233.74
578.80	2863.06
579.00	3067.86
579.19	3217.36
579.39	3313.61
579.58	3215.31
579.77	3106.77
579.97	3569.61
580.16	3551.18
580.36	3286.99
580.55	3147.73
580.75	3246.03
580.94	3305.42
581.13	3229.65
581.33	3311.57
581.52	3295.18
581.72	3663.82
581.91	3221.45
582.11	3059.67
582.30	3434.44
582.49	3338.19
582.69	3358.67
582.88	3131.34
583.08	3325.90
583.27	3436.49
583.47	3207.12
583.66	3008.47
583.85	3127.25
584.05	3176.40
584.24	3182.54
584.44	3213.26
584.63	3473.36
584.82	3581.90
585.02	3362.76
585.21	3315.66
585.41	3373.00
585.60	3289.04
585.79	3344.33
585.99	3438.54
586.18	3250.13
586.37	4229.06
586.57	6346.66
586.76	17835.76
586.96	37590.47
587.15	51197.17
587.34	59792.50
587.54	63212.60
587.73	55981.23
587.93	40420.76
588.12	31165.99
588.31	25458.30
588.51	22871.72
588.70	21067.45
588.89	18505.45
589.09	15855.37
589.28	13784.88
589.47	10653.53
589.67	8218.50
589.86	6442.91
590.06	5121.97
590.25	4433.85
590.44	3901.38
590.64	3467.21
590.83	3594.19
591.02	3520.46
591.22	3141.58
591.41	3135.44
591.60	3301.33
591.80	3762.12
591.99	2922.45
592.18	3086.29
592.38	3418.06
592.57	3252.17
592.76	3137.49
592.96	3223.50
593.15	3252.17
593.34	3526.60
593.54	3135.44
593.73	3219.41
593.92	3354.57
594.12	3418.06
594.31	3166.16
594.50	3295.18
594.70	3375.05
594.89	3831.75
595.08	2947.03
595.28	3217.36
595.47	3938.24
595.66	3491.79
595.86	2918.36
596.05	2959.31
596.24	3155.92
596.43	3647.43
596.63	3198.93
596.82	3262.41
597.01	3375.05
597.21	3577.80
597.40	3065.81
597.59	3119.06
597.79	3172.30
597.98	3401.68
598.17	3213.26
598.36	3086.29
598.56	3424.20
598.75	3205.07
598.94	3149.78
599.14	3198.93
599.33	3176.40
599.52	3377.10
599.71	3141.58
599.91	3196.88
600.10	3405.77
600.29	3233.74
600.48	3205.07
600.68	3262.41
600.87	3373.00
601.06	3092.43
601.26	3123.15
601.45	3190.74
601.64	3262.41
601.83	3573.71
602.03	2977.75
602.22	2985.94
602.41	3545.03
602.60	3772.36
602.80	3125.20
602.99	3272.65
603.18	3100.62
603.37	3307.47
603.57	3067.86
603.76	3067.86
603.95	3581.90
604.14	3246.03
604.34	2983.89
604.53	3033.04
604.72	3354.57
604.91	3499.98
605.10	3129.30
605.30	3026.90
605.49	3788.74
605.68	3467.21
605.87	3139.54
606.07	3033.04
606.26	3330.00
606.45	3358.67
606.64	3084.24
606.84	3024.85
607.03	3309.52
607.22	3463.12
607.41	3008.47
607.60	3055.57
607.80	3540.94
607.99	3248.08
608.18	3125.20
608.37	3141.58
608.56	3219.41
608.76	3452.88
608.95	3299.28
609.14	3063.76
609.33	3542.99
609.52	3516.36
609.72	3205.07
609.91	3196.88
610.10	3327.95
610.29	3624.90
610.48	3200.98
610.68	3211.22
610.87	3313.61
611.06	3461.07
611.25	3139.54
611.44	3254.22
611.63	3123.15
611.83	3471.31
612.02	2953.17
612.21	3151.82
612.40	2910.16
612.59	2983.89
612.79	3026.90
612.98	3071.95
613.17	3700.68
613.36	3250.13
613.55	3219.41
613.74	3168.21
613.93	3409.87
614.13	3420.11
614.32	3305.42
614.51	3117.01
614.70	3344.33
614.89	3225.55
615.08	3172.30
615.28	3481.55
615.47	3071.95
615.66	3334.09
615.85	3129.30
616.04	3147.73
616.23	3262.41
616.42	3299.28
616.62	3065.81
616.81	3074.00
617.00	3311.57
617.19	3327.95
617.38	3061.71
617.57	3112.91
617.76	3442.64
617.95	3463.12
618.15	3223.50
618.34	3262.41
618.53	3059.67
618.72	3493.83
618.91	3155.92
619.10	3188.69
619.29	3227.60
619.48	3409.87
619.68	2947.03
619.87	3094.48
620.06	3004.37
620.25	3426.25
620.44	3024.85
620.63	3016.66
620.82	3325.90
621.01	3360.72
621.20	3149.78
621.39	3096.53
621.59	3379.15
621.78	3237.84
621.97	3131.34
622.16	3209.17
622.35	3319.76
622.54	3393.48
622.73	3129.30
622.92	2877.40
623.11	3536.84
623.30	3108.82
623.49	3178.45
623.68	3002.32
623.88	3624.90
624.07	3182.54
624.26	2994.13
624.45	3069.91
624.64	3246.03
624.83	3395.53
625.02	3100.62
625.21	3098.58
625.40	3327.95
625.59	3485.64
625.78	3078.10
625.97	3192.78
626.16	3450.83
626.35	3446.73
626.54	3119.06
626.74	3350.48
626.93	3266.51
627.12	3311.57
627.31	3047.38
627.50	3160.02
627.69	3549.13
627.88	3108.82
628.07	3035.09
628.26	2826.20
628.45	3164.11
628.64	3016.66
628.83	3022.80
629.02	2910.16
629.21	3438.54
629.40	3354.57
629.59	2977.75
629.78	3100.62
629.97	3352.52
630.16	3293.13
630.35	2947.03
630.54	3164.11
630.73	3221.45
630.92	3301.33
631.11	3035.09
631.30	3084.24
631.49	3428.30
631.68	3188.69
631.87	3151.82
632.06	3061.71
632.25	3798.98
632.44	3254.22
632.63	3139.54
632.82	3131.34
633.01	3108.82
633.20	3377.10
633.39	3065.81
633.58	2963.41
633.77	3356.62
633.96	3477.45
634.15	3270.61
634.34	3209.17
634.53	3356.62
634.72	3153.87
634.91	2885.59
635.10	3065.81
635.29	3487.69
635.48	3317.71
635.67	2940.88
635.86	2891.73
636.05	3557.32
636.24	3221.45
636.43	3037.14
636.62	3178.45
636.81	2803.67
637.00	3330.00
637.19	3004.37
637.38	3106.77
637.57	3127.25
637.76	3231.69
637.95	3276.75
638.14	3270.61
638.33	3246.03
638.52	3241.93
638.71	3043.28
638.89	2928.60
639.08	3895.24
639.27	3551.18
639.46	3391.44
639.65	3717.06
639.84	3876.80
640.03	4102.08
640.22	3639.24
640.41	3590.09
640.60	3403.72
640.79	3581.90
640.98	3340.24
641.17	3340.24
641.36	3579.85
641.55	3487.69
641.74	2932.69
641.92	2977.75
642.11	3188.69
642.30	3239.89
642.49	2996.18
642.68	3076.05
642.87	3373.00
643.06	3463.12
643.25	2955.22
643.44	2918.36
643.63	3233.74
643.82	3330.00
644.00	2934.74
644.19	3092.43
644.38	3020.75
644.57	3450.83
644.76	3088.34
644.95	3157.97
645.14	3291.09
645.33	3207.12
645.52	3008.47
645.71	2951.12
645.89	3049.43
646.08	3188.69
646.27	3157.97
646.46	3172.30
646.65	2983.89
646.84	3276.75
647.03	2959.31
647.22	3184.59
647.40	3319.76
647.59	3223.50
647.78	2942.93
647.97	3045.33
648.16	3043.28
648.35	3581.90
648.54	3393.48
648.73	3098.58
648.91	3330.00
649.10	3356.62
649.29	3082.19
649.48	3049.43
649.67	3385.29
649.86	3352.52
650.05	3114.96
650.23	3309.52
650.42	3196.88
650.61	3588.04
650.80	3327.95
650.99	3387.34
651.18	3489.74
651.36	3456.97
651.55	3039.19
651.74	3235.79
651.93	3297.23
652.12	3188.69
652.31	3135.44
652.49	3108.82
652.68	3233.74
652.87	3534.79
653.06	3254.22
653.25	3385.29
653.44	3319.76
653.62	3680.20
653.81	3080.14
654.00	3082.19
654.19	3368.91
654.38	3776.45
654.56	3092.43
654.75	3016.66
654.94	3405.77
655.13	3272.65
655.32	3047.38
655.51	3098.58
655.69	3248.08
655.88	3352.52
656.07	2867.16
656.26	3092.43
656.45	3059.67
656.63	3340.24
656.82	3004.37
657.01	3332.05
657.20	3188.69
657.38	3487.69
657.57	2992.08
657.76	2990.03
657.95	3403.72
658.14	3180.50
658.32	3188.69
658.51	3012.56
658.70	3317.71
658.89	3311.57
659.08	3125.20
659.26	3344.33
659.45	3106.77
659.64	3409.87
659.83	3096.53
660.01	3481.55
660.20	3278.80
660.39	3618.76
660.58	2811.86
660.76	3139.54
660.95	3016.66
661.14	3346.38
661.33	2940.88
661.51	3098.58
661.70	3131.34
661.89	3381.20
662.08	3174.35
662.26	2959.31
662.45	3065.81
662.64	3684.30
662.83	3086.29
663.01	2967.51
663.20	3174.35
663.39	3618.76
663.58	3100.62
663.76	3024.85
663.95	3411.92
664.14	3082.19
664.32	3074.00
664.51	2949.08
664.70	2899.92
664.89	3284.94
665.07	2951.12
665.26	3221.45
665.45	3010.51
665.64	3360.72
665.82	3098.58
666.01	3219.41
666.20	3129.30
666.38	3512.27
666.57	3432.40
666.76	5652.39
666.95	13182.77
667.13	20713.16
667.32	25194.11
667.51	28436.05
667.69	29138.50
667.88	24223.37
668.07	17553.14
668.25	14939.93
668.44	12832.57
668.63	11319.12
668.81	9867.11
669.00	8644.48
669.19	7667.60
669.38	6846.36
669.56	5779.37
669.75	4906.93
669.94	4298.69
670.12	3743.69
670.31	3471.31
670.50	3344.33
670.68	3448.78
670.87	3416.01
671.06	3067.86
671.24	3145.68
671.43	3624.90
671.62	3258.32
671.80	3112.91
671.99	3270.61
672.18	3311.57
672.36	3350.48
672.55	3217.36
672.74	3164.11
672.92	3223.50
673.11	3393.48
673.29	2990.03
673.48	3196.88
673.67	3194.83
673.85	3436.49
674.04	3129.30
674.23	3157.97
674.41	3663.82
674.60	3100.62
674.79	2863.06
674.97	2887.64
675.16	3413.96
675.34	3502.03
675.53	3086.29
675.72	3129.30
675.90	3598.28
676.09	3233.74
676.28	3209.17
676.46	2971.60
676.65	3375.05
676.83	3180.50
677.02	3114.96
677.21	3164.11
677.39	3405.77
677.58	3131.34
677.77	3024.85
677.95	2971.60
678.14	3155.92
678.32	3254.22
678.51	3135.44
678.70	3368.91
678.88	3127.25
679.07	3303.37
679.25	3084.24
679.44	3057.62
679.63	2983.89
679.81	3305.42
680.00	3286.99
680.18	3211.22
680.37	3612.62
680.55	3289.04
680.74	2932.69
680.93	2861.01
681.11	3260.37
681.30	3262.41
681.48	3041.23
681.67	3100.62
681.85	3303.37
682.04	3121.10
682.23	3291.09
682.41	3223.50
682.60	3157.97
682.78	3346.38
682.97	2959.31
683.15	3133.39
683.34	3332.05
683.53	3629.00
683.71	2975.70
683.90	3143.63
684.08	3692.49
684.27	3186.64
684.45	3237.84
684.64	3315.66
684.82	3268.56
685.01	3456.97
685.19	3090.38
685.38	3383.24
685.57	3254.22
685.75	3184.59
685.94	3024.85
686.12	3020.75
686.31	3235.79
686.49	3561.42
686.68	2908.12
686.86	3035.09
687.05	3315.66
687.23	3536.84
687.42	3098.58
687.60	2992.08
687.79	3450.83
687.97	3569.61
688.16	3286.99
688.34	3280.85
688.53	2901.97
688.71	3473.36
688.90	3370.96
689.08	3119.06
689.27	2992.08
689.45	3444.68
689.64	3192.78
689.82	3155.92
690.01	3377.10
690.19	3418.06
690.38	3219.41
690.56	3219.41
690.75	3004.37
690.93	3221.45
691.12	3033.04
691.30	3074.00
691.49	3114.96
691.67	3237.84
691.86	3344.33
692.04	3067.86
692.23	3293.13
692.41	3217.36
692.60	3389.39
692.78	3278.80
692.97	3354.57
693.15	3377.10
693.34	3358.67
693.52	3260.37
693.71	3149.78
693.89	3270.61
694.08	2957.27
694.26	3139.54
694.44	3403.72
694.63	3407.82
694.81	2971.60
695.00	3141.58
695.18	3424.20
695.37	3864.52
695.55	3188.69
695.74	3053.52
695.92	3110.86
696.10	3528.65
696.29	2961.36
696.47	3082.19
696.66	3090.38
696.84	2973.65
697.03	3123.15
697.21	3362.76
697.40	4624.31
697.58	3483.59
697.76	3014.61
697.95	3084.24
698.13	3069.91
698.32	3250.13
698.50	3061.71
698.68	3131.34
698.87	3432.40
699.05	3631.05
699.24	3145.68
699.42	3082.19
699.61	3368.91
699.79	3237.84
699.97	3092.43
700.16	2885.59
700.34	3071.95
700.53	3188.69
700.71	3260.37
700.89	3151.82
701.08	3260.37
701.26	3135.44
701.45	3409.87
701.63	3067.86
701.81	3147.73
702.00	3061.71
702.18	3221.45
702.37	3172.30
702.55	3524.55
702.73	3442.64
702.92	3139.54
703.10	3418.06
703.28	3481.55
703.47	3135.44
703.65	3336.14
703.84	3262.41
704.02	3176.40
704.20	3665.86
704.39	2992.08
704.57	3110.86
704.75	3459.02
704.94	3491.79
705.12	3295.18
705.30	4048.83
705.49	8894.33
705.67	17510.13
705.86	24153.74
706.04	27663.96
706.22	30535.21
706.41	29099.59
706.59	22216.36
706.77	17360.63
706.96	14616.35
707.14	13629.23
707.32	11554.64
707.51	10016.62
707.69	8208.26
707.87	6789.02
708.06	5353.39
708.24	4575.16
708.42	4198.34
708.61	4188.10
708.79	3301.33
708.97	3340.24
709.16	3397.58
709.34	3360.72
709.52	3129.30
709.71	3041.23
709.89	3463.12
710.07	3104.72
710.26	3000.27
710.44	3170.26
710.62	3459.02
710.80	3194.83
710.99	3297.23
711.17	3217.36
711.35	3110.86
711.54	3141.58
711.72	3274.70
711.90	3186.64
712.09	3350.48
712.27	3123.15
712.45	3188.69
712.63	2975.70
712.82	3360.72
713.00	3198.93
713.18	3278.80
713.37	3229.65
713.55	3407.82
713.73	3436.49
713.91	3221.45
714.10	2985.94
714.28	3284.94
714.46	3311.57
714.65	3256.27
714.83	3127.25
715.01	3274.70
715.19	3200.98
715.38	3071.95
715.56	3178.45
715.74	3108.82
715.92	3094.48
716.11	3397.58
716.29	2871.25
716.47	3327.95
716.65	3151.82
716.84	2922.45
717.02	3096.53
717.20	2936.79
717.38	3104.72
717.57	3252.17
717.75	3176.40
717.93	3123.15
718.11	3452.88
718.30	2951.12
718.48	3174.35
718.66	3483.59
718.84	3368.91
719.03	3090.38
719.21	2893.78
719.39	3608.52
719.57	3438.54
719.75	3188.69
719.94	3006.42
720.12	3219.41
720.30	3307.47
720.48	3178.45
720.67	3067.86
720.85	3090.38
721.03	3205.07
721.21	3039.19
721.39	3221.45
721.58	3352.52
721.76	3301.33
721.94	3155.92
722.12	3170.26
722.30	3573.71
722.49	3186.64
722.67	2949.08
722.85	3123.15
723.03	3008.47
723.21	3235.79
723.40	3139.54
723.58	3291.09
723.76	3426.25
723.94	3557.32
724.12	3137.49
724.30	3393.48
724.49	3504.07
724.67	3147.73
724.85	3272.65
725.03	3024.85
725.21	3459.02
725.40	3467.21
725.58	3141.58
725.76	3303.37
725.94	3416.01
726.12	3117.01
726.30	3139.54
726.49	3104.72
726.67	3112.91
726.85	3475.40
727.03	3995.59
727.21	5652.39
727.39	7524.24
727.57	8011.65
727.76	8673.15
727.94	8501.12
728.12	7456.65
728.30	6031.27
728.48	5623.72
728.66	5212.08
728.84	4753.34
729.03	4235.20
729.21	3878.85
729.39	3577.80
729.57	3426.25
729.75	3422.16
729.93	3397.58
730.11	3086.29
730.30	3106.77
730.48	3231.69
730.66	3243.98
730.84	3229.65
731.02	3278.80
731.20	3170.26
731.38	3153.87
731.56	2981.84
731.74	3028.95
731.93	3340.24
732.11	3190.74
732.29	3090.38
732.47	3438.54
732.65	3334.09
732.83	3319.76
733.01	3278.80
733.19	3139.54
733.37	3354.57
733.56	3127.25
733.74	2983.89
733.92	3536.84
734.10	3229.65
734.28	3264.46
734.46	2957.27
734.64	3237.84
734.82	3215.31
735.00	3069.91
735.18	3092.43
735.36	3241.93
735.54	3157.97
735.73	3065.81
735.91	3264.46
736.09	3581.90
736.27	3170.26
736.45	3209.17
736.63	2787.29
736.81	3196.88
736.99	3465.16
737.17	3327.95
737.35	3090.38
737.53	3356.62
737.71	3207.12
737.89	3293.13
738.07	3061.71
738.25	3135.44
738.43	2992.08
738.61	3092.43
738.80	3008.47
738.98	3063.76
739.16	3168.21
739.34	3069.91
739.52	3420.11
739.70	3327.95
739.88	3459.02
740.06	3252.17
740.24	2887.64
740.42	3475.40
740.60	2992.08
740.78	3041.23
740.96	2861.01
741.14	3215.31
741.32	3176.40
741.50	2938.84
741.68	3358.67
741.86	3549.13
742.04	3149.78
742.22	3039.19
742.40	3067.86
742.58	3442.64
742.76	3074.00
742.94	3352.52
743.12	2967.51
743.30	3272.65
743.48	3299.28
743.66	3069.91
743.84	3098.58
744.02	3207.12
744.20	3229.65
744.38	2932.69
744.56	3018.71
744.74	3639.24
744.92	3381.20
745.10	3342.28
745.28	3153.87
745.46	3618.76
745.64	3229.65
745.82	3164.11
746.00	3104.72
746.18	3393.48
746.36	3151.82
746.54	3141.58
746.72	3119.06
746.90	3092.43
747.08	3467.21
747.26	3053.52
747.44	3168.21
747.62	3422.16
747.80	3385.29
747.98	3164.11
748.15	3028.95
748.33	3583.95
748.51	3223.50
748.69	3266.51
748.87	2877.40
749.05	3209.17
749.23	3190.74
749.41	3002.32
749.59	3078.10
749.77	3526.60
749.95	3207.12
750.13	3037.14
750.31	3254.22
750.49	3190.74
750.67	3442.64
750.85	3241.93
751.03	3114.96
751.20	3723.21
751.38	3289.04
751.56	3203.02
751.74	3164.11
751.92	3235.79
752.10	3000.27
752.28	3213.26
752.46	3041.23
752.64	3266.51
752.82	3213.26
753.00	3227.60
753.18	3026.90
753.35	3307.47
753.53	3180.50
753.71	2975.70
753.89	3174.35
754.07	3393.48
754.25	3542.99
754.43	3139.54
754.61	3071.95
754.79	3358.67
754.97	3176.40
755.14	3338.19
755.32	2953.17
755.50	3317.71
755.68	3348.43
755.86	3024.85
756.04	3035.09
756.22	2887.64
756.40	3450.83
756.57	3338.19
756.75	3008.47
756.93	3411.92
757.11	3418.06
757.29	3057.62
757.47	2885.59
757.65	2953.17
757.82	2813.91
758.00	2983.89
758.18	3014.61
758.36	3057.62
758.54	3559.37
758.72	2879.44
758.90	3225.55
759.07	3373.00
759.25	3125.20
759.43	3291.09
759.61	2951.12
759.79	4454.33
759.97	3360.72
760.15	3078.10
760.32	3090.38
760.50	3307.47
760.68	3585.99
760.86	2887.64
761.04	3311.57
761.22	3420.11
761.39	3305.42
761.57	3180.50
761.75	3022.80
761.93	3424.20
762.11	3180.50
762.28	3213.26
762.46	3002.32
762.64	3510.22
762.82	2979.79
763.00	3024.85
763.18	3260.37
763.35	3119.06
763.53	3405.77
763.71	3200.98
763.89	3055.57
764.07	3348.43
764.24	3286.99
764.42	3237.84
764.60	3074.00
764.78	3379.15
764.96	3485.64
765.13	3250.13
765.31	3041.23
765.49	3450.83
765.67	3092.43
765.84	3102.67
766.02	2985.94
766.20	2965.46
766.38	3346.38
766.56	3157.97
766.73	3149.78
766.91	3311.57
767.09	3213.26
767.27	3143.63
767.44	2987.99
767.62	3325.90
767.80	3274.70
767.98	3119.06
768.15	3067.86
768.33	3471.31
768.51	3450.83
768.69	3258.32
768.87	3055.57
769.04	3373.00
769.22	3780.55
769.40	3237.84
769.58	3209.17
769.75	3307.47
769.93	3469.26
770.11	3108.82
770.28	3008.47
770.46	3475.40
770.64	3336.14
770.82	3094.48
770.99	3020.75
771.17	3375.05
771.35	3157.97
771.53	3166.16
771.70	2897.88
771.88	3413.96
772.06	3282.89
772.23	3082.19
772.41	3180.50
772.59	3278.80
772.77	3110.86
772.94	3108.82
773.12	3219.41
773.30	3188.69
773.47	3295.18
773.65	2983.89
773.83	3258.32
774.01	3284.94
774.18	2930.64
774.36	3131.34
774.54	2971.60
774.71	3377.10
774.89	2926.55
775.07	2938.84
775.24	3117.01
775.42	3127.25
775.60	3672.01
775.78	3045.33
775.95	2967.51
776.13	2959.31
776.31	2899.92
776.48	3229.65
776.66	3282.89
776.84	3258.32
777.01	3108.82
777.19	3059.67
777.37	2975.70
777.54	3391.44
777.72	3629.00
777.90	3174.35
778.07	3071.95
778.25	3942.34
778.43	3448.78
778.60	2971.60
778.78	3166.16
778.96	3516.36
779.13	3033.04
779.31	3182.54
779.49	3147.73
779.66	3313.61
779.84	3221.45
780.01	3067.86
780.19	3041.23
780.37	3459.02
780.54	3450.83
780.72	2971.60
780.90	3049.43
781.07	3188.69
781.25	3170.26
781.43	3270.61
781.60	3016.66
781.78	3510.22
781.95	3342.28
782.13	3012.56
782.31	3028.95
782.48	2944.98
782.66	3237.84
782.83	3307.47
783.01	3184.59
783.19	3485.64
783.36	3231.69
783.54	2942.93
783.72	3184.59
783.89	3176.40
784.07	3317.71
784.24	3205.07
784.42	3207.12
784.60	3295.18
784.77	3375.05
784.95	2918.36
785.12	3100.62
785.30	3360.72
785.47	3086.29
785.65	3057.62
785.83	3151.82
786.00	3117.01
786.18	3274.70
786.35	3071.95
786.53	3020.75
786.71	3520.46
786.88	3512.27
787.06	3194.83
787.23	3108.82
787.41	3082.19
787.58	3239.89
787.76	2990.03
787.94	3098.58
788.11	3330.00
788.29	3059.67
788.46	3092.43
788.64	2963.41
788.81	3155.92
788.99	3098.58
789.16	3000.27
789.34	3082.19
789.52	3170.26
789.69	3184.59
789.87	2918.36
790.04	2983.89
790.22	3305.42
790.39	3684.30
790.57	3014.61
790.74	2961.36
790.92	3454.92
791.09	2967.51
791.27	3143.63
791.44	3221.45
791.62	3184.59
791.79	3436.49
791.97	3196.88
792.15	3409.87
792.32	3330.00
792.50	3411.92
792.67	3215.31
792.85	3305.42
793.02	3338.19
793.20	3221.45
793.37	3012.56
793.55	3004.37
793.72	3014.61
793.90	3377.10
794.07	3119.06
794.25	3006.42
794.42	3227.60
794.60	3141.58
794.77	3104.72
794.95	3166.16
795.12	3477.45
795.30	3330.00
795.47	2842.58
795.65	3385.29
795.82	3385.29
796.00	3094.48
796.17	3164.11
796.34	3033.04
796.52	3370.96
796.69	3362.76
796.87	3241.93
797.04	3143.63
797.22	3452.88
797.39	3362.76
797.57	3198.93
797.74	3147.73
797.92	3327.95
798.09	3053.52
798.27	3366.86
798.44	3045.33
798.62	3098.58
798.79	3305.42
798.96	3192.78
799.14	3129.30
799.31	3839.94
799.49	3237.84
799.66	3100.62
799.84	3135.44
800.01	3069.91
800.19	3327.95
800.36	2904.02
800.53	3145.68
800.71	3360.72
800.88	3575.75
801.06	2971.60
801.23	3008.47
801.41	3246.03
801.58	3178.45
801.75	3076.05
801.93	3170.26
802.10	3459.02
802.28	3231.69
802.45	3110.86
802.63	3147.73
802.80	3643.34
802.97	3198.93
803.15	3104.72
803.32	3057.62
803.50	3061.71
803.67	3110.86
803.84	3055.57
804.02	3162.06
804.19	3229.65
804.37	2826.20
804.54	2893.78
804.71	3082.19
804.89	3264.46
805.06	3153.87
805.24	3002.32
805.41	2942.93
805.58	3047.38
805.76	3786.69
805.93	3010.51
806.10	3209.17
806.28	3430.35
806.45	3428.30
806.63	3336.14
806.80	3100.62
806.97	3268.56
807.15	3317.71
807.32	3198.93
807.49	3100.62
807.67	3026.90
807.84	3241.93
808.01	2885.59
808.19	3262.41
808.36	3696.58
808.54	3205.07
808.71	3008.47
808.88	3041.23
809.06	3522.51
809.23	3598.28
809.40	3098.58
809.58	3071.95
809.75	3221.45
809.92	3022.80
810.10	3295.18
810.27	3078.10
810.44	3358.67
810.62	3391.44
810.79	2979.79
810.96	3108.82
811.14	3160.02
811.31	3375.05
811.48	3270.61
811.66	3147.73
811.83	3495.88
812.00	3397.58
812.18	3153.87
812.35	3370.96
812.52	3127.25
812.69	3221.45
812.87	3061.71
813.04	3006.42
813.21	3362.76
813.39	3149.78
813.56	3033.04
813.73	3346.38
813.91	2967.51
814.08	3250.13
814.25	3074.00
814.42	2897.88
814.60	3205.07
814.77	3323.85
814.94	2971.60
815.12	3174.35
815.29	3522.51
815.46	3086.29
815.63	3147.73
815.81	3037.14
815.98	3241.93
816.15	3207.12
816.33	3170.26
816.50	3076.05
816.67	3266.51
816.84	3221.45
817.02	2973.65
817.19	3020.75
817.36	3297.23
817.53	3377.10
817.71	2969.55
817.88	3106.77
818.05	3313.61
818.22	3172.30
818.40	3250.13
818.57	3055.57
818.74	3362.76
818.91	3301.33
819.09	3196.88
819.26	3260.37
819.43	3041.23
819.60	3178.45
819.78	3239.89
819.95	3215.31
820.12	3018.71
820.29	3545.03
820.47	3217.36
820.64	2990.03
820.81	3024.85
820.98	3102.67
821.15	3078.10
821.33	3207.12
821.50	2985.94
821.67	3358.67
821.84	3041.23
822.02	3127.25
822.19	3401.68
822.36	3131.34
822.53	3080.14
822.70	2977.75
822.88	3104.72
823.05	3622.86
823.22	3117.01
823.39	3123.15
823.56	3225.55
823.74	3665.86
823.91	2830.29
824.08	2977.75
824.25	3057.62
824.42	3592.14
824.60	2949.08
824.77	3203.02
824.94	3135.44
825.11	3381.20
825.28	2928.60
825.45	3231.69
825.63	3256.27
825.80	3149.78
825.97	3217.36
826.14	3180.50
826.31	2936.79
826.48	3389.39
826.66	3084.24
826.83	3055.57
827.00	3141.58
827.17	3002.32
827.34	3157.97
827.51	3033.04
827.69	3246.03
827.86	3016.66
828.03	3151.82
828.20	3106.77
828.37	3112.91
828.54	3409.87
828.71	3049.43
828.89	3182.54
829.06	3270.61
829.23	3624.90
829.40	3145.68
829.57	3041.23
829.74	3491.79
829.91	3117.01
830.09	2969.55
830.26	3229.65
830.43	3512.27
830.60	3155.92
830.77	3186.64
830.94	3305.42
831.11	3432.40
831.28	3172.30
831.46	3332.05
831.63	3069.91
831.80	3528.65
831.97	3098.58
832.14	3196.88
832.31	3074.00
832.48	3274.70
832.65	3401.68
832.82	3139.54
832.99	3104.72
833.17	3080.14
833.34	3600.33
833.51	3028.95
833.68	2803.67
833.85	3454.92
834.02	2994.13
834.19	2957.27
834.36	3008.47
834.53	3231.69
834.70	3438.54
834.87	3049.43
835.04	2797.53
835.22	3112.91
835.39	3246.03
835.56	2920.40
835.73	2883.54
835.90	3465.16
836.07	3065.81
836.24	3069.91
836.41	2885.59
836.58	3082.19
836.75	3497.93
836.92	2901.97
837.09	2918.36
837.26	3450.83
837.43	3327.95
837.60	2928.60
837.77	2953.17
837.94	3459.02
838.12	3495.88
838.29	2869.20
838.46	2856.92
838.63	3033.04
838.80	3563.47
838.97	2969.55
839.14	2818.00
839.31	3258.32
839.48	3352.52
839.65	2926.55
839.82	3000.27
839.99	3319.76
840.16	3274.70
840.33	2967.51
840.50	2947.03
840.67	3125.20
840.84	2770.90
841.01	2828.24
841.18	2944.98
841.35	3250.13
841.52	3385.29
841.69	3246.03
841.86	3006.42
842.03	3188.69
842.20	3428.30
842.37	2920.40
842.54	3010.51
842.71	3299.28
842.88	3018.71
843.05	2955.22
843.22	2951.12
843.39	3430.35
843.56	3133.39
843.73	2863.06
843.90	2932.69
844.07	3246.03
844.24	3420.11
844.41	2979.79
844.58	2981.84
844.75	3237.84
844.92	3303.37
845.09	2944.98
845.26	2904.02
845.43	3323.85
845.60	3164.11
845.77	3049.43
845.94	3004.37
846.10	3499.98
846.27	2955.22
846.44	2854.87
846.61	2799.57
846.78	3338.19
846.95	3463.12
847.12	2867.16
847.29	2959.31
847.46	3172.30
847.63	3409.87
847.80	2850.77
847.97	2885.59
848.14	3678.15
848.31	3170.26
848.48	2709.46
848.65	2932.69
848.82	3088.34
848.98	3833.80
849.15	3076.05
849.32	3033.04
849.49	3524.55
849.66	3272.65
849.83	2891.73
850.00	2854.87
850.17	3442.64
850.34	3246.03
850.51	2883.54
850.68	3008.47
850.85	3727.30
851.01	3205.07
851.18	2944.98
851.35	2942.93
851.52	3303.37
851.69	3528.65
851.86	2785.24
852.03	2889.68
852.20	3368.91
852.37	3243.98
852.53	2799.57
852.70	2836.44
852.87	3348.43
853.04	3387.34
853.21	2809.81
853.38	3151.82
853.55	3549.13
853.72	3520.46
853.89	2822.10
854.05	2848.72
854.22	3229.65
854.39	3264.46
854.56	2863.06
854.73	3010.51
854.90	3096.53
855.07	3297.23
855.23	2914.26
855.40	2846.68
855.57	3237.84
855.74	2887.64
855.91	3174.35
856.08	2828.24
856.25	3041.23
856.41	3114.96
856.58	2967.51
856.75	3008.47
856.92	3108.82
857.09	3379.15
857.26	2772.95
857.42	2951.12
857.59	3459.02
857.76	3248.08
857.93	2949.08
858.10	2955.22
858.27	3039.19
858.43	3305.42
858.60	2965.46
858.77	2779.09
858.94	3246.03
859.11	3422.16
859.27	3024.85
859.44	2842.58
859.61	3663.82
859.78	3344.33
859.95	3016.66
860.12	2914.26
860.28	3665.86
860.45	3594.19
860.62	2838.48
860.79	3039.19
860.95	3151.82
861.12	3108.82
861.29	2856.92
861.46	2879.44
861.63	3246.03
861.79	3336.14
861.96	2775.00
862.13	2934.74
862.30	3547.08
862.47	3133.39
862.63	2801.62
862.80	2955.22
862.97	3485.64
863.14	3233.74
863.30	2977.75
863.47	2844.63
863.64	3596.23
863.81	3289.04
863.97	2822.10
864.14	2947.03
864.31	3186.64
864.48	3344.33
864.65	2918.36
864.81	3053.52
864.98	3274.70
865.15	3446.73
865.32	2926.55
865.48	3039.19
865.65	3688.39
865.82	3051.47
865.98	3006.42
866.15	2926.55
866.32	3213.26
866.49	3182.54
866.65	3061.71
866.82	2930.64
866.99	3282.89
867.16	3192.78
867.32	2922.45
867.49	2775.00
867.66	3170.26
867.83	3155.92
867.99	2914.26
868.16	2953.17
868.33	3082.19
868.49	3301.33
868.66	2967.51
868.83	3008.47
868.99	3248.08
869.16	3338.19
869.33	3133.39
869.50	3053.52
869.66	3217.36
869.83	3221.45
870.00	2826.20
870.16	3117.01
870.33	3168.21
870.50	3407.82
870.66	2969.55
870.83	2998.23
871.00	3256.27
871.17	3354.57
871.33	2992.08
871.50	2865.11
871.67	3231.69
871.83	3188.69
872.00	3008.47
872.17	3004.37
872.33	3667.91
872.50	3463.12
872.67	2891.73
872.83	2883.54
873.00	3317.71
873.17	3227.60
873.33	2963.41
873.50	3016.66
873.67	3133.39
873.83	3045.33
874.00	2953.17
874.16	2998.23
874.33	3262.41
874.50	3041.23
874.66	2887.64
874.83	3082.19
875.00	3522.51
875.16	3520.46
875.33	3049.43
875.50	2740.18
875.66	3151.82
875.83	3330.00
875.99	2912.21
876.16	2977.75
876.33	3002.32
876.49	3233.74
876.66	2924.50
876.83	2975.70
876.99	3010.51
877.16	3198.93
877.32	2813.91
877.49	3016.66
877.66	3360.72
877.82	3475.40
877.99	3018.71
878.15	3227.60
878.32	3323.85
878.49	3323.85
878.65	2992.08
878.82	3155.92
878.98	3143.63
879.15	3549.13
879.32	3090.38
879.48	3170.26
879.65	3174.35
879.81	3203.02
879.98	3037.14
880.15	3002.32
880.31	3467.21
880.48	3053.52
880.64	3022.80
880.81	3020.75
880.97	3622.86
881.14	3524.55
881.31	2836.44
881.47	3125.20
881.64	3131.34
881.80	2848.72
881.97	3082.19
882.13	2887.64
882.30	3053.52
882.47	3114.96
882.63	2944.98
882.80	2914.26
882.96	3198.93
883.13	3491.79
883.29	2981.84
883.46	2918.36
883.62	3690.44
883.79	3246.03
883.95	3106.77
884.12	2893.78
884.29	3467.21
884.45	3248.08
884.62	2983.89
884.78	2916.31
884.95	3520.46
885.11	3125.20
885.28	3037.14
885.44	3012.56
885.61	3512.27
885.77	3446.73
885.94	3090.38
886.10	2973.65
886.27	3278.80
886.43	3614.66
886.60	3117.01
886.76	2959.31
886.93	3098.58
887.09	3338.19
887.26	2775.00
887.42	2967.51
887.59	3442.64
887.75	3837.89
887.92	3137.49
888.08	3053.52
888.25	3669.96
888.41	3409.87
888.58	2967.51
888.74	2869.20
888.91	3162.06
>>>>>End Processed Spectral Data<<<<<
