SpectraSuite Data File
++++++++++++++++++++++++++++++++++++
Date: Fri May 06 08:13:57 CEST 2016
User: root
Dark Spectrum Present: No
Reference Spectrum Present: No
Number of Sampled Component Spectra: 1
Spectrometers: USB4C02835
Integration Time (usec): 100000 (USB4C02835)
Spectra Averaged: 1 (USB4C02835)
Boxcar Smoothing: 0 (USB4C02835)
Correct for Electrical Dark: No (USB4C02835)
Strobe/Lamp Enabled: No (USB4C02835)
Correct for Detector Non-linearity: No (USB4C02835)
Correct for Stray Light: No (USB4C02835)
Number of Pixels in Processed Spectrum: 3648
>>>>>Begin Processed Spectral Data<<<<<
177.47	2297.82
177.69	2297.82
177.91	2297.82
178.13	2273.25
178.36	2258.91
178.58	3035.09
178.80	3196.88
179.02	2918.36
179.24	3043.28
179.46	2820.05
179.68	2803.67
179.90	3215.31
180.13	3250.13
180.35	2719.70
180.57	2861.01
180.79	3370.96
181.01	3184.59
181.23	2779.09
181.45	2985.94
181.67	3491.79
181.90	3454.92
182.12	2877.40
182.34	2652.12
182.56	3409.87
182.78	3330.00
183.00	2852.82
183.22	2869.20
183.44	2942.93
183.66	3989.44
183.89	3026.90
184.11	2883.54
184.33	3373.00
184.55	3569.61
184.77	2777.05
184.99	2832.34
185.21	3139.54
185.43	3819.46
185.65	2852.82
185.87	2938.84
186.10	3696.58
186.32	3796.93
186.54	3014.61
186.76	2875.35
186.98	3471.31
187.20	3225.55
187.42	2879.44
187.64	2834.39
187.86	3424.20
188.08	3456.97
188.30	2766.81
188.52	2869.20
188.75	3594.19
188.97	3545.03
189.19	2822.10
189.41	2828.24
189.63	3348.43
189.85	3211.22
190.07	2742.23
190.29	2760.66
190.51	3387.34
190.73	2975.70
190.95	3047.38
191.17	2883.54
191.39	3057.62
191.61	3131.34
191.84	2869.20
192.06	2940.88
192.28	2891.73
192.50	3901.38
192.72	3026.90
192.94	2959.31
193.16	3504.07
193.38	3375.05
193.60	2758.61
193.82	2996.18
194.04	3516.36
194.26	3295.18
194.48	2906.07
194.70	2854.87
194.92	3205.07
195.14	3465.16
195.36	2793.43
195.58	2944.98
195.80	3215.31
196.02	3178.45
196.24	2772.95
196.46	2922.45
196.69	3166.16
196.91	3782.60
197.13	2904.02
197.35	2918.36
197.57	3649.48
197.79	3401.68
198.01	2953.17
198.23	2871.25
198.45	3389.39
198.67	3033.04
198.89	2738.13
199.11	3049.43
199.33	3076.05
199.55	2770.90
199.77	2797.53
199.99	3057.62
200.21	3176.40
200.43	3385.29
200.65	2742.23
200.87	2770.90
201.09	3256.27
201.31	3229.65
201.53	2842.58
201.75	2920.40
201.97	3373.00
202.19	3233.74
202.41	2889.68
202.63	2938.84
202.85	3387.34
203.07	3330.00
203.29	2947.03
203.51	2795.48
203.73	3164.11
203.95	3844.04
204.17	2906.07
204.39	3022.80
204.61	3303.37
204.83	3188.69
205.05	2936.79
205.27	2877.40
205.49	3706.82
205.71	3284.94
205.93	2701.27
206.15	2828.24
206.37	3260.37
206.59	3229.65
206.81	2734.04
207.03	2772.95
207.25	3131.34
207.47	3483.59
207.69	2865.11
207.91	3176.40
208.13	3651.53
208.34	3227.60
208.56	2797.53
208.78	2912.21
209.00	3286.99
209.22	3237.84
209.44	2885.59
209.66	2852.82
209.88	3289.04
210.10	3280.85
210.32	2818.00
210.54	2940.88
210.76	3114.96
210.98	3497.93
211.20	2797.53
211.42	2994.13
211.64	3569.61
211.86	3393.48
212.08	2899.92
212.30	2824.15
212.52	3170.26
212.74	3399.63
212.96	2908.12
213.17	2947.03
213.39	3430.35
213.61	3616.71
213.83	2828.24
214.05	2721.75
214.27	3516.36
214.49	3037.14
214.71	2754.52
214.93	2955.22
215.15	3375.05
215.37	3467.21
215.59	2742.23
215.81	2856.92
216.03	3532.75
216.24	3334.09
216.46	2799.57
216.68	2920.40
216.90	3436.49
217.12	3514.31
217.34	2807.77
217.56	3033.04
217.78	3471.31
218.00	3403.72
218.22	2971.60
218.44	3008.47
218.66	3241.93
218.87	3663.82
219.09	2951.12
219.31	2856.92
219.53	3352.52
219.75	3264.46
219.97	2924.50
220.19	2895.83
220.41	3274.70
220.63	3655.62
220.85	2930.64
221.06	2918.36
221.28	3473.36
221.50	3444.68
221.72	2854.87
221.94	2805.72
222.16	3315.66
222.38	3413.96
222.60	2848.72
222.82	3000.27
223.03	3442.64
223.25	3078.10
223.47	2895.83
223.69	3092.43
223.91	3516.36
224.13	3319.76
224.35	2762.71
224.57	3024.85
224.78	3448.78
225.00	3080.14
225.22	3028.95
225.44	2811.86
225.66	3463.12
225.88	3192.78
226.10	2983.89
226.32	2850.77
226.53	3579.85
226.75	3219.41
226.97	3014.61
227.19	2908.12
227.41	3149.78
227.63	3151.82
227.85	2676.70
228.06	2928.60
228.28	3262.41
228.50	3475.40
228.72	2709.46
228.94	2826.20
229.16	2936.79
229.37	3024.85
229.59	2797.53
229.81	3094.48
230.03	3225.55
230.25	3127.25
230.47	2688.98
230.69	2809.81
230.90	3436.49
231.12	3108.82
231.34	2873.30
231.56	3004.37
231.78	3067.86
232.00	3330.00
232.21	2961.36
232.43	2885.59
232.65	2879.44
232.87	3370.96
233.09	2734.04
233.30	2820.05
233.52	3553.23
233.74	3295.18
233.96	2863.06
234.18	3016.66
234.40	3196.88
234.61	3743.69
234.83	2719.70
235.05	2850.77
235.27	3823.56
235.49	3495.88
235.70	2795.48
235.92	2897.88
236.14	3440.59
236.36	3805.13
236.58	2734.04
236.79	2953.17
237.01	3274.70
237.23	3254.22
237.45	3069.91
237.67	2967.51
237.88	3377.10
238.10	3651.53
238.32	2797.53
238.54	2748.37
238.76	3295.18
238.97	3084.24
239.19	2721.75
239.41	2965.46
239.63	3465.16
239.85	3123.15
240.06	2885.59
240.28	2938.84
240.50	3491.79
240.72	3266.51
240.93	2764.76
241.15	3004.37
241.37	3299.28
241.59	3602.38
241.81	2844.63
242.02	2973.65
242.24	3332.05
242.46	3385.29
242.68	2705.37
242.89	2899.92
243.11	3465.16
243.33	3246.03
243.55	2873.30
243.76	2856.92
243.98	3160.02
244.20	3221.45
244.42	2873.30
244.64	2809.81
244.85	2944.98
245.07	3084.24
245.29	2803.67
245.51	2889.68
245.72	3409.87
245.94	3442.64
246.16	2836.44
246.38	2961.36
246.59	3127.25
246.81	3065.81
247.03	2688.98
247.24	2756.57
247.46	3194.83
247.68	3366.86
247.90	2729.94
248.11	2873.30
248.33	3399.63
248.55	3309.52
248.77	2906.07
248.98	2887.64
249.20	3596.23
249.42	3317.71
249.64	2885.59
249.85	2799.57
250.07	3166.16
250.29	3540.94
250.50	2901.97
250.72	2756.57
250.94	3493.83
251.16	3688.39
251.37	2779.09
251.59	2930.64
251.81	3452.88
252.02	3629.00
252.24	2723.80
252.46	3020.75
252.68	3147.73
252.89	3180.50
253.11	2717.65
253.33	3020.75
253.54	3569.61
253.76	3059.67
253.98	2840.53
254.20	2873.30
254.41	3041.23
254.63	3188.69
254.85	2772.95
255.06	2934.74
255.28	3385.29
255.50	3188.69
255.71	2748.37
255.93	2707.41
256.15	3241.93
256.36	3305.42
256.58	2734.04
256.80	2783.19
257.02	3278.80
257.23	3215.31
257.45	2953.17
257.67	3033.04
257.88	3227.60
258.10	3352.52
258.32	2865.11
258.53	2938.84
258.75	3588.04
258.97	3145.68
259.18	2867.16
259.40	2803.67
259.62	3676.10
259.83	3647.43
260.05	2893.78
260.27	3852.23
260.48	3512.27
260.70	3160.02
260.92	2781.14
261.13	2854.87
261.35	3391.44
261.57	3348.43
261.78	2742.23
262.00	2850.77
262.22	3434.44
262.43	3106.77
262.65	2914.26
262.86	2967.51
263.08	3737.54
263.30	3295.18
263.51	2742.23
263.73	2871.25
263.95	3559.37
264.16	3233.74
264.38	2711.51
264.60	2727.89
264.81	3274.70
265.03	3454.92
265.25	3311.57
265.46	2742.23
265.68	3534.79
265.89	3377.10
266.11	2758.61
266.33	2848.72
266.54	3536.84
266.76	3336.14
266.98	3008.47
267.19	3108.82
267.41	3495.88
267.62	3223.50
267.84	2639.83
268.06	3020.75
268.27	3373.00
268.49	3512.27
268.70	2871.25
268.92	2842.58
269.14	3078.10
269.35	2977.75
269.57	2971.60
269.79	2906.07
270.00	3196.88
270.22	3661.77
270.43	2697.17
270.65	2662.36
270.87	3342.28
271.08	3381.20
271.30	2953.17
271.51	2912.21
271.73	3444.68
271.95	3557.32
272.16	2793.43
272.38	3018.71
272.59	3207.12
272.81	3393.48
273.02	2842.58
273.24	2926.55
273.46	3512.27
273.67	3100.62
273.89	2725.85
274.10	2871.25
274.32	3555.27
274.54	3262.41
274.75	2983.89
274.97	2969.55
275.18	3391.44
275.40	3454.92
275.61	2914.26
275.83	3045.33
276.05	2992.08
276.26	3278.80
276.48	2920.40
276.69	3035.09
276.91	3139.54
277.12	3563.47
277.34	3049.43
277.55	3172.30
277.77	3227.60
277.99	3246.03
278.20	2979.79
278.42	2918.36
278.63	3196.88
278.85	2967.51
279.06	2969.55
279.28	3082.19
279.49	3538.89
279.71	3393.48
279.93	3061.71
280.14	3106.77
280.36	3137.49
280.57	3520.46
280.79	3053.52
281.00	2883.54
281.22	3168.21
281.43	3565.51
281.65	2836.44
281.86	2822.10
282.08	3405.77
282.29	3606.47
282.51	2869.20
282.73	2881.49
282.94	2961.36
283.16	3469.26
283.37	3141.58
283.59	2967.51
283.80	3303.37
284.02	3237.84
284.23	3030.99
284.45	3010.51
284.66	3094.48
284.88	3065.81
285.09	2883.54
285.31	3129.30
285.52	3307.47
285.74	2985.94
285.95	3192.78
286.17	3026.90
286.38	3506.12
286.60	3133.39
286.81	2947.03
287.03	2936.79
287.24	3268.56
287.46	3383.24
287.67	3059.67
287.89	3221.45
288.10	3299.28
288.32	3344.33
288.53	3170.26
288.75	3035.09
288.96	3356.62
289.18	3211.22
289.39	2920.40
289.61	2983.89
289.82	3749.83
290.04	3704.78
290.25	2838.48
290.47	3084.24
290.68	3241.93
290.90	3487.69
291.11	2875.35
291.33	3092.43
291.54	3108.82
291.76	3233.74
291.97	3125.20
292.18	3102.67
292.40	3147.73
292.61	3065.81
292.83	3282.89
293.04	3035.09
293.26	3358.67
293.47	3215.31
293.69	2934.74
293.90	2936.79
294.12	3573.71
294.33	3254.22
294.55	3092.43
294.76	3223.50
294.97	3557.32
295.19	3676.10
295.40	2908.12
295.62	3049.43
295.83	3459.02
296.05	3076.05
296.26	3243.98
296.48	2987.99
296.69	3260.37
296.90	3147.73
297.12	3074.00
297.33	3168.21
297.55	3305.42
297.76	3463.12
297.98	3114.96
298.19	3182.54
298.41	3211.22
298.62	3117.01
298.83	3219.41
299.05	3131.34
299.26	3133.39
299.48	3074.00
299.69	3123.15
299.90	3010.51
300.12	3172.30
300.33	3342.28
300.55	2975.70
300.76	3137.49
300.98	2998.23
301.19	3411.92
301.40	2981.84
301.62	2992.08
301.83	3368.91
302.05	3272.65
302.26	2912.21
302.47	3076.05
302.69	2990.03
302.90	3254.22
303.12	2820.05
303.33	3088.34
303.54	3719.11
303.76	3121.10
303.97	2863.06
304.19	3233.74
304.40	3090.38
304.61	3403.72
304.83	3149.78
305.04	3024.85
305.26	3436.49
305.47	3151.82
305.68	3061.71
305.90	2838.48
306.11	3504.07
306.33	3278.80
306.54	2904.02
306.75	3002.32
306.97	3037.14
307.18	3049.43
307.39	2983.89
307.61	3112.91
307.82	3190.74
308.04	3389.39
308.25	2934.74
308.46	3139.54
308.68	3221.45
308.89	3297.23
309.10	3141.58
309.32	3004.37
309.53	3254.22
309.74	3311.57
309.96	2828.24
310.17	3108.82
310.39	3192.78
310.60	3401.68
310.81	3078.10
311.03	2916.31
311.24	3493.83
311.45	3348.43
311.67	3252.17
311.88	3047.38
312.09	3172.30
312.31	3176.40
312.52	2887.64
312.73	2936.79
312.95	3047.38
313.16	3074.00
313.37	3162.06
313.59	3278.80
313.80	3407.82
314.01	3608.52
314.23	3020.75
314.44	2942.93
314.65	2998.23
314.87	2975.70
315.08	3020.75
315.29	2901.97
315.51	3090.38
315.72	2899.92
315.93	3057.62
316.15	3008.47
316.36	3174.35
316.57	3315.66
316.79	3012.56
317.00	2877.40
317.21	3407.82
317.43	3061.71
317.64	3117.01
317.85	2920.40
318.07	3080.14
318.28	3164.11
318.49	3192.78
318.70	3250.13
318.92	3350.48
319.13	3442.64
319.34	3166.16
319.56	3057.62
319.77	3426.25
319.98	3487.69
320.20	3291.09
320.41	3192.78
320.62	3360.72
320.83	2957.27
321.05	3207.12
321.26	3065.81
321.47	3295.18
321.69	3467.21
321.90	2910.16
322.11	2985.94
322.32	3274.70
322.54	3577.80
322.75	3016.66
322.96	4069.31
323.18	2963.41
323.39	2961.36
323.60	2924.50
323.81	3080.14
324.03	3172.30
324.24	3332.05
324.45	3086.29
324.66	3024.85
324.88	3477.45
325.09	3569.61
325.30	2961.36
325.52	2875.35
325.73	3358.67
325.94	3149.78
326.15	2901.97
326.37	2856.92
326.58	3504.07
326.79	3690.44
327.00	2916.31
327.22	2910.16
327.43	3160.02
327.64	3004.37
327.85	3067.86
328.07	3069.91
328.28	3663.82
328.49	3172.30
328.70	3121.10
328.92	2936.79
329.13	3297.23
329.34	3393.48
329.55	3127.25
329.76	3149.78
329.98	3239.89
330.19	3502.03
330.40	3133.39
330.61	3041.23
330.83	3405.77
331.04	3110.86
331.25	3153.87
331.46	3071.95
331.68	3030.99
331.89	3516.36
332.10	3006.42
332.31	2824.15
332.52	3330.00
332.74	3508.17
332.95	2818.00
333.16	2967.51
333.37	3475.40
333.58	3168.21
333.80	3018.71
334.01	2770.90
334.22	3276.75
334.43	3090.38
334.64	2953.17
334.86	2920.40
335.07	3053.52
335.28	3573.71
335.49	2852.82
335.70	2981.84
335.92	3639.24
336.13	3815.37
336.34	3078.10
336.55	2922.45
336.76	3377.10
336.98	2914.26
337.19	3069.91
337.40	3100.62
337.61	3751.88
337.82	3213.26
338.04	3110.86
338.25	2852.82
338.46	3190.74
338.67	3237.84
338.88	2899.92
339.09	2901.97
339.31	3235.79
339.52	3057.62
339.73	2914.26
339.94	3049.43
340.15	3403.72
340.36	3057.62
340.58	3028.95
340.79	2998.23
341.00	3354.57
341.21	3119.06
341.42	3321.81
341.63	3004.37
341.85	3383.24
342.06	3360.72
342.27	2967.51
342.48	3076.05
342.69	3020.75
342.90	3352.52
343.12	3395.53
343.33	2951.12
343.54	3454.92
343.75	3575.75
343.96	3076.05
344.17	2934.74
344.38	3194.83
344.60	3100.62
344.81	2932.69
345.02	2967.51
345.23	3547.08
345.44	3860.42
345.65	3051.47
345.86	3135.44
346.07	3276.75
346.29	3141.58
346.50	3178.45
346.71	3069.91
346.92	3499.98
347.13	3686.34
347.34	3121.10
347.55	2887.64
347.76	3289.04
347.98	2975.70
348.19	3028.95
348.40	3256.27
348.61	3164.11
348.82	3641.29
349.03	3045.33
349.24	2910.16
349.45	3643.34
349.66	2877.40
349.88	2979.79
350.09	3000.27
350.30	3594.19
350.51	3506.12
350.72	3284.94
350.93	2963.41
351.14	3180.50
351.35	3356.62
351.56	3053.52
351.77	3010.51
351.99	3397.58
352.20	3626.95
352.41	3143.63
352.62	2797.53
352.83	3184.59
353.04	3344.33
353.25	2912.21
353.46	3033.04
353.67	3528.65
353.88	2877.40
354.09	2947.03
354.30	2998.23
354.52	3432.40
354.73	3246.03
354.94	2957.27
355.15	3022.80
355.36	3678.15
355.57	3082.19
355.78	2951.12
355.99	2977.75
356.20	3172.30
356.41	3551.18
356.62	3094.48
356.83	3061.71
357.04	3559.37
357.25	3000.27
357.46	3055.57
357.68	2852.82
357.89	3106.77
358.10	3258.32
358.31	2975.70
358.52	3016.66
358.73	3020.75
358.94	3016.66
359.15	3043.28
359.36	3008.47
359.57	3303.37
359.78	3215.31
359.99	3114.96
360.20	2928.60
360.41	3258.32
360.62	3405.77
360.83	3102.67
361.04	3145.68
361.25	3358.67
361.46	3557.32
361.67	3137.49
361.88	3024.85
362.09	3499.98
362.30	3360.72
362.51	2879.44
362.72	3059.67
362.93	3401.68
363.14	3381.20
363.35	3145.68
363.56	2969.55
363.78	3475.40
363.99	3389.39
364.20	2947.03
364.41	3002.32
364.62	3620.81
364.83	3330.00
365.04	2973.65
365.25	3059.67
365.46	3682.25
365.67	3119.06
365.88	3188.69
366.09	3002.32
366.30	3200.98
366.51	3317.71
366.72	2893.78
366.93	2994.13
367.14	3196.88
367.35	3491.79
367.56	2891.73
367.77	3082.19
367.98	3217.36
368.18	3438.54
368.39	3143.63
368.60	2983.89
368.81	3409.87
369.02	3377.10
369.23	3008.47
369.44	2828.24
369.65	3192.78
369.86	3311.57
370.07	3178.45
370.28	2879.44
370.49	3264.46
370.70	3409.87
370.91	2934.74
371.12	2901.97
371.33	3534.79
371.54	3262.41
371.75	3098.58
371.96	2762.71
372.17	3233.74
372.38	3205.07
372.59	3117.01
372.80	2971.60
373.01	3186.64
373.22	3282.89
373.43	2942.93
373.64	2861.01
373.85	3581.90
374.06	3565.51
374.26	3207.12
374.47	3119.06
374.68	3598.28
374.89	3375.05
375.10	2865.11
375.31	3067.86
375.52	3317.71
375.73	3327.95
375.94	2920.40
376.15	3098.58
376.36	3229.65
376.57	3223.50
376.78	3071.95
376.99	3090.38
377.20	3479.50
377.40	3225.55
377.61	3278.80
377.82	2969.55
378.03	3590.09
378.24	3373.00
378.45	3002.32
378.66	3069.91
378.87	2938.84
379.08	3033.04
379.29	3049.43
379.50	3225.55
379.71	3217.36
379.91	3323.85
380.12	3037.14
380.33	3092.43
380.54	3299.28
380.75	3313.61
380.96	3010.51
381.17	3055.57
381.38	3235.79
381.59	3286.99
381.80	3069.91
382.00	3184.59
382.21	3330.00
382.42	3481.55
382.63	3401.68
382.84	3229.65
383.05	3411.92
383.26	3522.51
383.47	3180.50
383.68	2973.65
383.88	3444.68
384.09	3305.42
384.30	3209.17
384.51	3067.86
384.72	3207.12
384.93	3045.33
385.14	3102.67
385.35	3297.23
385.55	3008.47
385.76	3524.55
385.97	3028.95
386.18	2871.25
386.39	3098.58
386.60	3190.74
386.81	3022.80
387.02	2869.20
387.22	2951.12
387.43	3377.10
387.64	3188.69
387.85	3360.72
388.06	3362.76
388.27	4390.84
388.48	7823.24
388.68	12199.75
388.89	15460.12
389.10	16779.01
389.31	16600.83
389.52	13088.57
389.73	11265.88
389.93	10540.90
390.14	9291.63
390.35	8443.78
390.56	7982.98
390.77	6752.15
390.98	4988.85
391.18	4181.95
391.39	3936.20
391.60	3387.34
391.81	3354.57
392.02	3041.23
392.23	3831.75
392.43	3295.18
392.64	3166.16
392.85	3094.48
393.06	3624.90
393.27	3260.37
393.47	2992.08
393.68	3059.67
393.89	3260.37
394.10	3499.98
394.31	2977.75
394.52	2942.93
394.72	3196.88
394.93	3590.09
395.14	2918.36
395.35	3164.11
395.56	3188.69
395.76	3278.80
395.97	3016.66
396.18	3219.41
396.39	3229.65
396.60	3964.87
396.80	3438.54
397.01	3227.60
397.22	3395.53
397.43	3493.83
397.64	3102.67
397.84	3106.77
398.05	3667.91
398.26	3239.89
398.47	3123.15
398.67	3272.65
398.88	3280.85
399.09	3444.68
399.30	3049.43
399.51	3117.01
399.71	3108.82
399.92	3203.02
400.13	3170.26
400.34	3033.04
400.54	3284.94
400.75	3598.28
400.96	3258.32
401.17	3274.70
401.37	3346.38
401.58	3262.41
401.79	3069.91
402.00	3170.26
402.21	3790.79
402.41	3413.96
402.62	3237.84
402.83	3520.46
403.04	3698.63
403.24	4038.59
403.45	3143.63
403.66	3344.33
403.87	3475.40
404.07	3708.87
404.28	3330.00
404.49	3313.61
404.70	3407.82
404.90	3461.07
405.11	3078.10
405.32	3114.96
405.52	3125.20
405.73	3164.11
405.94	3012.56
406.15	3059.67
406.35	3450.83
406.56	3475.40
406.77	3045.33
406.98	3106.77
407.18	3174.35
407.39	3653.58
407.60	3035.09
407.80	3157.97
408.01	3272.65
408.22	3413.96
408.43	2899.92
408.63	3270.61
408.84	3440.59
409.05	3461.07
409.25	2938.84
409.46	3053.52
409.67	3180.50
409.88	3155.92
410.08	3100.62
410.29	2983.89
410.50	3442.64
410.70	3368.91
410.91	2996.18
411.12	3121.10
411.32	3250.13
411.53	3139.54
411.74	3043.28
411.95	3100.62
412.15	3299.28
412.36	3391.44
412.57	3184.59
412.77	3321.81
412.98	3272.65
413.19	3166.16
413.39	3110.86
413.60	3094.48
413.81	3534.79
414.01	3061.71
414.22	3096.53
414.43	3237.84
414.63	3252.17
414.84	3475.40
415.05	3104.72
415.25	2879.44
415.46	3403.72
415.67	3186.64
415.87	3076.05
416.08	3043.28
416.29	3282.89
416.49	3461.07
416.70	3110.86
416.91	3028.95
417.11	3280.85
417.32	3549.13
417.53	3082.19
417.73	3143.63
417.94	3291.09
418.15	3352.52
418.35	3065.81
418.56	3067.86
418.77	3809.22
418.97	3317.71
419.18	3178.45
419.38	2744.28
419.59	3307.47
419.80	3549.13
420.00	2983.89
420.21	3063.76
420.42	3502.03
420.62	3379.15
420.83	3061.71
421.04	3043.28
421.24	3209.17
421.45	3418.06
421.65	3004.37
421.86	3121.10
422.07	3469.26
422.27	3368.91
422.48	3000.27
422.69	2865.11
422.89	3299.28
423.10	3233.74
423.30	3045.33
423.51	3051.47
423.72	3323.85
423.92	3481.55
424.13	2938.84
424.33	3047.38
424.54	3516.36
424.75	3344.33
424.95	3295.18
425.16	2992.08
425.36	3272.65
425.57	3491.79
425.78	3125.20
425.98	3094.48
426.19	3258.32
426.39	3088.34
426.60	3119.06
426.81	3209.17
427.01	3387.34
427.22	3074.00
427.42	2879.44
427.63	3043.28
427.83	3442.64
428.04	3614.66
428.25	3108.82
428.45	3166.16
428.66	3534.79
428.86	3231.69
429.07	3049.43
429.28	3119.06
429.48	3266.51
429.69	3104.72
429.89	3080.14
430.10	2852.82
430.30	3383.24
430.51	3508.17
430.71	3012.56
430.92	3069.91
431.13	3213.26
431.33	3483.59
431.54	3069.91
431.74	3207.12
431.95	3723.21
432.15	3149.78
432.36	3071.95
432.56	3155.92
432.77	3618.76
432.98	3532.75
433.18	3125.20
433.39	2861.01
433.59	3266.51
433.80	3680.20
434.00	3180.50
434.21	3086.29
434.41	3106.77
434.62	3733.45
434.82	2934.74
435.03	2992.08
435.23	3319.76
435.44	2951.12
435.64	2981.84
435.85	3082.19
436.06	3409.87
436.26	3426.25
436.47	3006.42
436.67	2992.08
436.88	3178.45
437.08	3493.83
437.29	3141.58
437.49	3221.45
437.70	3487.69
437.90	3262.41
438.11	3252.17
438.31	3108.82
438.52	3540.94
438.72	3524.55
438.93	3446.73
439.13	3170.26
439.34	3463.12
439.54	3164.11
439.75	3172.30
439.95	3233.74
440.16	3170.26
440.36	3344.33
440.57	3059.67
440.77	3053.52
440.98	3299.28
441.18	3286.99
441.39	2918.36
441.59	2936.79
441.80	3735.50
442.00	3262.41
442.21	3190.74
442.41	2914.26
442.62	3411.92
442.82	3184.59
443.02	3006.42
443.23	3078.10
443.43	3299.28
443.64	3565.51
443.84	2856.92
444.05	3108.82
444.25	3241.93
444.46	3243.98
444.66	3006.42
444.87	3327.95
445.07	2955.22
445.28	3272.65
445.48	3262.41
445.69	3153.87
445.89	3835.85
446.09	3182.54
446.30	3342.28
446.50	3508.17
446.71	5101.49
446.91	6436.77
447.12	7315.34
447.32	7800.71
447.53	7632.78
447.73	6426.53
447.93	5541.80
448.14	5259.18
448.34	5463.98
448.55	4491.20
448.75	4454.33
448.96	4288.45
449.16	4157.38
449.36	3950.53
449.57	3393.48
449.77	3114.96
449.98	3239.89
450.18	3393.48
450.39	2918.36
450.59	3250.13
450.79	3254.22
451.00	3139.54
451.20	3225.55
451.41	2992.08
451.61	3200.98
451.81	3209.17
452.02	2969.55
452.22	3098.58
452.43	3125.20
452.63	3123.15
452.84	3223.50
453.04	2959.31
453.24	3352.52
453.45	3149.78
453.65	3149.78
453.86	3065.81
454.06	3364.81
454.26	3303.37
454.47	3047.38
454.67	3250.13
454.87	3327.95
455.08	3303.37
455.28	3194.83
455.49	3276.75
455.69	3211.22
455.89	3768.26
456.10	3121.10
456.30	3020.75
456.51	3373.00
456.71	3284.94
456.91	3203.02
457.12	3090.38
457.32	3432.40
457.52	3065.81
457.73	3223.50
457.93	3250.13
458.14	3174.35
458.34	2934.74
458.54	3061.71
458.75	3000.27
458.95	3485.64
459.15	3456.97
459.36	3090.38
459.56	3043.28
459.76	3676.10
459.97	3387.34
460.17	3088.34
460.37	3131.34
460.58	3266.51
460.78	3409.87
460.99	3010.51
461.19	3024.85
461.39	3182.54
461.60	3215.31
461.80	3030.99
462.00	3008.47
462.21	3356.62
462.41	3043.28
462.61	2963.41
462.82	2838.48
463.02	3319.76
463.22	3221.45
463.43	3110.86
463.63	2942.93
463.83	3481.55
464.04	3243.98
464.24	3065.81
464.44	3090.38
464.64	3291.09
464.85	3418.06
465.05	3092.43
465.25	2990.03
465.46	3147.73
465.66	3424.20
465.86	3121.10
466.07	2971.60
466.27	3256.27
466.47	3033.04
466.68	2918.36
466.88	3147.73
467.08	3432.40
467.29	3446.73
467.49	3151.82
467.69	3155.92
467.89	3327.95
468.10	3241.93
468.30	3117.01
468.50	3180.50
468.71	3483.59
468.91	2922.45
469.11	3205.07
469.31	3114.96
469.52	3096.53
469.72	3649.48
469.92	3344.33
470.13	2969.55
470.33	3282.89
470.53	3319.76
470.73	3467.21
470.94	3852.23
471.14	4159.42
471.34	4777.91
471.54	4335.55
471.75	4016.07
471.95	3868.61
472.15	3844.04
472.36	3637.19
472.56	3577.80
472.76	3729.35
472.96	3629.00
473.17	3348.43
473.37	3155.92
473.57	3282.89
473.77	3465.16
473.98	3157.97
474.18	2969.55
474.38	3975.11
474.58	3149.78
474.79	2846.68
474.99	3147.73
475.19	3471.31
475.39	3041.23
475.60	3106.77
475.80	2998.23
476.00	3332.05
476.20	3295.18
476.41	3131.34
476.61	3074.00
476.81	3549.13
477.01	3153.87
477.21	3385.29
477.42	3205.07
477.62	3129.30
477.82	3438.54
478.02	3018.71
478.23	3086.29
478.43	3117.01
478.63	3217.36
478.83	3088.34
479.03	3149.78
479.24	3692.49
479.44	3676.10
479.64	2930.64
479.84	2889.68
480.04	3067.86
480.25	3430.35
480.45	3000.27
480.65	3104.72
480.85	3602.38
481.06	3131.34
481.26	3135.44
481.46	3049.43
481.66	3340.24
481.86	3108.82
482.06	3221.45
482.27	3129.30
482.47	3203.02
482.67	3321.81
482.87	3080.14
483.07	3141.58
483.28	3162.06
483.48	3141.58
483.68	3082.19
483.88	2953.17
484.08	2844.63
484.29	3045.33
484.49	3067.86
484.69	2944.98
484.89	3534.79
485.09	3420.11
485.29	3045.33
485.50	3217.36
485.70	3264.46
485.90	3522.51
486.10	3174.35
486.30	3002.32
486.50	3596.23
486.71	3311.57
486.91	3090.38
487.11	3123.15
487.31	3057.62
487.51	3336.14
487.71	3039.19
487.91	2969.55
488.12	3114.96
488.32	2772.95
488.52	3035.09
488.72	2844.63
488.92	3262.41
489.12	3524.55
489.32	3176.40
489.53	3010.51
489.73	3002.32
489.93	3626.95
490.13	3076.05
490.33	2836.44
490.53	3297.23
490.73	3504.07
490.94	2949.08
491.14	3114.96
491.34	3411.92
491.54	3426.25
491.74	4026.31
491.94	4569.02
492.14	5111.73
492.34	5224.37
492.54	4712.38
492.75	4100.03
492.95	4446.14
493.15	4128.70
493.35	3782.60
493.55	3719.11
493.75	3725.26
493.95	3821.51
494.15	3344.33
494.35	3176.40
494.56	3381.20
494.76	3125.20
494.96	3233.74
495.16	2971.60
495.36	3268.56
495.56	3289.04
495.76	3145.68
495.96	3094.48
496.16	3110.86
496.36	3581.90
496.56	2990.03
496.77	3106.77
496.97	3323.85
497.17	3602.38
497.37	2815.96
497.57	3155.92
497.77	3309.52
497.97	3022.80
498.17	3141.58
498.37	3088.34
498.57	3364.81
498.77	3184.59
498.97	3190.74
499.17	3370.96
499.38	3309.52
499.58	3370.96
499.78	3229.65
499.98	3205.07
500.18	3196.88
500.38	3092.43
500.58	3332.05
500.78	3614.66
500.98	6352.80
501.18	8603.52
501.38	9801.58
501.58	10979.16
501.78	11075.42
501.98	8947.58
502.18	7710.60
502.38	6608.80
502.58	6338.46
502.78	5769.13
502.98	5453.74
503.18	5271.47
503.38	4970.42
503.59	4257.73
503.79	4042.69
503.99	3680.20
504.19	3864.52
504.39	3901.38
504.59	3870.66
504.79	3569.61
504.99	4028.35
505.19	3633.10
505.39	3276.75
505.59	3532.75
505.79	3715.02
505.99	3442.64
506.19	3196.88
506.39	3354.57
506.59	3217.36
506.79	3221.45
506.99	3321.81
507.19	3053.52
507.39	3284.94
507.59	3037.14
507.79	3035.09
507.99	3004.37
508.19	3260.37
508.39	3178.45
508.59	3127.25
508.79	3229.65
508.99	3751.88
509.19	3192.78
509.39	3082.19
509.59	2992.08
509.79	3137.49
509.99	3266.51
510.19	3168.21
510.39	3194.83
510.59	3241.93
510.79	3127.25
510.99	2854.87
511.19	3033.04
511.39	3592.14
511.59	3559.37
511.79	3225.55
511.99	3006.42
512.19	3561.42
512.38	3297.23
512.58	3020.75
512.78	2979.79
512.98	3569.61
513.18	3678.15
513.38	2967.51
513.58	3237.84
513.78	3215.31
513.98	3239.89
514.18	3176.40
514.38	3028.95
514.58	3434.44
514.78	3162.06
514.98	2922.45
515.18	3131.34
515.38	2985.94
515.58	3626.95
515.78	3014.61
515.98	3059.67
516.18	3436.49
516.38	3219.41
516.57	3018.71
516.77	2942.93
516.97	3424.20
517.17	3180.50
517.37	2879.44
517.57	3135.44
517.77	3297.23
517.97	3088.34
518.17	3170.26
518.37	2963.41
518.57	3100.62
518.77	3198.93
518.97	3147.73
519.16	3127.25
519.36	3540.94
519.56	3133.39
519.76	2983.89
519.96	3098.58
520.16	3581.90
520.36	3035.09
520.56	3170.26
520.76	3008.47
520.96	3155.92
521.16	3399.63
521.35	3252.17
521.55	3123.15
521.75	3243.98
521.95	3092.43
522.15	3059.67
522.35	2877.40
522.55	3100.62
522.75	3413.96
522.95	3020.75
523.14	2877.40
523.34	3256.27
523.54	3100.62
523.74	3213.26
523.94	3129.30
524.14	2897.88
524.34	3336.14
524.54	3319.76
524.73	3098.58
524.93	3450.83
525.13	3344.33
525.33	2953.17
525.53	3342.28
525.73	3350.48
525.93	3231.69
526.13	3092.43
526.32	3012.56
526.52	3430.35
526.72	3467.21
526.92	3125.20
527.12	3016.66
527.32	3018.71
527.52	3350.48
527.71	3080.14
527.91	3135.44
528.11	3184.59
528.31	3227.60
528.51	3074.00
528.71	3260.37
528.90	3413.96
529.10	3524.55
529.30	3133.39
529.50	2869.20
529.70	3272.65
529.90	3155.92
530.09	3076.05
530.29	2971.60
530.49	3157.97
530.69	3858.37
530.89	3225.55
531.09	3160.02
531.28	3164.11
531.48	3479.50
531.68	3053.52
531.88	3076.05
532.08	3467.21
532.28	3211.22
532.47	3215.31
532.67	3172.30
532.87	3356.62
533.07	3125.20
533.27	3018.71
533.46	3106.77
533.66	3278.80
533.86	3221.45
534.06	3168.21
534.26	3035.09
534.45	3237.84
534.65	3364.81
534.85	3221.45
535.05	3047.38
535.25	3450.83
535.44	2996.18
535.64	3110.86
535.84	3114.96
536.04	3184.59
536.24	3196.88
536.43	2985.94
536.63	3069.91
536.83	3170.26
537.03	3198.93
537.22	2885.59
537.42	2867.16
537.62	3362.76
537.82	3110.86
538.02	3225.55
538.21	3194.83
538.41	3858.37
538.61	3360.72
538.81	3178.45
539.00	3180.50
539.20	2979.79
539.40	3229.65
539.60	3106.77
539.79	3274.70
539.99	3270.61
540.19	3182.54
540.39	3057.62
540.58	3084.24
540.78	3436.49
540.98	3325.90
541.18	3313.61
541.37	3096.53
541.57	3293.13
541.77	3289.04
541.97	3000.27
542.16	2811.86
542.36	3194.83
542.56	3188.69
542.76	3209.17
542.95	3174.35
543.15	3321.81
543.35	3344.33
543.54	3041.23
543.74	2963.41
543.94	3583.95
544.14	3114.96
544.33	3139.54
544.53	2996.18
544.73	3178.45
544.93	3282.89
545.12	3035.09
545.32	3106.77
545.52	3190.74
545.71	3026.90
545.91	3114.96
546.11	2957.27
546.30	3096.53
546.50	3274.70
546.70	3108.82
546.90	3141.58
547.09	2914.26
547.29	3172.30
547.49	3219.41
547.68	3051.47
547.88	3080.14
548.08	3416.01
548.27	3418.06
548.47	2983.89
548.67	3168.21
548.87	3401.68
549.06	3012.56
549.26	2932.69
549.46	3336.14
549.65	3162.06
549.85	3037.14
550.05	3131.34
550.24	3012.56
550.44	3352.52
550.64	3182.54
550.83	3135.44
551.03	3559.37
551.23	3383.24
551.42	3074.00
551.62	3067.86
551.82	3219.41
552.01	3311.57
552.21	3303.37
552.41	3133.39
552.60	3659.72
552.80	3319.76
553.00	3047.38
553.19	3030.99
553.39	3649.48
553.59	3065.81
553.78	3223.50
553.98	2951.12
554.17	3035.09
554.37	3270.61
554.57	3170.26
554.76	2904.02
554.96	3219.41
555.16	3299.28
555.35	3139.54
555.55	3215.31
555.75	3291.09
555.94	3432.40
556.14	2869.20
556.33	3090.38
556.53	3209.17
556.73	3254.22
556.92	3035.09
557.12	2959.31
557.32	3688.39
557.51	3620.81
557.71	3119.06
557.90	3184.59
558.10	3545.03
558.30	3211.22
558.49	3043.28
558.69	3014.61
558.88	3352.52
559.08	3334.09
559.28	3065.81
559.47	3117.01
559.67	3418.06
559.86	3663.82
560.06	3024.85
560.26	3080.14
560.45	3405.77
560.65	3215.31
560.84	3332.05
561.04	2938.84
561.24	3491.79
561.43	3110.86
561.63	3377.10
561.82	3074.00
562.02	3325.90
562.22	3022.80
562.41	2992.08
562.61	3047.38
562.80	3045.33
563.00	3680.20
563.19	3184.59
563.39	3164.11
563.59	3303.37
563.78	3012.56
563.98	2863.06
564.17	3024.85
564.37	2912.21
564.56	3164.11
564.76	2998.23
564.96	3160.02
565.15	3268.56
565.35	3698.63
565.54	3035.09
565.74	3088.34
565.93	3393.48
566.13	3254.22
566.32	3207.12
566.52	3213.26
566.71	3416.01
566.91	3432.40
567.11	3225.55
567.30	2926.55
567.50	3364.81
567.69	3370.96
567.89	2965.46
568.08	2969.55
568.28	3325.90
568.47	3020.75
568.67	3131.34
568.86	3033.04
569.06	3446.73
569.25	3207.12
569.45	2938.84
569.64	3026.90
569.84	3313.61
570.04	3338.19
570.23	3053.52
570.43	3160.02
570.62	3289.04
570.82	3600.33
571.01	2936.79
571.21	2987.99
571.40	3098.58
571.60	3389.39
571.79	3137.49
571.99	3074.00
572.18	3084.24
572.38	3377.10
572.57	3106.77
572.77	3094.48
572.96	3798.98
573.16	3289.04
573.35	3047.38
573.55	3262.41
573.74	3235.79
573.94	3260.37
574.13	3045.33
574.33	3198.93
574.52	3534.79
574.71	3305.42
574.91	3112.91
575.10	2955.22
575.30	3127.25
575.49	3071.95
575.69	2955.22
575.88	2977.75
576.08	3233.74
576.27	3495.88
576.47	3051.47
576.66	3248.08
576.86	3493.83
577.05	3317.71
577.25	3121.10
577.44	3262.41
577.64	3170.26
577.83	3463.12
578.02	3092.43
578.22	3198.93
578.41	3641.29
578.61	3057.62
578.80	2967.51
579.00	3106.77
579.19	3198.93
579.39	3336.14
579.58	3139.54
579.77	3092.43
579.97	3606.47
580.16	3467.21
580.36	3246.03
580.55	3106.77
580.75	3395.53
580.94	3274.70
581.13	3291.09
581.33	3336.14
581.52	3231.69
581.72	3639.24
581.91	3166.16
582.11	3045.33
582.30	3393.48
582.49	3307.47
582.69	3370.96
582.88	3110.86
583.08	3436.49
583.27	3487.69
583.47	3196.88
583.66	3074.00
583.85	3088.34
584.05	3194.83
584.24	3262.41
584.44	3114.96
584.63	3475.40
584.82	3631.05
585.02	3364.81
585.21	3260.37
585.41	3418.06
585.60	3246.03
585.79	3340.24
585.99	3428.30
586.18	3348.43
586.37	4216.77
586.57	6383.52
586.76	18136.81
586.96	37780.93
587.15	51494.13
587.34	60165.23
587.54	63847.47
587.73	57304.21
587.93	40807.83
588.12	31407.65
588.31	25937.52
588.51	22896.29
588.70	21438.14
588.89	18640.61
589.09	15937.29
589.28	13817.65
589.47	10915.67
589.67	8181.64
589.86	6479.77
590.06	5093.30
590.25	4491.20
590.44	3868.61
590.64	3526.60
590.83	3471.31
591.02	3583.95
591.22	3069.91
591.41	3180.50
591.60	3350.48
591.80	3768.26
591.99	2912.21
592.18	3133.39
592.38	3420.11
592.57	3205.07
592.76	2994.13
592.96	3176.40
593.15	3237.84
593.34	3499.98
593.54	3096.53
593.73	3248.08
593.92	3465.16
594.12	3334.09
594.31	3129.30
594.50	3311.57
594.70	3450.83
594.89	3772.36
595.08	2942.93
595.28	3229.65
595.47	3903.43
595.66	3516.36
595.86	3035.09
596.05	2987.99
596.24	3205.07
596.43	3616.71
596.63	3213.26
596.82	3264.46
597.01	3446.73
597.21	3620.81
597.40	3024.85
597.59	3043.28
597.79	3254.22
597.98	3389.39
598.17	3123.15
598.36	3090.38
598.56	3448.78
598.75	3139.54
598.94	3182.54
599.14	3151.82
599.33	3172.30
599.52	3491.79
599.71	3174.35
599.91	3094.48
600.10	3377.10
600.29	3370.96
600.48	3190.74
600.68	3219.41
600.87	3348.43
601.06	3162.06
601.26	3203.02
601.45	3327.95
601.64	3254.22
601.83	3516.36
602.03	2910.16
602.22	2957.27
602.41	3489.74
602.60	3745.73
602.80	3117.01
602.99	3196.88
603.18	3184.59
603.37	3297.23
603.57	3016.66
603.76	3184.59
603.95	3491.79
604.14	3219.41
604.34	2930.64
604.53	3084.24
604.72	3262.41
604.91	3342.28
605.10	3106.77
605.30	2951.12
605.49	3706.82
605.68	3311.57
605.87	3067.86
606.07	2942.93
606.26	3266.51
606.45	3471.31
606.64	3133.39
606.84	2955.22
607.03	3303.37
607.22	3393.48
607.41	3149.78
607.60	3016.66
607.80	3510.22
607.99	3178.45
608.18	3076.05
608.37	3076.05
608.56	3198.93
608.76	3508.17
608.95	3293.13
609.14	3074.00
609.33	3459.02
609.52	3557.32
609.72	3207.12
609.91	3200.98
610.10	3340.24
610.29	3659.72
610.48	3256.27
610.68	3200.98
610.87	3303.37
611.06	3444.68
611.25	3114.96
611.44	3243.98
611.63	3143.63
611.83	3590.09
612.02	3028.95
612.21	3166.16
612.40	2947.03
612.59	3067.86
612.79	2975.70
612.98	3180.50
613.17	3672.01
613.36	3248.08
613.55	3258.32
613.74	3133.39
613.93	3297.23
614.13	3483.59
614.32	3286.99
614.51	3114.96
614.70	3352.52
614.89	3174.35
615.08	3086.29
615.28	3499.98
615.47	3078.10
615.66	3299.28
615.85	3110.86
616.04	3174.35
616.23	3313.61
616.42	3303.37
616.62	3108.82
616.81	3102.67
617.00	3252.17
617.19	3409.87
617.38	3022.80
617.57	3127.25
617.76	3418.06
617.95	3344.33
618.15	3147.73
618.34	3256.27
618.53	3018.71
618.72	3502.03
618.91	3221.45
619.10	3172.30
619.29	3274.70
619.48	3295.18
619.68	2944.98
619.87	2975.70
620.06	2955.22
620.25	3409.87
620.44	3000.27
620.63	3110.86
620.82	3295.18
621.01	3248.08
621.20	3143.63
621.39	3141.58
621.59	3373.00
621.78	3278.80
621.97	3098.58
622.16	3182.54
622.35	3403.72
622.54	3413.96
622.73	3092.43
622.92	2879.44
623.11	3483.59
623.30	3145.68
623.49	3237.84
623.68	3043.28
623.88	3602.38
624.07	3123.15
624.26	3049.43
624.45	3039.19
624.64	3280.85
624.83	3346.38
625.02	3088.34
625.21	3127.25
625.40	3317.71
625.59	3461.07
625.78	3094.48
625.97	3139.54
626.16	3518.41
626.35	3508.17
626.54	3196.88
626.74	3274.70
626.93	3268.56
627.12	3221.45
627.31	3155.92
627.50	3180.50
627.69	3467.21
627.88	3147.73
628.07	2961.36
628.26	2916.31
628.45	3078.10
628.64	3069.91
628.83	3063.76
629.02	2985.94
629.21	3463.12
629.40	3377.10
629.59	3010.51
629.78	3045.33
629.97	3315.66
630.16	3258.32
630.35	3121.10
630.54	3186.64
630.73	3106.77
630.92	3266.51
631.11	2971.60
631.30	3117.01
631.49	3436.49
631.68	3239.89
631.87	3092.43
632.06	2998.23
632.25	3733.45
632.44	3360.72
632.63	3143.63
632.82	3155.92
633.01	3213.26
633.20	3315.66
633.39	3076.05
633.58	2908.12
633.77	3305.42
633.96	3436.49
634.15	3278.80
634.34	3182.54
634.53	3385.29
634.72	3160.02
634.91	2959.31
635.10	3082.19
635.29	3446.73
635.48	3319.76
635.67	2932.69
635.86	2867.16
636.05	3579.85
636.24	3235.79
636.43	3127.25
636.62	3188.69
636.81	2846.68
637.00	3235.79
637.19	3119.06
637.38	3041.23
637.57	3203.02
637.76	3315.66
637.95	3397.58
638.14	3229.65
638.33	3289.04
638.52	3252.17
638.71	3020.75
638.89	2969.55
639.08	3811.27
639.27	3502.03
639.46	3350.48
639.65	3721.16
639.84	3917.76
640.03	3958.72
640.22	3661.77
640.41	3553.23
640.60	3438.54
640.79	3452.88
640.98	3321.81
641.17	3370.96
641.36	3506.12
641.55	3450.83
641.74	2930.64
641.92	2983.89
642.11	3096.53
642.30	3239.89
642.49	2992.08
642.68	2975.70
642.87	3461.07
643.06	3430.35
643.25	2955.22
643.44	2963.41
643.63	3217.36
643.82	3444.68
644.00	2916.31
644.19	3071.95
644.38	3143.63
644.57	3436.49
644.76	3067.86
644.95	3147.73
645.14	3297.23
645.33	3149.78
645.52	3172.30
645.71	2873.30
645.89	3024.85
646.08	3303.37
646.27	3074.00
646.46	3303.37
646.65	3067.86
646.84	3391.44
647.03	2949.08
647.22	3174.35
647.40	3356.62
647.59	3262.41
647.78	2848.72
647.97	3053.52
648.16	3108.82
648.35	3569.61
648.54	3338.19
648.73	3028.95
648.91	3438.54
649.10	3334.09
649.29	3006.42
649.48	2969.55
649.67	3436.49
649.86	3293.13
650.05	3192.78
650.23	3239.89
650.42	3184.59
650.61	3549.13
650.80	3340.24
650.99	3422.16
651.18	3426.25
651.36	3434.44
651.55	3041.23
651.74	3203.02
651.93	3237.84
652.12	3278.80
652.31	3110.86
652.49	3135.44
652.68	3160.02
652.87	3598.28
653.06	3133.39
653.25	3332.05
653.44	3260.37
653.62	3553.23
653.81	3065.81
654.00	3090.38
654.19	3467.21
654.38	3792.84
654.56	3137.49
654.75	2979.79
654.94	3420.11
655.13	3364.81
655.32	3037.14
655.51	3102.67
655.69	3184.59
655.88	3332.05
656.07	2942.93
656.26	3071.95
656.45	3012.56
656.63	3299.28
656.82	3024.85
657.01	3264.46
657.20	3151.82
657.38	3626.95
657.57	2998.23
657.76	2889.68
657.95	3413.96
658.14	3229.65
658.32	3233.74
658.51	2979.79
658.70	3325.90
658.89	3319.76
659.08	3119.06
659.26	3237.84
659.45	3071.95
659.64	3426.25
659.83	3125.20
660.01	3532.75
660.20	3379.15
660.39	3616.71
660.58	2789.33
660.76	3213.26
660.95	3053.52
661.14	3155.92
661.33	2897.88
661.51	3030.99
661.70	3133.39
661.89	3332.05
662.08	3155.92
662.26	2899.92
662.45	3129.30
662.64	3547.08
662.83	3123.15
663.01	2967.51
663.20	3198.93
663.39	3555.27
663.58	3086.29
663.76	3049.43
663.95	3379.15
664.14	3106.77
664.32	3119.06
664.51	2977.75
664.70	2953.17
664.89	3325.90
665.07	2983.89
665.26	3114.96
665.45	3018.71
665.64	3321.81
665.82	3090.38
666.01	3217.36
666.20	3020.75
666.38	3573.71
666.57	3403.72
666.76	5576.62
666.95	13078.33
667.13	20807.36
667.32	25106.05
667.51	28145.23
667.69	29552.19
667.88	24422.03
668.07	17755.89
668.25	15011.61
668.44	13059.90
668.63	11212.63
668.81	9922.41
669.00	8621.95
669.19	7774.09
669.38	6786.97
669.56	5801.90
669.75	5015.48
669.94	4519.87
670.12	3837.89
670.31	3479.50
670.50	3422.16
670.68	3481.55
670.87	3452.88
671.06	3078.10
671.24	3246.03
671.43	3624.90
671.62	3391.44
671.80	3018.71
671.99	3241.93
672.18	3352.52
672.36	3467.21
672.55	3190.74
672.74	3213.26
672.92	3168.21
673.11	3430.35
673.29	3012.56
673.48	3233.74
673.67	3260.37
673.85	3364.81
674.04	2998.23
674.23	3119.06
674.41	3629.00
674.60	3086.29
674.79	2897.88
674.97	2926.55
675.16	3379.15
675.34	3504.07
675.53	3037.14
675.72	3127.25
675.90	3745.73
676.09	3160.02
676.28	3155.92
676.46	2947.03
676.65	3418.06
676.83	3100.62
677.02	3096.53
677.21	3184.59
677.39	3319.76
677.58	3110.86
677.77	3084.24
677.95	2920.40
678.14	3223.50
678.32	3213.26
678.51	3082.19
678.70	3403.72
678.88	3123.15
679.07	3321.81
679.25	3082.19
679.44	3033.04
679.63	2928.60
679.81	3319.76
680.00	3307.47
680.18	3164.11
680.37	3622.86
680.55	3272.65
680.74	2975.70
680.93	2846.68
681.11	3309.52
681.30	3295.18
681.48	3102.67
681.67	3147.73
681.85	3305.42
682.04	3100.62
682.23	3221.45
682.41	3221.45
682.60	3196.88
682.78	3221.45
682.97	3000.27
683.15	3112.91
683.34	3299.28
683.53	3594.19
683.71	2885.59
683.90	3096.53
684.08	3667.91
684.27	3260.37
684.45	3174.35
684.64	3295.18
684.82	3340.24
685.01	3405.77
685.19	3043.28
685.38	3348.43
685.57	3303.37
685.75	3153.87
685.94	2992.08
686.12	3041.23
686.31	3110.86
686.49	3624.90
686.68	2815.96
686.86	3133.39
687.05	3227.60
687.23	3590.09
687.42	3090.38
687.60	2899.92
687.79	3456.97
687.97	3575.75
688.16	3239.89
688.34	3172.30
688.53	2975.70
688.71	3432.40
688.90	3442.64
689.08	3045.33
689.27	2969.55
689.45	3366.86
689.64	3233.74
689.82	3219.41
690.01	3338.19
690.19	3356.62
690.38	3074.00
690.56	3196.88
690.75	3057.62
690.93	3196.88
691.12	3090.38
691.30	3123.15
691.49	3162.06
691.67	3237.84
691.86	3323.85
692.04	3110.86
692.23	3231.69
692.41	3264.46
692.60	3459.02
692.78	3327.95
692.97	3250.13
693.15	3409.87
693.34	3362.76
693.52	3325.90
693.71	3205.07
693.89	3145.68
694.08	2891.73
694.26	3096.53
694.44	3518.41
694.63	3393.48
694.81	3014.61
695.00	3090.38
695.18	3526.60
695.37	3782.60
695.55	3174.35
695.74	3196.88
695.92	3129.30
696.10	3473.36
696.29	2973.65
696.47	3018.71
696.66	3057.62
696.84	3010.51
697.03	3157.97
697.21	3362.76
697.40	4698.04
697.58	3524.55
697.76	3084.24
697.95	3030.99
698.13	3053.52
698.32	3192.78
698.50	3119.06
698.68	3192.78
698.87	3274.70
699.05	3669.96
699.24	3149.78
699.42	3047.38
699.61	3309.52
699.79	3354.57
699.97	3137.49
700.16	3043.28
700.34	3028.95
700.53	3368.91
700.71	3383.24
700.89	3252.17
701.08	3166.16
701.26	3293.13
701.45	3469.26
701.63	3112.91
701.81	3135.44
702.00	3164.11
702.18	3190.74
702.37	3147.73
702.55	3618.76
702.73	3401.68
702.92	3172.30
703.10	3518.41
703.28	3434.44
703.47	3106.77
703.65	3307.47
703.84	3213.26
704.02	3233.74
704.20	3542.99
704.39	3053.52
704.57	3010.51
704.75	3547.08
704.94	3405.77
705.12	3256.27
705.30	3958.72
705.49	8798.07
705.67	17317.62
705.86	24217.23
706.04	27680.35
706.22	30406.19
706.41	29341.25
706.59	21931.70
706.77	16981.76
706.96	14831.39
707.14	13406.00
707.32	11446.10
707.51	9930.60
707.69	8265.60
707.87	6639.51
708.06	5330.86
708.24	4538.30
708.42	4100.03
708.61	4206.53
708.79	3360.72
708.97	3295.18
709.16	3495.88
709.34	3332.05
709.52	3098.58
709.71	3182.54
709.89	3319.76
710.07	3094.48
710.26	3028.95
710.44	3108.82
710.62	3461.07
710.80	3260.37
710.99	3252.17
711.17	3200.98
711.35	3135.44
711.54	3221.45
711.72	3256.27
711.90	3096.53
712.09	3370.96
712.27	3172.30
712.45	3264.46
712.63	3094.48
712.82	3280.85
713.00	3299.28
713.18	3299.28
713.37	3254.22
713.55	3401.68
713.73	3413.96
713.91	3231.69
714.10	3082.19
714.28	3221.45
714.46	3313.61
714.65	3192.78
714.83	3094.48
715.01	3301.33
715.19	3319.76
715.38	3059.67
715.56	3225.55
715.74	3102.67
715.92	3123.15
716.11	3352.52
716.29	2901.97
716.47	3237.84
716.65	3196.88
716.84	2938.84
717.02	3237.84
717.20	3012.56
717.38	3090.38
717.57	3186.64
717.75	3184.59
717.93	3184.59
718.11	3456.97
718.30	2959.31
718.48	3170.26
718.66	3456.97
718.84	3506.12
719.03	3002.32
719.21	2990.03
719.39	3651.53
719.57	3387.34
719.75	3176.40
719.94	3035.09
720.12	3248.08
720.30	3213.26
720.48	3151.82
720.67	3049.43
720.85	3147.73
721.03	3147.73
721.21	3049.43
721.39	3254.22
721.58	3512.27
721.76	3278.80
721.94	3098.58
722.12	3264.46
722.30	3573.71
722.49	3215.31
722.67	3121.10
722.85	3151.82
723.03	2992.08
723.21	3174.35
723.40	3102.67
723.58	3297.23
723.76	3397.58
723.94	3549.13
724.12	3098.58
724.30	3348.43
724.49	3479.50
724.67	3078.10
724.85	3264.46
725.03	2930.64
725.21	3409.87
725.40	3452.88
725.58	3141.58
725.76	3241.93
725.94	3317.71
726.12	3020.75
726.30	3164.11
726.49	3045.33
726.67	3203.02
726.85	3440.59
727.03	4038.59
727.21	5537.71
727.39	7247.76
727.57	8146.82
727.76	8537.98
727.94	8447.87
728.12	7387.02
728.30	5973.92
728.48	5625.77
728.66	5230.51
728.84	4861.88
729.03	4200.38
729.21	3782.60
729.39	3577.80
729.57	3440.59
729.75	3418.06
729.93	3459.02
730.11	2975.70
730.30	3260.37
730.48	3264.46
730.66	3194.83
730.84	3209.17
731.02	3377.10
731.20	3123.15
731.38	3217.36
731.56	2992.08
731.74	3014.61
731.93	3362.76
732.11	3162.06
732.29	3030.99
732.47	3338.19
732.65	3368.91
732.83	3340.24
733.01	3186.64
733.19	3059.67
733.37	3377.10
733.56	3127.25
733.74	3028.95
733.92	3579.85
734.10	3147.73
734.28	3291.09
734.46	2955.22
734.64	3182.54
734.82	3205.07
735.00	3024.85
735.18	3006.42
735.36	3336.14
735.54	3239.89
735.73	3045.33
735.91	3325.90
736.09	3622.86
736.27	3301.33
736.45	3203.02
736.63	2883.54
736.81	3286.99
736.99	3483.59
737.17	3317.71
737.35	3022.80
737.53	3352.52
737.71	3219.41
737.89	3278.80
738.07	3078.10
738.25	3090.38
738.43	2983.89
738.61	3094.48
738.80	2957.27
738.98	3121.10
739.16	3215.31
739.34	3026.90
739.52	3393.48
739.70	3184.59
739.88	3391.44
740.06	3299.28
740.24	2799.57
740.42	3518.41
740.60	2932.69
740.78	3074.00
740.96	2858.96
741.14	3264.46
741.32	3248.08
741.50	2947.03
741.68	3385.29
741.86	3532.75
742.04	3024.85
742.22	3024.85
742.40	2977.75
742.58	3405.77
742.76	3098.58
742.94	3362.76
743.12	2928.60
743.30	3311.57
743.48	3420.11
743.66	3074.00
743.84	3059.67
744.02	3196.88
744.20	3207.12
744.38	2871.25
744.56	3094.48
744.74	3633.10
744.92	3364.81
745.10	3276.75
745.28	3188.69
745.46	3569.61
745.64	3276.75
745.82	3217.36
746.00	3012.56
746.18	3323.85
746.36	3090.38
746.54	3166.16
746.72	3061.71
746.90	2994.13
747.08	3510.22
747.26	3049.43
747.44	3280.85
747.62	3499.98
747.80	3344.33
747.98	3192.78
748.15	3108.82
748.33	3518.41
748.51	3278.80
748.69	3241.93
748.87	3061.71
749.05	3164.11
749.23	3256.27
749.41	3020.75
749.59	3102.67
749.77	3348.43
749.95	3213.26
750.13	3010.51
750.31	3246.03
750.49	3248.08
750.67	3446.73
750.85	3168.21
751.03	3039.19
751.20	3674.06
751.38	3205.07
751.56	3108.82
751.74	3084.24
751.92	3172.30
752.10	3002.32
752.28	3209.17
752.46	2957.27
752.64	3289.04
752.82	3280.85
753.00	3184.59
753.18	3037.14
753.35	3180.50
753.53	3274.70
753.71	3057.62
753.89	3131.34
754.07	3409.87
754.25	3438.54
754.43	3157.97
754.61	2906.07
754.79	3428.30
754.97	3252.17
755.14	3215.31
755.32	2983.89
755.50	3366.86
755.68	3266.51
755.86	3055.57
756.04	3033.04
756.22	2928.60
756.40	3450.83
756.57	3278.80
756.75	3033.04
756.93	3481.55
757.11	3428.30
757.29	2942.93
757.47	3000.27
757.65	2940.88
757.82	2893.78
758.00	2971.60
758.18	3004.37
758.36	3057.62
758.54	3614.66
758.72	2947.03
758.90	3231.69
759.07	3319.76
759.25	3086.29
759.43	3229.65
759.61	2953.17
759.79	4474.81
759.97	3434.44
760.15	3123.15
760.32	3108.82
760.50	3319.76
760.68	3559.37
760.86	3024.85
761.04	3375.05
761.22	3424.20
761.39	3342.28
761.57	3235.79
761.75	3121.10
761.93	3391.44
762.11	3198.93
762.28	3168.21
762.46	3041.23
762.64	3504.07
762.82	3108.82
763.00	3094.48
763.18	3258.32
763.35	3141.58
763.53	3407.82
763.71	3196.88
763.89	3102.67
764.07	3227.60
764.24	3235.79
764.42	3196.88
764.60	3110.86
764.78	3258.32
764.96	3442.64
765.13	3237.84
765.31	2987.99
765.49	3381.20
765.67	3114.96
765.84	2965.46
766.02	3020.75
766.20	3010.51
766.38	3395.53
766.56	3198.93
766.73	3274.70
766.91	3303.37
767.09	3315.66
767.27	3213.26
767.44	3043.28
767.62	3463.12
767.80	3291.09
767.98	2985.94
768.15	3133.39
768.33	3436.49
768.51	3385.29
768.69	3237.84
768.87	3071.95
769.04	3332.05
769.22	3823.56
769.40	3237.84
769.58	3291.09
769.75	3319.76
769.93	3553.23
770.11	3051.47
770.28	2944.98
770.46	3399.63
770.64	3354.57
770.82	3080.14
770.99	3000.27
771.17	3436.49
771.35	3137.49
771.53	3196.88
771.70	3016.66
771.88	3430.35
772.06	3274.70
772.23	3045.33
772.41	3114.96
772.59	3168.21
772.77	3160.02
772.94	3108.82
773.12	3200.98
773.30	3127.25
773.47	3315.66
773.65	2947.03
773.83	3209.17
774.01	3215.31
774.18	2981.84
774.36	3143.63
774.54	2957.27
774.71	3268.56
774.89	2901.97
775.07	2971.60
775.24	3096.53
775.42	3151.82
775.60	3549.13
775.78	2987.99
775.95	2947.03
776.13	2906.07
776.31	2893.78
776.48	3252.17
776.66	3356.62
776.84	3229.65
777.01	3065.81
777.19	2916.31
777.37	3035.09
777.54	3471.31
777.72	3659.72
777.90	3172.30
778.07	3008.47
778.25	3954.63
778.43	3475.40
778.60	2987.99
778.78	3139.54
778.96	3520.46
779.13	2996.18
779.31	3121.10
779.49	3151.82
779.66	3389.39
779.84	3248.08
780.01	3030.99
780.19	3049.43
780.37	3456.97
780.54	3422.16
780.72	2951.12
780.90	3129.30
781.07	3248.08
781.25	3147.73
781.43	3305.42
781.60	3041.23
781.78	3483.59
781.95	3246.03
782.13	3051.47
782.31	3061.71
782.48	2914.26
782.66	3229.65
782.83	3352.52
783.01	3170.26
783.19	3426.25
783.36	3213.26
783.54	3020.75
783.72	3117.01
783.89	3194.83
784.07	3321.81
784.24	3155.92
784.42	3180.50
784.60	3327.95
784.77	3346.38
784.95	2932.69
785.12	3035.09
785.30	3278.80
785.47	3110.86
785.65	2990.03
785.83	3137.49
786.00	3213.26
786.18	3235.79
786.35	2994.13
786.53	3051.47
786.71	3518.41
786.88	3442.64
787.06	3225.55
787.23	3135.44
787.41	3092.43
787.58	3184.59
787.76	2957.27
787.94	3090.38
788.11	3395.53
788.29	3039.19
788.46	3127.25
788.64	2871.25
788.81	3203.02
788.99	3049.43
789.16	3010.51
789.34	3074.00
789.52	3155.92
789.69	3157.97
789.87	2836.44
790.04	3102.67
790.22	3200.98
790.39	3751.88
790.57	2971.60
790.74	2938.84
790.92	3411.92
791.09	2934.74
791.27	3110.86
791.44	3157.97
791.62	3143.63
791.79	3370.96
791.97	3155.92
792.15	3432.40
792.32	3405.77
792.50	3387.34
792.67	3243.98
792.85	3454.92
793.02	3321.81
793.20	3188.69
793.37	2983.89
793.55	3020.75
793.72	3078.10
793.90	3426.25
794.07	3117.01
794.25	3035.09
794.42	3254.22
794.60	3209.17
794.77	3178.45
794.95	3233.74
795.12	3452.88
795.30	3143.63
795.47	2854.87
795.65	3418.06
795.82	3342.28
796.00	3190.74
796.17	3135.44
796.34	2998.23
796.52	3334.09
796.69	3502.03
796.87	3188.69
797.04	3184.59
797.22	3532.75
797.39	3313.61
797.57	3258.32
797.74	3200.98
797.92	3350.48
798.09	3190.74
798.27	3454.92
798.44	3074.00
798.62	3076.05
798.79	3276.75
798.96	3256.27
799.14	3053.52
799.31	3796.93
799.49	3254.22
799.66	3030.99
799.84	3129.30
800.01	2967.51
800.19	3274.70
800.36	2838.48
800.53	3090.38
800.71	3325.90
800.88	3672.01
801.06	2973.65
801.23	3024.85
801.41	3147.73
801.58	3149.78
801.75	3049.43
801.93	3092.43
802.10	3469.26
802.28	3272.65
802.45	3106.77
802.63	3151.82
802.80	3518.41
802.97	3184.59
803.15	3082.19
803.32	3049.43
803.50	3100.62
803.67	3092.43
803.84	2975.70
804.02	3198.93
804.19	3196.88
804.37	2844.63
804.54	2926.55
804.71	3106.77
804.89	3243.98
805.06	3100.62
805.24	2920.40
805.41	2965.46
805.58	3086.29
805.76	3745.73
805.93	3035.09
806.10	3246.03
806.28	3387.34
806.45	3368.91
806.63	3252.17
806.80	3170.26
806.97	3379.15
807.15	3377.10
807.32	3147.73
807.49	3143.63
807.67	2947.03
807.84	3278.80
808.01	2875.35
808.19	3221.45
808.36	3823.56
808.54	3147.73
808.71	3096.53
808.88	2920.40
809.06	3409.87
809.23	3622.86
809.40	3125.20
809.58	3067.86
809.75	3196.88
809.92	2934.74
810.10	3362.76
810.27	3016.66
810.44	3332.05
810.62	3459.02
810.79	3051.47
810.96	3090.38
811.14	3198.93
811.31	3297.23
811.48	3301.33
811.66	3151.82
811.83	3452.88
812.00	3377.10
812.18	3151.82
812.35	3387.34
812.52	3196.88
812.69	3164.11
812.87	3069.91
813.04	2953.17
813.21	3225.55
813.39	3170.26
813.56	2951.12
813.73	3360.72
813.91	2979.79
814.08	3264.46
814.25	3096.53
814.42	2877.40
814.60	3166.16
814.77	3246.03
814.94	3086.29
815.12	3160.02
815.29	3612.62
815.46	3123.15
815.63	3196.88
815.81	3000.27
815.98	3184.59
816.15	3231.69
816.33	3164.11
816.50	3078.10
816.67	3239.89
816.84	3248.08
817.02	2940.88
817.19	3114.96
817.36	3219.41
817.53	3373.00
817.71	3028.95
817.88	3084.24
818.05	3184.59
818.22	3250.13
818.40	3313.61
818.57	2965.46
818.74	3303.37
818.91	3295.18
819.09	3174.35
819.26	3229.65
819.43	3119.06
819.60	3117.01
819.78	3209.17
819.95	3219.41
820.12	3149.78
820.29	3588.04
820.47	3319.76
820.64	2951.12
820.81	3002.32
820.98	3162.06
821.15	3086.29
821.33	3223.50
821.50	2990.03
821.67	3383.24
821.84	3102.67
822.02	3074.00
822.19	3330.00
822.36	3137.49
822.53	3012.56
822.70	2992.08
822.88	3200.98
823.05	3602.38
823.22	3092.43
823.39	3151.82
823.56	3241.93
823.74	3698.63
823.91	2926.55
824.08	3018.71
824.25	3049.43
824.42	3514.31
824.60	2944.98
824.77	3174.35
824.94	3188.69
825.11	3338.19
825.28	2897.88
825.45	3196.88
825.63	3289.04
825.80	3123.15
825.97	3082.19
826.14	3080.14
826.31	2924.50
826.48	3358.67
826.66	3080.14
826.83	2955.22
827.00	3252.17
827.17	3059.67
827.34	3121.10
827.51	3030.99
827.69	3286.99
827.86	2996.18
828.03	3110.86
828.20	3059.67
828.37	3078.10
828.54	3327.95
828.71	2998.23
828.89	3157.97
829.06	3278.80
829.23	3528.65
829.40	3002.32
829.57	2971.60
829.74	3344.33
829.91	3225.55
830.09	3004.37
830.26	3264.46
830.43	3594.19
830.60	3190.74
830.77	3170.26
830.94	3262.41
831.11	3346.38
831.28	3102.67
831.46	3243.98
831.63	3039.19
831.80	3379.15
831.97	3063.76
832.14	3059.67
832.31	3123.15
832.48	3295.18
832.65	3499.98
832.82	3215.31
832.99	3110.86
833.17	3082.19
833.34	3489.74
833.51	2975.70
833.68	2830.29
833.85	3469.26
834.02	3084.24
834.19	2990.03
834.36	3106.77
834.53	3311.57
834.70	3368.91
834.87	3000.27
835.04	2762.71
835.22	3112.91
835.39	3170.26
835.56	2934.74
835.73	2879.44
835.90	3475.40
836.07	3043.28
836.24	3119.06
836.41	2961.36
836.58	3102.67
836.75	3444.68
836.92	3002.32
837.09	2869.20
837.26	3448.78
837.43	3313.61
837.60	2926.55
837.77	2987.99
837.94	3448.78
838.12	3465.16
838.29	2842.58
838.46	2787.29
838.63	3028.95
838.80	3557.32
838.97	2971.60
839.14	2824.15
839.31	3297.23
839.48	3358.67
839.65	2975.70
839.82	3049.43
839.99	3311.57
840.16	3297.23
840.33	2838.48
840.50	2947.03
840.67	3074.00
840.84	2822.10
841.01	2789.33
841.18	2844.63
841.35	3299.28
841.52	3352.52
841.69	3262.41
841.86	2957.27
842.03	3250.13
842.20	3401.68
842.37	2967.51
842.54	2936.79
842.71	3233.74
842.88	2965.46
843.05	2875.35
843.22	2846.68
843.39	3465.16
843.56	3092.43
843.73	2846.68
843.90	2942.93
844.07	3270.61
844.24	3418.06
844.41	2965.46
844.58	2861.01
844.75	3260.37
844.92	3282.89
845.09	2947.03
845.26	2955.22
845.43	3391.44
845.60	3198.93
845.77	3067.86
845.94	2971.60
846.10	3411.92
846.27	2893.78
846.44	2844.63
846.61	2824.15
846.78	3395.53
846.95	3385.29
847.12	2852.82
847.29	2967.51
847.46	3139.54
847.63	3442.64
847.80	2863.06
847.97	2944.98
848.14	3739.59
848.31	3180.50
848.48	2795.48
848.65	2887.64
848.82	3102.67
848.98	3819.46
849.15	3110.86
849.32	2990.03
849.49	3534.79
849.66	3233.74
849.83	2836.44
850.00	2820.05
850.17	3409.87
850.34	3143.63
850.51	2893.78
850.68	2918.36
850.85	3753.93
851.01	3311.57
851.18	2942.93
851.35	3065.81
851.52	3342.28
851.69	3510.22
851.86	2877.40
852.03	2918.36
852.20	3354.57
852.37	3262.41
852.53	2815.96
852.70	2844.63
852.87	3354.57
853.04	3344.33
853.21	2953.17
853.38	3190.74
853.55	3565.51
853.72	3489.74
853.89	2795.48
854.05	2846.68
854.22	3266.51
854.39	3172.30
854.56	2875.35
854.73	3020.75
854.90	3018.71
855.07	3248.08
855.23	2879.44
855.40	2854.87
855.57	3182.54
855.74	2934.74
855.91	3086.29
856.08	2811.86
856.25	2996.18
856.41	3186.64
856.58	2891.73
856.75	2910.16
856.92	2981.84
857.09	3454.92
857.26	2731.99
857.42	2922.45
857.59	3485.64
857.76	3205.07
857.93	2916.31
858.10	3051.47
858.27	3051.47
858.43	3303.37
858.60	2934.74
858.77	2738.13
858.94	3059.67
859.11	3583.95
859.27	3047.38
859.44	2815.96
859.61	3676.10
859.78	3332.05
859.95	2975.70
860.12	2869.20
860.28	3680.20
860.45	3608.52
860.62	2865.11
860.79	2949.08
860.95	3162.06
861.12	3090.38
861.29	2822.10
861.46	2854.87
861.63	3237.84
861.79	3307.47
861.96	2805.72
862.13	2897.88
862.30	3524.55
862.47	3082.19
862.63	2770.90
862.80	2979.79
862.97	3502.03
863.14	3330.00
863.30	2951.12
863.47	2832.34
863.64	3530.70
863.81	3299.28
863.97	2844.63
864.14	2967.51
864.31	3203.02
864.48	3311.57
864.65	2906.07
864.81	2985.94
864.98	3373.00
865.15	3450.83
865.32	2977.75
865.48	2985.94
865.65	3639.24
865.82	3180.50
865.98	3033.04
866.15	2881.49
866.32	3149.78
866.49	3211.22
866.65	3016.66
866.82	2953.17
866.99	3190.74
867.16	3160.02
867.32	2938.84
867.49	2813.91
867.66	3299.28
867.83	3205.07
867.99	2875.35
868.16	2959.31
868.33	3041.23
868.49	3286.99
868.66	2938.84
868.83	3094.48
868.99	3246.03
869.16	3276.75
869.33	3071.95
869.50	2981.84
869.66	3254.22
869.83	3225.55
870.00	2764.76
870.16	3035.09
870.33	3248.08
870.50	3336.14
870.66	3080.14
870.83	2865.11
871.00	3168.21
871.17	3364.81
871.33	2971.60
871.50	2863.06
871.67	3278.80
871.83	3145.68
872.00	2998.23
872.17	2975.70
872.33	3631.05
872.50	3399.63
872.67	2881.49
872.83	2861.01
873.00	3348.43
873.17	3203.02
873.33	3010.51
873.50	2961.36
873.67	3131.34
873.83	3131.34
874.00	2994.13
874.16	3069.91
874.33	3291.09
874.50	3008.47
874.66	2910.16
874.83	3049.43
875.00	3409.87
875.16	3446.73
875.33	2987.99
875.50	2709.46
875.66	3217.36
875.83	3344.33
875.99	3014.61
876.16	3067.86
876.33	3123.15
876.49	3246.03
876.66	2963.41
876.83	2992.08
876.99	2947.03
877.16	3352.52
877.32	2873.30
877.49	2969.55
877.66	3338.19
877.82	3622.86
877.99	3063.76
878.15	3227.60
878.32	3315.66
878.49	3327.95
878.65	2930.64
878.82	3164.11
878.98	3188.69
879.15	3450.83
879.32	3151.82
879.48	3100.62
879.65	3196.88
879.81	3098.58
879.98	2897.88
880.15	2967.51
880.31	3336.14
880.48	3092.43
880.64	3049.43
880.81	3147.73
880.97	3596.23
881.14	3487.69
881.31	2881.49
881.47	3145.68
881.64	3098.58
881.80	2944.98
881.97	3131.34
882.13	2992.08
882.30	3051.47
882.47	3219.41
882.63	2926.55
882.80	2996.18
882.96	3184.59
883.13	3481.55
883.29	2887.64
883.46	2852.82
883.62	3719.11
883.79	3340.24
883.95	3057.62
884.12	2873.30
884.29	3442.64
884.45	3246.03
884.62	2969.55
884.78	2930.64
884.95	3598.28
885.11	3090.38
885.28	3049.43
885.44	3026.90
885.61	3348.43
885.77	3491.79
885.94	3061.71
886.10	3008.47
886.27	3284.94
886.43	3667.91
886.60	3168.21
886.76	2936.79
886.93	3047.38
887.09	3340.24
887.26	2807.77
887.42	3051.47
887.59	3467.21
887.75	3676.10
887.92	3141.58
888.08	3071.95
888.25	3604.42
888.41	3450.83
888.58	2959.31
888.74	2861.01
888.91	3168.21
>>>>>End Processed Spectral Data<<<<<
