SpectraSuite Data File
++++++++++++++++++++++++++++++++++++
Date: Fri May 06 08:14:14 CEST 2016
User: root
Dark Spectrum Present: No
Reference Spectrum Present: No
Number of Sampled Component Spectra: 1
Spectrometers: USB4C02835
Integration Time (usec): 100000 (USB4C02835)
Spectra Averaged: 1 (USB4C02835)
Boxcar Smoothing: 0 (USB4C02835)
Correct for Electrical Dark: No (USB4C02835)
Strobe/Lamp Enabled: No (USB4C02835)
Correct for Detector Non-linearity: No (USB4C02835)
Correct for Stray Light: No (USB4C02835)
Number of Pixels in Processed Spectrum: 3648
>>>>>Begin Processed Spectral Data<<<<<
177.47	2246.62
177.69	2246.62
177.91	2246.62
178.13	2209.76
178.36	2273.25
178.58	2940.88
178.80	3123.15
179.02	3004.37
179.24	3057.62
179.46	2752.47
179.68	2783.19
179.90	3215.31
180.13	3223.50
180.35	2643.93
180.57	2811.86
180.79	3416.01
181.01	3184.59
181.23	2764.76
181.45	2942.93
181.67	3385.29
181.90	3475.40
182.12	2949.08
182.34	2656.22
182.56	3487.69
182.78	3379.15
183.00	2881.49
183.22	2820.05
183.44	2934.74
183.66	3975.11
183.89	3012.56
184.11	2838.48
184.33	3413.96
184.55	3450.83
184.77	2789.33
184.99	2865.11
185.21	3225.55
185.43	3811.27
185.65	2926.55
185.87	2813.91
186.10	3715.02
186.32	3747.78
186.54	2936.79
186.76	2965.46
186.98	3499.98
187.20	3192.78
187.42	2775.00
187.64	2826.20
187.86	3286.99
188.08	3536.84
188.30	2785.24
188.52	2889.68
188.75	3540.94
188.97	3542.99
189.19	2795.48
189.41	2822.10
189.63	3389.39
189.85	3200.98
190.07	2723.80
190.29	2729.94
190.51	3313.61
190.73	2971.60
190.95	3055.57
191.17	2852.82
191.39	2977.75
191.61	3225.55
191.84	2906.07
192.06	3010.51
192.28	2951.12
192.50	3917.76
192.72	3035.09
192.94	2893.78
193.16	3549.13
193.38	3364.81
193.60	2783.19
193.82	3004.37
194.04	3510.22
194.26	3368.91
194.48	2858.96
194.70	2901.97
194.92	3235.79
195.14	3450.83
195.36	2891.73
195.58	2992.08
195.80	3260.37
196.02	3164.11
196.24	2766.81
196.46	2942.93
196.69	3162.06
196.91	3762.12
197.13	2865.11
197.35	2904.02
197.57	3493.83
197.79	3422.16
198.01	3002.32
198.23	2875.35
198.45	3370.96
198.67	3028.95
198.89	2768.85
199.11	2983.89
199.33	3155.92
199.55	2842.58
199.77	2832.34
199.99	3092.43
200.21	3207.12
200.43	3286.99
200.65	2811.86
200.87	2715.61
201.09	3262.41
201.31	3291.09
201.53	2934.74
201.75	2963.41
201.97	3301.33
202.19	3319.76
202.41	3008.47
202.63	2994.13
202.85	3487.69
203.07	3317.71
203.29	2924.50
203.51	2729.94
203.73	3151.82
203.95	3895.24
204.17	2828.24
204.39	3069.91
204.61	3309.52
204.83	3248.08
205.05	3024.85
205.27	2863.06
205.49	3735.50
205.71	3336.14
205.93	2713.56
206.15	2701.27
206.37	3270.61
206.59	3229.65
206.81	2777.05
207.03	2742.23
207.25	3121.10
207.47	3440.59
207.69	2924.50
207.91	3082.19
208.13	3551.18
208.34	3151.82
208.56	2797.53
208.78	2901.97
209.00	3295.18
209.22	3225.55
209.44	2799.57
209.66	2844.63
209.88	3295.18
210.10	3203.02
210.32	2822.10
210.54	2914.26
210.76	3227.60
210.98	3430.35
211.20	2695.13
211.42	3000.27
211.64	3497.93
211.86	3307.47
212.08	2867.16
212.30	2881.49
212.52	3186.64
212.74	3321.81
212.96	2987.99
213.17	2967.51
213.39	3327.95
213.61	3624.90
213.83	2863.06
214.05	2729.94
214.27	3542.99
214.49	3114.96
214.71	2832.34
214.93	2953.17
215.15	3301.33
215.37	3360.72
215.59	2766.81
215.81	2951.12
216.03	3651.53
216.24	3342.28
216.46	2901.97
216.68	2883.54
216.90	3381.20
217.12	3442.64
217.34	2824.15
217.56	3010.51
217.78	3594.19
218.00	3420.11
218.22	3014.61
218.44	3016.66
218.66	3280.85
218.87	3698.63
219.09	2928.60
219.31	2877.40
219.53	3336.14
219.75	3194.83
219.97	2944.98
220.19	2899.92
220.41	3139.54
220.63	3633.10
220.85	2918.36
221.06	2879.44
221.28	3577.80
221.50	3424.20
221.72	2830.29
221.94	2731.99
222.16	3260.37
222.38	3446.73
222.60	2838.48
222.82	2881.49
223.03	3485.64
223.25	3053.52
223.47	2848.72
223.69	3078.10
223.91	3442.64
224.13	3336.14
224.35	2811.86
224.57	3114.96
224.78	3420.11
225.00	3160.02
225.22	2881.49
225.44	2762.71
225.66	3467.21
225.88	3096.53
226.10	2992.08
226.32	2959.31
226.53	3616.71
226.75	3190.74
226.97	2969.55
227.19	2818.00
227.41	3170.26
227.63	3182.54
227.85	2731.99
228.06	2904.02
228.28	3373.00
228.50	3424.20
228.72	2652.12
228.94	2875.35
229.16	2936.79
229.37	3051.47
229.59	2793.43
229.81	3067.86
230.03	3243.98
230.25	3043.28
230.47	2691.03
230.69	2893.78
230.90	3387.34
231.12	3088.34
231.34	2959.31
231.56	2879.44
231.78	3096.53
232.00	3309.52
232.21	2944.98
232.43	2824.15
232.65	2922.45
232.87	3379.15
233.09	2693.08
233.30	2822.10
233.52	3532.75
233.74	3280.85
233.96	2848.72
234.18	2992.08
234.40	3340.24
234.61	3760.07
234.83	2779.09
235.05	2893.78
235.27	3796.93
235.49	3643.34
235.70	2725.85
235.92	2912.21
236.14	3383.24
236.36	3784.65
236.58	2746.33
236.79	2963.41
237.01	3235.79
237.23	3233.74
237.45	3117.01
237.67	2965.46
237.88	3383.24
238.10	3596.23
238.32	2838.48
238.54	2865.11
238.76	3272.65
238.97	3108.82
239.19	2770.90
239.41	2920.40
239.63	3426.25
239.85	3164.11
240.06	2850.77
240.28	2920.40
240.50	3487.69
240.72	3305.42
240.93	2740.18
241.15	2981.84
241.37	3307.47
241.59	3567.56
241.81	2899.92
242.02	2967.51
242.24	3383.24
242.46	3418.06
242.68	2670.55
242.89	2883.54
243.11	3497.93
243.33	3315.66
243.55	2822.10
243.76	2918.36
243.98	3088.34
244.20	3293.13
244.42	2811.86
244.64	2805.72
244.85	3037.14
245.07	3114.96
245.29	2881.49
245.51	2889.68
245.72	3313.61
245.94	3489.74
246.16	2838.48
246.38	2973.65
246.59	3194.83
246.81	3061.71
247.03	2762.71
247.24	2672.60
247.46	3164.11
247.68	3303.37
247.90	2815.96
248.11	2889.68
248.33	3356.62
248.55	3215.31
248.77	2910.16
248.98	2963.41
249.20	3669.96
249.42	3350.48
249.64	2815.96
249.85	2838.48
250.07	3241.93
250.29	3422.16
250.50	2899.92
250.72	2813.91
250.94	3452.88
251.16	3723.21
251.37	2877.40
251.59	2969.55
251.81	3377.10
252.02	3573.71
252.24	2820.05
252.46	2926.55
252.68	3078.10
252.89	3069.91
253.11	2643.93
253.33	3090.38
253.54	3524.55
253.76	3078.10
253.98	2840.53
254.20	2858.96
254.41	3063.76
254.63	3203.02
254.85	2729.94
255.06	2928.60
255.28	3413.96
255.50	3248.08
255.71	2869.20
255.93	2693.08
256.15	3258.32
256.36	3440.59
256.58	2738.13
256.80	2734.04
257.02	3248.08
257.23	3233.74
257.45	2955.22
257.67	2963.41
257.88	3135.44
258.10	3352.52
258.32	2848.72
258.53	2967.51
258.75	3604.42
258.97	3133.39
259.18	2754.52
259.40	2725.85
259.62	3665.86
259.83	3540.94
260.05	2883.54
260.27	3682.25
260.48	3606.47
260.70	3131.34
260.92	2772.95
261.13	2850.77
261.35	3354.57
261.57	3362.76
261.78	2779.09
262.00	2781.14
262.22	3401.68
262.43	3106.77
262.65	2856.92
262.86	2873.30
263.08	3762.12
263.30	3270.61
263.51	2598.87
263.73	2820.05
263.95	3663.82
264.16	3141.58
264.38	2760.66
264.60	2721.75
264.81	3262.41
265.03	3467.21
265.25	3291.09
265.46	2803.67
265.68	3575.75
265.89	3452.88
266.11	2740.18
266.33	2856.92
266.54	3520.46
266.76	3352.52
266.98	2940.88
267.19	3119.06
267.41	3422.16
267.62	3213.26
267.84	2660.31
268.06	3016.66
268.27	3280.85
268.49	3491.79
268.70	2897.88
268.92	2881.49
269.14	3155.92
269.35	3016.66
269.57	3028.95
269.79	2899.92
270.00	3196.88
270.22	3643.34
270.43	2697.17
270.65	2691.03
270.87	3336.14
271.08	3360.72
271.30	2947.03
271.51	2846.68
271.73	3370.96
271.95	3614.66
272.16	2869.20
272.38	2992.08
272.59	3174.35
272.81	3332.05
273.02	2844.63
273.24	2936.79
273.46	3436.49
273.67	3024.85
273.89	2734.04
274.10	2856.92
274.32	3590.09
274.54	3332.05
274.75	2910.16
274.97	2947.03
275.18	3538.89
275.40	3403.72
275.61	2891.73
275.83	3026.90
276.05	3106.77
276.26	3278.80
276.48	2975.70
276.69	2928.60
276.91	3258.32
277.12	3526.60
277.34	3063.76
277.55	3102.67
277.77	3370.96
277.99	3229.65
278.20	3045.33
278.42	2867.16
278.63	3176.40
278.85	3114.96
279.06	2983.89
279.28	3090.38
279.49	3545.03
279.71	3545.03
279.93	3059.67
280.14	3047.38
280.36	3188.69
280.57	3510.22
280.79	3067.86
281.00	2875.35
281.22	3149.78
281.43	3571.66
281.65	2783.19
281.86	2914.26
282.08	3362.76
282.29	3704.78
282.51	2815.96
282.73	2838.48
282.94	3053.52
283.16	3391.44
283.37	3053.52
283.59	2975.70
283.80	3352.52
284.02	3248.08
284.23	3074.00
284.45	3043.28
284.66	3110.86
284.88	3243.98
285.09	2914.26
285.31	3110.86
285.52	3358.67
285.74	2990.03
285.95	3123.15
286.17	3047.38
286.38	3483.59
286.60	3184.59
286.81	2879.44
287.03	2936.79
287.24	3311.57
287.46	3393.48
287.67	3125.20
287.89	3237.84
288.10	3268.56
288.32	3313.61
288.53	3104.72
288.75	3053.52
288.96	3459.02
289.18	3145.68
289.39	2942.93
289.61	3090.38
289.82	3708.87
290.04	3760.07
290.25	2861.01
290.47	3026.90
290.68	3297.23
290.90	3461.07
291.11	2775.00
291.33	3112.91
291.54	3098.58
291.76	3139.54
291.97	3092.43
292.18	3131.34
292.40	3205.07
292.61	3160.02
292.83	3219.41
293.04	3047.38
293.26	3301.33
293.47	3170.26
293.69	2930.64
293.90	2965.46
294.12	3739.59
294.33	3268.56
294.55	3061.71
294.76	3262.41
294.97	3545.03
295.19	3782.60
295.40	2942.93
295.62	3094.48
295.83	3522.51
296.05	3147.73
296.26	3252.17
296.48	2987.99
296.69	3344.33
296.90	3309.52
297.12	3215.31
297.33	3135.44
297.55	3381.20
297.76	3389.39
297.98	3080.14
298.19	3194.83
298.41	3270.61
298.62	3151.82
298.83	3231.69
299.05	3078.10
299.26	3203.02
299.48	3084.24
299.69	3102.67
299.90	3037.14
300.12	3061.71
300.33	3358.67
300.55	3125.20
300.76	3096.53
300.98	3030.99
301.19	3436.49
301.40	2928.60
301.62	2985.94
301.83	3416.01
302.05	3282.89
302.26	3010.51
302.47	3141.58
302.69	3078.10
302.90	3184.59
303.12	2858.96
303.33	3061.71
303.54	3672.01
303.76	3192.78
303.97	2916.31
304.19	3127.25
304.40	3078.10
304.61	3436.49
304.83	3149.78
305.04	3030.99
305.26	3409.87
305.47	3069.91
305.68	2987.99
305.90	2944.98
306.11	3620.81
306.33	3252.17
306.54	2832.34
306.75	2992.08
306.97	3008.47
307.18	3117.01
307.39	2983.89
307.61	3104.72
307.82	3284.94
308.04	3397.58
308.25	2883.54
308.46	3176.40
308.68	3311.57
308.89	3352.52
309.10	3114.96
309.32	3033.04
309.53	3262.41
309.74	3442.64
309.96	2953.17
310.17	3026.90
310.39	3211.22
310.60	3420.11
310.81	3059.67
311.03	2908.12
311.24	3418.06
311.45	3315.66
311.67	3297.23
311.88	3098.58
312.09	3274.70
312.31	3090.38
312.52	2938.84
312.73	2965.46
312.95	2969.55
313.16	3096.53
313.37	3213.26
313.59	3170.26
313.80	3469.26
314.01	3594.19
314.23	2924.50
314.44	2893.78
314.65	3164.11
314.87	3114.96
315.08	2971.60
315.29	3024.85
315.51	3090.38
315.72	2961.36
315.93	3078.10
316.15	2938.84
316.36	3215.31
316.57	3295.18
316.79	2959.31
317.00	2981.84
317.21	3467.21
317.43	3088.34
317.64	3043.28
317.85	2836.44
318.07	3203.02
318.28	3209.17
318.49	3039.19
318.70	3221.45
318.92	3450.83
319.13	3291.09
319.34	3229.65
319.56	3028.95
319.77	3422.16
319.98	3452.88
320.20	3356.62
320.41	3164.11
320.62	3340.24
320.83	3041.23
321.05	3200.98
321.26	3121.10
321.47	3307.47
321.69	3497.93
321.90	2910.16
322.11	2889.68
322.32	3362.76
322.54	3524.55
322.75	3049.43
322.96	3952.58
323.18	3039.19
323.39	2895.83
323.60	2856.92
323.81	3196.88
324.03	3125.20
324.24	3260.37
324.45	3147.73
324.66	3008.47
324.88	3456.97
325.09	3571.66
325.30	3010.51
325.52	2942.93
325.73	3305.42
325.94	3016.66
326.15	2891.73
326.37	2877.40
326.58	3438.54
326.79	3706.82
327.00	2959.31
327.22	2920.40
327.43	3135.44
327.64	3057.62
327.85	3151.82
328.07	3026.90
328.28	3653.58
328.49	3256.27
328.70	2969.55
328.92	3076.05
329.13	3305.42
329.34	3418.06
329.55	3196.88
329.76	3143.63
329.98	3211.22
330.19	3516.36
330.40	3018.71
330.61	3114.96
330.83	3510.22
331.04	3119.06
331.25	3114.96
331.46	2973.65
331.68	2940.88
331.89	3483.59
332.10	3043.28
332.31	2842.58
332.52	3352.52
332.74	3514.31
332.95	2838.48
333.16	3000.27
333.37	3477.45
333.58	3188.69
333.80	3018.71
334.01	2803.67
334.22	3157.97
334.43	3164.11
334.64	2963.41
334.86	3010.51
335.07	3129.30
335.28	3575.75
335.49	2897.88
335.70	3094.48
335.92	3454.92
336.13	3655.62
336.34	3082.19
336.55	3004.37
336.76	3368.91
336.98	2912.21
337.19	3041.23
337.40	2985.94
337.61	3758.02
337.82	3284.94
338.04	3170.26
338.25	2869.20
338.46	3241.93
338.67	3250.13
338.88	2852.82
339.09	2944.98
339.31	3235.79
339.52	3006.42
339.73	2983.89
339.94	3074.00
340.15	3448.78
340.36	3172.30
340.58	2994.13
340.79	2967.51
341.00	3428.30
341.21	3006.42
341.42	3237.84
341.63	2971.60
341.85	3481.55
342.06	3254.22
342.27	2940.88
342.48	3162.06
342.69	3008.47
342.90	3370.96
343.12	3432.40
343.33	2906.07
343.54	3542.99
343.75	3502.03
343.96	3119.06
344.17	2944.98
344.38	3311.57
344.60	3078.10
344.81	2924.50
345.02	2930.64
345.23	3479.50
345.44	3704.78
345.65	3055.57
345.86	3065.81
346.07	3336.14
346.29	3246.03
346.50	3239.89
346.71	3184.59
346.92	3620.81
347.13	3712.97
347.34	3004.37
347.55	2834.39
347.76	3340.24
347.98	3020.75
348.19	3033.04
348.40	3151.82
348.61	3223.50
348.82	3612.62
349.03	3094.48
349.24	2869.20
349.45	3647.43
349.66	2861.01
349.88	2969.55
350.09	2985.94
350.30	3594.19
350.51	3536.84
350.72	3151.82
350.93	3002.32
351.14	3182.54
351.35	3364.81
351.56	3033.04
351.77	3063.76
351.99	3362.76
352.20	3502.03
352.41	3086.29
352.62	2799.57
352.83	3194.83
353.04	3317.71
353.25	2977.75
353.46	3076.05
353.67	3491.79
353.88	2871.25
354.09	2918.36
354.30	3041.23
354.52	3416.01
354.73	3338.19
354.94	2924.50
355.15	3024.85
355.36	3672.01
355.57	3205.07
355.78	2987.99
355.99	2975.70
356.20	3215.31
356.41	3585.99
356.62	3039.19
356.83	3117.01
357.04	3542.99
357.25	2977.75
357.46	3002.32
357.68	2865.11
357.89	3114.96
358.10	3207.12
358.31	3016.66
358.52	3098.58
358.73	3051.47
358.94	3096.53
359.15	3051.47
359.36	3090.38
359.57	3190.74
359.78	3262.41
359.99	3192.78
360.20	2850.77
360.41	3278.80
360.62	3385.29
360.83	3155.92
361.04	3098.58
361.25	3348.43
361.46	3608.52
361.67	3078.10
361.88	3016.66
362.09	3471.31
362.30	3352.52
362.51	2881.49
362.72	3090.38
362.93	3403.72
363.14	3370.96
363.35	3082.19
363.56	2977.75
363.78	3518.41
363.99	3522.51
364.20	3061.71
364.41	3059.67
364.62	3618.76
364.83	3356.62
365.04	2983.89
365.25	3076.05
365.46	3604.42
365.67	3063.76
365.88	3211.22
366.09	2934.74
366.30	3184.59
366.51	3323.85
366.72	2918.36
366.93	2965.46
367.14	3293.13
367.35	3540.94
367.56	2959.31
367.77	3123.15
367.98	3219.41
368.18	3379.15
368.39	3112.91
368.60	2967.51
368.81	3471.31
369.02	3352.52
369.23	2987.99
369.44	2895.83
369.65	3254.22
369.86	3336.14
370.07	3207.12
370.28	2805.72
370.49	3387.34
370.70	3438.54
370.91	2953.17
371.12	2844.63
371.33	3647.43
371.54	3155.92
371.75	3049.43
371.96	2791.38
372.17	3235.79
372.38	3151.82
372.59	3033.04
372.80	2944.98
373.01	3129.30
373.22	3315.66
373.43	2963.41
373.64	2836.44
373.85	3561.42
374.06	3567.56
374.26	3207.12
374.47	3110.86
374.68	3694.54
374.89	3301.33
375.10	2975.70
375.31	3112.91
375.52	3286.99
375.73	3254.22
375.94	2895.83
376.15	3123.15
376.36	3076.05
376.57	3190.74
376.78	3018.71
376.99	3049.43
377.20	3485.64
377.40	3149.78
377.61	3348.43
377.82	2951.12
378.03	3626.95
378.24	3377.10
378.45	3090.38
378.66	3166.16
378.87	2963.41
379.08	3049.43
379.29	3024.85
379.50	3119.06
379.71	3311.57
379.91	3373.00
380.12	2959.31
380.33	3127.25
380.54	3289.04
380.75	3225.55
380.96	3041.23
381.17	3078.10
381.38	3233.74
381.59	3327.95
381.80	3133.39
382.00	3248.08
382.21	3260.37
382.42	3631.05
382.63	3342.28
382.84	3098.58
383.05	3434.44
383.26	3645.38
383.47	3129.30
383.68	2983.89
383.88	3397.58
384.09	3209.17
384.30	3192.78
384.51	3074.00
384.72	3114.96
384.93	3028.95
385.14	3055.57
385.35	3325.90
385.55	2969.55
385.76	3512.27
385.97	3090.38
386.18	2779.09
386.39	3045.33
386.60	3149.78
386.81	3041.23
387.02	2922.45
387.22	3104.72
387.43	3373.00
387.64	3053.52
387.85	3250.13
388.06	3297.23
388.27	4384.70
388.48	7692.17
388.68	11824.97
388.89	14845.73
389.10	16414.47
389.31	16158.47
389.52	12947.26
389.73	11208.53
389.93	10305.38
390.14	9318.26
390.35	8556.41
390.56	7944.07
390.77	6551.45
390.98	5015.48
391.18	4061.12
391.39	3813.32
391.60	3225.55
391.81	3250.13
392.02	3147.73
392.23	3766.21
392.43	3336.14
392.64	3205.07
392.85	3233.74
393.06	3631.05
393.27	3370.96
393.47	2930.64
393.68	3084.24
393.89	3160.02
394.10	3508.17
394.31	3024.85
394.52	2975.70
394.72	3074.00
394.93	3647.43
395.14	2928.60
395.35	3164.11
395.56	3149.78
395.76	3248.08
395.97	3055.57
396.18	3188.69
396.39	3340.24
396.60	3895.24
396.80	3381.20
397.01	3237.84
397.22	3368.91
397.43	3463.12
397.64	2955.22
397.84	3100.62
398.05	3663.82
398.26	3291.09
398.47	3117.01
398.67	3258.32
398.88	3295.18
399.09	3461.07
399.30	2990.03
399.51	3090.38
399.71	3248.08
399.92	3237.84
400.13	3090.38
400.34	2942.93
400.54	3291.09
400.75	3559.37
400.96	3235.79
401.17	3336.14
401.37	3299.28
401.58	3252.17
401.79	3045.33
402.00	3127.25
402.21	3821.51
402.41	3426.25
402.62	3368.91
402.83	3434.44
403.04	3647.43
403.24	4106.18
403.45	3184.59
403.66	3338.19
403.87	3510.22
404.07	3641.29
404.28	3315.66
404.49	3385.29
404.70	3383.24
404.90	3422.16
405.11	3045.33
405.32	3178.45
405.52	3131.34
405.73	3121.10
405.94	2953.17
406.15	3080.14
406.35	3383.24
406.56	3434.44
406.77	3131.34
406.98	3012.56
407.18	3139.54
407.39	3620.81
407.60	3088.34
407.80	3110.86
408.01	3188.69
408.22	3401.68
408.43	2951.12
408.63	3123.15
408.84	3438.54
409.05	3479.50
409.25	2920.40
409.46	3098.58
409.67	3237.84
409.88	3086.29
410.08	3076.05
410.29	2983.89
410.50	3483.59
410.70	3387.34
410.91	2940.88
411.12	3147.73
411.32	3262.41
411.53	3121.10
411.74	2996.18
411.95	3114.96
412.15	3317.71
412.36	3385.29
412.57	3297.23
412.77	3243.98
412.98	3307.47
413.19	3360.72
413.39	3143.63
413.60	3071.95
413.81	3557.32
414.01	3088.34
414.22	3049.43
414.43	3278.80
414.63	3284.94
414.84	3403.72
415.05	3110.86
415.25	2887.64
415.46	3459.02
415.67	3114.96
415.87	3026.90
416.08	3049.43
416.29	3256.27
416.49	3366.86
416.70	3129.30
416.91	3008.47
417.11	3274.70
417.32	3452.88
417.53	3153.87
417.73	3155.92
417.94	3266.51
418.15	3303.37
418.35	3125.20
418.56	3082.19
418.77	3796.93
418.97	3409.87
419.18	3180.50
419.38	2693.08
419.59	3229.65
419.80	3557.32
420.00	2992.08
420.21	3098.58
420.42	3428.30
420.62	3381.20
420.83	3104.72
421.04	3000.27
421.24	3235.79
421.45	3436.49
421.65	3057.62
421.86	3059.67
422.07	3461.07
422.27	3362.76
422.48	2994.13
422.69	2961.36
422.89	3303.37
423.10	3278.80
423.30	2975.70
423.51	3098.58
423.72	3444.68
423.92	3446.73
424.13	2981.84
424.33	3098.58
424.54	3393.48
424.75	3395.53
424.95	3301.33
425.16	3035.09
425.36	3250.13
425.57	3516.36
425.78	3223.50
425.98	3104.72
426.19	3284.94
426.39	3117.01
426.60	3139.54
426.81	3098.58
427.01	3340.24
427.22	3076.05
427.42	2942.93
427.63	2994.13
427.83	3422.16
428.04	3581.90
428.25	3129.30
428.45	3233.74
428.66	3452.88
428.86	3203.02
429.07	3088.34
429.28	3096.53
429.48	3190.74
429.69	3114.96
429.89	3147.73
430.10	3045.33
430.30	3524.55
430.51	3534.79
430.71	2977.75
430.92	3139.54
431.13	3157.97
431.33	3428.30
431.54	3174.35
431.74	3291.09
431.95	3766.21
432.15	3096.53
432.36	3182.54
432.56	3114.96
432.77	3717.06
432.98	3723.21
433.18	3114.96
433.39	2967.51
433.59	3323.85
433.80	3729.35
434.00	3205.07
434.21	3033.04
434.41	3119.06
434.62	3768.26
434.82	2961.36
435.03	2992.08
435.23	3276.75
435.44	2994.13
435.64	3059.67
435.85	3098.58
436.06	3428.30
436.26	3436.49
436.47	2998.23
436.67	2938.84
436.88	3239.89
437.08	3461.07
437.29	3207.12
437.49	3168.21
437.70	3549.13
437.90	3301.33
438.11	3221.45
438.31	3086.29
438.52	3506.12
438.72	3442.64
438.93	3385.29
439.13	3188.69
439.34	3499.98
439.54	3155.92
439.75	3143.63
439.95	3106.77
440.16	3008.47
440.36	3399.63
440.57	3059.67
440.77	3088.34
440.98	3268.56
441.18	3344.33
441.39	3014.61
441.59	2975.70
441.80	3741.64
442.00	3332.05
442.21	3149.78
442.41	2998.23
442.62	3557.32
442.82	3200.98
443.02	3053.52
443.23	3094.48
443.43	3260.37
443.64	3647.43
443.84	2975.70
444.05	3207.12
444.25	3295.18
444.46	3188.69
444.66	3131.34
444.87	3289.04
445.07	2959.31
445.28	3243.98
445.48	3305.42
445.69	3108.82
445.89	3866.56
446.09	3231.69
446.30	3385.29
446.50	3504.07
446.71	5074.87
446.91	6231.97
447.12	7063.44
447.32	7452.56
447.53	7661.45
447.73	6369.18
447.93	5521.32
448.14	5375.92
448.34	5384.11
448.55	4546.49
448.75	4460.48
448.96	4241.34
449.16	4091.84
449.36	3958.72
449.57	3362.76
449.77	3215.31
449.98	3243.98
450.18	3395.53
450.39	2928.60
450.59	3340.24
450.79	3313.61
451.00	3164.11
451.20	3342.28
451.41	3137.49
451.61	3373.00
451.81	3323.85
452.02	3051.47
452.22	3045.33
452.43	3270.61
452.63	3151.82
452.84	3188.69
453.04	3004.37
453.24	3303.37
453.45	3114.96
453.65	3084.24
453.86	3045.33
454.06	3258.32
454.26	3215.31
454.47	3024.85
454.67	3274.70
454.87	3330.00
455.08	3305.42
455.28	3215.31
455.49	3172.30
455.69	3190.74
455.89	3620.81
456.10	3162.06
456.30	3000.27
456.51	3407.82
456.71	3307.47
456.91	3243.98
457.12	3074.00
457.32	3336.14
457.52	2985.94
457.73	3246.03
457.93	3174.35
458.14	3223.50
458.34	2936.79
458.54	3117.01
458.75	3074.00
458.95	3411.92
459.15	3379.15
459.36	3119.06
459.56	3098.58
459.76	3772.36
459.97	3268.56
460.17	3088.34
460.37	3147.73
460.58	3327.95
460.78	3348.43
460.99	3131.34
461.19	3016.66
461.39	3205.07
461.60	3176.40
461.80	3123.15
462.00	2961.36
462.21	3303.37
462.41	3094.48
462.61	2953.17
462.82	2867.16
463.02	3368.91
463.22	3246.03
463.43	3153.87
463.63	3024.85
463.83	3540.94
464.04	3319.76
464.24	2985.94
464.44	2987.99
464.64	3340.24
464.85	3399.63
465.05	3078.10
465.25	2971.60
465.46	3141.58
465.66	3387.34
465.86	3192.78
466.07	3037.14
466.27	3358.67
466.47	3008.47
466.68	2865.11
466.88	3170.26
467.08	3401.68
467.29	3434.44
467.49	3065.81
467.69	3209.17
467.89	3364.81
468.10	3176.40
468.30	3082.19
468.50	3139.54
468.71	3434.44
468.91	3065.81
469.11	3270.61
469.31	3164.11
469.52	3045.33
469.72	3692.49
469.92	3297.23
470.13	3092.43
470.33	3270.61
470.53	3303.37
470.73	3430.35
470.94	3901.38
471.14	4128.70
471.34	4714.42
471.54	4292.54
471.75	4011.97
471.95	3794.89
472.15	3770.31
472.36	3737.54
472.56	3516.36
472.76	3811.27
472.96	3776.45
473.17	3430.35
473.37	3280.85
473.57	3168.21
473.77	3401.68
473.98	3270.61
474.18	2916.31
474.38	4005.83
474.58	3090.38
474.79	2973.65
474.99	3178.45
475.19	3475.40
475.39	3078.10
475.60	3063.76
475.80	3037.14
476.00	3389.39
476.20	3194.83
476.41	3174.35
476.61	3053.52
476.81	3551.18
477.01	3119.06
477.21	3397.58
477.42	3205.07
477.62	3139.54
477.82	3405.77
478.02	2938.84
478.23	3100.62
478.43	3065.81
478.63	3211.22
478.83	3157.97
479.03	3147.73
479.24	3528.65
479.44	3706.82
479.64	3002.32
479.84	2858.96
480.04	3151.82
480.25	3493.83
480.45	3006.42
480.65	2977.75
480.85	3524.55
481.06	3233.74
481.26	3155.92
481.46	3033.04
481.66	3385.29
481.86	3074.00
482.06	3311.57
482.27	3080.14
482.47	3278.80
482.67	3344.33
482.87	3106.77
483.07	3074.00
483.28	3170.26
483.48	3049.43
483.68	3082.19
483.88	2987.99
484.08	2838.48
484.29	3047.38
484.49	3104.72
484.69	2865.11
484.89	3536.84
485.09	3448.78
485.29	3026.90
485.50	3176.40
485.70	3145.68
485.90	3516.36
486.10	3170.26
486.30	3125.20
486.50	3516.36
486.71	3344.33
486.91	3039.19
487.11	3131.34
487.31	2955.22
487.51	3381.20
487.71	3092.43
487.91	3080.14
488.12	3086.29
488.32	2834.39
488.52	3002.32
488.72	2846.68
488.92	3352.52
489.12	3461.07
489.32	3229.65
489.53	3127.25
489.73	2959.31
489.93	3588.04
490.13	3000.27
490.33	2924.50
490.53	3340.24
490.73	3510.22
490.94	2949.08
491.14	3219.41
491.34	3344.33
491.54	3438.54
491.74	4026.31
491.94	4474.81
492.14	5081.01
492.34	5248.94
492.54	4927.41
492.75	4173.76
492.95	4270.01
493.15	3987.40
493.35	3780.55
493.55	3819.46
493.75	3678.15
493.95	3817.41
494.15	3418.06
494.35	3241.93
494.56	3270.61
494.76	3141.58
494.96	3243.98
495.16	2922.45
495.36	3338.19
495.56	3327.95
495.76	3078.10
495.96	3047.38
496.16	3106.77
496.36	3598.28
496.56	3039.19
496.77	3207.12
496.97	3315.66
497.17	3563.47
497.37	2854.87
497.57	3237.84
497.77	3278.80
497.97	3037.14
498.17	3108.82
498.37	2994.13
498.57	3459.02
498.77	3174.35
498.97	3239.89
499.17	3420.11
499.38	3266.51
499.58	3368.91
499.78	3246.03
499.98	3194.83
500.18	3227.60
500.38	3086.29
500.58	3223.50
500.78	3651.53
500.98	6197.15
501.18	8226.69
501.38	9783.15
501.58	10868.57
501.78	10737.50
501.98	8970.10
502.18	7514.00
502.38	6590.36
502.58	6358.94
502.78	5711.78
502.98	5373.87
503.18	5238.70
503.38	4818.87
503.59	4304.83
503.79	4114.37
503.99	3721.16
504.19	3897.28
504.39	3991.49
504.59	3653.58
504.79	3528.65
504.99	3991.49
505.19	3688.39
505.39	3280.85
505.59	3594.19
505.79	3760.07
505.99	3557.32
506.19	3035.09
506.39	3411.92
506.59	3139.54
506.79	3190.74
506.99	3282.89
507.19	3012.56
507.39	3368.91
507.59	3014.61
507.79	3016.66
507.99	2983.89
508.19	3340.24
508.39	3231.69
508.59	3069.91
508.79	3231.69
508.99	3680.20
509.19	3131.34
509.39	3102.67
509.59	2947.03
509.79	3162.06
509.99	3280.85
510.19	3297.23
510.39	3196.88
510.59	3327.95
510.79	3151.82
510.99	2904.02
511.19	3069.91
511.39	3637.19
511.59	3483.59
511.79	3221.45
511.99	3049.43
512.19	3667.91
512.38	3319.76
512.58	2987.99
512.78	2994.13
512.98	3469.26
513.18	3504.07
513.38	3000.27
513.58	3082.19
513.78	3174.35
513.98	3272.65
514.18	3037.14
514.38	3039.19
514.58	3434.44
514.78	3131.34
514.98	2959.31
515.18	3074.00
515.38	3043.28
515.58	3577.80
515.78	3063.76
515.98	3082.19
516.18	3377.10
516.38	3311.57
516.57	2992.08
516.77	3051.47
516.97	3434.44
517.17	3147.73
517.37	2805.72
517.57	3133.39
517.77	3246.03
517.97	3160.02
518.17	3104.72
518.37	2944.98
518.57	3110.86
518.77	3180.50
518.97	3151.82
519.16	3098.58
519.36	3549.13
519.56	3233.74
519.76	3006.42
519.96	2969.55
520.16	3553.23
520.36	3119.06
520.56	3215.31
520.76	3002.32
520.96	3280.85
521.16	3424.20
521.35	3274.70
521.55	3174.35
521.75	3362.76
521.95	3223.50
522.15	3074.00
522.35	2947.03
522.55	3157.97
522.75	3508.17
522.95	3012.56
523.14	2928.60
523.34	3213.26
523.54	3074.00
523.74	3166.16
523.94	3100.62
524.14	2996.18
524.34	3403.72
524.54	3278.80
524.73	3020.75
524.93	3434.44
525.13	3235.79
525.33	2955.22
525.53	3299.28
525.73	3377.10
525.93	3270.61
526.13	3069.91
526.32	3010.51
526.52	3553.23
526.72	3450.83
526.92	3157.97
527.12	3035.09
527.32	3049.43
527.52	3350.48
527.71	3090.38
527.91	3092.43
528.11	3225.55
528.31	3272.65
528.51	3041.23
528.71	3135.44
528.90	3446.73
529.10	3518.41
529.30	3078.10
529.50	2861.01
529.70	3332.05
529.90	3221.45
530.09	3069.91
530.29	2906.07
530.49	3186.64
530.69	3856.33
530.89	3264.46
531.09	3157.97
531.28	3108.82
531.48	3579.85
531.68	3084.24
531.88	3026.90
532.08	3481.55
532.28	3196.88
532.47	3135.44
532.67	3131.34
532.87	3389.39
533.07	3047.38
533.27	3035.09
533.46	3135.44
533.66	3356.62
533.86	3229.65
534.06	3104.72
534.26	3008.47
534.45	3252.17
534.65	3444.68
534.85	3215.31
535.05	3028.95
535.25	3411.92
535.44	2998.23
535.64	3178.45
535.84	3084.24
536.04	3231.69
536.24	3186.64
536.43	2996.18
536.63	3053.52
536.83	3387.34
537.03	3299.28
537.22	2846.68
537.42	2893.78
537.62	3325.90
537.82	3180.50
538.02	3248.08
538.21	3061.71
538.41	3844.04
538.61	3397.58
538.81	3117.01
539.00	3200.98
539.20	2938.84
539.40	3241.93
539.60	3016.66
539.79	3266.51
539.99	3389.39
540.19	3084.24
540.39	3000.27
540.58	3182.54
540.78	3504.07
540.98	3295.18
541.18	3243.98
541.37	3057.62
541.57	3338.19
541.77	3358.67
541.97	2959.31
542.16	2887.64
542.36	3190.74
542.56	3463.12
542.76	3182.54
542.95	3145.68
543.15	3303.37
543.35	3370.96
543.54	2957.27
543.74	3024.85
543.94	3499.98
544.14	3141.58
544.33	3221.45
544.53	3065.81
544.73	3129.30
544.93	3176.40
545.12	3008.47
545.32	3035.09
545.52	3209.17
545.71	2975.70
545.91	3082.19
546.11	3037.14
546.30	3086.29
546.50	3215.31
546.70	3184.59
546.90	3063.76
547.09	2936.79
547.29	3266.51
547.49	3172.30
547.68	3086.29
547.88	3155.92
548.08	3383.24
548.27	3336.14
548.47	2957.27
548.67	3102.67
548.87	3407.82
549.06	3030.99
549.26	3065.81
549.46	3356.62
549.65	3174.35
549.85	3129.30
550.05	3119.06
550.24	3041.23
550.44	3192.78
550.64	3125.20
550.83	3123.15
551.03	3549.13
551.23	3385.29
551.42	3063.76
551.62	3117.01
551.82	3213.26
552.01	3200.98
552.21	3479.50
552.41	3129.30
552.60	3620.81
552.80	3311.57
553.00	2998.23
553.19	3090.38
553.39	3600.33
553.59	3018.71
553.78	3176.40
553.98	3024.85
554.17	3051.47
554.37	3334.09
554.57	3069.91
554.76	2987.99
554.96	3123.15
555.16	3235.79
555.35	3080.14
555.55	3213.26
555.75	3325.90
555.94	3395.53
556.14	2922.45
556.33	3065.81
556.53	3239.89
556.73	3213.26
556.92	3084.24
557.12	3008.47
557.32	3803.08
557.51	3639.24
557.71	3051.47
557.90	3188.69
558.10	3491.79
558.30	3176.40
558.49	3086.29
558.69	2971.60
558.88	3368.91
559.08	3344.33
559.28	3110.86
559.47	3110.86
559.67	3354.57
559.86	3706.82
560.06	3004.37
560.26	3082.19
560.45	3346.38
560.65	3186.64
560.84	3395.53
561.04	2949.08
561.24	3416.01
561.43	2965.46
561.63	3311.57
561.82	3168.21
562.02	3420.11
562.22	3069.91
562.41	3018.71
562.61	3076.05
562.80	2951.12
563.00	3774.41
563.19	3133.39
563.39	3141.58
563.59	3407.82
563.78	3080.14
563.98	2801.62
564.17	3076.05
564.37	2875.35
564.56	3217.36
564.76	2967.51
564.96	3270.61
565.15	3313.61
565.35	3794.89
565.54	3094.48
565.74	3172.30
565.93	3344.33
566.13	3282.89
566.32	3149.78
566.52	3155.92
566.71	3319.76
566.91	3459.02
567.11	3164.11
567.30	2983.89
567.50	3346.38
567.69	3336.14
567.89	3035.09
568.08	3018.71
568.28	3321.81
568.47	3016.66
568.67	3045.33
568.86	3008.47
569.06	3416.01
569.25	3205.07
569.45	2981.84
569.64	3127.25
569.84	3252.17
570.04	3346.38
570.23	3067.86
570.43	3198.93
570.62	3344.33
570.82	3551.18
571.01	3002.32
571.21	3030.99
571.40	3153.87
571.60	3393.48
571.79	3198.93
571.99	2996.18
572.18	3008.47
572.38	3362.76
572.57	3160.02
572.77	3174.35
572.96	3741.64
573.16	3252.17
573.35	3100.62
573.55	3190.74
573.74	3262.41
573.94	3203.02
574.13	3041.23
574.33	3266.51
574.52	3473.36
574.71	3254.22
574.91	3065.81
575.10	2908.12
575.30	3235.79
575.49	3028.95
575.69	3004.37
575.88	2959.31
576.08	3291.09
576.27	3575.75
576.47	3059.67
576.66	3239.89
576.86	3524.55
577.05	3303.37
577.25	3153.87
577.44	3258.32
577.64	3186.64
577.83	3411.92
578.02	3141.58
578.22	3166.16
578.41	3686.34
578.61	3246.03
578.80	2889.68
579.00	3098.58
579.19	3246.03
579.39	3393.48
579.58	3090.38
579.77	3102.67
579.97	3549.13
580.16	3508.17
580.36	3237.84
580.55	3188.69
580.75	3309.52
580.94	3235.79
581.13	3237.84
581.33	3381.20
581.52	3278.80
581.72	3717.06
581.91	3229.65
582.11	2979.79
582.30	3469.26
582.49	3344.33
582.69	3385.29
582.88	3231.69
583.08	3364.81
583.27	3370.96
583.47	3164.11
583.66	3067.86
583.85	3033.04
584.05	3282.89
584.24	3094.48
584.44	3168.21
584.63	3483.59
584.82	3612.62
585.02	3291.09
585.21	3215.31
585.41	3379.15
585.60	3272.65
585.79	3364.81
585.99	3385.29
586.18	3303.37
586.37	4196.29
586.57	6281.12
586.76	17940.21
586.96	37369.29
587.15	50777.34
587.34	58924.16
587.54	63145.02
587.73	56575.14
587.93	40713.62
588.12	31297.06
588.31	25755.26
588.51	22541.99
588.70	21006.02
588.89	18255.59
589.09	15836.94
589.28	13541.17
589.47	10719.07
589.67	8259.46
589.86	6416.29
590.06	5164.98
590.25	4515.77
590.44	3948.48
590.64	3512.27
590.83	3538.89
591.02	3538.89
591.22	3074.00
591.41	3141.58
591.60	3256.27
591.80	3821.51
591.99	2936.79
592.18	3065.81
592.38	3411.92
592.57	3133.39
592.76	3014.61
592.96	3149.78
593.15	3172.30
593.34	3499.98
593.54	3063.76
593.73	3135.44
593.92	3352.52
594.12	3321.81
594.31	3104.72
594.50	3241.93
594.70	3411.92
594.89	3801.03
595.08	2973.65
595.28	3227.60
595.47	3907.52
595.66	3506.12
595.86	3043.28
596.05	2983.89
596.24	3153.87
596.43	3659.72
596.63	3164.11
596.82	3250.13
597.01	3342.28
597.21	3637.19
597.40	3020.75
597.59	3155.92
597.79	3305.42
597.98	3418.06
598.17	3086.29
598.36	3094.48
598.56	3432.40
598.75	3241.93
598.94	3219.41
599.14	3162.06
599.33	3213.26
599.52	3461.07
599.71	3149.78
599.91	3135.44
600.10	3387.34
600.29	3405.77
600.48	3121.10
600.68	3190.74
600.87	3348.43
601.06	3108.82
601.26	3172.30
601.45	3266.51
601.64	3188.69
601.83	3559.37
602.03	3016.66
602.22	2951.12
602.41	3418.06
602.60	3786.69
602.80	3213.26
602.99	3219.41
603.18	3157.97
603.37	3362.76
603.57	3055.57
603.76	3043.28
603.95	3489.74
604.14	3160.02
604.34	2947.03
604.53	3020.75
604.72	3366.86
604.91	3418.06
605.10	3096.53
605.30	2996.18
605.49	3764.17
605.68	3585.99
605.87	3114.96
606.07	2994.13
606.26	3366.86
606.45	3368.91
606.64	3098.58
606.84	2928.60
607.03	3250.13
607.22	3471.31
607.41	3157.97
607.60	3086.29
607.80	3514.31
607.99	3237.84
608.18	3076.05
608.37	3082.19
608.56	3200.98
608.76	3452.88
608.95	3235.79
609.14	3057.62
609.33	3551.18
609.52	3542.99
609.72	3131.34
609.91	3254.22
610.10	3319.76
610.29	3616.71
610.48	3270.61
610.68	3200.98
610.87	3364.81
611.06	3467.21
611.25	3074.00
611.44	3141.58
611.63	3141.58
611.83	3604.42
612.02	2975.70
612.21	3225.55
612.40	3010.51
612.59	3004.37
612.79	3055.57
612.98	3174.35
613.17	3567.56
613.36	3340.24
613.55	3286.99
613.74	3170.26
613.93	3264.46
614.13	3450.83
614.32	3293.13
614.51	3147.73
614.70	3194.83
614.89	3084.24
615.08	3229.65
615.28	3434.44
615.47	3067.86
615.66	3397.58
615.85	3112.91
616.04	3155.92
616.23	3235.79
616.42	3311.57
616.62	3069.91
616.81	3127.25
617.00	3286.99
617.19	3430.35
617.38	3114.96
617.57	3184.59
617.76	3428.30
617.95	3350.48
618.15	3229.65
618.34	3282.89
618.53	3041.23
618.72	3456.97
618.91	3188.69
619.10	3188.69
619.29	3278.80
619.48	3366.86
619.68	2910.16
619.87	3106.77
620.06	3053.52
620.25	3395.53
620.44	3033.04
620.63	3051.47
620.82	3346.38
621.01	3393.48
621.20	3071.95
621.39	3102.67
621.59	3307.47
621.78	3286.99
621.97	3096.53
622.16	3182.54
622.35	3395.53
622.54	3385.29
622.73	3147.73
622.92	2822.10
623.11	3493.83
623.30	3098.58
623.49	3180.50
623.68	2983.89
623.88	3526.60
624.07	3166.16
624.26	3000.27
624.45	3049.43
624.64	3205.07
624.83	3379.15
625.02	3123.15
625.21	3110.86
625.40	3272.65
625.59	3588.04
625.78	3139.54
625.97	3213.26
626.16	3594.19
626.35	3428.30
626.54	3117.01
626.74	3311.57
626.93	3289.04
627.12	3233.74
627.31	3149.78
627.50	3100.62
627.69	3444.68
627.88	3092.43
628.07	3041.23
628.26	2967.51
628.45	3049.43
628.64	3086.29
628.83	2961.36
629.02	2983.89
629.21	3483.59
629.40	3313.61
629.59	2963.41
629.78	3014.61
629.97	3340.24
630.16	3295.18
630.35	3147.73
630.54	3166.16
630.73	3241.93
630.92	3274.70
631.11	2961.36
631.30	3168.21
631.49	3471.31
631.68	3241.93
631.87	3082.19
632.06	2969.55
632.25	3774.41
632.44	3332.05
632.63	3106.77
632.82	3196.88
633.01	3166.16
633.20	3280.85
633.39	3114.96
633.58	2953.17
633.77	3340.24
633.96	3469.26
634.15	3147.73
634.34	3172.30
634.53	3428.30
634.72	3157.97
634.91	2920.40
635.10	3129.30
635.29	3452.88
635.48	3327.95
635.67	2947.03
635.86	2924.50
636.05	3493.83
636.24	3268.56
636.43	3053.52
636.62	3119.06
636.81	2846.68
637.00	3319.76
637.19	3082.19
637.38	3155.92
637.57	3221.45
637.76	3289.04
637.95	3330.00
638.14	3196.88
638.33	3387.34
638.52	3311.57
638.71	3014.61
638.89	2955.22
639.08	3805.13
639.27	3506.12
639.46	3479.50
639.65	3682.25
639.84	3778.50
640.03	4081.60
640.22	3651.53
640.41	3555.27
640.60	3418.06
640.79	3502.03
640.98	3321.81
641.17	3325.90
641.36	3549.13
641.55	3440.59
641.74	2973.65
641.92	3002.32
642.11	3207.12
642.30	3209.17
642.49	2969.55
642.68	3098.58
642.87	3409.87
643.06	3368.91
643.25	2920.40
643.44	2924.50
643.63	3272.65
643.82	3352.52
644.00	3030.99
644.19	3059.67
644.38	3133.39
644.57	3356.62
644.76	3137.49
644.95	3135.44
645.14	3360.72
645.33	3254.22
645.52	3141.58
645.71	2934.74
645.89	3082.19
646.08	3221.45
646.27	3086.29
646.46	3223.50
646.65	2998.23
646.84	3284.94
647.03	2996.18
647.22	3180.50
647.40	3313.61
647.59	3147.73
647.78	2897.88
647.97	2979.79
648.16	3172.30
648.35	3594.19
648.54	3286.99
648.73	3028.95
648.91	3387.34
649.10	3186.64
649.29	2994.13
649.48	2973.65
649.67	3446.73
649.86	3291.09
650.05	3123.15
650.23	3284.94
650.42	3184.59
650.61	3602.38
650.80	3313.61
650.99	3405.77
651.18	3491.79
651.36	3526.60
651.55	3033.04
651.74	3291.09
651.93	3119.06
652.12	3297.23
652.31	3065.81
652.49	3090.38
652.68	3227.60
652.87	3602.38
653.06	3110.86
653.25	3319.76
653.44	3266.51
653.62	3614.66
653.81	3147.73
654.00	3071.95
654.19	3459.02
654.38	3880.90
654.56	3233.74
654.75	3043.28
654.94	3409.87
655.13	3336.14
655.32	2942.93
655.51	3205.07
655.69	3139.54
655.88	3430.35
656.07	2983.89
656.26	3104.72
656.45	2998.23
656.63	3289.04
656.82	3004.37
657.01	3377.10
657.20	3153.87
657.38	3571.66
657.57	3074.00
657.76	2992.08
657.95	3440.59
658.14	3106.77
658.32	3180.50
658.51	2947.03
658.70	3327.95
658.89	3330.00
659.08	3074.00
659.26	3299.28
659.45	3129.30
659.64	3409.87
659.83	3098.58
660.01	3491.79
660.20	3211.22
660.39	3585.99
660.58	2803.67
660.76	3139.54
660.95	3123.15
661.14	3215.31
661.33	2992.08
661.51	3137.49
661.70	3149.78
661.89	3293.13
662.08	3094.48
662.26	3006.42
662.45	3092.43
662.64	3676.10
662.83	3141.58
663.01	2957.27
663.20	3125.20
663.39	3643.34
663.58	3162.06
663.76	3084.24
663.95	3391.44
664.14	3127.25
664.32	3112.91
664.51	2947.03
664.70	3016.66
664.89	3346.38
665.07	2928.60
665.26	3221.45
665.45	3084.24
665.64	3323.85
665.82	3086.29
666.01	3198.93
666.20	3045.33
666.38	3469.26
666.57	3459.02
666.76	5486.51
666.95	13053.75
667.13	20633.29
667.32	24882.82
667.51	27764.31
667.69	28853.83
667.88	24061.58
668.07	17403.64
668.25	14847.77
668.44	12705.60
668.63	11167.57
668.81	9805.67
669.00	8451.97
669.19	7534.48
669.38	6655.90
669.56	5791.66
669.75	4962.23
669.94	4466.62
670.12	3790.79
670.31	3387.34
670.50	3459.02
670.68	3534.79
670.87	3409.87
671.06	3028.95
671.24	3131.34
671.43	3514.31
671.62	3338.19
671.80	3041.23
671.99	3217.36
672.18	3280.85
672.36	3401.68
672.55	3178.45
672.74	3067.86
672.92	3112.91
673.11	3485.64
673.29	2867.16
673.48	3235.79
673.67	3168.21
673.85	3536.84
674.04	3014.61
674.23	3209.17
674.41	3633.10
674.60	3125.20
674.79	2879.44
674.97	2949.08
675.16	3454.92
675.34	3430.35
675.53	3033.04
675.72	3133.39
675.90	3661.77
676.09	3188.69
676.28	3188.69
676.46	2922.45
676.65	3442.64
676.83	3035.09
677.02	3180.50
677.21	3151.82
677.39	3379.15
677.58	3188.69
677.77	3000.27
677.95	2971.60
678.14	3205.07
678.32	3211.22
678.51	3018.71
678.70	3438.54
678.88	3192.78
679.07	3246.03
679.25	3162.06
679.44	3078.10
679.63	3041.23
679.81	3330.00
680.00	3385.29
680.18	3137.49
680.37	3565.51
680.55	3278.80
680.74	2938.84
680.93	2889.68
681.11	3344.33
681.30	3211.22
681.48	3135.44
681.67	3196.88
681.85	3231.69
682.04	3149.78
682.23	3160.02
682.41	3252.17
682.60	3258.32
682.78	3246.03
682.97	3035.09
683.15	3135.44
683.34	3395.53
683.53	3542.99
683.71	2959.31
683.90	3090.38
684.08	3534.79
684.27	3205.07
684.45	3170.26
684.64	3235.79
684.82	3295.18
685.01	3411.92
685.19	3045.33
685.38	3348.43
685.57	3266.51
685.75	3143.63
685.94	2990.03
686.12	2969.55
686.31	3157.97
686.49	3567.56
686.68	2885.59
686.86	3127.25
687.05	3207.12
687.23	3610.57
687.42	3096.53
687.60	2994.13
687.79	3459.02
687.97	3594.19
688.16	3295.18
688.34	3266.51
688.53	2965.46
688.71	3416.01
688.90	3416.01
689.08	3155.92
689.27	2883.54
689.45	3375.05
689.64	3295.18
689.82	3182.54
690.01	3330.00
690.19	3379.15
690.38	3141.58
690.56	3186.64
690.75	3102.67
690.93	3172.30
691.12	3047.38
691.30	3254.22
691.49	3098.58
691.67	3254.22
691.86	3434.44
692.04	3018.71
692.23	3166.16
692.41	3264.46
692.60	3461.07
692.78	3340.24
692.97	3307.47
693.15	3375.05
693.34	3391.44
693.52	3311.57
693.71	3090.38
693.89	3145.68
694.08	2930.64
694.26	3182.54
694.44	3479.50
694.63	3391.44
694.81	3016.66
695.00	3037.14
695.18	3528.65
695.37	3839.94
695.55	3178.45
695.74	3237.84
695.92	3125.20
696.10	3504.07
696.29	2932.69
696.47	3137.49
696.66	2998.23
696.84	3053.52
697.03	3172.30
697.21	3344.33
697.40	4638.65
697.58	3442.64
697.76	3024.85
697.95	3016.66
698.13	3162.06
698.32	3164.11
698.50	3014.61
698.68	3186.64
698.87	3364.81
699.05	3631.05
699.24	3092.43
699.42	3078.10
699.61	3299.28
699.79	3289.04
699.97	3100.62
700.16	2942.93
700.34	3080.14
700.53	3264.46
700.71	3342.28
700.89	3149.78
701.08	3129.30
701.26	3221.45
701.45	3465.16
701.63	3018.71
701.81	3252.17
702.00	3074.00
702.18	3149.78
702.37	3057.62
702.55	3557.32
702.73	3362.76
702.92	3121.10
703.10	3459.02
703.28	3532.75
703.47	3164.11
703.65	3272.65
703.84	3303.37
704.02	3239.89
704.20	3592.14
704.39	3065.81
704.57	3067.86
704.75	3448.78
704.94	3409.87
705.12	3231.69
705.30	3895.24
705.49	8802.17
705.67	16969.47
705.86	23672.47
706.04	27014.76
706.22	29574.72
706.41	28788.30
706.59	21526.20
706.77	16617.22
706.96	14231.33
707.14	13215.54
707.32	11112.28
707.51	9877.35
707.69	8046.47
707.87	6774.68
708.06	5318.57
708.24	4503.48
708.42	4147.14
708.61	4179.90
708.79	3229.65
708.97	3207.12
709.16	3366.86
709.34	3393.48
709.52	3110.86
709.71	3160.02
709.89	3401.68
710.07	3135.44
710.26	2924.50
710.44	3217.36
710.62	3373.00
710.80	3237.84
710.99	3164.11
711.17	3262.41
711.35	3196.88
711.54	3131.34
711.72	3286.99
711.90	3143.63
712.09	3325.90
712.27	3153.87
712.45	3256.27
712.63	3102.67
712.82	3344.33
713.00	3284.94
713.18	3188.69
713.37	3295.18
713.55	3440.59
713.73	3344.33
713.91	3235.79
714.10	3131.34
714.28	3166.16
714.46	3278.80
714.65	3178.45
714.83	3123.15
715.01	3305.42
715.19	3336.14
715.38	3018.71
715.56	3241.93
715.74	3123.15
715.92	3088.34
716.11	3366.86
716.29	2803.67
716.47	3200.98
716.65	3293.13
716.84	2992.08
717.02	3123.15
717.20	3024.85
717.38	3098.58
717.57	3180.50
717.75	3102.67
717.93	3166.16
718.11	3442.64
718.30	2992.08
718.48	3123.15
718.66	3401.68
718.84	3553.23
719.03	3067.86
719.21	2928.60
719.39	3655.62
719.57	3385.29
719.75	3209.17
719.94	2967.51
720.12	3348.43
720.30	3340.24
720.48	3192.78
720.67	3067.86
720.85	3014.61
721.03	3227.60
721.21	3016.66
721.39	3239.89
721.58	3401.68
721.76	3190.74
721.94	3164.11
722.12	3205.07
722.30	3583.95
722.49	3147.73
722.67	3108.82
722.85	3065.81
723.03	3026.90
723.21	3217.36
723.40	3139.54
723.58	3248.08
723.76	3366.86
723.94	3618.76
724.12	3100.62
724.30	3352.52
724.49	3405.77
724.67	3106.77
724.85	3264.46
725.03	2979.79
725.21	3405.77
725.40	3573.71
725.58	3030.99
725.76	3325.90
725.94	3391.44
726.12	3157.97
726.30	3207.12
726.49	3061.71
726.67	3190.74
726.85	3418.06
727.03	4069.31
727.21	5590.95
727.39	7327.63
727.57	7899.02
727.76	8431.49
727.94	8335.23
728.12	7360.40
728.30	5986.21
728.48	5531.56
728.66	5093.30
728.84	4765.62
729.03	4138.94
729.21	3786.69
729.39	3526.60
729.57	3375.05
729.75	3459.02
729.93	3332.05
730.11	3018.71
730.30	3162.06
730.48	3213.26
730.66	3164.11
730.84	3166.16
731.02	3194.83
731.20	3114.96
731.38	3176.40
731.56	2971.60
731.74	3049.43
731.93	3305.42
732.11	3135.44
732.29	3106.77
732.47	3319.76
732.65	3346.38
732.83	3252.17
733.01	3135.44
733.19	3151.82
733.37	3389.39
733.56	3149.78
733.74	3028.95
733.92	3518.41
734.10	3215.31
734.28	3305.42
734.46	2879.44
734.64	3207.12
734.82	3217.36
735.00	3049.43
735.18	3100.62
735.36	3301.33
735.54	3213.26
735.73	3006.42
735.91	3246.03
736.09	3553.23
736.27	3188.69
736.45	3151.82
736.63	2811.86
736.81	3207.12
736.99	3508.17
737.17	3295.18
737.35	2992.08
737.53	3356.62
737.71	3180.50
737.89	3280.85
738.07	3010.51
738.25	3071.95
738.43	3006.42
738.61	3067.86
738.80	2983.89
738.98	3037.14
739.16	3205.07
739.34	2987.99
739.52	3440.59
739.70	3278.80
739.88	3426.25
740.06	3209.17
740.24	2805.72
740.42	3510.22
740.60	3045.33
740.78	3106.77
740.96	2832.34
741.14	3303.37
741.32	3344.33
741.50	2953.17
741.68	3348.43
741.86	3553.23
742.04	3012.56
742.22	3024.85
742.40	3047.38
742.58	3428.30
742.76	3063.76
742.94	3311.57
743.12	2934.74
743.30	3315.66
743.48	3373.00
743.66	2987.99
743.84	3065.81
744.02	3192.78
744.20	3270.61
744.38	3037.14
744.56	3059.67
744.74	3692.49
744.92	3502.03
745.10	3352.52
745.28	3121.10
745.46	3608.52
745.64	3188.69
745.82	3157.97
746.00	3020.75
746.18	3446.73
746.36	3096.53
746.54	3125.20
746.72	3074.00
746.90	3098.58
747.08	3426.25
747.26	3078.10
747.44	3172.30
747.62	3309.52
747.80	3295.18
747.98	3153.87
748.15	3035.09
748.33	3581.90
748.51	3346.38
748.69	3221.45
748.87	2992.08
749.05	3215.31
749.23	3123.15
749.41	3100.62
749.59	3108.82
749.77	3508.17
749.95	3266.51
750.13	3024.85
750.31	3303.37
750.49	3219.41
750.67	3493.83
750.85	3145.68
751.03	3151.82
751.20	3678.15
751.38	3272.65
751.56	3112.91
751.74	3084.24
751.92	3239.89
752.10	3063.76
752.28	3225.55
752.46	3076.05
752.64	3182.54
752.82	3215.31
753.00	3225.55
753.18	3074.00
753.35	3239.89
753.53	3289.04
753.71	3053.52
753.89	3157.97
754.07	3385.29
754.25	3485.64
754.43	3137.49
754.61	2959.31
754.79	3362.76
754.97	3147.73
755.14	3286.99
755.32	3024.85
755.50	3321.81
755.68	3246.03
755.86	2906.07
756.04	3037.14
756.22	2940.88
756.40	3364.81
756.57	3266.51
756.75	3010.51
756.93	3569.61
757.11	3450.83
757.29	3024.85
757.47	2983.89
757.65	3000.27
757.82	2836.44
758.00	3012.56
758.18	3049.43
758.36	3110.86
758.54	3647.43
758.72	2893.78
758.90	3172.30
759.07	3327.95
759.25	3102.67
759.43	3139.54
759.61	2967.51
759.79	4507.58
759.97	3493.83
760.15	3114.96
760.32	3008.47
760.50	3360.72
760.68	3614.66
760.86	2985.94
761.04	3379.15
761.22	3391.44
761.39	3278.80
761.57	3135.44
761.75	3147.73
761.93	3456.97
762.11	3295.18
762.28	3155.92
762.46	2910.16
762.64	3434.44
762.82	3051.47
763.00	3039.19
763.18	3297.23
763.35	2942.93
763.53	3340.24
763.71	3022.80
763.89	3102.67
764.07	3282.89
764.24	3254.22
764.42	3196.88
764.60	3092.43
764.78	3379.15
764.96	3368.91
765.13	3166.16
765.31	3041.23
765.49	3373.00
765.67	3043.28
765.84	3030.99
766.02	2971.60
766.20	2920.40
766.38	3311.57
766.56	3182.54
766.73	3190.74
766.91	3338.19
767.09	3303.37
767.27	3071.95
767.44	2977.75
767.62	3364.81
767.80	3327.95
767.98	3004.37
768.15	3153.87
768.33	3493.83
768.51	3479.50
768.69	3248.08
768.87	3084.24
769.04	3278.80
769.22	3887.04
769.40	3248.08
769.58	3239.89
769.75	3348.43
769.93	3569.61
770.11	3092.43
770.28	2977.75
770.46	3493.83
770.64	3321.81
770.82	3114.96
770.99	3024.85
771.17	3487.69
771.35	3166.16
771.53	3190.74
771.70	3123.15
771.88	3383.24
772.06	3301.33
772.23	3045.33
772.41	3180.50
772.59	3182.54
772.77	3123.15
772.94	3180.50
773.12	3164.11
773.30	3112.91
773.47	3377.10
773.65	2973.65
773.83	3192.78
774.01	3176.40
774.18	2897.88
774.36	3110.86
774.54	2926.55
774.71	3266.51
774.89	2996.18
775.07	2983.89
775.24	3076.05
775.42	3117.01
775.60	3571.66
775.78	3010.51
775.95	2865.11
776.13	2938.84
776.31	2885.59
776.48	3284.94
776.66	3286.99
776.84	3172.30
777.01	3069.91
777.19	2975.70
777.37	3043.28
777.54	3422.16
777.72	3643.34
777.90	3121.10
778.07	3110.86
778.25	3925.96
778.43	3469.26
778.60	3059.67
778.78	3182.54
778.96	3487.69
779.13	3100.62
779.31	3196.88
779.49	3147.73
779.66	3377.10
779.84	3194.83
780.01	2951.12
780.19	2996.18
780.37	3409.87
780.54	3440.59
780.72	3030.99
780.90	3106.77
781.07	3209.17
781.25	3133.39
781.43	3256.27
781.60	3090.38
781.78	3444.68
781.95	3395.53
782.13	3049.43
782.31	3129.30
782.48	2869.20
782.66	3266.51
782.83	3338.19
783.01	3217.36
783.19	3420.11
783.36	3262.41
783.54	2987.99
783.72	3172.30
783.89	3231.69
784.07	3274.70
784.24	3186.64
784.42	3278.80
784.60	3338.19
784.77	3395.53
784.95	2848.72
785.12	3008.47
785.30	3340.24
785.47	3098.58
785.65	2983.89
785.83	3086.29
786.00	3143.63
786.18	3231.69
786.35	2983.89
786.53	3045.33
786.71	3428.30
786.88	3350.48
787.06	3172.30
787.23	3114.96
787.41	3082.19
787.58	3319.76
787.76	2961.36
787.94	3117.01
788.11	3356.62
788.29	3059.67
788.46	3026.90
788.64	2910.16
788.81	3143.63
788.99	3053.52
789.16	2981.84
789.34	3110.86
789.52	3127.25
789.69	3147.73
789.87	2899.92
790.04	3094.48
790.22	3262.41
790.39	3749.83
790.57	2992.08
790.74	3024.85
790.92	3436.49
791.09	2926.55
791.27	3129.30
791.44	3192.78
791.62	3246.03
791.79	3420.11
791.97	3194.83
792.15	3391.44
792.32	3438.54
792.50	3452.88
792.67	3239.89
792.85	3346.38
793.02	3274.70
793.20	3172.30
793.37	2949.08
793.55	3024.85
793.72	3008.47
793.90	3358.67
794.07	3051.47
794.25	2953.17
794.42	3379.15
794.60	3254.22
794.77	3155.92
794.95	3205.07
795.12	3469.26
795.30	3205.07
795.47	2858.96
795.65	3418.06
795.82	3434.44
796.00	3178.45
796.17	3139.54
796.34	2949.08
796.52	3313.61
796.69	3526.60
796.87	3160.02
797.04	3102.67
797.22	3463.12
797.39	3336.14
797.57	3217.36
797.74	3092.43
797.92	3262.41
798.09	3174.35
798.27	3317.71
798.44	3055.57
798.62	3221.45
798.79	3237.84
798.96	3157.97
799.14	3008.47
799.31	3753.93
799.49	3229.65
799.66	3092.43
799.84	3117.01
800.01	2885.59
800.19	3338.19
800.36	2885.59
800.53	3119.06
800.71	3311.57
800.88	3592.14
801.06	2994.13
801.23	3045.33
801.41	3170.26
801.58	3090.38
801.75	3100.62
801.93	3092.43
802.10	3459.02
802.28	3211.22
802.45	3110.86
802.63	3121.10
802.80	3590.09
802.97	3176.40
803.15	3119.06
803.32	3065.81
803.50	3139.54
803.67	3162.06
803.84	3078.10
804.02	3221.45
804.19	3217.36
804.37	2852.82
804.54	2928.60
804.71	3053.52
804.89	3213.26
805.06	3098.58
805.24	3016.66
805.41	2959.31
805.58	3176.40
805.76	3729.35
805.93	3043.28
806.10	3225.55
806.28	3452.88
806.45	3278.80
806.63	3241.93
806.80	3164.11
806.97	3360.72
807.15	3299.28
807.32	3166.16
807.49	3117.01
807.67	3086.29
807.84	3321.81
808.01	2922.45
808.19	3233.74
808.36	3772.36
808.54	3205.07
808.71	3012.56
808.88	3123.15
809.06	3557.32
809.23	3637.19
809.40	3045.33
809.58	3053.52
809.75	3231.69
809.92	3065.81
810.10	3301.33
810.27	3071.95
810.44	3334.09
810.62	3413.96
810.79	3182.54
810.96	3065.81
811.14	3309.52
811.31	3420.11
811.48	3241.93
811.66	3141.58
811.83	3448.78
812.00	3362.76
812.18	3155.92
812.35	3342.28
812.52	3250.13
812.69	3164.11
812.87	3037.14
813.04	3051.47
813.21	3221.45
813.39	3141.58
813.56	2979.79
813.73	3284.94
813.91	3041.23
814.08	3264.46
814.25	2996.18
814.42	2893.78
814.60	3184.59
814.77	3327.95
814.94	2965.46
815.12	3123.15
815.29	3542.99
815.46	3117.01
815.63	3121.10
815.81	3117.01
815.98	3164.11
816.15	3200.98
816.33	3192.78
816.50	3139.54
816.67	3284.94
816.84	3237.84
817.02	2928.60
817.19	3137.49
817.36	3305.42
817.53	3252.17
817.71	2975.70
817.88	3176.40
818.05	3205.07
818.22	3166.16
818.40	3280.85
818.57	3047.38
818.74	3334.09
818.91	3258.32
819.09	3260.37
819.26	3231.69
819.43	3055.57
819.60	3125.20
819.78	3211.22
819.95	3192.78
820.12	3086.29
820.29	3569.61
820.47	3364.81
820.64	2959.31
820.81	3082.19
820.98	3106.77
821.15	3047.38
821.33	3143.63
821.50	2906.07
821.67	3403.72
821.84	3039.19
822.02	3074.00
822.19	3471.31
822.36	3221.45
822.53	2938.84
822.70	2951.12
822.88	3127.25
823.05	3688.39
823.22	3117.01
823.39	3108.82
823.56	3237.84
823.74	3581.90
823.91	2904.02
824.08	3010.51
824.25	3018.71
824.42	3528.65
824.60	2942.93
824.77	3139.54
824.94	3160.02
825.11	3385.29
825.28	2940.88
825.45	3182.54
825.63	3221.45
825.80	3074.00
825.97	3114.96
826.14	3059.67
826.31	3014.61
826.48	3354.57
826.66	3049.43
826.83	3065.81
827.00	3192.78
827.17	3049.43
827.34	3166.16
827.51	3028.95
827.69	3237.84
827.86	2930.64
828.03	3069.91
828.20	3082.19
828.37	3170.26
828.54	3334.09
828.71	3030.99
828.89	3215.31
829.06	3375.05
829.23	3540.94
829.40	3106.77
829.57	3037.14
829.74	3377.10
829.91	3088.34
830.09	2996.18
830.26	3198.93
830.43	3559.37
830.60	3147.73
830.77	3176.40
830.94	3203.02
831.11	3450.83
831.28	3260.37
831.46	3205.07
831.63	3092.43
831.80	3493.83
831.97	3125.20
832.14	3037.14
832.31	3063.76
832.48	3291.09
832.65	3483.59
832.82	3223.50
832.99	3100.62
833.17	2957.27
833.34	3524.55
833.51	3106.77
833.68	2856.92
833.85	3499.98
834.02	3055.57
834.19	3055.57
834.36	3008.47
834.53	3282.89
834.70	3411.92
834.87	3110.86
835.04	2734.04
835.22	3119.06
835.39	3139.54
835.56	2930.64
835.73	2920.40
835.90	3465.16
836.07	3063.76
836.24	3104.72
836.41	2955.22
836.58	3110.86
836.75	3502.03
836.92	2947.03
837.09	2877.40
837.26	3360.72
837.43	3305.42
837.60	2951.12
837.77	2975.70
837.94	3428.30
838.12	3506.12
838.29	2834.39
838.46	2779.09
838.63	3129.30
838.80	3540.94
838.97	2953.17
839.14	2854.87
839.31	3330.00
839.48	3377.10
839.65	2858.96
839.82	3088.34
839.99	3270.61
840.16	3258.32
840.33	2844.63
840.50	3008.47
840.67	3074.00
840.84	2744.28
841.01	2815.96
841.18	2949.08
841.35	3145.68
841.52	3393.48
841.69	3170.26
841.86	3061.71
842.03	3180.50
842.20	3475.40
842.37	2826.20
842.54	3008.47
842.71	3260.37
842.88	2942.93
843.05	2992.08
843.22	2836.44
843.39	3499.98
843.56	3176.40
843.73	2908.12
843.90	2899.92
844.07	3235.79
844.24	3428.30
844.41	2949.08
844.58	2985.94
844.75	3266.51
844.92	3346.38
845.09	2979.79
845.26	2942.93
845.43	3493.83
845.60	3078.10
845.77	3063.76
845.94	3002.32
846.10	3379.15
846.27	2944.98
846.44	2754.52
846.61	2799.57
846.78	3352.52
846.95	3407.82
847.12	2795.48
847.29	2955.22
847.46	3041.23
847.63	3403.72
847.80	2879.44
847.97	2932.69
848.14	3733.45
848.31	3198.93
848.48	2789.33
848.65	2815.96
848.82	3078.10
848.98	3796.93
849.15	2975.70
849.32	3106.77
849.49	3426.25
849.66	3231.69
849.83	2959.31
850.00	2889.68
850.17	3332.05
850.34	3145.68
850.51	2861.01
850.68	2916.31
850.85	3780.55
851.01	3356.62
851.18	2971.60
851.35	2990.03
851.52	3270.61
851.69	3540.94
851.86	2807.77
852.03	2908.12
852.20	3504.07
852.37	3229.65
852.53	2789.33
852.70	2791.38
852.87	3381.20
853.04	3438.54
853.21	2928.60
853.38	3157.97
853.55	3524.55
853.72	3516.36
853.89	2834.39
854.05	2955.22
854.22	3182.54
854.39	3129.30
854.56	2889.68
854.73	3024.85
854.90	3065.81
855.07	3155.92
855.23	2783.19
855.40	2904.02
855.57	3178.45
855.74	2846.68
855.91	3168.21
856.08	2752.47
856.25	2930.64
856.41	3069.91
856.58	2852.82
856.75	2877.40
856.92	2961.36
857.09	3409.87
857.26	2748.37
857.42	3039.19
857.59	3430.35
857.76	3143.63
857.93	2832.34
858.10	3008.47
858.27	3135.44
858.43	3246.03
858.60	2885.59
858.77	2807.77
858.94	3172.30
859.11	3418.06
859.27	3012.56
859.44	2865.11
859.61	3712.97
859.78	3401.68
859.95	2899.92
860.12	2844.63
860.28	3704.78
860.45	3618.76
860.62	2947.03
860.79	3000.27
860.95	3133.39
861.12	3090.38
861.29	2826.20
861.46	2858.96
861.63	3229.65
861.79	3319.76
861.96	2818.00
862.13	2908.12
862.30	3479.50
862.47	3160.02
862.63	2820.05
862.80	3051.47
862.97	3436.49
863.14	3311.57
863.30	2928.60
863.47	2918.36
863.64	3602.38
863.81	3323.85
863.97	2787.29
864.14	2934.74
864.31	3239.89
864.48	3286.99
864.65	2906.07
864.81	2996.18
864.98	3303.37
865.15	3428.30
865.32	3022.80
865.48	2975.70
865.65	3626.95
865.82	3149.78
865.98	3026.90
866.15	2912.21
866.32	3207.12
866.49	3160.02
866.65	3057.62
866.82	2926.55
866.99	3243.98
867.16	3172.30
867.32	2955.22
867.49	2846.68
867.66	3176.40
867.83	3160.02
867.99	2908.12
868.16	2951.12
868.33	3057.62
868.49	3205.07
868.66	2926.55
868.83	3028.95
868.99	3266.51
869.16	3295.18
869.33	3030.99
869.50	2996.18
869.66	3274.70
869.83	3254.22
870.00	2887.64
870.16	3063.76
870.33	3258.32
870.50	3475.40
870.66	3071.95
870.83	3024.85
871.00	3256.27
871.17	3413.96
871.33	3018.71
871.50	2904.02
871.67	3282.89
871.83	2979.79
872.00	3008.47
872.17	2947.03
872.33	3680.20
872.50	3448.78
872.67	2889.68
872.83	2942.93
873.00	3319.76
873.17	3303.37
873.33	2965.46
873.50	3020.75
873.67	3057.62
873.83	3117.01
874.00	2904.02
874.16	3100.62
874.33	3190.74
874.50	3049.43
874.66	2877.40
874.83	3063.76
875.00	3499.98
875.16	3387.34
875.33	3059.67
875.50	2727.89
875.66	3145.68
875.83	3303.37
875.99	3008.47
876.16	2959.31
876.33	3088.34
876.49	3274.70
876.66	2994.13
876.83	2983.89
876.99	2877.40
877.16	3248.08
877.32	2824.15
877.49	2951.12
877.66	3413.96
877.82	3495.88
877.99	2996.18
878.15	3160.02
878.32	3309.52
878.49	3325.90
878.65	2994.13
878.82	3209.17
878.98	3151.82
879.15	3459.02
879.32	3049.43
879.48	3143.63
879.65	3241.93
879.81	3174.35
879.98	2942.93
880.15	2961.36
880.31	3356.62
880.48	3149.78
880.64	3026.90
880.81	3071.95
880.97	3571.66
881.14	3489.74
881.31	2885.59
881.47	3069.91
881.64	3221.45
881.80	2930.64
881.97	3102.67
882.13	2899.92
882.30	3041.23
882.47	3098.58
882.63	2963.41
882.80	2944.98
882.96	3248.08
883.13	3477.45
883.29	2863.06
883.46	2824.15
883.62	3721.16
883.79	3286.99
883.95	3055.57
884.12	2938.84
884.29	3467.21
884.45	3309.52
884.62	2936.79
884.78	2861.01
884.95	3598.28
885.11	3028.95
885.28	3002.32
885.44	2951.12
885.61	3405.77
885.77	3551.18
885.94	3100.62
886.10	2992.08
886.27	3239.89
886.43	3606.47
886.60	3104.72
886.76	2965.46
886.93	3139.54
887.09	3258.32
887.26	2879.44
887.42	3000.27
887.59	3485.64
887.75	3790.79
887.92	3098.58
888.08	3016.66
888.25	3688.39
888.41	3416.01
888.58	3014.61
888.74	2803.67
888.91	3147.73
>>>>>End Processed Spectral Data<<<<<
