SpectraSuite Data File
++++++++++++++++++++++++++++++++++++
Date: Fri May 06 08:14:23 CEST 2016
User: root
Dark Spectrum Present: No
Reference Spectrum Present: No
Number of Sampled Component Spectra: 1
Spectrometers: USB4C02835
Integration Time (usec): 100000 (USB4C02835)
Spectra Averaged: 1 (USB4C02835)
Boxcar Smoothing: 0 (USB4C02835)
Correct for Electrical Dark: No (USB4C02835)
Strobe/Lamp Enabled: No (USB4C02835)
Correct for Detector Non-linearity: No (USB4C02835)
Correct for Stray Light: No (USB4C02835)
Number of Pixels in Processed Spectrum: 3648
>>>>>Begin Processed Spectral Data<<<<<
177.47	2244.57
177.69	2244.57
177.91	2244.57
178.13	2312.16
178.36	2250.72
178.58	2998.23
178.80	3065.81
179.02	3020.75
179.24	3102.67
179.46	2742.23
179.68	2928.60
179.90	3157.97
180.13	3344.33
180.35	2680.79
180.57	2775.00
180.79	3401.68
181.01	3178.45
181.23	2844.63
181.45	2971.60
181.67	3487.69
181.90	3461.07
182.12	2936.79
182.34	2658.26
182.56	3393.48
182.78	3440.59
183.00	2840.53
183.22	2834.39
183.44	2932.69
183.66	3788.74
183.89	2979.79
184.11	2938.84
184.33	3381.20
184.55	3469.26
184.77	2842.58
184.99	2893.78
185.21	3125.20
185.43	3782.60
185.65	2865.11
185.87	2811.86
186.10	3827.65
186.32	3846.09
186.54	2975.70
186.76	2963.41
186.98	3483.59
187.20	3278.80
187.42	2930.64
187.64	2807.77
187.86	3389.39
188.08	3592.14
188.30	2750.42
188.52	2926.55
188.75	3624.90
188.97	3565.51
189.19	2848.72
189.41	2818.00
189.63	3391.44
189.85	3221.45
190.07	2783.19
190.29	2766.81
190.51	3432.40
190.73	3039.19
190.95	3067.86
191.17	2887.64
191.39	2979.79
191.61	3227.60
191.84	2863.06
192.06	2994.13
192.28	2938.84
192.50	3954.63
192.72	3108.82
192.94	2901.97
193.16	3426.25
193.38	3418.06
193.60	2713.56
193.82	2994.13
194.04	3471.31
194.26	3319.76
194.48	2916.31
194.70	2854.87
194.92	3250.13
195.14	3416.01
195.36	2879.44
195.58	2967.51
195.80	3276.75
196.02	3200.98
196.24	2904.02
196.46	2990.03
196.69	3186.64
196.91	3839.94
197.13	2856.92
197.35	2854.87
197.57	3639.24
197.79	3338.19
198.01	2891.73
198.23	2873.30
198.45	3409.87
198.67	3016.66
198.89	2684.89
199.11	2906.07
199.33	3119.06
199.55	2869.20
199.77	2877.40
199.99	3012.56
200.21	3174.35
200.43	3362.76
200.65	2822.10
200.87	2654.17
201.09	3323.85
201.31	3141.58
201.53	2885.59
201.75	2979.79
201.97	3340.24
202.19	3317.71
202.41	2908.12
202.63	2940.88
202.85	3545.03
203.07	3223.50
203.29	2973.65
203.51	2836.44
203.73	3182.54
203.95	3827.65
204.17	2871.25
204.39	3030.99
204.61	3235.79
204.83	3225.55
205.05	3014.61
205.27	2916.31
205.49	3760.07
205.71	3203.02
205.93	2705.37
206.15	2746.33
206.37	3303.37
206.59	3250.13
206.81	2719.70
207.03	2787.29
207.25	3078.10
207.47	3450.83
207.69	2836.44
207.91	3041.23
208.13	3594.19
208.34	3133.39
208.56	2865.11
208.78	2963.41
209.00	3184.59
209.22	3229.65
209.44	2975.70
209.66	2738.13
209.88	3256.27
210.10	3246.03
210.32	2824.15
210.54	2944.98
210.76	3117.01
210.98	3434.44
211.20	2766.81
211.42	3008.47
211.64	3555.27
211.86	3305.42
212.08	2961.36
212.30	2883.54
212.52	3166.16
212.74	3350.48
212.96	2994.13
213.17	2973.65
213.39	3426.25
213.61	3598.28
213.83	2861.01
214.05	2752.47
214.27	3526.60
214.49	3176.40
214.71	2764.76
214.93	2983.89
215.15	3192.78
215.37	3448.78
215.59	2691.03
215.81	2938.84
216.03	3528.65
216.24	3217.36
216.46	2863.06
216.68	2875.35
216.90	3413.96
217.12	3467.21
217.34	2834.39
217.56	3012.56
217.78	3577.80
218.00	3403.72
218.22	3000.27
218.44	2985.94
218.66	3315.66
218.87	3631.05
219.09	2861.01
219.31	2910.16
219.53	3348.43
219.75	3168.21
219.97	2820.05
220.19	2852.82
220.41	3278.80
220.63	3573.71
220.85	2867.16
221.06	2895.83
221.28	3561.42
221.50	3420.11
221.72	2838.48
221.94	2746.33
222.16	3352.52
222.38	3409.87
222.60	2887.64
222.82	2912.21
223.03	3528.65
223.25	3155.92
223.47	2815.96
223.69	3051.47
223.91	3360.72
224.13	3317.71
224.35	2775.00
224.57	3067.86
224.78	3477.45
225.00	3098.58
225.22	2947.03
225.44	2846.68
225.66	3434.44
225.88	3291.09
226.10	3096.53
226.32	2852.82
226.53	3577.80
226.75	3135.44
226.97	2977.75
227.19	2820.05
227.41	3131.34
227.63	3213.26
227.85	2695.13
228.06	2918.36
228.28	3330.00
228.50	3416.01
228.72	2705.37
228.94	2797.53
229.16	2885.59
229.37	3037.14
229.59	2779.09
229.81	3123.15
230.03	3209.17
230.25	2959.31
230.47	2791.38
230.69	2830.29
230.90	3393.48
231.12	3135.44
231.34	2965.46
231.56	2920.40
231.78	3125.20
232.00	3248.08
232.21	2981.84
232.43	2944.98
232.65	2791.38
232.87	3291.09
233.09	2766.81
233.30	2852.82
233.52	3420.11
233.74	3305.42
233.96	2764.76
234.18	3100.62
234.40	3213.26
234.61	3815.37
234.83	2742.23
235.05	2811.86
235.27	3868.61
235.49	3547.08
235.70	2811.86
235.92	2885.59
236.14	3405.77
236.36	3803.08
236.58	2758.61
236.79	2899.92
237.01	3303.37
237.23	3307.47
237.45	3102.67
237.67	2992.08
237.88	3350.48
238.10	3727.30
238.32	2697.17
238.54	2893.78
238.76	3200.98
238.97	3117.01
239.19	2744.28
239.41	2947.03
239.63	3581.90
239.85	3225.55
240.06	2893.78
240.28	2873.30
240.50	3438.54
240.72	3293.13
240.93	2750.42
241.15	3024.85
241.37	3330.00
241.59	3596.23
241.81	2938.84
242.02	2967.51
242.24	3368.91
242.46	3502.03
242.68	2709.46
242.89	2811.86
243.11	3461.07
243.33	3178.45
243.55	2877.40
243.76	2815.96
243.98	3090.38
244.20	3231.69
244.42	2863.06
244.64	2838.48
244.85	3008.47
245.07	3053.52
245.29	2869.20
245.51	2912.21
245.72	3323.85
245.94	3428.30
246.16	2873.30
246.38	2938.84
246.59	3090.38
246.81	3076.05
247.03	2787.29
247.24	2699.22
247.46	3207.12
247.68	3368.91
247.90	2873.30
248.11	2887.64
248.33	3379.15
248.55	3266.51
248.77	2901.97
248.98	2957.27
249.20	3665.86
249.42	3272.65
249.64	2877.40
249.85	2820.05
250.07	3254.22
250.29	3436.49
250.50	2985.94
250.72	2781.14
250.94	3334.09
251.16	3796.93
251.37	2777.05
251.59	2965.46
251.81	3377.10
252.02	3592.14
252.24	2775.00
252.46	2942.93
252.68	3106.77
252.89	3137.49
253.11	2727.89
253.33	2971.60
253.54	3510.22
253.76	3059.67
253.98	2832.34
254.20	2895.83
254.41	3002.32
254.63	3211.22
254.85	2756.57
255.06	2918.36
255.28	3360.72
255.50	3225.55
255.71	2822.10
255.93	2660.31
256.15	3207.12
256.36	3348.43
256.58	2760.66
256.80	2807.77
257.02	3174.35
257.23	3182.54
257.45	2916.31
257.67	3024.85
257.88	3133.39
258.10	3352.52
258.32	2901.97
258.53	2955.22
258.75	3602.38
258.97	3198.93
259.18	2803.67
259.40	2813.91
259.62	3657.67
259.83	3542.99
260.05	2813.91
260.27	3766.21
260.48	3450.83
260.70	3104.72
260.92	2768.85
261.13	2869.20
261.35	3395.53
261.57	3311.57
261.78	2750.42
262.00	2795.48
262.22	3526.60
262.43	3090.38
262.65	2850.77
262.86	2934.74
263.08	3700.68
263.30	3293.13
263.51	2709.46
263.73	2844.63
263.95	3565.51
264.16	3096.53
264.38	2742.23
264.60	2830.29
264.81	3221.45
265.03	3459.02
265.25	3280.85
265.46	2836.44
265.68	3561.42
265.89	3397.58
266.11	2738.13
266.33	2854.87
266.54	3565.51
266.76	3323.85
266.98	2957.27
267.19	2967.51
267.41	3485.64
267.62	3239.89
267.84	2672.60
268.06	2973.65
268.27	3252.17
268.49	3477.45
268.70	2885.59
268.92	2842.58
269.14	3045.33
269.35	2922.45
269.57	2985.94
269.79	2842.58
270.00	3117.01
270.22	3600.33
270.43	2748.37
270.65	2676.70
270.87	3323.85
271.08	3495.88
271.30	2957.27
271.51	2887.64
271.73	3385.29
271.95	3516.36
272.16	2815.96
272.38	2977.75
272.59	3241.93
272.81	3467.21
273.02	2815.96
273.24	2889.68
273.46	3530.70
273.67	3139.54
273.89	2707.41
274.10	2807.77
274.32	3526.60
274.54	3282.89
274.75	2906.07
274.97	2992.08
275.18	3401.68
275.40	3368.91
275.61	2920.40
275.83	2994.13
276.05	3098.58
276.26	3334.09
276.48	3067.86
276.69	2959.31
276.91	3250.13
277.12	3532.75
277.34	3047.38
277.55	3094.48
277.77	3334.09
277.99	3270.61
278.20	2998.23
278.42	2889.68
278.63	3129.30
278.85	3102.67
279.06	2969.55
279.28	3057.62
279.49	3557.32
279.71	3463.12
279.93	3002.32
280.14	3065.81
280.36	3080.14
280.57	3497.93
280.79	3131.34
281.00	2856.92
281.22	3237.84
281.43	3489.74
281.65	2766.81
281.86	2875.35
282.08	3370.96
282.29	3676.10
282.51	2953.17
282.73	2897.88
282.94	2938.84
283.16	3479.50
283.37	3139.54
283.59	3074.00
283.80	3428.30
284.02	3280.85
284.23	3053.52
284.45	2961.36
284.66	3114.96
284.88	3250.13
285.09	2914.26
285.31	3123.15
285.52	3323.85
285.74	2944.98
285.95	3131.34
286.17	3098.58
286.38	3549.13
286.60	3131.34
286.81	2912.21
287.03	2940.88
287.24	3186.64
287.46	3381.20
287.67	3100.62
287.89	3258.32
288.10	3266.51
288.32	3336.14
288.53	3090.38
288.75	3045.33
288.96	3432.40
289.18	3153.87
289.39	2936.79
289.61	2967.51
289.82	3626.95
290.04	3733.45
290.25	2813.91
290.47	3037.14
290.68	3205.07
290.90	3473.36
291.11	2803.67
291.33	3176.40
291.54	3110.86
291.76	3164.11
291.97	3065.81
292.18	3119.06
292.40	3198.93
292.61	3106.77
292.83	3278.80
293.04	3016.66
293.26	3395.53
293.47	3264.46
293.69	3000.27
293.90	2938.84
294.12	3547.08
294.33	3280.85
294.55	3051.47
294.76	3135.44
294.97	3557.32
295.19	3731.40
295.40	3020.75
295.62	3080.14
295.83	3504.07
296.05	3100.62
296.26	3286.99
296.48	2959.31
296.69	3319.76
296.90	3295.18
297.12	3170.26
297.33	3141.58
297.55	3291.09
297.76	3401.68
297.98	3164.11
298.19	3157.97
298.41	3284.94
298.62	3033.04
298.83	3198.93
299.05	3098.58
299.26	3182.54
299.48	3133.39
299.69	3123.15
299.90	3010.51
300.12	3053.52
300.33	3422.16
300.55	3049.43
300.76	3078.10
300.98	3117.01
301.19	3413.96
301.40	2942.93
301.62	2994.13
301.83	3381.20
302.05	3346.38
302.26	3020.75
302.47	3102.67
302.69	3180.50
302.90	3268.56
303.12	2852.82
303.33	3149.78
303.54	3688.39
303.76	3176.40
303.97	2955.22
304.19	3178.45
304.40	3078.10
304.61	3348.43
304.83	3131.34
305.04	3035.09
305.26	3454.92
305.47	3160.02
305.68	2959.31
305.90	2879.44
306.11	3514.31
306.33	3227.60
306.54	2822.10
306.75	2893.78
306.97	3010.51
307.18	3139.54
307.39	2979.79
307.61	3018.71
307.82	3239.89
308.04	3338.19
308.25	2840.53
308.46	3147.73
308.68	3250.13
308.89	3172.30
309.10	3127.25
309.32	3033.04
309.53	3295.18
309.74	3364.81
309.96	2934.74
310.17	3164.11
310.39	3248.08
310.60	3370.96
310.81	3078.10
311.03	2926.55
311.24	3413.96
311.45	3286.99
311.67	3217.36
311.88	3078.10
312.09	3217.36
312.31	3215.31
312.52	2895.83
312.73	2985.94
312.95	3069.91
313.16	3108.82
313.37	3123.15
313.59	3168.21
313.80	3405.77
314.01	3571.66
314.23	3039.19
314.44	2967.51
314.65	3082.19
314.87	3157.97
315.08	3000.27
315.29	3037.14
315.51	3057.62
315.72	3037.14
315.93	3069.91
316.15	2990.03
316.36	3137.49
316.57	3248.08
316.79	2987.99
317.00	2944.98
317.21	3405.77
317.43	3137.49
317.64	3071.95
317.85	2901.97
318.07	3145.68
318.28	3114.96
318.49	3129.30
318.70	3246.03
318.92	3246.03
319.13	3430.35
319.34	3162.06
319.56	2981.84
319.77	3397.58
319.98	3463.12
320.20	3229.65
320.41	3229.65
320.62	3360.72
320.83	3092.43
321.05	3266.51
321.26	3024.85
321.47	3330.00
321.69	3499.98
321.90	2947.03
322.11	2992.08
322.32	3338.19
322.54	3641.29
322.75	3016.66
322.96	4036.55
323.18	3035.09
323.39	2944.98
323.60	2963.41
323.81	3127.25
324.03	3119.06
324.24	3340.24
324.45	3112.91
324.66	2926.55
324.88	3418.06
325.09	3598.28
325.30	3041.23
325.52	2867.16
325.73	3309.52
325.94	3098.58
326.15	2901.97
326.37	2904.02
326.58	3461.07
326.79	3559.37
327.00	2938.84
327.22	2977.75
327.43	3135.44
327.64	3080.14
327.85	3131.34
328.07	3004.37
328.28	3622.86
328.49	3241.93
328.70	2957.27
328.92	2977.75
329.13	3196.88
329.34	3379.15
329.55	3256.27
329.76	3123.15
329.98	3209.17
330.19	3469.26
330.40	3047.38
330.61	3215.31
330.83	3491.79
331.04	3082.19
331.25	3121.10
331.46	3104.72
331.68	3041.23
331.89	3422.16
332.10	2979.79
332.31	2848.72
332.52	3270.61
332.74	3522.51
332.95	2754.52
333.16	2928.60
333.37	3340.24
333.58	3110.86
333.80	2963.41
334.01	2863.06
334.22	3209.17
334.43	3024.85
334.64	2873.30
334.86	2936.79
335.07	3055.57
335.28	3614.66
335.49	2938.84
335.70	3090.38
335.92	3631.05
336.13	3764.17
336.34	3043.28
336.55	3047.38
336.76	3327.95
336.98	2889.68
337.19	3065.81
337.40	3121.10
337.61	3880.90
337.82	3248.08
338.04	3108.82
338.25	2828.24
338.46	3223.50
338.67	3291.09
338.88	2863.06
339.09	2828.24
339.31	3133.39
339.52	2973.65
339.73	2916.31
339.94	3055.57
340.15	3422.16
340.36	3198.93
340.58	3065.81
340.79	2928.60
341.00	3442.64
341.21	3024.85
341.42	3239.89
341.63	3012.56
341.85	3461.07
342.06	3393.48
342.27	2942.93
342.48	3119.06
342.69	3008.47
342.90	3319.76
343.12	3424.20
343.33	2861.01
343.54	3471.31
343.75	3590.09
343.96	3160.02
344.17	2910.16
344.38	3225.55
344.60	3186.64
344.81	2955.22
345.02	2994.13
345.23	3526.60
345.44	3801.03
345.65	3000.27
345.86	3129.30
346.07	3250.13
346.29	3112.91
346.50	3139.54
346.71	3108.82
346.92	3590.09
347.13	3694.54
347.34	3121.10
347.55	2848.72
347.76	3370.96
347.98	2990.03
348.19	3002.32
348.40	3207.12
348.61	3231.69
348.82	3672.01
349.03	3057.62
349.24	2854.87
349.45	3702.73
349.66	2869.20
349.88	3016.66
350.09	2861.01
350.30	3583.95
350.51	3540.94
350.72	3190.74
350.93	2963.41
351.14	3129.30
351.35	3321.81
351.56	3074.00
351.77	3127.25
351.99	3373.00
352.20	3510.22
352.41	3117.01
352.62	2873.30
352.83	3282.89
353.04	3256.27
353.25	3000.27
353.46	2969.55
353.67	3512.27
353.88	2899.92
354.09	2914.26
354.30	3119.06
354.52	3405.77
354.73	3284.94
354.94	2955.22
355.15	3049.43
355.36	3729.35
355.57	3145.68
355.78	2926.55
355.99	3000.27
356.20	3157.97
356.41	3475.40
356.62	3090.38
356.83	3065.81
357.04	3454.92
357.25	2944.98
357.46	2940.88
357.68	2861.01
357.89	3129.30
358.10	3254.22
358.31	3010.51
358.52	2992.08
358.73	3092.43
358.94	3014.61
359.15	2969.55
359.36	2992.08
359.57	3303.37
359.78	3286.99
359.99	3180.50
360.20	2918.36
360.41	3268.56
360.62	3348.43
360.83	3137.49
361.04	3110.86
361.25	3368.91
361.46	3557.32
361.67	3155.92
361.88	3049.43
362.09	3389.39
362.30	3338.19
362.51	2938.84
362.72	3028.95
362.93	3481.55
363.14	3418.06
363.35	3053.52
363.56	2938.84
363.78	3522.51
363.99	3520.46
364.20	2963.41
364.41	3059.67
364.62	3581.90
364.83	3336.14
365.04	2908.12
365.25	3041.23
365.46	3704.78
365.67	3110.86
365.88	3112.91
366.09	2967.51
366.30	3213.26
366.51	3256.27
366.72	2963.41
366.93	2965.46
367.14	3373.00
367.35	3497.93
367.56	2981.84
367.77	3211.22
367.98	3346.38
368.18	3327.95
368.39	3117.01
368.60	2949.08
368.81	3473.36
369.02	3325.90
369.23	3065.81
369.44	2869.20
369.65	3176.40
369.86	3416.01
370.07	3114.96
370.28	2944.98
370.49	3354.57
370.70	3274.70
370.91	2928.60
371.12	2881.49
371.33	3557.32
371.54	3147.73
371.75	3162.06
371.96	2789.33
372.17	3330.00
372.38	3221.45
372.59	3071.95
372.80	2949.08
373.01	3276.75
373.22	3311.57
373.43	2987.99
373.64	2809.81
373.85	3510.22
374.06	3620.81
374.26	3184.59
374.47	3121.10
374.68	3622.86
374.89	3401.68
375.10	2987.99
375.31	3117.01
375.52	3227.60
375.73	3266.51
375.94	2830.29
376.15	3096.53
376.36	3168.21
376.57	3237.84
376.78	3047.38
376.99	3086.29
377.20	3626.95
377.40	3162.06
377.61	3321.81
377.82	2926.55
378.03	3565.51
378.24	3350.48
378.45	3121.10
378.66	3088.34
378.87	3033.04
379.08	3012.56
379.29	2987.99
379.50	3149.78
379.71	3219.41
379.91	3393.48
380.12	3053.52
380.33	3135.44
380.54	3217.36
380.75	3254.22
380.96	2959.31
381.17	3055.57
381.38	3205.07
381.59	3305.42
381.80	3035.09
382.00	3188.69
382.21	3344.33
382.42	3604.42
382.63	3426.25
382.84	3114.96
383.05	3428.30
383.26	3526.60
383.47	3119.06
383.68	3035.09
383.88	3446.73
384.09	3272.65
384.30	3258.32
384.51	3123.15
384.72	3147.73
384.93	3030.99
385.14	3063.76
385.35	3340.24
385.55	2973.65
385.76	3542.99
385.97	2963.41
386.18	2899.92
386.39	3114.96
386.60	3215.31
386.81	2983.89
387.02	2901.97
387.22	3035.09
387.43	3364.81
387.64	3090.38
387.85	3373.00
388.06	3282.89
388.27	4345.79
388.48	7755.66
388.68	11984.71
388.89	15189.78
389.10	16582.40
389.31	16051.98
389.52	12908.35
389.73	11247.44
389.93	10458.98
390.14	9129.84
390.35	8574.85
390.56	7925.64
390.77	6553.50
390.98	5109.68
391.18	4184.00
391.39	3930.05
391.60	3346.38
391.81	3315.66
392.02	3028.95
392.23	3782.60
392.43	3403.72
392.64	3086.29
392.85	3168.21
393.06	3594.19
393.27	3303.37
393.47	3028.95
393.68	3088.34
393.89	3264.46
394.10	3516.36
394.31	3030.99
394.52	2969.55
394.72	3153.87
394.93	3532.75
395.14	2840.53
395.35	3133.39
395.56	3147.73
395.76	3297.23
395.97	3059.67
396.18	3248.08
396.39	3250.13
396.60	3999.68
396.80	3487.69
397.01	3291.09
397.22	3502.03
397.43	3524.55
397.64	2992.08
397.84	3194.83
398.05	3602.38
398.26	3209.17
398.47	3143.63
398.67	3237.84
398.88	3219.41
399.09	3348.43
399.30	2998.23
399.51	3102.67
399.71	3041.23
399.92	3291.09
400.13	3133.39
400.34	3043.28
400.54	3360.72
400.75	3538.89
400.96	3174.35
401.17	3348.43
401.37	3428.30
401.58	3160.02
401.79	3000.27
402.00	3149.78
402.21	3766.21
402.41	3542.99
402.62	3375.05
402.83	3540.94
403.04	3659.72
403.24	4124.61
403.45	3160.02
403.66	3348.43
403.87	3524.55
404.07	3635.14
404.28	3282.89
404.49	3360.72
404.70	3387.34
404.90	3426.25
405.11	2979.79
405.32	3057.62
405.52	3170.26
405.73	3182.54
405.94	2926.55
406.15	3092.43
406.35	3387.34
406.56	3508.17
406.77	3086.29
406.98	3012.56
407.18	3131.34
407.39	3508.17
407.60	3067.86
407.80	3145.68
408.01	3164.11
408.22	3459.02
408.43	2990.03
408.63	3188.69
408.84	3360.72
409.05	3508.17
409.25	3047.38
409.46	3039.19
409.67	3241.93
409.88	3080.14
410.08	3080.14
410.29	2994.13
410.50	3438.54
410.70	3428.30
410.91	2906.07
411.12	3022.80
411.32	3254.22
411.53	3100.62
411.74	3006.42
411.95	3125.20
412.15	3305.42
412.36	3461.07
412.57	3274.70
412.77	3180.50
412.98	3289.04
413.19	3131.34
413.39	3168.21
413.60	3098.58
413.81	3620.81
414.01	3123.15
414.22	3078.10
414.43	3311.57
414.63	3276.75
414.84	3409.87
415.05	3102.67
415.25	2918.36
415.46	3463.12
415.67	3078.10
415.87	3149.78
416.08	3000.27
416.29	3213.26
416.49	3450.83
416.70	3045.33
416.91	3088.34
417.11	3123.15
417.32	3579.85
417.53	3198.93
417.73	3110.86
417.94	3166.16
418.15	3360.72
418.35	3096.53
418.56	3076.05
418.77	3762.12
418.97	3336.14
419.18	3166.16
419.38	2715.61
419.59	3274.70
419.80	3581.90
420.00	3012.56
420.21	2992.08
420.42	3559.37
420.62	3420.11
420.83	3096.53
421.04	3092.43
421.24	3205.07
421.45	3454.92
421.65	3069.91
421.86	3086.29
422.07	3483.59
422.27	3344.33
422.48	2951.12
422.69	2865.11
422.89	3211.22
423.10	3219.41
423.30	3061.71
423.51	3018.71
423.72	3373.00
423.92	3459.02
424.13	2944.98
424.33	3157.97
424.54	3428.30
424.75	3360.72
424.95	3254.22
425.16	2942.93
425.36	3200.98
425.57	3467.21
425.78	3172.30
425.98	3123.15
426.19	3225.55
426.39	3041.23
426.60	3098.58
426.81	3155.92
427.01	3389.39
427.22	3125.20
427.42	2885.59
427.63	2938.84
427.83	3471.31
428.04	3629.00
428.25	3104.72
428.45	3170.26
428.66	3499.98
428.86	3231.69
429.07	3110.86
429.28	3057.62
429.48	3274.70
429.69	3094.48
429.89	3166.16
430.10	2983.89
430.30	3364.81
430.51	3418.06
430.71	2992.08
430.92	3092.43
431.13	3172.30
431.33	3383.24
431.54	3131.34
431.74	3278.80
431.95	3782.60
432.15	3160.02
432.36	3090.38
432.56	3082.19
432.77	3688.39
432.98	3674.06
433.18	3069.91
433.39	3041.23
433.59	3266.51
433.80	3743.69
434.00	3241.93
434.21	3100.62
434.41	3121.10
434.62	3702.73
434.82	2910.16
435.03	2961.36
435.23	3401.68
435.44	2844.63
435.64	3020.75
435.85	3145.68
436.06	3499.98
436.26	3477.45
436.47	3059.67
436.67	2992.08
436.88	3221.45
437.08	3495.88
437.29	3182.54
437.49	3233.74
437.70	3581.90
437.90	3334.09
438.11	3219.41
438.31	3110.86
438.52	3518.41
438.72	3510.22
438.93	3393.48
439.13	3151.82
439.34	3444.68
439.54	3166.16
439.75	3221.45
439.95	3139.54
440.16	3102.67
440.36	3354.57
440.57	3098.58
440.77	3037.14
440.98	3276.75
441.18	3354.57
441.39	2914.26
441.59	2942.93
441.80	3663.82
442.00	3243.98
442.21	3180.50
442.41	2922.45
442.62	3512.27
442.82	3123.15
443.02	3014.61
443.23	3076.05
443.43	3190.74
443.64	3520.46
443.84	2971.60
444.05	3141.58
444.25	3383.24
444.46	3321.81
444.66	3074.00
444.87	3368.91
445.07	2983.89
445.28	3307.47
445.48	3209.17
445.69	3127.25
445.89	3755.97
446.09	3196.88
446.30	3426.25
446.50	3432.40
446.71	4960.18
446.91	6338.46
447.12	7221.14
447.32	7724.94
447.53	7645.07
447.73	6420.38
447.93	5506.99
448.14	5334.96
448.34	5312.43
448.55	4532.15
448.75	4595.64
448.96	4249.54
449.16	4143.04
449.36	3854.28
449.57	3243.98
449.77	3139.54
449.98	3151.82
450.18	3432.40
450.39	2992.08
450.59	3246.03
450.79	3231.69
451.00	3049.43
451.20	3319.76
451.41	3080.14
451.61	3352.52
451.81	3239.89
452.02	3051.47
452.22	3033.04
452.43	3094.48
452.63	3112.91
452.84	3143.63
453.04	3033.04
453.24	3258.32
453.45	3268.56
453.65	3141.58
453.86	3010.51
454.06	3305.42
454.26	3336.14
454.47	2971.60
454.67	3213.26
454.87	3268.56
455.08	3217.36
455.28	3137.49
455.49	3231.69
455.69	3045.33
455.89	3684.30
456.10	3180.50
456.30	3006.42
456.51	3338.19
456.71	3319.76
456.91	3282.89
457.12	3076.05
457.32	3297.23
457.52	3028.95
457.73	3215.31
457.93	3200.98
458.14	3172.30
458.34	3014.61
458.54	3106.77
458.75	3057.62
458.95	3557.32
459.15	3430.35
459.36	3088.34
459.56	3012.56
459.76	3835.85
459.97	3321.81
460.17	3086.29
460.37	3076.05
460.58	3297.23
460.78	3442.64
460.99	3106.77
461.19	3045.33
461.39	3215.31
461.60	3172.30
461.80	3114.96
462.00	2930.64
462.21	3303.37
462.41	3200.98
462.61	2959.31
462.82	2826.20
463.02	3246.03
463.22	3325.90
463.43	3100.62
463.63	2928.60
463.83	3647.43
464.04	3330.00
464.24	3004.37
464.44	3024.85
464.64	3241.93
464.85	3373.00
465.05	3121.10
465.25	2959.31
465.46	3176.40
465.66	3370.96
465.86	3147.73
466.07	3074.00
466.27	3213.26
466.47	3069.91
466.68	2969.55
466.88	3117.01
467.08	3373.00
467.29	3481.55
467.49	3030.99
467.69	3117.01
467.89	3327.95
468.10	3209.17
468.30	3188.69
468.50	3131.34
468.71	3438.54
468.91	2942.93
469.11	3313.61
469.31	3176.40
469.52	2992.08
469.72	3622.86
469.92	3276.75
470.13	3024.85
470.33	3227.60
470.53	3303.37
470.73	3489.74
470.94	3831.75
471.14	4089.79
471.34	4818.87
471.54	4362.17
471.75	4085.70
471.95	3823.56
472.15	3844.04
472.36	3731.40
472.56	3555.27
472.76	3913.67
472.96	3727.30
473.17	3360.72
473.37	3293.13
473.57	3209.17
473.77	3323.85
473.98	3160.02
474.18	2998.23
474.38	3917.76
474.58	3289.04
474.79	2936.79
474.99	3180.50
475.19	3467.21
475.39	3059.67
475.60	3143.63
475.80	2977.75
476.00	3352.52
476.20	3289.04
476.41	3141.58
476.61	3153.87
476.81	3594.19
477.01	3168.21
477.21	3291.09
477.42	3243.98
477.62	3086.29
477.82	3383.24
478.02	2977.75
478.23	3119.06
478.43	3143.63
478.63	3176.40
478.83	3082.19
479.03	3117.01
479.24	3661.77
479.44	3780.55
479.64	2996.18
479.84	2910.16
480.04	3129.30
480.25	3434.44
480.45	2961.36
480.65	3000.27
480.85	3647.43
481.06	3213.26
481.26	3131.34
481.46	3082.19
481.66	3330.00
481.86	3086.29
482.06	3213.26
482.27	3059.67
482.47	3176.40
482.67	3385.29
482.87	3139.54
483.07	3155.92
483.28	3096.53
483.48	3074.00
483.68	3059.67
483.88	2985.94
484.08	2965.46
484.29	3071.95
484.49	3114.96
484.69	2901.97
484.89	3540.94
485.09	3491.79
485.29	3084.24
485.50	3184.59
485.70	3157.97
485.90	3534.79
486.10	3131.34
486.30	2967.51
486.50	3502.03
486.71	3389.39
486.91	3215.31
487.11	3133.39
487.31	3010.51
487.51	3450.83
487.71	2983.89
487.91	2942.93
488.12	3186.64
488.32	2875.35
488.52	3061.71
488.72	2813.91
488.92	3325.90
489.12	3499.98
489.32	3174.35
489.53	3141.58
489.73	3037.14
489.93	3684.30
490.13	3098.58
490.33	2889.68
490.53	3321.81
490.73	3534.79
490.94	2897.88
491.14	3168.21
491.34	3446.73
491.54	3420.11
491.74	3979.20
491.94	4575.16
492.14	5117.87
492.34	5179.31
492.54	4794.29
492.75	4108.23
492.95	4370.37
493.15	4036.55
493.35	3758.02
493.55	3708.87
493.75	3684.30
493.95	3788.74
494.15	3368.91
494.35	3200.98
494.56	3317.71
494.76	3157.97
494.96	3266.51
495.16	3084.24
495.36	3260.37
495.56	3299.28
495.76	3117.01
495.96	3057.62
496.16	3231.69
496.36	3672.01
496.56	2992.08
496.77	3092.43
496.97	3284.94
497.17	3610.57
497.37	2842.58
497.57	3106.77
497.77	3258.32
497.97	3157.97
498.17	3067.86
498.37	3074.00
498.57	3370.96
498.77	3182.54
498.97	3295.18
499.17	3454.92
499.38	3268.56
499.58	3413.96
499.78	3198.93
499.98	3280.85
500.18	3184.59
500.38	3176.40
500.58	3237.84
500.78	3692.49
500.98	6172.58
501.18	8087.43
501.38	9797.48
501.58	10970.97
501.78	10860.38
501.98	9047.93
502.18	7585.68
502.38	6645.66
502.58	6543.26
502.78	5660.59
502.98	5416.88
503.18	5222.32
503.38	4976.56
503.59	4100.03
503.79	4059.07
503.99	3676.10
504.19	3868.61
504.39	3862.47
504.59	3635.14
504.79	3704.78
504.99	4065.22
505.19	3485.64
505.39	3291.09
505.59	3481.55
505.79	3669.96
505.99	3504.07
506.19	3233.74
506.39	3342.28
506.59	3176.40
506.79	3334.09
506.99	3297.23
507.19	3119.06
507.39	3373.00
507.59	3043.28
507.79	3106.77
507.99	2959.31
508.19	3420.11
508.39	3188.69
508.59	3082.19
508.79	3119.06
508.99	3758.02
509.19	3112.91
509.39	3076.05
509.59	3006.42
509.79	3106.77
509.99	3395.53
510.19	3237.84
510.39	3215.31
510.59	3307.47
510.79	3180.50
510.99	2934.74
511.19	3037.14
511.39	3590.09
511.59	3444.68
511.79	3239.89
511.99	2985.94
512.19	3622.86
512.38	3215.31
512.58	2985.94
512.78	3010.51
512.98	3567.56
513.18	3614.66
513.38	2994.13
513.58	3174.35
513.78	3213.26
513.98	3225.55
514.18	3137.49
514.38	3065.81
514.58	3248.08
514.78	3157.97
514.98	2889.68
515.18	3035.09
515.38	3033.04
515.58	3817.41
515.78	3065.81
515.98	3141.58
516.18	3379.15
516.38	3317.71
516.57	3035.09
516.77	2979.79
516.97	3379.15
517.17	3080.14
517.37	2785.24
517.57	3086.29
517.77	3334.09
517.97	3143.63
518.17	3145.68
518.37	2871.25
518.57	3200.98
518.77	3192.78
518.97	3100.62
519.16	3037.14
519.36	3461.07
519.56	3123.15
519.76	3004.37
519.96	3098.58
520.16	3604.42
520.36	3082.19
520.56	3207.12
520.76	3076.05
520.96	3143.63
521.16	3493.83
521.35	3289.04
521.55	3295.18
521.75	3217.36
521.95	3164.11
522.15	3098.58
522.35	2893.78
522.55	3090.38
522.75	3485.64
522.95	2983.89
523.14	2899.92
523.34	3178.45
523.54	3145.68
523.74	3180.50
523.94	3092.43
524.14	2969.55
524.34	3336.14
524.54	3248.08
524.73	3114.96
524.93	3467.21
525.13	3237.84
525.33	3002.32
525.53	3323.85
525.73	3557.32
525.93	3233.74
526.13	3047.38
526.32	3000.27
526.52	3508.17
526.72	3387.34
526.92	3082.19
527.12	3033.04
527.32	2955.22
527.52	3370.96
527.71	3117.01
527.91	3104.72
528.11	3170.26
528.31	3258.32
528.51	3035.09
528.71	3200.98
528.90	3325.90
529.10	3504.07
529.30	3147.73
529.50	2762.71
529.70	3332.05
529.90	3225.55
530.09	3092.43
530.29	2895.83
530.49	3192.78
530.69	3882.95
530.89	3155.92
531.09	3170.26
531.28	3102.67
531.48	3563.47
531.68	3080.14
531.88	3166.16
532.08	3516.36
532.28	3221.45
532.47	3119.06
532.67	3114.96
532.87	3377.10
533.07	3129.30
533.27	3043.28
533.46	3117.01
533.66	3373.00
533.86	3215.31
534.06	3180.50
534.26	3020.75
534.45	3155.92
534.65	3381.20
534.85	3160.02
535.05	3020.75
535.25	3416.01
535.44	2951.12
535.64	3166.16
535.84	3043.28
536.04	3106.77
536.24	3119.06
536.43	3016.66
536.63	3026.90
536.83	3317.71
537.03	3233.74
537.22	2910.16
537.42	2940.88
537.62	3407.82
537.82	3137.49
538.02	3178.45
538.21	3147.73
538.41	3846.09
538.61	3454.92
538.81	3133.39
539.00	3168.21
539.20	2936.79
539.40	3186.64
539.60	3082.19
539.79	3211.22
539.99	3350.48
540.19	3155.92
540.39	2985.94
540.58	3100.62
540.78	3545.03
540.98	3289.04
541.18	3272.65
541.37	3065.81
541.57	3252.17
541.77	3303.37
541.97	2926.55
542.16	2926.55
542.36	3243.98
542.56	3096.53
542.76	3194.83
542.95	3188.69
543.15	3383.24
543.35	3426.25
543.54	2916.31
543.74	3016.66
543.94	3602.38
544.14	3123.15
544.33	3231.69
544.53	3065.81
544.73	3250.13
544.93	3227.60
545.12	3002.32
545.32	3102.67
545.52	3301.33
545.71	2965.46
545.91	3082.19
546.11	3004.37
546.30	3080.14
546.50	3262.41
546.70	3114.96
546.90	3094.48
547.09	2928.60
547.29	3297.23
547.49	3196.88
547.68	3086.29
547.88	3102.67
548.08	3362.76
548.27	3348.43
548.47	2975.70
548.67	3151.82
548.87	3364.81
549.06	3041.23
549.26	2938.84
549.46	3311.57
549.65	3188.69
549.85	3008.47
550.05	3114.96
550.24	3051.47
550.44	3223.50
550.64	3188.69
550.83	3125.20
551.03	3600.33
551.23	3459.02
551.42	3160.02
551.62	3123.15
551.82	3332.05
552.01	3217.36
552.21	3403.72
552.41	3155.92
552.60	3610.57
552.80	3362.76
553.00	2971.60
553.19	3076.05
553.39	3684.30
553.59	3065.81
553.78	3225.55
553.98	3043.28
554.17	3102.67
554.37	3377.10
554.57	3166.16
554.76	2942.93
554.96	3213.26
555.16	3266.51
555.35	3151.82
555.55	3166.16
555.75	3336.14
555.94	3340.24
556.14	2904.02
556.33	3155.92
556.53	3266.51
556.73	3286.99
556.92	3061.71
557.12	3065.81
557.32	3643.34
557.51	3567.56
557.71	3151.82
557.90	3151.82
558.10	3510.22
558.30	3260.37
558.49	3160.02
558.69	3045.33
558.88	3387.34
559.08	3373.00
559.28	3114.96
559.47	3080.14
559.67	3387.34
559.86	3768.26
560.06	3090.38
560.26	3104.72
560.45	3319.76
560.65	3227.60
560.84	3321.81
561.04	2906.07
561.24	3461.07
561.43	3041.23
561.63	3241.93
561.82	3264.46
562.02	3448.78
562.22	3188.69
562.41	2928.60
562.61	3041.23
562.80	3069.91
563.00	3784.65
563.19	3233.74
563.39	3139.54
563.59	3381.20
563.78	3094.48
563.98	2858.96
564.17	2975.70
564.37	2990.03
564.56	3262.41
564.76	2930.64
564.96	3133.39
565.15	3395.53
565.35	3778.50
565.54	3147.73
565.74	3176.40
565.93	3401.68
566.13	3221.45
566.32	3135.44
566.52	3147.73
566.71	3303.37
566.91	3499.98
567.11	3241.93
567.30	2959.31
567.50	3432.40
567.69	3426.25
567.89	3035.09
568.08	2961.36
568.28	3303.37
568.47	3047.38
568.67	3069.91
568.86	3098.58
569.06	3428.30
569.25	3262.41
569.45	2938.84
569.64	3102.67
569.84	3243.98
570.04	3270.61
570.23	3094.48
570.43	3123.15
570.62	3299.28
570.82	3659.72
571.01	2951.12
571.21	3084.24
571.40	3100.62
571.60	3475.40
571.79	3184.59
571.99	3112.91
572.18	3090.38
572.38	3344.33
572.57	3114.96
572.77	3078.10
572.96	3899.33
573.16	3381.20
573.35	3137.49
573.55	3205.07
573.74	3332.05
573.94	3215.31
574.13	3037.14
574.33	3194.83
574.52	3559.37
574.71	3246.03
574.91	3229.65
575.10	2936.79
575.30	3155.92
575.49	3063.76
575.69	2879.44
575.88	3127.25
576.08	3293.13
576.27	3489.74
576.47	3008.47
576.66	3256.27
576.86	3411.92
577.05	3391.44
577.25	3160.02
577.44	3268.56
577.64	3188.69
577.83	3491.79
578.02	3059.67
578.22	3190.74
578.41	3626.95
578.61	3239.89
578.80	2961.36
579.00	3174.35
579.19	3293.13
579.39	3389.39
579.58	3155.92
579.77	3155.92
579.97	3577.80
580.16	3430.35
580.36	3209.17
580.55	3098.58
580.75	3268.56
580.94	3346.38
581.13	3205.07
581.33	3317.71
581.52	3268.56
581.72	3684.30
581.91	3133.39
582.11	3074.00
582.30	3442.64
582.49	3264.46
582.69	3301.33
582.88	3063.76
583.08	3348.43
583.27	3399.63
583.47	3301.33
583.66	3117.01
583.85	3137.49
584.05	3239.89
584.24	3180.50
584.44	3129.30
584.63	3559.37
584.82	3526.60
585.02	3327.95
585.21	3196.88
585.41	3389.39
585.60	3284.94
585.79	3336.14
585.99	3428.30
586.18	3254.22
586.37	4140.99
586.57	6490.01
586.76	17811.18
586.96	37416.39
587.15	51168.50
587.34	59360.37
587.54	63810.61
587.73	56454.31
587.93	40869.26
588.12	31450.66
588.31	25818.74
588.51	22906.53
588.70	21087.93
588.89	18517.73
589.09	15855.37
589.28	13735.73
589.47	10596.19
589.67	8286.08
589.86	6389.66
590.06	5164.98
590.25	4571.07
590.44	3889.09
590.64	3551.18
590.83	3555.27
591.02	3567.56
591.22	3051.47
591.41	3125.20
591.60	3274.70
591.80	3805.13
591.99	2990.03
592.18	3084.24
592.38	3497.93
592.57	3149.78
592.76	3067.86
592.96	3233.74
593.15	3274.70
593.34	3483.59
593.54	3104.72
593.73	3145.68
593.92	3436.49
594.12	3360.72
594.31	3100.62
594.50	3297.23
594.70	3444.68
594.89	3725.26
595.08	2961.36
595.28	3209.17
595.47	3964.87
595.66	3508.17
595.86	2979.79
596.05	2994.13
596.24	3133.39
596.43	3631.05
596.63	3157.97
596.82	3231.69
597.01	3411.92
597.21	3655.62
597.40	3039.19
597.59	3188.69
597.79	3286.99
597.98	3434.44
598.17	3162.06
598.36	3092.43
598.56	3436.49
598.75	3114.96
598.94	3180.50
599.14	3102.67
599.33	3190.74
599.52	3459.02
599.71	3178.45
599.91	3104.72
600.10	3348.43
600.29	3401.68
600.48	3147.73
600.68	3155.92
600.87	3364.81
601.06	3131.34
601.26	3114.96
601.45	3321.81
601.64	3166.16
601.83	3680.20
602.03	2959.31
602.22	2981.84
602.41	3524.55
602.60	3778.50
602.80	3155.92
602.99	3278.80
603.18	3123.15
603.37	3274.70
603.57	3080.14
603.76	3037.14
603.95	3510.22
604.14	3164.11
604.34	3069.91
604.53	3061.71
604.72	3358.67
604.91	3446.73
605.10	3098.58
605.30	2908.12
605.49	3819.46
605.68	3442.64
605.87	3082.19
606.07	3061.71
606.26	3303.37
606.45	3332.05
606.64	3174.35
606.84	2985.94
607.03	3280.85
607.22	3479.50
607.41	3149.78
607.60	3080.14
607.80	3469.26
607.99	3198.93
608.18	3194.83
608.37	3104.72
608.56	3147.73
608.76	3442.64
608.95	3229.65
609.14	3078.10
609.33	3387.34
609.52	3573.71
609.72	3229.65
609.91	3295.18
610.10	3284.94
610.29	3629.00
610.48	3215.31
610.68	3190.74
610.87	3170.26
611.06	3403.72
611.25	3125.20
611.44	3229.65
611.63	3215.31
611.83	3612.62
612.02	3051.47
612.21	3205.07
612.40	2951.12
612.59	2987.99
612.79	2983.89
612.98	3043.28
613.17	3542.99
613.36	3276.75
613.55	3237.84
613.74	3106.77
613.93	3368.91
614.13	3475.40
614.32	3373.00
614.51	3157.97
614.70	3278.80
614.89	3305.42
615.08	3241.93
615.28	3377.10
615.47	3106.77
615.66	3358.67
615.85	3110.86
616.04	3106.77
616.23	3327.95
616.42	3221.45
616.62	3076.05
616.81	3123.15
617.00	3313.61
617.19	3383.24
617.38	3110.86
617.57	3213.26
617.76	3426.25
617.95	3409.87
618.15	3174.35
618.34	3284.94
618.53	3018.71
618.72	3465.16
618.91	3211.22
619.10	3190.74
619.29	3264.46
619.48	3243.98
619.68	3024.85
619.87	3051.47
620.06	3018.71
620.25	3348.43
620.44	3123.15
620.63	3030.99
620.82	3364.81
621.01	3256.27
621.20	3084.24
621.39	3149.78
621.59	3405.77
621.78	3319.76
621.97	3008.47
622.16	3180.50
622.35	3360.72
622.54	3401.68
622.73	3147.73
622.92	2848.72
623.11	3450.83
623.30	3110.86
623.49	3164.11
623.68	2979.79
623.88	3493.83
624.07	3135.44
624.26	2959.31
624.45	3063.76
624.64	3225.55
624.83	3348.43
625.02	3055.57
625.21	3131.34
625.40	3295.18
625.59	3538.89
625.78	3157.97
625.97	3153.87
626.16	3598.28
626.35	3411.92
626.54	3182.54
626.74	3280.85
626.93	3235.79
627.12	3205.07
627.31	3170.26
627.50	3098.58
627.69	3422.16
627.88	3127.25
628.07	2969.55
628.26	2938.84
628.45	3090.38
628.64	3139.54
628.83	3045.33
629.02	2959.31
629.21	3487.69
629.40	3313.61
629.59	2990.03
629.78	3069.91
629.97	3336.14
630.16	3327.95
630.35	2998.23
630.54	3198.93
630.73	3106.77
630.92	3241.93
631.11	2969.55
631.30	3110.86
631.49	3389.39
631.68	3145.68
631.87	3100.62
632.06	2897.88
632.25	3651.53
632.44	3338.19
632.63	3049.43
632.82	3121.10
633.01	3196.88
633.20	3297.23
633.39	3078.10
633.58	2922.45
633.77	3330.00
633.96	3473.36
634.15	3270.61
634.34	3110.86
634.53	3379.15
634.72	3139.54
634.91	2938.84
635.10	3039.19
635.29	3403.72
635.48	3321.81
635.67	2951.12
635.86	2924.50
636.05	3526.60
636.24	3221.45
636.43	3082.19
636.62	3227.60
636.81	2723.80
637.00	3313.61
637.19	3145.68
637.38	3028.95
637.57	3155.92
637.76	3237.84
637.95	3297.23
638.14	3139.54
638.33	3368.91
638.52	3325.90
638.71	2947.03
638.89	2992.08
639.08	3786.69
639.27	3399.63
639.46	3368.91
639.65	3647.43
639.84	3852.23
640.03	4048.83
640.22	3715.02
640.41	3487.69
640.60	3418.06
640.79	3499.98
640.98	3250.13
641.17	3418.06
641.36	3409.87
641.55	3471.31
641.74	2979.79
641.92	3022.80
642.11	3143.63
642.30	3213.26
642.49	3053.52
642.68	3057.62
642.87	3389.39
643.06	3436.49
643.25	2959.31
643.44	2996.18
643.63	3223.50
643.82	3346.38
644.00	2961.36
644.19	3129.30
644.38	3018.71
644.57	3409.87
644.76	3139.54
644.95	3143.63
645.14	3289.04
645.33	3229.65
645.52	3121.10
645.71	2949.08
645.89	3059.67
646.08	3270.61
646.27	3125.20
646.46	3301.33
646.65	3022.80
646.84	3330.00
647.03	3090.38
647.22	3213.26
647.40	3305.42
647.59	3141.58
647.78	2963.41
647.97	2969.55
648.16	3164.11
648.35	3585.99
648.54	3340.24
648.73	3022.80
648.91	3493.83
649.10	3315.66
649.29	3004.37
649.48	3043.28
649.67	3295.18
649.86	3370.96
650.05	3151.82
650.23	3342.28
650.42	3164.11
650.61	3600.33
650.80	3311.57
650.99	3366.86
651.18	3524.55
651.36	3520.46
651.55	3059.67
651.74	3272.65
651.93	3213.26
652.12	3299.28
652.31	3069.91
652.49	3141.58
652.68	3168.21
652.87	3547.08
653.06	3160.02
653.25	3280.85
653.44	3284.94
653.62	3639.24
653.81	3155.92
654.00	3125.20
654.19	3456.97
654.38	3688.39
654.56	3133.39
654.75	2975.70
654.94	3395.53
655.13	3258.32
655.32	3069.91
655.51	3211.22
655.69	3182.54
655.88	3377.10
656.07	2899.92
656.26	3082.19
656.45	3002.32
656.63	3295.18
656.82	3055.57
657.01	3358.67
657.20	3090.38
657.38	3657.67
657.57	3012.56
657.76	2871.25
657.95	3393.48
658.14	3188.69
658.32	3225.55
658.51	2949.08
658.70	3286.99
658.89	3364.81
659.08	3114.96
659.26	3219.41
659.45	3112.91
659.64	3389.39
659.83	3047.38
660.01	3436.49
660.20	3348.43
660.39	3516.36
660.58	2844.63
660.76	3188.69
660.95	3000.27
661.14	3252.17
661.33	2856.92
661.51	3018.71
661.70	3215.31
661.89	3346.38
662.08	3157.97
662.26	2918.36
662.45	3002.32
662.64	3629.00
662.83	3039.19
663.01	2963.41
663.20	3080.14
663.39	3530.70
663.58	3117.01
663.76	3018.71
663.95	3444.68
664.14	3078.10
664.32	3086.29
664.51	2967.51
664.70	2924.50
664.89	3389.39
665.07	2944.98
665.26	3243.98
665.45	3043.28
665.64	3319.76
665.82	3172.30
666.01	3207.12
666.20	3033.04
666.38	3442.64
666.57	3373.00
666.76	5525.42
666.95	13008.70
667.13	20371.15
667.32	24956.55
667.51	28194.39
667.69	29046.34
667.88	24356.49
668.07	17579.76
668.25	14821.15
668.44	12719.93
668.63	11210.58
668.81	9690.99
669.00	8482.69
669.19	7645.07
669.38	6809.50
669.56	5638.06
669.75	5015.48
669.94	4360.13
670.12	3819.46
670.31	3483.59
670.50	3430.35
670.68	3454.92
670.87	3362.76
671.06	3039.19
671.24	3200.98
671.43	3551.18
671.62	3309.52
671.80	3114.96
671.99	3215.31
672.18	3258.32
672.36	3567.56
672.55	3162.06
672.74	3147.73
672.92	3205.07
673.11	3362.76
673.29	2916.31
673.48	3295.18
673.67	3235.79
673.85	3600.33
674.04	2975.70
674.23	3149.78
674.41	3624.90
674.60	3071.95
674.79	2875.35
674.97	2910.16
675.16	3432.40
675.34	3446.73
675.53	3018.71
675.72	3178.45
675.90	3647.43
676.09	3243.98
676.28	3196.88
676.46	2938.84
676.65	3299.28
676.83	3078.10
677.02	3041.23
677.21	3141.58
677.39	3227.60
677.58	3149.78
677.77	3131.34
677.95	3012.56
678.14	3141.58
678.32	3299.28
678.51	3106.77
678.70	3442.64
678.88	3221.45
679.07	3291.09
679.25	2992.08
679.44	3117.01
679.63	3041.23
679.81	3260.37
680.00	3297.23
680.18	3153.87
680.37	3602.38
680.55	3250.13
680.74	2934.74
680.93	2797.53
681.11	3270.61
681.30	3332.05
681.48	3092.43
681.67	3114.96
681.85	3264.46
682.04	3094.48
682.23	3233.74
682.41	3248.08
682.60	3180.50
682.78	3221.45
682.97	3020.75
683.15	3164.11
683.34	3403.72
683.53	3565.51
683.71	2979.79
683.90	3119.06
684.08	3616.71
684.27	3280.85
684.45	3182.54
684.64	3250.13
684.82	3282.89
685.01	3403.72
685.19	3090.38
685.38	3360.72
685.57	3393.48
685.75	3055.57
685.94	3051.47
686.12	2977.75
686.31	3149.78
686.49	3563.47
686.68	2877.40
686.86	3094.48
687.05	3168.21
687.23	3545.03
687.42	3082.19
687.60	2920.40
687.79	3379.15
687.97	3581.90
688.16	3219.41
688.34	3217.36
688.53	2955.22
688.71	3362.76
688.90	3360.72
689.08	3084.24
689.27	2938.84
689.45	3477.45
689.64	3209.17
689.82	3141.58
690.01	3303.37
690.19	3397.58
690.38	3192.78
690.56	3192.78
690.75	3129.30
690.93	3098.58
691.12	3045.33
691.30	3074.00
691.49	3207.12
691.67	3370.96
691.86	3385.29
692.04	3194.83
692.23	3276.75
692.41	3280.85
692.60	3471.31
692.78	3389.39
692.97	3309.52
693.15	3418.06
693.34	3213.26
693.52	3295.18
693.71	3229.65
693.89	3190.74
694.08	2983.89
694.26	3125.20
694.44	3381.20
694.63	3393.48
694.81	2957.27
695.00	3143.63
695.18	3516.36
695.37	3839.94
695.55	3192.78
695.74	3176.40
695.92	3100.62
696.10	3549.13
696.29	3000.27
696.47	3127.25
696.66	3080.14
696.84	3092.43
697.03	3102.67
697.21	3315.66
697.40	4691.90
697.58	3422.16
697.76	3045.33
697.95	3045.33
698.13	3065.81
698.32	3137.49
698.50	3110.86
698.68	3110.86
698.87	3379.15
699.05	3626.95
699.24	3119.06
699.42	3112.91
699.61	3356.62
699.79	3319.76
699.97	3045.33
700.16	2918.36
700.34	3071.95
700.53	3397.58
700.71	3293.13
700.89	3205.07
701.08	3225.55
701.26	3258.32
701.45	3426.25
701.63	3069.91
701.81	3176.40
702.00	3082.19
702.18	3221.45
702.37	3080.14
702.55	3549.13
702.73	3428.30
702.92	3119.06
703.10	3336.14
703.28	3473.36
703.47	3069.91
703.65	3340.24
703.84	3137.49
704.02	3149.78
704.20	3555.27
704.39	3018.71
704.57	3041.23
704.75	3393.48
704.94	3397.58
705.12	3282.89
705.30	3973.06
705.49	8503.17
705.67	16951.04
705.86	23656.09
706.04	26793.58
706.22	29972.02
706.41	28577.36
706.59	21378.75
706.77	16774.91
706.96	14604.07
707.14	13154.10
707.32	11173.72
707.51	9785.19
707.69	7884.68
707.87	6657.95
708.06	5152.69
708.24	4536.25
708.42	4016.07
708.61	4157.38
708.79	3229.65
708.97	3254.22
709.16	3370.96
709.34	3262.41
709.52	3149.78
709.71	3186.64
709.89	3407.82
710.07	3088.34
710.26	2996.18
710.44	3110.86
710.62	3540.94
710.80	3272.65
710.99	3252.17
711.17	3213.26
711.35	3155.92
711.54	3264.46
711.72	3266.51
711.90	3135.44
712.09	3401.68
712.27	3188.69
712.45	3237.84
712.63	3098.58
712.82	3278.80
713.00	3303.37
713.18	3260.37
713.37	3235.79
713.55	3495.88
713.73	3420.11
713.91	3196.88
714.10	3141.58
714.28	3278.80
714.46	3295.18
714.65	3182.54
714.83	3164.11
715.01	3330.00
715.19	3274.70
715.38	2996.18
715.56	3174.35
715.74	3076.05
715.92	3188.69
716.11	3364.81
716.29	2906.07
716.47	3280.85
716.65	3192.78
716.84	2938.84
717.02	3141.58
717.20	2961.36
717.38	3041.23
717.57	3291.09
717.75	3110.86
717.93	3209.17
718.11	3385.29
718.30	3035.09
718.48	3198.93
718.66	3520.46
718.84	3516.36
719.03	3074.00
719.21	2910.16
719.39	3588.04
719.57	3399.63
719.75	3184.59
719.94	3024.85
720.12	3280.85
720.30	3352.52
720.48	3139.54
720.67	3090.38
720.85	3037.14
721.03	3225.55
721.21	3119.06
721.39	3172.30
721.58	3379.15
721.76	3262.41
721.94	3090.38
722.12	3205.07
722.30	3579.85
722.49	3108.82
722.67	3119.06
722.85	3123.15
723.03	2996.18
723.21	3164.11
723.40	3176.40
723.58	3289.04
723.76	3432.40
723.94	3540.94
724.12	3088.34
724.30	3405.77
724.49	3483.59
724.67	3110.86
724.85	3260.37
725.03	2944.98
725.21	3418.06
725.40	3483.59
725.58	3147.73
725.76	3393.48
725.94	3397.58
726.12	3153.87
726.30	3137.49
726.49	3162.06
726.67	3123.15
726.85	3428.30
727.03	4022.21
727.21	5539.76
727.39	7227.28
727.57	7776.14
727.76	8464.25
727.94	8281.99
728.12	7239.57
728.30	5969.83
728.48	5509.04
728.66	5115.83
728.84	4876.21
729.03	4147.14
729.21	3743.69
729.39	3602.38
729.57	3399.63
729.75	3289.04
729.93	3393.48
730.11	3114.96
730.30	3229.65
730.48	3223.50
730.66	3143.63
730.84	3141.58
731.02	3233.74
731.20	3123.15
731.38	3160.02
731.56	2959.31
731.74	3020.75
731.93	3389.39
732.11	3155.92
732.29	3098.58
732.47	3393.48
732.65	3364.81
732.83	3299.28
733.01	3170.26
733.19	3119.06
733.37	3416.01
733.56	3182.54
733.74	2922.45
733.92	3594.19
734.10	3184.59
734.28	3256.27
734.46	2875.35
734.64	3233.74
734.82	3274.70
735.00	3074.00
735.18	3033.04
735.36	3227.60
735.54	3231.69
735.73	3090.38
735.91	3268.56
736.09	3585.99
736.27	3360.72
736.45	3168.21
736.63	2824.15
736.81	3143.63
736.99	3418.06
737.17	3344.33
737.35	3033.04
737.53	3403.72
737.71	3176.40
737.89	3258.32
738.07	3117.01
738.25	3074.00
738.43	3016.66
738.61	3149.78
738.80	2942.93
738.98	2998.23
739.16	3162.06
739.34	3004.37
739.52	3401.68
739.70	3225.55
739.88	3381.20
740.06	3225.55
740.24	2822.10
740.42	3475.40
740.60	2934.74
740.78	2981.84
740.96	2842.58
741.14	3215.31
741.32	3381.20
741.50	2877.40
741.68	3327.95
741.86	3639.24
742.04	2934.74
742.22	2987.99
742.40	3162.06
742.58	3446.73
742.76	3157.97
742.94	3295.18
743.12	2910.16
743.30	3307.47
743.48	3356.62
743.66	2983.89
743.84	3131.34
744.02	3262.41
744.20	3262.41
744.38	3008.47
744.56	3117.01
744.74	3528.65
744.92	3491.79
745.10	3262.41
745.28	3139.54
745.46	3583.95
745.64	3252.17
745.82	3205.07
746.00	3000.27
746.18	3309.52
746.36	3020.75
746.54	3200.98
746.72	3196.88
746.90	3112.91
747.08	3559.37
747.26	3004.37
747.44	3252.17
747.62	3354.57
747.80	3262.41
747.98	3145.68
748.15	3151.82
748.33	3633.10
748.51	3252.17
748.69	3237.84
748.87	3014.61
749.05	3293.13
749.23	3260.37
749.41	3123.15
749.59	2957.27
749.77	3452.88
749.95	3223.50
750.13	3026.90
750.31	3207.12
750.49	3188.69
750.67	3346.38
750.85	3211.22
751.03	3114.96
751.20	3710.92
751.38	3254.22
751.56	3123.15
751.74	3114.96
751.92	3192.78
752.10	3039.19
752.28	3180.50
752.46	3024.85
752.64	3289.04
752.82	3223.50
753.00	3194.83
753.18	3051.47
753.35	3174.35
753.53	3313.61
753.71	3020.75
753.89	3133.39
754.07	3303.37
754.25	3438.54
754.43	3149.78
754.61	2969.55
754.79	3319.76
754.97	3297.23
755.14	3246.03
755.32	2944.98
755.50	3282.89
755.68	3393.48
755.86	3045.33
756.04	2983.89
756.22	2889.68
756.40	3428.30
756.57	3252.17
756.75	3094.48
756.93	3467.21
757.11	3436.49
757.29	3002.32
757.47	3057.62
757.65	2985.94
757.82	2881.49
758.00	2969.55
758.18	3045.33
758.36	3135.44
758.54	3614.66
758.72	2942.93
758.90	3211.22
759.07	3336.14
759.25	3014.61
759.43	3176.40
759.61	2953.17
759.79	4468.67
759.97	3403.72
760.15	3137.49
760.32	3049.43
760.50	3313.61
760.68	3672.01
760.86	2938.84
761.04	3223.50
761.22	3485.64
761.39	3256.27
761.57	3190.74
761.75	3098.58
761.93	3366.86
762.11	3221.45
762.28	3233.74
762.46	2949.08
762.64	3506.12
762.82	2918.36
763.00	3051.47
763.18	3344.33
763.35	3008.47
763.53	3405.77
763.71	3117.01
763.89	2994.13
764.07	3248.08
764.24	3274.70
764.42	3200.98
764.60	3168.21
764.78	3389.39
764.96	3418.06
765.13	3258.32
765.31	2969.55
765.49	3409.87
765.67	3057.62
765.84	3051.47
766.02	2934.74
766.20	2983.89
766.38	3350.48
766.56	3221.45
766.73	3172.30
766.91	3190.74
767.09	3321.81
767.27	3145.68
767.44	2996.18
767.62	3375.05
767.80	3280.85
767.98	3065.81
768.15	3143.63
768.33	3340.24
768.51	3450.83
768.69	3260.37
768.87	3139.54
769.04	3356.62
769.22	3747.78
769.40	3272.65
769.58	3221.45
769.75	3340.24
769.93	3524.55
770.11	3039.19
770.28	2969.55
770.46	3477.45
770.64	3313.61
770.82	3055.57
770.99	2981.84
771.17	3444.68
771.35	3258.32
771.53	3182.54
771.70	3053.52
771.88	3334.09
772.06	3229.65
772.23	3028.95
772.41	3123.15
772.59	3160.02
772.77	3086.29
772.94	3184.59
773.12	3172.30
773.30	3180.50
773.47	3264.46
773.65	3033.04
773.83	3231.69
774.01	3280.85
774.18	2934.74
774.36	3170.26
774.54	2936.79
774.71	3373.00
774.89	2920.40
775.07	2963.41
775.24	3078.10
775.42	3180.50
775.60	3641.29
775.78	2983.89
775.95	2871.25
776.13	2953.17
776.31	2938.84
776.48	3217.36
776.66	3311.57
776.84	3196.88
777.01	3114.96
777.19	2967.51
777.37	3012.56
777.54	3401.68
777.72	3680.20
777.90	3225.55
778.07	2981.84
778.25	3968.96
778.43	3485.64
778.60	3028.95
778.78	3123.15
778.96	3565.51
779.13	3053.52
779.31	3180.50
779.49	3205.07
779.66	3260.37
779.84	3229.65
780.01	2975.70
780.19	3008.47
780.37	3547.08
780.54	3360.72
780.72	2951.12
780.90	3065.81
781.07	3282.89
781.25	3174.35
781.43	3305.42
781.60	3074.00
781.78	3534.79
781.95	3272.65
782.13	3088.34
782.31	3076.05
782.48	2932.69
782.66	3235.79
782.83	3354.57
783.01	3286.99
783.19	3483.59
783.36	3215.31
783.54	2979.79
783.72	3180.50
783.89	3184.59
784.07	3305.42
784.24	3229.65
784.42	3274.70
784.60	3434.44
784.77	3303.37
784.95	2820.05
785.12	3121.10
785.30	3344.33
785.47	3086.29
785.65	2906.07
785.83	3092.43
786.00	3182.54
786.18	3295.18
786.35	2996.18
786.53	3106.77
786.71	3481.55
786.88	3323.85
787.06	3192.78
787.23	3061.71
787.41	3018.71
787.58	3200.98
787.76	2930.64
787.94	3121.10
788.11	3266.51
788.29	2940.88
788.46	3170.26
788.64	2918.36
788.81	3149.78
788.99	3049.43
789.16	3024.85
789.34	3143.63
789.52	3155.92
789.69	3248.08
789.87	2844.63
790.04	3080.14
790.22	3280.85
790.39	3696.58
790.57	2992.08
790.74	3057.62
790.92	3379.15
791.09	2944.98
791.27	3190.74
791.44	3125.20
791.62	3196.88
791.79	3311.57
791.97	3256.27
792.15	3395.53
792.32	3411.92
792.50	3401.68
792.67	3223.50
792.85	3315.66
793.02	3268.56
793.20	3235.79
793.37	3026.90
793.55	3008.47
793.72	2961.36
793.90	3356.62
794.07	2998.23
794.25	3033.04
794.42	3346.38
794.60	3198.93
794.77	3078.10
794.95	3215.31
795.12	3467.21
795.30	3215.31
795.47	2842.58
795.65	3442.64
795.82	3389.39
796.00	3088.34
796.17	3221.45
796.34	2910.16
796.52	3352.52
796.69	3362.76
796.87	3180.50
797.04	3203.02
797.22	3442.64
797.39	3301.33
797.57	3327.95
797.74	3209.17
797.92	3289.04
798.09	3067.86
798.27	3450.83
798.44	3047.38
798.62	3151.82
798.79	3311.57
798.96	3100.62
799.14	3074.00
799.31	3770.31
799.49	3213.26
799.66	3069.91
799.84	3135.44
800.01	2975.70
800.19	3360.72
800.36	2846.68
800.53	3078.10
800.71	3270.61
800.88	3526.60
801.06	2994.13
801.23	3033.04
801.41	3286.99
801.58	3180.50
801.75	3067.86
801.93	3172.30
802.10	3385.29
802.28	3239.89
802.45	3084.24
802.63	3074.00
802.80	3579.85
802.97	3217.36
803.15	3137.49
803.32	3063.76
803.50	3082.19
803.67	3051.47
803.84	3010.51
804.02	3157.97
804.19	3252.17
804.37	2734.04
804.54	2971.60
804.71	2967.51
804.89	3237.84
805.06	3080.14
805.24	2930.64
805.41	2971.60
805.58	3112.91
805.76	3747.78
805.93	3045.33
806.10	3246.03
806.28	3346.38
806.45	3295.18
806.63	3233.74
806.80	3112.91
806.97	3272.65
807.15	3303.37
807.32	3108.82
807.49	3061.71
807.67	3100.62
807.84	3370.96
808.01	2924.50
808.19	3237.84
808.36	3755.97
808.54	3071.95
808.71	3035.09
808.88	3033.04
809.06	3475.40
809.23	3592.14
809.40	3100.62
809.58	3018.71
809.75	3278.80
809.92	3069.91
810.10	3352.52
810.27	3141.58
810.44	3330.00
810.62	3389.39
810.79	3129.30
810.96	3112.91
811.14	3123.15
811.31	3409.87
811.48	3235.79
811.66	3176.40
811.83	3538.89
812.00	3342.28
812.18	3157.97
812.35	3387.34
812.52	3229.65
812.69	3198.93
812.87	3024.85
813.04	3028.95
813.21	3286.99
813.39	3100.62
813.56	3010.51
813.73	3299.28
813.91	2985.94
814.08	3321.81
814.25	3071.95
814.42	2947.03
814.60	3157.97
814.77	3280.85
814.94	3061.71
815.12	3215.31
815.29	3571.66
815.46	3133.39
815.63	3098.58
815.81	3041.23
815.98	3219.41
816.15	3250.13
816.33	3119.06
816.50	3037.14
816.67	3297.23
816.84	3258.32
817.02	2942.93
817.19	3012.56
817.36	3307.47
817.53	3332.05
817.71	2944.98
817.88	3090.38
818.05	3262.41
818.22	3155.92
818.40	3229.65
818.57	3082.19
818.74	3385.29
818.91	3258.32
819.09	3272.65
819.26	3209.17
819.43	3147.73
819.60	3071.95
819.78	3229.65
819.95	3160.02
820.12	3069.91
820.29	3598.28
820.47	3338.19
820.64	2973.65
820.81	3041.23
820.98	3086.29
821.15	3133.39
821.33	3205.07
821.50	2938.84
821.67	3336.14
821.84	3063.76
822.02	3092.43
822.19	3379.15
822.36	3155.92
822.53	3061.71
822.70	2959.31
822.88	3205.07
823.05	3551.18
823.22	3123.15
823.39	3100.62
823.56	3215.31
823.74	3633.10
823.91	2973.65
824.08	3014.61
824.25	3086.29
824.42	3540.94
824.60	2910.16
824.77	3231.69
824.94	3129.30
825.11	3346.38
825.28	2930.64
825.45	3180.50
825.63	3233.74
825.80	3082.19
825.97	3143.63
826.14	3121.10
826.31	2928.60
826.48	3340.24
826.66	3063.76
826.83	3004.37
827.00	3180.50
827.17	3076.05
827.34	3061.71
827.51	2959.31
827.69	3254.22
827.86	2959.31
828.03	3139.54
828.20	3086.29
828.37	3123.15
828.54	3356.62
828.71	3026.90
828.89	3196.88
829.06	3338.19
829.23	3491.79
829.40	3026.90
829.57	3033.04
829.74	3366.86
829.91	3076.05
830.09	2928.60
830.26	3172.30
830.43	3573.71
830.60	3272.65
830.77	3155.92
830.94	3268.56
831.11	3385.29
831.28	3160.02
831.46	3207.12
831.63	3016.66
831.80	3409.87
831.97	3176.40
832.14	3125.20
832.31	3074.00
832.48	3246.03
832.65	3344.33
832.82	3194.83
832.99	3092.43
833.17	3033.04
833.34	3536.84
833.51	3053.52
833.68	2848.72
833.85	3411.92
834.02	2987.99
834.19	3043.28
834.36	2967.51
834.53	3330.00
834.70	3422.16
834.87	3092.43
835.04	2738.13
835.22	3094.48
835.39	3164.11
835.56	2926.55
835.73	2934.74
835.90	3542.99
836.07	3063.76
836.24	3059.67
836.41	2969.55
836.58	3108.82
836.75	3416.01
836.92	2856.92
837.09	2865.11
837.26	3442.64
837.43	3313.61
837.60	2953.17
837.77	2906.07
837.94	3454.92
838.12	3430.35
838.29	2828.24
838.46	2783.19
838.63	2949.08
838.80	3532.75
838.97	2942.93
839.14	2928.60
839.31	3237.84
839.48	3377.10
839.65	2893.78
839.82	2979.79
839.99	3399.63
840.16	3321.81
840.33	2924.50
840.50	2996.18
840.67	3139.54
840.84	2818.00
841.01	2885.59
841.18	2852.82
841.35	3266.51
841.52	3356.62
841.69	3209.17
841.86	3000.27
842.03	3256.27
842.20	3428.30
842.37	2848.72
842.54	2967.51
842.71	3250.13
842.88	2975.70
843.05	2949.08
843.22	2869.20
843.39	3436.49
843.56	3190.74
843.73	2889.68
843.90	3012.56
844.07	3299.28
844.24	3444.68
844.41	2983.89
844.58	3014.61
844.75	3278.80
844.92	3448.78
845.09	3020.75
845.26	2904.02
845.43	3465.16
845.60	3139.54
845.77	3049.43
845.94	3033.04
846.10	3379.15
846.27	2926.55
846.44	2836.44
846.61	2719.70
846.78	3344.33
846.95	3481.55
847.12	2854.87
847.29	2953.17
847.46	3149.78
847.63	3436.49
847.80	2807.77
847.97	2947.03
848.14	3723.21
848.31	3205.07
848.48	2772.95
848.65	2985.94
848.82	3196.88
848.98	3772.36
849.15	3051.47
849.32	3123.15
849.49	3395.53
849.66	3200.98
849.83	2856.92
850.00	2830.29
850.17	3413.96
850.34	3176.40
850.51	2852.82
850.68	2844.63
850.85	3805.13
851.01	3268.56
851.18	2875.35
851.35	3033.04
851.52	3282.89
851.69	3549.13
851.86	2852.82
852.03	2869.20
852.20	3375.05
852.37	3225.55
852.53	2783.19
852.70	2805.72
852.87	3297.23
853.04	3434.44
853.21	2899.92
853.38	3227.60
853.55	3536.84
853.72	3534.79
853.89	2795.48
854.05	2885.59
854.22	3221.45
854.39	3207.12
854.56	2891.73
854.73	3065.81
854.90	3094.48
855.07	3176.40
855.23	2793.43
855.40	2850.77
855.57	3155.92
855.74	2836.44
855.91	3108.82
856.08	2791.38
856.25	2973.65
856.41	3174.35
856.58	2850.77
856.75	2944.98
856.92	3078.10
857.09	3434.44
857.26	2725.85
857.42	2969.55
857.59	3454.92
857.76	3174.35
857.93	2901.97
858.10	3047.38
858.27	3098.58
858.43	3354.57
858.60	2928.60
858.77	2764.76
858.94	3188.69
859.11	3436.49
859.27	3053.52
859.44	2871.25
859.61	3643.34
859.78	3393.48
859.95	2881.49
860.12	2811.86
860.28	3784.65
860.45	3614.66
860.62	2852.82
860.79	2981.84
860.95	3170.26
861.12	3100.62
861.29	2815.96
861.46	2852.82
861.63	3133.39
861.79	3256.27
861.96	2811.86
862.13	2930.64
862.30	3532.75
862.47	3151.82
862.63	2832.34
862.80	2996.18
862.97	3461.07
863.14	3336.14
863.30	3006.42
863.47	2861.01
863.64	3624.90
863.81	3270.61
863.97	2772.95
864.14	2914.26
864.31	3221.45
864.48	3280.85
864.65	2938.84
864.81	2975.70
864.98	3342.28
865.15	3403.72
865.32	3008.47
865.48	3035.09
865.65	3608.52
865.82	3178.45
865.98	2961.36
866.15	2981.84
866.32	3250.13
866.49	3196.88
866.65	3067.86
866.82	2969.55
866.99	3223.50
867.16	3110.86
867.32	2955.22
867.49	2856.92
867.66	3209.17
867.83	3164.11
867.99	2858.96
868.16	2967.51
868.33	3024.85
868.49	3221.45
868.66	2897.88
868.83	3039.19
868.99	3383.24
869.16	3356.62
869.33	3106.77
869.50	2961.36
869.66	3237.84
869.83	3239.89
870.00	2871.25
870.16	3037.14
870.33	3313.61
870.50	3493.83
870.66	2934.74
870.83	2955.22
871.00	3289.04
871.17	3366.86
871.33	2979.79
871.50	2901.97
871.67	3231.69
871.83	2973.65
872.00	3030.99
872.17	2922.45
872.33	3694.54
872.50	3479.50
872.67	2830.29
872.83	2912.21
873.00	3282.89
873.17	3262.41
873.33	2985.94
873.50	2992.08
873.67	3125.20
873.83	3090.38
874.00	2934.74
874.16	3119.06
874.33	3297.23
874.50	3020.75
874.66	2871.25
874.83	2963.41
875.00	3469.26
875.16	3491.79
875.33	3030.99
875.50	2695.13
875.66	3203.02
875.83	3309.52
875.99	2947.03
876.16	3055.57
876.33	3045.33
876.49	3172.30
876.66	3008.47
876.83	2891.73
876.99	3039.19
877.16	3293.13
877.32	2871.25
877.49	3028.95
877.66	3399.63
877.82	3526.60
877.99	2947.03
878.15	3198.93
878.32	3286.99
878.49	3278.80
878.65	3059.67
878.82	3153.87
878.98	3055.57
879.15	3450.83
879.32	3139.54
879.48	3155.92
879.65	3166.16
879.81	3223.50
879.98	2844.63
880.15	3024.85
880.31	3411.92
880.48	3061.71
880.64	2983.89
880.81	3069.91
880.97	3657.67
881.14	3438.54
881.31	2904.02
881.47	3131.34
881.64	3106.77
881.80	2955.22
881.97	3157.97
882.13	2897.88
882.30	2992.08
882.47	3104.72
882.63	2955.22
882.80	2899.92
882.96	3217.36
883.13	3493.83
883.29	2895.83
883.46	2914.26
883.62	3715.02
883.79	3241.93
883.95	3106.77
884.12	2863.06
884.29	3504.07
884.45	3188.69
884.62	2928.60
884.78	2869.20
884.95	3532.75
885.11	3022.80
885.28	2963.41
885.44	2947.03
885.61	3393.48
885.77	3502.03
885.94	3078.10
886.10	2955.22
886.27	3268.56
886.43	3659.72
886.60	3157.97
886.76	2959.31
886.93	3090.38
887.09	3299.28
887.26	2727.89
887.42	3028.95
887.59	3473.36
887.75	3655.62
887.92	3143.63
888.08	3094.48
888.25	3651.53
888.41	3385.29
888.58	2934.74
888.74	2918.36
888.91	3123.15
>>>>>End Processed Spectral Data<<<<<
