SpectraSuite Data File
++++++++++++++++++++++++++++++++++++
Date: Fri May 06 08:14:32 CEST 2016
User: root
Dark Spectrum Present: No
Reference Spectrum Present: No
Number of Sampled Component Spectra: 1
Spectrometers: USB4C02835
Integration Time (usec): 100000 (USB4C02835)
Spectra Averaged: 1 (USB4C02835)
Boxcar Smoothing: 0 (USB4C02835)
Correct for Electrical Dark: No (USB4C02835)
Strobe/Lamp Enabled: No (USB4C02835)
Correct for Detector Non-linearity: No (USB4C02835)
Correct for Stray Light: No (USB4C02835)
Number of Pixels in Processed Spectrum: 3648
>>>>>Begin Processed Spectral Data<<<<<
177.47	2254.81
177.69	2254.81
177.91	2254.81
178.13	2265.05
178.36	2320.35
178.58	3002.32
178.80	3131.34
179.02	2994.13
179.24	3047.38
179.46	2775.00
179.68	2916.31
179.90	3213.26
180.13	3270.61
180.35	2746.33
180.57	2805.72
180.79	3381.20
181.01	3282.89
181.23	2916.31
181.45	3000.27
181.67	3364.81
181.90	3401.68
182.12	2912.21
182.34	2721.75
182.56	3432.40
182.78	3270.61
183.00	2805.72
183.22	2889.68
183.44	2914.26
183.66	3942.34
183.89	3004.37
184.11	2914.26
184.33	3391.44
184.55	3569.61
184.77	2807.77
184.99	2789.33
185.21	3129.30
185.43	3770.31
185.65	2875.35
185.87	2852.82
186.10	3772.36
186.32	3854.28
186.54	2938.84
186.76	2908.12
186.98	3499.98
187.20	3198.93
187.42	2951.12
187.64	2852.82
187.86	3323.85
188.08	3581.90
188.30	2783.19
188.52	2912.21
188.75	3540.94
188.97	3467.21
189.19	2844.63
189.41	2824.15
189.63	3403.72
189.85	3233.74
190.07	2758.61
190.29	2715.61
190.51	3356.62
190.73	2983.89
190.95	3053.52
191.17	2869.20
191.39	3006.42
191.61	3203.02
191.84	2916.31
192.06	3037.14
192.28	2987.99
192.50	4005.83
192.72	3067.86
192.94	3020.75
193.16	3506.12
193.38	3434.44
193.60	2779.09
193.82	3112.91
194.04	3440.59
194.26	3360.72
194.48	2897.88
194.70	2832.34
194.92	3207.12
195.14	3512.27
195.36	2873.30
195.58	2942.93
195.80	3239.89
196.02	3114.96
196.24	2777.05
196.46	2969.55
196.69	3147.73
196.91	3729.35
197.13	2973.65
197.35	2957.27
197.57	3669.96
197.79	3436.49
198.01	2901.97
198.23	2897.88
198.45	3448.78
198.67	3047.38
198.89	2699.22
199.11	2951.12
199.33	3178.45
199.55	2836.44
199.77	2856.92
199.99	2996.18
200.21	3162.06
200.43	3360.72
200.65	2772.95
200.87	2727.89
201.09	3268.56
201.31	3219.41
201.53	2840.53
201.75	2932.69
201.97	3336.14
202.19	3325.90
202.41	2881.49
202.63	2979.79
202.85	3364.81
203.07	3311.57
203.29	2934.74
203.51	2758.61
203.73	3119.06
203.95	3813.32
204.17	2885.59
204.39	2944.98
204.61	3248.08
204.83	3121.10
205.05	3084.24
205.27	2803.67
205.49	3780.55
205.71	3299.28
205.93	2707.41
206.15	2762.71
206.37	3299.28
206.59	3180.50
206.81	2660.31
207.03	2783.19
207.25	3102.67
207.47	3413.96
207.69	2879.44
207.91	3102.67
208.13	3616.71
208.34	3143.63
208.56	2828.24
208.78	2881.49
209.00	3254.22
209.22	3145.68
209.44	2912.21
209.66	2783.19
209.88	3264.46
210.10	3174.35
210.32	2879.44
210.54	2951.12
210.76	3246.03
210.98	3499.98
211.20	2658.26
211.42	3010.51
211.64	3510.22
211.86	3350.48
212.08	2895.83
212.30	2871.25
212.52	3221.45
212.74	3370.96
212.96	3035.09
213.17	2914.26
213.39	3393.48
213.61	3594.19
213.83	2820.05
214.05	2691.03
214.27	3454.92
214.49	3119.06
214.71	2805.72
214.93	3037.14
215.15	3330.00
215.37	3467.21
215.59	2750.42
215.81	2940.88
216.03	3540.94
216.24	3241.93
216.46	2901.97
216.68	2867.16
216.90	3475.40
217.12	3489.74
217.34	2725.85
217.56	3059.67
217.78	3542.99
218.00	3327.95
218.22	2959.31
218.44	2977.75
218.66	3295.18
218.87	3631.05
219.09	2926.55
219.31	2871.25
219.53	3393.48
219.75	3176.40
219.97	2891.73
220.19	3014.61
220.41	3205.07
220.63	3639.24
220.85	2807.77
221.06	2883.54
221.28	3631.05
221.50	3393.48
221.72	2803.67
221.94	2731.99
222.16	3303.37
222.38	3459.02
222.60	2781.14
222.82	2895.83
223.03	3491.79
223.25	3035.09
223.47	2772.95
223.69	3082.19
223.91	3395.53
224.13	3375.05
224.35	2748.37
224.57	3065.81
224.78	3416.01
225.00	3100.62
225.22	2961.36
225.44	2836.44
225.66	3360.72
225.88	3200.98
226.10	3043.28
226.32	2918.36
226.53	3583.95
226.75	3235.79
226.97	2979.79
227.19	2865.11
227.41	3176.40
227.63	3194.83
227.85	2684.89
228.06	2920.40
228.28	3330.00
228.50	3585.99
228.72	2770.90
228.94	2803.67
229.16	2926.55
229.37	3059.67
229.59	2785.24
229.81	3147.73
230.03	3325.90
230.25	3016.66
230.47	2736.09
230.69	2805.72
230.90	3397.58
231.12	3155.92
231.34	2963.41
231.56	2965.46
231.78	3041.23
232.00	3293.13
232.21	2908.12
232.43	2922.45
232.65	2897.88
232.87	3491.79
233.09	2713.56
233.30	2705.37
233.52	3526.60
233.74	3356.62
233.96	2820.05
234.18	3090.38
234.40	3344.33
234.61	3770.31
234.83	2742.23
235.05	2801.62
235.27	3807.17
235.49	3553.23
235.70	2754.52
235.92	2916.31
236.14	3375.05
236.36	3753.93
236.58	2795.48
236.79	2883.54
237.01	3221.45
237.23	3295.18
237.45	3145.68
237.67	2906.07
237.88	3411.92
238.10	3622.86
238.32	2731.99
238.54	2787.29
238.76	3295.18
238.97	3151.82
239.19	2742.23
239.41	2967.51
239.63	3532.75
239.85	3166.16
240.06	2836.44
240.28	2861.01
240.50	3565.51
240.72	3282.89
240.93	2785.24
241.15	2951.12
241.37	3319.76
241.59	3555.27
241.81	2805.72
242.02	2992.08
242.24	3381.20
242.46	3364.81
242.68	2785.24
242.89	2764.76
243.11	3403.72
243.33	3225.55
243.55	2861.01
243.76	2824.15
243.98	3110.86
244.20	3248.08
244.42	2854.87
244.64	2813.91
244.85	3082.19
245.07	3100.62
245.29	2820.05
245.51	2865.11
245.72	3342.28
245.94	3518.41
246.16	2893.78
246.38	2867.16
246.59	3196.88
246.81	3209.17
247.03	2750.42
247.24	2674.65
247.46	3192.78
247.68	3340.24
247.90	2781.14
248.11	2959.31
248.33	3403.72
248.55	3192.78
248.77	2942.93
248.98	3047.38
249.20	3504.07
249.42	3356.62
249.64	2815.96
249.85	2858.96
250.07	3106.77
250.29	3479.50
250.50	2959.31
250.72	2772.95
250.94	3385.29
251.16	3753.93
251.37	2842.58
251.59	2951.12
251.81	3483.59
252.02	3663.82
252.24	2836.44
252.46	2985.94
252.68	3110.86
252.89	3160.02
253.11	2762.71
253.33	2942.93
253.54	3663.82
253.76	3059.67
253.98	2897.88
254.20	2777.05
254.41	3117.01
254.63	3280.85
254.85	2789.33
255.06	2918.36
255.28	3354.57
255.50	3196.88
255.71	2828.24
255.93	2717.65
256.15	3284.94
256.36	3440.59
256.58	2715.61
256.80	2787.29
257.02	3260.37
257.23	3196.88
257.45	2967.51
257.67	3006.42
257.88	3160.02
258.10	3387.34
258.32	2832.34
258.53	2930.64
258.75	3719.11
258.97	3108.82
259.18	2830.29
259.40	2811.86
259.62	3639.24
259.83	3635.14
260.05	2901.97
260.27	3827.65
260.48	3555.27
260.70	3157.97
260.92	2805.72
261.13	2863.06
261.35	3387.34
261.57	3307.47
261.78	2781.14
262.00	2826.20
262.22	3428.30
262.43	3063.76
262.65	2901.97
262.86	2869.20
263.08	3831.75
263.30	3323.85
263.51	2709.46
263.73	2895.83
263.95	3532.75
264.16	3127.25
264.38	2803.67
264.60	2799.57
264.81	3284.94
265.03	3434.44
265.25	3319.76
265.46	2854.87
265.68	3512.27
265.89	3452.88
266.11	2750.42
266.33	2856.92
266.54	3575.75
266.76	3373.00
266.98	2877.40
267.19	3043.28
267.41	3485.64
267.62	3225.55
267.84	2688.98
268.06	2953.17
268.27	3358.67
268.49	3477.45
268.70	2994.13
268.92	2844.63
269.14	3059.67
269.35	2990.03
269.57	3026.90
269.79	2926.55
270.00	3205.07
270.22	3747.78
270.43	2820.05
270.65	2744.28
270.87	3258.32
271.08	3444.68
271.30	3053.52
271.51	2779.09
271.73	3389.39
271.95	3600.33
272.16	2770.90
272.38	2971.60
272.59	3192.78
272.81	3356.62
273.02	2852.82
273.24	2846.68
273.46	3397.58
273.67	3049.43
273.89	2723.80
274.10	2815.96
274.32	3526.60
274.54	3284.94
274.75	2987.99
274.97	2959.31
275.18	3368.91
275.40	3299.28
275.61	2852.82
275.83	2924.50
276.05	3092.43
276.26	3254.22
276.48	2963.41
276.69	3090.38
276.91	3139.54
277.12	3588.04
277.34	3020.75
277.55	3090.38
277.77	3213.26
277.99	3190.74
278.20	3010.51
278.42	2834.39
278.63	3043.28
278.85	3049.43
279.06	3014.61
279.28	3110.86
279.49	3385.29
279.71	3403.72
279.93	2918.36
280.14	3014.61
280.36	3074.00
280.57	3499.98
280.79	3151.82
281.00	2918.36
281.22	3209.17
281.43	3461.07
281.65	2775.00
281.86	2942.93
282.08	3442.64
282.29	3706.82
282.51	2861.01
282.73	2838.48
282.94	3010.51
283.16	3526.60
283.37	3088.34
283.59	3016.66
283.80	3383.24
284.02	3270.61
284.23	3096.53
284.45	3061.71
284.66	3141.58
284.88	3149.78
285.09	2867.16
285.31	3092.43
285.52	3219.41
285.74	3012.56
285.95	3223.50
286.17	3014.61
286.38	3493.83
286.60	3225.55
286.81	3053.52
287.03	2924.50
287.24	3301.33
287.46	3391.44
287.67	3172.30
287.89	3233.74
288.10	3344.33
288.32	3289.04
288.53	3168.21
288.75	3065.81
288.96	3426.25
289.18	3045.33
289.39	2932.69
289.61	3069.91
289.82	3659.72
290.04	3602.38
290.25	2824.15
290.47	3067.86
290.68	3192.78
290.90	3393.48
291.11	2820.05
291.33	3131.34
291.54	3123.15
291.76	3129.30
291.97	3121.10
292.18	3096.53
292.40	3139.54
292.61	3186.64
292.83	3246.03
293.04	3076.05
293.26	3303.37
293.47	3243.98
293.69	2990.03
293.90	2887.64
294.12	3456.97
294.33	3205.07
294.55	3045.33
294.76	3170.26
294.97	3502.03
295.19	3680.20
295.40	2944.98
295.62	3043.28
295.83	3469.26
296.05	3084.24
296.26	3270.61
296.48	2934.74
296.69	3235.79
296.90	3270.61
297.12	3094.48
297.33	3059.67
297.55	3190.74
297.76	3401.68
297.98	3141.58
298.19	3174.35
298.41	3256.27
298.62	3110.86
298.83	3149.78
299.05	3162.06
299.26	3157.97
299.48	3106.77
299.69	3078.10
299.90	2910.16
300.12	3065.81
300.33	3379.15
300.55	3008.47
300.76	3043.28
300.98	3110.86
301.19	3403.72
301.40	2975.70
301.62	3028.95
301.83	3434.44
302.05	3311.57
302.26	3028.95
302.47	3102.67
302.69	2990.03
302.90	3225.55
303.12	2836.44
303.33	3076.05
303.54	3688.39
303.76	3135.44
303.97	2922.45
304.19	3258.32
304.40	3155.92
304.61	3387.34
304.83	2983.89
305.04	3055.57
305.26	3459.02
305.47	3024.85
305.68	2985.94
305.90	2906.07
306.11	3461.07
306.33	3248.08
306.54	2811.86
306.75	2981.84
306.97	2992.08
307.18	3121.10
307.39	2994.13
307.61	3096.53
307.82	3237.84
308.04	3350.48
308.25	2848.72
308.46	3176.40
308.68	3237.84
308.89	3332.05
309.10	3080.14
309.32	3041.23
309.53	3313.61
309.74	3352.52
309.96	2947.03
310.17	3137.49
310.39	3243.98
310.60	3428.30
310.81	3082.19
311.03	2963.41
311.24	3418.06
311.45	3272.65
311.67	3250.13
311.88	3082.19
312.09	3260.37
312.31	3207.12
312.52	2906.07
312.73	2918.36
312.95	3008.47
313.16	3078.10
313.37	3135.44
313.59	3211.22
313.80	3489.74
314.01	3532.75
314.23	2951.12
314.44	2871.25
314.65	3033.04
314.87	3194.83
315.08	2987.99
315.29	2951.12
315.51	3016.66
315.72	3000.27
315.93	3094.48
316.15	3000.27
316.36	3145.68
316.57	3237.84
316.79	3014.61
317.00	2951.12
317.21	3330.00
317.43	3162.06
317.64	3010.51
317.85	2881.49
318.07	3098.58
318.28	3246.03
318.49	3045.33
318.70	3225.55
318.92	3364.81
319.13	3456.97
319.34	3272.65
319.56	3125.20
319.77	3401.68
319.98	3483.59
320.20	3254.22
320.41	3121.10
320.62	3405.77
320.83	3045.33
321.05	3223.50
321.26	3008.47
321.47	3268.56
321.69	3512.27
321.90	2938.84
322.11	2924.50
322.32	3391.44
322.54	3608.52
322.75	3057.62
322.96	3936.20
323.18	3020.75
323.39	2908.12
323.60	2795.48
323.81	3106.77
324.03	3200.98
324.24	3223.50
324.45	3082.19
324.66	3076.05
324.88	3563.47
325.09	3602.38
325.30	2979.79
325.52	2908.12
325.73	3286.99
325.94	3133.39
326.15	2830.29
326.37	2836.44
326.58	3518.41
326.79	3616.71
327.00	3010.51
327.22	2938.84
327.43	3266.51
327.64	3078.10
327.85	3078.10
328.07	2987.99
328.28	3581.90
328.49	3186.64
328.70	3002.32
328.92	2985.94
329.13	3276.75
329.34	3418.06
329.55	3237.84
329.76	3117.01
329.98	3176.40
330.19	3471.31
330.40	3094.48
330.61	3084.24
330.83	3493.83
331.04	3067.86
331.25	3090.38
331.46	3086.29
331.68	3065.81
331.89	3522.51
332.10	3008.47
332.31	2856.92
332.52	3293.13
332.74	3604.42
332.95	2832.34
333.16	2996.18
333.37	3450.83
333.58	3168.21
333.80	3000.27
334.01	2867.16
334.22	3282.89
334.43	3180.50
334.64	2809.81
334.86	3000.27
335.07	3039.19
335.28	3563.47
335.49	2918.36
335.70	3084.24
335.92	3561.42
336.13	3721.16
336.34	3086.29
336.55	2979.79
336.76	3348.43
336.98	2865.11
337.19	3004.37
337.40	3145.68
337.61	3723.21
337.82	3248.08
338.04	3174.35
338.25	2889.68
338.46	3229.65
338.67	3237.84
338.88	2887.64
339.09	2928.60
339.31	3217.36
339.52	2979.79
339.73	2949.08
339.94	3039.19
340.15	3352.52
340.36	3129.30
340.58	3020.75
340.79	2959.31
341.00	3397.58
341.21	3028.95
341.42	3200.98
341.63	2961.36
341.85	3479.50
342.06	3325.90
342.27	2924.50
342.48	3131.34
342.69	2983.89
342.90	3360.72
343.12	3399.63
343.33	2914.26
343.54	3508.17
343.75	3585.99
343.96	3127.25
344.17	2918.36
344.38	3256.27
344.60	3137.49
344.81	2889.68
345.02	2961.36
345.23	3499.98
345.44	3780.55
345.65	3121.10
345.86	3024.85
346.07	3311.57
346.29	3149.78
346.50	3164.11
346.71	2998.23
346.92	3528.65
347.13	3614.66
347.34	3086.29
347.55	2930.64
347.76	3397.58
347.98	2924.50
348.19	3053.52
348.40	3225.55
348.61	3112.91
348.82	3618.76
349.03	3051.47
349.24	2914.26
349.45	3641.29
349.66	2844.63
349.88	2969.55
350.09	2951.12
350.30	3573.71
350.51	3524.55
350.72	3178.45
350.93	2912.21
351.14	3264.46
351.35	3430.35
351.56	2940.88
351.77	3059.67
351.99	3360.72
352.20	3637.19
352.41	3080.14
352.62	2887.64
352.83	3225.55
353.04	3235.79
353.25	2987.99
353.46	3090.38
353.67	3526.60
353.88	2908.12
354.09	2887.64
354.30	3033.04
354.52	3467.21
354.73	3229.65
354.94	2928.60
355.15	3006.42
355.36	3604.42
355.57	3203.02
355.78	2947.03
355.99	3074.00
356.20	3282.89
356.41	3526.60
356.62	3106.77
356.83	3045.33
357.04	3545.03
357.25	2906.07
357.46	2979.79
357.68	2854.87
357.89	3121.10
358.10	3243.98
358.31	2979.79
358.52	3074.00
358.73	3028.95
358.94	3067.86
359.15	3008.47
359.36	2973.65
359.57	3360.72
359.78	3188.69
359.99	3094.48
360.20	2877.40
360.41	3274.70
360.62	3409.87
360.83	3088.34
361.04	3018.71
361.25	3354.57
361.46	3647.43
361.67	3110.86
361.88	3028.95
362.09	3493.83
362.30	3362.76
362.51	2955.22
362.72	3067.86
362.93	3420.11
363.14	3346.38
363.35	3172.30
363.56	2942.93
363.78	3585.99
363.99	3549.13
364.20	3026.90
364.41	3051.47
364.62	3661.77
364.83	3344.33
365.04	3028.95
365.25	3051.47
365.46	3680.20
365.67	3166.16
365.88	3117.01
366.09	2916.31
366.30	3215.31
366.51	3313.61
366.72	2983.89
366.93	2918.36
367.14	3286.99
367.35	3585.99
367.56	2891.73
367.77	3117.01
367.98	3289.04
368.18	3332.05
368.39	3139.54
368.60	2998.23
368.81	3411.92
369.02	3413.96
369.23	2985.94
369.44	2889.68
369.65	3188.69
369.86	3409.87
370.07	3133.39
370.28	2871.25
370.49	3393.48
370.70	3305.42
370.91	2959.31
371.12	2916.31
371.33	3516.36
371.54	3119.06
371.75	3039.19
371.96	2793.43
372.17	3258.32
372.38	3233.74
372.59	3069.91
372.80	3004.37
373.01	3223.50
373.22	3237.84
373.43	3026.90
373.64	3041.23
373.85	3522.51
374.06	3647.43
374.26	3172.30
374.47	3098.58
374.68	3596.23
374.89	3270.61
375.10	2899.92
375.31	3020.75
375.52	3256.27
375.73	3366.86
375.94	2781.14
376.15	3094.48
376.36	3135.44
376.57	3149.78
376.78	3000.27
376.99	3057.62
377.20	3526.60
377.40	3182.54
377.61	3313.61
377.82	2973.65
378.03	3563.47
378.24	3395.53
378.45	3065.81
378.66	3084.24
378.87	3030.99
379.08	3000.27
379.29	3055.57
379.50	3205.07
379.71	3315.66
379.91	3403.72
380.12	3051.47
380.33	3082.19
380.54	3274.70
380.75	3157.97
380.96	3043.28
381.17	2994.13
381.38	3305.42
381.59	3315.66
381.80	3108.82
382.00	3217.36
382.21	3313.61
382.42	3565.51
382.63	3465.16
382.84	3180.50
383.05	3495.88
383.26	3516.36
383.47	3188.69
383.68	2955.22
383.88	3311.57
384.09	3325.90
384.30	3203.02
384.51	3117.01
384.72	3172.30
384.93	3010.51
385.14	3119.06
385.35	3311.57
385.55	2985.94
385.76	3469.26
385.97	3143.63
386.18	2865.11
386.39	3065.81
386.60	3123.15
386.81	3008.47
387.02	2887.64
387.22	3065.81
387.43	3436.49
387.64	3090.38
387.85	3235.79
388.06	3327.95
388.27	4360.13
388.48	7708.55
388.68	11708.24
388.89	14913.31
389.10	16254.73
389.31	16015.12
389.52	13020.99
389.73	11161.43
389.93	10360.67
390.14	9154.42
390.35	8468.35
390.56	7743.37
390.77	6467.49
390.98	4990.90
391.18	4110.27
391.39	3917.76
391.60	3233.74
391.81	3295.18
392.02	3076.05
392.23	3708.87
392.43	3377.10
392.64	3164.11
392.85	3160.02
393.06	3581.90
393.27	3276.75
393.47	2977.75
393.68	3147.73
393.89	3217.36
394.10	3450.83
394.31	3014.61
394.52	3008.47
394.72	3100.62
394.93	3610.57
395.14	2965.46
395.35	3139.54
395.56	3164.11
395.76	3233.74
395.97	3018.71
396.18	3180.50
396.39	3295.18
396.60	3968.96
396.80	3413.96
397.01	3293.13
397.22	3518.41
397.43	3403.72
397.64	3063.76
397.84	3076.05
398.05	3635.14
398.26	3241.93
398.47	3110.86
398.67	3286.99
398.88	3348.43
399.09	3391.44
399.30	3016.66
399.51	3061.71
399.71	3100.62
399.92	3262.41
400.13	3155.92
400.34	3024.85
400.54	3340.24
400.75	3585.99
400.96	3237.84
401.17	3311.57
401.37	3373.00
401.58	3268.56
401.79	2979.79
402.00	3143.63
402.21	3784.65
402.41	3452.88
402.62	3362.76
402.83	3540.94
403.04	3608.52
403.24	4100.03
403.45	3213.26
403.66	3319.76
403.87	3495.88
404.07	3647.43
404.28	3370.96
404.49	3393.48
404.70	3399.63
404.90	3413.96
405.11	3092.43
405.32	3114.96
405.52	3145.68
405.73	3119.06
405.94	2973.65
406.15	3092.43
406.35	3477.45
406.56	3332.05
406.77	3119.06
406.98	3055.57
407.18	3086.29
407.39	3483.59
407.60	3020.75
407.80	3174.35
408.01	3192.78
408.22	3411.92
408.43	2992.08
408.63	3098.58
408.84	3461.07
409.05	3485.64
409.25	3026.90
409.46	3074.00
409.67	3190.74
409.88	3160.02
410.08	3063.76
410.29	3026.90
410.50	3407.82
410.70	3362.76
410.91	2918.36
411.12	3127.25
411.32	3262.41
411.53	3108.82
411.74	3002.32
411.95	3119.06
412.15	3311.57
412.36	3471.31
412.57	3231.69
412.77	3237.84
412.98	3362.76
413.19	3184.59
413.39	3157.97
413.60	3059.67
413.81	3528.65
414.01	2979.79
414.22	3100.62
414.43	3332.05
414.63	3205.07
414.84	3469.26
415.05	3149.78
415.25	2871.25
415.46	3495.88
415.67	3243.98
415.87	3033.04
416.08	3022.80
416.29	3227.60
416.49	3336.14
416.70	3047.38
416.91	3000.27
417.11	3209.17
417.32	3549.13
417.53	3200.98
417.73	3166.16
417.94	3207.12
418.15	3237.84
418.35	3088.34
418.56	3033.04
418.77	3766.21
418.97	3278.80
419.18	3143.63
419.38	2729.94
419.59	3346.38
419.80	3504.07
420.00	2949.08
420.21	3078.10
420.42	3491.79
420.62	3428.30
420.83	3051.47
421.04	2973.65
421.24	3211.22
421.45	3428.30
421.65	3086.29
421.86	3123.15
422.07	3426.25
422.27	3364.81
422.48	2981.84
422.69	2867.16
422.89	3248.08
423.10	3164.11
423.30	3008.47
423.51	3100.62
423.72	3483.59
423.92	3418.06
424.13	2992.08
424.33	3125.20
424.54	3473.36
424.75	3366.86
424.95	3250.13
425.16	2998.23
425.36	3280.85
425.57	3444.68
425.78	3276.75
425.98	3227.60
426.19	3280.85
426.39	3020.75
426.60	3190.74
426.81	3246.03
427.01	3373.00
427.22	3069.91
427.42	2826.20
427.63	2955.22
427.83	3475.40
428.04	3645.38
428.25	3055.57
428.45	3184.59
428.66	3534.79
428.86	3309.52
429.07	3063.76
429.28	3110.86
429.48	3317.71
429.69	3033.04
429.89	3057.62
430.10	2930.64
430.30	3454.92
430.51	3430.35
430.71	2992.08
430.92	3100.62
431.13	3219.41
431.33	3370.96
431.54	3164.11
431.74	3270.61
431.95	3659.72
432.15	3028.95
432.36	3033.04
432.56	3053.52
432.77	3672.01
432.98	3745.73
433.18	3114.96
433.39	2961.36
433.59	3235.79
433.80	3674.06
434.00	3196.88
434.21	3041.23
434.41	3074.00
434.62	3758.02
434.82	2901.97
435.03	2994.13
435.23	3344.33
435.44	2990.03
435.64	2961.36
435.85	3100.62
436.06	3356.62
436.26	3422.16
436.47	3045.33
436.67	2963.41
436.88	3299.28
437.08	3448.78
437.29	3188.69
437.49	3180.50
437.70	3569.61
437.90	3297.23
438.11	3293.13
438.31	3139.54
438.52	3588.04
438.72	3528.65
438.93	3401.68
439.13	3180.50
439.34	3473.36
439.54	3225.55
439.75	3135.44
439.95	3174.35
440.16	3119.06
440.36	3200.98
440.57	3039.19
440.77	3074.00
440.98	3330.00
441.18	3368.91
441.39	2992.08
441.59	2897.88
441.80	3637.19
442.00	3237.84
442.21	3155.92
442.41	2928.60
442.62	3463.12
442.82	3131.34
443.02	3059.67
443.23	3024.85
443.43	3223.50
443.64	3579.85
443.84	3061.71
444.05	3110.86
444.25	3217.36
444.46	3188.69
444.66	3069.91
444.87	3246.03
445.07	3049.43
445.28	3188.69
445.48	3213.26
445.69	3137.49
445.89	3821.51
446.09	3180.50
446.30	3409.87
446.50	3477.45
446.71	5072.82
446.91	6385.57
447.12	7118.74
447.32	7544.72
447.53	7591.82
447.73	6295.46
447.93	5365.68
448.14	5341.10
448.34	5380.01
448.55	4544.44
448.75	4392.89
448.96	4210.62
449.16	4075.46
449.36	3913.67
449.57	3307.47
449.77	3137.49
449.98	3297.23
450.18	3405.77
450.39	3020.75
450.59	3260.37
450.79	3280.85
451.00	3098.58
451.20	3319.76
451.41	3123.15
451.61	3379.15
451.81	3299.28
452.02	3008.47
452.22	3047.38
452.43	3166.16
452.63	3123.15
452.84	3098.58
453.04	3000.27
453.24	3289.04
453.45	3106.77
453.65	3080.14
453.86	3078.10
454.06	3284.94
454.26	3389.39
454.47	2983.89
454.67	3219.41
454.87	3397.58
455.08	3286.99
455.28	3221.45
455.49	3268.56
455.69	3166.16
455.89	3704.78
456.10	3147.73
456.30	3049.43
456.51	3411.92
456.71	3258.32
456.91	3205.07
457.12	3065.81
457.32	3434.44
457.52	3018.71
457.73	3160.02
457.93	3203.02
458.14	3117.01
458.34	2990.03
458.54	3094.48
458.75	2990.03
458.95	3465.16
459.15	3291.09
459.36	3090.38
459.56	3141.58
459.76	3712.97
459.97	3291.09
460.17	2998.23
460.37	3114.96
460.58	3307.47
460.78	3438.54
460.99	3043.28
461.19	3026.90
461.39	3110.86
461.60	3147.73
461.80	3119.06
462.00	2871.25
462.21	3303.37
462.41	3145.68
462.61	2951.12
462.82	2770.90
463.02	3397.58
463.22	3250.13
463.43	3123.15
463.63	2936.79
463.83	3510.22
464.04	3342.28
464.24	3026.90
464.44	3057.62
464.64	3334.09
464.85	3336.14
465.05	3096.53
465.25	2975.70
465.46	3090.38
465.66	3397.58
465.86	3094.48
466.07	3061.71
466.27	3248.08
466.47	2955.22
466.68	2858.96
466.88	3114.96
467.08	3368.91
467.29	3526.60
467.49	3063.76
467.69	3176.40
467.89	3340.24
468.10	3248.08
468.30	3090.38
468.50	3188.69
468.71	3448.78
468.91	3000.27
469.11	3317.71
469.31	3108.82
469.52	3033.04
469.72	3661.77
469.92	3250.13
470.13	3090.38
470.33	3309.52
470.53	3434.44
470.73	3528.65
470.94	3891.14
471.14	4093.89
471.34	4655.03
471.54	4390.84
471.75	4138.94
471.95	3839.94
472.15	3807.17
472.36	3643.34
472.56	3565.51
472.76	3903.43
472.96	3692.49
473.17	3452.88
473.37	3262.41
473.57	3213.26
473.77	3352.52
473.98	3272.65
474.18	2940.88
474.38	4007.87
474.58	3209.17
474.79	2967.51
474.99	3139.54
475.19	3534.79
475.39	3080.14
475.60	3135.44
475.80	3016.66
476.00	3315.66
476.20	3174.35
476.41	3090.38
476.61	3069.91
476.81	3596.23
477.01	3041.23
477.21	3383.24
477.42	3053.52
477.62	3078.10
477.82	3393.48
478.02	2979.79
478.23	3098.58
478.43	3213.26
478.63	3213.26
478.83	3112.91
479.03	3155.92
479.24	3469.26
479.44	3731.40
479.64	2961.36
479.84	2926.55
480.04	3227.60
480.25	3508.17
480.45	3012.56
480.65	2996.18
480.85	3618.76
481.06	3145.68
481.26	3088.34
481.46	3047.38
481.66	3336.14
481.86	3125.20
482.06	3260.37
482.27	3053.52
482.47	3243.98
482.67	3358.67
482.87	3082.19
483.07	3137.49
483.28	3147.73
483.48	3045.33
483.68	3051.47
483.88	2959.31
484.08	2863.06
484.29	3049.43
484.49	3127.25
484.69	2871.25
484.89	3549.13
485.09	3450.83
485.29	3065.81
485.50	3233.74
485.70	3041.23
485.90	3563.47
486.10	3209.17
486.30	3047.38
486.50	3518.41
486.71	3293.13
486.91	3076.05
487.11	3082.19
487.31	3020.75
487.51	3352.52
487.71	3033.04
487.91	2977.75
488.12	3135.44
488.32	2797.53
488.52	3016.66
488.72	2756.57
488.92	3317.71
489.12	3561.42
489.32	3219.41
489.53	3037.14
489.73	3020.75
489.93	3645.38
490.13	3114.96
490.33	2901.97
490.53	3303.37
490.73	3504.07
490.94	2848.72
491.14	3162.06
491.34	3475.40
491.54	3383.24
491.74	3827.65
491.94	4409.28
492.14	5074.87
492.34	5203.89
492.54	4861.88
492.75	4157.38
492.95	4366.27
493.15	4016.07
493.35	3807.17
493.55	3823.56
493.75	3622.86
493.95	3887.04
494.15	3338.19
494.35	3200.98
494.56	3252.17
494.76	3205.07
494.96	3276.75
495.16	2932.69
495.36	3319.76
495.56	3344.33
495.76	3084.24
495.96	3047.38
496.16	3071.95
496.36	3684.30
496.56	2996.18
496.77	3151.82
496.97	3266.51
497.17	3538.89
497.37	2918.36
497.57	3084.24
497.77	3340.24
497.97	3028.95
498.17	3119.06
498.37	3028.95
498.57	3440.59
498.77	3260.37
498.97	3141.58
499.17	3463.12
499.38	3252.17
499.58	3299.28
499.78	3270.61
499.98	3223.50
500.18	3217.36
500.38	3135.44
500.58	3239.89
500.78	3577.80
500.98	6104.99
501.18	8140.68
501.38	9652.08
501.58	10815.32
501.78	10839.90
501.98	8906.62
502.18	7501.71
502.38	6463.39
502.58	6590.36
502.78	5593.00
502.98	5427.12
503.18	5207.98
503.38	4925.36
503.59	4290.49
503.79	4069.31
503.99	3700.68
504.19	3778.50
504.39	3966.92
504.59	3647.43
504.79	3598.28
504.99	4007.87
505.19	3565.51
505.39	3272.65
505.59	3545.03
505.79	3665.86
505.99	3575.75
506.19	3149.78
506.39	3409.87
506.59	3311.57
506.79	3323.85
506.99	3295.18
507.19	3010.51
507.39	3354.57
507.59	3043.28
507.79	3047.38
507.99	3026.90
508.19	3313.61
508.39	3241.93
508.59	3037.14
508.79	3205.07
508.99	3680.20
509.19	3067.86
509.39	3149.78
509.59	2942.93
509.79	3178.45
509.99	3289.04
510.19	3188.69
510.39	3147.73
510.59	3360.72
510.79	3219.41
510.99	2861.01
511.19	2985.94
511.39	3641.29
511.59	3463.12
511.79	3164.11
511.99	3037.14
512.19	3643.34
512.38	3264.46
512.58	2912.21
512.78	2979.79
512.98	3545.03
513.18	3608.52
513.38	2996.18
513.58	3127.25
513.78	3180.50
513.98	3246.03
514.18	3063.76
514.38	3082.19
514.58	3389.39
514.78	3182.54
514.98	2965.46
515.18	3024.85
515.38	3010.51
515.58	3712.97
515.78	3063.76
515.98	3012.56
516.18	3422.16
516.38	3334.09
516.57	3086.29
516.77	3096.53
516.97	3424.20
517.17	3250.13
517.37	2865.11
517.57	3186.64
517.77	3237.84
517.97	3074.00
518.17	3139.54
518.37	2906.07
518.57	3110.86
518.77	3237.84
518.97	3088.34
519.16	3137.49
519.36	3477.45
519.56	3131.34
519.76	2998.23
519.96	3190.74
520.16	3618.76
520.36	3047.38
520.56	3229.65
520.76	3033.04
520.96	3188.69
521.16	3459.02
521.35	3284.94
521.55	3209.17
521.75	3299.28
521.95	3125.20
522.15	3094.48
522.35	2906.07
522.55	3090.38
522.75	3469.26
522.95	3014.61
523.14	2891.73
523.34	3248.08
523.54	3182.54
523.74	3213.26
523.94	3069.91
524.14	2947.03
524.34	3393.48
524.54	3248.08
524.73	3055.57
524.93	3442.64
525.13	3323.85
525.33	2918.36
525.53	3332.05
525.73	3440.59
525.93	3262.41
526.13	3102.67
526.32	2994.13
526.52	3454.92
526.72	3424.20
526.92	3086.29
527.12	2953.17
527.32	2975.70
527.52	3274.70
527.71	3151.82
527.91	3074.00
528.11	3203.02
528.31	3241.93
528.51	3002.32
528.71	3237.84
528.90	3360.72
529.10	3502.03
529.30	3123.15
529.50	2854.87
529.70	3305.42
529.90	3151.82
530.09	3037.14
530.29	2881.49
530.49	3182.54
530.69	3727.30
530.89	3157.97
531.09	3133.39
531.28	3114.96
531.48	3524.55
531.68	3018.71
531.88	3067.86
532.08	3442.64
532.28	3200.98
532.47	3172.30
532.67	3225.55
532.87	3340.24
533.07	3084.24
533.27	3166.16
533.46	3241.93
533.66	3325.90
533.86	3282.89
534.06	3131.34
534.26	3033.04
534.45	3188.69
534.65	3432.40
534.85	3176.40
535.05	3047.38
535.25	3381.20
535.44	2920.40
535.64	3172.30
535.84	3071.95
536.04	3233.74
536.24	3215.31
536.43	3028.95
536.63	3002.32
536.83	3258.32
537.03	3256.27
537.22	2854.87
537.42	2801.62
537.62	3411.92
537.82	3121.10
538.02	3147.73
538.21	3117.01
538.41	3837.89
538.61	3426.25
538.81	3094.48
539.00	3225.55
539.20	2983.89
539.40	3188.69
539.60	2992.08
539.79	3246.03
539.99	3264.46
540.19	3074.00
540.39	2992.08
540.58	3188.69
540.78	3475.40
540.98	3282.89
541.18	3284.94
541.37	3127.25
541.57	3262.41
541.77	3356.62
541.97	3008.47
542.16	2967.51
542.36	3211.22
542.56	3100.62
542.76	3305.42
542.95	3090.38
543.15	3389.39
543.35	3385.29
543.54	2983.89
543.74	3008.47
543.94	3524.55
544.14	3231.69
544.33	3186.64
544.53	3110.86
544.73	3297.23
544.93	3180.50
545.12	3035.09
545.32	3088.34
545.52	3205.07
545.71	3049.43
545.91	3024.85
546.11	2963.41
546.30	3178.45
546.50	3254.22
546.70	3129.30
546.90	3065.81
547.09	2918.36
547.29	3319.76
547.49	3319.76
547.68	3080.14
547.88	3194.83
548.08	3383.24
548.27	3377.10
548.47	3049.43
548.67	3137.49
548.87	3323.85
549.06	2971.60
549.26	3033.04
549.46	3325.90
549.65	3241.93
549.85	3190.74
550.05	3090.38
550.24	2981.84
550.44	3297.23
550.64	3090.38
550.83	3123.15
551.03	3510.22
551.23	3469.26
551.42	3051.47
551.62	3162.06
551.82	3399.63
552.01	3243.98
552.21	3393.48
552.41	3166.16
552.60	3487.69
552.80	3264.46
553.00	3061.71
553.19	3135.44
553.39	3639.24
553.59	3024.85
553.78	3139.54
553.98	3008.47
554.17	3020.75
554.37	3295.18
554.57	3094.48
554.76	2959.31
554.96	3151.82
555.16	3338.19
555.35	3086.29
555.55	3203.02
555.75	3303.37
555.94	3510.22
556.14	2869.20
556.33	3080.14
556.53	3246.03
556.73	3276.75
556.92	3094.48
557.12	2971.60
557.32	3729.35
557.51	3551.18
557.71	3160.02
557.90	3223.50
558.10	3581.90
558.30	3221.45
558.49	3014.61
558.69	3002.32
558.88	3299.28
559.08	3295.18
559.28	3071.95
559.47	3096.53
559.67	3373.00
559.86	3612.62
560.06	3004.37
560.26	3114.96
560.45	3430.35
560.65	3178.45
560.84	3389.39
561.04	2971.60
561.24	3346.38
561.43	3065.81
561.63	3389.39
561.82	3180.50
562.02	3364.81
562.22	2955.22
562.41	3074.00
562.61	3010.51
562.80	2998.23
563.00	3723.21
563.19	3149.78
563.39	3092.43
563.59	3340.24
563.78	3082.19
563.98	2836.44
564.17	2983.89
564.37	2914.26
564.56	3237.84
564.76	2901.97
564.96	3174.35
565.15	3436.49
565.35	3811.27
565.54	3092.43
565.74	3100.62
565.93	3438.54
566.13	3342.28
566.32	3071.95
566.52	3117.01
566.71	3266.51
566.91	3399.63
567.11	3239.89
567.30	2922.45
567.50	3330.00
567.69	3389.39
567.89	3049.43
568.08	2990.03
568.28	3350.48
568.47	3096.53
568.67	3147.73
568.86	3129.30
569.06	3497.93
569.25	3248.08
569.45	2983.89
569.64	3084.24
569.84	3190.74
570.04	3364.81
570.23	3065.81
570.43	3135.44
570.62	3317.71
570.82	3647.43
571.01	2973.65
571.21	2987.99
571.40	3106.77
571.60	3297.23
571.79	3117.01
571.99	3033.04
572.18	3094.48
572.38	3340.24
572.57	3106.77
572.77	3196.88
572.96	3731.40
573.16	3311.57
573.35	3030.99
573.55	3270.61
573.74	3473.36
573.94	3149.78
574.13	3033.04
574.33	3164.11
574.52	3493.83
574.71	3319.76
574.91	3170.26
575.10	2942.93
575.30	3162.06
575.49	3033.04
575.69	2963.41
575.88	3002.32
576.08	3364.81
576.27	3540.94
576.47	2992.08
576.66	3241.93
576.86	3575.75
577.05	3258.32
577.25	3205.07
577.44	3190.74
577.64	3229.65
577.83	3483.59
578.02	3086.29
578.22	3229.65
578.41	3608.52
578.61	3194.83
578.80	2916.31
579.00	3205.07
579.19	3262.41
579.39	3330.00
579.58	3151.82
579.77	3082.19
579.97	3520.46
580.16	3545.03
580.36	3270.61
580.55	3217.36
580.75	3397.58
580.94	3299.28
581.13	3198.93
581.33	3315.66
581.52	3301.33
581.72	3633.10
581.91	3221.45
582.11	3059.67
582.30	3493.83
582.49	3315.66
582.69	3375.05
582.88	3205.07
583.08	3362.76
583.27	3450.83
583.47	3168.21
583.66	3012.56
583.85	3135.44
584.05	3176.40
584.24	3321.81
584.44	3194.83
584.63	3473.36
584.82	3444.68
585.02	3373.00
585.21	3203.02
585.41	3377.10
585.60	3250.13
585.79	3356.62
585.99	3487.69
586.18	3330.00
586.37	4327.36
586.57	6236.06
586.76	17583.86
586.96	37189.06
587.15	49812.74
587.34	58971.26
587.54	62772.29
587.73	55866.54
587.93	40478.10
588.12	31098.41
588.31	25642.62
588.51	22564.52
588.70	20735.68
588.89	18306.79
589.09	15673.10
589.28	13467.44
589.47	10831.71
589.67	8365.95
589.86	6606.75
590.06	5091.25
590.25	4470.72
590.44	3878.85
590.64	3553.23
590.83	3624.90
591.02	3606.47
591.22	3047.38
591.41	3221.45
591.60	3284.94
591.80	3751.88
591.99	2918.36
592.18	3084.24
592.38	3532.75
592.57	3135.44
592.76	2955.22
592.96	3162.06
593.15	3221.45
593.34	3526.60
593.54	3057.62
593.73	3209.17
593.92	3401.68
594.12	3321.81
594.31	3168.21
594.50	3280.85
594.70	3346.38
594.89	3788.74
595.08	2961.36
595.28	3209.17
595.47	3792.84
595.66	3405.77
595.86	2883.54
596.05	2994.13
596.24	3256.27
596.43	3624.90
596.63	3178.45
596.82	3207.12
597.01	3405.77
597.21	3575.75
597.40	3051.47
597.59	3166.16
597.79	3243.98
597.98	3387.34
598.17	3076.05
598.36	3143.63
598.56	3454.92
598.75	3254.22
598.94	3178.45
599.14	3153.87
599.33	3184.59
599.52	3477.45
599.71	3155.92
599.91	3035.09
600.10	3459.02
600.29	3248.08
600.48	3151.82
600.68	3139.54
600.87	3338.19
601.06	3174.35
601.26	3278.80
601.45	3209.17
601.64	3192.78
601.83	3557.32
602.03	2924.50
602.22	3010.51
602.41	3512.27
602.60	3753.93
602.80	3180.50
602.99	3254.22
603.18	3145.68
603.37	3274.70
603.57	2983.89
603.76	3117.01
603.95	3450.83
604.14	3188.69
604.34	3024.85
604.53	3024.85
604.72	3282.89
604.91	3438.54
605.10	3186.64
605.30	2893.78
605.49	3692.49
605.68	3358.67
605.87	3102.67
606.07	3002.32
606.26	3276.75
606.45	3413.96
606.64	3106.77
606.84	3041.23
607.03	3241.93
607.22	3491.79
607.41	3078.10
607.60	3008.47
607.80	3434.44
607.99	3297.23
608.18	3110.86
608.37	3102.67
608.56	3192.78
608.76	3532.75
608.95	3190.74
609.14	3117.01
609.33	3559.37
609.52	3626.95
609.72	3184.59
609.91	3250.13
610.10	3411.92
610.29	3530.70
610.48	3225.55
610.68	3182.54
610.87	3219.41
611.06	3491.79
611.25	3078.10
611.44	3139.54
611.63	3215.31
611.83	3516.36
612.02	2967.51
612.21	3239.89
612.40	3014.61
612.59	3135.44
612.79	3020.75
612.98	3112.91
613.17	3663.82
613.36	3250.13
613.55	3153.87
613.74	3112.91
613.93	3299.28
614.13	3471.31
614.32	3289.04
614.51	3170.26
614.70	3299.28
614.89	3205.07
615.08	3194.83
615.28	3434.44
615.47	3129.30
615.66	3307.47
615.85	3076.05
616.04	3147.73
616.23	3356.62
616.42	3235.79
616.62	3094.48
616.81	3168.21
617.00	3284.94
617.19	3428.30
617.38	3110.86
617.57	3180.50
617.76	3403.72
617.95	3407.82
618.15	3231.69
618.34	3286.99
618.53	3016.66
618.72	3434.44
618.91	3200.98
619.10	3170.26
619.29	3284.94
619.48	3280.85
619.68	3010.51
619.87	3082.19
620.06	2992.08
620.25	3368.91
620.44	3117.01
620.63	3010.51
620.82	3315.66
621.01	3330.00
621.20	3141.58
621.39	3084.24
621.59	3323.85
621.78	3190.74
621.97	3112.91
622.16	3246.03
622.35	3383.24
622.54	3395.53
622.73	3239.89
622.92	2799.57
623.11	3516.36
623.30	3227.60
623.49	3231.69
623.68	2871.25
623.88	3616.71
624.07	3086.29
624.26	3006.42
624.45	3086.29
624.64	3256.27
624.83	3356.62
625.02	3033.04
625.21	3106.77
625.40	3209.17
625.59	3561.42
625.78	3149.78
625.97	3217.36
626.16	3499.98
626.35	3526.60
626.54	3074.00
626.74	3319.76
626.93	3186.64
627.12	3252.17
627.31	3131.34
627.50	3090.38
627.69	3381.20
627.88	3139.54
628.07	2961.36
628.26	2969.55
628.45	3188.69
628.64	3026.90
628.83	3135.44
629.02	2955.22
629.21	3352.52
629.40	3270.61
629.59	2955.22
629.78	3004.37
629.97	3319.76
630.16	3278.80
630.35	3018.71
630.54	3229.65
630.73	3166.16
630.92	3278.80
631.11	2981.84
631.30	3061.71
631.49	3432.40
631.68	3233.74
631.87	3104.72
632.06	2981.84
632.25	3835.85
632.44	3258.32
632.63	3139.54
632.82	3069.91
633.01	3213.26
633.20	3364.81
633.39	3174.35
633.58	2852.82
633.77	3205.07
633.96	3389.39
634.15	3237.84
634.34	3160.02
634.53	3362.76
634.72	3141.58
634.91	2926.55
635.10	3114.96
635.29	3385.29
635.48	3299.28
635.67	2914.26
635.86	2875.35
636.05	3549.13
636.24	3254.22
636.43	3098.58
636.62	3151.82
636.81	2820.05
637.00	3305.42
637.19	3035.09
637.38	3117.01
637.57	3196.88
637.76	3209.17
637.95	3315.66
638.14	3166.16
638.33	3375.05
638.52	3254.22
638.71	3024.85
638.89	2883.54
639.08	3856.33
639.27	3504.07
639.46	3305.42
639.65	3712.97
639.84	3803.08
640.03	4007.87
640.22	3620.81
640.41	3581.90
640.60	3508.17
640.79	3540.94
640.98	3323.85
641.17	3327.95
641.36	3442.64
641.55	3483.59
641.74	3024.85
641.92	3010.51
642.11	3086.29
642.30	3225.55
642.49	2955.22
642.68	3071.95
642.87	3368.91
643.06	3297.23
643.25	2877.40
643.44	2940.88
643.63	3325.90
643.82	3444.68
644.00	2949.08
644.19	3065.81
644.38	3022.80
644.57	3446.73
644.76	3012.56
644.95	3196.88
645.14	3295.18
645.33	3215.31
645.52	3137.49
645.71	2826.20
645.89	3090.38
646.08	3248.08
646.27	3061.71
646.46	3246.03
646.65	2895.83
646.84	3272.65
647.03	3035.09
647.22	3196.88
647.40	3246.03
647.59	3160.02
647.78	2861.01
647.97	3065.81
648.16	3104.72
648.35	3448.78
648.54	3405.77
648.73	2998.23
648.91	3440.59
649.10	3358.67
649.29	3069.91
649.48	3041.23
649.67	3330.00
649.86	3364.81
650.05	3139.54
650.23	3297.23
650.42	3168.21
650.61	3577.80
650.80	3280.85
650.99	3307.47
651.18	3573.71
651.36	3528.65
651.55	3024.85
651.74	3235.79
651.93	3209.17
652.12	3264.46
652.31	3209.17
652.49	3033.04
652.68	3231.69
652.87	3633.10
653.06	3137.49
653.25	3358.67
653.44	3243.98
653.62	3624.90
653.81	3139.54
654.00	3033.04
654.19	3459.02
654.38	3844.04
654.56	3174.35
654.75	2959.31
654.94	3454.92
655.13	3289.04
655.32	2985.94
655.51	3114.96
655.69	3223.50
655.88	3432.40
656.07	2932.69
656.26	3045.33
656.45	3053.52
656.63	3252.17
656.82	3086.29
657.01	3434.44
657.20	3147.73
657.38	3532.75
657.57	3049.43
657.76	2955.22
657.95	3393.48
658.14	3172.30
658.32	3252.17
658.51	2914.26
658.70	3315.66
658.89	3340.24
659.08	3098.58
659.26	3215.31
659.45	3039.19
659.64	3348.43
659.83	3100.62
660.01	3450.83
660.20	3319.76
660.39	3571.66
660.58	2783.19
660.76	3155.92
660.95	2994.13
661.14	3248.08
661.33	2848.72
661.51	3125.20
661.70	3131.34
661.89	3315.66
662.08	3125.20
662.26	2906.07
662.45	3090.38
662.64	3614.66
662.83	3149.78
663.01	2897.88
663.20	3209.17
663.39	3590.09
663.58	3074.00
663.76	3006.42
663.95	3416.01
664.14	3074.00
664.32	3198.93
664.51	2938.84
664.70	2885.59
664.89	3391.44
665.07	2955.22
665.26	3254.22
665.45	2998.23
665.64	3381.20
665.82	3045.33
666.01	3219.41
666.20	3053.52
666.38	3493.83
666.57	3459.02
666.76	5580.71
666.95	12777.28
667.13	20487.88
667.32	24577.67
667.51	27940.44
667.69	28878.41
667.88	24233.61
668.07	17141.50
668.25	14704.42
668.44	12717.89
668.63	11034.46
668.81	9779.05
669.00	8460.16
669.19	7669.64
669.38	6700.95
669.56	5691.31
669.75	4982.71
669.94	4415.42
670.12	3721.16
670.31	3436.49
670.50	3383.24
670.68	3448.78
670.87	3395.53
671.06	3082.19
671.24	3188.69
671.43	3626.95
671.62	3237.84
671.80	3074.00
671.99	3286.99
672.18	3241.93
672.36	3442.64
672.55	3184.59
672.74	3094.48
672.92	3233.74
673.11	3387.34
673.29	2936.79
673.48	3237.84
673.67	3180.50
673.85	3377.10
674.04	3047.38
674.23	3213.26
674.41	3700.68
674.60	3082.19
674.79	2856.92
674.97	2936.79
675.16	3442.64
675.34	3530.70
675.53	3051.47
675.72	3225.55
675.90	3600.33
676.09	3182.54
676.28	3157.97
676.46	2920.40
676.65	3444.68
676.83	3100.62
677.02	3174.35
677.21	3194.83
677.39	3336.14
677.58	3123.15
677.77	3028.95
677.95	2983.89
678.14	3207.12
678.32	3233.74
678.51	3065.81
678.70	3465.16
678.88	3248.08
679.07	3366.86
679.25	3049.43
679.44	3166.16
679.63	3100.62
679.81	3325.90
680.00	3348.43
680.18	3184.59
680.37	3590.09
680.55	3270.61
680.74	3018.71
680.93	2861.01
681.11	3401.68
681.30	3246.03
681.48	3055.57
681.67	3102.67
681.85	3289.04
682.04	3127.25
682.23	3280.85
682.41	3147.73
682.60	3229.65
682.78	3264.46
682.97	3028.95
683.15	3145.68
683.34	3289.04
683.53	3579.85
683.71	2957.27
683.90	3108.82
684.08	3629.00
684.27	3141.58
684.45	3160.02
684.64	3252.17
684.82	3397.58
685.01	3413.96
685.19	3047.38
685.38	3385.29
685.57	3266.51
685.75	3004.37
685.94	2873.30
686.12	3028.95
686.31	3188.69
686.49	3602.38
686.68	2875.35
686.86	3080.14
687.05	3170.26
687.23	3485.64
687.42	3061.71
687.60	2985.94
687.79	3420.11
687.97	3614.66
688.16	3213.26
688.34	3276.75
688.53	2947.03
688.71	3401.68
688.90	3364.81
689.08	3110.86
689.27	2938.84
689.45	3375.05
689.64	3166.16
689.82	3092.43
690.01	3284.94
690.19	3303.37
690.38	3121.10
690.56	3207.12
690.75	3039.19
690.93	3162.06
691.12	3102.67
691.30	3063.76
691.49	3157.97
691.67	3186.64
691.86	3430.35
692.04	3123.15
692.23	3192.78
692.41	3278.80
692.60	3487.69
692.78	3391.44
692.97	3266.51
693.15	3422.16
693.34	3330.00
693.52	3313.61
693.71	3200.98
693.89	3121.10
694.08	2863.06
694.26	3205.07
694.44	3461.07
694.63	3532.75
694.81	3012.56
695.00	3035.09
695.18	3510.22
695.37	3788.74
695.55	3213.26
695.74	3184.59
695.92	3098.58
696.10	3551.18
696.29	2969.55
696.47	3078.10
696.66	3053.52
696.84	3041.23
697.03	3137.49
697.21	3293.13
697.40	4652.98
697.58	3487.69
697.76	3028.95
697.95	3123.15
698.13	3008.47
698.32	3172.30
698.50	2971.60
698.68	3166.16
698.87	3362.76
699.05	3635.14
699.24	3026.90
699.42	3043.28
699.61	3354.57
699.79	3250.13
699.97	3078.10
700.16	2901.97
700.34	3024.85
700.53	3446.73
700.71	3268.56
700.89	3250.13
701.08	3135.44
701.26	3307.47
701.45	3440.59
701.63	3096.53
701.81	3184.59
702.00	3145.68
702.18	3186.64
702.37	3106.77
702.55	3616.71
702.73	3278.80
702.92	3061.71
703.10	3418.06
703.28	3381.20
703.47	3139.54
703.65	3364.81
703.84	3237.84
704.02	3194.83
704.20	3545.03
704.39	3125.20
704.57	3125.20
704.75	3383.24
704.94	3383.24
705.12	3264.46
705.30	3936.20
705.49	8636.28
705.67	16729.86
705.86	23463.58
706.04	26574.44
706.22	29484.61
706.41	28114.52
706.59	21173.95
706.77	16615.17
706.96	14292.77
707.14	13000.51
707.32	11114.33
707.51	9895.78
707.69	7919.50
707.87	6557.60
708.06	5334.96
708.24	4472.76
708.42	4126.66
708.61	4151.23
708.79	3258.32
708.97	3301.33
709.16	3379.15
709.34	3305.42
709.52	3129.30
709.71	3098.58
709.89	3360.72
710.07	3078.10
710.26	3098.58
710.44	3108.82
710.62	3479.50
710.80	3274.70
710.99	3211.22
711.17	3205.07
711.35	3090.38
711.54	3127.25
711.72	3313.61
711.90	3123.15
712.09	3325.90
712.27	3166.16
712.45	3123.15
712.63	3082.19
712.82	3270.61
713.00	3176.40
713.18	3303.37
713.37	3270.61
713.55	3385.29
713.73	3289.04
713.91	3137.49
714.10	3098.58
714.28	3141.58
714.46	3291.09
714.65	3172.30
714.83	3049.43
715.01	3258.32
715.19	3342.28
715.38	3084.24
715.56	3303.37
715.74	3110.86
715.92	3123.15
716.11	3323.85
716.29	2828.24
716.47	3213.26
716.65	3237.84
716.84	2922.45
717.02	3155.92
717.20	2967.51
717.38	3074.00
717.57	3219.41
717.75	3223.50
717.93	3225.55
718.11	3385.29
718.30	2920.40
718.48	3198.93
718.66	3502.03
718.84	3547.08
719.03	3114.96
719.21	2930.64
719.39	3647.43
719.57	3338.19
719.75	3221.45
719.94	3018.71
720.12	3235.79
720.30	3286.99
720.48	3170.26
720.67	3108.82
720.85	3043.28
721.03	3139.54
721.21	3022.80
721.39	3098.58
721.58	3358.67
721.76	3299.28
721.94	3229.65
722.12	3211.22
722.30	3569.61
722.49	3229.65
722.67	3145.68
722.85	3121.10
723.03	3006.42
723.21	3160.02
723.40	3090.38
723.58	3262.41
723.76	3399.63
723.94	3514.31
724.12	3125.20
724.30	3422.16
724.49	3442.64
724.67	3016.66
724.85	3149.78
725.03	2926.55
725.21	3436.49
725.40	3530.70
725.58	3145.68
725.76	3317.71
725.94	3401.68
726.12	3182.54
726.30	3121.10
726.49	3110.86
726.67	3348.43
726.85	3465.16
727.03	3993.54
727.21	5435.31
727.39	7079.83
727.57	7692.17
727.76	8335.23
727.94	8257.41
728.12	7339.92
728.30	5840.81
728.48	5625.77
728.66	5015.48
728.84	4763.58
729.03	4083.65
729.21	3819.46
729.39	3614.66
729.57	3407.82
729.75	3391.44
729.93	3430.35
730.11	3074.00
730.30	3231.69
730.48	3188.69
730.66	3213.26
730.84	3166.16
731.02	3256.27
731.20	3114.96
731.38	3164.11
731.56	2926.55
731.74	2983.89
731.93	3307.47
732.11	3246.03
732.29	3090.38
732.47	3463.12
732.65	3293.13
732.83	3305.42
733.01	3131.34
733.19	3012.56
733.37	3393.48
733.56	3028.95
733.74	2953.17
733.92	3579.85
734.10	3196.88
734.28	3270.61
734.46	2918.36
734.64	3182.54
734.82	3239.89
735.00	3088.34
735.18	2983.89
735.36	3219.41
735.54	3254.22
735.73	3053.52
735.91	3248.08
736.09	3553.23
736.27	3254.22
736.45	3225.55
736.63	2818.00
736.81	3184.59
736.99	3430.35
737.17	3217.36
737.35	3024.85
737.53	3209.17
737.71	3221.45
737.89	3360.72
738.07	3039.19
738.25	3098.58
738.43	3000.27
738.61	3100.62
738.80	2979.79
738.98	3110.86
739.16	3213.26
739.34	3018.71
739.52	3450.83
739.70	3188.69
739.88	3467.21
740.06	3223.50
740.24	2887.64
740.42	3504.07
740.60	3000.27
740.78	3059.67
740.96	2828.24
741.14	3225.55
741.32	3393.48
741.50	2926.55
741.68	3401.68
741.86	3575.75
742.04	3059.67
742.22	3045.33
742.40	3100.62
742.58	3528.65
742.76	3084.24
742.94	3340.24
743.12	2957.27
743.30	3219.41
743.48	3450.83
743.66	2983.89
743.84	3053.52
744.02	3178.45
744.20	3237.84
744.38	2918.36
744.56	3028.95
744.74	3604.42
744.92	3426.25
745.10	3284.94
745.28	3131.34
745.46	3631.05
745.64	3172.30
745.82	3147.73
746.00	3055.57
746.18	3401.68
746.36	3157.97
746.54	3225.55
746.72	3114.96
746.90	3094.48
747.08	3538.89
747.26	3065.81
747.44	3207.12
747.62	3409.87
747.80	3436.49
747.98	3176.40
748.15	3098.58
748.33	3585.99
748.51	3297.23
748.69	3184.59
748.87	2969.55
749.05	3149.78
749.23	3207.12
749.41	3067.86
749.59	3086.29
749.77	3334.09
749.95	3153.87
750.13	2979.79
750.31	3198.93
750.49	3180.50
750.67	3487.69
750.85	3217.36
751.03	3074.00
751.20	3725.26
751.38	3321.81
751.56	3188.69
751.74	3108.82
751.92	3239.89
752.10	2983.89
752.28	3225.55
752.46	3098.58
752.64	3272.65
752.82	3217.36
753.00	3221.45
753.18	3088.34
753.35	3215.31
753.53	3274.70
753.71	3065.81
753.89	3170.26
754.07	3428.30
754.25	3526.60
754.43	3180.50
754.61	2969.55
754.79	3454.92
754.97	3100.62
755.14	3303.37
755.32	2928.60
755.50	3315.66
755.68	3354.57
755.86	3045.33
756.04	3008.47
756.22	2944.98
756.40	3454.92
756.57	3252.17
756.75	3051.47
756.93	3409.87
757.11	3420.11
757.29	2961.36
757.47	3000.27
757.65	2938.84
757.82	2852.82
758.00	2955.22
758.18	3065.81
758.36	3198.93
758.54	3610.57
758.72	2865.11
758.90	3209.17
759.07	3399.63
759.25	3078.10
759.43	3237.84
759.61	2938.84
759.79	4517.82
759.97	3485.64
760.15	3094.48
760.32	3043.28
760.50	3358.67
760.68	3651.53
760.86	2926.55
761.04	3319.76
761.22	3373.00
761.39	3360.72
761.57	3229.65
761.75	3024.85
761.93	3395.53
762.11	3219.41
762.28	3164.11
762.46	2996.18
762.64	3553.23
762.82	3043.28
763.00	3026.90
763.18	3360.72
763.35	3035.09
763.53	3393.48
763.71	3209.17
763.89	3065.81
764.07	3276.75
764.24	3323.85
764.42	3239.89
764.60	3117.01
764.78	3426.25
764.96	3502.03
765.13	3282.89
765.31	3024.85
765.49	3446.73
765.67	3106.77
765.84	3094.48
766.02	2959.31
766.20	3033.04
766.38	3243.98
766.56	3155.92
766.73	3243.98
766.91	3272.65
767.09	3225.55
767.27	3106.77
767.44	3000.27
767.62	3438.54
767.80	3274.70
767.98	3014.61
768.15	3033.04
768.33	3321.81
768.51	3454.92
768.69	3235.79
768.87	3074.00
769.04	3278.80
769.22	3803.08
769.40	3180.50
769.58	3303.37
769.75	3444.68
769.93	3530.70
770.11	3110.86
770.28	2979.79
770.46	3459.02
770.64	3336.14
770.82	3133.39
770.99	2949.08
771.17	3375.05
771.35	3153.87
771.53	3149.78
771.70	3014.61
771.88	3297.23
772.06	3346.38
772.23	3061.71
772.41	3147.73
772.59	3209.17
772.77	3065.81
772.94	3102.67
773.12	3168.21
773.30	3270.61
773.47	3180.50
773.65	2992.08
773.83	3252.17
774.01	3229.65
774.18	2930.64
774.36	3086.29
774.54	2891.73
774.71	3354.57
774.89	2967.51
775.07	2971.60
775.24	3008.47
775.42	3225.55
775.60	3672.01
775.78	2967.51
775.95	2938.84
776.13	2930.64
776.31	2998.23
776.48	3248.08
776.66	3293.13
776.84	3211.22
777.01	3090.38
777.19	3010.51
777.37	2983.89
777.54	3493.83
777.72	3680.20
777.90	3102.67
778.07	3000.27
778.25	3917.76
778.43	3418.06
778.60	3028.95
778.78	3194.83
778.96	3596.23
779.13	2963.41
779.31	3157.97
779.49	3100.62
779.66	3383.24
779.84	3231.69
780.01	3041.23
780.19	2934.74
780.37	3583.95
780.54	3428.30
780.72	2861.01
780.90	3135.44
781.07	3209.17
781.25	3114.96
781.43	3282.89
781.60	3100.62
781.78	3524.55
781.95	3307.47
782.13	3024.85
782.31	3100.62
782.48	2928.60
782.66	3248.08
782.83	3327.95
783.01	3213.26
783.19	3489.74
783.36	3180.50
783.54	2959.31
783.72	3286.99
783.89	3248.08
784.07	3266.51
784.24	3182.54
784.42	3309.52
784.60	3293.13
784.77	3385.29
784.95	2848.72
785.12	3037.14
785.30	3213.26
785.47	3168.21
785.65	3049.43
785.83	3098.58
786.00	3098.58
786.18	3319.76
786.35	3035.09
786.53	3030.99
786.71	3454.92
786.88	3393.48
787.06	3266.51
787.23	3082.19
787.41	3127.25
787.58	3282.89
787.76	3016.66
787.94	3078.10
788.11	3311.57
788.29	3080.14
788.46	3129.30
788.64	2901.97
788.81	3274.70
788.99	3063.76
789.16	3002.32
789.34	3096.53
789.52	3166.16
789.69	3182.54
789.87	2918.36
790.04	3098.58
790.22	3239.89
790.39	3672.01
790.57	2979.79
790.74	2955.22
790.92	3387.34
791.09	2949.08
791.27	3192.78
791.44	3147.73
791.62	3262.41
791.79	3377.10
791.97	3186.64
792.15	3442.64
792.32	3442.64
792.50	3332.05
792.67	3305.42
792.85	3416.01
793.02	3334.09
793.20	3217.36
793.37	2924.50
793.55	3098.58
793.72	3004.37
793.90	3393.48
794.07	3088.34
794.25	3098.58
794.42	3299.28
794.60	3215.31
794.77	3160.02
794.95	3186.64
795.12	3499.98
795.30	3196.88
795.47	2895.83
795.65	3450.83
795.82	3358.67
796.00	3131.34
796.17	3114.96
796.34	2944.98
796.52	3309.52
796.69	3411.92
796.87	3129.30
797.04	3262.41
797.22	3516.36
797.39	3303.37
797.57	3233.74
797.74	3180.50
797.92	3381.20
798.09	3139.54
798.27	3422.16
798.44	3035.09
798.62	3162.06
798.79	3303.37
798.96	3229.65
799.14	3061.71
799.31	3778.50
799.49	3200.98
799.66	3061.71
799.84	3141.58
800.01	2959.31
800.19	3311.57
800.36	2846.68
800.53	3135.44
800.71	3387.34
800.88	3620.81
801.06	3041.23
801.23	2996.18
801.41	3311.57
801.58	3139.54
801.75	3086.29
801.93	3098.58
802.10	3379.15
802.28	3321.81
802.45	3059.67
802.63	3100.62
802.80	3485.64
802.97	3129.30
803.15	3114.96
803.32	3069.91
803.50	3055.57
803.67	3110.86
803.84	3000.27
804.02	3157.97
804.19	3123.15
804.37	2787.29
804.54	2928.60
804.71	3133.39
804.89	3266.51
805.06	3168.21
805.24	3000.27
805.41	2877.40
805.58	3110.86
805.76	3655.62
805.93	3053.52
806.10	3235.79
806.28	3446.73
806.45	3233.74
806.63	3174.35
806.80	3098.58
806.97	3313.61
807.15	3340.24
807.32	3157.97
807.49	3014.61
807.67	3008.47
807.84	3358.67
808.01	2865.11
808.19	3327.95
808.36	3674.06
808.54	3180.50
808.71	3088.34
808.88	3071.95
809.06	3518.41
809.23	3534.79
809.40	3080.14
809.58	3047.38
809.75	3192.78
809.92	3065.81
810.10	3360.72
810.27	3041.23
810.44	3362.76
810.62	3389.39
810.79	3149.78
810.96	3033.04
811.14	3180.50
811.31	3368.91
811.48	3248.08
811.66	3074.00
811.83	3497.93
812.00	3401.68
812.18	3100.62
812.35	3354.57
812.52	3213.26
812.69	3176.40
812.87	3082.19
813.04	2985.94
813.21	3190.74
813.39	3094.48
813.56	3020.75
813.73	3352.52
813.91	2992.08
814.08	3223.50
814.25	3129.30
814.42	2850.77
814.60	3205.07
814.77	3342.28
814.94	3100.62
815.12	3127.25
815.29	3618.76
815.46	3145.68
815.63	3086.29
815.81	3053.52
815.98	3166.16
816.15	3264.46
816.33	3143.63
816.50	3098.58
816.67	3248.08
816.84	3180.50
817.02	2987.99
817.19	3051.47
817.36	3385.29
817.53	3303.37
817.71	2992.08
817.88	3074.00
818.05	3233.74
818.22	3112.91
818.40	3284.94
818.57	2998.23
818.74	3278.80
818.91	3356.62
819.09	3330.00
819.26	3237.84
819.43	3112.91
819.60	3125.20
819.78	3162.06
819.95	3205.07
820.12	3043.28
820.29	3569.61
820.47	3344.33
820.64	2983.89
820.81	2983.89
820.98	3131.34
821.15	3000.27
821.33	3311.57
821.50	2996.18
821.67	3481.55
821.84	2973.65
822.02	3065.81
822.19	3407.82
822.36	3166.16
822.53	3061.71
822.70	3014.61
822.88	3176.40
823.05	3510.22
823.22	3217.36
823.39	3143.63
823.56	3219.41
823.74	3624.90
823.91	3012.56
824.08	3020.75
824.25	3069.91
824.42	3624.90
824.60	2932.69
824.77	3147.73
824.94	3166.16
825.11	3366.86
825.28	2965.46
825.45	3219.41
825.63	3270.61
825.80	3080.14
825.97	3160.02
826.14	3174.35
826.31	2961.36
826.48	3295.18
826.66	3131.34
826.83	3065.81
827.00	3231.69
827.17	3114.96
827.34	3053.52
827.51	2977.75
827.69	3205.07
827.86	3006.42
828.03	3018.71
828.20	3071.95
828.37	3198.93
828.54	3305.42
828.71	2985.94
828.89	3174.35
829.06	3315.66
829.23	3532.75
829.40	3092.43
829.57	3065.81
829.74	3383.24
829.91	3139.54
830.09	3043.28
830.26	3237.84
830.43	3600.33
830.60	3182.54
830.77	3215.31
830.94	3258.32
831.11	3368.91
831.28	3225.55
831.46	3241.93
831.63	3037.14
831.80	3463.12
831.97	3086.29
832.14	3082.19
832.31	3082.19
832.48	3291.09
832.65	3499.98
832.82	3241.93
832.99	3176.40
833.17	3057.62
833.34	3600.33
833.51	2944.98
833.68	2754.52
833.85	3436.49
834.02	3047.38
834.19	2944.98
834.36	3114.96
834.53	3356.62
834.70	3454.92
834.87	3045.33
835.04	2803.67
835.22	3112.91
835.39	3262.41
835.56	2877.40
835.73	2871.25
835.90	3479.50
836.07	3102.67
836.24	3037.14
836.41	2955.22
836.58	3065.81
836.75	3456.97
836.92	2977.75
837.09	2879.44
837.26	3405.77
837.43	3393.48
837.60	2959.31
837.77	2897.88
837.94	3426.25
838.12	3532.75
838.29	2852.82
838.46	2852.82
838.63	3045.33
838.80	3549.13
838.97	2955.22
839.14	2963.41
839.31	3373.00
839.48	3454.92
839.65	2895.83
839.82	3053.52
839.99	3332.05
840.16	3286.99
840.33	2897.88
840.50	2985.94
840.67	3133.39
840.84	2758.61
841.01	2877.40
841.18	2809.81
841.35	3258.32
841.52	3436.49
841.69	3215.31
841.86	2969.55
842.03	3207.12
842.20	3483.59
842.37	2908.12
842.54	2947.03
842.71	3270.61
842.88	2953.17
843.05	2869.20
843.22	2873.30
843.39	3397.58
843.56	3188.69
843.73	2934.74
843.90	2975.70
844.07	3299.28
844.24	3397.58
844.41	2979.79
844.58	2957.27
844.75	3246.03
844.92	3280.85
845.09	2953.17
845.26	2895.83
845.43	3377.10
845.60	3119.06
845.77	3049.43
845.94	3016.66
846.10	3454.92
846.27	2918.36
846.44	2807.77
846.61	2787.29
846.78	3346.38
846.95	3475.40
847.12	2895.83
847.29	3018.71
847.46	3139.54
847.63	3469.26
847.80	2871.25
847.97	2977.75
848.14	3733.45
848.31	3239.89
848.48	2867.16
848.65	2877.40
848.82	3135.44
848.98	3721.16
849.15	3057.62
849.32	3084.24
849.49	3524.55
849.66	3254.22
849.83	2842.58
850.00	2904.02
850.17	3393.48
850.34	3160.02
850.51	2840.53
850.68	2920.40
850.85	3778.50
851.01	3274.70
851.18	2795.48
851.35	2987.99
851.52	3370.96
851.69	3493.83
851.86	2901.97
852.03	2846.68
852.20	3364.81
852.37	3231.69
852.53	2807.77
852.70	2801.62
852.87	3323.85
853.04	3352.52
853.21	2936.79
853.38	3172.30
853.55	3559.37
853.72	3469.26
853.89	2775.00
854.05	2856.92
854.22	3231.69
854.39	3123.15
854.56	2863.06
854.73	3059.67
854.90	3065.81
855.07	3254.22
855.23	2801.62
855.40	2861.01
855.57	3260.37
855.74	2815.96
855.91	3147.73
856.08	2713.56
856.25	3065.81
856.41	3106.77
856.58	2957.27
856.75	2928.60
856.92	3045.33
857.09	3459.02
857.26	2762.71
857.42	2951.12
857.59	3385.29
857.76	3233.74
857.93	2854.87
858.10	2994.13
858.27	3069.91
858.43	3276.75
858.60	2877.40
858.77	2865.11
858.94	3127.25
859.11	3428.30
859.27	2979.79
859.44	2797.53
859.61	3698.63
859.78	3401.68
859.95	2846.68
860.12	2861.01
860.28	3766.21
860.45	3590.09
860.62	2854.87
860.79	3088.34
860.95	3188.69
861.12	3037.14
861.29	2793.43
861.46	2822.10
861.63	3254.22
861.79	3262.41
861.96	2818.00
862.13	2885.59
862.30	3590.09
862.47	3127.25
862.63	2809.81
862.80	2951.12
862.97	3348.43
863.14	3356.62
863.30	2961.36
863.47	2885.59
863.64	3514.31
863.81	3278.80
863.97	2787.29
864.14	2963.41
864.31	3100.62
864.48	3241.93
864.65	2912.21
864.81	3000.27
864.98	3336.14
865.15	3446.73
865.32	3018.71
865.48	3037.14
865.65	3551.18
865.82	3076.05
865.98	3012.56
866.15	2916.31
866.32	3223.50
866.49	3237.84
866.65	3080.14
866.82	2914.26
866.99	3196.88
867.16	3176.40
867.32	2959.31
867.49	2856.92
867.66	3221.45
867.83	3117.01
867.99	2934.74
868.16	2944.98
868.33	2969.55
868.49	3239.89
868.66	2871.25
868.83	3063.76
868.99	3282.89
869.16	3254.22
869.33	3110.86
869.50	2969.55
869.66	3262.41
869.83	3147.73
870.00	2836.44
870.16	3043.28
870.33	3213.26
870.50	3461.07
870.66	3008.47
870.83	2944.98
871.00	3299.28
871.17	3268.56
871.33	3016.66
871.50	2942.93
871.67	3336.14
871.83	2938.84
872.00	3037.14
872.17	3026.90
872.33	3631.05
872.50	3387.34
872.67	2895.83
872.83	2822.10
873.00	3297.23
873.17	3274.70
873.33	2985.94
873.50	2961.36
873.67	3039.19
873.83	3155.92
874.00	2865.11
874.16	3061.71
874.33	3225.55
874.50	3000.27
874.66	2897.88
874.83	3061.71
875.00	3473.36
875.16	3436.49
875.33	2967.51
875.50	2701.27
875.66	3147.73
875.83	3327.95
875.99	3026.90
876.16	3065.81
876.33	3061.71
876.49	3129.30
876.66	3022.80
876.83	2985.94
876.99	2908.12
877.16	3291.09
877.32	2922.45
877.49	3004.37
877.66	3370.96
877.82	3569.61
877.99	2963.41
878.15	3155.92
878.32	3262.41
878.49	3342.28
878.65	3078.10
878.82	3211.22
878.98	3205.07
879.15	3444.68
879.32	3133.39
879.48	3147.73
879.65	3184.59
879.81	3217.36
879.98	2987.99
880.15	3024.85
880.31	3323.85
880.48	3114.96
880.64	2992.08
880.81	2975.70
880.97	3557.32
881.14	3538.89
881.31	2852.82
881.47	3024.85
881.64	3190.74
881.80	2953.17
881.97	3076.05
882.13	2895.83
882.30	2949.08
882.47	3018.71
882.63	3016.66
882.80	2926.55
882.96	3207.12
883.13	3534.79
883.29	2871.25
883.46	2926.55
883.62	3717.06
883.79	3246.03
883.95	3047.38
884.12	2904.02
884.29	3524.55
884.45	3270.61
884.62	2994.13
884.78	2942.93
884.95	3575.75
885.11	3045.33
885.28	2940.88
885.44	3033.04
885.61	3405.77
885.77	3561.42
885.94	3051.47
886.10	2934.74
886.27	3270.61
886.43	3604.42
886.60	3196.88
886.76	2955.22
886.93	3082.19
887.09	3274.70
887.26	2820.05
887.42	2998.23
887.59	3336.14
887.75	3682.25
887.92	3106.77
888.08	2992.08
888.25	3585.99
888.41	3422.16
888.58	2926.55
888.74	2832.34
888.91	3164.11
>>>>>End Processed Spectral Data<<<<<
