SpectraSuite Data File
++++++++++++++++++++++++++++++++++++
Date: Fri May 06 08:13:59 CEST 2016
User: root
Dark Spectrum Present: No
Reference Spectrum Present: No
Number of Sampled Component Spectra: 1
Spectrometers: USB4C02835
Integration Time (usec): 100000 (USB4C02835)
Spectra Averaged: 1 (USB4C02835)
Boxcar Smoothing: 0 (USB4C02835)
Correct for Electrical Dark: No (USB4C02835)
Strobe/Lamp Enabled: No (USB4C02835)
Correct for Detector Non-linearity: No (USB4C02835)
Correct for Stray Light: No (USB4C02835)
Number of Pixels in Processed Spectrum: 3648
>>>>>Begin Processed Spectral Data<<<<<
177.47	2279.39
177.69	2279.39
177.91	2279.39
178.13	2248.67
178.36	2197.47
178.58	3035.09
178.80	3166.16
179.02	3026.90
179.24	3094.48
179.46	2672.60
179.68	2875.35
179.90	3311.57
180.13	3258.32
180.35	2627.54
180.57	2764.76
180.79	3368.91
181.01	3166.16
181.23	2906.07
181.45	3008.47
181.67	3387.34
181.90	3477.45
182.12	2889.68
182.34	2625.50
182.56	3350.48
182.78	3346.38
183.00	2801.62
183.22	2840.53
183.44	2889.68
183.66	3835.85
183.89	3002.32
184.11	2895.83
184.33	3444.68
184.55	3516.36
184.77	2844.63
184.99	2912.21
185.21	3094.48
185.43	3786.69
185.65	2916.31
185.87	2904.02
186.10	3735.50
186.32	3807.17
186.54	3016.66
186.76	2940.88
186.98	3620.81
187.20	3309.52
187.42	2867.16
187.64	2820.05
187.86	3332.05
188.08	3534.79
188.30	2803.67
188.52	2922.45
188.75	3723.21
188.97	3471.31
189.19	2854.87
189.41	2885.59
189.63	3377.10
189.85	3198.93
190.07	2742.23
190.29	2787.29
190.51	3323.85
190.73	3043.28
190.95	3035.09
191.17	2871.25
191.39	2992.08
191.61	3237.84
191.84	2844.63
192.06	3002.32
192.28	2975.70
192.50	3921.86
192.72	3010.51
192.94	3010.51
193.16	3489.74
193.38	3389.39
193.60	2754.52
193.82	2969.55
194.04	3524.55
194.26	3291.09
194.48	2926.55
194.70	2832.34
194.92	3166.16
195.14	3418.06
195.36	2897.88
195.58	2955.22
195.80	3262.41
196.02	3200.98
196.24	2836.44
196.46	2934.74
196.69	3229.65
196.91	3798.98
197.13	2992.08
197.35	2924.50
197.57	3592.14
197.79	3459.02
198.01	2920.40
198.23	2867.16
198.45	3350.48
198.67	3008.47
198.89	2721.75
199.11	2977.75
199.33	3149.78
199.55	2854.87
199.77	2727.89
199.99	2983.89
200.21	3180.50
200.43	3407.82
200.65	2727.89
200.87	2680.79
201.09	3231.69
201.31	3229.65
201.53	2920.40
201.75	2924.50
201.97	3399.63
202.19	3330.00
202.41	2953.17
202.63	2955.22
202.85	3442.64
203.07	3270.61
203.29	3010.51
203.51	2719.70
203.73	3170.26
203.95	3966.92
204.17	2887.64
204.39	3045.33
204.61	3256.27
204.83	3213.26
205.05	3051.47
205.27	2809.81
205.49	3696.58
205.71	3229.65
205.93	2711.51
206.15	2756.57
206.37	3325.90
206.59	3239.89
206.81	2711.51
207.03	2805.72
207.25	3149.78
207.47	3450.83
207.69	2820.05
207.91	3080.14
208.13	3506.12
208.34	3246.03
208.56	2877.40
208.78	2912.21
209.00	3215.31
209.22	3291.09
209.44	2854.87
209.66	2875.35
209.88	3241.93
210.10	3131.34
210.32	2770.90
210.54	2875.35
210.76	3223.50
210.98	3477.45
211.20	2725.85
211.42	2920.40
211.64	3530.70
211.86	3401.68
212.08	2990.03
212.30	2881.49
212.52	3278.80
212.74	3434.44
212.96	2934.74
213.17	2967.51
213.39	3514.31
213.61	3680.20
213.83	2752.47
214.05	2787.29
214.27	3532.75
214.49	3065.81
214.71	2861.01
214.93	2967.51
215.15	3393.48
215.37	3516.36
215.59	2756.57
215.81	2918.36
216.03	3555.27
216.24	3323.85
216.46	2914.26
216.68	2897.88
216.90	3405.77
217.12	3499.98
217.34	2797.53
217.56	3112.91
217.78	3616.71
218.00	3420.11
218.22	2963.41
218.44	2992.08
218.66	3334.09
218.87	3573.71
219.09	2922.45
219.31	2856.92
219.53	3321.81
219.75	3237.84
219.97	2940.88
220.19	2910.16
220.41	3258.32
220.63	3532.75
220.85	2828.24
221.06	2865.11
221.28	3553.23
221.50	3313.61
221.72	2856.92
221.94	2764.76
222.16	3368.91
222.38	3461.07
222.60	2822.10
222.82	2932.69
223.03	3510.22
223.25	2979.79
223.47	2795.48
223.69	3092.43
223.91	3475.40
224.13	3274.70
224.35	2750.42
224.57	3069.91
224.78	3391.44
225.00	3057.62
225.22	3063.76
225.44	2785.24
225.66	3467.21
225.88	3155.92
226.10	3041.23
226.32	2873.30
226.53	3622.86
226.75	3246.03
226.97	2967.51
227.19	2897.88
227.41	3131.34
227.63	3139.54
227.85	2664.41
228.06	2920.40
228.28	3332.05
228.50	3493.83
228.72	2707.41
228.94	2844.63
229.16	2949.08
229.37	2977.75
229.59	2789.33
229.81	3186.64
230.03	3190.74
230.25	3069.91
230.47	2762.71
230.69	2869.20
230.90	3536.84
231.12	3084.24
231.34	2967.51
231.56	3041.23
231.78	3045.33
232.00	3219.41
232.21	2924.50
232.43	2942.93
232.65	2961.36
232.87	3348.43
233.09	2768.85
233.30	2861.01
233.52	3542.99
233.74	3256.27
233.96	2824.15
234.18	3074.00
234.40	3262.41
234.61	3747.78
234.83	2797.53
235.05	2861.01
235.27	3731.40
235.49	3590.09
235.70	2738.13
235.92	2899.92
236.14	3454.92
236.36	3821.51
236.58	2711.51
236.79	3002.32
237.01	3295.18
237.23	3190.74
237.45	3065.81
237.67	2961.36
237.88	3270.61
238.10	3696.58
238.32	2820.05
238.54	2830.29
238.76	3270.61
238.97	3067.86
239.19	2738.13
239.41	2920.40
239.63	3530.70
239.85	3237.84
240.06	2971.60
240.28	2785.24
240.50	3473.36
240.72	3221.45
240.93	2834.39
241.15	3026.90
241.37	3280.85
241.59	3489.74
241.81	2881.49
242.02	2899.92
242.24	3364.81
242.46	3379.15
242.68	2740.18
242.89	2811.86
243.11	3536.84
243.33	3291.09
243.55	2844.63
243.76	2834.39
243.98	3182.54
244.20	3321.81
244.42	2897.88
244.64	2875.35
244.85	3039.19
245.07	3174.35
245.29	2914.26
245.51	2852.82
245.72	3387.34
245.94	3563.47
246.16	2729.94
246.38	2830.29
246.59	3180.50
246.81	3141.58
247.03	2744.28
247.24	2781.14
247.46	3200.98
247.68	3344.33
247.90	2746.33
248.11	2906.07
248.33	3493.83
248.55	3241.93
248.77	2961.36
248.98	2895.83
249.20	3590.09
249.42	3286.99
249.64	2813.91
249.85	2799.57
250.07	3207.12
250.29	3456.97
250.50	2904.02
250.72	2750.42
250.94	3325.90
251.16	3827.65
251.37	2869.20
251.59	2985.94
251.81	3381.20
252.02	3522.51
252.24	2818.00
252.46	3008.47
252.68	3041.23
252.89	3205.07
253.11	2740.18
253.33	2951.12
253.54	3606.47
253.76	3117.01
253.98	2717.65
254.20	2848.72
254.41	3053.52
254.63	3315.66
254.85	2727.89
255.06	2885.59
255.28	3379.15
255.50	3135.44
255.71	2893.78
255.93	2658.26
256.15	3315.66
256.36	3336.14
256.58	2746.33
256.80	2783.19
257.02	3256.27
257.23	3264.46
257.45	2871.25
257.67	3018.71
257.88	3239.89
258.10	3438.54
258.32	2834.39
258.53	2967.51
258.75	3557.32
258.97	3084.24
259.18	2840.53
259.40	2904.02
259.62	3608.52
259.83	3635.14
260.05	2854.87
260.27	3864.52
260.48	3506.12
260.70	3090.38
260.92	2787.29
261.13	2901.97
261.35	3381.20
261.57	3393.48
261.78	2734.04
262.00	2770.90
262.22	3381.20
262.43	3147.73
262.65	2924.50
262.86	2838.48
263.08	3811.27
263.30	3262.41
263.51	2707.41
263.73	2756.57
263.95	3643.34
264.16	3076.05
264.38	2768.85
264.60	2740.18
264.81	3286.99
265.03	3450.83
265.25	3284.94
265.46	2840.53
265.68	3493.83
265.89	3461.07
266.11	2697.17
266.33	2805.72
266.54	3502.03
266.76	3368.91
266.98	2955.22
267.19	3112.91
267.41	3438.54
267.62	3301.33
267.84	2629.59
268.06	2965.46
268.27	3325.90
268.49	3528.65
268.70	2897.88
268.92	2932.69
269.14	3084.24
269.35	2942.93
269.57	3002.32
269.79	2967.51
270.00	3145.68
270.22	3590.09
270.43	2676.70
270.65	2766.81
270.87	3217.36
271.08	3434.44
271.30	2901.97
271.51	2768.85
271.73	3385.29
271.95	3540.94
272.16	2826.20
272.38	3059.67
272.59	3213.26
272.81	3463.12
273.02	2779.09
273.24	2881.49
273.46	3579.85
273.67	3033.04
273.89	2717.65
274.10	2799.57
274.32	3553.23
274.54	3258.32
274.75	2877.40
274.97	3043.28
275.18	3442.64
275.40	3375.05
275.61	2942.93
275.83	3049.43
276.05	3078.10
276.26	3297.23
276.48	3004.37
276.69	3123.15
276.91	3200.98
277.12	3481.55
277.34	3119.06
277.55	3117.01
277.77	3330.00
277.99	3166.16
278.20	2996.18
278.42	2918.36
278.63	3114.96
278.85	3149.78
279.06	2926.55
279.28	3094.48
279.49	3475.40
279.71	3440.59
279.93	3082.19
280.14	3084.24
280.36	3172.30
280.57	3407.82
280.79	3108.82
281.00	2858.96
281.22	3172.30
281.43	3549.13
281.65	2797.53
281.86	2928.60
282.08	3403.72
282.29	3692.49
282.51	2891.73
282.73	2832.34
282.94	2904.02
283.16	3444.68
283.37	3045.33
283.59	2983.89
283.80	3401.68
284.02	3231.69
284.23	3069.91
284.45	3049.43
284.66	3106.77
284.88	3227.60
285.09	3014.61
285.31	3018.71
285.52	3350.48
285.74	2971.60
285.95	3223.50
286.17	3047.38
286.38	3508.17
286.60	3127.25
286.81	2971.60
287.03	2920.40
287.24	3280.85
287.46	3395.53
287.67	3141.58
287.89	3198.93
288.10	3323.85
288.32	3332.05
288.53	3133.39
288.75	2979.79
288.96	3450.83
289.18	3184.59
289.39	2957.27
289.61	3082.19
289.82	3672.01
290.04	3598.28
290.25	2838.48
290.47	3082.19
290.68	3250.13
290.90	3450.83
291.11	2838.48
291.33	3164.11
291.54	3176.40
291.76	3094.48
291.97	3074.00
292.18	3082.19
292.40	3121.10
292.61	3082.19
292.83	3381.20
293.04	3057.62
293.26	3360.72
293.47	3117.01
293.69	2867.16
293.90	2887.64
294.12	3618.76
294.33	3239.89
294.55	2996.18
294.76	3186.64
294.97	3547.08
295.19	3696.58
295.40	2944.98
295.62	3119.06
295.83	3536.84
296.05	3112.91
296.26	3258.32
296.48	3035.09
296.69	3221.45
296.90	3231.69
297.12	3237.84
297.33	3180.50
297.55	3389.39
297.76	3346.38
297.98	3035.09
298.19	3188.69
298.41	3248.08
298.62	3127.25
298.83	3221.45
299.05	3030.99
299.26	3151.82
299.48	3110.86
299.69	3100.62
299.90	3033.04
300.12	3155.92
300.33	3450.83
300.55	3069.91
300.76	3043.28
300.98	3069.91
301.19	3442.64
301.40	3035.09
301.62	2971.60
301.83	3397.58
302.05	3305.42
302.26	3039.19
302.47	3110.86
302.69	3000.27
302.90	3205.07
303.12	2799.57
303.33	3098.58
303.54	3633.10
303.76	3182.54
303.97	2846.68
304.19	3164.11
304.40	3121.10
304.61	3397.58
304.83	3092.43
305.04	3057.62
305.26	3370.96
305.47	3139.54
305.68	3020.75
305.90	2869.20
306.11	3555.27
306.33	3280.85
306.54	2854.87
306.75	2901.97
306.97	2940.88
307.18	3061.71
307.39	3053.52
307.61	3119.06
307.82	3221.45
308.04	3405.77
308.25	2924.50
308.46	3211.22
308.68	3282.89
308.89	3297.23
309.10	3063.76
309.32	3071.95
309.53	3241.93
309.74	3360.72
309.96	2926.55
310.17	3127.25
310.39	3166.16
310.60	3459.02
310.81	2979.79
311.03	2901.97
311.24	3428.30
311.45	3286.99
311.67	3200.98
311.88	3123.15
312.09	3131.34
312.31	3127.25
312.52	2924.50
312.73	2908.12
312.95	2961.36
313.16	3155.92
313.37	3198.93
313.59	3153.87
313.80	3362.76
314.01	3573.71
314.23	3063.76
314.44	2930.64
314.65	2994.13
314.87	3096.53
315.08	2973.65
315.29	3006.42
315.51	3096.53
315.72	3055.57
315.93	3092.43
316.15	3067.86
316.36	3164.11
316.57	3332.05
316.79	2906.07
317.00	2928.60
317.21	3411.92
317.43	3063.76
317.64	3022.80
317.85	2969.55
318.07	3043.28
318.28	3172.30
318.49	3086.29
318.70	3225.55
318.92	3280.85
319.13	3420.11
319.34	3205.07
319.56	3008.47
319.77	3391.44
319.98	3479.50
320.20	3286.99
320.41	3108.82
320.62	3362.76
320.83	3071.95
321.05	3217.36
321.26	3030.99
321.47	3231.69
321.69	3522.51
321.90	2914.26
322.11	2969.55
322.32	3313.61
322.54	3614.66
322.75	3024.85
322.96	3958.72
323.18	3067.86
323.39	2901.97
323.60	2848.72
323.81	3131.34
324.03	3135.44
324.24	3295.18
324.45	3123.15
324.66	2918.36
324.88	3467.21
325.09	3614.66
325.30	3000.27
325.52	2918.36
325.73	3291.09
325.94	3172.30
326.15	2887.64
326.37	2924.50
326.58	3430.35
326.79	3692.49
327.00	2936.79
327.22	2971.60
327.43	3231.69
327.64	3086.29
327.85	3174.35
328.07	3000.27
328.28	3669.96
328.49	3196.88
328.70	3028.95
328.92	3008.47
329.13	3237.84
329.34	3299.28
329.55	3241.93
329.76	3141.58
329.98	3262.41
330.19	3502.03
330.40	3102.67
330.61	3160.02
330.83	3440.59
331.04	3123.15
331.25	3039.19
331.46	3112.91
331.68	3094.48
331.89	3434.44
332.10	3002.32
332.31	2873.30
332.52	3330.00
332.74	3534.79
332.95	2861.01
333.16	2971.60
333.37	3471.31
333.58	3133.39
333.80	3035.09
334.01	2779.09
334.22	3268.56
334.43	3123.15
334.64	2963.41
334.86	2983.89
335.07	3131.34
335.28	3631.05
335.49	2893.78
335.70	3094.48
335.92	3663.82
336.13	3727.30
336.34	3090.38
336.55	2965.46
336.76	3360.72
336.98	2869.20
337.19	3049.43
337.40	3090.38
337.61	3747.78
337.82	3272.65
338.04	3108.82
338.25	2889.68
338.46	3151.82
338.67	3157.97
338.88	2906.07
339.09	2959.31
339.31	3166.16
339.52	3100.62
339.73	2959.31
339.94	2983.89
340.15	3342.28
340.36	3225.55
340.58	3061.71
340.79	2869.20
341.00	3346.38
341.21	3069.91
341.42	3286.99
341.63	2975.70
341.85	3485.64
342.06	3383.24
342.27	2922.45
342.48	3217.36
342.69	3012.56
342.90	3401.68
343.12	3274.70
343.33	2944.98
343.54	3461.07
343.75	3497.93
343.96	3176.40
344.17	2985.94
344.38	3289.04
344.60	3117.01
344.81	3024.85
345.02	3024.85
345.23	3485.64
345.44	3782.60
345.65	3102.67
345.86	3078.10
346.07	3278.80
346.29	3133.39
346.50	3143.63
346.71	3106.77
346.92	3577.80
347.13	3762.12
347.34	3106.77
347.55	2893.78
347.76	3360.72
347.98	2975.70
348.19	3131.34
348.40	3207.12
348.61	3131.34
348.82	3633.10
349.03	3096.53
349.24	2891.73
349.45	3588.04
349.66	2830.29
349.88	2987.99
350.09	3004.37
350.30	3532.75
350.51	3499.98
350.72	3254.22
350.93	2944.98
351.14	3168.21
351.35	3442.64
351.56	3020.75
351.77	3137.49
351.99	3413.96
352.20	3592.14
352.41	3082.19
352.62	2781.14
352.83	3299.28
353.04	3219.41
353.25	3024.85
353.46	3020.75
353.67	3493.83
353.88	2904.02
354.09	2944.98
354.30	3065.81
354.52	3446.73
354.73	3227.60
354.94	2953.17
355.15	3123.15
355.36	3723.21
355.57	3200.98
355.78	2944.98
355.99	2901.97
356.20	3241.93
356.41	3540.94
356.62	3076.05
356.83	3024.85
357.04	3520.46
357.25	2912.21
357.46	2981.84
357.68	2914.26
357.89	3069.91
358.10	3315.66
358.31	2983.89
358.52	3026.90
358.73	3016.66
358.94	2987.99
359.15	3008.47
359.36	3035.09
359.57	3276.75
359.78	3186.64
359.99	3196.88
360.20	2875.35
360.41	3254.22
360.62	3360.72
360.83	3082.19
361.04	2979.79
361.25	3366.86
361.46	3563.47
361.67	3096.53
361.88	3088.34
362.09	3538.89
362.30	3407.82
362.51	2918.36
362.72	3153.87
362.93	3418.06
363.14	3440.59
363.35	3137.49
363.56	2940.88
363.78	3514.31
363.99	3442.64
364.20	2953.17
364.41	3057.62
364.62	3672.01
364.83	3375.05
365.04	3002.32
365.25	3076.05
365.46	3782.60
365.67	3141.58
365.88	3205.07
366.09	3033.04
366.30	3108.82
366.51	3315.66
366.72	2973.65
366.93	2940.88
367.14	3155.92
367.35	3549.13
367.56	2947.03
367.77	3143.63
367.98	3356.62
368.18	3399.63
368.39	3176.40
368.60	3008.47
368.81	3413.96
369.02	3348.43
369.23	2971.60
369.44	2875.35
369.65	3219.41
369.86	3426.25
370.07	3028.95
370.28	2840.53
370.49	3319.76
370.70	3342.28
370.91	2955.22
371.12	2893.78
371.33	3520.46
371.54	3149.78
371.75	3139.54
371.96	2734.04
372.17	3336.14
372.38	3243.98
372.59	3045.33
372.80	2891.73
373.01	3207.12
373.22	3252.17
373.43	3024.85
373.64	2877.40
373.85	3499.98
374.06	3596.23
374.26	3121.10
374.47	3239.89
374.68	3502.03
374.89	3248.08
375.10	2951.12
375.31	3045.33
375.52	3305.42
375.73	3334.09
375.94	2844.63
376.15	3180.50
376.36	3117.01
376.57	3067.86
376.78	3016.66
376.99	3002.32
377.20	3561.42
377.40	3211.22
377.61	3291.09
377.82	2994.13
378.03	3524.55
378.24	3499.98
378.45	3190.74
378.66	3080.14
378.87	2899.92
379.08	3045.33
379.29	2975.70
379.50	3164.11
379.71	3215.31
379.91	3473.36
380.12	2930.64
380.33	3082.19
380.54	3207.12
380.75	3303.37
380.96	2981.84
381.17	3076.05
381.38	3264.46
381.59	3307.47
381.80	3110.86
382.00	3229.65
382.21	3295.18
382.42	3569.61
382.63	3389.39
382.84	3192.78
383.05	3502.03
383.26	3573.71
383.47	3155.92
383.68	2951.12
383.88	3295.18
384.09	3237.84
384.30	3207.12
384.51	3100.62
384.72	3188.69
384.93	3030.99
385.14	3059.67
385.35	3284.94
385.55	3004.37
385.76	3573.71
385.97	3065.81
386.18	2912.21
386.39	3131.34
386.60	3160.02
386.81	3084.24
387.02	2920.40
387.22	2953.17
387.43	3373.00
387.64	3061.71
387.85	3221.45
388.06	3252.17
388.27	4417.47
388.48	7819.14
388.68	12009.29
388.89	15030.04
389.10	16652.03
389.31	16084.75
389.52	13037.37
389.73	11263.83
389.93	10137.45
390.14	9203.57
390.35	8621.95
390.56	7849.86
390.77	6594.46
390.98	4984.76
391.18	4169.66
391.39	3885.00
391.60	3282.89
391.81	3313.61
392.02	3100.62
392.23	3764.17
392.43	3307.47
392.64	3192.78
392.85	3133.39
393.06	3651.53
393.27	3207.12
393.47	2934.74
393.68	3051.47
393.89	3194.83
394.10	3526.60
394.31	3049.43
394.52	2971.60
394.72	3133.39
394.93	3608.52
395.14	2961.36
395.35	3065.81
395.56	3114.96
395.76	3307.47
395.97	3041.23
396.18	3139.54
396.39	3334.09
396.60	3960.77
396.80	3506.12
397.01	3258.32
397.22	3516.36
397.43	3555.27
397.64	3063.76
397.84	3084.24
398.05	3710.92
398.26	3227.60
398.47	3176.40
398.67	3239.89
398.88	3278.80
399.09	3477.45
399.30	3016.66
399.51	3114.96
399.71	3131.34
399.92	3213.26
400.13	3090.38
400.34	3080.14
400.54	3313.61
400.75	3661.77
400.96	3164.11
401.17	3375.05
401.37	3356.62
401.58	3227.60
401.79	2998.23
402.00	3182.54
402.21	3835.85
402.41	3426.25
402.62	3397.58
402.83	3465.16
403.04	3663.82
403.24	4106.18
403.45	3176.40
403.66	3422.16
403.87	3442.64
404.07	3524.55
404.28	3309.52
404.49	3344.33
404.70	3430.35
404.90	3432.40
405.11	3069.91
405.32	3102.67
405.52	3250.13
405.73	3182.54
405.94	2951.12
406.15	3086.29
406.35	3393.48
406.56	3442.64
406.77	3125.20
406.98	2987.99
407.18	3119.06
407.39	3626.95
407.60	3059.67
407.80	3084.24
408.01	3145.68
408.22	3293.13
408.43	2983.89
408.63	3125.20
408.84	3456.97
409.05	3442.64
409.25	2938.84
409.46	3069.91
409.67	3133.39
409.88	3129.30
410.08	3043.28
410.29	3002.32
410.50	3446.73
410.70	3387.34
410.91	2959.31
411.12	3162.06
411.32	3305.42
411.53	3166.16
411.74	3008.47
411.95	3137.49
412.15	3266.51
412.36	3436.49
412.57	3190.74
412.77	3246.03
412.98	3293.13
413.19	3215.31
413.39	3180.50
413.60	3133.39
413.81	3604.42
414.01	3014.61
414.22	3080.14
414.43	3207.12
414.63	3205.07
414.84	3526.60
415.05	3088.34
415.25	2930.64
415.46	3442.64
415.67	3131.34
415.87	3088.34
416.08	3043.28
416.29	3198.93
416.49	3418.06
416.70	3080.14
416.91	2951.12
417.11	3188.69
417.32	3475.40
417.53	3200.98
417.73	3246.03
417.94	3256.27
418.15	3280.85
418.35	3157.97
418.56	3114.96
418.77	3776.45
418.97	3289.04
419.18	3147.73
419.38	2764.76
419.59	3241.93
419.80	3538.89
420.00	2914.26
420.21	3078.10
420.42	3555.27
420.62	3274.70
420.83	3067.86
421.04	3022.80
421.24	3192.78
421.45	3401.68
421.65	3024.85
421.86	3059.67
422.07	3493.83
422.27	3346.38
422.48	3035.09
422.69	2852.82
422.89	3229.65
423.10	3235.79
423.30	2934.74
423.51	3090.38
423.72	3461.07
423.92	3401.68
424.13	2926.55
424.33	3143.63
424.54	3395.53
424.75	3311.57
424.95	3241.93
425.16	3065.81
425.36	3284.94
425.57	3454.92
425.78	3178.45
425.98	3141.58
426.19	3340.24
426.39	3125.20
426.60	3108.82
426.81	3203.02
427.01	3344.33
427.22	3213.26
427.42	2871.25
427.63	3006.42
427.83	3516.36
428.04	3665.86
428.25	3074.00
428.45	3182.54
428.66	3594.19
428.86	3299.28
429.07	3041.23
429.28	3117.01
429.48	3262.41
429.69	3157.97
429.89	3090.38
430.10	2979.79
430.30	3413.96
430.51	3491.79
430.71	3012.56
430.92	3143.63
431.13	3182.54
431.33	3438.54
431.54	3190.74
431.74	3254.22
431.95	3715.02
432.15	3168.21
432.36	3049.43
432.56	3145.68
432.77	3712.97
432.98	3680.20
433.18	3065.81
433.39	2920.40
433.59	3235.79
433.80	3772.36
434.00	3248.08
434.21	3076.05
434.41	3055.57
434.62	3766.21
434.82	2957.27
435.03	3010.51
435.23	3383.24
435.44	3049.43
435.64	3016.66
435.85	3125.20
436.06	3330.00
436.26	3526.60
436.47	3026.90
436.67	3008.47
436.88	3289.04
437.08	3479.50
437.29	3145.68
437.49	3231.69
437.70	3526.60
437.90	3188.69
438.11	3305.42
438.31	3057.62
438.52	3639.24
438.72	3481.55
438.93	3395.53
439.13	3223.50
439.34	3475.40
439.54	3196.88
439.75	3176.40
439.95	3166.16
440.16	3106.77
440.36	3266.51
440.57	3022.80
440.77	3094.48
440.98	3188.69
441.18	3387.34
441.39	2951.12
441.59	2996.18
441.80	3780.55
442.00	3305.42
442.21	3190.74
442.41	2967.51
442.62	3569.61
442.82	3045.33
443.02	3049.43
443.23	3074.00
443.43	3233.74
443.64	3499.98
443.84	2983.89
444.05	3127.25
444.25	3327.95
444.46	3291.09
444.66	3022.80
444.87	3356.62
445.07	2967.51
445.28	3219.41
445.48	3205.07
445.69	3157.97
445.89	3872.71
446.09	3192.78
446.30	3391.44
446.50	3475.40
446.71	5040.05
446.91	6379.42
447.12	7188.37
447.32	7655.31
447.53	7620.49
447.73	6475.68
447.93	5535.66
448.14	5334.96
448.34	5494.70
448.55	4511.68
448.75	4501.44
448.96	4212.67
449.16	4184.00
449.36	3909.57
449.57	3446.73
449.77	3078.10
449.98	3215.31
450.18	3344.33
450.39	2996.18
450.59	3239.89
450.79	3274.70
451.00	3133.39
451.20	3303.37
451.41	3098.58
451.61	3307.47
451.81	3346.38
452.02	2942.93
452.22	2998.23
452.43	3196.88
452.63	3133.39
452.84	3063.76
453.04	3008.47
453.24	3239.89
453.45	3151.82
453.65	3160.02
453.86	3100.62
454.06	3375.05
454.26	3354.57
454.47	2955.22
454.67	3246.03
454.87	3258.32
455.08	3274.70
455.28	3221.45
455.49	3248.08
455.69	3188.69
455.89	3715.02
456.10	3192.78
456.30	2998.23
456.51	3432.40
456.71	3297.23
456.91	3168.21
457.12	3035.09
457.32	3438.54
457.52	3033.04
457.73	3274.70
457.93	3174.35
458.14	3114.96
458.34	2922.45
458.54	3117.01
458.75	2985.94
458.95	3424.20
459.15	3438.54
459.36	3049.43
459.56	3018.71
459.76	3848.13
459.97	3254.22
460.17	3045.33
460.37	3094.48
460.58	3315.66
460.78	3450.83
460.99	3110.86
461.19	3037.14
461.39	3121.10
461.60	3186.64
461.80	3086.29
462.00	2883.54
462.21	3248.08
462.41	3174.35
462.61	2910.16
462.82	2844.63
463.02	3434.44
463.22	3188.69
463.43	3137.49
463.63	3022.80
463.83	3592.14
464.04	3375.05
464.24	3018.71
464.44	3151.82
464.64	3309.52
464.85	3385.29
465.05	3117.01
465.25	2973.65
465.46	3180.50
465.66	3454.92
465.86	3164.11
466.07	3020.75
466.27	3280.85
466.47	3049.43
466.68	2938.84
466.88	3182.54
467.08	3360.72
467.29	3450.83
467.49	3053.52
467.69	3250.13
467.89	3377.10
468.10	3305.42
468.30	3108.82
468.50	3108.82
468.71	3438.54
468.91	2987.99
469.11	3262.41
469.31	3106.77
469.52	3033.04
469.72	3643.34
469.92	3377.10
470.13	3106.77
470.33	3266.51
470.53	3336.14
470.73	3559.37
470.94	3835.85
471.14	4120.51
471.34	4667.32
471.54	4261.82
471.75	4085.70
471.95	3829.70
472.15	3772.36
472.36	3723.21
472.56	3588.04
472.76	3905.48
472.96	3784.65
473.17	3368.91
473.37	3286.99
473.57	3258.32
473.77	3422.16
473.98	3196.88
474.18	2981.84
474.38	4042.69
474.58	3170.26
474.79	2934.74
474.99	3250.13
475.19	3555.27
475.39	3106.77
475.60	3168.21
475.80	3065.81
476.00	3280.85
476.20	3248.08
476.41	3125.20
476.61	3065.81
476.81	3571.66
477.01	3074.00
477.21	3307.47
477.42	3254.22
477.62	3135.44
477.82	3416.01
478.02	3045.33
478.23	3180.50
478.43	3139.54
478.63	3241.93
478.83	3155.92
479.03	3147.73
479.24	3456.97
479.44	3592.14
479.64	3010.51
479.84	2764.76
480.04	3102.67
480.25	3436.49
480.45	3030.99
480.65	3012.56
480.85	3567.56
481.06	3125.20
481.26	3153.87
481.46	3131.34
481.66	3319.76
481.86	3117.01
482.06	3215.31
482.27	3006.42
482.47	3174.35
482.67	3352.52
482.87	3133.39
483.07	3092.43
483.28	3219.41
483.48	3024.85
483.68	3065.81
483.88	3035.09
484.08	2920.40
484.29	3119.06
484.49	3176.40
484.69	2916.31
484.89	3622.86
485.09	3516.36
485.29	3067.86
485.50	3190.74
485.70	3182.54
485.90	3522.51
486.10	3233.74
486.30	3018.71
486.50	3530.70
486.71	3233.74
486.91	3102.67
487.11	3121.10
487.31	3006.42
487.51	3493.83
487.71	3096.53
487.91	2947.03
488.12	3086.29
488.32	2805.72
488.52	3041.23
488.72	2793.43
488.92	3385.29
489.12	3514.31
489.32	3174.35
489.53	3016.66
489.73	3033.04
489.93	3643.34
490.13	3002.32
490.33	2899.92
490.53	3278.80
490.73	3411.92
490.94	2893.78
491.14	3114.96
491.34	3370.96
491.54	3422.16
491.74	3950.53
491.94	4503.48
492.14	5162.93
492.34	5142.45
492.54	4822.97
492.75	4149.18
492.95	4429.76
493.15	4118.47
493.35	3925.96
493.55	3798.98
493.75	3692.49
493.95	3893.19
494.15	3450.83
494.35	3125.20
494.56	3307.47
494.76	3061.71
494.96	3231.69
495.16	2996.18
495.36	3272.65
495.56	3299.28
495.76	3090.38
495.96	3108.82
496.16	3125.20
496.36	3729.35
496.56	2975.70
496.77	3198.93
496.97	3262.41
497.17	3448.78
497.37	2926.55
497.57	3139.54
497.77	3315.66
497.97	3074.00
498.17	3061.71
498.37	3016.66
498.57	3407.82
498.77	3223.50
498.97	3172.30
499.17	3426.25
499.38	3221.45
499.58	3346.38
499.78	3301.33
499.98	3211.22
500.18	3213.26
500.38	3033.04
500.58	3334.09
500.78	3672.01
500.98	6254.50
501.18	8257.41
501.38	9701.23
501.58	10776.41
501.78	10880.86
501.98	8826.75
502.18	7522.19
502.38	6508.44
502.58	6494.11
502.78	5652.39
502.98	5474.22
503.18	5132.21
503.38	4896.69
503.59	4233.15
503.79	4100.03
503.99	3676.10
504.19	3862.47
504.39	3917.76
504.59	3686.34
504.79	3616.71
504.99	3993.54
505.19	3487.69
505.39	3291.09
505.59	3442.64
505.79	3772.36
505.99	3510.22
506.19	3090.38
506.39	3338.19
506.59	3205.07
506.79	3243.98
506.99	3354.57
507.19	2996.18
507.39	3327.95
507.59	3047.38
507.79	3022.80
507.99	3004.37
508.19	3317.71
508.39	3190.74
508.59	3000.27
508.79	3157.97
508.99	3680.20
509.19	3168.21
509.39	3076.05
509.59	3006.42
509.79	3182.54
509.99	3373.00
510.19	3217.36
510.39	3291.09
510.59	3332.05
510.79	3182.54
510.99	2893.78
511.19	3010.51
511.39	3590.09
511.59	3483.59
511.79	3301.33
511.99	3074.00
512.19	3647.43
512.38	3323.85
512.58	2994.13
512.78	2912.21
512.98	3528.65
513.18	3573.71
513.38	3033.04
513.58	3192.78
513.78	3252.17
513.98	3260.37
514.18	3119.06
514.38	2981.84
514.58	3483.59
514.78	3170.26
514.98	2975.70
515.18	3008.47
515.38	3065.81
515.58	3588.04
515.78	3076.05
515.98	3041.23
516.18	3416.01
516.38	3172.30
516.57	2955.22
516.77	3065.81
516.97	3377.10
517.17	3155.92
517.37	2861.01
517.57	3094.48
517.77	3266.51
517.97	3147.73
518.17	3049.43
518.37	2895.83
518.57	3174.35
518.77	3258.32
518.97	2998.23
519.16	3112.91
519.36	3561.42
519.56	3147.73
519.76	2967.51
519.96	3065.81
520.16	3418.06
520.36	3084.24
520.56	3215.31
520.76	3002.32
520.96	3155.92
521.16	3352.52
521.35	3311.57
521.55	3131.34
521.75	3286.99
521.95	3143.63
522.15	3018.71
522.35	2983.89
522.55	3180.50
522.75	3438.54
522.95	2961.36
523.14	2926.55
523.34	3330.00
523.54	3162.06
523.74	3166.16
523.94	3149.78
524.14	2975.70
524.34	3293.13
524.54	3272.65
524.73	3098.58
524.93	3475.40
525.13	3303.37
525.33	2983.89
525.53	3391.44
525.73	3338.19
525.93	3330.00
526.13	3094.48
526.32	3000.27
526.52	3463.12
526.72	3473.36
526.92	3084.24
527.12	2979.79
527.32	3008.47
527.52	3370.96
527.71	3104.72
527.91	3168.21
528.11	3153.87
528.31	3252.17
528.51	3022.80
528.71	3180.50
528.90	3377.10
529.10	3549.13
529.30	3225.55
529.50	2822.10
529.70	3354.57
529.90	3170.26
530.09	3110.86
530.29	2887.64
530.49	3110.86
530.69	3819.46
530.89	3151.82
531.09	3143.63
531.28	3203.02
531.48	3565.51
531.68	3045.33
531.88	3086.29
532.08	3393.48
532.28	3295.18
532.47	3170.26
532.67	3174.35
532.87	3366.86
533.07	3026.90
533.27	3143.63
533.46	3112.91
533.66	3241.93
533.86	3252.17
534.06	3061.71
534.26	3049.43
534.45	3323.85
534.65	3381.20
534.85	3155.92
535.05	3026.90
535.25	3463.12
535.44	2887.64
535.64	3125.20
535.84	3088.34
536.04	3235.79
536.24	3188.69
536.43	3014.61
536.63	2961.36
536.83	3241.93
537.03	3219.41
537.22	2877.40
537.42	2951.12
537.62	3391.44
537.82	3123.15
538.02	3223.50
538.21	3147.73
538.41	3854.28
538.61	3383.24
538.81	3078.10
539.00	3229.65
539.20	2973.65
539.40	3180.50
539.60	3030.99
539.79	3262.41
539.99	3340.24
540.19	3151.82
540.39	2977.75
540.58	3102.67
540.78	3495.88
540.98	3385.29
541.18	3334.09
541.37	3092.43
541.57	3289.04
541.77	3303.37
541.97	2985.94
542.16	2865.11
542.36	3268.56
542.56	3141.58
542.76	3237.84
542.95	3164.11
543.15	3368.91
543.35	3467.21
543.54	2981.84
543.74	3004.37
543.94	3575.75
544.14	3143.63
544.33	3190.74
544.53	3110.86
544.73	3188.69
544.93	3162.06
545.12	3063.76
545.32	3149.78
545.52	3282.89
545.71	3082.19
545.91	3074.00
546.11	2992.08
546.30	3127.25
546.50	3282.89
546.70	3110.86
546.90	3041.23
547.09	2883.54
547.29	3219.41
547.49	3168.21
547.68	3082.19
547.88	3162.06
548.08	3430.35
548.27	3385.29
548.47	3000.27
548.67	3184.59
548.87	3325.90
549.06	2983.89
549.26	3028.95
549.46	3293.13
549.65	3147.73
549.85	3084.24
550.05	3059.67
550.24	3071.95
550.44	3248.08
550.64	3135.44
550.83	3110.86
551.03	3555.27
551.23	3555.27
551.42	3119.06
551.62	3209.17
551.82	3297.23
552.01	3266.51
552.21	3381.20
552.41	3041.23
552.60	3540.94
552.80	3379.15
553.00	3059.67
553.19	3043.28
553.39	3672.01
553.59	3057.62
553.78	3143.63
553.98	2992.08
554.17	3100.62
554.37	3254.22
554.57	3137.49
554.76	2881.49
554.96	3254.22
555.16	3311.57
555.35	3129.30
555.55	3172.30
555.75	3340.24
555.94	3352.52
556.14	2815.96
556.33	3106.77
556.53	3368.91
556.73	3270.61
556.92	2959.31
557.12	2994.13
557.32	3659.72
557.51	3590.09
557.71	3084.24
557.90	3243.98
558.10	3610.57
558.30	3213.26
558.49	3024.85
558.69	3008.47
558.88	3454.92
559.08	3358.67
559.28	3151.82
559.47	3088.34
559.67	3338.19
559.86	3659.72
560.06	3026.90
560.26	3057.62
560.45	3452.88
560.65	3237.84
560.84	3362.76
561.04	2947.03
561.24	3379.15
561.43	3041.23
561.63	3332.05
561.82	3135.44
562.02	3403.72
562.22	3127.25
562.41	3024.85
562.61	3016.66
562.80	3082.19
563.00	3735.50
563.19	3157.97
563.39	3196.88
563.59	3407.82
563.78	3127.25
563.98	2930.64
564.17	3084.24
564.37	2963.41
564.56	3311.57
564.76	2891.73
564.96	3143.63
565.15	3299.28
565.35	3731.40
565.54	3090.38
565.74	3078.10
565.93	3428.30
566.13	3311.57
566.32	3057.62
566.52	3178.45
566.71	3286.99
566.91	3508.17
567.11	3157.97
567.30	2869.20
567.50	3319.76
567.69	3370.96
567.89	3082.19
568.08	2977.75
568.28	3336.14
568.47	3020.75
568.67	3084.24
568.86	3112.91
569.06	3366.86
569.25	3200.98
569.45	2936.79
569.64	2963.41
569.84	3170.26
570.04	3334.09
570.23	3067.86
570.43	3139.54
570.62	3354.57
570.82	3583.95
571.01	2983.89
571.21	3037.14
571.40	3104.72
571.60	3393.48
571.79	3151.82
571.99	3084.24
572.18	3110.86
572.38	3360.72
572.57	3172.30
572.77	3088.34
572.96	3803.08
573.16	3354.57
573.35	3080.14
573.55	3164.11
573.74	3286.99
573.94	3215.31
574.13	3059.67
574.33	3272.65
574.52	3489.74
574.71	3248.08
574.91	3127.25
575.10	2944.98
575.30	3180.50
575.49	3004.37
575.69	3037.14
575.88	3010.51
576.08	3272.65
576.27	3475.40
576.47	3014.61
576.66	3233.74
576.86	3506.12
577.05	3309.52
577.25	3145.68
577.44	3272.65
577.64	3184.59
577.83	3379.15
578.02	3035.09
578.22	3143.63
578.41	3702.73
578.61	3264.46
578.80	2938.84
579.00	3141.58
579.19	3272.65
579.39	3352.52
579.58	3164.11
579.77	3188.69
579.97	3471.31
580.16	3493.83
580.36	3301.33
580.55	3129.30
580.75	3352.52
580.94	3280.85
581.13	3289.04
581.33	3428.30
581.52	3203.02
581.72	3610.57
581.91	3211.22
582.11	3051.47
582.30	3426.25
582.49	3362.76
582.69	3405.77
582.88	3162.06
583.08	3362.76
583.27	3471.31
583.47	3174.35
583.66	3129.30
583.85	3049.43
584.05	3256.27
584.24	3280.85
584.44	3170.26
584.63	3387.34
584.82	3528.65
585.02	3286.99
585.21	3278.80
585.41	3450.83
585.60	3342.28
585.79	3313.61
585.99	3499.98
586.18	3362.76
586.37	4290.49
586.57	6371.23
586.76	17673.97
586.96	37330.37
587.15	50984.18
587.34	58952.83
587.54	63222.84
587.73	56665.25
587.93	40656.28
588.12	31317.54
588.31	25652.86
588.51	22572.71
588.70	21030.59
588.89	18439.91
589.09	15820.56
589.28	13481.78
589.47	10753.88
589.67	8284.03
589.86	6356.90
590.06	5224.37
590.25	4517.82
590.44	3899.33
590.64	3524.55
590.83	3540.94
591.02	3522.51
591.22	3049.43
591.41	3127.25
591.60	3307.47
591.80	3770.31
591.99	2961.36
592.18	3057.62
592.38	3475.40
592.57	3205.07
592.76	3047.38
592.96	3205.07
593.15	3117.01
593.34	3581.90
593.54	3059.67
593.73	3166.16
593.92	3405.77
594.12	3434.44
594.31	3147.73
594.50	3315.66
594.70	3424.20
594.89	3852.23
595.08	2955.22
595.28	3182.54
595.47	3962.82
595.66	3483.59
595.86	3016.66
596.05	2904.02
596.24	3243.98
596.43	3612.62
596.63	3182.54
596.82	3164.11
597.01	3330.00
597.21	3590.09
597.40	3030.99
597.59	3217.36
597.79	3278.80
597.98	3411.92
598.17	3188.69
598.36	3164.11
598.56	3565.51
598.75	3192.78
598.94	3170.26
599.14	3155.92
599.33	3160.02
599.52	3446.73
599.71	3147.73
599.91	3074.00
600.10	3416.01
600.29	3319.76
600.48	3196.88
600.68	3203.02
600.87	3256.27
601.06	3141.58
601.26	3172.30
601.45	3229.65
601.64	3248.08
601.83	3620.81
602.03	2967.51
602.22	2971.60
602.41	3538.89
602.60	3790.79
602.80	3215.31
602.99	3243.98
603.18	3176.40
603.37	3241.93
603.57	3000.27
603.76	3086.29
603.95	3510.22
604.14	3192.78
604.34	3026.90
604.53	2951.12
604.72	3284.94
604.91	3364.81
605.10	3114.96
605.30	2912.21
605.49	3710.92
605.68	3377.10
605.87	3096.53
606.07	3037.14
606.26	3370.96
606.45	3360.72
606.64	3030.99
606.84	2957.27
607.03	3311.57
607.22	3538.89
607.41	3164.11
607.60	3047.38
607.80	3450.83
607.99	3250.13
608.18	3104.72
608.37	3139.54
608.56	3180.50
608.76	3487.69
608.95	3180.50
609.14	3098.58
609.33	3516.36
609.52	3647.43
609.72	3135.44
609.91	3219.41
610.10	3338.19
610.29	3631.05
610.48	3272.65
610.68	3166.16
610.87	3223.50
611.06	3420.11
611.25	3162.06
611.44	3155.92
611.63	3190.74
611.83	3545.03
612.02	2904.02
612.21	3250.13
612.40	2873.30
612.59	3074.00
612.79	3041.23
612.98	3127.25
613.17	3606.47
613.36	3311.57
613.55	3289.04
613.74	3090.38
613.93	3375.05
614.13	3381.20
614.32	3325.90
614.51	3219.41
614.70	3307.47
614.89	3182.54
615.08	3200.98
615.28	3434.44
615.47	3057.62
615.66	3387.34
615.85	3147.73
616.04	3196.88
616.23	3348.43
616.42	3311.57
616.62	3082.19
616.81	3067.86
617.00	3368.91
617.19	3379.15
617.38	3137.49
617.57	3180.50
617.76	3407.82
617.95	3385.29
618.15	3174.35
618.34	3366.86
618.53	3049.43
618.72	3469.26
618.91	3190.74
619.10	3157.97
619.29	3364.81
619.48	3321.81
619.68	3020.75
619.87	3102.67
620.06	3037.14
620.25	3450.83
620.44	3057.62
620.63	3041.23
620.82	3323.85
621.01	3311.57
621.20	3098.58
621.39	3121.10
621.59	3299.28
621.78	3309.52
621.97	3123.15
622.16	3200.98
622.35	3297.23
622.54	3358.67
622.73	3147.73
622.92	2906.07
623.11	3518.41
623.30	3231.69
623.49	3194.83
623.68	2920.40
623.88	3594.19
624.07	3207.12
624.26	2985.94
624.45	3112.91
624.64	3246.03
624.83	3250.13
625.02	3024.85
625.21	3086.29
625.40	3291.09
625.59	3506.12
625.78	3119.06
625.97	3241.93
626.16	3536.84
626.35	3459.02
626.54	3088.34
626.74	3299.28
626.93	3317.71
627.12	3239.89
627.31	3151.82
627.50	3205.07
627.69	3522.51
627.88	3028.95
628.07	2990.03
628.26	2895.83
628.45	3192.78
628.64	3020.75
628.83	3057.62
629.02	2934.74
629.21	3395.53
629.40	3336.14
629.59	3024.85
629.78	3088.34
629.97	3350.48
630.16	3264.46
630.35	3057.62
630.54	3239.89
630.73	3090.38
630.92	3321.81
631.11	2961.36
631.30	3082.19
631.49	3395.53
631.68	3223.50
631.87	3119.06
632.06	3018.71
632.25	3786.69
632.44	3295.18
632.63	3180.50
632.82	3129.30
633.01	3153.87
633.20	3373.00
633.39	3094.48
633.58	2947.03
633.77	3360.72
633.96	3436.49
634.15	3174.35
634.34	3213.26
634.53	3327.95
634.72	3164.11
634.91	2965.46
635.10	3166.16
635.29	3510.22
635.48	3284.94
635.67	2930.64
635.86	2912.21
636.05	3545.03
636.24	3174.35
636.43	3061.71
636.62	3131.34
636.81	2772.95
637.00	3311.57
637.19	3043.28
637.38	3143.63
637.57	3174.35
637.76	3336.14
637.95	3297.23
638.14	3248.08
638.33	3373.00
638.52	3282.89
638.71	2990.03
638.89	2930.64
639.08	3794.89
639.27	3588.04
639.46	3323.85
639.65	3676.10
639.84	3868.61
640.03	4110.27
640.22	3702.73
640.41	3557.32
640.60	3452.88
640.79	3520.46
640.98	3286.99
641.17	3416.01
641.36	3581.90
641.55	3405.77
641.74	3000.27
641.92	3000.27
642.11	3096.53
642.30	3248.08
642.49	2963.41
642.68	3084.24
642.87	3383.24
643.06	3385.29
643.25	2861.01
643.44	2959.31
643.63	3289.04
643.82	3403.72
644.00	3016.66
644.19	3092.43
644.38	3119.06
644.57	3399.63
644.76	3153.87
644.95	3196.88
645.14	3313.61
645.33	3278.80
645.52	3180.50
645.71	2975.70
645.89	3117.01
646.08	3225.55
646.27	3131.34
646.46	3307.47
646.65	2975.70
646.84	3313.61
647.03	3020.75
647.22	3215.31
647.40	3286.99
647.59	3262.41
647.78	2901.97
647.97	3041.23
648.16	3016.66
648.35	3538.89
648.54	3286.99
648.73	3045.33
648.91	3422.16
649.10	3221.45
649.29	2973.65
649.48	3074.00
649.67	3420.11
649.86	3299.28
650.05	3131.34
650.23	3286.99
650.42	3309.52
650.61	3674.06
650.80	3278.80
650.99	3377.10
651.18	3485.64
651.36	3499.98
651.55	3123.15
651.74	3237.84
651.93	3213.26
652.12	3188.69
652.31	3094.48
652.49	3061.71
652.68	3131.34
652.87	3608.52
653.06	3215.31
653.25	3340.24
653.44	3280.85
653.62	3596.23
653.81	3092.43
654.00	3047.38
654.19	3450.83
654.38	3739.59
654.56	3155.92
654.75	2992.08
654.94	3461.07
655.13	3295.18
655.32	3057.62
655.51	3164.11
655.69	3219.41
655.88	3356.62
656.07	2955.22
656.26	3108.82
656.45	3004.37
656.63	3200.98
656.82	3065.81
657.01	3364.81
657.20	3149.78
657.38	3561.42
657.57	3149.78
657.76	2910.16
657.95	3446.73
658.14	3188.69
658.32	3186.64
658.51	2953.17
658.70	3375.05
658.89	3293.13
659.08	3145.68
659.26	3336.14
659.45	3082.19
659.64	3393.48
659.83	3094.48
660.01	3510.22
660.20	3375.05
660.39	3633.10
660.58	2807.77
660.76	3114.96
660.95	2971.60
661.14	3297.23
661.33	2947.03
661.51	3080.14
661.70	3241.93
661.89	3338.19
662.08	3102.67
662.26	2934.74
662.45	3047.38
662.64	3602.38
662.83	3104.72
663.01	2951.12
663.20	3164.11
663.39	3436.49
663.58	3117.01
663.76	3004.37
663.95	3399.63
664.14	3078.10
664.32	3067.86
664.51	3002.32
664.70	2930.64
664.89	3356.62
665.07	2938.84
665.26	3147.73
665.45	3004.37
665.64	3352.52
665.82	3088.34
666.01	3131.34
666.20	2963.41
666.38	3444.68
666.57	3495.88
666.76	5558.19
666.95	12945.21
667.13	20526.79
667.32	24934.02
667.51	28182.10
667.69	29052.48
667.88	23871.12
668.07	17493.75
668.25	14735.14
668.44	12941.11
668.63	11286.36
668.81	9863.02
669.00	8386.43
669.19	7767.95
669.38	6768.54
669.56	5832.62
669.75	4892.60
669.94	4390.84
670.12	3870.66
670.31	3528.65
670.50	3422.16
670.68	3475.40
670.87	3315.66
671.06	3176.40
671.24	3172.30
671.43	3624.90
671.62	3250.13
671.80	3078.10
671.99	3180.50
672.18	3299.28
672.36	3426.25
672.55	3270.61
672.74	3196.88
672.92	3198.93
673.11	3426.25
673.29	2973.65
673.48	3262.41
673.67	3233.74
673.85	3411.92
674.04	3053.52
674.23	3160.02
674.41	3651.53
674.60	3061.71
674.79	2955.22
674.97	2983.89
675.16	3452.88
675.34	3516.36
675.53	2996.18
675.72	3168.21
675.90	3655.62
676.09	3188.69
676.28	3200.98
676.46	2865.11
676.65	3459.02
676.83	3131.34
677.02	3143.63
677.21	3133.39
677.39	3254.22
677.58	3067.86
677.77	3065.81
677.95	3037.14
678.14	3139.54
678.32	3127.25
678.51	3024.85
678.70	3432.40
678.88	3166.16
679.07	3270.61
679.25	3121.10
679.44	3108.82
679.63	3022.80
679.81	3334.09
680.00	3344.33
680.18	3114.96
680.37	3530.70
680.55	3327.95
680.74	2912.21
680.93	2869.20
681.11	3313.61
681.30	3227.60
681.48	3098.58
681.67	3090.38
681.85	3373.00
682.04	3106.77
682.23	3291.09
682.41	3270.61
682.60	3211.22
682.78	3229.65
682.97	2904.02
683.15	3076.05
683.34	3336.14
683.53	3549.13
683.71	2918.36
683.90	3102.67
684.08	3555.27
684.27	3198.93
684.45	3047.38
684.64	3211.22
684.82	3327.95
685.01	3444.68
685.19	3045.33
685.38	3346.38
685.57	3262.41
685.75	3110.86
685.94	2987.99
686.12	2981.84
686.31	3176.40
686.49	3657.67
686.68	2832.34
686.86	3041.23
687.05	3180.50
687.23	3585.99
687.42	3119.06
687.60	2922.45
687.79	3436.49
687.97	3669.96
688.16	3231.69
688.34	3348.43
688.53	2934.74
688.71	3385.29
688.90	3401.68
689.08	3071.95
689.27	3010.51
689.45	3409.87
689.64	3270.61
689.82	3127.25
690.01	3395.53
690.19	3262.41
690.38	3098.58
690.56	3180.50
690.75	3117.01
690.93	3172.30
691.12	3045.33
691.30	3106.77
691.49	3192.78
691.67	3229.65
691.86	3434.44
692.04	3104.72
692.23	3209.17
692.41	3205.07
692.60	3430.35
692.78	3266.51
692.97	3325.90
693.15	3475.40
693.34	3309.52
693.52	3295.18
693.71	3166.16
693.89	3141.58
694.08	2947.03
694.26	3198.93
694.44	3432.40
694.63	3395.53
694.81	3035.09
695.00	3033.04
695.18	3557.32
695.37	3717.06
695.55	3170.26
695.74	3168.21
695.92	3172.30
696.10	3518.41
696.29	3022.80
696.47	3117.01
696.66	3030.99
696.84	3043.28
697.03	3141.58
697.21	3305.42
697.40	4675.51
697.58	3499.98
697.76	3082.19
697.95	3123.15
698.13	3016.66
698.32	3053.52
698.50	3065.81
698.68	3162.06
698.87	3315.66
699.05	3571.66
699.24	3065.81
699.42	3106.77
699.61	3325.90
699.79	3319.76
699.97	3223.50
700.16	2918.36
700.34	3084.24
700.53	3370.96
700.71	3383.24
700.89	3227.60
701.08	3151.82
701.26	3237.84
701.45	3444.68
701.63	3106.77
701.81	3252.17
702.00	3203.02
702.18	3194.83
702.37	3071.95
702.55	3579.85
702.73	3362.76
702.92	3145.68
703.10	3411.92
703.28	3395.53
703.47	3106.77
703.65	3344.33
703.84	3284.94
704.02	3196.88
704.20	3598.28
704.39	3145.68
704.57	3080.14
704.75	3524.55
704.94	3407.82
705.12	3303.37
705.30	4057.03
705.49	8710.01
705.67	17286.90
705.86	23899.80
706.04	27205.22
706.22	30367.28
706.41	29009.48
706.59	21683.89
706.77	17018.62
706.96	14610.21
707.14	13107.00
707.32	11243.35
707.51	9781.10
707.69	8052.61
707.87	6707.10
708.06	5439.40
708.24	4632.51
708.42	4173.76
708.61	4163.52
708.79	3258.32
708.97	3254.22
709.16	3411.92
709.34	3346.38
709.52	3047.38
709.71	3112.91
709.89	3420.11
710.07	3090.38
710.26	3059.67
710.44	3065.81
710.62	3485.64
710.80	3307.47
710.99	3215.31
711.17	3254.22
711.35	3221.45
711.54	3209.17
711.72	3223.50
711.90	3100.62
712.09	3299.28
712.27	3188.69
712.45	3231.69
712.63	3078.10
712.82	3393.48
713.00	3248.08
713.18	3250.13
713.37	3360.72
713.55	3456.97
713.73	3452.88
713.91	3184.59
714.10	3063.76
714.28	3268.56
714.46	3319.76
714.65	3192.78
714.83	3151.82
715.01	3352.52
715.19	3272.65
715.38	3041.23
715.56	3153.87
715.74	3096.53
715.92	3139.54
716.11	3334.09
716.29	2844.63
716.47	3291.09
716.65	3237.84
716.84	2914.26
717.02	3147.73
717.20	2983.89
717.38	3078.10
717.57	3203.02
717.75	3172.30
717.93	3198.93
718.11	3291.09
718.30	2996.18
718.48	3133.39
718.66	3559.37
718.84	3461.07
719.03	3098.58
719.21	3018.71
719.39	3696.58
719.57	3495.88
719.75	3133.39
719.94	3006.42
720.12	3213.26
720.30	3239.89
720.48	3291.09
720.67	3035.09
720.85	3020.75
721.03	3213.26
721.21	3039.19
721.39	3168.21
721.58	3336.14
721.76	3246.03
721.94	3168.21
722.12	3170.26
722.30	3604.42
722.49	3137.49
722.67	3133.39
722.85	3074.00
723.03	3016.66
723.21	3190.74
723.40	3162.06
723.58	3282.89
723.76	3301.33
723.94	3530.70
724.12	3160.02
724.30	3307.47
724.49	3469.26
724.67	3119.06
724.85	3272.65
725.03	3053.52
725.21	3352.52
725.40	3467.21
725.58	3119.06
725.76	3293.13
725.94	3426.25
726.12	3078.10
726.30	3225.55
726.49	3041.23
726.67	3233.74
726.85	3487.69
727.03	4001.73
727.21	5470.12
727.39	7311.25
727.57	7847.82
727.76	8390.53
727.94	8537.98
728.12	7350.16
728.30	6002.60
728.48	5633.96
728.66	5146.55
728.84	4845.49
729.03	4196.29
729.21	3887.04
729.39	3588.04
729.57	3459.02
729.75	3471.31
729.93	3327.95
730.11	3094.48
730.30	3270.61
730.48	3160.02
730.66	3231.69
730.84	3192.78
731.02	3276.75
731.20	3174.35
731.38	3192.78
731.56	2969.55
731.74	3082.19
731.93	3362.76
732.11	3168.21
732.29	3071.95
732.47	3387.34
732.65	3364.81
732.83	3309.52
733.01	3221.45
733.19	3172.30
733.37	3450.83
733.56	3078.10
733.74	2969.55
733.92	3581.90
734.10	3231.69
734.28	3235.79
734.46	2918.36
734.64	3209.17
734.82	3237.84
735.00	3098.58
735.18	3135.44
735.36	3254.22
735.54	3223.50
735.73	3090.38
735.91	3180.50
736.09	3569.61
736.27	3330.00
736.45	3207.12
736.63	2865.11
736.81	3143.63
736.99	3450.83
737.17	3268.56
737.35	3114.96
737.53	3319.76
737.71	3297.23
737.89	3248.08
738.07	3074.00
738.25	3203.02
738.43	2930.64
738.61	3037.14
738.80	2983.89
738.98	3069.91
739.16	3137.49
739.34	2979.79
739.52	3459.02
739.70	3309.52
739.88	3407.82
740.06	3280.85
740.24	2926.55
740.42	3471.31
740.60	3035.09
740.78	2969.55
740.96	2844.63
741.14	3143.63
741.32	3338.19
741.50	2965.46
741.68	3334.09
741.86	3526.60
742.04	3065.81
742.22	3053.52
742.40	3123.15
742.58	3401.68
742.76	3174.35
742.94	3309.52
743.12	2891.73
743.30	3330.00
743.48	3403.72
743.66	3045.33
743.84	3125.20
744.02	3297.23
744.20	3246.03
744.38	2979.79
744.56	3112.91
744.74	3614.66
744.92	3332.05
745.10	3262.41
745.28	3145.68
745.46	3551.18
745.64	3272.65
745.82	3127.25
746.00	3092.43
746.18	3284.94
746.36	3106.77
746.54	3139.54
746.72	3078.10
746.90	3086.29
747.08	3549.13
747.26	3018.71
747.44	3196.88
747.62	3407.82
747.80	3336.14
747.98	3229.65
748.15	3114.96
748.33	3704.78
748.51	3243.98
748.69	3262.41
748.87	3086.29
749.05	3213.26
749.23	3221.45
749.41	3002.32
749.59	3098.58
749.77	3479.50
749.95	3168.21
750.13	3041.23
750.31	3200.98
750.49	3274.70
750.67	3422.16
750.85	3221.45
751.03	3057.62
751.20	3717.06
751.38	3325.90
751.56	3196.88
751.74	3155.92
751.92	3241.93
752.10	3041.23
752.28	3252.17
752.46	3043.28
752.64	3311.57
752.82	3207.12
753.00	3182.54
753.18	3059.67
753.35	3254.22
753.53	3190.74
753.71	3074.00
753.89	3174.35
754.07	3286.99
754.25	3475.40
754.43	3221.45
754.61	3039.19
754.79	3336.14
754.97	3307.47
755.14	3237.84
755.32	2977.75
755.50	3254.22
755.68	3231.69
755.86	3012.56
756.04	3045.33
756.22	2899.92
756.40	3393.48
756.57	3276.75
756.75	3084.24
756.93	3377.10
757.11	3446.73
757.29	2975.70
757.47	2992.08
757.65	3045.33
757.82	2813.91
758.00	2983.89
758.18	3069.91
758.36	3100.62
758.54	3647.43
758.72	2959.31
758.90	3178.45
759.07	3356.62
759.25	3043.28
759.43	3131.34
759.61	3010.51
759.79	4501.44
759.97	3463.12
760.15	3155.92
760.32	3094.48
760.50	3289.04
760.68	3688.39
760.86	2977.75
761.04	3356.62
761.22	3413.96
761.39	3250.13
761.57	3143.63
761.75	3100.62
761.93	3354.57
762.11	3205.07
762.28	3157.97
762.46	2994.13
762.64	3463.12
762.82	3020.75
763.00	3098.58
763.18	3239.89
763.35	3033.04
763.53	3356.62
763.71	3248.08
763.89	3028.95
764.07	3319.76
764.24	3246.03
764.42	3272.65
764.60	3131.34
764.78	3311.57
764.96	3487.69
765.13	3229.65
765.31	2951.12
765.49	3438.54
765.67	3030.99
765.84	2983.89
766.02	3049.43
766.20	2914.26
766.38	3319.76
766.56	3194.83
766.73	3172.30
766.91	3139.54
767.09	3239.89
767.27	3153.87
767.44	3016.66
767.62	3342.28
767.80	3307.47
767.98	2975.70
768.15	3080.14
768.33	3428.30
768.51	3493.83
768.69	3176.40
768.87	3117.01
769.04	3354.57
769.22	3731.40
769.40	3182.54
769.58	3217.36
769.75	3237.84
769.93	3485.64
770.11	3059.67
770.28	3016.66
770.46	3362.76
770.64	3282.89
770.82	3059.67
770.99	2961.36
771.17	3420.11
771.35	3221.45
771.53	3127.25
771.70	3065.81
771.88	3270.61
772.06	3313.61
772.23	3090.38
772.41	3127.25
772.59	3260.37
772.77	3100.62
772.94	3117.01
773.12	3135.44
773.30	3160.02
773.47	3364.81
773.65	2987.99
773.83	3246.03
774.01	3196.88
774.18	2924.50
774.36	2996.18
774.54	2926.55
774.71	3387.34
774.89	2926.55
775.07	3000.27
775.24	3024.85
775.42	3192.78
775.60	3731.40
775.78	3037.14
775.95	2934.74
776.13	2951.12
776.31	2930.64
776.48	3198.93
776.66	3319.76
776.84	3143.63
777.01	3057.62
777.19	3094.48
777.37	3037.14
777.54	3393.48
777.72	3723.21
777.90	3192.78
778.07	2983.89
778.25	3977.16
778.43	3438.54
778.60	3020.75
778.78	3164.11
778.96	3551.18
779.13	3082.19
779.31	3198.93
779.49	3082.19
779.66	3368.91
779.84	3205.07
780.01	3084.24
780.19	2940.88
780.37	3534.79
780.54	3459.02
780.72	2930.64
780.90	3065.81
781.07	3221.45
781.25	3196.88
781.43	3256.27
781.60	3092.43
781.78	3506.12
781.95	3243.98
782.13	2953.17
782.31	3008.47
782.48	2957.27
782.66	3286.99
782.83	3299.28
783.01	3114.96
783.19	3442.64
783.36	3233.74
783.54	3051.47
783.72	3071.95
783.89	3221.45
784.07	3293.13
784.24	3217.36
784.42	3268.56
784.60	3366.86
784.77	3272.65
784.95	2766.81
785.12	3082.19
785.30	3239.89
785.47	3117.01
785.65	2916.31
785.83	3112.91
786.00	3190.74
786.18	3309.52
786.35	2959.31
786.53	2971.60
786.71	3565.51
786.88	3428.30
787.06	3237.84
787.23	3141.58
787.41	3094.48
787.58	3219.41
787.76	2977.75
787.94	3020.75
788.11	3276.75
788.29	3002.32
788.46	3084.24
788.64	2863.06
788.81	3258.32
788.99	3151.82
789.16	3041.23
789.34	3141.58
789.52	3155.92
789.69	3174.35
789.87	2897.88
790.04	3096.53
790.22	3264.46
790.39	3637.19
790.57	2965.46
790.74	3010.51
790.92	3424.20
791.09	2959.31
791.27	3139.54
791.44	3188.69
791.62	3223.50
791.79	3420.11
791.97	3235.79
792.15	3442.64
792.32	3397.58
792.50	3395.53
792.67	3282.89
792.85	3340.24
793.02	3260.37
793.20	3176.40
793.37	2942.93
793.55	2965.46
793.72	3037.14
793.90	3409.87
794.07	3053.52
794.25	2987.99
794.42	3307.47
794.60	3237.84
794.77	3108.82
794.95	3237.84
795.12	3364.81
795.30	3221.45
795.47	2881.49
795.65	3350.48
795.82	3250.13
796.00	3289.04
796.17	3141.58
796.34	3037.14
796.52	3311.57
796.69	3495.88
796.87	3157.97
797.04	3295.18
797.22	3399.63
797.39	3305.42
797.57	3241.93
797.74	3137.49
797.92	3301.33
798.09	3139.54
798.27	3395.53
798.44	3114.96
798.62	3215.31
798.79	3264.46
798.96	3207.12
799.14	3043.28
799.31	3874.76
799.49	3231.69
799.66	3057.62
799.84	3106.77
800.01	2994.13
800.19	3321.81
800.36	2813.91
800.53	3114.96
800.71	3293.13
800.88	3561.42
801.06	3000.27
801.23	2996.18
801.41	3243.98
801.58	3104.72
801.75	3026.90
801.93	3143.63
802.10	3448.78
802.28	3186.64
802.45	3049.43
802.63	3110.86
802.80	3551.18
802.97	3174.35
803.15	3139.54
803.32	3076.05
803.50	3104.72
803.67	3141.58
803.84	3022.80
804.02	3198.93
804.19	3213.26
804.37	2787.29
804.54	2858.96
804.71	2983.89
804.89	3211.22
805.06	3045.33
805.24	2983.89
805.41	3008.47
805.58	3188.69
805.76	3813.32
805.93	3033.04
806.10	3213.26
806.28	3444.68
806.45	3350.48
806.63	3286.99
806.80	3139.54
806.97	3325.90
807.15	3303.37
807.32	3221.45
807.49	3106.77
807.67	3053.52
807.84	3377.10
808.01	2797.53
808.19	3280.85
808.36	3698.63
808.54	3151.82
808.71	3055.57
808.88	3059.67
809.06	3514.31
809.23	3573.71
809.40	3135.44
809.58	2996.18
809.75	3264.46
809.92	2985.94
810.10	3260.37
810.27	3110.86
810.44	3307.47
810.62	3411.92
810.79	3000.27
810.96	3069.91
811.14	3196.88
811.31	3268.56
811.48	3270.61
811.66	3170.26
811.83	3426.25
812.00	3389.39
812.18	3164.11
812.35	3389.39
812.52	3225.55
812.69	3125.20
812.87	3063.76
813.04	2967.51
813.21	3327.95
813.39	3151.82
813.56	2983.89
813.73	3348.43
813.91	3041.23
814.08	3227.60
814.25	3135.44
814.42	2912.21
814.60	3151.82
814.77	3235.79
814.94	3030.99
815.12	3256.27
815.29	3686.34
815.46	3198.93
815.63	2990.03
815.81	3108.82
815.98	3182.54
816.15	3172.30
816.33	3200.98
816.50	3028.95
816.67	3246.03
816.84	3153.87
817.02	2942.93
817.19	3051.47
817.36	3338.19
817.53	3311.57
817.71	2889.68
817.88	3084.24
818.05	3182.54
818.22	3254.22
818.40	3260.37
818.57	3012.56
818.74	3356.62
818.91	3223.50
819.09	3215.31
819.26	3196.88
819.43	3176.40
819.60	3114.96
819.78	3264.46
819.95	3141.58
820.12	3035.09
820.29	3530.70
820.47	3389.39
820.64	2971.60
820.81	3020.75
820.98	3069.91
821.15	3030.99
821.33	3246.03
821.50	2951.12
821.67	3342.28
821.84	3049.43
822.02	3114.96
822.19	3446.73
822.36	3207.12
822.53	3016.66
822.70	2969.55
822.88	3164.11
823.05	3647.43
823.22	3145.68
823.39	3049.43
823.56	3303.37
823.74	3594.19
823.91	2914.26
824.08	2979.79
824.25	3043.28
824.42	3506.12
824.60	2901.97
824.77	3119.06
824.94	3235.79
825.11	3368.91
825.28	2934.74
825.45	3200.98
825.63	3233.74
825.80	3051.47
825.97	3125.20
826.14	3162.06
826.31	2914.26
826.48	3409.87
826.66	3117.01
826.83	2992.08
827.00	3139.54
827.17	3028.95
827.34	3117.01
827.51	2967.51
827.69	3123.15
827.86	2992.08
828.03	3053.52
828.20	3172.30
828.37	3209.17
828.54	3409.87
828.71	2953.17
828.89	3108.82
829.06	3325.90
829.23	3491.79
829.40	3014.61
829.57	3049.43
829.74	3418.06
829.91	3162.06
830.09	3047.38
830.26	3207.12
830.43	3592.14
830.60	3231.69
830.77	3160.02
830.94	3268.56
831.11	3450.83
831.28	3182.54
831.46	3200.98
831.63	3055.57
831.80	3510.22
831.97	3067.86
832.14	3166.16
832.31	3145.68
832.48	3260.37
832.65	3430.35
832.82	3172.30
832.99	3098.58
833.17	3033.04
833.34	3538.89
833.51	3053.52
833.68	2897.88
833.85	3467.21
834.02	3063.76
834.19	3057.62
834.36	3033.04
834.53	3315.66
834.70	3463.12
834.87	3106.77
835.04	2770.90
835.22	3049.43
835.39	3196.88
835.56	2891.73
835.73	2852.82
835.90	3475.40
836.07	3098.58
836.24	3016.66
836.41	2959.31
836.58	3076.05
836.75	3389.39
836.92	2877.40
837.09	2891.73
837.26	3434.44
837.43	3352.52
837.60	2920.40
837.77	2940.88
837.94	3495.88
838.12	3479.50
838.29	2850.77
838.46	2858.96
838.63	3000.27
838.80	3600.33
838.97	2926.55
839.14	2852.82
839.31	3278.80
839.48	3368.91
839.65	2924.50
839.82	3000.27
839.99	3268.56
840.16	3123.15
840.33	2850.77
840.50	2949.08
840.67	3129.30
840.84	2809.81
841.01	2832.34
841.18	2820.05
841.35	3246.03
841.52	3387.34
841.69	3241.93
841.86	2940.88
842.03	3252.17
842.20	3545.03
842.37	2965.46
842.54	2979.79
842.71	3237.84
842.88	2985.94
843.05	2936.79
843.22	2949.08
843.39	3413.96
843.56	3123.15
843.73	2971.60
843.90	2983.89
844.07	3209.17
844.24	3450.83
844.41	3002.32
844.58	2930.64
844.75	3299.28
844.92	3448.78
845.09	2963.41
845.26	2912.21
845.43	3411.92
845.60	3170.26
845.77	3010.51
845.94	3024.85
846.10	3432.40
846.27	3006.42
846.44	2750.42
846.61	2738.13
846.78	3387.34
846.95	3409.87
847.12	2861.01
847.29	2899.92
847.46	3078.10
847.63	3407.82
847.80	2869.20
847.97	2922.45
848.14	3643.34
848.31	3186.64
848.48	2854.87
848.65	2940.88
848.82	3211.22
848.98	3831.75
849.15	3012.56
849.32	3016.66
849.49	3475.40
849.66	3221.45
849.83	2973.65
850.00	2844.63
850.17	3364.81
850.34	3192.78
850.51	2930.64
850.68	2938.84
850.85	3792.84
851.01	3340.24
851.18	2928.60
851.35	2965.46
851.52	3315.66
851.69	3473.36
851.86	2801.62
852.03	2832.34
852.20	3442.64
852.37	3330.00
852.53	2848.72
852.70	2846.68
852.87	3309.52
853.04	3448.78
853.21	2920.40
853.38	3164.11
853.55	3561.42
853.72	3520.46
853.89	2803.67
854.05	2858.96
854.22	3188.69
854.39	3164.11
854.56	2936.79
854.73	3086.29
854.90	3100.62
855.07	3184.59
855.23	2910.16
855.40	2846.68
855.57	3254.22
855.74	2861.01
855.91	3053.52
856.08	2789.33
856.25	2985.94
856.41	3155.92
856.58	2908.12
856.75	2979.79
856.92	3129.30
857.09	3426.25
857.26	2742.23
857.42	2936.79
857.59	3426.25
857.76	3182.54
857.93	2883.54
858.10	2971.60
858.27	3100.62
858.43	3248.08
858.60	2961.36
858.77	2813.91
858.94	3090.38
859.11	3530.70
859.27	2951.12
859.44	2908.12
859.61	3737.54
859.78	3352.52
859.95	2922.45
860.12	2813.91
860.28	3712.97
860.45	3702.73
860.62	2856.92
860.79	3125.20
860.95	3157.97
861.12	3047.38
861.29	2848.72
861.46	2881.49
861.63	3235.79
861.79	3272.65
861.96	2832.34
862.13	2969.55
862.30	3506.12
862.47	3172.30
862.63	2791.38
862.80	3016.66
862.97	3524.55
863.14	3297.23
863.30	2867.16
863.47	2830.29
863.64	3571.66
863.81	3346.38
863.97	2801.62
864.14	2983.89
864.31	3286.99
864.48	3342.28
864.65	2840.53
864.81	2996.18
864.98	3416.01
865.15	3495.88
865.32	2916.31
865.48	2963.41
865.65	3667.91
865.82	3157.97
865.98	2985.94
866.15	2987.99
866.32	3250.13
866.49	3184.59
866.65	3065.81
866.82	2951.12
866.99	3119.06
867.16	3141.58
867.32	2904.02
867.49	2834.39
867.66	3149.78
867.83	3168.21
867.99	2811.86
868.16	2934.74
868.33	2998.23
868.49	3237.84
868.66	2879.44
868.83	3092.43
868.99	3342.28
869.16	3344.33
869.33	3121.10
869.50	3026.90
869.66	3225.55
869.83	3153.87
870.00	2734.04
870.16	3004.37
870.33	3241.93
870.50	3409.87
870.66	2934.74
870.83	2904.02
871.00	3272.65
871.17	3330.00
871.33	2983.89
871.50	2820.05
871.67	3262.41
871.83	3295.18
872.00	3008.47
872.17	2967.51
872.33	3616.71
872.50	3508.17
872.67	2914.26
872.83	2887.64
873.00	3389.39
873.17	3221.45
873.33	3008.47
873.50	2959.31
873.67	3117.01
873.83	3131.34
874.00	2920.40
874.16	3035.09
874.33	3248.08
874.50	2965.46
874.66	2877.40
874.83	2959.31
875.00	3446.73
875.16	3409.87
875.33	3010.51
875.50	2688.98
875.66	3117.01
875.83	3303.37
875.99	2953.17
876.16	3090.38
876.33	2994.13
876.49	3188.69
876.66	3014.61
876.83	2992.08
876.99	2992.08
877.16	3188.69
877.32	2916.31
877.49	2965.46
877.66	3280.85
877.82	3542.99
877.99	2959.31
878.15	3188.69
878.32	3311.57
878.49	3256.27
878.65	3041.23
878.82	3207.12
878.98	3237.84
879.15	3536.84
879.32	3108.82
879.48	3127.25
879.65	3180.50
879.81	3231.69
879.98	2969.55
880.15	3008.47
880.31	3358.67
880.48	3094.48
880.64	3086.29
880.81	3065.81
880.97	3534.79
881.14	3469.26
881.31	2934.74
881.47	3184.59
881.64	3221.45
881.80	2926.55
881.97	3094.48
882.13	2977.75
882.30	3016.66
882.47	3139.54
882.63	2904.02
882.80	2850.77
882.96	3293.13
883.13	3344.33
883.29	2840.53
883.46	2947.03
883.62	3776.45
883.79	3284.94
883.95	3069.91
884.12	2840.53
884.29	3364.81
884.45	3321.81
884.62	2981.84
884.78	2854.87
884.95	3610.57
885.11	3082.19
885.28	2971.60
885.44	3039.19
885.61	3418.06
885.77	3610.57
885.94	3043.28
886.10	3028.95
886.27	3305.42
886.43	3590.09
886.60	3157.97
886.76	2938.84
886.93	3094.48
887.09	3330.00
887.26	2803.67
887.42	2981.84
887.59	3518.41
887.75	3755.97
887.92	3215.31
888.08	3069.91
888.25	3655.62
888.41	3424.20
888.58	2955.22
888.74	2893.78
888.91	3186.64
>>>>>End Processed Spectral Data<<<<<
