SpectraSuite Data File
++++++++++++++++++++++++++++++++++++
Date: Fri May 06 08:13:43 CEST 2016
User: root
Dark Spectrum Present: No
Reference Spectrum Present: No
Number of Sampled Component Spectra: 1
Spectrometers: USB4C02835
Integration Time (usec): 100000 (USB4C02835)
Spectra Averaged: 1 (USB4C02835)
Boxcar Smoothing: 0 (USB4C02835)
Correct for Electrical Dark: No (USB4C02835)
Strobe/Lamp Enabled: No (USB4C02835)
Correct for Detector Non-linearity: No (USB4C02835)
Correct for Stray Light: No (USB4C02835)
Number of Pixels in Processed Spectrum: 3648
>>>>>Begin Processed Spectral Data<<<<<
177.47	2254.81
177.69	2254.81
177.91	2254.81
178.13	2265.05
178.36	2287.58
178.58	2955.22
178.80	3092.43
179.02	3069.91
179.24	3035.09
179.46	2820.05
179.68	2893.78
179.90	3315.66
180.13	3258.32
180.35	2676.70
180.57	2779.09
180.79	3549.13
181.01	3223.50
181.23	2914.26
181.45	2973.65
181.67	3338.19
181.90	3434.44
182.12	3020.75
182.34	2691.03
182.56	3438.54
182.78	3385.29
183.00	2840.53
183.22	2920.40
183.44	2928.60
183.66	3934.15
183.89	2998.23
184.11	2887.64
184.33	3413.96
184.55	3583.95
184.77	2844.63
184.99	2820.05
185.21	3250.13
185.43	3917.76
185.65	2854.87
185.87	2934.74
186.10	3774.41
186.32	3852.23
186.54	2969.55
186.76	3006.42
186.98	3532.75
187.20	3229.65
187.42	2861.01
187.64	2832.34
187.86	3375.05
188.08	3528.65
188.30	2779.09
188.52	2830.29
188.75	3610.57
188.97	3508.17
189.19	2815.96
189.41	2836.44
189.63	3399.63
189.85	3151.82
190.07	2734.04
190.29	2760.66
190.51	3370.96
190.73	3033.04
190.95	3139.54
191.17	2865.11
191.39	2955.22
191.61	3280.85
191.84	2844.63
192.06	3080.14
192.28	2918.36
192.50	3999.68
192.72	3004.37
192.94	2985.94
193.16	3489.74
193.38	3426.25
193.60	2809.81
193.82	3041.23
194.04	3475.40
194.26	3317.71
194.48	2891.73
194.70	2871.25
194.92	3200.98
195.14	3454.92
195.36	2818.00
195.58	2918.36
195.80	3237.84
196.02	3112.91
196.24	2828.24
196.46	3059.67
196.69	3198.93
196.91	3798.98
197.13	2963.41
197.35	2922.45
197.57	3608.52
197.79	3364.81
198.01	2965.46
198.23	2873.30
198.45	3315.66
198.67	3041.23
198.89	2680.79
199.11	2934.74
199.33	3125.20
199.55	2824.15
199.77	2811.86
199.99	3022.80
200.21	3172.30
200.43	3448.78
200.65	2729.94
200.87	2707.41
201.09	3327.95
201.31	3213.26
201.53	2926.55
201.75	2959.31
201.97	3401.68
202.19	3221.45
202.41	2895.83
202.63	2979.79
202.85	3360.72
203.07	3379.15
203.29	2981.84
203.51	2738.13
203.73	3168.21
203.95	3723.21
204.17	2895.83
204.39	3002.32
204.61	3270.61
204.83	3170.26
205.05	3020.75
205.27	2887.64
205.49	3860.42
205.71	3282.89
205.93	2744.28
206.15	2746.33
206.37	3268.56
206.59	3231.69
206.81	2695.13
207.03	2752.47
207.25	3229.65
207.47	3395.53
207.69	2834.39
207.91	3133.39
208.13	3571.66
208.34	3200.98
208.56	2818.00
208.78	2926.55
209.00	3338.19
209.22	3168.21
209.44	2947.03
209.66	2854.87
209.88	3280.85
210.10	3295.18
210.32	2836.44
210.54	2979.79
210.76	3151.82
210.98	3446.73
211.20	2713.56
211.42	2940.88
211.64	3540.94
211.86	3344.33
212.08	2887.64
212.30	2863.06
212.52	3233.74
212.74	3459.02
212.96	3030.99
213.17	2934.74
213.39	3487.69
213.61	3688.39
213.83	2838.48
214.05	2734.04
214.27	3418.06
214.49	3106.77
214.71	2766.81
214.93	2963.41
215.15	3278.80
215.37	3504.07
215.59	2719.70
215.81	2942.93
216.03	3461.07
216.24	3282.89
216.46	2797.53
216.68	2908.12
216.90	3471.31
217.12	3510.22
217.34	2815.96
217.56	3010.51
217.78	3536.84
218.00	3418.06
218.22	3024.85
218.44	3024.85
218.66	3311.57
218.87	3694.54
219.09	2963.41
219.31	2936.79
219.53	3405.77
219.75	3280.85
219.97	2942.93
220.19	2895.83
220.41	3254.22
220.63	3518.41
220.85	2893.78
221.06	2854.87
221.28	3551.18
221.50	3377.10
221.72	2850.77
221.94	2779.09
222.16	3334.09
222.38	3528.65
222.60	2805.72
222.82	2955.22
223.03	3430.35
223.25	3061.71
223.47	2844.63
223.69	3041.23
223.91	3495.88
224.13	3303.37
224.35	2746.33
224.57	3162.06
224.78	3497.93
225.00	3041.23
225.22	3030.99
225.44	2764.76
225.66	3448.78
225.88	3194.83
226.10	2996.18
226.32	2869.20
226.53	3577.80
226.75	3213.26
226.97	2987.99
227.19	2871.25
227.41	3205.07
227.63	3211.22
227.85	2656.22
228.06	2920.40
228.28	3330.00
228.50	3454.92
228.72	2691.03
228.94	2805.72
229.16	2873.30
229.37	3043.28
229.59	2811.86
229.81	3121.10
230.03	3213.26
230.25	2998.23
230.47	2707.41
230.69	2963.41
230.90	3520.46
231.12	3162.06
231.34	2996.18
231.56	2942.93
231.78	3006.42
232.00	3360.72
232.21	2893.78
232.43	2928.60
232.65	2867.16
232.87	3307.47
233.09	2754.52
233.30	2797.53
233.52	3512.27
233.74	3260.37
233.96	2826.20
234.18	3047.38
234.40	3295.18
234.61	3745.73
234.83	2777.05
235.05	2840.53
235.27	3803.08
235.49	3551.18
235.70	2770.90
235.92	2932.69
236.14	3434.44
236.36	3778.50
236.58	2789.33
236.79	2963.41
237.01	3196.88
237.23	3237.84
237.45	3059.67
237.67	2924.50
237.88	3317.71
238.10	3674.06
238.32	2828.24
238.54	2770.90
238.76	3239.89
238.97	3133.39
239.19	2736.09
239.41	2836.44
239.63	3463.12
239.85	3270.61
240.06	2957.27
240.28	2785.24
240.50	3491.79
240.72	3327.95
240.93	2717.65
241.15	3004.37
241.37	3313.61
241.59	3526.60
241.81	2783.19
242.02	2983.89
242.24	3299.28
242.46	3397.58
242.68	2703.32
242.89	2779.09
243.11	3512.27
243.33	3274.70
243.55	2856.92
243.76	2840.53
243.98	3162.06
244.20	3188.69
244.42	2818.00
244.64	2811.86
244.85	3086.29
245.07	3053.52
245.29	2848.72
245.51	2873.30
245.72	3307.47
245.94	3563.47
246.16	2809.81
246.38	2947.03
246.59	3102.67
246.81	3080.14
247.03	2731.99
247.24	2715.61
247.46	3182.54
247.68	3330.00
247.90	2779.09
248.11	2779.09
248.33	3426.25
248.55	3198.93
248.77	2914.26
248.98	2969.55
249.20	3622.86
249.42	3332.05
249.64	2785.24
249.85	2832.34
250.07	3225.55
250.29	3428.30
250.50	2848.72
250.72	2803.67
250.94	3344.33
251.16	3688.39
251.37	2901.97
251.59	2981.84
251.81	3373.00
252.02	3618.76
252.24	2766.81
252.46	3018.71
252.68	3153.87
252.89	3180.50
253.11	2746.33
253.33	3053.52
253.54	3624.90
253.76	3074.00
253.98	2791.38
254.20	2869.20
254.41	3000.27
254.63	3221.45
254.85	2713.56
255.06	2981.84
255.28	3393.48
255.50	3168.21
255.71	2883.54
255.93	2731.99
256.15	3221.45
256.36	3352.52
256.58	2664.41
256.80	2838.48
257.02	3254.22
257.23	3209.17
257.45	2942.93
257.67	2969.55
257.88	3215.31
258.10	3405.77
258.32	2811.86
258.53	2928.60
258.75	3651.53
258.97	3108.82
259.18	2775.00
259.40	2746.33
259.62	3663.82
259.83	3594.19
260.05	2885.59
260.27	3823.56
260.48	3532.75
260.70	3090.38
260.92	2815.96
261.13	2920.40
261.35	3289.04
261.57	3330.00
261.78	2711.51
262.00	2803.67
262.22	3354.57
262.43	3024.85
262.65	2875.35
262.86	2895.83
263.08	3741.64
263.30	3239.89
263.51	2758.61
263.73	2815.96
263.95	3620.81
264.16	3076.05
264.38	2754.52
264.60	2787.29
264.81	3235.79
265.03	3510.22
265.25	3207.12
265.46	2803.67
265.68	3569.61
265.89	3434.44
266.11	2731.99
266.33	2752.47
266.54	3528.65
266.76	3350.48
266.98	2926.55
267.19	3139.54
267.41	3391.44
267.62	3221.45
267.84	2654.17
268.06	3051.47
268.27	3364.81
268.49	3459.02
268.70	3033.04
268.92	2932.69
269.14	3106.77
269.35	3033.04
269.57	2934.74
269.79	2981.84
270.00	3155.92
270.22	3667.91
270.43	2762.71
270.65	2729.94
270.87	3325.90
271.08	3401.68
271.30	2985.94
271.51	2881.49
271.73	3356.62
271.95	3598.28
272.16	2799.57
272.38	2934.74
272.59	3139.54
272.81	3438.54
273.02	2844.63
273.24	2918.36
273.46	3508.17
273.67	3094.48
273.89	2746.33
274.10	2826.20
274.32	3467.21
274.54	3381.20
274.75	2957.27
274.97	3004.37
275.18	3545.03
275.40	3362.76
275.61	2901.97
275.83	3041.23
276.05	3084.24
276.26	3270.61
276.48	2959.31
276.69	2895.83
276.91	3200.98
277.12	3553.23
277.34	3014.61
277.55	3147.73
277.77	3332.05
277.99	3225.55
278.20	2983.89
278.42	2914.26
278.63	3155.92
278.85	3051.47
279.06	2949.08
279.28	3061.71
279.49	3495.88
279.71	3485.64
279.93	3071.95
280.14	3082.19
280.36	3117.01
280.57	3436.49
280.79	3184.59
281.00	2807.77
281.22	3186.64
281.43	3495.88
281.65	2779.09
281.86	2824.15
282.08	3426.25
282.29	3719.11
282.51	2867.16
282.73	2951.12
282.94	2951.12
283.16	3493.83
283.37	3139.54
283.59	3061.71
283.80	3319.76
284.02	3262.41
284.23	3020.75
284.45	3043.28
284.66	3098.58
284.88	3237.84
285.09	2953.17
285.31	3018.71
285.52	3385.29
285.74	2979.79
285.95	3145.68
286.17	3155.92
286.38	3514.31
286.60	3192.78
286.81	2836.44
287.03	2930.64
287.24	3188.69
287.46	3397.58
287.67	3147.73
287.89	3268.56
288.10	3305.42
288.32	3176.40
288.53	3203.02
288.75	3016.66
288.96	3459.02
289.18	3190.74
289.39	2899.92
289.61	3078.10
289.82	3755.97
290.04	3655.62
290.25	2928.60
290.47	3057.62
290.68	3325.90
290.90	3397.58
291.11	2881.49
291.33	3139.54
291.54	3131.34
291.76	3121.10
291.97	3198.93
292.18	3082.19
292.40	3223.50
292.61	3153.87
292.83	3272.65
293.04	3074.00
293.26	3373.00
293.47	3190.74
293.69	2938.84
293.90	2922.45
294.12	3536.84
294.33	3401.68
294.55	3016.66
294.76	3172.30
294.97	3536.84
295.19	3772.36
295.40	2998.23
295.62	3094.48
295.83	3442.64
296.05	3102.67
296.26	3305.42
296.48	2955.22
296.69	3264.46
296.90	3250.13
297.12	3157.97
297.33	3170.26
297.55	3250.13
297.76	3436.49
297.98	3028.95
298.19	3184.59
298.41	3262.41
298.62	3074.00
298.83	3178.45
299.05	3065.81
299.26	3233.74
299.48	3088.34
299.69	3123.15
299.90	2944.98
300.12	3090.38
300.33	3563.47
300.55	2996.18
300.76	3106.77
300.98	3106.77
301.19	3383.24
301.40	2967.51
301.62	2981.84
301.83	3438.54
302.05	3311.57
302.26	2992.08
302.47	3119.06
302.69	2975.70
302.90	3311.57
303.12	2840.53
303.33	3117.01
303.54	3674.06
303.76	3143.63
303.97	2938.84
304.19	3192.78
304.40	3102.67
304.61	3327.95
304.83	3123.15
305.04	3065.81
305.26	3463.12
305.47	3143.63
305.68	3000.27
305.90	2846.68
306.11	3565.51
306.33	3274.70
306.54	2832.34
306.75	2990.03
306.97	3135.44
307.18	3082.19
307.39	3037.14
307.61	3106.77
307.82	3231.69
308.04	3366.86
308.25	2861.01
308.46	3139.54
308.68	3239.89
308.89	3215.31
309.10	3117.01
309.32	3045.33
309.53	3280.85
309.74	3391.44
309.96	2975.70
310.17	3106.77
310.39	3071.95
310.60	3401.68
310.81	3004.37
311.03	2926.55
311.24	3327.95
311.45	3334.09
311.67	3221.45
311.88	3065.81
312.09	3246.03
312.31	3166.16
312.52	2930.64
312.73	2967.51
312.95	3033.04
313.16	3020.75
313.37	3227.60
313.59	3162.06
313.80	3487.69
314.01	3585.99
314.23	2965.46
314.44	2969.55
314.65	3020.75
314.87	3155.92
315.08	3026.90
315.29	2959.31
315.51	3071.95
315.72	2934.74
315.93	3045.33
316.15	3043.28
316.36	3137.49
316.57	3268.56
316.79	2944.98
317.00	2967.51
317.21	3430.35
317.43	3061.71
317.64	3063.76
317.85	2951.12
318.07	3114.96
318.28	3141.58
318.49	3108.82
318.70	3282.89
318.92	3332.05
319.13	3381.20
319.34	3221.45
319.56	3080.14
319.77	3334.09
319.98	3450.83
320.20	3278.80
320.41	3180.50
320.62	3393.48
320.83	3071.95
321.05	3176.40
321.26	3172.30
321.47	3303.37
321.69	3477.45
321.90	2871.25
322.11	2969.55
322.32	3428.30
322.54	3614.66
322.75	3065.81
322.96	3985.35
323.18	2992.08
323.39	2912.21
323.60	2856.92
323.81	3123.15
324.03	3160.02
324.24	3330.00
324.45	3143.63
324.66	2947.03
324.88	3549.13
325.09	3553.23
325.30	2947.03
325.52	2947.03
325.73	3354.57
325.94	3086.29
326.15	2852.82
326.37	2936.79
326.58	3452.88
326.79	3649.48
327.00	2983.89
327.22	2965.46
327.43	3092.43
327.64	3030.99
327.85	3106.77
328.07	3049.43
328.28	3766.21
328.49	3200.98
328.70	3067.86
328.92	3033.04
329.13	3311.57
329.34	3379.15
329.55	3209.17
329.76	3198.93
329.98	3280.85
330.19	3477.45
330.40	3076.05
330.61	3022.80
330.83	3516.36
331.04	3016.66
331.25	3119.06
331.46	3069.91
331.68	3119.06
331.89	3440.59
332.10	3092.43
332.31	2926.55
332.52	3196.88
332.74	3549.13
332.95	2795.48
333.16	2934.74
333.37	3438.54
333.58	3184.59
333.80	3024.85
334.01	2770.90
334.22	3235.79
334.43	3153.87
334.64	2936.79
334.86	2922.45
335.07	3071.95
335.28	3594.19
335.49	2832.34
335.70	3106.77
335.92	3551.18
336.13	3649.48
336.34	2996.18
336.55	2994.13
336.76	3424.20
336.98	2881.49
337.19	2990.03
337.40	3053.52
337.61	3796.93
337.82	3229.65
338.04	3125.20
338.25	2867.16
338.46	3184.59
338.67	3336.14
338.88	2881.49
339.09	2944.98
339.31	3147.73
339.52	3035.09
339.73	2975.70
339.94	3098.58
340.15	3360.72
340.36	3153.87
340.58	3069.91
340.79	2977.75
341.00	3385.29
341.21	3092.43
341.42	3319.76
341.63	3004.37
341.85	3450.83
342.06	3188.69
342.27	2965.46
342.48	3139.54
342.69	3016.66
342.90	3325.90
343.12	3366.86
343.33	2879.44
343.54	3475.40
343.75	3569.61
343.96	3160.02
344.17	2891.73
344.38	3274.70
344.60	3106.77
344.81	2983.89
345.02	2994.13
345.23	3585.99
345.44	3819.46
345.65	3053.52
345.86	3092.43
346.07	3311.57
346.29	3084.24
346.50	3153.87
346.71	3137.49
346.92	3545.03
347.13	3672.01
347.34	3098.58
347.55	2885.59
347.76	3313.61
347.98	3004.37
348.19	3047.38
348.40	3182.54
348.61	3223.50
348.82	3721.16
349.03	3094.48
349.24	2926.55
349.45	3618.76
349.66	2813.91
349.88	2981.84
350.09	2887.64
350.30	3583.95
350.51	3461.07
350.72	3176.40
350.93	2963.41
351.14	3223.50
351.35	3401.68
351.56	3049.43
351.77	2983.89
351.99	3346.38
352.20	3526.60
352.41	3147.73
352.62	2805.72
352.83	3274.70
353.04	3319.76
353.25	3051.47
353.46	3004.37
353.67	3540.94
353.88	2920.40
354.09	2926.55
354.30	3061.71
354.52	3399.63
354.73	3237.84
354.94	2965.46
355.15	3086.29
355.36	3692.49
355.57	3162.06
355.78	2918.36
355.99	2955.22
356.20	3274.70
356.41	3506.12
356.62	3004.37
356.83	3067.86
357.04	3573.71
357.25	2912.21
357.46	2961.36
357.68	2828.24
357.89	3041.23
358.10	3297.23
358.31	2922.45
358.52	3063.76
358.73	3098.58
358.94	3061.71
359.15	3067.86
359.36	3059.67
359.57	3350.48
359.78	3164.11
359.99	3239.89
360.20	2906.07
360.41	3272.65
360.62	3362.76
360.83	3033.04
361.04	3047.38
361.25	3389.39
361.46	3616.71
361.67	3127.25
361.88	2996.18
362.09	3424.20
362.30	3297.23
362.51	2918.36
362.72	3051.47
362.93	3438.54
363.14	3452.88
363.35	3080.14
363.56	2889.68
363.78	3557.32
363.99	3487.69
364.20	2981.84
364.41	3045.33
364.62	3704.78
364.83	3377.10
365.04	2940.88
365.25	3057.62
365.46	3723.21
365.67	3137.49
365.88	3135.44
366.09	2955.22
366.30	3217.36
366.51	3346.38
366.72	2852.82
366.93	2967.51
367.14	3346.38
367.35	3553.23
367.56	2873.30
367.77	3108.82
367.98	3133.39
368.18	3479.50
368.39	3143.63
368.60	2942.93
368.81	3373.00
369.02	3262.41
369.23	3033.04
369.44	2895.83
369.65	3272.65
369.86	3409.87
370.07	3127.25
370.28	2969.55
370.49	3338.19
370.70	3422.16
370.91	2949.08
371.12	2838.48
371.33	3504.07
371.54	3223.50
371.75	3094.48
371.96	2731.99
372.17	3286.99
372.38	3188.69
372.59	2987.99
372.80	3035.09
373.01	3213.26
373.22	3215.31
373.43	2981.84
373.64	2899.92
373.85	3518.41
374.06	3557.32
374.26	3184.59
374.47	3180.50
374.68	3612.62
374.89	3301.33
375.10	2992.08
375.31	3028.95
375.52	3344.33
375.73	3291.09
375.94	2918.36
376.15	3123.15
376.36	3131.34
376.57	3162.06
376.78	2979.79
376.99	3039.19
377.20	3575.75
377.40	3334.09
377.61	3270.61
377.82	2928.60
378.03	3579.85
378.24	3461.07
378.45	3018.71
378.66	3082.19
378.87	2881.49
379.08	2983.89
379.29	3016.66
379.50	3141.58
379.71	3264.46
379.91	3399.63
380.12	2955.22
380.33	3061.71
380.54	3266.51
380.75	3258.32
380.96	3098.58
381.17	2953.17
381.38	3305.42
381.59	3241.93
381.80	3024.85
382.00	3196.88
382.21	3340.24
382.42	3665.86
382.63	3422.16
382.84	3233.74
383.05	3395.53
383.26	3612.62
383.47	3225.55
383.68	2977.75
383.88	3373.00
384.09	3266.51
384.30	3270.61
384.51	3141.58
384.72	3205.07
384.93	3061.71
385.14	3082.19
385.35	3289.04
385.55	3028.95
385.76	3491.79
385.97	3082.19
386.18	2877.40
386.39	3080.14
386.60	3139.54
386.81	2977.75
387.02	2947.03
387.22	3016.66
387.43	3497.93
387.64	3155.92
387.85	3270.61
388.06	3336.14
388.27	4499.39
388.48	7896.97
388.68	12234.57
388.89	15202.07
389.10	16518.92
389.31	16547.59
389.52	13340.47
389.73	11384.66
389.93	10585.95
390.14	9271.15
390.35	8734.59
390.56	8021.89
390.77	6625.18
390.98	4999.09
391.18	4212.67
391.39	3874.76
391.60	3323.85
391.81	3246.03
392.02	3004.37
392.23	3719.11
392.43	3327.95
392.64	3205.07
392.85	3127.25
393.06	3549.13
393.27	3268.56
393.47	2973.65
393.68	3084.24
393.89	3293.13
394.10	3540.94
394.31	3012.56
394.52	2979.79
394.72	3086.29
394.93	3549.13
395.14	2928.60
395.35	3106.77
395.56	3110.86
395.76	3139.54
395.97	3074.00
396.18	3188.69
396.39	3344.33
396.60	3921.86
396.80	3477.45
397.01	3260.37
397.22	3403.72
397.43	3499.98
397.64	3004.37
397.84	3112.91
398.05	3733.45
398.26	3207.12
398.47	3168.21
398.67	3260.37
398.88	3262.41
399.09	3383.24
399.30	3020.75
399.51	3092.43
399.71	3225.55
399.92	3258.32
400.13	3166.16
400.34	2985.94
400.54	3270.61
400.75	3585.99
400.96	3164.11
401.17	3297.23
401.37	3370.96
401.58	3274.70
401.79	3086.29
402.00	3153.87
402.21	3868.61
402.41	3426.25
402.62	3381.20
402.83	3499.98
403.04	3624.90
403.24	4181.95
403.45	3176.40
403.66	3356.62
403.87	3442.64
404.07	3655.62
404.28	3299.28
404.49	3362.76
404.70	3411.92
404.90	3440.59
405.11	3016.66
405.32	3172.30
405.52	3143.63
405.73	3198.93
405.94	2920.40
406.15	3084.24
406.35	3397.58
406.56	3420.11
406.77	3110.86
406.98	3037.14
407.18	3172.30
407.39	3612.62
407.60	3020.75
407.80	3139.54
408.01	3217.36
408.22	3434.44
408.43	2924.50
408.63	3200.98
408.84	3452.88
409.05	3567.56
409.25	2969.55
409.46	3061.71
409.67	3188.69
409.88	3086.29
410.08	3057.62
410.29	2987.99
410.50	3504.07
410.70	3422.16
410.91	2848.72
411.12	3035.09
411.32	3407.82
411.53	3170.26
411.74	3084.24
411.95	3143.63
412.15	3284.94
412.36	3454.92
412.57	3248.08
412.77	3174.35
412.98	3338.19
413.19	3145.68
413.39	3155.92
413.60	3055.57
413.81	3567.56
414.01	3139.54
414.22	3119.06
414.43	3262.41
414.63	3262.41
414.84	3487.69
415.05	3102.67
415.25	2895.83
415.46	3395.53
415.67	3192.78
415.87	2963.41
416.08	2992.08
416.29	3188.69
416.49	3420.11
416.70	3080.14
416.91	3041.23
417.11	3145.68
417.32	3467.21
417.53	3127.25
417.73	3123.15
417.94	3260.37
418.15	3362.76
418.35	3049.43
418.56	3114.96
418.77	3782.60
418.97	3338.19
419.18	3157.97
419.38	2713.56
419.59	3362.76
419.80	3530.70
420.00	2953.17
420.21	3010.51
420.42	3571.66
420.62	3332.05
420.83	3039.19
421.04	3008.47
421.24	3262.41
421.45	3356.62
421.65	3047.38
421.86	3010.51
422.07	3450.83
422.27	3426.25
422.48	2977.75
422.69	2867.16
422.89	3262.41
423.10	3215.31
423.30	3065.81
423.51	3092.43
423.72	3450.83
423.92	3409.87
424.13	2918.36
424.33	3133.39
424.54	3526.60
424.75	3160.02
424.95	3270.61
425.16	3022.80
425.36	3217.36
425.57	3434.44
425.78	3110.86
425.98	3119.06
426.19	3176.40
426.39	3131.34
426.60	3164.11
426.81	3192.78
427.01	3422.16
427.22	3090.38
427.42	2926.55
427.63	2969.55
427.83	3446.73
428.04	3594.19
428.25	3110.86
428.45	3215.31
428.66	3536.84
428.86	3256.27
429.07	3010.51
429.28	3057.62
429.48	3291.09
429.69	3155.92
429.89	3147.73
430.10	3010.51
430.30	3450.83
430.51	3508.17
430.71	3022.80
430.92	3092.43
431.13	3246.03
431.33	3377.10
431.54	3172.30
431.74	3262.41
431.95	3676.10
432.15	3028.95
432.36	3004.37
432.56	3188.69
432.77	3727.30
432.98	3592.14
433.18	3121.10
433.39	2934.74
433.59	3205.07
433.80	3672.01
434.00	3106.77
434.21	3110.86
434.41	3147.73
434.62	3766.21
434.82	2914.26
435.03	2951.12
435.23	3397.58
435.44	2955.22
435.64	3041.23
435.85	3123.15
436.06	3467.21
436.26	3395.53
436.47	3059.67
436.67	3006.42
436.88	3223.50
437.08	3516.36
437.29	3209.17
437.49	3147.73
437.70	3512.27
437.90	3207.12
438.11	3270.61
438.31	3108.82
438.52	3526.60
438.72	3411.92
438.93	3413.96
439.13	3231.69
439.34	3461.07
439.54	3266.51
439.75	3250.13
439.95	3153.87
440.16	3225.55
440.36	3373.00
440.57	3170.26
440.77	3020.75
440.98	3262.41
441.18	3389.39
441.39	3024.85
441.59	2944.98
441.80	3712.97
442.00	3295.18
442.21	3114.96
442.41	2926.55
442.62	3510.22
442.82	3209.17
443.02	3078.10
443.23	3082.19
443.43	3254.22
443.64	3606.47
443.84	2983.89
444.05	3147.73
444.25	3358.67
444.46	3192.78
444.66	2983.89
444.87	3321.81
445.07	2994.13
445.28	3106.77
445.48	3209.17
445.69	3094.48
445.89	3805.13
446.09	3293.13
446.30	3360.72
446.50	3573.71
446.71	5162.93
446.91	6424.48
447.12	7331.73
447.32	7567.24
447.53	7552.91
447.73	6346.66
447.93	5623.72
448.14	5334.96
448.34	5404.59
448.55	4614.07
448.75	4450.24
448.96	4143.04
449.16	4075.46
449.36	3960.77
449.57	3381.20
449.77	3149.78
449.98	3137.49
450.18	3323.85
450.39	3043.28
450.59	3274.70
450.79	3184.59
451.00	3168.21
451.20	3248.08
451.41	3092.43
451.61	3338.19
451.81	3246.03
452.02	3002.32
452.22	3074.00
452.43	3233.74
452.63	3133.39
452.84	3131.34
453.04	3061.71
453.24	3321.81
453.45	3094.48
453.65	3076.05
453.86	3065.81
454.06	3364.81
454.26	3286.99
454.47	3026.90
454.67	3241.93
454.87	3368.91
455.08	3248.08
455.28	3225.55
455.49	3239.89
455.69	3057.62
455.89	3620.81
456.10	3186.64
456.30	3037.14
456.51	3393.48
456.71	3278.80
456.91	3166.16
457.12	3057.62
457.32	3270.61
457.52	3008.47
457.73	3278.80
457.93	3266.51
458.14	3168.21
458.34	2947.03
458.54	2996.18
458.75	3000.27
458.95	3473.36
459.15	3418.06
459.36	3061.71
459.56	3022.80
459.76	3852.23
459.97	3297.23
460.17	3043.28
460.37	3104.72
460.58	3264.46
460.78	3360.72
460.99	3051.47
461.19	3069.91
461.39	3082.19
461.60	3209.17
461.80	3008.47
462.00	2922.45
462.21	3235.79
462.41	3186.64
462.61	2920.40
462.82	2840.53
463.02	3368.91
463.22	3272.65
463.43	3155.92
463.63	3010.51
463.83	3506.12
464.04	3311.57
464.24	3119.06
464.44	3018.71
464.64	3336.14
464.85	3364.81
465.05	2998.23
465.25	2910.16
465.46	3151.82
465.66	3499.98
465.86	3188.69
466.07	2938.84
466.27	3278.80
466.47	3022.80
466.68	2836.44
466.88	3198.93
467.08	3477.45
467.29	3518.41
467.49	3063.76
467.69	3184.59
467.89	3381.20
468.10	3229.65
468.30	3102.67
468.50	3137.49
468.71	3397.58
468.91	2985.94
469.11	3274.70
469.31	3106.77
469.52	3119.06
469.72	3540.94
469.92	3303.37
470.13	3121.10
470.33	3321.81
470.53	3284.94
470.73	3493.83
470.94	3885.00
471.14	4126.66
471.34	4880.31
471.54	4478.91
471.75	4007.87
471.95	3829.70
472.15	3796.93
472.36	3729.35
472.56	3489.74
472.76	3925.96
472.96	3706.82
473.17	3442.64
473.37	3334.09
473.57	3254.22
473.77	3454.92
473.98	3196.88
474.18	3008.47
474.38	4048.83
474.58	3284.94
474.79	2916.31
474.99	3221.45
475.19	3481.55
475.39	3057.62
475.60	3076.05
475.80	2990.03
476.00	3446.73
476.20	3209.17
476.41	3149.78
476.61	3080.14
476.81	3602.38
477.01	3149.78
477.21	3383.24
477.42	3164.11
477.62	3037.14
477.82	3436.49
478.02	3008.47
478.23	3108.82
478.43	3127.25
478.63	3174.35
478.83	3012.56
479.03	3010.51
479.24	3657.67
479.44	3700.68
479.64	2987.99
479.84	2811.86
480.04	3155.92
480.25	3450.83
480.45	2914.26
480.65	3000.27
480.85	3594.19
481.06	3168.21
481.26	3200.98
481.46	3102.67
481.66	3358.67
481.86	3033.04
482.06	3282.89
482.27	3114.96
482.47	3176.40
482.67	3303.37
482.87	3006.42
483.07	3055.57
483.28	3233.74
483.48	3049.43
483.68	3098.58
483.88	2940.88
484.08	2906.07
484.29	2996.18
484.49	3123.15
484.69	2848.72
484.89	3524.55
485.09	3502.03
485.29	2961.36
485.50	3229.65
485.70	3164.11
485.90	3590.09
486.10	3157.97
486.30	3096.53
486.50	3545.03
486.71	3280.85
486.91	3141.58
487.11	3170.26
487.31	3065.81
487.51	3336.14
487.71	2996.18
487.91	2985.94
488.12	3078.10
488.32	2791.38
488.52	3045.33
488.72	2850.77
488.92	3323.85
489.12	3520.46
489.32	3221.45
489.53	2983.89
489.73	3059.67
489.93	3620.81
490.13	2971.60
490.33	2926.55
490.53	3246.03
490.73	3497.93
490.94	2936.79
491.14	3166.16
491.34	3413.96
491.54	3461.07
491.74	3962.82
491.94	4698.04
492.14	5205.94
492.34	5081.01
492.54	4765.62
492.75	4073.41
492.95	4341.69
493.15	4118.47
493.35	3864.52
493.55	3721.16
493.75	3706.82
493.95	3827.65
494.15	3352.52
494.35	3162.06
494.56	3309.52
494.76	3104.72
494.96	3252.17
495.16	2969.55
495.36	3280.85
495.56	3311.57
495.76	3129.30
495.96	3004.37
496.16	3114.96
496.36	3682.25
496.56	2975.70
496.77	3182.54
496.97	3307.47
497.17	3495.88
497.37	2840.53
497.57	3166.16
497.77	3286.99
497.97	3133.39
498.17	3098.58
498.37	3049.43
498.57	3495.88
498.77	3272.65
498.97	3190.74
499.17	3432.40
499.38	3225.55
499.58	3411.92
499.78	3278.80
499.98	3207.12
500.18	3338.19
500.38	3139.54
500.58	3274.70
500.78	3745.73
500.98	6166.43
501.18	8316.80
501.38	9879.40
501.58	11034.46
501.78	11163.48
501.98	9189.24
502.18	7466.89
502.38	6526.88
502.58	6442.91
502.78	5691.31
502.98	5476.27
503.18	5289.90
503.38	4835.25
503.59	4286.40
503.79	4065.22
503.99	3729.35
504.19	4020.16
504.39	3932.10
504.59	3807.17
504.79	3698.63
504.99	4026.31
505.19	3542.99
505.39	3373.00
505.59	3540.94
505.79	3669.96
505.99	3499.98
506.19	3133.39
506.39	3430.35
506.59	3180.50
506.79	3213.26
506.99	3262.41
507.19	3076.05
507.39	3344.33
507.59	2963.41
507.79	3102.67
507.99	3049.43
508.19	3295.18
508.39	3229.65
508.59	3063.76
508.79	3155.92
508.99	3694.54
509.19	3133.39
509.39	3137.49
509.59	2994.13
509.79	3182.54
509.99	3336.14
510.19	3172.30
510.39	3123.15
510.59	3307.47
510.79	3254.22
510.99	2979.79
511.19	3063.76
511.39	3700.68
511.59	3393.48
511.79	3305.42
511.99	3053.52
512.19	3745.73
512.38	3276.75
512.58	3055.57
512.78	2977.75
512.98	3518.41
513.18	3571.66
513.38	2957.27
513.58	3168.21
513.78	3237.84
513.98	3141.58
514.18	3059.67
514.38	3051.47
514.58	3422.16
514.78	3145.68
514.98	3008.47
515.18	3074.00
515.38	2957.27
515.58	3610.57
515.78	3049.43
515.98	3074.00
516.18	3360.72
516.38	3350.48
516.57	3065.81
516.77	3037.14
516.97	3381.20
517.17	3219.41
517.37	2914.26
517.57	3037.14
517.77	3291.09
517.97	3145.68
518.17	3180.50
518.37	2985.94
518.57	3004.37
518.77	3102.67
518.97	3071.95
519.16	3143.63
519.36	3508.17
519.56	3213.26
519.76	2951.12
519.96	3108.82
520.16	3631.05
520.36	3045.33
520.56	3200.98
520.76	2959.31
520.96	3270.61
521.16	3411.92
521.35	3332.05
521.55	3100.62
521.75	3340.24
521.95	3192.78
522.15	2914.26
522.35	2904.02
522.55	3203.02
522.75	3489.74
522.95	2971.60
523.14	2901.97
523.34	3284.94
523.54	3121.10
523.74	3174.35
523.94	3114.96
524.14	3045.33
524.34	3348.43
524.54	3297.23
524.73	3035.09
524.93	3463.12
525.13	3315.66
525.33	2940.88
525.53	3250.13
525.73	3405.77
525.93	3309.52
526.13	3119.06
526.32	3041.23
526.52	3450.83
526.72	3483.59
526.92	3061.71
527.12	2977.75
527.32	3012.56
527.52	3313.61
527.71	3069.91
527.91	3014.61
528.11	3246.03
528.31	3223.50
528.51	3039.19
528.71	3274.70
528.90	3379.15
529.10	3479.50
529.30	3137.49
529.50	2803.67
529.70	3430.35
529.90	3200.98
530.09	3037.14
530.29	2973.65
530.49	3123.15
530.69	3876.80
530.89	3295.18
531.09	3151.82
531.28	3143.63
531.48	3481.55
531.68	3125.20
531.88	3035.09
532.08	3491.79
532.28	3213.26
532.47	3176.40
532.67	3168.21
532.87	3364.81
533.07	3090.38
533.27	3045.33
533.46	3182.54
533.66	3385.29
533.86	3200.98
534.06	3102.67
534.26	3039.19
534.45	3229.65
534.65	3463.12
534.85	3114.96
535.05	2979.79
535.25	3432.40
535.44	2975.70
535.64	3133.39
535.84	3119.06
536.04	3205.07
536.24	3250.13
536.43	2965.46
536.63	3041.23
536.83	3239.89
537.03	3221.45
537.22	2893.78
537.42	2848.72
537.62	3405.77
537.82	3082.19
538.02	3237.84
538.21	3129.30
538.41	3903.43
538.61	3428.30
538.81	3200.98
539.00	3229.65
539.20	3020.75
539.40	3258.32
539.60	3043.28
539.79	3252.17
539.99	3325.90
540.19	3135.44
540.39	2983.89
540.58	3102.67
540.78	3479.50
540.98	3243.98
541.18	3325.90
541.37	3121.10
541.57	3338.19
541.77	3336.14
541.97	3012.56
542.16	2951.12
542.36	3182.54
542.56	3198.93
542.76	3334.09
542.95	3139.54
543.15	3389.39
543.35	3454.92
543.54	3000.27
543.74	3000.27
543.94	3416.01
544.14	3190.74
544.33	3127.25
544.53	3055.57
544.73	3200.98
544.93	3299.28
545.12	3043.28
545.32	3067.86
545.52	3219.41
545.71	3004.37
545.91	3114.96
546.11	2973.65
546.30	3164.11
546.50	3241.93
546.70	3133.39
546.90	3123.15
547.09	2963.41
547.29	3258.32
547.49	3225.55
547.68	3065.81
547.88	3114.96
548.08	3401.68
548.27	3393.48
548.47	3004.37
548.67	3151.82
548.87	3268.56
549.06	2977.75
549.26	3018.71
549.46	3344.33
549.65	3123.15
549.85	3123.15
550.05	3041.23
550.24	2981.84
550.44	3258.32
550.64	3080.14
550.83	3047.38
551.03	3631.05
551.23	3432.40
551.42	3174.35
551.62	3205.07
551.82	3266.51
552.01	3194.83
552.21	3432.40
552.41	3106.77
552.60	3606.47
552.80	3354.57
553.00	3016.66
553.19	3059.67
553.39	3553.23
553.59	3082.19
553.78	3188.69
553.98	3020.75
554.17	2947.03
554.37	3323.85
554.57	3133.39
554.76	2994.13
554.96	3119.06
555.16	3297.23
555.35	3225.55
555.55	3174.35
555.75	3387.34
555.94	3391.44
556.14	2799.57
556.33	3125.20
556.53	3227.60
556.73	3303.37
556.92	3051.47
557.12	2990.03
557.32	3753.93
557.51	3538.89
557.71	3057.62
557.90	3266.51
558.10	3518.41
558.30	3276.75
558.49	3010.51
558.69	3012.56
558.88	3375.05
559.08	3270.61
559.28	3063.76
559.47	3094.48
559.67	3387.34
559.86	3672.01
560.06	3121.10
560.26	3108.82
560.45	3403.72
560.65	3235.79
560.84	3280.85
561.04	3000.27
561.24	3452.88
561.43	3071.95
561.63	3348.43
561.82	3117.01
562.02	3387.34
562.22	3061.71
562.41	2987.99
562.61	3051.47
562.80	3084.24
563.00	3835.85
563.19	3172.30
563.39	3082.19
563.59	3461.07
563.78	3098.58
563.98	2809.81
564.17	3037.14
564.37	2975.70
564.56	3207.12
564.76	2947.03
564.96	3176.40
565.15	3276.75
565.35	3717.06
565.54	3078.10
565.74	3106.77
565.93	3381.20
566.13	3286.99
566.32	3157.97
566.52	3180.50
566.71	3301.33
566.91	3475.40
567.11	3209.17
567.30	2961.36
567.50	3409.87
567.69	3246.03
567.89	3067.86
568.08	2969.55
568.28	3321.81
568.47	3024.85
568.67	3133.39
568.86	3008.47
569.06	3379.15
569.25	3235.79
569.45	3002.32
569.64	3123.15
569.84	3258.32
570.04	3311.57
570.23	3024.85
570.43	3030.99
570.62	3327.95
570.82	3596.23
571.01	2961.36
571.21	2977.75
571.40	3090.38
571.60	3444.68
571.79	3139.54
571.99	3033.04
572.18	3139.54
572.38	3319.76
572.57	3065.81
572.77	3114.96
572.96	3850.18
573.16	3338.19
573.35	3117.01
573.55	3223.50
573.74	3452.88
573.94	3209.17
574.13	3059.67
574.33	3286.99
574.52	3528.65
574.71	3272.65
574.91	3178.45
575.10	2922.45
575.30	3145.68
575.49	3188.69
575.69	3086.29
575.88	3028.95
576.08	3178.45
576.27	3426.25
576.47	3088.34
576.66	3307.47
576.86	3540.94
577.05	3438.54
577.25	3203.02
577.44	3233.74
577.64	3176.40
577.83	3475.40
578.02	2955.22
578.22	3237.84
578.41	3639.24
578.61	3217.36
578.80	2985.94
579.00	3141.58
579.19	3184.59
579.39	3295.18
579.58	3170.26
579.77	3157.97
579.97	3504.07
580.16	3469.26
580.36	3213.26
580.55	3198.93
580.75	3323.85
580.94	3286.99
581.13	3258.32
581.33	3270.61
581.52	3194.83
581.72	3663.82
581.91	3147.73
582.11	3059.67
582.30	3495.88
582.49	3332.05
582.69	3387.34
582.88	3114.96
583.08	3291.09
583.27	3518.41
583.47	3237.84
583.66	3065.81
583.85	3090.38
584.05	3303.37
584.24	3151.82
584.44	3119.06
584.63	3489.74
584.82	3590.09
585.02	3317.71
585.21	3215.31
585.41	3418.06
585.60	3368.91
585.79	3219.41
585.99	3403.72
586.18	3323.85
586.37	4274.11
586.57	6258.59
586.76	17704.69
586.96	37645.76
587.15	50650.36
587.34	59419.77
587.54	63099.97
587.73	56237.22
587.93	40932.75
588.12	31501.86
588.31	25607.80
588.51	22640.29
588.70	21075.65
588.89	18245.35
589.09	15830.80
589.28	13625.14
589.47	10778.46
589.67	8349.57
589.86	6522.78
590.06	4999.09
590.25	4472.76
590.44	3841.99
590.64	3545.03
590.83	3524.55
591.02	3524.55
591.22	3104.72
591.41	3166.16
591.60	3237.84
591.80	3729.35
591.99	2947.03
592.18	3028.95
592.38	3487.69
592.57	3246.03
592.76	3065.81
592.96	3186.64
593.15	3155.92
593.34	3502.03
593.54	3008.47
593.73	3297.23
593.92	3442.64
594.12	3358.67
594.31	3198.93
594.50	3282.89
594.70	3516.36
594.89	3928.00
595.08	3000.27
595.28	3297.23
595.47	3921.86
595.66	3502.03
595.86	2971.60
596.05	2947.03
596.24	3182.54
596.43	3698.63
596.63	3221.45
596.82	3157.97
597.01	3428.30
597.21	3637.19
597.40	3149.78
597.59	3020.75
597.79	3268.56
597.98	3368.91
598.17	3209.17
598.36	3176.40
598.56	3405.77
598.75	3141.58
598.94	3071.95
599.14	3221.45
599.33	3184.59
599.52	3532.75
599.71	3231.69
599.91	3051.47
600.10	3424.20
600.29	3286.99
600.48	3184.59
600.68	3205.07
600.87	3401.68
601.06	3139.54
601.26	3166.16
601.45	3282.89
601.64	3303.37
601.83	3600.33
602.03	2967.51
602.22	2996.18
602.41	3504.07
602.60	3801.03
602.80	3104.72
602.99	3188.69
603.18	3200.98
603.37	3231.69
603.57	2998.23
603.76	3106.77
603.95	3502.03
604.14	3231.69
604.34	3014.61
604.53	3090.38
604.72	3256.27
604.91	3475.40
605.10	3010.51
605.30	2992.08
605.49	3712.97
605.68	3422.16
605.87	3135.44
606.07	3055.57
606.26	3309.52
606.45	3360.72
606.64	3102.67
606.84	2983.89
607.03	3295.18
607.22	3459.02
607.41	3123.15
607.60	3110.86
607.80	3442.64
607.99	3229.65
608.18	3127.25
608.37	3065.81
608.56	3149.78
608.76	3463.12
608.95	3286.99
609.14	3076.05
609.33	3495.88
609.52	3592.14
609.72	3176.40
609.91	3250.13
610.10	3434.44
610.29	3573.71
610.48	3184.59
610.68	3246.03
610.87	3209.17
611.06	3438.54
611.25	3065.81
611.44	3266.51
611.63	3157.97
611.83	3553.23
612.02	3004.37
612.21	3229.65
612.40	2969.55
612.59	3014.61
612.79	2963.41
612.98	3141.58
613.17	3649.48
613.36	3289.04
613.55	3196.88
613.74	3076.05
613.93	3274.70
614.13	3487.69
614.32	3315.66
614.51	3172.30
614.70	3248.08
614.89	3168.21
615.08	3203.02
615.28	3438.54
615.47	3035.09
615.66	3336.14
615.85	3088.34
616.04	3235.79
616.23	3309.52
616.42	3413.96
616.62	3076.05
616.81	3074.00
617.00	3190.74
617.19	3411.92
617.38	3084.24
617.57	3160.02
617.76	3477.45
617.95	3395.53
618.15	3186.64
618.34	3291.09
618.53	3065.81
618.72	3444.68
618.91	3180.50
619.10	3139.54
619.29	3319.76
619.48	3276.75
619.68	3037.14
619.87	3067.86
620.06	2985.94
620.25	3321.81
620.44	2963.41
620.63	3020.75
620.82	3264.46
621.01	3233.74
621.20	3059.67
621.39	3114.96
621.59	3352.52
621.78	3243.98
621.97	3028.95
622.16	3223.50
622.35	3356.62
622.54	3434.44
622.73	3182.54
622.92	2897.88
623.11	3524.55
623.30	3180.50
623.49	3129.30
623.68	2951.12
623.88	3510.22
624.07	3131.34
624.26	2955.22
624.45	2963.41
624.64	3180.50
624.83	3391.44
625.02	3063.76
625.21	3098.58
625.40	3280.85
625.59	3585.99
625.78	3157.97
625.97	3223.50
626.16	3616.71
626.35	3489.74
626.54	3147.73
626.74	3321.81
626.93	3215.31
627.12	3162.06
627.31	3196.88
627.50	3127.25
627.69	3387.34
627.88	3112.91
628.07	2971.60
628.26	2871.25
628.45	3137.49
628.64	3125.20
628.83	3067.86
629.02	2944.98
629.21	3426.25
629.40	3364.81
629.59	2904.02
629.78	3078.10
629.97	3291.09
630.16	3340.24
630.35	3119.06
630.54	3174.35
630.73	3117.01
630.92	3221.45
631.11	3041.23
631.30	3129.30
631.49	3436.49
631.68	3196.88
631.87	3076.05
632.06	2994.13
632.25	3758.02
632.44	3248.08
632.63	3153.87
632.82	3131.34
633.01	3119.06
633.20	3342.28
633.39	3143.63
633.58	2879.44
633.77	3444.68
633.96	3401.68
634.15	3237.84
634.34	3153.87
634.53	3424.20
634.72	3231.69
634.91	2856.92
635.10	3057.62
635.29	3518.41
635.48	3264.46
635.67	2906.07
635.86	2879.44
636.05	3508.17
636.24	3205.07
636.43	3041.23
636.62	3172.30
636.81	2828.24
637.00	3205.07
637.19	3088.34
637.38	3082.19
637.57	3239.89
637.76	3364.81
637.95	3256.27
638.14	3272.65
638.33	3383.24
638.52	3354.57
638.71	2928.60
638.89	2940.88
639.08	3827.65
639.27	3508.17
639.46	3428.30
639.65	3651.53
639.84	3889.09
640.03	4052.93
640.22	3669.96
640.41	3575.75
640.60	3407.82
640.79	3504.07
640.98	3364.81
641.17	3413.96
641.36	3506.12
641.55	3547.08
641.74	3028.95
641.92	3018.71
642.11	3121.10
642.30	3229.65
642.49	3016.66
642.68	3110.86
642.87	3360.72
643.06	3368.91
643.25	2926.55
643.44	3033.04
643.63	3293.13
643.82	3471.31
644.00	3028.95
644.19	3090.38
644.38	3057.62
644.57	3442.64
644.76	3139.54
644.95	3121.10
645.14	3219.41
645.33	3317.71
645.52	3117.01
645.71	2901.97
645.89	3033.04
646.08	3166.16
646.27	3057.62
646.46	3286.99
646.65	2938.84
646.84	3291.09
647.03	2953.17
647.22	3286.99
647.40	3366.86
647.59	3278.80
647.78	2791.38
647.97	2951.12
648.16	3035.09
648.35	3489.74
648.54	3342.28
648.73	3084.24
648.91	3467.21
649.10	3256.27
649.29	3067.86
649.48	3020.75
649.67	3317.71
649.86	3321.81
650.05	3178.45
650.23	3237.84
650.42	3264.46
650.61	3602.38
650.80	3338.19
650.99	3368.91
651.18	3446.73
651.36	3493.83
651.55	3057.62
651.74	3254.22
651.93	3200.98
652.12	3246.03
652.31	3090.38
652.49	3139.54
652.68	3182.54
652.87	3672.01
653.06	3149.78
653.25	3368.91
653.44	3213.26
653.62	3563.47
653.81	3127.25
654.00	3112.91
654.19	3413.96
654.38	3823.56
654.56	3137.49
654.75	3078.10
654.94	3553.23
655.13	3323.85
655.32	2975.70
655.51	3045.33
655.69	3133.39
655.88	3381.20
656.07	2869.20
656.26	3151.82
656.45	3090.38
656.63	3319.76
656.82	3078.10
657.01	3377.10
657.20	3172.30
657.38	3555.27
657.57	3026.90
657.76	2955.22
657.95	3450.83
658.14	3211.22
658.32	3180.50
658.51	2904.02
658.70	3379.15
658.89	3440.59
659.08	3147.73
659.26	3334.09
659.45	3192.78
659.64	3426.25
659.83	3147.73
660.01	3461.07
660.20	3350.48
660.39	3643.34
660.58	2781.14
660.76	3170.26
660.95	3024.85
661.14	3311.57
661.33	2924.50
661.51	3045.33
661.70	3200.98
661.89	3368.91
662.08	3002.32
662.26	2879.44
662.45	3112.91
662.64	3626.95
662.83	3098.58
663.01	3004.37
663.20	3176.40
663.39	3612.62
663.58	3123.15
663.76	3043.28
663.95	3354.57
664.14	3110.86
664.32	3170.26
664.51	3012.56
664.70	3022.80
664.89	3299.28
665.07	2992.08
665.26	3217.36
665.45	3002.32
665.64	3389.39
665.82	3071.95
666.01	3231.69
666.20	3008.47
666.38	3405.77
666.57	3391.44
666.76	5719.98
666.95	13145.91
667.13	20657.86
667.32	25331.33
667.51	28386.89
667.69	29359.68
667.88	24608.39
668.07	17598.20
668.25	15175.45
668.44	13223.73
668.63	11278.16
668.81	9719.66
669.00	8613.76
669.19	7724.94
669.38	6723.48
669.56	5726.12
669.75	5027.76
669.94	4478.91
670.12	3811.27
670.31	3391.44
670.50	3422.16
670.68	3545.03
670.87	3373.00
671.06	3069.91
671.24	3160.02
671.43	3706.82
671.62	3356.62
671.80	3088.34
671.99	3254.22
672.18	3364.81
672.36	3502.03
672.55	3268.56
672.74	3096.53
672.92	3203.02
673.11	3364.81
673.29	2893.78
673.48	3336.14
673.67	3246.03
673.85	3469.26
674.04	3061.71
674.23	3286.99
674.41	3743.69
674.60	3127.25
674.79	2865.11
674.97	3016.66
675.16	3407.82
675.34	3604.42
675.53	3112.91
675.72	3229.65
675.90	3647.43
676.09	3219.41
676.28	3090.38
676.46	2908.12
676.65	3450.83
676.83	3080.14
677.02	3137.49
677.21	3164.11
677.39	3416.01
677.58	3045.33
677.77	3059.67
677.95	2985.94
678.14	3223.50
678.32	3121.10
678.51	3092.43
678.70	3346.38
678.88	3139.54
679.07	3354.57
679.25	3139.54
679.44	3106.77
679.63	3012.56
679.81	3368.91
680.00	3336.14
680.18	3180.50
680.37	3635.14
680.55	3313.61
680.74	2942.93
680.93	2877.40
681.11	3360.72
681.30	3311.57
681.48	3102.67
681.67	2992.08
681.85	3274.70
682.04	3112.91
682.23	3180.50
682.41	3184.59
682.60	3278.80
682.78	3258.32
682.97	2922.45
683.15	3114.96
683.34	3344.33
683.53	3608.52
683.71	2908.12
683.90	3110.86
684.08	3657.67
684.27	3196.88
684.45	3160.02
684.64	3184.59
684.82	3243.98
685.01	3385.29
685.19	2983.89
685.38	3411.92
685.57	3270.61
685.75	3016.66
685.94	2990.03
686.12	2994.13
686.31	3176.40
686.49	3600.33
686.68	2846.68
686.86	3084.24
687.05	3241.93
687.23	3557.32
687.42	3170.26
687.60	2932.69
687.79	3422.16
687.97	3614.66
688.16	3131.34
688.34	3258.32
688.53	2957.27
688.71	3426.25
688.90	3325.90
689.08	3164.11
689.27	3016.66
689.45	3487.69
689.64	3211.22
689.82	3147.73
690.01	3375.05
690.19	3305.42
690.38	3094.48
690.56	3227.60
690.75	3172.30
690.93	3176.40
691.12	3010.51
691.30	3190.74
691.49	3104.72
691.67	3332.05
691.86	3450.83
692.04	3074.00
692.23	3209.17
692.41	3385.29
692.60	3459.02
692.78	3325.90
692.97	3323.85
693.15	3381.20
693.34	3366.86
693.52	3293.13
693.71	3164.11
693.89	3180.50
694.08	2951.12
694.26	3205.07
694.44	3395.53
694.63	3379.15
694.81	2987.99
695.00	3123.15
695.18	3557.32
695.37	3805.13
695.55	3112.91
695.74	3123.15
695.92	3151.82
696.10	3510.22
696.29	3002.32
696.47	3022.80
696.66	3051.47
696.84	3074.00
697.03	3131.34
697.21	3344.33
697.40	4622.27
697.58	3512.27
697.76	3004.37
697.95	3059.67
698.13	3074.00
698.32	3192.78
698.50	3051.47
698.68	3057.62
698.87	3373.00
699.05	3667.91
699.24	3135.44
699.42	3067.86
699.61	3368.91
699.79	3366.86
699.97	3100.62
700.16	2975.70
700.34	3100.62
700.53	3237.84
700.71	3278.80
700.89	3256.27
701.08	3231.69
701.26	3264.46
701.45	3424.20
701.63	3106.77
701.81	3147.73
702.00	3160.02
702.18	3250.13
702.37	3037.14
702.55	3504.07
702.73	3362.76
702.92	3164.11
703.10	3452.88
703.28	3459.02
703.47	3127.25
703.65	3323.85
703.84	3315.66
704.02	3160.02
704.20	3674.06
704.39	3104.72
704.57	3147.73
704.75	3532.75
704.94	3469.26
705.12	3352.52
705.30	4018.11
705.49	8974.20
705.67	17536.76
705.86	24540.81
706.04	27790.94
706.22	30662.19
706.41	29562.43
706.59	22116.01
706.77	17239.80
706.96	14743.33
707.14	13641.52
707.32	11630.41
707.51	10127.21
707.69	8210.31
707.87	6633.37
708.06	5412.78
708.24	4552.63
708.42	4106.18
708.61	4212.67
708.79	3217.36
708.97	3332.05
709.16	3405.77
709.34	3289.04
709.52	3094.48
709.71	3155.92
709.89	3401.68
710.07	3102.67
710.26	2998.23
710.44	3155.92
710.62	3409.87
710.80	3229.65
710.99	3114.96
711.17	3286.99
711.35	3180.50
711.54	3180.50
711.72	3282.89
711.90	3147.73
712.09	3377.10
712.27	3176.40
712.45	3254.22
712.63	3092.43
712.82	3362.76
713.00	3246.03
713.18	3313.61
713.37	3373.00
713.55	3426.25
713.73	3422.16
713.91	3198.93
714.10	3125.20
714.28	3262.41
714.46	3344.33
714.65	3139.54
714.83	3096.53
715.01	3227.60
715.19	3278.80
715.38	3020.75
715.56	3225.55
715.74	3102.67
715.92	3096.53
716.11	3368.91
716.29	2897.88
716.47	3280.85
716.65	3237.84
716.84	2992.08
717.02	3246.03
717.20	2959.31
717.38	3131.34
717.57	3211.22
717.75	3168.21
717.93	3223.50
718.11	3338.19
718.30	2951.12
718.48	3143.63
718.66	3514.31
718.84	3467.21
719.03	3082.19
719.21	2990.03
719.39	3588.04
719.57	3450.83
719.75	3094.48
719.94	2934.74
720.12	3178.45
720.30	3364.81
720.48	3274.70
720.67	3020.75
720.85	3033.04
721.03	3168.21
721.21	3026.90
721.39	3209.17
721.58	3323.85
721.76	3254.22
721.94	3076.05
722.12	3176.40
722.30	3618.76
722.49	3157.97
722.67	3078.10
722.85	3160.02
723.03	3002.32
723.21	3106.77
723.40	3110.86
723.58	3239.89
723.76	3428.30
723.94	3532.75
724.12	3180.50
724.30	3338.19
724.49	3463.12
724.67	3096.53
724.85	3213.26
725.03	3008.47
725.21	3370.96
725.40	3557.32
725.58	3114.96
725.76	3270.61
725.94	3368.91
726.12	3096.53
726.30	3184.59
726.49	3092.43
726.67	3180.50
726.85	3479.50
727.03	4034.50
727.21	5545.90
727.39	7436.17
727.57	8097.67
727.76	8703.87
727.94	8562.56
728.12	7370.64
728.30	6045.60
728.48	5603.24
728.66	5152.69
728.84	4872.12
729.03	4331.45
729.21	3858.37
729.39	3641.29
729.57	3456.97
729.75	3469.26
729.93	3405.77
730.11	3076.05
730.30	3168.21
730.48	3205.07
730.66	3198.93
730.84	3239.89
731.02	3315.66
731.20	3149.78
731.38	3176.40
731.56	2858.96
731.74	3065.81
731.93	3383.24
732.11	3221.45
732.29	3028.95
732.47	3352.52
732.65	3334.09
732.83	3223.50
733.01	3205.07
733.19	3203.02
733.37	3379.15
733.56	3131.34
733.74	2990.03
733.92	3588.04
734.10	3153.87
734.28	3264.46
734.46	2912.21
734.64	3213.26
734.82	3211.22
735.00	3018.71
735.18	2992.08
735.36	3239.89
735.54	3258.32
735.73	3092.43
735.91	3243.98
736.09	3559.37
736.27	3258.32
736.45	3135.44
736.63	2838.48
736.81	3284.94
736.99	3420.11
737.17	3284.94
737.35	3018.71
737.53	3246.03
737.71	3186.64
737.89	3280.85
738.07	3049.43
738.25	3153.87
738.43	2996.18
738.61	3123.15
738.80	2959.31
738.98	3117.01
739.16	3151.82
739.34	3033.04
739.52	3420.11
739.70	3207.12
739.88	3311.57
740.06	3297.23
740.24	2791.38
740.42	3553.23
740.60	2944.98
740.78	3080.14
740.96	2875.35
741.14	3213.26
741.32	3250.13
741.50	2889.68
741.68	3375.05
741.86	3506.12
742.04	3098.58
742.22	3102.67
742.40	2994.13
742.58	3340.24
742.76	3168.21
742.94	3418.06
743.12	2971.60
743.30	3274.70
743.48	3448.78
743.66	2973.65
743.84	3196.88
744.02	3299.28
744.20	3250.13
744.38	3012.56
744.56	3106.77
744.74	3631.05
744.92	3393.48
745.10	3344.33
745.28	3135.44
745.46	3592.14
745.64	3239.89
745.82	3198.93
746.00	3041.23
746.18	3426.25
746.36	3098.58
746.54	3166.16
746.72	3098.58
746.90	3110.86
747.08	3444.68
747.26	3121.10
747.44	3340.24
747.62	3409.87
747.80	3393.48
747.98	3194.83
748.15	3100.62
748.33	3657.67
748.51	3336.14
748.69	3143.63
748.87	3051.47
749.05	3278.80
749.23	3217.36
749.41	3082.19
749.59	3074.00
749.77	3416.01
749.95	3272.65
750.13	3057.62
750.31	3258.32
750.49	3209.17
750.67	3381.20
750.85	3291.09
751.03	3071.95
751.20	3676.10
751.38	3301.33
751.56	3123.15
751.74	3123.15
751.92	3139.54
752.10	3028.95
752.28	3307.47
752.46	3051.47
752.64	3256.27
752.82	3254.22
753.00	3172.30
753.18	3000.27
753.35	3207.12
753.53	3313.61
753.71	2949.08
753.89	3024.85
754.07	3327.95
754.25	3520.46
754.43	3164.11
754.61	2994.13
754.79	3377.10
754.97	3198.93
755.14	3272.65
755.32	2928.60
755.50	3229.65
755.68	3274.70
755.86	3026.90
756.04	3065.81
756.22	2990.03
756.40	3411.92
756.57	3303.37
756.75	3039.19
756.93	3469.26
757.11	3430.35
757.29	2938.84
757.47	3002.32
757.65	2985.94
757.82	2908.12
758.00	3018.71
758.18	3049.43
758.36	3125.20
758.54	3661.77
758.72	2951.12
758.90	3151.82
759.07	3338.19
759.25	3102.67
759.43	3153.87
759.61	2869.20
759.79	4491.20
759.97	3473.36
760.15	3176.40
760.32	3080.14
760.50	3330.00
760.68	3559.37
760.86	2949.08
761.04	3309.52
761.22	3366.86
761.39	3426.25
761.57	3237.84
761.75	3092.43
761.93	3456.97
762.11	3190.74
762.28	3200.98
762.46	3082.19
762.64	3553.23
762.82	3041.23
763.00	3057.62
763.18	3299.28
763.35	3059.67
763.53	3416.01
763.71	3215.31
763.89	3030.99
764.07	3262.41
764.24	3254.22
764.42	3243.98
764.60	3123.15
764.78	3368.91
764.96	3409.87
765.13	3313.61
765.31	2959.31
765.49	3381.20
765.67	3065.81
765.84	3028.95
766.02	2975.70
766.20	2998.23
766.38	3319.76
766.56	3155.92
766.73	3164.11
766.91	3295.18
767.09	3311.57
767.27	3153.87
767.44	2996.18
767.62	3403.72
767.80	3356.62
767.98	2975.70
768.15	3090.38
768.33	3303.37
768.51	3416.01
768.69	3250.13
768.87	3114.96
769.04	3297.23
769.22	3794.89
769.40	3276.75
769.58	3207.12
769.75	3334.09
769.93	3538.89
770.11	3127.25
770.28	2994.13
770.46	3438.54
770.64	3317.71
770.82	3063.76
770.99	2983.89
771.17	3403.72
771.35	3125.20
771.53	3086.29
771.70	3024.85
771.88	3440.59
772.06	3225.55
772.23	2996.18
772.41	3155.92
772.59	3301.33
772.77	3090.38
772.94	3133.39
773.12	3221.45
773.30	3235.79
773.47	3307.47
773.65	3035.09
773.83	3231.69
774.01	3278.80
774.18	2904.02
774.36	3092.43
774.54	3000.27
774.71	3428.30
774.89	2938.84
775.07	2963.41
775.24	3033.04
775.42	3182.54
775.60	3594.19
775.78	2934.74
775.95	2994.13
776.13	2981.84
776.31	2957.27
776.48	3274.70
776.66	3239.89
776.84	3260.37
777.01	3141.58
777.19	3014.61
777.37	3100.62
777.54	3456.97
777.72	3633.10
777.90	3168.21
778.07	3035.09
778.25	3887.04
778.43	3434.44
778.60	3018.71
778.78	3125.20
778.96	3561.42
779.13	2944.98
779.31	3215.31
779.49	3133.39
779.66	3297.23
779.84	3157.97
780.01	2992.08
780.19	3000.27
780.37	3442.64
780.54	3366.86
780.72	2889.68
780.90	3098.58
781.07	3246.03
781.25	3137.49
781.43	3254.22
781.60	3049.43
781.78	3475.40
781.95	3264.46
782.13	2994.13
782.31	3053.52
782.48	2910.16
782.66	3303.37
782.83	3340.24
783.01	3268.56
783.19	3387.34
783.36	3258.32
783.54	2994.13
783.72	3180.50
783.89	3209.17
784.07	3291.09
784.24	3250.13
784.42	3229.65
784.60	3364.81
784.77	3272.65
784.95	2809.81
785.12	3098.58
785.30	3336.14
785.47	3024.85
785.65	2967.51
785.83	3141.58
786.00	3168.21
786.18	3307.47
786.35	3061.71
786.53	2961.36
786.71	3413.96
786.88	3401.68
787.06	3151.82
787.23	3190.74
787.41	3074.00
787.58	3309.52
787.76	3030.99
787.94	3049.43
788.11	3309.52
788.29	3012.56
788.46	3024.85
788.64	2897.88
788.81	3166.16
788.99	3106.77
789.16	3051.47
789.34	3108.82
789.52	3155.92
789.69	3133.39
789.87	2918.36
790.04	3110.86
790.22	3284.94
790.39	3655.62
790.57	2951.12
790.74	3041.23
790.92	3475.40
791.09	2901.97
791.27	3155.92
791.44	3188.69
791.62	3190.74
791.79	3405.77
791.97	3155.92
792.15	3387.34
792.32	3370.96
792.50	3430.35
792.67	3225.55
792.85	3348.43
793.02	3330.00
793.20	3174.35
793.37	2910.16
793.55	3037.14
793.72	3061.71
793.90	3459.02
794.07	3024.85
794.25	2965.46
794.42	3276.75
794.60	3205.07
794.77	3180.50
794.95	3190.74
795.12	3471.31
795.30	3215.31
795.47	2869.20
795.65	3545.03
795.82	3305.42
796.00	3082.19
796.17	3139.54
796.34	3033.04
796.52	3213.26
796.69	3405.77
796.87	3192.78
797.04	3196.88
797.22	3383.24
797.39	3246.03
797.57	3241.93
797.74	3194.83
797.92	3205.07
798.09	3162.06
798.27	3393.48
798.44	3098.58
798.62	3160.02
798.79	3246.03
798.96	3229.65
799.14	3125.20
799.31	3745.73
799.49	3198.93
799.66	3123.15
799.84	3090.38
800.01	3037.14
800.19	3317.71
800.36	2838.48
800.53	3071.95
800.71	3291.09
800.88	3577.80
801.06	3039.19
801.23	2987.99
801.41	3172.30
801.58	3176.40
801.75	3104.72
801.93	3123.15
802.10	3358.67
802.28	3229.65
802.45	3155.92
802.63	3129.30
802.80	3481.55
802.97	3225.55
803.15	3102.67
803.32	3074.00
803.50	3084.24
803.67	3078.10
803.84	2965.46
804.02	3133.39
804.19	3239.89
804.37	2869.20
804.54	2893.78
804.71	3131.34
804.89	3252.17
805.06	3098.58
805.24	3002.32
805.41	2904.02
805.58	3088.34
805.76	3811.27
805.93	3088.34
806.10	3155.92
806.28	3362.76
806.45	3330.00
806.63	3327.95
806.80	3172.30
806.97	3342.28
807.15	3301.33
807.32	3166.16
807.49	3102.67
807.67	3000.27
807.84	3262.41
808.01	2922.45
808.19	3282.89
808.36	3739.59
808.54	3114.96
808.71	3033.04
808.88	3006.42
809.06	3467.21
809.23	3553.23
809.40	3114.96
809.58	3049.43
809.75	3188.69
809.92	3067.86
810.10	3325.90
810.27	3133.39
810.44	3313.61
810.62	3344.33
810.79	3049.43
810.96	3149.78
811.14	3157.97
811.31	3405.77
811.48	3252.17
811.66	3131.34
811.83	3469.26
812.00	3336.14
812.18	3198.93
812.35	3405.77
812.52	3225.55
812.69	3127.25
812.87	3076.05
813.04	2971.60
813.21	3196.88
813.39	3106.77
813.56	3000.27
813.73	3338.19
813.91	2944.98
814.08	3200.98
814.25	3090.38
814.42	2963.41
814.60	3231.69
814.77	3162.06
814.94	3018.71
815.12	3094.48
815.29	3594.19
815.46	3149.78
815.63	3057.62
815.81	2920.40
815.98	3241.93
816.15	3250.13
816.33	3225.55
816.50	3096.53
816.67	3248.08
816.84	3229.65
817.02	2992.08
817.19	3035.09
817.36	3311.57
817.53	3377.10
817.71	2994.13
817.88	3057.62
818.05	3178.45
818.22	3215.31
818.40	3258.32
818.57	3061.71
818.74	3303.37
818.91	3239.89
819.09	3239.89
819.26	3190.74
819.43	3108.82
819.60	3133.39
819.78	3258.32
819.95	3059.67
820.12	3063.76
820.29	3590.09
820.47	3354.57
820.64	2981.84
820.81	2959.31
820.98	3069.91
821.15	3043.28
821.33	3252.17
821.50	2930.64
821.67	3379.15
821.84	3090.38
822.02	3102.67
822.19	3450.83
822.36	3200.98
822.53	3047.38
822.70	3035.09
822.88	3203.02
823.05	3545.03
823.22	3166.16
823.39	3078.10
823.56	3186.64
823.74	3725.26
823.91	2975.70
824.08	2928.60
824.25	3117.01
824.42	3579.85
824.60	2920.40
824.77	3215.31
824.94	3231.69
825.11	3420.11
825.28	2899.92
825.45	3149.78
825.63	3336.14
825.80	3020.75
825.97	3219.41
826.14	3069.91
826.31	3000.27
826.48	3360.72
826.66	3043.28
826.83	3041.23
827.00	3170.26
827.17	3043.28
827.34	3037.14
827.51	3012.56
827.69	3196.88
827.86	3002.32
828.03	3188.69
828.20	3119.06
828.37	3104.72
828.54	3286.99
828.71	3039.19
828.89	3170.26
829.06	3280.85
829.23	3631.05
829.40	3090.38
829.57	3065.81
829.74	3352.52
829.91	3086.29
830.09	3002.32
830.26	3217.36
830.43	3571.66
830.60	3188.69
830.77	3198.93
830.94	3364.81
831.11	3495.88
831.28	3137.49
831.46	3256.27
831.63	3043.28
831.80	3424.20
831.97	3074.00
832.14	3082.19
832.31	3110.86
832.48	3289.04
832.65	3401.68
832.82	3168.21
832.99	3086.29
833.17	3004.37
833.34	3506.12
833.51	2918.36
833.68	2742.23
833.85	3510.22
834.02	3086.29
834.19	3051.47
834.36	3004.37
834.53	3313.61
834.70	3506.12
834.87	3078.10
835.04	2893.78
835.22	3131.34
835.39	3225.55
835.56	2852.82
835.73	2977.75
835.90	3518.41
836.07	3037.14
836.24	3020.75
836.41	2893.78
836.58	3055.57
836.75	3499.98
836.92	2858.96
837.09	2858.96
837.26	3336.14
837.43	3354.57
837.60	2955.22
837.77	2887.64
837.94	3461.07
838.12	3493.83
838.29	2838.48
838.46	2793.43
838.63	3092.43
838.80	3545.03
838.97	2963.41
839.14	2879.44
839.31	3280.85
839.48	3426.25
839.65	2895.83
839.82	3010.51
839.99	3237.84
840.16	3229.65
840.33	2858.96
840.50	2981.84
840.67	3108.82
840.84	2789.33
841.01	2889.68
841.18	2904.02
841.35	3198.93
841.52	3409.87
841.69	3170.26
841.86	2906.07
842.03	3184.59
842.20	3442.64
842.37	2918.36
842.54	2987.99
842.71	3293.13
842.88	3020.75
843.05	2883.54
843.22	2852.82
843.39	3403.72
843.56	3090.38
843.73	2875.35
843.90	3041.23
844.07	3256.27
844.24	3514.31
844.41	2969.55
844.58	2932.69
844.75	3280.85
844.92	3354.57
845.09	2901.97
845.26	2912.21
845.43	3440.59
845.60	3192.78
845.77	3006.42
845.94	3133.39
846.10	3358.67
846.27	2918.36
846.44	2797.53
846.61	2795.48
846.78	3430.35
846.95	3442.64
847.12	2895.83
847.29	2969.55
847.46	3123.15
847.63	3450.83
847.80	2834.39
847.97	2914.26
848.14	3839.94
848.31	3266.51
848.48	2799.57
848.65	2930.64
848.82	3100.62
848.98	3704.78
849.15	3094.48
849.32	3059.67
849.49	3534.79
849.66	3213.26
849.83	2881.49
850.00	2889.68
850.17	3407.82
850.34	3194.83
850.51	2844.63
850.68	2938.84
850.85	3690.44
851.01	3317.71
851.18	2863.06
851.35	2967.51
851.52	3381.20
851.69	3508.17
851.86	2891.73
852.03	2881.49
852.20	3528.65
852.37	3241.93
852.53	2758.61
852.70	2856.92
852.87	3338.19
853.04	3424.20
853.21	2906.07
853.38	3153.87
853.55	3518.41
853.72	3467.21
853.89	2887.64
854.05	2887.64
854.22	3196.88
854.39	3180.50
854.56	2904.02
854.73	3035.09
854.90	3039.19
855.07	3209.17
855.23	2924.50
855.40	2838.48
855.57	3164.11
855.74	2828.24
855.91	3149.78
856.08	2734.04
856.25	2957.27
856.41	3137.49
856.58	2901.97
856.75	2887.64
856.92	2942.93
857.09	3483.59
857.26	2787.29
857.42	3035.09
857.59	3375.05
857.76	3135.44
857.93	2922.45
858.10	3008.47
858.27	3045.33
858.43	3332.05
858.60	2926.55
858.77	2813.91
858.94	3094.48
859.11	3487.69
859.27	3020.75
859.44	2858.96
859.61	3655.62
859.78	3442.64
859.95	2955.22
860.12	2832.34
860.28	3764.17
860.45	3692.49
860.62	2928.60
860.79	3008.47
860.95	3149.78
861.12	3092.43
861.29	2873.30
861.46	2906.07
861.63	3233.74
861.79	3409.87
861.96	2824.15
862.13	2912.21
862.30	3588.04
862.47	3133.39
862.63	2813.91
862.80	2916.31
862.97	3385.29
863.14	3379.15
863.30	2901.97
863.47	2787.29
863.64	3565.51
863.81	3305.42
863.97	2787.29
864.14	2951.12
864.31	3237.84
864.48	3229.65
864.65	2922.45
864.81	2987.99
864.98	3303.37
865.15	3485.64
865.32	2936.79
865.48	3059.67
865.65	3602.38
865.82	3221.45
865.98	2975.70
866.15	2963.41
866.32	3317.71
866.49	3237.84
866.65	3053.52
866.82	2959.31
866.99	3286.99
867.16	3114.96
867.32	2932.69
867.49	2838.48
867.66	3147.73
867.83	3162.06
867.99	2842.58
868.16	2947.03
868.33	3014.61
868.49	3209.17
868.66	2906.07
868.83	3016.66
868.99	3315.66
869.16	3274.70
869.33	3174.35
869.50	2981.84
869.66	3334.09
869.83	3248.08
870.00	2809.81
870.16	3043.28
870.33	3207.12
870.50	3479.50
870.66	2990.03
870.83	2906.07
871.00	3196.88
871.17	3289.04
871.33	2936.79
871.50	2869.20
871.67	3266.51
871.83	3258.32
872.00	3026.90
872.17	2897.88
872.33	3622.86
872.50	3399.63
872.67	2885.59
872.83	2912.21
873.00	3309.52
873.17	3311.57
873.33	2953.17
873.50	2977.75
873.67	3067.86
873.83	3082.19
874.00	2928.60
874.16	3098.58
874.33	3338.19
874.50	2936.79
874.66	2883.54
874.83	3000.27
875.00	3467.21
875.16	3409.87
875.33	3049.43
875.50	2637.78
875.66	3188.69
875.83	3315.66
875.99	3041.23
876.16	3065.81
876.33	3053.52
876.49	3219.41
876.66	2977.75
876.83	2998.23
876.99	2951.12
877.16	3231.69
877.32	2854.87
877.49	3059.67
877.66	3311.57
877.82	3563.47
877.99	2975.70
878.15	3137.49
878.32	3346.38
878.49	3393.48
878.65	3004.37
878.82	3182.54
878.98	3237.84
879.15	3411.92
879.32	3106.77
879.48	3125.20
879.65	3225.55
879.81	3221.45
879.98	2887.64
880.15	2971.60
880.31	3438.54
880.48	3084.24
880.64	3045.33
880.81	3063.76
880.97	3583.95
881.14	3499.98
881.31	2881.49
881.47	3147.73
881.64	3164.11
881.80	2994.13
881.97	3065.81
882.13	2992.08
882.30	3065.81
882.47	3119.06
882.63	2914.26
882.80	2844.63
882.96	3119.06
883.13	3526.60
883.29	2955.22
883.46	2918.36
883.62	3762.12
883.79	3196.88
883.95	3098.58
884.12	2963.41
884.29	3530.70
884.45	3243.98
884.62	2918.36
884.78	2824.15
884.95	3536.84
885.11	3053.52
885.28	2990.03
885.44	2955.22
885.61	3471.31
885.77	3536.84
885.94	3026.90
886.10	2947.03
886.27	3172.30
886.43	3702.73
886.60	3155.92
886.76	2957.27
886.93	3049.43
887.09	3254.22
887.26	2842.58
887.42	2967.51
887.59	3450.83
887.75	3723.21
887.92	3168.21
888.08	2983.89
888.25	3672.01
888.41	3370.96
888.58	3028.95
888.74	2932.69
888.91	3147.73
>>>>>End Processed Spectral Data<<<<<
