SpectraSuite Data File
++++++++++++++++++++++++++++++++++++
Date: Fri May 06 08:14:12 CEST 2016
User: root
Dark Spectrum Present: No
Reference Spectrum Present: No
Number of Sampled Component Spectra: 1
Spectrometers: USB4C02835
Integration Time (usec): 100000 (USB4C02835)
Spectra Averaged: 1 (USB4C02835)
Boxcar Smoothing: 0 (USB4C02835)
Correct for Electrical Dark: No (USB4C02835)
Strobe/Lamp Enabled: No (USB4C02835)
Correct for Detector Non-linearity: No (USB4C02835)
Correct for Stray Light: No (USB4C02835)
Number of Pixels in Processed Spectrum: 3648
>>>>>Begin Processed Spectral Data<<<<<
177.47	2248.67
177.69	2248.67
177.91	2248.67
178.13	2148.32
178.36	2287.58
178.58	2932.69
178.80	3076.05
179.02	2969.55
179.24	3092.43
179.46	2760.66
179.68	2852.82
179.90	3209.17
180.13	3276.75
180.35	2590.68
180.57	2783.19
180.79	3352.52
181.01	3188.69
181.23	2828.24
181.45	3028.95
181.67	3446.73
181.90	3344.33
182.12	2955.22
182.34	2688.98
182.56	3450.83
182.78	3356.62
183.00	2910.16
183.22	2830.29
183.44	2877.40
183.66	3876.80
183.89	2990.03
184.11	2887.64
184.33	3413.96
184.55	3536.84
184.77	2805.72
184.99	2932.69
185.21	3268.56
185.43	3801.03
185.65	2836.44
185.87	2805.72
186.10	3798.98
186.32	3729.35
186.54	2922.45
186.76	2990.03
186.98	3542.99
187.20	3278.80
187.42	2928.60
187.64	2777.05
187.86	3411.92
188.08	3426.25
188.30	2729.94
188.52	2910.16
188.75	3532.75
188.97	3479.50
189.19	2914.26
189.41	2820.05
189.63	3413.96
189.85	3188.69
190.07	2766.81
190.29	2693.08
190.51	3426.25
190.73	2981.84
190.95	3065.81
191.17	2897.88
191.39	2934.74
191.61	3258.32
191.84	2852.82
192.06	3008.47
192.28	2987.99
192.50	3903.43
192.72	2953.17
192.94	2992.08
193.16	3596.23
193.38	3364.81
193.60	2805.72
193.82	3057.62
194.04	3491.79
194.26	3411.92
194.48	2926.55
194.70	2871.25
194.92	3217.36
195.14	3389.39
195.36	2844.63
195.58	2922.45
195.80	3354.57
196.02	3215.31
196.24	2822.10
196.46	2926.55
196.69	3219.41
196.91	3794.89
197.13	3016.66
197.35	2908.12
197.57	3592.14
197.79	3393.48
198.01	3028.95
198.23	2914.26
198.45	3393.48
198.67	3051.47
198.89	2760.66
199.11	2918.36
199.33	3141.58
199.55	2891.73
199.77	2775.00
199.99	3014.61
200.21	3256.27
200.43	3348.43
200.65	2754.52
200.87	2688.98
201.09	3291.09
201.31	3121.10
201.53	2848.72
201.75	2850.77
201.97	3399.63
202.19	3270.61
202.41	2918.36
202.63	3045.33
202.85	3491.79
203.07	3311.57
203.29	2914.26
203.51	2867.16
203.73	3114.96
203.95	3860.42
204.17	2858.96
204.39	3002.32
204.61	3352.52
204.83	3164.11
205.05	2981.84
205.27	2818.00
205.49	3762.12
205.71	3297.23
205.93	2693.08
206.15	2654.17
206.37	3327.95
206.59	3291.09
206.81	2594.78
207.03	2758.61
207.25	3203.02
207.47	3418.06
207.69	2801.62
207.91	3069.91
208.13	3579.85
208.34	3149.78
208.56	2789.33
208.78	2912.21
209.00	3241.93
209.22	3239.89
209.44	2906.07
209.66	2785.24
209.88	3260.37
210.10	3229.65
210.32	2942.93
210.54	2901.97
210.76	3168.21
210.98	3450.83
211.20	2727.89
211.42	2947.03
211.64	3569.61
211.86	3354.57
212.08	2983.89
212.30	2947.03
212.52	3235.79
212.74	3413.96
212.96	3016.66
213.17	2957.27
213.39	3432.40
213.61	3637.19
213.83	2836.44
214.05	2781.14
214.27	3569.61
214.49	3106.77
214.71	2779.09
214.93	3000.27
215.15	3319.76
215.37	3467.21
215.59	2746.33
215.81	2893.78
216.03	3532.75
216.24	3196.88
216.46	2844.63
216.68	2906.07
216.90	3344.33
217.12	3450.83
217.34	2828.24
217.56	2979.79
217.78	3442.64
218.00	3479.50
218.22	2936.79
218.44	3012.56
218.66	3336.14
218.87	3573.71
219.09	2910.16
219.31	2828.24
219.53	3356.62
219.75	3225.55
219.97	2934.74
220.19	2846.68
220.41	3215.31
220.63	3596.23
220.85	2918.36
221.06	2906.07
221.28	3618.76
221.50	3471.31
221.72	2846.68
221.94	2736.09
222.16	3319.76
222.38	3471.31
222.60	2844.63
222.82	2959.31
223.03	3512.27
223.25	3082.19
223.47	2854.87
223.69	3112.91
223.91	3356.62
224.13	3362.76
224.35	2789.33
224.57	3067.86
224.78	3446.73
225.00	3129.30
225.22	2938.84
225.44	2750.42
225.66	3379.15
225.88	3110.86
226.10	2977.75
226.32	2906.07
226.53	3555.27
226.75	3127.25
226.97	2977.75
227.19	2885.59
227.41	3155.92
227.63	3225.55
227.85	2668.50
228.06	2969.55
228.28	3315.66
228.50	3428.30
228.72	2705.37
228.94	2818.00
229.16	2928.60
229.37	3074.00
229.59	2731.99
229.81	3178.45
230.03	3203.02
230.25	3014.61
230.47	2699.22
230.69	2852.82
230.90	3444.68
231.12	3071.95
231.34	2930.64
231.56	2951.12
231.78	3106.77
232.00	3293.13
232.21	2918.36
232.43	2910.16
232.65	2832.34
232.87	3471.31
233.09	2709.46
233.30	2861.01
233.52	3448.78
233.74	3225.55
233.96	2803.67
234.18	2996.18
234.40	3237.84
234.61	3733.45
234.83	2846.68
235.05	2840.53
235.27	3844.04
235.49	3524.55
235.70	2772.95
235.92	2904.02
236.14	3389.39
236.36	3778.50
236.58	2744.28
236.79	2906.07
237.01	3262.41
237.23	3352.52
237.45	3082.19
237.67	2928.60
237.88	3350.48
238.10	3661.77
238.32	2838.48
238.54	2725.85
238.76	3319.76
238.97	3102.67
239.19	2779.09
239.41	2957.27
239.63	3499.98
239.85	3207.12
240.06	2877.40
240.28	2826.20
240.50	3434.44
240.72	3258.32
240.93	2742.23
241.15	2959.31
241.37	3293.13
241.59	3610.57
241.81	2912.21
242.02	2967.51
242.24	3323.85
242.46	3465.16
242.68	2674.65
242.89	2795.48
243.11	3395.53
243.33	3246.03
243.55	2906.07
243.76	2889.68
243.98	3078.10
244.20	3239.89
244.42	2951.12
244.64	2838.48
244.85	3016.66
245.07	3110.86
245.29	2834.39
245.51	2977.75
245.72	3340.24
245.94	3442.64
246.16	2813.91
246.38	2979.79
246.59	3137.49
246.81	3143.63
247.03	2715.61
247.24	2809.81
247.46	3147.73
247.68	3399.63
247.90	2809.81
248.11	2834.39
248.33	3379.15
248.55	3215.31
248.77	2908.12
248.98	2979.79
249.20	3536.84
249.42	3223.50
249.64	2877.40
249.85	2822.10
250.07	3239.89
250.29	3426.25
250.50	2983.89
250.72	2772.95
250.94	3356.62
251.16	3766.21
251.37	2840.53
251.59	2908.12
251.81	3395.53
252.02	3655.62
252.24	2734.04
252.46	3000.27
252.68	3147.73
252.89	3186.64
253.11	2725.85
253.33	3004.37
253.54	3573.71
253.76	3129.30
253.98	2877.40
254.20	2881.49
254.41	3061.71
254.63	3237.84
254.85	2758.61
255.06	2938.84
255.28	3354.57
255.50	3241.93
255.71	2826.20
255.93	2680.79
256.15	3168.21
256.36	3319.76
256.58	2744.28
256.80	2856.92
257.02	3231.69
257.23	3237.84
257.45	2836.44
257.67	2947.03
257.88	3119.06
258.10	3383.24
258.32	2854.87
258.53	2895.83
258.75	3651.53
258.97	3149.78
259.18	2820.05
259.40	2852.82
259.62	3612.62
259.83	3530.70
260.05	2867.16
260.27	3807.17
260.48	3375.05
260.70	3067.86
260.92	2791.38
261.13	2918.36
261.35	3323.85
261.57	3405.77
261.78	2729.94
262.00	2809.81
262.22	3358.67
262.43	3135.44
262.65	2871.25
262.86	2869.20
263.08	3813.32
263.30	3297.23
263.51	2738.13
263.73	2877.40
263.95	3721.16
264.16	3139.54
264.38	2822.10
264.60	2881.49
264.81	3250.13
265.03	3370.96
265.25	3213.26
265.46	2801.62
265.68	3581.90
265.89	3475.40
266.11	2699.22
266.33	2799.57
266.54	3495.88
266.76	3422.16
266.98	2973.65
267.19	3033.04
267.41	3526.60
267.62	3182.54
267.84	2648.02
268.06	3033.04
268.27	3321.81
268.49	3534.79
268.70	2934.74
268.92	2906.07
269.14	3098.58
269.35	2971.60
269.57	3008.47
269.79	2928.60
270.00	3182.54
270.22	3684.30
270.43	2850.77
270.65	2775.00
270.87	3399.63
271.08	3407.82
271.30	2930.64
271.51	2930.64
271.73	3397.58
271.95	3594.19
272.16	2830.29
272.38	3026.90
272.59	3147.73
272.81	3356.62
273.02	2838.48
273.24	2924.50
273.46	3606.47
273.67	3045.33
273.89	2680.79
274.10	2799.57
274.32	3528.65
274.54	3360.72
274.75	2912.21
274.97	2944.98
275.18	3405.77
275.40	3350.48
275.61	2971.60
275.83	3035.09
276.05	3096.53
276.26	3307.47
276.48	3037.14
276.69	3071.95
276.91	3090.38
277.12	3553.23
277.34	3045.33
277.55	3160.02
277.77	3272.65
277.99	3184.59
278.20	3020.75
278.42	2942.93
278.63	3123.15
278.85	3114.96
279.06	2965.46
279.28	3090.38
279.49	3461.07
279.71	3416.01
279.93	2967.51
280.14	2967.51
280.36	3084.24
280.57	3422.16
280.79	3065.81
281.00	2893.78
281.22	3194.83
281.43	3444.68
281.65	2803.67
281.86	2895.83
282.08	3442.64
282.29	3608.52
282.51	2822.10
282.73	2895.83
282.94	3047.38
283.16	3491.79
283.37	3131.34
283.59	3051.47
283.80	3405.77
284.02	3258.32
284.23	3108.82
284.45	2985.94
284.66	3143.63
284.88	3227.60
285.09	2893.78
285.31	3100.62
285.52	3387.34
285.74	2959.31
285.95	3149.78
286.17	3016.66
286.38	3524.55
286.60	3176.40
286.81	2942.93
287.03	2990.03
287.24	3289.04
287.46	3377.10
287.67	3112.91
287.89	3190.74
288.10	3215.31
288.32	3274.70
288.53	3106.77
288.75	3098.58
288.96	3483.59
289.18	3213.26
289.39	2924.50
289.61	3139.54
289.82	3700.68
290.04	3651.53
290.25	2904.02
290.47	3082.19
290.68	3196.88
290.90	3461.07
291.11	2807.77
291.33	3123.15
291.54	3108.82
291.76	3131.34
291.97	3100.62
292.18	3084.24
292.40	3149.78
292.61	3233.74
292.83	3307.47
293.04	3016.66
293.26	3336.14
293.47	3207.12
293.69	2928.60
293.90	2904.02
294.12	3534.79
294.33	3274.70
294.55	3078.10
294.76	3123.15
294.97	3618.76
295.19	3659.72
295.40	2994.13
295.62	3080.14
295.83	3467.21
296.05	3114.96
296.26	3215.31
296.48	3047.38
296.69	3203.02
296.90	3225.55
297.12	3098.58
297.33	3160.02
297.55	3373.00
297.76	3426.25
297.98	3135.44
298.19	3168.21
298.41	3221.45
298.62	3149.78
298.83	3215.31
299.05	3090.38
299.26	3229.65
299.48	2983.89
299.69	3114.96
299.90	2992.08
300.12	3051.47
300.33	3418.06
300.55	2969.55
300.76	3057.62
300.98	3061.71
301.19	3352.52
301.40	2963.41
301.62	2932.69
301.83	3348.43
302.05	3252.17
302.26	2975.70
302.47	3078.10
302.69	3071.95
302.90	3272.65
303.12	2850.77
303.33	3192.78
303.54	3706.82
303.76	3211.22
303.97	2990.03
304.19	3203.02
304.40	3133.39
304.61	3352.52
304.83	3123.15
305.04	3065.81
305.26	3391.44
305.47	3133.39
305.68	2901.97
305.90	2844.63
306.11	3491.79
306.33	3250.13
306.54	2875.35
306.75	2944.98
306.97	2947.03
307.18	3082.19
307.39	3053.52
307.61	3117.01
307.82	3250.13
308.04	3426.25
308.25	2844.63
308.46	3065.81
308.68	3248.08
308.89	3258.32
309.10	3098.58
309.32	3108.82
309.53	3332.05
309.74	3360.72
309.96	2912.21
310.17	3123.15
310.39	3139.54
310.60	3348.43
310.81	3024.85
311.03	2938.84
311.24	3471.31
311.45	3309.52
311.67	3219.41
311.88	3131.34
312.09	3180.50
312.31	3110.86
312.52	2992.08
312.73	2877.40
312.95	2994.13
313.16	3086.29
313.37	3200.98
313.59	3139.54
313.80	3442.64
314.01	3657.67
314.23	3074.00
314.44	2930.64
314.65	2951.12
314.87	3137.49
315.08	3002.32
315.29	2990.03
315.51	3135.44
315.72	2977.75
315.93	3055.57
316.15	3026.90
316.36	3151.82
316.57	3270.61
316.79	2951.12
317.00	2944.98
317.21	3428.30
317.43	3051.47
317.64	3119.06
317.85	2914.26
318.07	3074.00
318.28	3143.63
318.49	3147.73
318.70	3286.99
318.92	3362.76
319.13	3393.48
319.34	3147.73
319.56	2975.70
319.77	3436.49
319.98	3450.83
320.20	3284.94
320.41	3219.41
320.62	3377.10
320.83	3065.81
321.05	3246.03
321.26	3016.66
321.47	3358.67
321.69	3502.03
321.90	2877.40
322.11	2975.70
322.32	3364.81
322.54	3485.64
322.75	3016.66
322.96	4028.35
323.18	2934.74
323.39	2951.12
323.60	2906.07
323.81	3188.69
324.03	3176.40
324.24	3307.47
324.45	3090.38
324.66	2930.64
324.88	3454.92
325.09	3575.75
325.30	2975.70
325.52	2869.20
325.73	3332.05
325.94	3151.82
326.15	2901.97
326.37	2840.53
326.58	3348.43
326.79	3579.85
327.00	2920.40
327.22	3008.47
327.43	3207.12
327.64	3092.43
327.85	3102.67
328.07	3041.23
328.28	3735.50
328.49	3168.21
328.70	2992.08
328.92	2975.70
329.13	3160.02
329.34	3438.54
329.55	3182.54
329.76	3160.02
329.98	3153.87
330.19	3467.21
330.40	3102.67
330.61	3184.59
330.83	3434.44
331.04	3110.86
331.25	3090.38
331.46	3033.04
331.68	3008.47
331.89	3499.98
332.10	3030.99
332.31	2885.59
332.52	3248.08
332.74	3499.98
332.95	2844.63
333.16	3006.42
333.37	3418.06
333.58	3221.45
333.80	3002.32
334.01	2756.57
334.22	3305.42
334.43	3098.58
334.64	2951.12
334.86	2971.60
335.07	3098.58
335.28	3596.23
335.49	2904.02
335.70	3102.67
335.92	3592.14
336.13	3721.16
336.34	3024.85
336.55	2967.51
336.76	3377.10
336.98	2887.64
337.19	2942.93
337.40	3076.05
337.61	3807.17
337.82	3221.45
338.04	3086.29
338.25	2901.97
338.46	3350.48
338.67	3215.31
338.88	2918.36
339.09	2871.25
339.31	3114.96
339.52	2996.18
339.73	2951.12
339.94	3067.86
340.15	3383.24
340.36	3125.20
340.58	3014.61
340.79	2889.68
341.00	3422.16
341.21	3018.71
341.42	3243.98
341.63	3002.32
341.85	3424.20
342.06	3360.72
342.27	2985.94
342.48	3198.93
342.69	3010.51
342.90	3301.33
343.12	3385.29
343.33	2955.22
343.54	3395.53
343.75	3684.30
343.96	3106.77
344.17	2889.68
344.38	3215.31
344.60	3037.14
344.81	2863.06
345.02	2992.08
345.23	3485.64
345.44	3858.37
345.65	3065.81
345.86	3076.05
346.07	3356.62
346.29	3235.79
346.50	3139.54
346.71	3180.50
346.92	3563.47
347.13	3653.58
347.34	3020.75
347.55	2893.78
347.76	3311.57
347.98	2975.70
348.19	3047.38
348.40	3133.39
348.61	3139.54
348.82	3674.06
349.03	3067.86
349.24	2957.27
349.45	3590.09
349.66	2899.92
349.88	2983.89
350.09	2912.21
350.30	3459.02
350.51	3467.21
350.72	3108.82
350.93	2953.17
351.14	3176.40
351.35	3391.44
351.56	3059.67
351.77	2985.94
351.99	3319.76
352.20	3585.99
352.41	3059.67
352.62	2852.82
352.83	3196.88
353.04	3256.27
353.25	2985.94
353.46	3049.43
353.67	3526.60
353.88	3045.33
354.09	2922.45
354.30	3004.37
354.52	3506.12
354.73	3203.02
354.94	2938.84
355.15	3071.95
355.36	3723.21
355.57	3227.60
355.78	2924.50
355.99	2990.03
356.20	3223.50
356.41	3563.47
356.62	3065.81
356.83	3055.57
357.04	3459.02
357.25	2914.26
357.46	2908.12
357.68	2951.12
357.89	3102.67
358.10	3176.40
358.31	2932.69
358.52	3047.38
358.73	3094.48
358.94	3129.30
359.15	3035.09
359.36	3018.71
359.57	3354.57
359.78	3164.11
359.99	3166.16
360.20	2856.92
360.41	3225.55
360.62	3393.48
360.83	3067.86
361.04	3006.42
361.25	3282.89
361.46	3635.14
361.67	3117.01
361.88	3000.27
362.09	3602.38
362.30	3282.89
362.51	2928.60
362.72	3100.62
362.93	3397.58
363.14	3409.87
363.35	3106.77
363.56	2901.97
363.78	3575.75
363.99	3477.45
364.20	3008.47
364.41	3008.47
364.62	3721.16
364.83	3346.38
365.04	3010.51
365.25	3024.85
365.46	3682.25
365.67	3121.10
365.88	3231.69
366.09	2942.93
366.30	3198.93
366.51	3248.08
366.72	2996.18
366.93	2877.40
367.14	3303.37
367.35	3477.45
367.56	2891.73
367.77	3186.64
367.98	3338.19
368.18	3370.96
368.39	3106.77
368.60	2936.79
368.81	3454.92
369.02	3362.76
369.23	2975.70
369.44	2852.82
369.65	3139.54
369.86	3438.54
370.07	3123.15
370.28	2910.16
370.49	3305.42
370.70	3307.47
370.91	2963.41
371.12	2883.54
371.33	3508.17
371.54	3192.78
371.75	3102.67
371.96	2740.18
372.17	3243.98
372.38	3172.30
372.59	2994.13
372.80	2967.51
373.01	3180.50
373.22	3268.56
373.43	2899.92
373.64	2901.97
373.85	3565.51
374.06	3600.33
374.26	3143.63
374.47	3100.62
374.68	3499.98
374.89	3303.37
375.10	2942.93
375.31	3092.43
375.52	3325.90
375.73	3321.81
375.94	2762.71
376.15	3037.14
376.36	3149.78
376.57	3182.54
376.78	3043.28
376.99	3094.48
377.20	3542.99
377.40	3311.57
377.61	3340.24
377.82	3041.23
378.03	3598.28
378.24	3434.44
378.45	3082.19
378.66	3090.38
378.87	2912.21
379.08	3026.90
379.29	3024.85
379.50	3153.87
379.71	3286.99
379.91	3377.10
380.12	3047.38
380.33	3131.34
380.54	3227.60
380.75	3239.89
380.96	3024.85
381.17	3092.43
381.38	3358.67
381.59	3340.24
381.80	3141.58
382.00	3207.12
382.21	3370.96
382.42	3571.66
382.63	3387.34
382.84	3203.02
383.05	3504.07
383.26	3532.75
383.47	3182.54
383.68	2918.36
383.88	3420.11
384.09	3291.09
384.30	3200.98
384.51	3069.91
384.72	3309.52
384.93	3000.27
385.14	3082.19
385.35	3207.12
385.55	3098.58
385.76	3485.64
385.97	3006.42
386.18	2799.57
386.39	3133.39
386.60	3100.62
386.81	2942.93
387.02	2938.84
387.22	3008.47
387.43	3426.25
387.64	3114.96
387.85	3301.33
388.06	3344.33
388.27	4341.69
388.48	7829.38
388.68	12201.80
388.89	15019.80
389.10	16516.87
389.31	16426.76
389.52	13092.66
389.73	11210.58
389.93	10489.70
390.14	9273.20
390.35	8505.21
390.56	8005.51
390.77	6686.62
390.98	4929.46
391.18	4286.40
391.39	3919.81
391.60	3377.10
391.81	3278.80
392.02	3102.67
392.23	3786.69
392.43	3266.51
392.64	3135.44
392.85	3174.35
393.06	3594.19
393.27	3241.93
393.47	2967.51
393.68	3137.49
393.89	3315.66
394.10	3538.89
394.31	2901.97
394.52	2969.55
394.72	3157.97
394.93	3540.94
395.14	2934.74
395.35	3080.14
395.56	3141.58
395.76	3241.93
395.97	3041.23
396.18	3200.98
396.39	3274.70
396.60	3940.29
396.80	3393.48
397.01	3227.60
397.22	3487.69
397.43	3389.39
397.64	3037.14
397.84	3108.82
398.05	3786.69
398.26	3231.69
398.47	3067.86
398.67	3256.27
398.88	3295.18
399.09	3332.05
399.30	2908.12
399.51	3041.23
399.71	3133.39
399.92	3319.76
400.13	3162.06
400.34	2965.46
400.54	3221.45
400.75	3575.75
400.96	3217.36
401.17	3370.96
401.37	3448.78
401.58	3289.04
401.79	3020.75
402.00	3256.27
402.21	3878.85
402.41	3444.68
402.62	3309.52
402.83	3600.33
403.04	3700.68
403.24	4192.19
403.45	3233.74
403.66	3403.72
403.87	3585.99
404.07	3731.40
404.28	3360.72
404.49	3323.85
404.70	3407.82
404.90	3284.94
405.11	3086.29
405.32	3243.98
405.52	3139.54
405.73	3207.12
405.94	2926.55
406.15	3078.10
406.35	3360.72
406.56	3461.07
406.77	3102.67
406.98	3137.49
407.18	3166.16
407.39	3606.47
407.60	3010.51
407.80	3117.01
408.01	3141.58
408.22	3411.92
408.43	2983.89
408.63	3190.74
408.84	3491.79
409.05	3491.79
409.25	2981.84
409.46	3043.28
409.67	3305.42
409.88	3100.62
410.08	3018.71
410.29	3020.75
410.50	3407.82
410.70	3405.77
410.91	2944.98
411.12	3098.58
411.32	3373.00
411.53	3098.58
411.74	3076.05
411.95	3164.11
412.15	3307.47
412.36	3514.31
412.57	3262.41
412.77	3299.28
412.98	3284.94
413.19	3063.76
413.39	3076.05
413.60	3053.52
413.81	3440.59
414.01	3057.62
414.22	3069.91
414.43	3221.45
414.63	3137.49
414.84	3395.53
415.05	3090.38
415.25	2889.68
415.46	3497.93
415.67	3213.26
415.87	3059.67
416.08	3106.77
416.29	3239.89
416.49	3352.52
416.70	3059.67
416.91	3049.43
417.11	3190.74
417.32	3573.71
417.53	3106.77
417.73	3196.88
417.94	3209.17
418.15	3342.28
418.35	3114.96
418.56	3108.82
418.77	3839.94
418.97	3266.51
419.18	3026.90
419.38	2705.37
419.59	3260.37
419.80	3557.32
420.00	2947.03
420.21	3098.58
420.42	3581.90
420.62	3303.37
420.83	3041.23
421.04	2987.99
421.24	3276.75
421.45	3420.11
421.65	3108.82
421.86	3020.75
422.07	3553.23
422.27	3395.53
422.48	2959.31
422.69	2897.88
422.89	3280.85
423.10	3160.02
423.30	2983.89
423.51	3088.34
423.72	3393.48
423.92	3485.64
424.13	2908.12
424.33	3129.30
424.54	3434.44
424.75	3250.13
424.95	3321.81
425.16	2996.18
425.36	3258.32
425.57	3495.88
425.78	3215.31
425.98	3196.88
426.19	3266.51
426.39	3094.48
426.60	3157.97
426.81	3233.74
427.01	3416.01
427.22	3069.91
427.42	2852.82
427.63	2957.27
427.83	3450.83
428.04	3540.94
428.25	3084.24
428.45	3147.73
428.66	3469.26
428.86	3235.79
429.07	3061.71
429.28	3102.67
429.48	3256.27
429.69	3061.71
429.89	3094.48
430.10	2967.51
430.30	3477.45
430.51	3491.79
430.71	3035.09
430.92	3074.00
431.13	3090.38
431.33	3411.92
431.54	3157.97
431.74	3233.74
431.95	3790.79
432.15	3030.99
432.36	3123.15
432.56	3129.30
432.77	3692.49
432.98	3631.05
433.18	3028.95
433.39	2916.31
433.59	3172.30
433.80	3786.69
434.00	3239.89
434.21	3143.63
434.41	3065.81
434.62	3747.78
434.82	2953.17
435.03	3018.71
435.23	3385.29
435.44	3010.51
435.64	3022.80
435.85	3147.73
436.06	3491.79
436.26	3485.64
436.47	3020.75
436.67	2957.27
436.88	3233.74
437.08	3520.46
437.29	3168.21
437.49	3162.06
437.70	3618.76
437.90	3319.76
438.11	3303.37
438.31	3141.58
438.52	3516.36
438.72	3411.92
438.93	3440.59
439.13	3112.91
439.34	3434.44
439.54	3170.26
439.75	3213.26
439.95	3190.74
440.16	3080.14
440.36	3293.13
440.57	3024.85
440.77	3069.91
440.98	3303.37
441.18	3377.10
441.39	2977.75
441.59	2944.98
441.80	3712.97
442.00	3237.84
442.21	3110.86
442.41	2910.16
442.62	3467.21
442.82	3174.35
443.02	3041.23
443.23	3061.71
443.43	3223.50
443.64	3540.94
443.84	2887.64
444.05	3141.58
444.25	3344.33
444.46	3256.27
444.66	2969.55
444.87	3299.28
445.07	2969.55
445.28	3229.65
445.48	3264.46
445.69	3143.63
445.89	3835.85
446.09	3205.07
446.30	3411.92
446.50	3475.40
446.71	4962.23
446.91	6342.56
447.12	7225.23
447.32	7645.07
447.53	7706.51
447.73	6360.99
447.93	5558.19
448.14	5343.15
448.34	5435.31
448.55	4474.81
448.75	4358.08
448.96	4126.66
449.16	4149.18
449.36	3917.76
449.57	3366.86
449.77	3123.15
449.98	3166.16
450.18	3440.59
450.39	3039.19
450.59	3289.04
450.79	3303.37
451.00	3192.78
451.20	3227.60
451.41	3004.37
451.61	3456.97
451.81	3264.46
452.02	3045.33
452.22	3096.53
452.43	3178.45
452.63	3110.86
452.84	3160.02
453.04	2979.79
453.24	3319.76
453.45	3102.67
453.65	3069.91
453.86	3119.06
454.06	3303.37
454.26	3231.69
454.47	2992.08
454.67	3237.84
454.87	3315.66
455.08	3131.34
455.28	3250.13
455.49	3209.17
455.69	3168.21
455.89	3700.68
456.10	3219.41
456.30	3043.28
456.51	3336.14
456.71	3293.13
456.91	3243.98
457.12	3033.04
457.32	3370.96
457.52	3121.10
457.73	3250.13
457.93	3260.37
458.14	3209.17
458.34	2949.08
458.54	3147.73
458.75	3057.62
458.95	3473.36
459.15	3436.49
459.36	3139.54
459.56	3043.28
459.76	3772.36
459.97	3241.93
460.17	3102.67
460.37	3157.97
460.58	3274.70
460.78	3323.85
460.99	3098.58
461.19	3026.90
461.39	3067.86
461.60	3293.13
461.80	3104.72
462.00	2893.78
462.21	3327.95
462.41	3086.29
462.61	2967.51
462.82	2842.58
463.02	3305.42
463.22	3280.85
463.43	3162.06
463.63	2959.31
463.83	3614.66
464.04	3360.72
464.24	3071.95
464.44	3002.32
464.64	3313.61
464.85	3350.48
465.05	3094.48
465.25	2922.45
465.46	3184.59
465.66	3465.16
465.86	3135.44
466.07	3100.62
466.27	3196.88
466.47	3098.58
466.68	2992.08
466.88	3153.87
467.08	3368.91
467.29	3540.94
467.49	3104.72
467.69	3209.17
467.89	3428.30
468.10	3203.02
468.30	3141.58
468.50	3174.35
468.71	3540.94
468.91	2926.55
469.11	3180.50
469.31	3139.54
469.52	3153.87
469.72	3688.39
469.92	3332.05
470.13	3102.67
470.33	3246.03
470.53	3391.44
470.73	3454.92
470.94	3895.24
471.14	4210.62
471.34	4730.81
471.54	4413.37
471.75	4030.40
471.95	3821.51
472.15	3819.46
472.36	3835.85
472.56	3489.74
472.76	3870.66
472.96	3755.97
473.17	3352.52
473.37	3264.46
473.57	3180.50
473.77	3323.85
473.98	3200.98
474.18	2942.93
474.38	3899.33
474.58	3180.50
474.79	2924.50
474.99	3190.74
475.19	3594.19
475.39	3059.67
475.60	3164.11
475.80	2998.23
476.00	3286.99
476.20	3225.55
476.41	3147.73
476.61	3143.63
476.81	3581.90
477.01	3069.91
477.21	3370.96
477.42	3174.35
477.62	3145.68
477.82	3424.20
478.02	3092.43
478.23	3061.71
478.43	3147.73
478.63	3215.31
478.83	3065.81
479.03	3090.38
479.24	3647.43
479.44	3637.19
479.64	3004.37
479.84	2951.12
480.04	3080.14
480.25	3459.02
480.45	2969.55
480.65	2951.12
480.85	3629.00
481.06	3155.92
481.26	3227.60
481.46	2973.65
481.66	3319.76
481.86	3131.34
482.06	3286.99
482.27	3059.67
482.47	3225.55
482.67	3358.67
482.87	3084.24
483.07	3090.38
483.28	3184.59
483.48	3055.57
483.68	3035.09
483.88	2914.26
484.08	2861.01
484.29	3028.95
484.49	3149.78
484.69	2844.63
484.89	3581.90
485.09	3473.36
485.29	3098.58
485.50	3129.30
485.70	3166.16
485.90	3569.61
486.10	3147.73
486.30	3020.75
486.50	3532.75
486.71	3330.00
486.91	3090.38
487.11	3237.84
487.31	3028.95
487.51	3418.06
487.71	3051.47
487.91	2895.83
488.12	3133.39
488.32	2856.92
488.52	3141.58
488.72	2791.38
488.92	3280.85
489.12	3542.99
489.32	3213.26
489.53	3033.04
489.73	2942.93
489.93	3567.56
490.13	3037.14
490.33	2932.69
490.53	3246.03
490.73	3479.50
490.94	2910.16
491.14	3170.26
491.34	3504.07
491.54	3483.59
491.74	4009.92
491.94	4454.33
492.14	5146.55
492.34	5285.81
492.54	4790.20
492.75	4124.61
492.95	4388.80
493.15	4046.79
493.35	3688.39
493.55	3774.41
493.75	3692.49
493.95	3979.20
494.15	3430.35
494.35	3155.92
494.56	3243.98
494.76	3155.92
494.96	3200.98
495.16	2996.18
495.36	3323.85
495.56	3393.48
495.76	3090.38
495.96	3102.67
496.16	3069.91
496.36	3715.02
496.56	3018.71
496.77	3114.96
496.97	3258.32
497.17	3592.14
497.37	2908.12
497.57	3188.69
497.77	3385.29
497.97	3043.28
498.17	3026.90
498.37	3014.61
498.57	3446.73
498.77	3149.78
498.97	3252.17
499.17	3395.53
499.38	3233.74
499.58	3405.77
499.78	3284.94
499.98	3268.56
500.18	3157.97
500.38	3176.40
500.58	3319.76
500.78	3729.35
500.98	6152.10
501.18	8136.58
501.38	9795.43
501.58	10786.65
501.78	11075.42
501.98	9078.65
502.18	7554.96
502.38	6547.36
502.58	6457.25
502.78	5681.07
502.98	5461.93
503.18	5124.02
503.38	4972.47
503.59	4175.81
503.79	4089.79
503.99	3665.86
504.19	3950.53
504.39	3854.28
504.59	3659.72
504.79	3600.33
504.99	4016.07
505.19	3563.47
505.39	3340.24
505.59	3524.55
505.79	3686.34
505.99	3428.30
506.19	3100.62
506.39	3401.68
506.59	3186.64
506.79	3262.41
506.99	3246.03
507.19	3041.23
507.39	3231.69
507.59	3018.71
507.79	3067.86
507.99	3065.81
508.19	3391.44
508.39	3209.17
508.59	3125.20
508.79	3180.50
508.99	3743.69
509.19	3123.15
509.39	3168.21
509.59	2965.46
509.79	3114.96
509.99	3340.24
510.19	3190.74
510.39	3180.50
510.59	3258.32
510.79	3221.45
510.99	2901.97
511.19	3039.19
511.39	3712.97
511.59	3585.99
511.79	3203.02
511.99	3024.85
512.19	3678.15
512.38	3243.98
512.58	3047.38
512.78	2996.18
512.98	3508.17
513.18	3620.81
513.38	3028.95
513.58	3213.26
513.78	3205.07
513.98	3190.74
514.18	3057.62
514.38	3098.58
514.58	3401.68
514.78	3190.74
514.98	2934.74
515.18	3139.54
515.38	3119.06
515.58	3557.32
515.78	3076.05
515.98	3047.38
516.18	3477.45
516.38	3264.46
516.57	3014.61
516.77	3108.82
516.97	3373.00
517.17	3180.50
517.37	2850.77
517.57	3119.06
517.77	3282.89
517.97	3098.58
518.17	3096.53
518.37	2918.36
518.57	3080.14
518.77	3278.80
518.97	3117.01
519.16	3098.58
519.36	3549.13
519.56	3112.91
519.76	2987.99
519.96	3114.96
520.16	3518.41
520.36	3047.38
520.56	3217.36
520.76	3024.85
520.96	3270.61
521.16	3450.83
521.35	3233.74
521.55	3223.50
521.75	3262.41
521.95	3246.03
522.15	3033.04
522.35	2895.83
522.55	3168.21
522.75	3446.73
522.95	2969.55
523.14	2897.88
523.34	3205.07
523.54	3131.34
523.74	3200.98
523.94	3127.25
524.14	3012.56
524.34	3364.81
524.54	3270.61
524.73	3039.19
524.93	3487.69
525.13	3278.80
525.33	2971.60
525.53	3313.61
525.73	3469.26
525.93	3225.55
526.13	3078.10
526.32	3033.04
526.52	3469.26
526.72	3475.40
526.92	3045.33
527.12	2881.49
527.32	3002.32
527.52	3332.05
527.71	3119.06
527.91	3041.23
528.11	3196.88
528.31	3264.46
528.51	2998.23
528.71	3211.22
528.90	3413.96
529.10	3459.02
529.30	3108.82
529.50	2828.24
529.70	3317.71
529.90	3024.85
530.09	3117.01
530.29	2836.44
530.49	3074.00
530.69	3831.75
530.89	3147.73
531.09	3106.77
531.28	3100.62
531.48	3516.36
531.68	3055.57
531.88	3045.33
532.08	3471.31
532.28	3223.50
532.47	3190.74
532.67	3100.62
532.87	3377.10
533.07	3078.10
533.27	3080.14
533.46	3168.21
533.66	3393.48
533.86	3209.17
534.06	3108.82
534.26	3016.66
534.45	3176.40
534.65	3475.40
534.85	3147.73
535.05	2910.16
535.25	3454.92
535.44	2979.79
535.64	3160.02
535.84	3082.19
536.04	3192.78
536.24	3203.02
536.43	2957.27
536.63	3033.04
536.83	3336.14
537.03	3291.09
537.22	2889.68
537.42	2893.78
537.62	3346.38
537.82	3096.53
538.02	3207.12
538.21	3127.25
538.41	3854.28
538.61	3395.53
538.81	3131.34
539.00	3217.36
539.20	2990.03
539.40	3194.83
539.60	3053.52
539.79	3246.03
539.99	3231.69
540.19	3114.96
540.39	3049.43
540.58	3143.63
540.78	3547.08
540.98	3348.43
541.18	3317.71
541.37	3082.19
541.57	3321.81
541.77	3364.81
541.97	2977.75
542.16	2889.68
542.36	3141.58
542.56	3391.44
542.76	3203.02
542.95	3131.34
543.15	3411.92
543.35	3411.92
543.54	3061.71
543.74	3059.67
543.94	3485.64
544.14	3237.84
544.33	3205.07
544.53	3039.19
544.73	3239.89
544.93	3229.65
545.12	3123.15
545.32	3090.38
545.52	3209.17
545.71	3033.04
545.91	3006.42
546.11	2942.93
546.30	3102.67
546.50	3235.79
546.70	3137.49
546.90	3131.34
547.09	2953.17
547.29	3235.79
547.49	3250.13
547.68	3137.49
547.88	3106.77
548.08	3436.49
548.27	3409.87
548.47	3082.19
548.67	3194.83
548.87	3397.58
549.06	3063.76
549.26	2953.17
549.46	3401.68
549.65	3108.82
549.85	3071.95
550.05	3053.52
550.24	2992.08
550.44	3246.03
550.64	3108.82
550.83	3164.11
551.03	3512.27
551.23	3499.98
551.42	3151.82
551.62	3114.96
551.82	3248.08
552.01	3133.39
552.21	3348.43
552.41	3104.72
552.60	3483.59
552.80	3307.47
553.00	2985.94
553.19	3092.43
553.39	3672.01
553.59	3000.27
553.78	3209.17
553.98	3133.39
554.17	3067.86
554.37	3260.37
554.57	3143.63
554.76	2959.31
554.96	3157.97
555.16	3309.52
555.35	3178.45
555.55	3172.30
555.75	3299.28
555.94	3465.16
556.14	2852.82
556.33	3194.83
556.53	3332.05
556.73	3246.03
556.92	3000.27
557.12	3024.85
557.32	3680.20
557.51	3538.89
557.71	3063.76
557.90	3258.32
558.10	3512.27
558.30	3221.45
558.49	3131.34
558.69	3059.67
558.88	3438.54
559.08	3295.18
559.28	3067.86
559.47	3098.58
559.67	3418.06
559.86	3764.17
560.06	2975.70
560.26	3198.93
560.45	3362.76
560.65	3215.31
560.84	3373.00
561.04	2998.23
561.24	3446.73
561.43	3020.75
561.63	3352.52
561.82	3221.45
562.02	3348.43
562.22	3071.95
562.41	2979.79
562.61	3006.42
562.80	2996.18
563.00	3749.83
563.19	3127.25
563.39	3102.67
563.59	3297.23
563.78	3063.76
563.98	2832.34
564.17	3108.82
564.37	2992.08
564.56	3190.74
564.76	2981.84
564.96	3215.31
565.15	3327.95
565.35	3798.98
565.54	3059.67
565.74	3020.75
565.93	3321.81
566.13	3311.57
566.32	3155.92
566.52	3133.39
566.71	3268.56
566.91	3448.78
567.11	3112.91
567.30	3043.28
567.50	3350.48
567.69	3284.94
567.89	3035.09
568.08	2869.20
568.28	3291.09
568.47	3033.04
568.67	3114.96
568.86	2994.13
569.06	3385.29
569.25	3217.36
569.45	3008.47
569.64	3092.43
569.84	3184.59
570.04	3346.38
570.23	3022.80
570.43	3147.73
570.62	3321.81
570.82	3594.19
571.01	2889.68
571.21	3002.32
571.40	3063.76
571.60	3377.10
571.79	3155.92
571.99	3092.43
572.18	3110.86
572.38	3330.00
572.57	3090.38
572.77	3145.68
572.96	3807.17
573.16	3233.74
573.35	3059.67
573.55	3315.66
573.74	3422.16
573.94	3196.88
574.13	3047.38
574.33	3164.11
574.52	3504.07
574.71	3319.76
574.91	3088.34
575.10	2979.79
575.30	3221.45
575.49	3076.05
575.69	3059.67
575.88	3082.19
576.08	3194.83
576.27	3522.51
576.47	2994.13
576.66	3274.70
576.86	3575.75
577.05	3352.52
577.25	3104.72
577.44	3194.83
577.64	3209.17
577.83	3499.98
578.02	3071.95
578.22	3194.83
578.41	3502.03
578.61	3260.37
578.80	2906.07
579.00	3149.78
579.19	3217.36
579.39	3340.24
579.58	3155.92
579.77	3104.72
579.97	3516.36
580.16	3536.84
580.36	3391.44
580.55	3082.19
580.75	3352.52
580.94	3309.52
581.13	3246.03
581.33	3330.00
581.52	3233.74
581.72	3672.01
581.91	3180.50
582.11	3049.43
582.30	3432.40
582.49	3354.57
582.69	3348.43
582.88	3129.30
583.08	3319.76
583.27	3424.20
583.47	3129.30
583.66	2955.22
583.85	3114.96
584.05	3305.42
584.24	3174.35
584.44	3045.33
584.63	3493.83
584.82	3504.07
585.02	3334.09
585.21	3278.80
585.41	3401.68
585.60	3276.75
585.79	3393.48
585.99	3368.91
586.18	3307.47
586.37	4243.39
586.57	6367.13
586.76	17987.31
586.96	37139.91
587.15	50846.97
587.34	59004.03
587.54	63317.05
587.73	56333.48
587.93	40764.82
588.12	31434.27
588.31	25894.52
588.51	22644.39
588.70	20981.44
588.89	18484.97
589.09	15814.41
589.28	13764.40
589.47	10760.03
589.67	8247.17
589.86	6436.77
590.06	5044.15
590.25	4493.24
590.44	3850.18
590.64	3557.32
590.83	3481.55
591.02	3561.42
591.22	3182.54
591.41	3205.07
591.60	3266.51
591.80	3768.26
591.99	2914.26
592.18	3108.82
592.38	3540.94
592.57	3217.36
592.76	3035.09
592.96	3192.78
593.15	3151.82
593.34	3532.75
593.54	3030.99
593.73	3190.74
593.92	3463.12
594.12	3405.77
594.31	3174.35
594.50	3274.70
594.70	3416.01
594.89	3854.28
595.08	2961.36
595.28	3248.08
595.47	3864.52
595.66	3524.55
595.86	3043.28
596.05	3053.52
596.24	3149.78
596.43	3649.48
596.63	3155.92
596.82	3215.31
597.01	3426.25
597.21	3588.04
597.40	3049.43
597.59	3125.20
597.79	3184.59
597.98	3399.63
598.17	3147.73
598.36	3192.78
598.56	3549.13
598.75	3184.59
598.94	3246.03
599.14	3186.64
599.33	3194.83
599.52	3452.88
599.71	3139.54
599.91	3123.15
600.10	3401.68
600.29	3237.84
600.48	3131.34
600.68	3211.22
600.87	3381.20
601.06	3082.19
601.26	3141.58
601.45	3203.02
601.64	3286.99
601.83	3551.18
602.03	2975.70
602.22	2953.17
602.41	3506.12
602.60	3852.23
602.80	3198.93
602.99	3198.93
603.18	3147.73
603.37	3391.44
603.57	2938.84
603.76	3110.86
603.95	3508.17
604.14	3180.50
604.34	2994.13
604.53	3010.51
604.72	3291.09
604.91	3387.34
605.10	3016.66
605.30	2955.22
605.49	3704.78
605.68	3420.11
605.87	3037.14
606.07	3051.47
606.26	3348.43
606.45	3336.14
606.64	3188.69
606.84	2912.21
607.03	3274.70
607.22	3598.28
607.41	3143.63
607.60	2969.55
607.80	3467.21
607.99	3262.41
608.18	3098.58
608.37	3067.86
608.56	3164.11
608.76	3475.40
608.95	3235.79
609.14	3069.91
609.33	3526.60
609.52	3532.75
609.72	3235.79
609.91	3123.15
610.10	3319.76
610.29	3540.94
610.48	3160.02
610.68	3272.65
610.87	3297.23
611.06	3450.83
611.25	3057.62
611.44	3209.17
611.63	3086.29
611.83	3522.51
612.02	3069.91
612.21	3176.40
612.40	2983.89
612.59	3033.04
612.79	2969.55
612.98	3164.11
613.17	3553.23
613.36	3272.65
613.55	3266.51
613.74	3090.38
613.93	3352.52
614.13	3426.25
614.32	3282.89
614.51	3155.92
614.70	3217.36
614.89	3215.31
615.08	3176.40
615.28	3405.77
615.47	3090.38
615.66	3395.53
615.85	3143.63
616.04	3131.34
616.23	3383.24
616.42	3233.74
616.62	3139.54
616.81	3043.28
617.00	3280.85
617.19	3432.40
617.38	3114.96
617.57	3114.96
617.76	3432.40
617.95	3442.64
618.15	3219.41
618.34	3336.14
618.53	2934.74
618.72	3551.18
618.91	3170.26
619.10	3119.06
619.29	3278.80
619.48	3291.09
619.68	2928.60
619.87	2973.65
620.06	3071.95
620.25	3487.69
620.44	3045.33
620.63	3043.28
620.82	3344.33
621.01	3354.57
621.20	3074.00
621.39	3192.78
621.59	3485.64
621.78	3305.42
621.97	3149.78
622.16	3229.65
622.35	3368.91
622.54	3481.55
622.73	3090.38
622.92	2871.25
623.11	3452.88
623.30	3196.88
623.49	3209.17
623.68	2953.17
623.88	3561.42
624.07	3184.59
624.26	3039.19
624.45	3022.80
624.64	3145.68
624.83	3315.66
625.02	3018.71
625.21	3125.20
625.40	3389.39
625.59	3512.27
625.78	3297.23
625.97	3180.50
626.16	3555.27
626.35	3438.54
626.54	3110.86
626.74	3346.38
626.93	3293.13
627.12	3215.31
627.31	3119.06
627.50	3141.58
627.69	3428.30
627.88	3137.49
628.07	3086.29
628.26	2936.79
628.45	3053.52
628.64	3117.01
628.83	3084.24
629.02	2879.44
629.21	3432.40
629.40	3385.29
629.59	3002.32
629.78	3006.42
629.97	3227.60
630.16	3299.28
630.35	3092.43
630.54	3129.30
630.73	3141.58
630.92	3307.47
631.11	3008.47
631.30	3074.00
631.49	3499.98
631.68	3241.93
631.87	3119.06
632.06	2992.08
632.25	3749.83
632.44	3219.41
632.63	3133.39
632.82	3104.72
633.01	3198.93
633.20	3393.48
633.39	3039.19
633.58	2916.31
633.77	3346.38
633.96	3438.54
634.15	3262.41
634.34	3164.11
634.53	3270.61
634.72	3094.48
634.91	2899.92
635.10	3000.27
635.29	3428.30
635.48	3282.89
635.67	2951.12
635.86	2904.02
636.05	3540.94
636.24	3182.54
636.43	3096.53
636.62	2992.08
636.81	2836.44
637.00	3268.56
637.19	3055.57
637.38	3090.38
637.57	3235.79
637.76	3409.87
637.95	3231.69
638.14	3176.40
638.33	3336.14
638.52	3280.85
638.71	2953.17
638.89	3020.75
639.08	3852.23
639.27	3547.08
639.46	3350.48
639.65	3657.67
639.84	3897.28
640.03	4063.17
640.22	3719.11
640.41	3585.99
640.60	3497.93
640.79	3516.36
640.98	3295.18
641.17	3379.15
641.36	3497.93
641.55	3446.73
641.74	3024.85
641.92	3033.04
642.11	3065.81
642.30	3209.17
642.49	2981.84
642.68	3090.38
642.87	3399.63
643.06	3327.95
643.25	2955.22
643.44	2934.74
643.63	3270.61
643.82	3389.39
644.00	3043.28
644.19	3178.45
644.38	3041.23
644.57	3381.20
644.76	3088.34
644.95	3221.45
645.14	3377.10
645.33	3286.99
645.52	3127.25
645.71	2908.12
645.89	3051.47
646.08	3227.60
646.27	3100.62
646.46	3286.99
646.65	2971.60
646.84	3301.33
647.03	2987.99
647.22	3264.46
647.40	3260.37
647.59	3147.73
647.78	2914.26
647.97	3055.57
648.16	3188.69
648.35	3512.27
648.54	3291.09
648.73	3041.23
648.91	3452.88
649.10	3305.42
649.29	2983.89
649.48	2965.46
649.67	3428.30
649.86	3338.19
650.05	3162.06
650.23	3286.99
650.42	3233.74
650.61	3590.09
650.80	3315.66
650.99	3346.38
651.18	3442.64
651.36	3565.51
651.55	3057.62
651.74	3282.89
651.93	3172.30
652.12	3254.22
652.31	3151.82
652.49	3137.49
652.68	3143.63
652.87	3551.18
653.06	3184.59
653.25	3411.92
653.44	3276.75
653.62	3688.39
653.81	3102.67
654.00	3022.80
654.19	3481.55
654.38	3788.74
654.56	3065.81
654.75	2992.08
654.94	3409.87
655.13	3264.46
655.32	2977.75
655.51	3203.02
655.69	3211.22
655.88	3477.45
656.07	2928.60
656.26	3155.92
656.45	3033.04
656.63	3221.45
656.82	3004.37
657.01	3354.57
657.20	3166.16
657.38	3641.29
657.57	3008.47
657.76	2910.16
657.95	3364.81
658.14	3184.59
658.32	3149.78
658.51	2983.89
658.70	3299.28
658.89	3368.91
659.08	3071.95
659.26	3305.42
659.45	3145.68
659.64	3438.54
659.83	3074.00
660.01	3463.12
660.20	3286.99
660.39	3524.55
660.58	2818.00
660.76	3090.38
660.95	3051.47
661.14	3256.27
661.33	2918.36
661.51	3035.09
661.70	3229.65
661.89	3373.00
662.08	3063.76
662.26	2973.65
662.45	3080.14
662.64	3639.24
662.83	3125.20
663.01	2934.74
663.20	3164.11
663.39	3614.66
663.58	3069.91
663.76	3049.43
663.95	3319.76
664.14	3022.80
664.32	3139.54
664.51	2934.74
664.70	2940.88
664.89	3340.24
665.07	2955.22
665.26	3248.08
665.45	3004.37
665.64	3315.66
665.82	3033.04
666.01	3155.92
666.20	3018.71
666.38	3526.60
666.57	3389.39
666.76	5613.48
666.95	12945.21
667.13	20672.20
667.32	25050.75
667.51	27997.78
667.69	28808.78
667.88	24112.78
668.07	17401.59
668.25	14829.34
668.44	12963.64
668.63	11063.13
668.81	9688.94
669.00	8499.07
669.19	7563.15
669.38	6696.86
669.56	5629.87
669.75	4972.47
669.94	4419.52
670.12	3839.94
670.31	3471.31
670.50	3373.00
670.68	3557.32
670.87	3426.25
671.06	3094.48
671.24	3203.02
671.43	3571.66
671.62	3387.34
671.80	3059.67
671.99	3215.31
672.18	3344.33
672.36	3459.02
672.55	3254.22
672.74	3149.78
672.92	3203.02
673.11	3377.10
673.29	2840.53
673.48	3237.84
673.67	3182.54
673.85	3444.68
674.04	2963.41
674.23	3211.22
674.41	3717.06
674.60	3045.33
674.79	2914.26
674.97	2822.10
675.16	3467.21
675.34	3481.55
675.53	3078.10
675.72	3131.34
675.90	3721.16
676.09	3125.20
676.28	3123.15
676.46	2936.79
676.65	3393.48
676.83	3117.01
677.02	3215.31
677.21	3246.03
677.39	3282.89
677.58	3139.54
677.77	3082.19
677.95	3004.37
678.14	3180.50
678.32	3182.54
678.51	3106.77
678.70	3459.02
678.88	3176.40
679.07	3286.99
679.25	3133.39
679.44	3057.62
679.63	3086.29
679.81	3327.95
680.00	3327.95
680.18	3151.82
680.37	3608.52
680.55	3248.08
680.74	2951.12
680.93	2824.15
681.11	3362.76
681.30	3282.89
681.48	3078.10
681.67	3090.38
681.85	3346.38
682.04	3102.67
682.23	3227.60
682.41	3149.78
682.60	3241.93
682.78	3289.04
682.97	2934.74
683.15	3078.10
683.34	3334.09
683.53	3522.51
683.71	2977.75
683.90	3133.39
684.08	3655.62
684.27	3190.74
684.45	3123.15
684.64	3260.37
684.82	3268.56
685.01	3532.75
685.19	3094.48
685.38	3289.04
685.57	3246.03
685.75	3160.02
685.94	3053.52
686.12	2992.08
686.31	3188.69
686.49	3690.44
686.68	2877.40
686.86	3127.25
687.05	3215.31
687.23	3620.81
687.42	3131.34
687.60	2944.98
687.79	3495.88
687.97	3647.43
688.16	3237.84
688.34	3260.37
688.53	2918.36
688.71	3364.81
688.90	3362.76
689.08	3125.20
689.27	2947.03
689.45	3411.92
689.64	3282.89
689.82	3223.50
690.01	3321.81
690.19	3332.05
690.38	3176.40
690.56	3274.70
690.75	3082.19
690.93	3090.38
691.12	3045.33
691.30	3149.78
691.49	3143.63
691.67	3221.45
691.86	3327.95
692.04	3155.92
692.23	3196.88
692.41	3223.50
692.60	3510.22
692.78	3315.66
692.97	3321.81
693.15	3456.97
693.34	3246.03
693.52	3284.94
693.71	3131.34
693.89	3221.45
694.08	2981.84
694.26	3110.86
694.44	3411.92
694.63	3456.97
694.81	3059.67
695.00	3049.43
695.18	3469.26
695.37	3776.45
695.55	3215.31
695.74	3262.41
695.92	3160.02
696.10	3528.65
696.29	2961.36
696.47	3131.34
696.66	3020.75
696.84	3164.11
697.03	3110.86
697.21	3409.87
697.40	4720.57
697.58	3526.60
697.76	3096.53
697.95	3065.81
698.13	3069.91
698.32	3153.87
698.50	3037.14
698.68	3117.01
698.87	3319.76
699.05	3635.14
699.24	3094.48
699.42	3106.77
699.61	3391.44
699.79	3278.80
699.97	3053.52
700.16	3018.71
700.34	2969.55
700.53	3315.66
700.71	3280.85
700.89	3264.46
701.08	3168.21
701.26	3235.79
701.45	3413.96
701.63	2990.03
701.81	3198.93
702.00	3078.10
702.18	3168.21
702.37	3020.75
702.55	3618.76
702.73	3407.82
702.92	3133.39
703.10	3352.52
703.28	3411.92
703.47	3094.48
703.65	3405.77
703.84	3241.93
704.02	3229.65
704.20	3629.00
704.39	3065.81
704.57	3059.67
704.75	3389.39
704.94	3319.76
705.12	3254.22
705.30	4157.38
705.49	8642.43
705.67	16801.54
705.86	23746.20
706.04	27027.04
706.22	30010.93
706.41	28640.84
706.59	21550.78
706.77	16766.72
706.96	14645.02
707.14	13102.90
707.32	11421.52
707.51	9858.92
707.69	8202.11
707.87	6524.83
708.06	5220.27
708.24	4503.48
708.42	4077.51
708.61	4259.78
708.79	3266.51
708.97	3258.32
709.16	3354.57
709.34	3377.10
709.52	3039.19
709.71	3184.59
709.89	3375.05
710.07	3131.34
710.26	2975.70
710.44	3114.96
710.62	3424.20
710.80	3223.50
710.99	3155.92
711.17	3194.83
711.35	3186.64
711.54	3074.00
711.72	3286.99
711.90	3219.41
712.09	3364.81
712.27	3108.82
712.45	3303.37
712.63	3067.86
712.82	3268.56
713.00	3237.84
713.18	3250.13
713.37	3297.23
713.55	3401.68
713.73	3401.68
713.91	3176.40
714.10	3121.10
714.28	3262.41
714.46	3270.61
714.65	3168.21
714.83	3166.16
715.01	3254.22
715.19	3286.99
715.38	2971.60
715.56	3221.45
715.74	3182.54
715.92	3114.96
716.11	3397.58
716.29	2844.63
716.47	3213.26
716.65	3323.85
716.84	2873.30
717.02	3196.88
717.20	2938.84
717.38	3082.19
717.57	3225.55
717.75	3108.82
717.93	3256.27
718.11	3411.92
718.30	2926.55
718.48	3188.69
718.66	3524.55
718.84	3459.02
719.03	3057.62
719.21	2895.83
719.39	3639.24
719.57	3436.49
719.75	3260.37
719.94	2963.41
720.12	3121.10
720.30	3256.27
720.48	3176.40
720.67	3082.19
720.85	3024.85
721.03	3266.51
721.21	3047.38
721.39	3123.15
721.58	3385.29
721.76	3270.61
721.94	3098.58
722.12	3203.02
722.30	3569.61
722.49	3166.16
722.67	3119.06
722.85	3074.00
723.03	2947.03
723.21	3133.39
723.40	3074.00
723.58	3301.33
723.76	3487.69
723.94	3532.75
724.12	3157.97
724.30	3383.24
724.49	3481.55
724.67	3086.29
724.85	3196.88
725.03	2981.84
725.21	3381.20
725.40	3454.92
725.58	3051.47
725.76	3327.95
725.94	3319.76
726.12	2992.08
726.30	3137.49
726.49	3043.28
726.67	3180.50
726.85	3381.20
727.03	3999.68
727.21	5498.80
727.39	7141.27
727.57	7864.20
727.76	8337.28
727.94	8435.58
728.12	7309.20
728.30	5892.01
728.48	5629.87
728.66	5072.82
728.84	4806.58
729.03	4220.86
729.21	3878.85
729.39	3469.26
729.57	3426.25
729.75	3391.44
729.93	3358.67
730.11	2994.13
730.30	3205.07
730.48	3299.28
730.66	3184.59
730.84	3217.36
731.02	3297.23
731.20	3172.30
731.38	3174.35
731.56	2969.55
731.74	2965.46
731.93	3327.95
732.11	3229.65
732.29	3117.01
732.47	3360.72
732.65	3317.71
732.83	3350.48
733.01	3127.25
733.19	3180.50
733.37	3375.05
733.56	3114.96
733.74	2893.78
733.92	3614.66
734.10	3311.57
734.28	3282.89
734.46	2940.88
734.64	3182.54
734.82	3176.40
735.00	3061.71
735.18	2971.60
735.36	3293.13
735.54	3262.41
735.73	3053.52
735.91	3203.02
736.09	3620.81
736.27	3370.96
736.45	3117.01
736.63	2863.06
736.81	3112.91
736.99	3506.12
737.17	3260.37
737.35	3069.91
737.53	3352.52
737.71	3192.78
737.89	3246.03
738.07	3018.71
738.25	3149.78
738.43	2973.65
738.61	3092.43
738.80	2926.55
738.98	2979.79
739.16	3151.82
739.34	3067.86
739.52	3463.12
739.70	3250.13
739.88	3352.52
740.06	3125.20
740.24	2822.10
740.42	3483.59
740.60	2938.84
740.78	3024.85
740.96	2826.20
741.14	3241.93
741.32	3256.27
741.50	2942.93
741.68	3387.34
741.86	3540.94
742.04	3057.62
742.22	3004.37
742.40	3030.99
742.58	3473.36
742.76	3061.71
742.94	3317.71
743.12	3016.66
743.30	3270.61
743.48	3405.77
743.66	3037.14
743.84	3157.97
744.02	3254.22
744.20	3207.12
744.38	2967.51
744.56	3057.62
744.74	3665.86
744.92	3428.30
745.10	3266.51
745.28	3239.89
745.46	3602.38
745.64	3221.45
745.82	3166.16
746.00	3053.52
746.18	3405.77
746.36	3014.61
746.54	3133.39
746.72	3149.78
746.90	3076.05
747.08	3397.58
747.26	3030.99
747.44	3188.69
747.62	3422.16
747.80	3444.68
747.98	3203.02
748.15	3127.25
748.33	3655.62
748.51	3258.32
748.69	3192.78
748.87	2975.70
749.05	3106.77
749.23	3248.08
749.41	3053.52
749.59	3123.15
749.77	3459.02
749.95	3205.07
750.13	3053.52
750.31	3223.50
750.49	3293.13
750.67	3487.69
750.85	3270.61
751.03	3180.50
751.20	3700.68
751.38	3243.98
751.56	3100.62
751.74	3061.71
751.92	3106.77
752.10	3041.23
752.28	3274.70
752.46	3092.43
752.64	3235.79
752.82	3264.46
753.00	3246.03
753.18	3010.51
753.35	3233.74
753.53	3246.03
753.71	2969.55
753.89	3157.97
754.07	3352.52
754.25	3467.21
754.43	3041.23
754.61	2893.78
754.79	3373.00
754.97	3203.02
755.14	3250.13
755.32	2992.08
755.50	3321.81
755.68	3280.85
755.86	2983.89
756.04	3049.43
756.22	2893.78
756.40	3510.22
756.57	3360.72
756.75	2992.08
756.93	3424.20
757.11	3467.21
757.29	3020.75
757.47	3045.33
757.65	2942.93
757.82	2877.40
758.00	2973.65
758.18	3131.34
758.36	3160.02
758.54	3631.05
758.72	2977.75
758.90	3233.74
759.07	3360.72
759.25	3074.00
759.43	3180.50
759.61	2965.46
759.79	4566.97
759.97	3395.53
760.15	3106.77
760.32	3071.95
760.50	3323.85
760.68	3622.86
760.86	2944.98
761.04	3389.39
761.22	3450.83
761.39	3231.69
761.57	3186.64
761.75	3123.15
761.93	3407.82
762.11	3176.40
762.28	3184.59
762.46	2994.13
762.64	3499.98
762.82	3061.71
763.00	3016.66
763.18	3313.61
763.35	3082.19
763.53	3420.11
763.71	3174.35
763.89	3024.85
764.07	3305.42
764.24	3295.18
764.42	3200.98
764.60	3063.76
764.78	3379.15
764.96	3450.83
765.13	3246.03
765.31	2959.31
765.49	3315.66
765.67	3053.52
765.84	2983.89
766.02	3065.81
766.20	2934.74
766.38	3381.20
766.56	3176.40
766.73	3180.50
766.91	3256.27
767.09	3274.70
767.27	3110.86
767.44	3051.47
767.62	3405.77
767.80	3303.37
767.98	2996.18
768.15	3139.54
768.33	3452.88
768.51	3471.31
768.69	3239.89
768.87	3037.14
769.04	3297.23
769.22	3825.61
769.40	3221.45
769.58	3250.13
769.75	3385.29
769.93	3549.13
770.11	3114.96
770.28	2910.16
770.46	3481.55
770.64	3393.48
770.82	3065.81
770.99	2994.13
771.17	3321.81
771.35	3151.82
771.53	3164.11
771.70	3049.43
771.88	3370.96
772.06	3209.17
772.23	3014.61
772.41	3133.39
772.59	3239.89
772.77	3139.54
772.94	3117.01
773.12	3135.44
773.30	3157.97
773.47	3237.84
773.65	3014.61
773.83	3307.47
774.01	3303.37
774.18	2926.55
774.36	3051.47
774.54	3002.32
774.71	3325.90
774.89	2987.99
775.07	2912.21
775.24	3022.80
775.42	3145.68
775.60	3635.14
775.78	2861.01
775.95	2959.31
776.13	2944.98
776.31	2985.94
776.48	3239.89
776.66	3305.42
776.84	3237.84
777.01	3049.43
777.19	3043.28
777.37	3006.42
777.54	3440.59
777.72	3663.82
777.90	3217.36
778.07	3123.15
778.25	3885.00
778.43	3561.42
778.60	3010.51
778.78	3250.13
778.96	3502.03
779.13	3082.19
779.31	3172.30
779.49	3065.81
779.66	3340.24
779.84	3215.31
780.01	3074.00
780.19	2979.79
780.37	3600.33
780.54	3510.22
780.72	2920.40
780.90	3092.43
781.07	3237.84
781.25	3221.45
781.43	3215.31
781.60	3016.66
781.78	3432.40
781.95	3383.24
782.13	3049.43
782.31	3102.67
782.48	2926.55
782.66	3286.99
782.83	3385.29
783.01	3123.15
783.19	3418.06
783.36	3278.80
783.54	2957.27
783.72	3223.50
783.89	3127.25
784.07	3336.14
784.24	3278.80
784.42	3250.13
784.60	3315.66
784.77	3299.28
784.95	2871.25
785.12	3094.48
785.30	3348.43
785.47	3047.38
785.65	2928.60
785.83	3074.00
786.00	3233.74
786.18	3330.00
786.35	2992.08
786.53	2979.79
786.71	3471.31
786.88	3321.81
787.06	3186.64
787.23	3160.02
787.41	3024.85
787.58	3160.02
787.76	2901.97
787.94	3160.02
788.11	3405.77
788.29	3018.71
788.46	3082.19
788.64	2969.55
788.81	3194.83
788.99	3145.68
789.16	3053.52
789.34	3119.06
789.52	3133.39
789.69	3178.45
789.87	2932.69
790.04	3051.47
790.22	3110.86
790.39	3633.10
790.57	2920.40
790.74	3026.90
790.92	3411.92
791.09	2965.46
791.27	3196.88
791.44	3129.30
791.62	3133.39
791.79	3487.69
791.97	3141.58
792.15	3393.48
792.32	3422.16
792.50	3385.29
792.67	3190.74
792.85	3438.54
793.02	3286.99
793.20	3221.45
793.37	2990.03
793.55	3053.52
793.72	2985.94
793.90	3444.68
794.07	3049.43
794.25	3045.33
794.42	3323.85
794.60	3250.13
794.77	3125.20
794.95	3160.02
795.12	3401.68
795.30	3221.45
795.47	2822.10
795.65	3385.29
795.82	3375.05
796.00	3223.50
796.17	3172.30
796.34	3012.56
796.52	3286.99
796.69	3536.84
796.87	3239.89
797.04	3196.88
797.22	3416.01
797.39	3395.53
797.57	3203.02
797.74	3182.54
797.92	3321.81
798.09	3192.78
798.27	3373.00
798.44	3086.29
798.62	3137.49
798.79	3307.47
798.96	3260.37
799.14	3112.91
799.31	3860.42
799.49	3358.67
799.66	3059.67
799.84	3078.10
800.01	2975.70
800.19	3416.01
800.36	2912.21
800.53	3065.81
800.71	3356.62
800.88	3600.33
801.06	2969.55
801.23	3057.62
801.41	3217.36
801.58	3110.86
801.75	3049.43
801.93	3166.16
802.10	3385.29
802.28	3270.61
802.45	3106.77
802.63	3188.69
802.80	3583.95
802.97	3135.44
803.15	3074.00
803.32	3049.43
803.50	3090.38
803.67	3182.54
803.84	2994.13
804.02	3149.78
804.19	3162.06
804.37	2854.87
804.54	2957.27
804.71	3059.67
804.89	3168.21
805.06	3117.01
805.24	3028.95
805.41	2959.31
805.58	3168.21
805.76	3706.82
805.93	3018.71
806.10	3198.93
806.28	3440.59
806.45	3256.27
806.63	3203.02
806.80	3223.50
806.97	3315.66
807.15	3317.71
807.32	3203.02
807.49	3069.91
807.67	3082.19
807.84	3403.72
808.01	2889.68
808.19	3243.98
808.36	3692.49
808.54	3176.40
808.71	3106.77
808.88	3106.77
809.06	3459.02
809.23	3567.56
809.40	3082.19
809.58	3020.75
809.75	3278.80
809.92	2944.98
810.10	3348.43
810.27	3028.95
810.44	3370.96
810.62	3373.00
810.79	3039.19
810.96	3053.52
811.14	3147.73
811.31	3373.00
811.48	3243.98
811.66	3168.21
811.83	3485.64
812.00	3368.91
812.18	3166.16
812.35	3373.00
812.52	3246.03
812.69	3207.12
812.87	3047.38
813.04	3004.37
813.21	3217.36
813.39	3121.10
813.56	2996.18
813.73	3315.66
813.91	2967.51
814.08	3258.32
814.25	3010.51
814.42	2850.77
814.60	3254.22
814.77	3250.13
814.94	2998.23
815.12	3143.63
815.29	3567.56
815.46	3184.59
815.63	3084.24
815.81	3051.47
815.98	3108.82
816.15	3196.88
816.33	3182.54
816.50	3088.34
816.67	3299.28
816.84	3225.55
817.02	3049.43
817.19	3078.10
817.36	3286.99
817.53	3225.55
817.71	2959.31
817.88	3117.01
818.05	3227.60
818.22	3143.63
818.40	3280.85
818.57	3084.24
818.74	3299.28
818.91	3241.93
819.09	3178.45
819.26	3166.16
819.43	3055.57
819.60	3049.43
819.78	3231.69
819.95	3123.15
820.12	3061.71
820.29	3444.68
820.47	3319.76
820.64	3022.80
820.81	3078.10
820.98	3090.38
821.15	3108.82
821.33	3192.78
821.50	2985.94
821.67	3346.38
821.84	3012.56
822.02	3133.39
822.19	3461.07
822.36	3147.73
822.53	3045.33
822.70	2932.69
822.88	3227.60
823.05	3590.09
823.22	3166.16
823.39	3086.29
823.56	3223.50
823.74	3688.39
823.91	2953.17
824.08	2975.70
824.25	3014.61
824.42	3561.42
824.60	2920.40
824.77	3110.86
824.94	3141.58
825.11	3411.92
825.28	2942.93
825.45	3252.17
825.63	3317.71
825.80	3119.06
825.97	3237.84
826.14	3157.97
826.31	2861.01
826.48	3264.46
826.66	3157.97
826.83	3002.32
827.00	3209.17
827.17	3069.91
827.34	3049.43
827.51	2971.60
827.69	3225.55
827.86	3008.47
828.03	3164.11
828.20	3098.58
828.37	3100.62
828.54	3379.15
828.71	2961.36
828.89	3176.40
829.06	3262.41
829.23	3512.27
829.40	3026.90
829.57	3061.71
829.74	3368.91
829.91	3088.34
830.09	3057.62
830.26	3254.22
830.43	3563.47
830.60	3178.45
830.77	3141.58
830.94	3209.17
831.11	3373.00
831.28	3213.26
831.46	3217.36
831.63	3053.52
831.80	3405.77
831.97	3127.25
832.14	3016.66
832.31	3106.77
832.48	3317.71
832.65	3389.39
832.82	3297.23
832.99	3168.21
833.17	3045.33
833.34	3532.75
833.51	2985.94
833.68	2813.91
833.85	3461.07
834.02	3082.19
834.19	3039.19
834.36	3053.52
834.53	3307.47
834.70	3444.68
834.87	3098.58
835.04	2863.06
835.22	3098.58
835.39	3338.19
835.56	2924.50
835.73	2969.55
835.90	3344.33
836.07	3020.75
836.24	3030.99
836.41	2967.51
836.58	3108.82
836.75	3516.36
836.92	2914.26
837.09	2850.77
837.26	3389.39
837.43	3327.95
837.60	2942.93
837.77	2985.94
837.94	3420.11
838.12	3522.51
838.29	2840.53
838.46	2842.58
838.63	3012.56
838.80	3618.76
838.97	2963.41
839.14	2879.44
839.31	3291.09
839.48	3401.68
839.65	2912.21
839.82	2971.60
839.99	3299.28
840.16	3260.37
840.33	2834.39
840.50	2965.46
840.67	3106.77
840.84	2797.53
841.01	2828.24
841.18	2848.72
841.35	3155.92
841.52	3352.52
841.69	3266.51
841.86	2957.27
842.03	3256.27
842.20	3495.88
842.37	2992.08
842.54	3002.32
842.71	3221.45
842.88	2910.16
843.05	2906.07
843.22	2947.03
843.39	3477.45
843.56	3098.58
843.73	2934.74
843.90	2979.79
844.07	3299.28
844.24	3481.55
844.41	3014.61
844.58	2957.27
844.75	3282.89
844.92	3409.87
845.09	2938.84
845.26	2826.20
845.43	3344.33
845.60	3225.55
845.77	2965.46
845.94	2985.94
846.10	3375.05
846.27	2959.31
846.44	2836.44
846.61	2809.81
846.78	3319.76
846.95	3360.72
847.12	2891.73
847.29	2951.12
847.46	3123.15
847.63	3426.25
847.80	2848.72
847.97	2932.69
848.14	3809.22
848.31	3250.13
848.48	2734.04
848.65	2918.36
848.82	3145.68
848.98	3778.50
849.15	3028.95
849.32	2985.94
849.49	3434.44
849.66	3190.74
849.83	2877.40
850.00	2811.86
850.17	3340.24
850.34	3196.88
850.51	2846.68
850.68	3022.80
850.85	3704.78
851.01	3305.42
851.18	2926.55
851.35	3010.51
851.52	3422.16
851.69	3635.14
851.86	2891.73
852.03	2932.69
852.20	3377.10
852.37	3200.98
852.53	2758.61
852.70	2813.91
852.87	3303.37
853.04	3375.05
853.21	2906.07
853.38	3135.44
853.55	3499.98
853.72	3532.75
853.89	2838.48
854.05	2910.16
854.22	3229.65
854.39	3131.34
854.56	2979.79
854.73	3047.38
854.90	3059.67
855.07	3180.50
855.23	2844.63
855.40	2840.53
855.57	3176.40
855.74	2826.20
855.91	3125.20
856.08	2719.70
856.25	3016.66
856.41	3174.35
856.58	2901.97
856.75	2871.25
856.92	3043.28
857.09	3407.82
857.26	2754.52
857.42	2979.79
857.59	3389.39
857.76	3215.31
857.93	2930.64
858.10	3045.33
858.27	3000.27
858.43	3346.38
858.60	2899.92
858.77	2828.24
858.94	3096.53
859.11	3495.88
859.27	3000.27
859.44	2811.86
859.61	3706.82
859.78	3338.19
859.95	2910.16
860.12	2844.63
860.28	3723.21
860.45	3649.48
860.62	2795.48
860.79	3053.52
860.95	3168.21
861.12	3045.33
861.29	2891.73
861.46	2824.15
861.63	3303.37
861.79	3286.99
861.96	2803.67
862.13	2863.06
862.30	3608.52
862.47	3125.20
862.63	2789.33
862.80	2983.89
862.97	3553.23
863.14	3334.09
863.30	2992.08
863.47	2858.96
863.64	3588.04
863.81	3256.27
863.97	2744.28
864.14	2934.74
864.31	3215.31
864.48	3186.64
864.65	2897.88
864.81	3006.42
864.98	3311.57
865.15	3459.02
865.32	3004.37
865.48	3014.61
865.65	3590.09
865.82	3155.92
865.98	3035.09
866.15	3008.47
866.32	3215.31
866.49	3207.12
866.65	3112.91
866.82	2944.98
866.99	3139.54
867.16	3168.21
867.32	2936.79
867.49	2818.00
867.66	3215.31
867.83	3211.22
867.99	2881.49
868.16	2889.68
868.33	3106.77
868.49	3231.69
868.66	2908.12
868.83	3059.67
868.99	3289.04
869.16	3381.20
869.33	3043.28
869.50	2996.18
869.66	3266.51
869.83	3239.89
870.00	2861.01
870.16	3074.00
870.33	3139.54
870.50	3407.82
870.66	3047.38
870.83	2961.36
871.00	3205.07
871.17	3313.61
871.33	2994.13
871.50	2918.36
871.67	3260.37
871.83	3168.21
872.00	2983.89
872.17	2977.75
872.33	3583.95
872.50	3495.88
872.67	2852.82
872.83	2893.78
873.00	3356.62
873.17	3256.27
873.33	2987.99
873.50	2938.84
873.67	3149.78
873.83	3084.24
874.00	2897.88
874.16	3065.81
874.33	3258.32
874.50	2983.89
874.66	2940.88
874.83	2998.23
875.00	3418.06
875.16	3489.74
875.33	3030.99
875.50	2654.17
875.66	3160.02
875.83	3274.70
875.99	2990.03
876.16	3002.32
876.33	3004.37
876.49	3256.27
876.66	2951.12
876.83	3018.71
876.99	2983.89
877.16	3233.74
877.32	2887.64
877.49	2983.89
877.66	3346.38
877.82	3454.92
877.99	3061.71
878.15	3119.06
878.32	3280.85
878.49	3336.14
878.65	2957.27
878.82	3149.78
878.98	3166.16
879.15	3479.50
879.32	3125.20
879.48	3133.39
879.65	3225.55
879.81	3270.61
879.98	2977.75
880.15	2985.94
880.31	3395.53
880.48	3104.72
880.64	3039.19
880.81	3000.27
880.97	3655.62
881.14	3487.69
881.31	2844.63
881.47	3131.34
881.64	3229.65
881.80	3010.51
881.97	3166.16
882.13	2934.74
882.30	3069.91
882.47	3065.81
882.63	2936.79
882.80	2912.21
882.96	3145.68
883.13	3442.64
883.29	2959.31
883.46	2953.17
883.62	3667.91
883.79	3258.32
883.95	3143.63
884.12	2928.60
884.29	3493.83
884.45	3200.98
884.62	2910.16
884.78	2926.55
884.95	3596.23
885.11	3016.66
885.28	3076.05
885.44	2928.60
885.61	3379.15
885.77	3473.36
885.94	3086.29
886.10	3016.66
886.27	3239.89
886.43	3600.33
886.60	3057.62
886.76	2906.07
886.93	3090.38
887.09	3272.65
887.26	2748.37
887.42	3053.52
887.59	3436.49
887.75	3657.67
887.92	3100.62
888.08	2975.70
888.25	3667.91
888.41	3411.92
888.58	2938.84
888.74	2854.87
888.91	3192.78
>>>>>End Processed Spectral Data<<<<<
