SpectraSuite Data File
++++++++++++++++++++++++++++++++++++
Date: Fri May 06 08:14:01 CEST 2016
User: root
Dark Spectrum Present: No
Reference Spectrum Present: No
Number of Sampled Component Spectra: 1
Spectrometers: USB4C02835
Integration Time (usec): 100000 (USB4C02835)
Spectra Averaged: 1 (USB4C02835)
Boxcar Smoothing: 0 (USB4C02835)
Correct for Electrical Dark: No (USB4C02835)
Strobe/Lamp Enabled: No (USB4C02835)
Correct for Detector Non-linearity: No (USB4C02835)
Correct for Stray Light: No (USB4C02835)
Number of Pixels in Processed Spectrum: 3648
>>>>>Begin Processed Spectral Data<<<<<
177.47	2310.11
177.69	2310.11
177.91	2310.11
178.13	2299.87
178.36	2308.06
178.58	3094.48
178.80	3231.69
179.02	2975.70
179.24	3028.95
179.46	2803.67
179.68	2891.73
179.90	3200.98
180.13	3266.51
180.35	2668.50
180.57	2772.95
180.79	3405.77
181.01	3256.27
181.23	2938.84
181.45	2992.08
181.67	3549.13
181.90	3377.10
182.12	2992.08
182.34	2650.07
182.56	3321.81
182.78	3368.91
183.00	2813.91
183.22	2881.49
183.44	2854.87
183.66	3876.80
183.89	2955.22
184.11	2977.75
184.33	3364.81
184.55	3524.55
184.77	2869.20
184.99	2858.96
185.21	3176.40
185.43	3917.76
185.65	2885.59
185.87	2760.66
186.10	3790.79
186.32	3827.65
186.54	3065.81
186.76	2985.94
186.98	3561.42
187.20	3260.37
187.42	2928.60
187.64	2815.96
187.86	3336.14
188.08	3553.23
188.30	2783.19
188.52	2959.31
188.75	3536.84
188.97	3493.83
189.19	2815.96
189.41	2789.33
189.63	3401.68
189.85	3256.27
190.07	2742.23
190.29	2684.89
190.51	3452.88
190.73	2992.08
190.95	3069.91
191.17	2981.84
191.39	2969.55
191.61	3198.93
191.84	2836.44
192.06	3071.95
192.28	2977.75
192.50	3973.06
192.72	3047.38
192.94	2916.31
193.16	3487.69
193.38	3366.86
193.60	2748.37
193.82	3024.85
194.04	3518.41
194.26	3319.76
194.48	2844.63
194.70	2850.77
194.92	3313.61
195.14	3391.44
195.36	2846.68
195.58	2940.88
195.80	3164.11
196.02	3215.31
196.24	2910.16
196.46	2934.74
196.69	3164.11
196.91	3774.41
197.13	2887.64
197.35	2924.50
197.57	3583.95
197.79	3495.88
198.01	2918.36
198.23	2879.44
198.45	3524.55
198.67	3074.00
198.89	2705.37
199.11	2934.74
199.33	3125.20
199.55	2809.81
199.77	2856.92
199.99	2975.70
200.21	3301.33
200.43	3450.83
200.65	2762.71
200.87	2680.79
201.09	3270.61
201.31	3235.79
201.53	2881.49
201.75	2998.23
201.97	3334.09
202.19	3258.32
202.41	2938.84
202.63	2901.97
202.85	3401.68
203.07	3413.96
203.29	2963.41
203.51	2731.99
203.73	3090.38
203.95	3813.32
204.17	2850.77
204.39	3010.51
204.61	3241.93
204.83	3188.69
205.05	3053.52
205.27	2879.44
205.49	3778.50
205.71	3227.60
205.93	2725.85
206.15	2789.33
206.37	3205.07
206.59	3153.87
206.81	2686.94
207.03	2695.13
207.25	3049.43
207.47	3352.52
207.69	2815.96
207.91	3074.00
208.13	3694.54
208.34	3131.34
208.56	2848.72
208.78	2897.88
209.00	3209.17
209.22	3153.87
209.44	2861.01
209.66	2820.05
209.88	3311.57
210.10	3258.32
210.32	2811.86
210.54	2936.79
210.76	3184.59
210.98	3413.96
211.20	2725.85
211.42	2992.08
211.64	3573.71
211.86	3401.68
212.08	2949.08
212.30	2863.06
212.52	3190.74
212.74	3379.15
212.96	2953.17
213.17	3037.14
213.39	3495.88
213.61	3633.10
213.83	2781.14
214.05	2686.94
214.27	3469.26
214.49	3141.58
214.71	2719.70
214.93	2942.93
215.15	3266.51
215.37	3397.58
215.59	2736.09
215.81	2959.31
216.03	3524.55
216.24	3303.37
216.46	2822.10
216.68	2920.40
216.90	3381.20
217.12	3510.22
217.34	2822.10
217.56	3053.52
217.78	3532.75
218.00	3393.48
218.22	2981.84
218.44	2996.18
218.66	3272.65
218.87	3665.86
219.09	2867.16
219.31	2836.44
219.53	3418.06
219.75	3198.93
219.97	2908.12
220.19	2949.08
220.41	3219.41
220.63	3688.39
220.85	2942.93
221.06	2897.88
221.28	3475.40
221.50	3465.16
221.72	2893.78
221.94	2748.37
222.16	3270.61
222.38	3448.78
222.60	2811.86
222.82	2947.03
223.03	3452.88
223.25	3155.92
223.47	2844.63
223.69	3162.06
223.91	3459.02
224.13	3260.37
224.35	2750.42
224.57	3028.95
224.78	3475.40
225.00	3155.92
225.22	2983.89
225.44	2770.90
225.66	3463.12
225.88	3184.59
226.10	3002.32
226.32	2840.53
226.53	3559.37
226.75	3258.32
226.97	3030.99
227.19	2924.50
227.41	3096.53
227.63	3209.17
227.85	2738.13
228.06	2963.41
228.28	3356.62
228.50	3409.87
228.72	2660.31
228.94	2813.91
229.16	2922.45
229.37	3057.62
229.59	2713.56
229.81	3069.91
230.03	3258.32
230.25	3026.90
230.47	2746.33
230.69	2846.68
230.90	3330.00
231.12	3160.02
231.34	2934.74
231.56	2936.79
231.78	3065.81
232.00	3350.48
232.21	2928.60
232.43	2910.16
232.65	2889.68
232.87	3319.76
233.09	2721.75
233.30	2852.82
233.52	3467.21
233.74	3272.65
233.96	2775.00
234.18	3084.24
234.40	3282.89
234.61	3768.26
234.83	2785.24
235.05	2832.34
235.27	3852.23
235.49	3459.02
235.70	2824.15
235.92	2887.64
236.14	3428.30
236.36	3751.88
236.58	2848.72
236.79	2904.02
237.01	3231.69
237.23	3334.09
237.45	3123.15
237.67	2928.60
237.88	3364.81
238.10	3661.77
238.32	2791.38
238.54	2803.67
238.76	3334.09
238.97	3121.10
239.19	2828.24
239.41	2985.94
239.63	3493.83
239.85	3194.83
240.06	2881.49
240.28	2799.57
240.50	3471.31
240.72	3370.96
240.93	2758.61
241.15	3074.00
241.37	3303.37
241.59	3553.23
241.81	2807.77
242.02	2912.21
242.24	3350.48
242.46	3504.07
242.68	2717.65
242.89	2766.81
243.11	3440.59
243.33	3246.03
243.55	2912.21
243.76	2908.12
243.98	3139.54
244.20	3293.13
244.42	2828.24
244.64	2863.06
244.85	2996.18
245.07	3125.20
245.29	2899.92
245.51	2916.31
245.72	3354.57
245.94	3581.90
246.16	2828.24
246.38	2838.48
246.59	3143.63
246.81	3166.16
247.03	2758.61
247.24	2697.17
247.46	3262.41
247.68	3375.05
247.90	2807.77
248.11	2861.01
248.33	3442.64
248.55	3174.35
248.77	2910.16
248.98	2924.50
249.20	3592.14
249.42	3373.00
249.64	2822.10
249.85	2762.71
250.07	3125.20
250.29	3450.83
250.50	2932.69
250.72	2809.81
250.94	3307.47
251.16	3696.58
251.37	2877.40
251.59	2981.84
251.81	3430.35
252.02	3545.03
252.24	2889.68
252.46	3045.33
252.68	3164.11
252.89	3117.01
253.11	2729.94
253.33	3067.86
253.54	3549.13
253.76	2992.08
253.98	2854.87
254.20	2901.97
254.41	3022.80
254.63	3313.61
254.85	2795.48
255.06	2992.08
255.28	3459.02
255.50	3184.59
255.71	2885.59
255.93	2707.41
256.15	3307.47
256.36	3485.64
256.58	2736.09
256.80	2815.96
257.02	3289.04
257.23	3235.79
257.45	2844.63
257.67	3018.71
257.88	3131.34
258.10	3448.78
258.32	2844.63
258.53	2971.60
258.75	3592.14
258.97	3166.16
259.18	2725.85
259.40	2822.10
259.62	3602.38
259.83	3590.09
260.05	2893.78
260.27	3786.69
260.48	3512.27
260.70	3121.10
260.92	2805.72
261.13	2877.40
261.35	3317.71
261.57	3428.30
261.78	2729.94
262.00	2805.72
262.22	3432.40
262.43	3112.91
262.65	2889.68
262.86	2869.20
263.08	3749.83
263.30	3246.03
263.51	2682.84
263.73	2805.72
263.95	3592.14
264.16	3207.12
264.38	2709.46
264.60	2795.48
264.81	3250.13
265.03	3493.83
265.25	3282.89
265.46	2766.81
265.68	3485.64
265.89	3459.02
266.11	2731.99
266.33	2779.09
266.54	3545.03
266.76	3493.83
266.98	2910.16
267.19	3053.52
267.41	3516.36
267.62	3243.98
267.84	2684.89
268.06	3043.28
268.27	3336.14
268.49	3561.42
268.70	2893.78
268.92	2942.93
269.14	3127.25
269.35	3045.33
269.57	2969.55
269.79	2918.36
270.00	3127.25
270.22	3651.53
270.43	2834.39
270.65	2697.17
270.87	3348.43
271.08	3377.10
271.30	2979.79
271.51	2899.92
271.73	3401.68
271.95	3565.51
272.16	2795.48
272.38	3045.33
272.59	3188.69
272.81	3358.67
273.02	2738.13
273.24	2912.21
273.46	3395.53
273.67	3014.61
273.89	2713.56
274.10	2801.62
274.32	3629.00
274.54	3366.86
274.75	3012.56
274.97	2979.79
275.18	3446.73
275.40	3362.76
275.61	2906.07
275.83	2983.89
276.05	3157.97
276.26	3258.32
276.48	2928.60
276.69	3022.80
276.91	3110.86
277.12	3696.58
277.34	3078.10
277.55	3157.97
277.77	3319.76
277.99	3196.88
278.20	3000.27
278.42	2861.01
278.63	3145.68
278.85	2992.08
279.06	2996.18
279.28	3051.47
279.49	3506.12
279.71	3479.50
279.93	3008.47
280.14	3055.57
280.36	3117.01
280.57	3428.30
280.79	3155.92
281.00	2842.58
281.22	3123.15
281.43	3520.46
281.65	2762.71
281.86	2910.16
282.08	3426.25
282.29	3669.96
282.51	2844.63
282.73	2885.59
282.94	2969.55
283.16	3399.63
283.37	3067.86
283.59	2990.03
283.80	3387.34
284.02	3215.31
284.23	3047.38
284.45	2981.84
284.66	3135.44
284.88	3133.39
285.09	2975.70
285.31	3082.19
285.52	3313.61
285.74	2887.64
285.95	3205.07
286.17	3033.04
286.38	3502.03
286.60	3166.16
286.81	2963.41
287.03	3000.27
287.24	3280.85
287.46	3450.83
287.67	3162.06
287.89	3076.05
288.10	3207.12
288.32	3295.18
288.53	3098.58
288.75	3082.19
288.96	3504.07
289.18	3198.93
289.39	2897.88
289.61	2996.18
289.82	3780.55
290.04	3631.05
290.25	2805.72
290.47	3100.62
290.68	3258.32
290.90	3436.49
291.11	2795.48
291.33	3182.54
291.54	3110.86
291.76	3172.30
291.97	3121.10
292.18	3082.19
292.40	3196.88
292.61	3053.52
292.83	3248.08
293.04	3045.33
293.26	3323.85
293.47	3207.12
293.69	3006.42
293.90	2906.07
294.12	3512.27
294.33	3305.42
294.55	3008.47
294.76	3176.40
294.97	3651.53
295.19	3821.51
295.40	3000.27
295.62	3059.67
295.83	3395.53
296.05	3162.06
296.26	3237.84
296.48	3008.47
296.69	3270.61
296.90	3254.22
297.12	3076.05
297.33	3145.68
297.55	3332.05
297.76	3327.95
297.98	3041.23
298.19	3182.54
298.41	3264.46
298.62	3182.54
298.83	3155.92
299.05	3153.87
299.26	3262.41
299.48	3094.48
299.69	3078.10
299.90	3084.24
300.12	3117.01
300.33	3368.91
300.55	3112.91
300.76	3033.04
300.98	3061.71
301.19	3391.44
301.40	3008.47
301.62	3030.99
301.83	3422.16
302.05	3286.99
302.26	2883.54
302.47	3006.42
302.69	3082.19
302.90	3313.61
303.12	2844.63
303.33	3084.24
303.54	3694.54
303.76	3098.58
303.97	3033.04
304.19	3297.23
304.40	3110.86
304.61	3403.72
304.83	3076.05
305.04	3033.04
305.26	3481.55
305.47	3151.82
305.68	2944.98
305.90	2994.13
306.11	3590.09
306.33	3286.99
306.54	2815.96
306.75	2961.36
306.97	2994.13
307.18	3147.73
307.39	3006.42
307.61	3076.05
307.82	3200.98
308.04	3426.25
308.25	2852.82
308.46	3172.30
308.68	3282.89
308.89	3284.94
309.10	3098.58
309.32	3057.62
309.53	3254.22
309.74	3426.25
309.96	2930.64
310.17	3133.39
310.39	3162.06
310.60	3491.79
310.81	3039.19
311.03	2951.12
311.24	3401.68
311.45	3336.14
311.67	3274.70
311.88	3112.91
312.09	3178.45
312.31	3207.12
312.52	2971.60
312.73	2979.79
312.95	2977.75
313.16	3147.73
313.37	3108.82
313.59	3092.43
313.80	3454.92
314.01	3592.14
314.23	2996.18
314.44	2963.41
314.65	3039.19
314.87	3082.19
315.08	2977.75
315.29	2957.27
315.51	3102.67
315.72	2953.17
315.93	3100.62
316.15	3067.86
316.36	3227.60
316.57	3385.29
316.79	2926.55
317.00	2926.55
317.21	3362.76
317.43	3074.00
317.64	3008.47
317.85	2942.93
318.07	3114.96
318.28	3221.45
318.49	3069.91
318.70	3198.93
318.92	3411.92
319.13	3332.05
319.34	3172.30
319.56	3037.14
319.77	3338.19
319.98	3411.92
320.20	3284.94
320.41	3174.35
320.62	3430.35
320.83	3082.19
321.05	3211.22
321.26	3030.99
321.47	3250.13
321.69	3497.93
321.90	2881.49
322.11	2889.68
322.32	3291.09
322.54	3674.06
322.75	3057.62
322.96	3938.24
323.18	2992.08
323.39	2920.40
323.60	2893.78
323.81	3123.15
324.03	3178.45
324.24	3309.52
324.45	3121.10
324.66	2885.59
324.88	3450.83
325.09	3565.51
325.30	2955.22
325.52	2955.22
325.73	3368.91
325.94	3024.85
326.15	2928.60
326.37	2904.02
326.58	3532.75
326.79	3649.48
327.00	2832.34
327.22	2942.93
327.43	3221.45
327.64	3057.62
327.85	3053.52
328.07	3045.33
328.28	3735.50
328.49	3123.15
328.70	3026.90
328.92	2949.08
329.13	3217.36
329.34	3375.05
329.55	3114.96
329.76	3147.73
329.98	3170.26
330.19	3491.79
330.40	3018.71
330.61	3196.88
330.83	3442.64
331.04	3069.91
331.25	3057.62
331.46	3065.81
331.68	3090.38
331.89	3520.46
332.10	3051.47
332.31	2865.11
332.52	3319.76
332.74	3524.55
332.95	2822.10
333.16	2985.94
333.37	3477.45
333.58	3196.88
333.80	2994.13
334.01	2867.16
334.22	3184.59
334.43	3192.78
334.64	2998.23
334.86	2885.59
335.07	3153.87
335.28	3655.62
335.49	2934.74
335.70	3086.29
335.92	3553.23
336.13	3745.73
336.34	3090.38
336.55	3002.32
336.76	3348.43
336.98	2932.69
337.19	3041.23
337.40	3090.38
337.61	3829.70
337.82	3215.31
338.04	3065.81
338.25	2797.53
338.46	3205.07
338.67	3246.03
338.88	2932.69
339.09	2918.36
339.31	3147.73
339.52	2955.22
339.73	2865.11
339.94	2967.51
340.15	3489.74
340.36	3149.78
340.58	3065.81
340.79	2947.03
341.00	3362.76
341.21	3076.05
341.42	3170.26
341.63	3024.85
341.85	3381.20
342.06	3342.28
342.27	2971.60
342.48	3213.26
342.69	2992.08
342.90	3344.33
343.12	3385.29
343.33	2901.97
343.54	3463.12
343.75	3583.95
343.96	3123.15
344.17	2942.93
344.38	3233.74
344.60	3139.54
344.81	2979.79
345.02	3024.85
345.23	3516.36
345.44	3753.93
345.65	3041.23
345.86	2998.23
346.07	3276.75
346.29	3123.15
346.50	3135.44
346.71	3057.62
346.92	3518.41
347.13	3721.16
347.34	3082.19
347.55	2850.77
347.76	3377.10
347.98	2998.23
348.19	3076.05
348.40	3239.89
348.61	3168.21
348.82	3655.62
349.03	3010.51
349.24	3000.27
349.45	3672.01
349.66	2930.64
349.88	3006.42
350.09	2910.16
350.30	3631.05
350.51	3540.94
350.72	3205.07
350.93	2985.94
351.14	3196.88
351.35	3434.44
351.56	3014.61
351.77	3059.67
351.99	3385.29
352.20	3526.60
352.41	3114.96
352.62	2881.49
352.83	3399.63
353.04	3254.22
353.25	3016.66
353.46	2977.75
353.67	3477.45
353.88	2906.07
354.09	2906.07
354.30	3102.67
354.52	3364.81
354.73	3203.02
354.94	3053.52
355.15	3016.66
355.36	3712.97
355.57	3149.78
355.78	2947.03
355.99	2957.27
356.20	3229.65
356.41	3577.80
356.62	3088.34
356.83	3008.47
357.04	3493.83
357.25	2818.00
357.46	2938.84
357.68	2871.25
357.89	3088.34
358.10	3295.18
358.31	2979.79
358.52	3094.48
358.73	3035.09
358.94	3088.34
359.15	3022.80
359.36	2971.60
359.57	3205.07
359.78	3299.28
359.99	3200.98
360.20	2951.12
360.41	3209.17
360.62	3416.01
360.83	3051.47
361.04	3016.66
361.25	3323.85
361.46	3657.67
361.67	3221.45
361.88	3020.75
362.09	3393.48
362.30	3258.32
362.51	2932.69
362.72	3012.56
362.93	3454.92
363.14	3368.91
363.35	3166.16
363.56	2936.79
363.78	3598.28
363.99	3428.30
364.20	3028.95
364.41	3051.47
364.62	3575.75
364.83	3416.01
365.04	3047.38
365.25	3051.47
365.46	3686.34
365.67	3117.01
365.88	3114.96
366.09	2987.99
366.30	3237.84
366.51	3237.84
366.72	2924.50
366.93	2963.41
367.14	3338.19
367.35	3504.07
367.56	2967.51
367.77	3225.55
367.98	3311.57
368.18	3393.48
368.39	3071.95
368.60	2938.84
368.81	3456.97
369.02	3403.72
369.23	2983.89
369.44	2893.78
369.65	3231.69
369.86	3385.29
370.07	3043.28
370.28	2908.12
370.49	3434.44
370.70	3276.75
370.91	2979.79
371.12	2842.58
371.33	3567.56
371.54	3239.89
371.75	3094.48
371.96	2863.06
372.17	3424.20
372.38	3205.07
372.59	3035.09
372.80	2998.23
373.01	3186.64
373.22	3330.00
373.43	2947.03
373.64	2865.11
373.85	3592.14
374.06	3647.43
374.26	3131.34
374.47	3133.39
374.68	3606.47
374.89	3327.95
375.10	2969.55
375.31	3143.63
375.52	3272.65
375.73	3332.05
375.94	2891.73
376.15	3157.97
376.36	3119.06
376.57	3237.84
376.78	3004.37
376.99	3061.71
377.20	3553.23
377.40	3155.92
377.61	3340.24
377.82	3000.27
378.03	3622.86
378.24	3401.68
378.45	3127.25
378.66	2992.08
378.87	2944.98
379.08	2983.89
379.29	3037.14
379.50	3160.02
379.71	3213.26
379.91	3469.26
380.12	3000.27
380.33	3174.35
380.54	3321.81
380.75	3258.32
380.96	3065.81
381.17	3047.38
381.38	3188.69
381.59	3336.14
381.80	3045.33
382.00	3160.02
382.21	3276.75
382.42	3608.52
382.63	3387.34
382.84	3106.77
383.05	3465.16
383.26	3684.30
383.47	3123.15
383.68	3010.51
383.88	3442.64
384.09	3362.76
384.30	3217.36
384.51	3143.63
384.72	3151.82
384.93	3057.62
385.14	2987.99
385.35	3403.72
385.55	3033.04
385.76	3461.07
385.97	2985.94
386.18	2889.68
386.39	3121.10
386.60	3143.63
386.81	2971.60
387.02	2906.07
387.22	3084.24
387.43	3403.72
387.64	3090.38
387.85	3286.99
388.06	3258.32
388.27	4446.14
388.48	7847.82
388.68	12050.25
388.89	15202.07
389.10	16498.44
389.31	16199.43
389.52	13117.24
389.73	11423.57
389.93	10422.11
390.14	9342.83
390.35	8609.66
390.56	7974.79
390.77	6616.99
390.98	4970.42
391.18	4171.71
391.39	3876.80
391.60	3342.28
391.81	3280.85
392.02	3076.05
392.23	3770.31
392.43	3315.66
392.64	3137.49
392.85	3174.35
393.06	3696.58
393.27	3215.31
393.47	3020.75
393.68	3078.10
393.89	3254.22
394.10	3524.55
394.31	3100.62
394.52	2955.22
394.72	3182.54
394.93	3577.80
395.14	2895.83
395.35	3178.45
395.56	3114.96
395.76	3178.45
395.97	2981.84
396.18	3213.26
396.39	3278.80
396.60	3960.77
396.80	3409.87
397.01	3270.61
397.22	3354.57
397.43	3510.22
397.64	3098.58
397.84	3172.30
398.05	3723.21
398.26	3250.13
398.47	3153.87
398.67	3297.23
398.88	3344.33
399.09	3409.87
399.30	3059.67
399.51	3112.91
399.71	3147.73
399.92	3325.90
400.13	3137.49
400.34	3028.95
400.54	3397.58
400.75	3551.18
400.96	3295.18
401.17	3307.47
401.37	3471.31
401.58	3270.61
401.79	3055.57
402.00	3166.16
402.21	3813.32
402.41	3395.53
402.62	3409.87
402.83	3534.79
403.04	3735.50
403.24	4065.22
403.45	3284.94
403.66	3385.29
403.87	3549.13
404.07	3653.58
404.28	3346.38
404.49	3397.58
404.70	3313.61
404.90	3459.02
405.11	3004.37
405.32	3166.16
405.52	3141.58
405.73	3262.41
405.94	2955.22
406.15	3205.07
406.35	3377.10
406.56	3416.01
406.77	3129.30
406.98	3051.47
407.18	3149.78
407.39	3588.04
407.60	3137.49
407.80	3178.45
408.01	3186.64
408.22	3330.00
408.43	2961.36
408.63	3190.74
408.84	3409.87
409.05	3444.68
409.25	2971.60
409.46	2953.17
409.67	3229.65
409.88	3108.82
410.08	3123.15
410.29	2977.75
410.50	3508.17
410.70	3354.57
410.91	2983.89
411.12	3088.34
411.32	3297.23
411.53	3076.05
411.74	3030.99
411.95	3237.84
412.15	3327.95
412.36	3436.49
412.57	3196.88
412.77	3303.37
412.98	3243.98
413.19	3133.39
413.39	3100.62
413.60	3110.86
413.81	3592.14
414.01	3088.34
414.22	3043.28
414.43	3184.59
414.63	3241.93
414.84	3426.25
415.05	3084.24
415.25	2953.17
415.46	3385.29
415.67	3147.73
415.87	3119.06
416.08	3024.85
416.29	3196.88
416.49	3452.88
416.70	3106.77
416.91	3078.10
417.11	3223.50
417.32	3454.92
417.53	3190.74
417.73	3235.79
417.94	3254.22
418.15	3327.95
418.35	3117.01
418.56	3094.48
418.77	3729.35
418.97	3313.61
419.18	3182.54
419.38	2686.94
419.59	3307.47
419.80	3592.14
420.00	2957.27
420.21	3012.56
420.42	3553.23
420.62	3377.10
420.83	2992.08
421.04	2985.94
421.24	3338.19
421.45	3418.06
421.65	3090.38
421.86	3065.81
422.07	3403.72
422.27	3317.71
422.48	2996.18
422.69	2906.07
422.89	3315.66
423.10	3299.28
423.30	2942.93
423.51	3141.58
423.72	3364.81
423.92	3418.06
424.13	2914.26
424.33	3117.01
424.54	3391.44
424.75	3268.56
424.95	3250.13
425.16	2996.18
425.36	3295.18
425.57	3389.39
425.78	3213.26
425.98	3168.21
426.19	3248.08
426.39	3160.02
426.60	3092.43
426.81	3225.55
427.01	3381.20
427.22	3155.92
427.42	2906.07
427.63	3026.90
427.83	3518.41
428.04	3598.28
428.25	3123.15
428.45	3086.29
428.66	3373.00
428.86	3200.98
429.07	3137.49
429.28	3110.86
429.48	3370.96
429.69	3057.62
429.89	3096.53
430.10	2981.84
430.30	3407.82
430.51	3477.45
430.71	2904.02
430.92	3125.20
431.13	3254.22
431.33	3428.30
431.54	3151.82
431.74	3272.65
431.95	3749.83
432.15	3055.57
432.36	3180.50
432.56	3092.43
432.77	3682.25
432.98	3702.73
433.18	3131.34
433.39	2969.55
433.59	3370.96
433.80	3684.30
434.00	3241.93
434.21	3067.86
434.41	3094.48
434.62	3811.27
434.82	3020.75
435.03	2914.26
435.23	3389.39
435.44	2996.18
435.64	3059.67
435.85	3088.34
436.06	3366.86
436.26	3493.83
436.47	2961.36
436.67	3041.23
436.88	3194.83
437.08	3485.64
437.29	3284.94
437.49	3182.54
437.70	3581.90
437.90	3182.54
438.11	3323.85
438.31	3119.06
438.52	3561.42
438.72	3489.74
438.93	3434.44
439.13	3176.40
439.34	3459.02
439.54	3286.99
439.75	3194.83
439.95	3160.02
440.16	3139.54
440.36	3313.61
440.57	3141.58
440.77	3139.54
440.98	3243.98
441.18	3360.72
441.39	3004.37
441.59	2985.94
441.80	3715.02
442.00	3190.74
442.21	3164.11
442.41	2926.55
442.62	3473.36
442.82	3182.54
443.02	3094.48
443.23	3110.86
443.43	3178.45
443.64	3682.25
443.84	2922.45
444.05	3121.10
444.25	3315.66
444.46	3205.07
444.66	3071.95
444.87	3305.42
445.07	2918.36
445.28	3186.64
445.48	3291.09
445.69	3106.77
445.89	3866.56
446.09	3239.89
446.30	3401.68
446.50	3471.31
446.71	5074.87
446.91	6322.08
447.12	7266.19
447.32	7628.68
447.53	7634.83
447.73	6322.08
447.93	5617.58
448.14	5285.81
448.34	5365.68
448.55	4591.55
448.75	4409.28
448.96	4261.82
449.16	4075.46
449.36	3938.24
449.57	3360.72
449.77	3168.21
449.98	3190.74
450.18	3444.68
450.39	2996.18
450.59	3266.51
450.79	3258.32
451.00	3233.74
451.20	3313.61
451.41	2992.08
451.61	3338.19
451.81	3108.82
452.02	3037.14
452.22	3096.53
452.43	3182.54
452.63	3151.82
452.84	3090.38
453.04	2994.13
453.24	3268.56
453.45	3106.77
453.65	3090.38
453.86	3047.38
454.06	3313.61
454.26	3254.22
454.47	2967.51
454.67	3303.37
454.87	3334.09
455.08	3248.08
455.28	3168.21
455.49	3184.59
455.69	3117.01
455.89	3631.05
456.10	3235.79
456.30	3100.62
456.51	3395.53
456.71	3291.09
456.91	3176.40
457.12	3114.96
457.32	3385.29
457.52	3098.58
457.73	3266.51
457.93	3233.74
458.14	3151.82
458.34	2871.25
458.54	3098.58
458.75	3043.28
458.95	3471.31
459.15	3395.53
459.36	3119.06
459.56	2992.08
459.76	3706.82
459.97	3233.74
460.17	2998.23
460.37	3088.34
460.58	3239.89
460.78	3411.92
460.99	3100.62
461.19	3035.09
461.39	3203.02
461.60	3266.51
461.80	3041.23
462.00	2936.79
462.21	3321.81
462.41	3096.53
462.61	2861.01
462.82	2854.87
463.02	3395.53
463.22	3313.61
463.43	3086.29
463.63	2963.41
463.83	3641.29
464.04	3338.19
464.24	3082.19
464.44	2990.03
464.64	3299.28
464.85	3422.16
465.05	3082.19
465.25	2981.84
465.46	3139.54
465.66	3319.76
465.86	3090.38
466.07	3035.09
466.27	3123.15
466.47	2949.08
466.68	2936.79
466.88	3121.10
467.08	3411.92
467.29	3444.68
467.49	3098.58
467.69	3149.78
467.89	3401.68
468.10	3239.89
468.30	3108.82
468.50	3135.44
468.71	3477.45
468.91	2965.46
469.11	3264.46
469.31	3125.20
469.52	3164.11
469.72	3647.43
469.92	3278.80
470.13	3071.95
470.33	3252.17
470.53	3325.90
470.73	3452.88
470.94	3919.81
471.14	4190.14
471.34	4755.38
471.54	4448.19
471.75	4114.37
471.95	3794.89
472.15	3743.69
472.36	3674.06
472.56	3528.65
472.76	3934.15
472.96	3753.93
473.17	3356.62
473.37	3213.26
473.57	3233.74
473.77	3336.14
473.98	3192.78
474.18	2928.60
474.38	3938.24
474.58	3172.30
474.79	2936.79
474.99	3129.30
475.19	3620.81
475.39	3125.20
475.60	3102.67
475.80	3094.48
476.00	3360.72
476.20	3184.59
476.41	3076.05
476.61	3082.19
476.81	3514.31
477.01	3076.05
477.21	3317.71
477.42	3172.30
477.62	3139.54
477.82	3454.92
478.02	2979.79
478.23	3100.62
478.43	3114.96
478.63	3239.89
478.83	3119.06
479.03	3127.25
479.24	3616.71
479.44	3710.92
479.64	3030.99
479.84	2930.64
480.04	3129.30
480.25	3516.36
480.45	3018.71
480.65	3010.51
480.85	3577.80
481.06	3190.74
481.26	3168.21
481.46	3088.34
481.66	3338.19
481.86	3125.20
482.06	3147.73
482.27	3139.54
482.47	3274.70
482.67	3268.56
482.87	3098.58
483.07	3067.86
483.28	3213.26
483.48	3067.86
483.68	3033.04
483.88	2957.27
484.08	2844.63
484.29	3018.71
484.49	3196.88
484.69	2856.92
484.89	3585.99
485.09	3477.45
485.29	3098.58
485.50	3190.74
485.70	3217.36
485.90	3565.51
486.10	3192.78
486.30	2947.03
486.50	3499.98
486.71	3346.38
486.91	3123.15
487.11	3114.96
487.31	2983.89
487.51	3440.59
487.71	3057.62
487.91	3024.85
488.12	3131.34
488.32	2848.72
488.52	3106.77
488.72	2832.34
488.92	3272.65
489.12	3588.04
489.32	3235.79
489.53	3067.86
489.73	2967.51
489.93	3612.62
490.13	3086.29
490.33	2906.07
490.53	3379.15
490.73	3516.36
490.94	2873.30
491.14	3186.64
491.34	3418.06
491.54	3381.20
491.74	4075.46
491.94	4532.15
492.14	5126.07
492.34	5281.71
492.54	4806.58
492.75	4118.47
492.95	4411.32
493.15	4143.04
493.35	3751.88
493.55	3743.69
493.75	3712.97
493.95	3856.33
494.15	3352.52
494.35	3121.10
494.56	3338.19
494.76	3192.78
494.96	3213.26
495.16	3002.32
495.36	3239.89
495.56	3264.46
495.76	3096.53
495.96	3057.62
496.16	3121.10
496.36	3721.16
496.56	3074.00
496.77	3147.73
496.97	3250.13
497.17	3596.23
497.37	2912.21
497.57	3205.07
497.77	3327.95
497.97	3033.04
498.17	3155.92
498.37	3035.09
498.57	3407.82
498.77	3241.93
498.97	3256.27
499.17	3497.93
499.38	3203.02
499.58	3456.97
499.78	3256.27
499.98	3198.93
500.18	3239.89
500.38	3102.67
500.58	3297.23
500.78	3704.78
500.98	6195.11
501.18	8300.42
501.38	9817.96
501.58	10956.63
501.78	10911.58
501.98	9041.78
502.18	7538.57
502.38	6676.38
502.58	6504.35
502.78	5750.70
502.98	5525.42
503.18	5281.71
503.38	4884.41
503.59	4286.40
503.79	4040.64
503.99	3633.10
504.19	3829.70
504.39	3917.76
504.59	3723.21
504.79	3585.99
504.99	3950.53
505.19	3637.19
505.39	3432.40
505.59	3459.02
505.79	3682.25
505.99	3555.27
506.19	3139.54
506.39	3401.68
506.59	3229.65
506.79	3237.84
506.99	3237.84
507.19	2987.99
507.39	3340.24
507.59	2951.12
507.79	3137.49
507.99	3069.91
508.19	3291.09
508.39	3241.93
508.59	3119.06
508.79	3139.54
508.99	3704.78
509.19	3192.78
509.39	3092.43
509.59	3000.27
509.79	3192.78
509.99	3360.72
510.19	3209.17
510.39	3184.59
510.59	3248.08
510.79	3237.84
510.99	2922.45
511.19	3004.37
511.39	3567.56
511.59	3561.42
511.79	3217.36
511.99	3086.29
512.19	3622.86
512.38	3356.62
512.58	3020.75
512.78	2973.65
512.98	3565.51
513.18	3545.03
513.38	2918.36
513.58	3069.91
513.78	3225.55
513.98	3225.55
514.18	3133.39
514.38	3049.43
514.58	3340.24
514.78	3176.40
514.98	2973.65
515.18	3080.14
515.38	2951.12
515.58	3569.61
515.78	3010.51
515.98	3133.39
516.18	3370.96
516.38	3299.28
516.57	3014.61
516.77	2998.23
516.97	3407.82
517.17	3143.63
517.37	2897.88
517.57	3041.23
517.77	3344.33
517.97	3041.23
518.17	3153.87
518.37	2908.12
518.57	3211.22
518.77	3172.30
518.97	3098.58
519.16	3121.10
519.36	3483.59
519.56	3223.50
519.76	2971.60
519.96	3006.42
520.16	3590.09
520.36	3004.37
520.56	3194.83
520.76	3020.75
520.96	3246.03
521.16	3510.22
521.35	3313.61
521.55	3192.78
521.75	3409.87
521.95	3192.78
522.15	3051.47
522.35	2873.30
522.55	3139.54
522.75	3475.40
522.95	3002.32
523.14	2979.79
523.34	3231.69
523.54	3125.20
523.74	3080.14
523.94	3135.44
524.14	3057.62
524.34	3338.19
524.54	3336.14
524.73	3145.68
524.93	3399.63
525.13	3241.93
525.33	2944.98
525.53	3297.23
525.73	3340.24
525.93	3223.50
526.13	3090.38
526.32	3012.56
526.52	3446.73
526.72	3434.44
526.92	3076.05
527.12	2977.75
527.32	2969.55
527.52	3356.62
527.71	3114.96
527.91	3106.77
528.11	3188.69
528.31	3295.18
528.51	2975.70
528.71	3203.02
528.90	3352.52
529.10	3475.40
529.30	3098.58
529.50	2824.15
529.70	3270.61
529.90	3192.78
530.09	3022.80
530.29	2879.44
530.49	3114.96
530.69	3852.23
530.89	3237.84
531.09	3125.20
531.28	3176.40
531.48	3467.21
531.68	2994.13
531.88	3061.71
532.08	3438.54
532.28	3282.89
532.47	3172.30
532.67	3125.20
532.87	3368.91
533.07	3196.88
533.27	3133.39
533.46	3108.82
533.66	3360.72
533.86	3280.85
534.06	3153.87
534.26	3065.81
534.45	3182.54
534.65	3452.88
534.85	3061.71
535.05	3049.43
535.25	3516.36
535.44	2951.12
535.64	3088.34
535.84	3139.54
536.04	3258.32
536.24	3153.87
536.43	2998.23
536.63	3063.76
536.83	3215.31
537.03	3209.17
537.22	2885.59
537.42	2873.30
537.62	3352.52
537.82	3110.86
538.02	3207.12
538.21	3166.16
538.41	3743.69
538.61	3403.72
538.81	3074.00
539.00	3186.64
539.20	2938.84
539.40	3270.61
539.60	3020.75
539.79	3319.76
539.99	3282.89
540.19	3076.05
540.39	2957.27
540.58	3065.81
540.78	3497.93
540.98	3237.84
541.18	3278.80
541.37	3071.95
541.57	3282.89
541.77	3246.03
541.97	2971.60
542.16	2932.69
542.36	3203.02
542.56	3084.24
542.76	3219.41
542.95	3174.35
543.15	3366.86
543.35	3493.83
543.54	3033.04
543.74	3008.47
543.94	3547.08
544.14	3219.41
544.33	3125.20
544.53	3057.62
544.73	3196.88
544.93	3155.92
545.12	3094.48
545.32	3049.43
545.52	3209.17
545.71	3033.04
545.91	3069.91
546.11	2979.79
546.30	3055.57
546.50	3270.61
546.70	3207.12
546.90	3059.67
547.09	2871.25
547.29	3319.76
547.49	3284.94
547.68	3057.62
547.88	3184.59
548.08	3442.64
548.27	3373.00
548.47	3051.47
548.67	3252.17
548.87	3346.38
549.06	2959.31
549.26	2951.12
549.46	3405.77
549.65	3125.20
549.85	3074.00
550.05	3098.58
550.24	3076.05
550.44	3250.13
550.64	3098.58
550.83	3041.23
551.03	3504.07
551.23	3483.59
551.42	3112.91
551.62	3127.25
551.82	3332.05
552.01	3246.03
552.21	3262.41
552.41	3192.78
552.60	3567.56
552.80	3327.95
553.00	3026.90
553.19	3024.85
553.39	3639.24
553.59	3078.10
553.78	3225.55
553.98	3098.58
554.17	2940.88
554.37	3323.85
554.57	3180.50
554.76	2967.51
554.96	3149.78
555.16	3209.17
555.35	3117.01
555.55	3340.24
555.75	3289.04
555.94	3413.96
556.14	2912.21
556.33	3074.00
556.53	3258.32
556.73	3246.03
556.92	3051.47
557.12	3022.80
557.32	3680.20
557.51	3624.90
557.71	3100.62
557.90	3237.84
558.10	3551.18
558.30	3231.69
558.49	3084.24
558.69	3061.71
558.88	3364.81
559.08	3401.68
559.28	3106.77
559.47	3112.91
559.67	3381.20
559.86	3692.49
560.06	3108.82
560.26	2994.13
560.45	3330.00
560.65	3295.18
560.84	3315.66
561.04	2967.51
561.24	3450.83
561.43	3049.43
561.63	3254.22
561.82	3213.26
562.02	3399.63
562.22	3067.86
562.41	3010.51
562.61	2965.46
562.80	3137.49
563.00	3794.89
563.19	3182.54
563.39	3176.40
563.59	3452.88
563.78	3028.95
563.98	2815.96
564.17	3090.38
564.37	2971.60
564.56	3170.26
564.76	2916.31
564.96	3170.26
565.15	3327.95
565.35	3813.32
565.54	3145.68
565.74	3135.44
565.93	3373.00
566.13	3370.96
566.32	3155.92
566.52	3215.31
566.71	3211.22
566.91	3450.83
567.11	3250.13
567.30	3020.75
567.50	3407.82
567.69	3370.96
567.89	3028.95
568.08	2959.31
568.28	3262.41
568.47	3092.43
568.67	3055.57
568.86	3008.47
569.06	3420.11
569.25	3137.49
569.45	2897.88
569.64	3059.67
569.84	3264.46
570.04	3286.99
570.23	3069.91
570.43	3166.16
570.62	3348.43
570.82	3573.71
571.01	3012.56
571.21	3065.81
571.40	3092.43
571.60	3418.06
571.79	3233.74
571.99	3028.95
572.18	3059.67
572.38	3282.89
572.57	3078.10
572.77	3160.02
572.96	3680.20
573.16	3291.09
573.35	3059.67
573.55	3225.55
573.74	3217.36
573.94	3213.26
574.13	3008.47
574.33	3182.54
574.52	3446.73
574.71	3235.79
574.91	3133.39
575.10	3014.61
575.30	3133.39
575.49	3074.00
575.69	3100.62
575.88	3065.81
576.08	3250.13
576.27	3532.75
576.47	3020.75
576.66	3227.60
576.86	3479.50
577.05	3418.06
577.25	3162.06
577.44	3168.21
577.64	3229.65
577.83	3528.65
578.02	3037.14
578.22	3190.74
578.41	3606.47
578.61	3225.55
578.80	3047.38
579.00	3065.81
579.19	3215.31
579.39	3278.80
579.58	3125.20
579.77	3028.95
579.97	3592.14
580.16	3510.22
580.36	3297.23
580.55	3174.35
580.75	3360.72
580.94	3246.03
581.13	3301.33
581.33	3295.18
581.52	3295.18
581.72	3655.62
581.91	3200.98
582.11	3102.67
582.30	3471.31
582.49	3330.00
582.69	3438.54
582.88	3141.58
583.08	3348.43
583.27	3471.31
583.47	3182.54
583.66	3051.47
583.85	3110.86
584.05	3266.51
584.24	3170.26
584.44	3090.38
584.63	3481.55
584.82	3594.19
585.02	3282.89
585.21	3264.46
585.41	3440.59
585.60	3309.52
585.79	3334.09
585.99	3442.64
586.18	3297.23
586.37	4263.87
586.57	6334.37
586.76	18040.56
586.96	37912.00
587.15	51256.56
587.34	59815.02
587.54	63882.29
587.73	56544.42
587.93	41082.25
588.12	31419.94
588.31	25630.33
588.51	22957.73
588.70	21380.79
588.89	18503.40
589.09	15838.99
589.28	13754.16
589.47	10837.85
589.67	8257.41
589.86	6416.29
590.06	5029.81
590.25	4401.08
590.44	3887.04
590.64	3596.23
590.83	3590.09
591.02	3565.51
591.22	3012.56
591.41	3143.63
591.60	3299.28
591.80	3729.35
591.99	2922.45
592.18	3067.86
592.38	3489.74
592.57	3233.74
592.76	3092.43
592.96	3184.59
593.15	3258.32
593.34	3510.22
593.54	3080.14
593.73	3264.46
593.92	3403.72
594.12	3336.14
594.31	3180.50
594.50	3297.23
594.70	3346.38
594.89	3839.94
595.08	2967.51
595.28	3289.04
595.47	3973.06
595.66	3493.83
595.86	3000.27
596.05	2985.94
596.24	3221.45
596.43	3682.25
596.63	3215.31
596.82	3235.79
597.01	3389.39
597.21	3600.33
597.40	3067.86
597.59	3184.59
597.79	3235.79
597.98	3422.16
598.17	3098.58
598.36	3016.66
598.56	3401.68
598.75	3149.78
598.94	3174.35
599.14	3067.86
599.33	3231.69
599.52	3432.40
599.71	3182.54
599.91	3135.44
600.10	3420.11
600.29	3262.41
600.48	3182.54
600.68	3176.40
600.87	3368.91
601.06	3141.58
601.26	3252.17
601.45	3176.40
601.64	3282.89
601.83	3536.84
602.03	2965.46
602.22	2936.79
602.41	3532.75
602.60	3796.93
602.80	3215.31
602.99	3203.02
603.18	3162.06
603.37	3258.32
603.57	2955.22
603.76	3100.62
603.95	3567.56
604.14	3207.12
604.34	3006.42
604.53	2963.41
604.72	3272.65
604.91	3401.68
605.10	3051.47
605.30	2949.08
605.49	3682.25
605.68	3436.49
605.87	3098.58
606.07	3041.23
606.26	3311.57
606.45	3387.34
606.64	3137.49
606.84	2979.79
607.03	3235.79
607.22	3532.75
607.41	3127.25
607.60	3065.81
607.80	3514.31
607.99	3272.65
608.18	3069.91
608.37	3114.96
608.56	3235.79
608.76	3563.47
608.95	3213.26
609.14	3133.39
609.33	3536.84
609.52	3583.95
609.72	3340.24
609.91	3209.17
610.10	3315.66
610.29	3608.52
610.48	3186.64
610.68	3198.93
610.87	3203.02
611.06	3366.86
611.25	3088.34
611.44	3203.02
611.63	3166.16
611.83	3499.98
612.02	3080.14
612.21	3117.01
612.40	2985.94
612.59	3049.43
612.79	2951.12
612.98	3133.39
613.17	3649.48
613.36	3307.47
613.55	3246.03
613.74	3172.30
613.93	3344.33
614.13	3411.92
614.32	3241.93
614.51	3170.26
614.70	3299.28
614.89	3186.64
615.08	3186.64
615.28	3479.50
615.47	3063.76
615.66	3325.90
615.85	3151.82
616.04	3143.63
616.23	3274.70
616.42	3209.17
616.62	3147.73
616.81	3088.34
617.00	3305.42
617.19	3373.00
617.38	3090.38
617.57	3213.26
617.76	3475.40
617.95	3442.64
618.15	3104.72
618.34	3276.75
618.53	3051.47
618.72	3475.40
618.91	3145.68
619.10	3172.30
619.29	3231.69
619.48	3348.43
619.68	2953.17
619.87	3008.47
620.06	3039.19
620.25	3340.24
620.44	3059.67
620.63	2969.55
620.82	3305.42
621.01	3291.09
621.20	3030.99
621.39	3112.91
621.59	3368.91
621.78	3235.79
621.97	3096.53
622.16	3260.37
622.35	3303.37
622.54	3422.16
622.73	3123.15
622.92	2820.05
623.11	3483.59
623.30	3200.98
623.49	3258.32
623.68	2951.12
623.88	3581.90
624.07	3180.50
624.26	2914.26
624.45	3098.58
624.64	3262.41
624.83	3323.85
625.02	3110.86
625.21	3053.52
625.40	3360.72
625.59	3577.80
625.78	3174.35
625.97	3252.17
626.16	3530.70
626.35	3483.59
626.54	3141.58
626.74	3303.37
626.93	3248.08
627.12	3270.61
627.31	3114.96
627.50	3108.82
627.69	3555.27
627.88	3164.11
628.07	3078.10
628.26	2990.03
628.45	3145.68
628.64	3084.24
628.83	3059.67
629.02	2865.11
629.21	3438.54
629.40	3305.42
629.59	2971.60
629.78	3000.27
629.97	3319.76
630.16	3231.69
630.35	3018.71
630.54	3129.30
630.73	3172.30
630.92	3338.19
631.11	2951.12
631.30	3098.58
631.49	3448.78
631.68	3274.70
631.87	3094.48
632.06	2959.31
632.25	3741.64
632.44	3272.65
632.63	3114.96
632.82	3098.58
633.01	3217.36
633.20	3319.76
633.39	3065.81
633.58	2934.74
633.77	3397.58
633.96	3395.53
634.15	3266.51
634.34	3176.40
634.53	3336.14
634.72	3180.50
634.91	3016.66
635.10	3012.56
635.29	3409.87
635.48	3330.00
635.67	2942.93
635.86	2867.16
636.05	3559.37
636.24	3303.37
636.43	2967.51
636.62	3213.26
636.81	2805.72
637.00	3327.95
637.19	3057.62
637.38	3147.73
637.57	3250.13
637.76	3289.04
637.95	3297.23
638.14	3293.13
638.33	3368.91
638.52	3319.76
638.71	2975.70
638.89	2990.03
639.08	3895.24
639.27	3553.23
639.46	3385.29
639.65	3651.53
639.84	3893.19
640.03	4081.60
640.22	3659.72
640.41	3536.84
640.60	3450.83
640.79	3575.75
640.98	3282.89
641.17	3303.37
641.36	3618.76
641.55	3413.96
641.74	2983.89
641.92	3018.71
642.11	3151.82
642.30	3313.61
642.49	3061.71
642.68	3074.00
642.87	3393.48
643.06	3344.33
643.25	3037.14
643.44	2934.74
643.63	3164.11
643.82	3383.24
644.00	3028.95
644.19	3106.77
644.38	3098.58
644.57	3387.34
644.76	3147.73
644.95	3162.06
645.14	3248.08
645.33	3203.02
645.52	3162.06
645.71	2936.79
645.89	3043.28
646.08	3340.24
646.27	3098.58
646.46	3295.18
646.65	3049.43
646.84	3397.58
647.03	3000.27
647.22	3217.36
647.40	3248.08
647.59	3246.03
647.78	2897.88
647.97	3053.52
648.16	3100.62
648.35	3563.47
648.54	3338.19
648.73	3164.11
648.91	3405.77
649.10	3262.41
649.29	3033.04
649.48	3014.61
649.67	3411.92
649.86	3381.20
650.05	3151.82
650.23	3254.22
650.42	3157.97
650.61	3551.18
650.80	3315.66
650.99	3286.99
651.18	3516.36
651.36	3585.99
651.55	3108.82
651.74	3243.98
651.93	3213.26
652.12	3231.69
652.31	3071.95
652.49	3051.47
652.68	3151.82
652.87	3540.94
653.06	3192.78
653.25	3375.05
653.44	3323.85
653.62	3672.01
653.81	3065.81
654.00	3057.62
654.19	3497.93
654.38	3794.89
654.56	3174.35
654.75	2983.89
654.94	3413.96
655.13	3299.28
655.32	3108.82
655.51	3123.15
655.69	3137.49
655.88	3452.88
656.07	2951.12
656.26	3069.91
656.45	3061.71
656.63	3309.52
656.82	3022.80
657.01	3383.24
657.20	3096.53
657.38	3557.32
657.57	3000.27
657.76	2918.36
657.95	3442.64
658.14	3106.77
658.32	3155.92
658.51	2932.69
658.70	3325.90
658.89	3286.99
659.08	3164.11
659.26	3307.47
659.45	3147.73
659.64	3325.90
659.83	3057.62
660.01	3512.27
660.20	3221.45
660.39	3592.14
660.58	2813.91
660.76	3106.77
660.95	2940.88
661.14	3250.13
661.33	2936.79
661.51	3114.96
661.70	3272.65
661.89	3352.52
662.08	3080.14
662.26	2957.27
662.45	3137.49
662.64	3610.57
662.83	3155.92
663.01	2955.22
663.20	3155.92
663.39	3590.09
663.58	3084.24
663.76	3061.71
663.95	3286.99
664.14	3041.23
664.32	3176.40
664.51	3010.51
664.70	2924.50
664.89	3293.13
665.07	2979.79
665.26	3182.54
665.45	3049.43
665.64	3377.10
665.82	3006.42
666.01	3178.45
666.20	2987.99
666.38	3442.64
666.57	3456.97
666.76	5654.44
666.95	13248.31
667.13	20600.52
667.32	25226.88
667.51	28477.01
667.69	29396.54
667.88	24346.25
668.07	17766.13
668.25	15128.35
668.44	12988.22
668.63	11179.86
668.81	9674.60
669.00	8499.07
669.19	7851.91
669.38	6784.92
669.56	5805.99
669.75	5027.76
669.94	4392.89
670.12	3815.37
670.31	3485.64
670.50	3432.40
670.68	3612.62
670.87	3442.64
671.06	3069.91
671.24	3127.25
671.43	3618.76
671.62	3356.62
671.80	3133.39
671.99	3080.14
672.18	3315.66
672.36	3409.87
672.55	3321.81
672.74	3172.30
672.92	3192.78
673.11	3373.00
673.29	2922.45
673.48	3280.85
673.67	3225.55
673.85	3520.46
674.04	2959.31
674.23	3155.92
674.41	3684.30
674.60	3004.37
674.79	2881.49
674.97	3020.75
675.16	3401.68
675.34	3516.36
675.53	3051.47
675.72	3080.14
675.90	3610.57
676.09	3151.82
676.28	3092.43
676.46	2967.51
676.65	3520.46
676.83	3100.62
677.02	3090.38
677.21	3147.73
677.39	3291.09
677.58	3188.69
677.77	3110.86
677.95	3078.10
678.14	3186.64
678.32	3276.75
678.51	3074.00
678.70	3518.41
678.88	3225.55
679.07	3276.75
679.25	3108.82
679.44	3149.78
679.63	3053.52
679.81	3291.09
680.00	3276.75
680.18	3137.49
680.37	3614.66
680.55	3297.23
680.74	2979.79
680.93	2861.01
681.11	3344.33
681.30	3336.14
681.48	3055.57
681.67	3014.61
681.85	3264.46
682.04	3045.33
682.23	3229.65
682.41	3213.26
682.60	3207.12
682.78	3315.66
682.97	3041.23
683.15	3137.49
683.34	3282.89
683.53	3551.18
683.71	2848.72
683.90	3145.68
684.08	3626.95
684.27	3289.04
684.45	3112.91
684.64	3274.70
684.82	3268.56
685.01	3454.92
685.19	2998.23
685.38	3397.58
685.57	3278.80
685.75	3137.49
685.94	3014.61
686.12	2981.84
686.31	3117.01
686.49	3596.23
686.68	2877.40
686.86	3059.67
687.05	3266.51
687.23	3626.95
687.42	3104.72
687.60	2889.68
687.79	3481.55
687.97	3497.93
688.16	3131.34
688.34	3332.05
688.53	2992.08
688.71	3362.76
688.90	3385.29
689.08	3155.92
689.27	2975.70
689.45	3428.30
689.64	3342.28
689.82	3137.49
690.01	3332.05
690.19	3311.57
690.38	3112.91
690.56	3182.54
690.75	3053.52
690.93	3149.78
691.12	3069.91
691.30	3180.50
691.49	3080.14
691.67	3241.93
691.86	3368.91
692.04	3110.86
692.23	3172.30
692.41	3270.61
692.60	3403.72
692.78	3250.13
692.97	3295.18
693.15	3360.72
693.34	3260.37
693.52	3327.95
693.71	3196.88
693.89	3131.34
694.08	2955.22
694.26	3065.81
694.44	3485.64
694.63	3368.91
694.81	3059.67
695.00	3092.43
695.18	3485.64
695.37	3727.30
695.55	3205.07
695.74	3168.21
695.92	3184.59
696.10	3571.66
696.29	2965.46
696.47	3139.54
696.66	3102.67
696.84	3133.39
697.03	3209.17
697.21	3370.96
697.40	4620.22
697.58	3516.36
697.76	3033.04
697.95	3100.62
698.13	3026.90
698.32	3067.86
698.50	3104.72
698.68	3117.01
698.87	3381.20
699.05	3594.19
699.24	3061.71
699.42	3008.47
699.61	3309.52
699.79	3301.33
699.97	3209.17
700.16	2901.97
700.34	2961.36
700.53	3334.09
700.71	3334.09
700.89	3180.50
701.08	3127.25
701.26	3317.71
701.45	3405.77
701.63	3057.62
701.81	3223.50
702.00	3104.72
702.18	3246.03
702.37	3047.38
702.55	3446.73
702.73	3313.61
702.92	3233.74
703.10	3401.68
703.28	3497.93
703.47	3090.38
703.65	3387.34
703.84	3262.41
704.02	3108.82
704.20	3641.29
704.39	3016.66
704.57	3131.34
704.75	3436.49
704.94	3424.20
705.12	3188.69
705.30	3968.96
705.49	8660.86
705.67	17342.20
705.86	24116.88
706.04	27600.47
706.22	30471.73
706.41	29048.39
706.59	21710.52
706.77	17043.20
706.96	14542.63
707.14	13309.75
707.32	11347.79
707.51	10012.52
707.69	8216.45
707.87	6772.63
708.06	5332.91
708.24	4587.45
708.42	4138.94
708.61	4161.47
708.79	3231.69
708.97	3342.28
709.16	3442.64
709.34	3307.47
709.52	3125.20
709.71	3248.08
709.89	3469.26
710.07	3086.29
710.26	3008.47
710.44	3082.19
710.62	3547.08
710.80	3221.45
710.99	3252.17
711.17	3254.22
711.35	3162.06
711.54	3151.82
711.72	3256.27
711.90	3147.73
712.09	3377.10
712.27	3266.51
712.45	3209.17
712.63	3043.28
712.82	3424.20
713.00	3291.09
713.18	3282.89
713.37	3260.37
713.55	3354.57
713.73	3424.20
713.91	3182.54
714.10	3098.58
714.28	3299.28
714.46	3289.04
714.65	3229.65
714.83	3166.16
715.01	3338.19
715.19	3311.57
715.38	3028.95
715.56	3295.18
715.74	3176.40
715.92	3086.29
716.11	3440.59
716.29	2858.96
716.47	3227.60
716.65	3264.46
716.84	2934.74
717.02	3155.92
717.20	2889.68
717.38	3123.15
717.57	3184.59
717.75	3135.44
717.93	3162.06
718.11	3416.01
718.30	2934.74
718.48	3190.74
718.66	3555.27
718.84	3477.45
719.03	3123.15
719.21	2981.84
719.39	3588.04
719.57	3418.06
719.75	3170.26
719.94	3049.43
720.12	3170.26
720.30	3379.15
720.48	3209.17
720.67	3035.09
720.85	3096.53
721.03	3119.06
721.21	3094.48
721.39	3198.93
721.58	3454.92
721.76	3229.65
721.94	3098.58
722.12	3246.03
722.30	3577.80
722.49	3180.50
722.67	3108.82
722.85	3133.39
723.03	2914.26
723.21	3225.55
723.40	3180.50
723.58	3286.99
723.76	3418.06
723.94	3502.03
724.12	3203.02
724.30	3340.24
724.49	3444.68
724.67	3098.58
724.85	3262.41
725.03	2934.74
725.21	3426.25
725.40	3411.92
725.58	3149.78
725.76	3243.98
725.94	3377.10
726.12	3084.24
726.30	3174.35
726.49	3106.77
726.67	3125.20
726.85	3377.10
727.03	4016.07
727.21	5601.19
727.39	7274.38
727.57	7933.83
727.76	8368.00
727.94	8441.73
728.12	7274.38
728.30	6021.03
728.48	5605.29
728.66	5187.50
728.84	4892.60
729.03	4165.57
729.21	3870.66
729.39	3639.24
729.57	3422.16
729.75	3373.00
729.93	3346.38
730.11	3045.33
730.30	3211.22
730.48	3309.52
730.66	3131.34
730.84	3129.30
731.02	3280.85
731.20	3110.86
731.38	3145.68
731.56	3012.56
731.74	2994.13
731.93	3299.28
732.11	3233.74
732.29	3090.38
732.47	3411.92
732.65	3266.51
732.83	3248.08
733.01	3248.08
733.19	3243.98
733.37	3401.68
733.56	3114.96
733.74	3078.10
733.92	3579.85
734.10	3166.16
734.28	3293.13
734.46	2910.16
734.64	3082.19
734.82	3157.97
735.00	3119.06
735.18	3016.66
735.36	3248.08
735.54	3239.89
735.73	3059.67
735.91	3141.58
736.09	3602.38
736.27	3274.70
736.45	3213.26
736.63	2813.91
736.81	3176.40
736.99	3467.21
737.17	3311.57
737.35	2994.13
737.53	3301.33
737.71	3352.52
737.89	3276.75
738.07	3037.14
738.25	3102.67
738.43	2975.70
738.61	3137.49
738.80	2961.36
738.98	3131.34
739.16	3166.16
739.34	3014.61
739.52	3395.53
739.70	3221.45
739.88	3442.64
740.06	3219.41
740.24	2779.09
740.42	3516.36
740.60	2854.87
740.78	3026.90
740.96	2906.07
741.14	3258.32
741.32	3301.33
741.50	2914.26
741.68	3385.29
741.86	3577.80
742.04	3053.52
742.22	3008.47
742.40	3043.28
742.58	3364.81
742.76	3119.06
742.94	3303.37
743.12	2912.21
743.30	3311.57
743.48	3362.76
743.66	2953.17
743.84	3205.07
744.02	3225.55
744.20	3289.04
744.38	2918.36
744.56	2994.13
744.74	3647.43
744.92	3426.25
745.10	3305.42
745.28	3137.49
745.46	3635.14
745.64	3174.35
745.82	3176.40
746.00	3082.19
746.18	3352.52
746.36	3090.38
746.54	3098.58
746.72	3057.62
746.90	3145.68
747.08	3551.18
747.26	3110.86
747.44	3237.84
747.62	3395.53
747.80	3323.85
747.98	3110.86
748.15	3084.24
748.33	3647.43
748.51	3305.42
748.69	3162.06
748.87	3014.61
749.05	3243.98
749.23	3186.64
749.41	3026.90
749.59	2987.99
749.77	3463.12
749.95	3119.06
750.13	3014.61
750.31	3254.22
750.49	3209.17
750.67	3489.74
750.85	3264.46
751.03	3119.06
751.20	3633.10
751.38	3270.61
751.56	3024.85
751.74	3129.30
751.92	3186.64
752.10	3063.76
752.28	3262.41
752.46	3028.95
752.64	3332.05
752.82	3192.78
753.00	3084.24
753.18	3129.30
753.35	3239.89
753.53	3225.55
753.71	3004.37
753.89	3237.84
754.07	3393.48
754.25	3409.87
754.43	3164.11
754.61	2967.51
754.79	3444.68
754.97	3286.99
755.14	3266.51
755.32	3016.66
755.50	3397.58
755.68	3291.09
755.86	2951.12
756.04	3010.51
756.22	2842.58
756.40	3418.06
756.57	3278.80
756.75	3055.57
756.93	3520.46
757.11	3510.22
757.29	3033.04
757.47	3045.33
757.65	2947.03
757.82	2844.63
758.00	3004.37
758.18	2959.31
758.36	3082.19
758.54	3542.99
758.72	2865.11
758.90	3203.02
759.07	3401.68
759.25	3082.19
759.43	3209.17
759.61	2944.98
759.79	4474.81
759.97	3549.13
760.15	3100.62
760.32	3106.77
760.50	3321.81
760.68	3651.53
760.86	2873.30
761.04	3381.20
761.22	3426.25
761.39	3317.71
761.57	3243.98
761.75	2998.23
761.93	3430.35
762.11	3229.65
762.28	3241.93
762.46	2975.70
762.64	3512.27
762.82	3028.95
763.00	2965.46
763.18	3229.65
763.35	3037.14
763.53	3377.10
763.71	3110.86
763.89	3000.27
764.07	3330.00
764.24	3321.81
764.42	3176.40
764.60	3108.82
764.78	3344.33
764.96	3452.88
765.13	3241.93
765.31	2983.89
765.49	3368.91
765.67	3043.28
765.84	3039.19
766.02	2944.98
766.20	3020.75
766.38	3291.09
766.56	3164.11
766.73	3182.54
766.91	3227.60
767.09	3301.33
767.27	3205.07
767.44	3045.33
767.62	3379.15
767.80	3373.00
767.98	3084.24
768.15	3094.48
768.33	3446.73
768.51	3413.96
768.69	3323.85
768.87	3092.43
769.04	3295.18
769.22	3737.54
769.40	3221.45
769.58	3176.40
769.75	3370.96
769.93	3475.40
770.11	3131.34
770.28	3024.85
770.46	3434.44
770.64	3303.37
770.82	3110.86
770.99	2987.99
771.17	3358.67
771.35	3131.34
771.53	3125.20
771.70	3026.90
771.88	3348.43
772.06	3301.33
772.23	3041.23
772.41	3110.86
772.59	3237.84
772.77	3127.25
772.94	3082.19
773.12	3168.21
773.30	3221.45
773.47	3284.94
773.65	2928.60
773.83	3196.88
774.01	3200.98
774.18	2910.16
774.36	3082.19
774.54	2973.65
774.71	3352.52
774.89	3018.71
775.07	2996.18
775.24	3057.62
775.42	3139.54
775.60	3590.09
775.78	2973.65
775.95	2959.31
776.13	3012.56
776.31	2912.21
776.48	3276.75
776.66	3289.04
776.84	3168.21
777.01	3133.39
777.19	2985.94
777.37	3041.23
777.54	3502.03
777.72	3637.19
777.90	3170.26
778.07	3024.85
778.25	3991.49
778.43	3504.07
778.60	3053.52
778.78	3203.02
778.96	3549.13
779.13	3063.76
779.31	3196.88
779.49	3100.62
779.66	3323.85
779.84	3250.13
780.01	2992.08
780.19	2969.55
780.37	3583.95
780.54	3358.67
780.72	2934.74
780.90	3082.19
781.07	3215.31
781.25	3135.44
781.43	3205.07
781.60	2992.08
781.78	3493.83
781.95	3395.53
782.13	3028.95
782.31	3110.86
782.48	2889.68
782.66	3256.27
782.83	3321.81
783.01	3207.12
783.19	3340.24
783.36	3211.22
783.54	3028.95
783.72	3162.06
783.89	3182.54
784.07	3243.98
784.24	3194.83
784.42	3217.36
784.60	3295.18
784.77	3280.85
784.95	2852.82
785.12	2979.79
785.30	3299.28
785.47	3098.58
785.65	2910.16
785.83	3151.82
786.00	3203.02
786.18	3241.93
786.35	3026.90
786.53	3067.86
786.71	3565.51
786.88	3411.92
787.06	3188.69
787.23	3123.15
787.41	3033.04
787.58	3262.41
787.76	3022.80
787.94	3119.06
788.11	3286.99
788.29	3086.29
788.46	3133.39
788.64	2936.79
788.81	3203.02
788.99	3119.06
789.16	3067.86
789.34	2963.41
789.52	3172.30
789.69	3190.74
789.87	2897.88
790.04	3024.85
790.22	3299.28
790.39	3647.43
790.57	2951.12
790.74	2947.03
790.92	3440.59
791.09	2944.98
791.27	3155.92
791.44	3123.15
791.62	3246.03
791.79	3442.64
791.97	3180.50
792.15	3483.59
792.32	3426.25
792.50	3469.26
792.67	3334.09
792.85	3459.02
793.02	3289.04
793.20	3190.74
793.37	2944.98
793.55	2990.03
793.72	3061.71
793.90	3397.58
794.07	2987.99
794.25	3082.19
794.42	3325.90
794.60	3194.83
794.77	3164.11
794.95	3217.36
795.12	3467.21
795.30	3258.32
795.47	2887.64
795.65	3375.05
795.82	3264.46
796.00	3119.06
796.17	3041.23
796.34	3043.28
796.52	3330.00
796.69	3430.35
796.87	3219.41
797.04	3278.80
797.22	3442.64
797.39	3303.37
797.57	3231.69
797.74	3209.17
797.92	3354.57
798.09	3147.73
798.27	3479.50
798.44	3049.43
798.62	3196.88
798.79	3233.74
798.96	3227.60
799.14	3155.92
799.31	3737.54
799.49	3246.03
799.66	3045.33
799.84	3061.71
800.01	3010.51
800.19	3375.05
800.36	2873.30
800.53	3067.86
800.71	3307.47
800.88	3641.29
801.06	3016.66
801.23	3047.38
801.41	3239.89
801.58	3293.13
801.75	3067.86
801.93	3174.35
802.10	3403.72
802.28	3254.22
802.45	3117.01
802.63	3164.11
802.80	3669.96
802.97	3155.92
803.15	3090.38
803.32	3059.67
803.50	3153.87
803.67	3149.78
803.84	3018.71
804.02	3102.67
804.19	3241.93
804.37	2863.06
804.54	2885.59
804.71	3067.86
804.89	3198.93
805.06	3133.39
805.24	3049.43
805.41	2910.16
805.58	3180.50
805.76	3768.26
805.93	3049.43
806.10	3129.30
806.28	3397.58
806.45	3354.57
806.63	3250.13
806.80	3145.68
806.97	3282.89
807.15	3266.51
807.32	3098.58
807.49	3098.58
807.67	2979.79
807.84	3268.56
808.01	2861.01
808.19	3237.84
808.36	3631.05
808.54	3225.55
808.71	2998.23
808.88	3059.67
809.06	3477.45
809.23	3477.45
809.40	3094.48
809.58	3076.05
809.75	3190.74
809.92	3086.29
810.10	3286.99
810.27	3041.23
810.44	3336.14
810.62	3442.64
810.79	3141.58
810.96	3139.54
811.14	3139.54
811.31	3430.35
811.48	3225.55
811.66	3141.58
811.83	3495.88
812.00	3504.07
812.18	3153.87
812.35	3358.67
812.52	3194.83
812.69	3207.12
812.87	3053.52
813.04	3041.23
813.21	3241.93
813.39	3084.24
813.56	3030.99
813.73	3311.57
813.91	3008.47
814.08	3362.76
814.25	3110.86
814.42	2797.53
814.60	3168.21
814.77	3229.65
814.94	3080.14
815.12	3155.92
815.29	3614.66
815.46	3180.50
815.63	3084.24
815.81	3086.29
815.98	3203.02
816.15	3180.50
816.33	3090.38
816.50	3088.34
816.67	3231.69
816.84	3258.32
817.02	2987.99
817.19	3049.43
817.36	3334.09
817.53	3317.71
817.71	2965.46
817.88	3071.95
818.05	3225.55
818.22	3186.64
818.40	3280.85
818.57	3067.86
818.74	3311.57
818.91	3370.96
819.09	3209.17
819.26	3147.73
819.43	3092.43
819.60	3080.14
819.78	3266.51
819.95	3102.67
820.12	3078.10
820.29	3557.32
820.47	3399.63
820.64	3055.57
820.81	3047.38
820.98	3094.48
821.15	2994.13
821.33	3209.17
821.50	2951.12
821.67	3399.63
821.84	3090.38
822.02	3020.75
822.19	3407.82
822.36	3155.92
822.53	2979.79
822.70	3000.27
822.88	3219.41
823.05	3534.79
823.22	3203.02
823.39	3119.06
823.56	3262.41
823.74	3594.19
823.91	2949.08
824.08	3026.90
824.25	3016.66
824.42	3596.23
824.60	2940.88
824.77	3149.78
824.94	3203.02
825.11	3342.28
825.28	2996.18
825.45	3297.23
825.63	3377.10
825.80	3059.67
825.97	3168.21
826.14	3147.73
826.31	2938.84
826.48	3434.44
826.66	3110.86
826.83	3024.85
827.00	3246.03
827.17	3114.96
827.34	3117.01
827.51	3000.27
827.69	3188.69
827.86	2928.60
828.03	3112.91
828.20	3053.52
828.37	3102.67
828.54	3344.33
828.71	2994.13
828.89	3119.06
829.06	3282.89
829.23	3510.22
829.40	3051.47
829.57	3059.67
829.74	3428.30
829.91	3147.73
830.09	3024.85
830.26	3178.45
830.43	3583.95
830.60	3276.75
830.77	3164.11
830.94	3278.80
831.11	3409.87
831.28	3080.14
831.46	3166.16
831.63	3035.09
831.80	3418.06
831.97	3065.81
832.14	3117.01
832.31	3117.01
832.48	3278.80
832.65	3508.17
832.82	3262.41
832.99	3155.92
833.17	3028.95
833.34	3579.85
833.51	3076.05
833.68	2854.87
833.85	3516.36
834.02	3041.23
834.19	3030.99
834.36	3139.54
834.53	3270.61
834.70	3450.83
834.87	3057.62
835.04	2891.73
835.22	3039.19
835.39	3198.93
835.56	2846.68
835.73	2918.36
835.90	3424.20
836.07	3059.67
836.24	3076.05
836.41	2918.36
836.58	3084.24
836.75	3385.29
836.92	2887.64
837.09	2871.25
837.26	3495.88
837.43	3356.62
837.60	3057.62
837.77	2985.94
837.94	3403.72
838.12	3547.08
838.29	2885.59
838.46	2887.64
838.63	2996.18
838.80	3555.27
838.97	2891.73
839.14	2861.01
839.31	3272.65
839.48	3377.10
839.65	3028.95
839.82	3024.85
839.99	3262.41
840.16	3295.18
840.33	2893.78
840.50	2936.79
840.67	3121.10
840.84	2826.20
841.01	2840.53
841.18	2844.63
841.35	3211.22
841.52	3420.11
841.69	3248.08
841.86	2930.64
842.03	3299.28
842.20	3436.49
842.37	2832.34
842.54	2992.08
842.71	3268.56
842.88	2930.64
843.05	3014.61
843.22	2904.02
843.39	3426.25
843.56	3194.83
843.73	2893.78
843.90	2975.70
844.07	3254.22
844.24	3395.53
844.41	3008.47
844.58	2926.55
844.75	3315.66
844.92	3385.29
845.09	3012.56
845.26	2983.89
845.43	3375.05
845.60	3184.59
845.77	3057.62
845.94	3002.32
846.10	3340.24
846.27	2979.79
846.44	2861.01
846.61	2848.72
846.78	3411.92
846.95	3467.21
847.12	2865.11
847.29	2932.69
847.46	3151.82
847.63	3465.16
847.80	2861.01
847.97	2920.40
848.14	3743.69
848.31	3219.41
848.48	2775.00
848.65	2912.21
848.82	3131.34
848.98	3780.55
849.15	3063.76
849.32	3020.75
849.49	3467.21
849.66	3297.23
849.83	2901.97
850.00	2926.55
850.17	3461.07
850.34	3147.73
850.51	2897.88
850.68	2934.74
850.85	3737.54
851.01	3297.23
851.18	2863.06
851.35	2990.03
851.52	3352.52
851.69	3522.51
851.86	2838.48
852.03	2881.49
852.20	3418.06
852.37	3256.27
852.53	2811.86
852.70	2809.81
852.87	3338.19
853.04	3405.77
853.21	2881.49
853.38	3213.26
853.55	3499.98
853.72	3516.36
853.89	2795.48
854.05	2904.02
854.22	3223.50
854.39	3233.74
854.56	2865.11
854.73	3035.09
854.90	3129.30
855.07	3246.03
855.23	2850.77
855.40	2850.77
855.57	3180.50
855.74	2781.14
855.91	3172.30
856.08	2785.24
856.25	3006.42
856.41	3180.50
856.58	2875.35
856.75	2985.94
856.92	3014.61
857.09	3512.27
857.26	2688.98
857.42	2914.26
857.59	3393.48
857.76	3217.36
857.93	2893.78
858.10	2996.18
858.27	3065.81
858.43	3268.56
858.60	2906.07
858.77	2877.40
858.94	3200.98
859.11	3532.75
859.27	3014.61
859.44	2779.09
859.61	3719.11
859.78	3440.59
859.95	2918.36
860.12	2854.87
860.28	3721.16
860.45	3698.63
860.62	2936.79
860.79	3065.81
860.95	3123.15
861.12	3129.30
861.29	2850.77
861.46	2951.12
861.63	3213.26
861.79	3303.37
861.96	2787.29
862.13	2897.88
862.30	3493.83
862.47	3051.47
862.63	2799.57
862.80	2969.55
862.97	3399.63
863.14	3262.41
863.30	2938.84
863.47	2781.14
863.64	3573.71
863.81	3233.74
863.97	2764.76
864.14	2940.88
864.31	3219.41
864.48	3321.81
864.65	2836.44
864.81	3043.28
864.98	3409.87
865.15	3426.25
865.32	2987.99
865.48	3045.33
865.65	3624.90
865.82	3166.16
865.98	2994.13
866.15	2977.75
866.32	3237.84
866.49	3088.34
866.65	3139.54
866.82	2992.08
866.99	3219.41
867.16	3221.45
867.32	2908.12
867.49	2793.43
867.66	3286.99
867.83	3123.15
867.99	2815.96
868.16	2934.74
868.33	3004.37
868.49	3254.22
868.66	2987.99
868.83	3024.85
868.99	3266.51
869.16	3301.33
869.33	3133.39
869.50	2969.55
869.66	3241.93
869.83	3215.31
870.00	2889.68
870.16	2944.98
870.33	3276.75
870.50	3405.77
870.66	3000.27
870.83	3020.75
871.00	3305.42
871.17	3313.61
871.33	2924.50
871.50	2840.53
871.67	3297.23
871.83	3198.93
872.00	2985.94
872.17	2908.12
872.33	3618.76
872.50	3491.79
872.67	2875.35
872.83	2828.24
873.00	3313.61
873.17	3262.41
873.33	2969.55
873.50	2957.27
873.67	3098.58
873.83	3160.02
874.00	2994.13
874.16	3108.82
874.33	3233.74
874.50	3033.04
874.66	2844.63
874.83	3016.66
875.00	3499.98
875.16	3524.55
875.33	2955.22
875.50	2643.93
875.66	3106.77
875.83	3237.84
875.99	2957.27
876.16	3016.66
876.33	3041.23
876.49	3248.08
876.66	2930.64
876.83	3041.23
876.99	3018.71
877.16	3149.78
877.32	2889.68
877.49	2957.27
877.66	3370.96
877.82	3502.03
877.99	3057.62
878.15	3243.98
878.32	3305.42
878.49	3256.27
878.65	3035.09
878.82	3246.03
878.98	3160.02
879.15	3469.26
879.32	3205.07
879.48	3178.45
879.65	3166.16
879.81	3227.60
879.98	2955.22
880.15	3033.04
880.31	3489.74
880.48	3035.09
880.64	3033.04
880.81	3102.67
880.97	3604.42
881.14	3520.46
881.31	2947.03
881.47	3182.54
881.64	3133.39
881.80	2961.36
881.97	3076.05
882.13	2977.75
882.30	3086.29
882.47	3170.26
882.63	2924.50
882.80	2932.69
882.96	3280.85
883.13	3432.40
883.29	2940.88
883.46	2947.03
883.62	3700.68
883.79	3254.22
883.95	3041.23
884.12	2830.29
884.29	3405.77
884.45	3237.84
884.62	2934.74
884.78	2873.30
884.95	3606.47
885.11	3061.71
885.28	3028.95
885.44	3022.80
885.61	3465.16
885.77	3532.75
885.94	3100.62
886.10	2981.84
886.27	3332.05
886.43	3643.34
886.60	3192.78
886.76	2949.08
886.93	3094.48
887.09	3303.37
887.26	2834.39
887.42	2990.03
887.59	3446.73
887.75	3682.25
887.92	3174.35
888.08	3024.85
888.25	3688.39
888.41	3487.69
888.58	2990.03
888.74	2875.35
888.91	3217.36
>>>>>End Processed Spectral Data<<<<<
