SpectraSuite Data File
++++++++++++++++++++++++++++++++++++
Date: Fri May 06 08:13:46 CEST 2016
User: root
Dark Spectrum Present: No
Reference Spectrum Present: No
Number of Sampled Component Spectra: 1
Spectrometers: USB4C02835
Integration Time (usec): 100000 (USB4C02835)
Spectra Averaged: 1 (USB4C02835)
Boxcar Smoothing: 0 (USB4C02835)
Correct for Electrical Dark: No (USB4C02835)
Strobe/Lamp Enabled: No (USB4C02835)
Correct for Detector Non-linearity: No (USB4C02835)
Correct for Stray Light: No (USB4C02835)
Number of Pixels in Processed Spectrum: 3648
>>>>>Begin Processed Spectral Data<<<<<
177.47	2312.16
177.69	2312.16
177.91	2312.16
178.13	2285.53
178.36	2244.57
178.58	2983.89
178.80	3131.34
179.02	2975.70
179.24	3041.23
179.46	2709.46
179.68	2869.20
179.90	3147.73
180.13	3303.37
180.35	2688.98
180.57	2770.90
180.79	3405.77
181.01	3268.56
181.23	2881.49
181.45	2987.99
181.67	3518.41
181.90	3401.68
182.12	2904.02
182.34	2680.79
182.56	3432.40
182.78	3393.48
183.00	2770.90
183.22	2795.48
183.44	2826.20
183.66	3930.05
183.89	2944.98
184.11	2883.54
184.33	3456.97
184.55	3602.38
184.77	2787.29
184.99	2828.24
185.21	3225.55
185.43	3751.88
185.65	2820.05
185.87	2897.88
186.10	3751.88
186.32	3755.97
186.54	2998.23
186.76	2895.83
186.98	3547.08
187.20	3305.42
187.42	2879.44
187.64	2906.07
187.86	3377.10
188.08	3483.59
188.30	2799.57
188.52	2914.26
188.75	3545.03
188.97	3567.56
189.19	2844.63
189.41	2863.06
189.63	3364.81
189.85	3241.93
190.07	2785.24
190.29	2744.28
190.51	3262.41
190.73	2975.70
190.95	3098.58
191.17	2887.64
191.39	2889.68
191.61	3151.82
191.84	2863.06
192.06	2967.51
192.28	3018.71
192.50	4040.64
192.72	2975.70
192.94	2918.36
193.16	3526.60
193.38	3354.57
193.60	2805.72
193.82	3041.23
194.04	3624.90
194.26	3325.90
194.48	2901.97
194.70	2842.58
194.92	3194.83
195.14	3452.88
195.36	2834.39
195.58	2936.79
195.80	3274.70
196.02	3102.67
196.24	2813.91
196.46	2942.93
196.69	3211.22
196.91	3782.60
197.13	2834.39
197.35	2881.49
197.57	3608.52
197.79	3436.49
198.01	2953.17
198.23	2871.25
198.45	3418.06
198.67	3084.24
198.89	2795.48
199.11	2928.60
199.33	3131.34
199.55	2899.92
199.77	2801.62
199.99	3047.38
200.21	3237.84
200.43	3393.48
200.65	2756.57
200.87	2709.46
201.09	3327.95
201.31	3260.37
201.53	2942.93
201.75	2912.21
201.97	3325.90
202.19	3246.03
202.41	2955.22
202.63	2949.08
202.85	3428.30
203.07	3301.33
203.29	2944.98
203.51	2766.81
203.73	3143.63
203.95	3833.80
204.17	2883.54
204.39	3033.04
204.61	3260.37
204.83	3172.30
205.05	3026.90
205.27	2885.59
205.49	3885.00
205.71	3295.18
205.93	2750.42
206.15	2781.14
206.37	3241.93
206.59	3319.76
206.81	2734.04
207.03	2699.22
207.25	3188.69
207.47	3393.48
207.69	2895.83
207.91	3094.48
208.13	3635.14
208.34	3114.96
208.56	2744.28
208.78	2865.11
209.00	3237.84
209.22	3272.65
209.44	2895.83
209.66	2873.30
209.88	3278.80
210.10	3286.99
210.32	2932.69
210.54	3033.04
210.76	3123.15
210.98	3504.07
211.20	2701.27
211.42	2983.89
211.64	3499.98
211.86	3434.44
212.08	2916.31
212.30	2965.46
212.52	3188.69
212.74	3375.05
212.96	2901.97
213.17	2869.20
213.39	3502.03
213.61	3663.82
213.83	2820.05
214.05	2736.09
214.27	3532.75
214.49	3094.48
214.71	2811.86
214.93	3024.85
215.15	3258.32
215.37	3534.79
215.59	2713.56
215.81	2871.25
216.03	3545.03
216.24	3221.45
216.46	2828.24
216.68	2926.55
216.90	3510.22
217.12	3430.35
217.34	2838.48
217.56	3131.34
217.78	3637.19
218.00	3401.68
218.22	3010.51
218.44	3000.27
218.66	3254.22
218.87	3665.86
219.09	2879.44
219.31	2838.48
219.53	3356.62
219.75	3246.03
219.97	2944.98
220.19	2877.40
220.41	3250.13
220.63	3581.90
220.85	2861.01
221.06	2846.68
221.28	3590.09
221.50	3377.10
221.72	2787.29
221.94	2680.79
222.16	3336.14
222.38	3485.64
222.60	2863.06
222.82	2928.60
223.03	3434.44
223.25	3121.10
223.47	2842.58
223.69	3084.24
223.91	3540.94
224.13	3346.38
224.35	2783.19
224.57	3026.90
224.78	3411.92
225.00	3033.04
225.22	2895.83
225.44	2783.19
225.66	3479.50
225.88	3139.54
226.10	2994.13
226.32	2934.74
226.53	3612.62
226.75	3225.55
226.97	2928.60
227.19	2881.49
227.41	3114.96
227.63	3184.59
227.85	2639.83
228.06	3000.27
228.28	3391.44
228.50	3481.55
228.72	2672.60
228.94	2772.95
229.16	2897.88
229.37	3119.06
229.59	2793.43
229.81	3110.86
230.03	3278.80
230.25	3018.71
230.47	2713.56
230.69	2824.15
230.90	3499.98
231.12	3125.20
231.34	2922.45
231.56	2947.03
231.78	3057.62
232.00	3289.04
232.21	2928.60
232.43	2861.01
232.65	2918.36
232.87	3311.57
233.09	2701.27
233.30	2844.63
233.52	3426.25
233.74	3246.03
233.96	2811.86
234.18	3080.14
234.40	3227.60
234.61	3690.44
234.83	2691.03
235.05	2850.77
235.27	3798.98
235.49	3489.74
235.70	2701.27
235.92	2875.35
236.14	3520.46
236.36	3827.65
236.58	2758.61
236.79	2961.36
237.01	3323.85
237.23	3327.95
237.45	3137.49
237.67	2830.29
237.88	3356.62
238.10	3596.23
238.32	2762.71
238.54	2883.54
238.76	3178.45
238.97	3094.48
239.19	2772.95
239.41	2875.35
239.63	3493.83
239.85	3104.72
240.06	2965.46
240.28	2924.50
240.50	3416.01
240.72	3291.09
240.93	2756.57
241.15	2944.98
241.37	3385.29
241.59	3522.51
241.81	2787.29
242.02	2947.03
242.24	3373.00
242.46	3405.77
242.68	2672.60
242.89	2783.19
243.11	3504.07
243.33	3327.95
243.55	2856.92
243.76	2918.36
243.98	3125.20
244.20	3280.85
244.42	2934.74
244.64	2830.29
244.85	3014.61
245.07	3067.86
245.29	2883.54
245.51	2852.82
245.72	3377.10
245.94	3475.40
246.16	2852.82
246.38	2908.12
246.59	3057.62
246.81	3092.43
247.03	2756.57
247.24	2748.37
247.46	3071.95
247.68	3276.75
247.90	2877.40
248.11	2836.44
248.33	3536.84
248.55	3334.09
248.77	2955.22
248.98	2961.36
249.20	3606.47
249.42	3317.71
249.64	2832.34
249.85	2856.92
250.07	3172.30
250.29	3438.54
250.50	2990.03
250.72	2807.77
250.94	3299.28
251.16	3753.93
251.37	2842.58
251.59	2938.84
251.81	3395.53
252.02	3594.19
252.24	2781.14
252.46	3004.37
252.68	3219.41
252.89	3065.81
253.11	2709.46
253.33	2975.70
253.54	3604.42
253.76	3094.48
253.98	2820.05
254.20	2828.24
254.41	3053.52
254.63	3284.94
254.85	2785.24
255.06	2965.46
255.28	3327.95
255.50	3280.85
255.71	2789.33
255.93	2715.61
256.15	3262.41
256.36	3368.91
256.58	2703.32
256.80	2772.95
257.02	3192.78
257.23	3188.69
257.45	2893.78
257.67	3049.43
257.88	3192.78
258.10	3360.72
258.32	2934.74
258.53	2940.88
258.75	3669.96
258.97	3123.15
259.18	2783.19
259.40	2828.24
259.62	3616.71
259.83	3598.28
260.05	2834.39
260.27	3788.74
260.48	3495.88
260.70	3082.19
260.92	2721.75
261.13	2961.36
261.35	3354.57
261.57	3432.40
261.78	2838.48
262.00	2760.66
262.22	3452.88
262.43	3067.86
262.65	2926.55
262.86	2908.12
263.08	3813.32
263.30	3405.77
263.51	2643.93
263.73	2746.33
263.95	3629.00
264.16	3168.21
264.38	2746.33
264.60	2854.87
264.81	3174.35
265.03	3520.46
265.25	3319.76
265.46	2807.77
265.68	3559.37
265.89	3379.15
266.11	2811.86
266.33	2822.10
266.54	3506.12
266.76	3338.19
266.98	3043.28
267.19	3026.90
267.41	3481.55
267.62	3211.22
267.84	2729.94
268.06	2992.08
268.27	3303.37
268.49	3549.13
268.70	2936.79
268.92	2893.78
269.14	3129.30
269.35	3055.57
269.57	3010.51
269.79	2914.26
270.00	3254.22
270.22	3706.82
270.43	2740.18
270.65	2738.13
270.87	3268.56
271.08	3499.98
271.30	2854.87
271.51	2846.68
271.73	3444.68
271.95	3588.04
272.16	2881.49
272.38	2969.55
272.59	3205.07
272.81	3340.24
273.02	2787.29
273.24	2934.74
273.46	3559.37
273.67	2975.70
273.89	2664.41
274.10	2779.09
274.32	3489.74
274.54	3258.32
274.75	2938.84
274.97	3008.47
275.18	3418.06
275.40	3379.15
275.61	2877.40
275.83	3080.14
276.05	3108.82
276.26	3196.88
276.48	2963.41
276.69	3041.23
276.91	3125.20
277.12	3622.86
277.34	3008.47
277.55	3149.78
277.77	3280.85
277.99	3260.37
278.20	2983.89
278.42	2969.55
278.63	3166.16
278.85	3049.43
279.06	2906.07
279.28	3125.20
279.49	3508.17
279.71	3499.98
279.93	3063.76
280.14	3057.62
280.36	3074.00
280.57	3532.75
280.79	3039.19
281.00	2885.59
281.22	3143.63
281.43	3479.50
281.65	2813.91
281.86	2869.20
282.08	3358.67
282.29	3792.84
282.51	2846.68
282.73	2887.64
282.94	2973.65
283.16	3442.64
283.37	3059.67
283.59	3078.10
283.80	3389.39
284.02	3235.79
284.23	3018.71
284.45	3026.90
284.66	3104.72
284.88	3139.54
285.09	2881.49
285.31	3082.19
285.52	3352.52
285.74	3043.28
285.95	3213.26
286.17	3061.71
286.38	3622.86
286.60	3145.68
286.81	3004.37
287.03	3008.47
287.24	3282.89
287.46	3428.30
287.67	3137.49
287.89	3250.13
288.10	3309.52
288.32	3377.10
288.53	3137.49
288.75	3016.66
288.96	3465.16
289.18	3162.06
289.39	2869.20
289.61	3153.87
289.82	3688.39
290.04	3721.16
290.25	2852.82
290.47	3102.67
290.68	3264.46
290.90	3491.79
291.11	2750.42
291.33	3108.82
291.54	3172.30
291.76	3082.19
291.97	3028.95
292.18	3102.67
292.40	3141.58
292.61	3217.36
292.83	3336.14
293.04	3049.43
293.26	3307.47
293.47	3174.35
293.69	2883.54
293.90	2932.69
294.12	3557.32
294.33	3303.37
294.55	3090.38
294.76	3110.86
294.97	3547.08
295.19	3690.44
295.40	2981.84
295.62	3024.85
295.83	3483.59
296.05	3127.25
296.26	3223.50
296.48	2992.08
296.69	3270.61
296.90	3266.51
297.12	3117.01
297.33	3090.38
297.55	3295.18
297.76	3295.18
297.98	3127.25
298.19	3170.26
298.41	3274.70
298.62	3108.82
298.83	3225.55
299.05	3067.86
299.26	3215.31
299.48	3117.01
299.69	3061.71
299.90	3020.75
300.12	3014.61
300.33	3420.11
300.55	2983.89
300.76	3061.71
300.98	3037.14
301.19	3456.97
301.40	2969.55
301.62	2942.93
301.83	3416.01
302.05	3336.14
302.26	3012.56
302.47	3055.57
302.69	3129.30
302.90	3284.94
303.12	2820.05
303.33	3086.29
303.54	3657.67
303.76	3186.64
303.97	2965.46
304.19	3139.54
304.40	3016.66
304.61	3356.62
304.83	3151.82
305.04	3035.09
305.26	3461.07
305.47	3145.68
305.68	2996.18
305.90	2787.29
306.11	3557.32
306.33	3338.19
306.54	2934.74
306.75	2992.08
306.97	2973.65
307.18	3106.77
307.39	2998.23
307.61	3082.19
307.82	3264.46
308.04	3391.44
308.25	2869.20
308.46	3125.20
308.68	3352.52
308.89	3278.80
309.10	3123.15
309.32	3043.28
309.53	3297.23
309.74	3413.96
309.96	2889.68
310.17	3117.01
310.39	3178.45
310.60	3426.25
310.81	3061.71
311.03	2971.60
311.24	3487.69
311.45	3225.55
311.67	3237.84
311.88	3151.82
312.09	3137.49
312.31	3127.25
312.52	2883.54
312.73	2994.13
312.95	3020.75
313.16	3102.67
313.37	3147.73
313.59	3221.45
313.80	3409.87
314.01	3555.27
314.23	3065.81
314.44	2883.54
314.65	3074.00
314.87	3061.71
315.08	2992.08
315.29	2971.60
315.51	3168.21
315.72	2947.03
315.93	3014.61
316.15	3024.85
316.36	3139.54
316.57	3262.41
316.79	3043.28
317.00	2973.65
317.21	3409.87
317.43	3139.54
317.64	3020.75
317.85	2865.11
318.07	3153.87
318.28	3229.65
318.49	3119.06
318.70	3313.61
318.92	3307.47
319.13	3393.48
319.34	3289.04
319.56	2979.79
319.77	3342.28
319.98	3370.96
320.20	3286.99
320.41	3190.74
320.62	3379.15
320.83	3092.43
321.05	3250.13
321.26	3061.71
321.47	3309.52
321.69	3450.83
321.90	2869.20
322.11	2947.03
322.32	3321.81
322.54	3618.76
322.75	3055.57
322.96	3956.68
323.18	3041.23
323.39	2916.31
323.60	2877.40
323.81	3059.67
324.03	3033.04
324.24	3336.14
324.45	3094.48
324.66	2967.51
324.88	3430.35
325.09	3641.29
325.30	2901.97
325.52	2842.58
325.73	3262.41
325.94	3117.01
326.15	2805.72
326.37	2893.78
326.58	3426.25
326.79	3569.61
327.00	2910.16
327.22	3053.52
327.43	3192.78
327.64	3037.14
327.85	3065.81
328.07	3051.47
328.28	3606.47
328.49	3166.16
328.70	3012.56
328.92	2977.75
329.13	3137.49
329.34	3413.96
329.55	3319.76
329.76	3084.24
329.98	3229.65
330.19	3528.65
330.40	3157.97
330.61	3059.67
330.83	3430.35
331.04	3033.04
331.25	3000.27
331.46	2971.60
331.68	3074.00
331.89	3526.60
332.10	2987.99
332.31	2869.20
332.52	3231.69
332.74	3569.61
332.95	2820.05
333.16	2942.93
333.37	3450.83
333.58	3112.91
333.80	3018.71
334.01	2795.48
334.22	3289.04
334.43	3100.62
334.64	2953.17
334.86	2961.36
335.07	3106.77
335.28	3594.19
335.49	2979.79
335.70	3033.04
335.92	3581.90
336.13	3696.58
336.34	3092.43
336.55	3035.09
336.76	3295.18
336.98	2904.02
337.19	2983.89
337.40	3067.86
337.61	3807.17
337.82	3205.07
338.04	3123.15
338.25	2801.62
338.46	3239.89
338.67	3278.80
338.88	2899.92
339.09	2836.44
339.31	3256.27
339.52	2949.08
339.73	2922.45
339.94	3010.51
340.15	3344.33
340.36	3256.27
340.58	3065.81
340.79	2858.96
341.00	3393.48
341.21	3043.28
341.42	3264.46
341.63	3006.42
341.85	3491.79
342.06	3213.26
342.27	2942.93
342.48	3215.31
342.69	2949.08
342.90	3422.16
343.12	3373.00
343.33	2910.16
343.54	3370.96
343.75	3575.75
343.96	3164.11
344.17	2904.02
344.38	3266.51
344.60	3127.25
344.81	2895.83
345.02	2994.13
345.23	3563.47
345.44	3846.09
345.65	3063.76
345.86	3100.62
346.07	3254.22
346.29	3135.44
346.50	3172.30
346.71	3090.38
346.92	3502.03
347.13	3831.75
347.34	3114.96
347.55	2881.49
347.76	3366.86
347.98	2985.94
348.19	3035.09
348.40	3082.19
348.61	3213.26
348.82	3631.05
349.03	3041.23
349.24	2918.36
349.45	3708.87
349.66	2881.49
349.88	2949.08
350.09	2977.75
350.30	3635.14
350.51	3606.47
350.72	3133.39
350.93	2922.45
351.14	3174.35
351.35	3303.37
351.56	3065.81
351.77	3076.05
351.99	3323.85
352.20	3596.23
352.41	3106.77
352.62	2824.15
352.83	3289.04
353.04	3319.76
353.25	3033.04
353.46	3041.23
353.67	3553.23
353.88	2910.16
354.09	2932.69
354.30	3067.86
354.52	3373.00
354.73	3241.93
354.94	2992.08
355.15	3074.00
355.36	3643.34
355.57	3094.48
355.78	2881.49
355.99	2934.74
356.20	3282.89
356.41	3502.03
356.62	3092.43
356.83	3026.90
357.04	3516.36
357.25	2928.60
357.46	2973.65
357.68	2887.64
357.89	3121.10
358.10	3278.80
358.31	3018.71
358.52	3096.53
358.73	3059.67
358.94	3012.56
359.15	2985.94
359.36	3092.43
359.57	3297.23
359.78	3252.17
359.99	3231.69
360.20	2936.79
360.41	3250.13
360.62	3418.06
360.83	3047.38
361.04	3074.00
361.25	3266.51
361.46	3514.31
361.67	3018.71
361.88	3012.56
362.09	3436.49
362.30	3327.95
362.51	2920.40
362.72	3151.82
362.93	3393.48
363.14	3379.15
363.35	3170.26
363.56	2881.49
363.78	3524.55
363.99	3493.83
364.20	3016.66
364.41	3084.24
364.62	3647.43
364.83	3319.76
365.04	3016.66
365.25	3094.48
365.46	3737.54
365.67	3053.52
365.88	3153.87
366.09	2975.70
366.30	3227.60
366.51	3252.17
366.72	2879.44
366.93	3102.67
367.14	3340.24
367.35	3534.79
367.56	2955.22
367.77	3080.14
367.98	3198.93
368.18	3346.38
368.39	3131.34
368.60	2904.02
368.81	3493.83
369.02	3323.85
369.23	2969.55
369.44	2906.07
369.65	3203.02
369.86	3379.15
370.07	3100.62
370.28	2869.20
370.49	3356.62
370.70	3313.61
370.91	2875.35
371.12	2856.92
371.33	3483.59
371.54	3098.58
371.75	3141.58
371.96	2721.75
372.17	3270.61
372.38	3276.75
372.59	3000.27
372.80	2955.22
373.01	3291.09
373.22	3323.85
373.43	2992.08
373.64	2926.55
373.85	3483.59
374.06	3592.14
374.26	3114.96
374.47	3155.92
374.68	3655.62
374.89	3360.72
375.10	2965.46
375.31	3057.62
375.52	3334.09
375.73	3309.52
375.94	2854.87
376.15	3137.49
376.36	3151.82
376.57	3221.45
376.78	2961.36
376.99	3049.43
377.20	3538.89
377.40	3284.94
377.61	3278.80
377.82	3049.43
378.03	3553.23
378.24	3420.11
378.45	3143.63
378.66	3106.77
378.87	2936.79
379.08	3041.23
379.29	3053.52
379.50	3225.55
379.71	3221.45
379.91	3444.68
380.12	3012.56
380.33	3045.33
380.54	3284.94
380.75	3213.26
380.96	2901.97
381.17	3069.91
381.38	3198.93
381.59	3241.93
381.80	3076.05
382.00	3190.74
382.21	3237.84
382.42	3672.01
382.63	3393.48
382.84	3078.10
383.05	3422.16
383.26	3549.13
383.47	3176.40
383.68	2975.70
383.88	3411.92
384.09	3256.27
384.30	3276.75
384.51	3108.82
384.72	3176.40
384.93	3000.27
385.14	3182.54
385.35	3301.33
385.55	2955.22
385.76	3493.83
385.97	3051.47
386.18	2836.44
386.39	3104.72
386.60	3211.22
386.81	2985.94
387.02	2918.36
387.22	3028.95
387.43	3418.06
387.64	3153.87
387.85	3317.71
388.06	3368.91
388.27	4349.89
388.48	7894.92
388.68	12236.61
388.89	15167.26
389.10	16656.13
389.31	16140.04
389.52	13063.99
389.73	11407.19
389.93	10483.55
390.14	9318.26
390.35	8488.83
390.56	8079.24
390.77	6672.28
390.98	4923.32
391.18	4188.10
391.39	3975.11
391.60	3334.09
391.81	3352.52
392.02	3110.86
392.23	3727.30
392.43	3327.95
392.64	3131.34
392.85	3153.87
393.06	3581.90
393.27	3389.39
393.47	3008.47
393.68	3049.43
393.89	3205.07
394.10	3549.13
394.31	2983.89
394.52	3006.42
394.72	3104.72
394.93	3581.90
395.14	2938.84
395.35	3151.82
395.56	3198.93
395.76	3243.98
395.97	3030.99
396.18	3172.30
396.39	3338.19
396.60	3956.68
396.80	3336.14
397.01	3313.61
397.22	3510.22
397.43	3477.45
397.64	3008.47
397.84	3108.82
398.05	3743.69
398.26	3180.50
398.47	3155.92
398.67	3168.21
398.88	3262.41
399.09	3534.79
399.30	2992.08
399.51	3084.24
399.71	3172.30
399.92	3274.70
400.13	3135.44
400.34	3024.85
400.54	3327.95
400.75	3626.95
400.96	3200.98
401.17	3405.77
401.37	3375.05
401.58	3182.54
401.79	3082.19
402.00	3200.98
402.21	3766.21
402.41	3454.92
402.62	3409.87
402.83	3442.64
403.04	3700.68
403.24	4095.94
403.45	3149.78
403.66	3381.20
403.87	3479.50
404.07	3649.48
404.28	3295.18
404.49	3313.61
404.70	3393.48
404.90	3502.03
405.11	3039.19
405.32	3147.73
405.52	3164.11
405.73	3117.01
405.94	2965.46
406.15	3088.34
406.35	3428.30
406.56	3459.02
406.77	3131.34
406.98	3061.71
407.18	3133.39
407.39	3661.77
407.60	3049.43
407.80	3178.45
408.01	3211.22
408.22	3424.20
408.43	2934.74
408.63	3176.40
408.84	3436.49
409.05	3465.16
409.25	2959.31
409.46	3065.81
409.67	3166.16
409.88	3229.65
410.08	3151.82
410.29	3028.95
410.50	3465.16
410.70	3420.11
410.91	2940.88
411.12	3133.39
411.32	3381.20
411.53	3080.14
411.74	3131.34
411.95	3139.54
412.15	3346.38
412.36	3405.77
412.57	3186.64
412.77	3248.08
412.98	3262.41
413.19	3221.45
413.39	3192.78
413.60	3088.34
413.81	3594.19
414.01	3033.04
414.22	3211.22
414.43	3248.08
414.63	3145.68
414.84	3401.68
415.05	3125.20
415.25	2910.16
415.46	3385.29
415.67	3200.98
415.87	3100.62
416.08	2963.41
416.29	3231.69
416.49	3411.92
416.70	3086.29
416.91	3059.67
417.11	3311.57
417.32	3397.58
417.53	3119.06
417.73	3190.74
417.94	3233.74
418.15	3379.15
418.35	3121.10
418.56	3049.43
418.77	3815.37
418.97	3309.52
419.18	3137.49
419.38	2717.65
419.59	3258.32
419.80	3581.90
420.00	3002.32
420.21	3035.09
420.42	3542.99
420.62	3362.76
420.83	3110.86
421.04	3006.42
421.24	3256.27
421.45	3434.44
421.65	3074.00
421.86	3051.47
422.07	3454.92
422.27	3280.85
422.48	2961.36
422.69	2893.78
422.89	3299.28
423.10	3289.04
423.30	2983.89
423.51	3162.06
423.72	3418.06
423.92	3454.92
424.13	2959.31
424.33	3174.35
424.54	3438.54
424.75	3270.61
424.95	3252.17
425.16	3053.52
425.36	3176.40
425.57	3485.64
425.78	3170.26
425.98	3100.62
426.19	3211.22
426.39	3094.48
426.60	3166.16
426.81	3176.40
427.01	3323.85
427.22	3200.98
427.42	2889.68
427.63	2975.70
427.83	3495.88
428.04	3616.71
428.25	3151.82
428.45	3119.06
428.66	3534.79
428.86	3291.09
429.07	3063.76
429.28	3133.39
429.48	3293.13
429.69	3078.10
429.89	3092.43
430.10	3030.99
430.30	3356.62
430.51	3407.82
430.71	2969.55
430.92	3123.15
431.13	3155.92
431.33	3508.17
431.54	3078.10
431.74	3160.02
431.95	3737.54
432.15	3166.16
432.36	3065.81
432.56	3051.47
432.77	3700.68
432.98	3614.66
433.18	3096.53
433.39	2889.68
433.59	3286.99
433.80	3676.10
434.00	3198.93
434.21	3127.25
434.41	3176.40
434.62	3762.12
434.82	2893.78
435.03	2942.93
435.23	3332.05
435.44	2963.41
435.64	2951.12
435.85	3090.38
436.06	3438.54
436.26	3508.17
436.47	3129.30
436.67	3028.95
436.88	3184.59
437.08	3475.40
437.29	3184.59
437.49	3141.58
437.70	3573.71
437.90	3256.27
438.11	3321.81
438.31	3149.78
438.52	3536.84
438.72	3549.13
438.93	3381.20
439.13	3198.93
439.34	3446.73
439.54	3205.07
439.75	3149.78
439.95	3192.78
440.16	3114.96
440.36	3387.34
440.57	3043.28
440.77	3033.04
440.98	3231.69
441.18	3352.52
441.39	2985.94
441.59	3076.05
441.80	3698.63
442.00	3266.51
442.21	3133.39
442.41	2973.65
442.62	3526.60
442.82	3074.00
443.02	3041.23
443.23	3125.20
443.43	3176.40
443.64	3520.46
443.84	2922.45
444.05	3074.00
444.25	3266.51
444.46	3219.41
444.66	2994.13
444.87	3282.89
445.07	2912.21
445.28	3243.98
445.48	3274.70
445.69	3164.11
445.89	3760.07
446.09	3203.02
446.30	3344.33
446.50	3534.79
446.71	5193.65
446.91	6385.57
447.12	7124.88
447.32	7757.71
447.53	7653.26
447.73	6354.85
447.93	5506.99
448.14	5425.07
448.34	5449.64
448.55	4458.43
448.75	4429.76
448.96	4261.82
449.16	4020.16
449.36	3999.68
449.57	3360.72
449.77	3198.93
449.98	3172.30
450.18	3309.52
450.39	3090.38
450.59	3241.93
450.79	3223.50
451.00	3090.38
451.20	3256.27
451.41	3018.71
451.61	3409.87
451.81	3284.94
452.02	2998.23
452.22	2992.08
452.43	3166.16
452.63	3190.74
452.84	3145.68
453.04	2983.89
453.24	3274.70
453.45	3190.74
453.65	3125.20
453.86	3098.58
454.06	3377.10
454.26	3323.85
454.47	2947.03
454.67	3252.17
454.87	3422.16
455.08	3209.17
455.28	3147.73
455.49	3215.31
455.69	3157.97
455.89	3680.20
456.10	3186.64
456.30	3076.05
456.51	3483.59
456.71	3340.24
456.91	3282.89
457.12	2969.55
457.32	3418.06
457.52	3055.57
457.73	3225.55
457.93	3231.69
458.14	3211.22
458.34	2887.64
458.54	3170.26
458.75	3047.38
458.95	3518.41
459.15	3448.78
459.36	3065.81
459.56	3033.04
459.76	3846.09
459.97	3311.57
460.17	3037.14
460.37	3131.34
460.58	3286.99
460.78	3385.29
460.99	2994.13
461.19	3104.72
461.39	3114.96
461.60	3246.03
461.80	3143.63
462.00	3049.43
462.21	3336.14
462.41	3131.34
462.61	2914.26
462.82	2865.11
463.02	3352.52
463.22	3286.99
463.43	3164.11
463.63	2951.12
463.83	3600.33
464.04	3305.42
464.24	3092.43
464.44	3057.62
464.64	3358.67
464.85	3387.34
465.05	3022.80
465.25	3041.23
465.46	3098.58
465.66	3375.05
465.86	3162.06
466.07	3067.86
466.27	3155.92
466.47	2965.46
466.68	2934.74
466.88	3274.70
467.08	3379.15
467.29	3471.31
467.49	3041.23
467.69	3235.79
467.89	3426.25
468.10	3278.80
468.30	3147.73
468.50	3127.25
468.71	3557.32
468.91	2959.31
469.11	3258.32
469.31	3213.26
469.52	3024.85
469.72	3610.57
469.92	3280.85
470.13	3030.99
470.33	3227.60
470.53	3489.74
470.73	3459.02
470.94	3880.90
471.14	4100.03
471.34	4734.90
471.54	4419.52
471.75	4067.27
471.95	3872.71
472.15	3850.18
472.36	3733.45
472.56	3575.75
472.76	3952.58
472.96	3753.93
473.17	3385.29
473.37	3248.08
473.57	3284.94
473.77	3436.49
473.98	3168.21
474.18	2942.93
474.38	3925.96
474.58	3260.37
474.79	3010.51
474.99	3209.17
475.19	3540.94
475.39	3016.66
475.60	3162.06
475.80	2985.94
476.00	3356.62
476.20	3250.13
476.41	3190.74
476.61	3119.06
476.81	3594.19
477.01	3145.68
477.21	3334.09
477.42	3186.64
477.62	3078.10
477.82	3393.48
478.02	3018.71
478.23	3090.38
478.43	3129.30
478.63	3231.69
478.83	3016.66
479.03	3207.12
479.24	3442.64
479.44	3715.02
479.64	2994.13
479.84	2877.40
480.04	3168.21
480.25	3526.60
480.45	2983.89
480.65	3024.85
480.85	3588.04
481.06	3221.45
481.26	3260.37
481.46	3045.33
481.66	3346.38
481.86	3131.34
482.06	3235.79
482.27	3055.57
482.47	3278.80
482.67	3360.72
482.87	3074.00
483.07	3096.53
483.28	3243.98
483.48	3114.96
483.68	3055.57
483.88	3045.33
484.08	2875.35
484.29	3067.86
484.49	3063.76
484.69	2842.58
484.89	3567.56
485.09	3489.74
485.29	3069.91
485.50	3205.07
485.70	3231.69
485.90	3477.45
486.10	3209.17
486.30	3018.71
486.50	3612.62
486.71	3311.57
486.91	3098.58
487.11	3094.48
487.31	3000.27
487.51	3334.09
487.71	3065.81
487.91	2912.21
488.12	3110.86
488.32	2781.14
488.52	3086.29
488.72	2721.75
488.92	3274.70
489.12	3545.03
489.32	3176.40
489.53	3024.85
489.73	2934.74
489.93	3633.10
490.13	2979.79
490.33	2879.44
490.53	3278.80
490.73	3497.93
490.94	2920.40
491.14	3135.44
491.34	3463.12
491.54	3469.26
491.74	3901.38
491.94	4587.45
492.14	5119.92
492.34	5248.94
492.54	4720.57
492.75	4100.03
492.95	4384.70
493.15	3989.44
493.35	3776.45
493.55	3727.30
493.75	3639.24
493.95	3837.89
494.15	3358.67
494.35	3147.73
494.56	3321.81
494.76	3186.64
494.96	3200.98
495.16	2992.08
495.36	3303.37
495.56	3291.09
495.76	3098.58
495.96	3067.86
496.16	3125.20
496.36	3622.86
496.56	2967.51
496.77	3131.34
496.97	3241.93
497.17	3606.47
497.37	2889.68
497.57	3164.11
497.77	3342.28
497.97	3016.66
498.17	3057.62
498.37	3024.85
498.57	3391.44
498.77	3178.45
498.97	3239.89
499.17	3483.59
499.38	3262.41
499.58	3438.54
499.78	3289.04
499.98	3141.58
500.18	3180.50
500.38	3143.63
500.58	3262.41
500.78	3715.02
500.98	6164.39
501.18	8482.69
501.38	9838.44
501.58	11208.53
501.78	10962.78
501.98	9072.50
502.18	7491.47
502.38	6729.63
502.58	6444.96
502.78	5828.52
502.98	5482.41
503.18	5273.52
503.38	4958.13
503.59	4253.63
503.79	4147.14
503.99	3708.87
504.19	3911.62
504.39	3936.20
504.59	3667.91
504.79	3626.95
504.99	4032.45
505.19	3612.62
505.39	3348.43
505.59	3573.71
505.79	3753.93
505.99	3512.27
506.19	3125.20
506.39	3344.33
506.59	3170.26
506.79	3198.93
506.99	3356.62
507.19	3033.04
507.39	3430.35
507.59	2930.64
507.79	3071.95
507.99	3059.67
508.19	3315.66
508.39	3151.82
508.59	3092.43
508.79	3106.77
508.99	3725.26
509.19	3155.92
509.39	3157.97
509.59	2996.18
509.79	3096.53
509.99	3323.85
510.19	3184.59
510.39	3221.45
510.59	3317.71
510.79	3104.72
510.99	2824.15
511.19	3033.04
511.39	3553.23
511.59	3557.32
511.79	3205.07
511.99	3055.57
512.19	3604.42
512.38	3319.76
512.58	3028.95
512.78	2967.51
512.98	3450.83
513.18	3696.58
513.38	2940.88
513.58	3110.86
513.78	3280.85
513.98	3346.38
514.18	3074.00
514.38	3061.71
514.58	3325.90
514.78	3053.52
514.98	2938.84
515.18	3086.29
515.38	3074.00
515.58	3631.05
515.78	3084.24
515.98	3106.77
516.18	3377.10
516.38	3327.95
516.57	3088.34
516.77	3024.85
516.97	3430.35
517.17	3151.82
517.37	2842.58
517.57	3135.44
517.77	3291.09
517.97	3078.10
518.17	3129.30
518.37	2916.31
518.57	3162.06
518.77	3268.56
518.97	3090.38
519.16	3151.82
519.36	3512.27
519.56	3190.74
519.76	3002.32
519.96	3108.82
520.16	3522.51
520.36	3069.91
520.56	3262.41
520.76	3016.66
520.96	3088.34
521.16	3522.51
521.35	3280.85
521.55	3166.16
521.75	3364.81
521.95	3074.00
522.15	3080.14
522.35	2922.45
522.55	3121.10
522.75	3504.07
522.95	2973.65
523.14	2951.12
523.34	3258.32
523.54	3174.35
523.74	3153.87
523.94	3119.06
524.14	2965.46
524.34	3368.91
524.54	3317.71
524.73	3094.48
524.93	3442.64
525.13	3276.75
525.33	2987.99
525.53	3336.14
525.73	3434.44
525.93	3309.52
526.13	3028.95
526.32	3018.71
526.52	3538.89
526.72	3450.83
526.92	3100.62
527.12	2975.70
527.32	2990.03
527.52	3348.43
527.71	3037.14
527.91	3092.43
528.11	3211.22
528.31	3237.84
528.51	2936.79
528.71	3221.45
528.90	3420.11
529.10	3401.68
529.30	3170.26
529.50	2820.05
529.70	3373.00
529.90	3213.26
530.09	3039.19
530.29	2846.68
530.49	3172.30
530.69	3854.28
530.89	3188.69
531.09	3160.02
531.28	3184.59
531.48	3512.27
531.68	3039.19
531.88	3080.14
532.08	3358.67
532.28	3186.64
532.47	3239.89
532.67	3155.92
532.87	3321.81
533.07	3100.62
533.27	3123.15
533.46	3151.82
533.66	3442.64
533.86	3305.42
534.06	3127.25
534.26	3067.86
534.45	3194.83
534.65	3485.64
534.85	3168.21
535.05	3006.42
535.25	3475.40
535.44	3008.47
535.64	3143.63
535.84	3141.58
536.04	3178.45
536.24	3192.78
536.43	3004.37
536.63	3053.52
536.83	3325.90
537.03	3260.37
537.22	2877.40
537.42	2836.44
537.62	3377.10
537.82	3127.25
538.02	3198.93
538.21	3215.31
538.41	3858.37
538.61	3397.58
538.81	3166.16
539.00	3223.50
539.20	2906.07
539.40	3237.84
539.60	3002.32
539.79	3307.47
539.99	3233.74
540.19	3080.14
540.39	3053.52
540.58	3141.58
540.78	3594.19
540.98	3303.37
541.18	3344.33
541.37	3047.38
541.57	3393.48
541.77	3393.48
541.97	2996.18
542.16	3008.47
542.36	3170.26
542.56	3182.54
542.76	3205.07
542.95	3123.15
543.15	3358.67
543.35	3422.16
543.54	3043.28
543.74	3010.51
543.94	3567.56
544.14	3153.87
544.33	3170.26
544.53	3090.38
544.73	3264.46
544.93	3182.54
545.12	3033.04
545.32	3043.28
545.52	3225.55
545.71	3057.62
545.91	3053.52
546.11	3049.43
546.30	3098.58
546.50	3194.83
546.70	3131.34
546.90	3069.91
547.09	2861.01
547.29	3262.41
547.49	3225.55
547.68	3098.58
547.88	3090.38
548.08	3338.19
548.27	3391.44
548.47	3014.61
548.67	3145.68
548.87	3274.70
549.06	3043.28
549.26	3012.56
549.46	3336.14
549.65	3243.98
549.85	3088.34
550.05	3141.58
550.24	3024.85
550.44	3256.27
550.64	3121.10
550.83	3164.11
551.03	3532.75
551.23	3428.30
551.42	3102.67
551.62	3133.39
551.82	3295.18
552.01	3246.03
552.21	3401.68
552.41	3131.34
552.60	3624.90
552.80	3225.55
553.00	3033.04
553.19	3106.77
553.39	3639.24
553.59	3043.28
553.78	3211.22
553.98	2961.36
554.17	3059.67
554.37	3282.89
554.57	3182.54
554.76	2922.45
554.96	3172.30
555.16	3284.94
555.35	3104.72
555.55	3248.08
555.75	3356.62
555.94	3442.64
556.14	2848.72
556.33	3057.62
556.53	3311.57
556.73	3198.93
556.92	3112.91
557.12	2959.31
557.32	3766.21
557.51	3540.94
557.71	3137.49
557.90	3315.66
558.10	3520.46
558.30	3256.27
558.49	3117.01
558.69	3041.23
558.88	3311.57
559.08	3289.04
559.28	3086.29
559.47	3057.62
559.67	3428.30
559.86	3661.77
560.06	3051.47
560.26	3037.14
560.45	3360.72
560.65	3164.11
560.84	3344.33
561.04	2963.41
561.24	3405.77
561.43	3149.78
561.63	3307.47
561.82	3100.62
562.02	3358.67
562.22	3108.82
562.41	2979.79
562.61	3004.37
562.80	3008.47
563.00	3815.37
563.19	3106.77
563.39	3219.41
563.59	3373.00
563.78	3049.43
563.98	2838.48
564.17	3071.95
564.37	2908.12
564.56	3264.46
564.76	3037.14
564.96	3131.34
565.15	3309.52
565.35	3780.55
565.54	3092.43
565.74	3157.97
565.93	3340.24
566.13	3221.45
566.32	3184.59
566.52	3059.67
566.71	3270.61
566.91	3448.78
567.11	3129.30
567.30	2992.08
567.50	3354.57
567.69	3356.62
567.89	3022.80
568.08	2947.03
568.28	3346.38
568.47	3024.85
568.67	3121.10
568.86	3061.71
569.06	3442.64
569.25	3176.40
569.45	2996.18
569.64	3094.48
569.84	3235.79
570.04	3293.13
570.23	3057.62
570.43	3024.85
570.62	3293.13
570.82	3540.94
571.01	2965.46
571.21	2955.22
571.40	3123.15
571.60	3516.36
571.79	3217.36
571.99	3035.09
572.18	3065.81
572.38	3381.20
572.57	3182.54
572.77	3131.34
572.96	3778.50
573.16	3278.80
573.35	3069.91
573.55	3268.56
573.74	3413.96
573.94	3225.55
574.13	3135.44
574.33	3291.09
574.52	3524.55
574.71	3315.66
574.91	3090.38
575.10	2887.64
575.30	3102.67
575.49	3024.85
575.69	3006.42
575.88	3084.24
576.08	3289.04
576.27	3483.59
576.47	3010.51
576.66	3307.47
576.86	3485.64
577.05	3246.03
577.25	3139.54
577.44	3231.69
577.64	3252.17
577.83	3483.59
578.02	3012.56
578.22	3268.56
578.41	3678.15
578.61	3205.07
578.80	2852.82
579.00	3147.73
579.19	3278.80
579.39	3428.30
579.58	3153.87
579.77	3100.62
579.97	3540.94
580.16	3602.38
580.36	3200.98
580.55	3108.82
580.75	3405.77
580.94	3295.18
581.13	3248.08
581.33	3303.37
581.52	3250.13
581.72	3696.58
581.91	3176.40
582.11	3053.52
582.30	3557.32
582.49	3344.33
582.69	3401.68
582.88	3110.86
583.08	3368.91
583.27	3483.59
583.47	3262.41
583.66	3016.66
583.85	3088.34
584.05	3182.54
584.24	3182.54
584.44	3149.78
584.63	3532.75
584.82	3647.43
585.02	3301.33
585.21	3196.88
585.41	3356.62
585.60	3444.68
585.79	3364.81
585.99	3442.64
586.18	3346.38
586.37	4294.59
586.57	6393.76
586.76	18102.00
586.96	37791.17
587.15	50767.10
587.34	59075.71
587.54	63353.91
587.73	56423.59
587.93	40693.14
588.12	31000.10
588.31	25558.65
588.51	22857.38
588.70	20936.38
588.89	18405.10
589.09	15836.94
589.28	13539.12
589.47	10741.60
589.67	8234.88
589.86	6447.01
590.06	5023.67
590.25	4505.53
590.44	3823.56
590.64	3491.79
590.83	3612.62
591.02	3534.79
591.22	3119.06
591.41	3196.88
591.60	3235.79
591.80	3803.08
591.99	2861.01
592.18	3076.05
592.38	3516.36
592.57	3168.21
592.76	3008.47
592.96	3155.92
593.15	3243.98
593.34	3471.31
593.54	3028.95
593.73	3291.09
593.92	3483.59
594.12	3497.93
594.31	3114.96
594.50	3377.10
594.70	3375.05
594.89	3854.28
595.08	2957.27
595.28	3194.83
595.47	3852.23
595.66	3495.88
595.86	2992.08
596.05	2992.08
596.24	3241.93
596.43	3626.95
596.63	3147.73
596.82	3293.13
597.01	3405.77
597.21	3655.62
597.40	3125.20
597.59	3192.78
597.79	3248.08
597.98	3360.72
598.17	3145.68
598.36	3074.00
598.56	3499.98
598.75	3227.60
598.94	3237.84
599.14	3162.06
599.33	3188.69
599.52	3430.35
599.71	3192.78
599.91	3114.96
600.10	3370.96
600.29	3239.89
600.48	3071.95
600.68	3215.31
600.87	3319.76
601.06	3139.54
601.26	3229.65
601.45	3258.32
601.64	3260.37
601.83	3553.23
602.03	2975.70
602.22	3002.32
602.41	3518.41
602.60	3823.56
602.80	3186.64
602.99	3268.56
603.18	3131.34
603.37	3338.19
603.57	2947.03
603.76	3041.23
603.95	3575.75
604.14	3121.10
604.34	3039.19
604.53	3092.43
604.72	3350.48
604.91	3473.36
605.10	3059.67
605.30	2938.84
605.49	3688.39
605.68	3381.20
605.87	3102.67
606.07	3100.62
606.26	3336.14
606.45	3432.40
606.64	3131.34
606.84	3018.71
607.03	3260.37
607.22	3467.21
607.41	3207.12
607.60	3121.10
607.80	3510.22
607.99	3295.18
608.18	3151.82
608.37	3129.30
608.56	3188.69
608.76	3489.74
608.95	3276.75
609.14	3053.52
609.33	3504.07
609.52	3551.18
609.72	3184.59
609.91	3166.16
610.10	3356.62
610.29	3614.66
610.48	3221.45
610.68	3155.92
610.87	3213.26
611.06	3436.49
611.25	3102.67
611.44	3211.22
611.63	3162.06
611.83	3502.03
612.02	2992.08
612.21	3190.74
612.40	2938.84
612.59	3131.34
612.79	2979.79
612.98	3205.07
613.17	3555.27
613.36	3289.04
613.55	3284.94
613.74	3106.77
613.93	3368.91
614.13	3370.96
614.32	3350.48
614.51	3168.21
614.70	3309.52
614.89	3289.04
615.08	3330.00
615.28	3463.12
615.47	3114.96
615.66	3475.40
615.85	3143.63
616.04	3157.97
616.23	3299.28
616.42	3358.67
616.62	3084.24
616.81	3098.58
617.00	3319.76
617.19	3299.28
617.38	3074.00
617.57	3180.50
617.76	3409.87
617.95	3422.16
618.15	3196.88
618.34	3270.61
618.53	3026.90
618.72	3524.55
618.91	3246.03
619.10	3188.69
619.29	3246.03
619.48	3289.04
619.68	2975.70
619.87	3014.61
620.06	3051.47
620.25	3391.44
620.44	3106.77
620.63	2975.70
620.82	3254.22
621.01	3295.18
621.20	3074.00
621.39	3149.78
621.59	3317.71
621.78	3266.51
621.97	3117.01
622.16	3215.31
622.35	3377.10
622.54	3395.53
622.73	3174.35
622.92	2836.44
623.11	3516.36
623.30	3188.69
623.49	3186.64
623.68	3004.37
623.88	3522.51
624.07	3221.45
624.26	2969.55
624.45	3100.62
624.64	3219.41
624.83	3321.81
625.02	3080.14
625.21	3043.28
625.40	3315.66
625.59	3549.13
625.78	3178.45
625.97	3196.88
626.16	3604.42
626.35	3450.83
626.54	3174.35
626.74	3258.32
626.93	3289.04
627.12	3286.99
627.31	3114.96
627.50	3131.34
627.69	3516.36
627.88	3123.15
628.07	3018.71
628.26	2936.79
628.45	3090.38
628.64	3100.62
628.83	3012.56
629.02	2957.27
629.21	3438.54
629.40	3311.57
629.59	2959.31
629.78	3059.67
629.97	3346.38
630.16	3274.70
630.35	3022.80
630.54	3139.54
630.73	3174.35
630.92	3248.08
631.11	2969.55
631.30	3106.77
631.49	3495.88
631.68	3176.40
631.87	3121.10
632.06	3028.95
632.25	3727.30
632.44	3286.99
632.63	3149.78
632.82	3188.69
633.01	3170.26
633.20	3319.76
633.39	3094.48
633.58	2987.99
633.77	3413.96
633.96	3385.29
634.15	3182.54
634.34	3139.54
634.53	3303.37
634.72	3149.78
634.91	2856.92
635.10	3106.77
635.29	3407.82
635.48	3295.18
635.67	2969.55
635.86	2920.40
636.05	3614.66
636.24	3330.00
636.43	3086.29
636.62	3162.06
636.81	2807.77
637.00	3299.28
637.19	3039.19
637.38	3129.30
637.57	3205.07
637.76	3250.13
637.95	3301.33
638.14	3311.57
638.33	3354.57
638.52	3309.52
638.71	2904.02
638.89	2926.55
639.08	3831.75
639.27	3524.55
639.46	3409.87
639.65	3778.50
639.84	3975.11
640.03	4016.07
640.22	3540.94
640.41	3565.51
640.60	3395.53
640.79	3536.84
640.98	3286.99
641.17	3366.86
641.36	3526.60
641.55	3397.58
641.74	3016.66
641.92	2987.99
642.11	3123.15
642.30	3266.51
642.49	2963.41
642.68	3080.14
642.87	3393.48
643.06	3385.29
643.25	2863.06
643.44	3010.51
643.63	3258.32
643.82	3534.79
644.00	2951.12
644.19	3063.76
644.38	3065.81
644.57	3442.64
644.76	3051.47
644.95	3119.06
645.14	3348.43
645.33	3278.80
645.52	3061.71
645.71	2918.36
645.89	3041.23
646.08	3278.80
646.27	3108.82
646.46	3221.45
646.65	2975.70
646.84	3225.55
647.03	2922.45
647.22	3250.13
647.40	3360.72
647.59	3274.70
647.78	2879.44
647.97	3106.77
648.16	3071.95
648.35	3635.14
648.54	3299.28
648.73	3143.63
648.91	3508.17
649.10	3305.42
649.29	2998.23
649.48	2963.41
649.67	3381.20
649.86	3284.94
650.05	3137.49
650.23	3299.28
650.42	3221.45
650.61	3618.76
650.80	3325.90
650.99	3360.72
651.18	3483.59
651.36	3524.55
651.55	3063.76
651.74	3231.69
651.93	3207.12
652.12	3168.21
652.31	3096.53
652.49	3157.97
652.68	3172.30
652.87	3614.66
653.06	3157.97
653.25	3428.30
653.44	3299.28
653.62	3598.28
653.81	3106.77
654.00	3059.67
654.19	3409.87
654.38	3696.58
654.56	3141.58
654.75	2975.70
654.94	3440.59
655.13	3303.37
655.32	3033.04
655.51	3127.25
655.69	3198.93
655.88	3362.76
656.07	2932.69
656.26	3166.16
656.45	3065.81
656.63	3321.81
656.82	3002.32
657.01	3379.15
657.20	3151.82
657.38	3577.80
657.57	3084.24
657.76	2975.70
657.95	3393.48
658.14	3219.41
658.32	3162.06
658.51	2959.31
658.70	3332.05
658.89	3286.99
659.08	3117.01
659.26	3286.99
659.45	3037.14
659.64	3397.58
659.83	3012.56
660.01	3438.54
660.20	3368.91
660.39	3571.66
660.58	2758.61
660.76	3178.45
660.95	2992.08
661.14	3266.51
661.33	2951.12
661.51	3121.10
661.70	3127.25
661.89	3299.28
662.08	3102.67
662.26	2899.92
662.45	3065.81
662.64	3502.03
662.83	3131.34
663.01	2908.12
663.20	3188.69
663.39	3604.42
663.58	3090.38
663.76	3041.23
663.95	3364.81
664.14	3063.76
664.32	3141.58
664.51	2916.31
664.70	2877.40
664.89	3274.70
665.07	2889.68
665.26	3246.03
665.45	3063.76
665.64	3377.10
665.82	3024.85
666.01	3211.22
666.20	3059.67
666.38	3467.21
666.57	3389.39
666.76	5535.66
666.95	13166.39
667.13	20661.96
667.32	24927.88
667.51	28591.69
667.69	29513.28
667.88	24493.71
668.07	17520.37
668.25	15066.91
668.44	13166.39
668.63	11308.88
668.81	9832.30
669.00	8546.17
669.19	7675.79
669.38	6690.71
669.56	5662.63
669.75	5025.72
669.94	4470.72
670.12	3827.65
670.31	3416.01
670.50	3364.81
670.68	3467.21
670.87	3409.87
671.06	3012.56
671.24	3162.06
671.43	3540.94
671.62	3282.89
671.80	3139.54
671.99	3221.45
672.18	3284.94
672.36	3405.77
672.55	3237.84
672.74	3186.64
672.92	3207.12
673.11	3473.36
673.29	2983.89
673.48	3350.48
673.67	3258.32
673.85	3471.31
674.04	3119.06
674.23	3102.67
674.41	3719.11
674.60	3035.09
674.79	2908.12
674.97	3012.56
675.16	3422.16
675.34	3573.71
675.53	3117.01
675.72	3192.78
675.90	3655.62
676.09	3180.50
676.28	3090.38
676.46	2918.36
676.65	3424.20
676.83	3143.63
677.02	3170.26
677.21	3221.45
677.39	3356.62
677.58	3102.67
677.77	3057.62
677.95	3049.43
678.14	3213.26
678.32	3241.93
678.51	3092.43
678.70	3418.06
678.88	3127.25
679.07	3280.85
679.25	3110.86
679.44	3123.15
679.63	3041.23
679.81	3311.57
680.00	3307.47
680.18	3200.98
680.37	3622.86
680.55	3354.57
680.74	3008.47
680.93	2856.92
681.11	3340.24
681.30	3346.38
681.48	3114.96
681.67	3094.48
681.85	3389.39
682.04	3110.86
682.23	3342.28
682.41	3198.93
682.60	3246.03
682.78	3250.13
682.97	2938.84
683.15	3141.58
683.34	3338.19
683.53	3473.36
683.71	2969.55
683.90	3133.39
684.08	3579.85
684.27	3229.65
684.45	3092.43
684.64	3225.55
684.82	3274.70
685.01	3344.33
685.19	3041.23
685.38	3309.52
685.57	3215.31
685.75	3153.87
685.94	2987.99
686.12	3012.56
686.31	3155.92
686.49	3690.44
686.68	2834.39
686.86	3145.68
687.05	3172.30
687.23	3616.71
687.42	3145.68
687.60	2850.77
687.79	3489.74
687.97	3590.09
688.16	3237.84
688.34	3305.42
688.53	2947.03
688.71	3344.33
688.90	3381.20
689.08	3082.19
689.27	2975.70
689.45	3334.09
689.64	3186.64
689.82	3203.02
690.01	3356.62
690.19	3266.51
690.38	3194.83
690.56	3233.74
690.75	3010.51
690.93	3194.83
691.12	3049.43
691.30	3207.12
691.49	3096.53
691.67	3250.13
691.86	3446.73
692.04	3112.91
692.23	3246.03
692.41	3323.85
692.60	3403.72
692.78	3295.18
692.97	3182.54
693.15	3385.29
693.34	3270.61
693.52	3291.09
693.71	3254.22
693.89	3147.73
694.08	2871.25
694.26	3213.26
694.44	3413.96
694.63	3434.44
694.81	2971.60
695.00	3051.47
695.18	3485.64
695.37	3846.09
695.55	3207.12
695.74	3102.67
695.92	3033.04
696.10	3606.47
696.29	3037.14
696.47	3065.81
696.66	3043.28
696.84	3012.56
697.03	3123.15
697.21	3270.61
697.40	4747.19
697.58	3452.88
697.76	3106.77
697.95	3047.38
698.13	3106.77
698.32	3078.10
698.50	3106.77
698.68	3114.96
698.87	3258.32
699.05	3583.95
699.24	3039.19
699.42	3090.38
699.61	3362.76
699.79	3286.99
699.97	3117.01
700.16	2936.79
700.34	2977.75
700.53	3299.28
700.71	3295.18
700.89	3229.65
701.08	3254.22
701.26	3211.22
701.45	3432.40
701.63	3080.14
701.81	3143.63
702.00	3086.29
702.18	3256.27
702.37	3069.91
702.55	3553.23
702.73	3389.39
702.92	3153.87
703.10	3438.54
703.28	3407.82
703.47	3114.96
703.65	3399.63
703.84	3243.98
704.02	3217.36
704.20	3606.47
704.39	3102.67
704.57	3014.61
704.75	3473.36
704.94	3377.10
705.12	3311.57
705.30	4026.31
705.49	8873.85
705.67	17678.07
705.86	24293.01
706.04	27526.75
706.22	30731.82
706.41	29314.62
706.59	22081.20
706.77	17174.27
706.96	14831.39
707.14	13440.82
707.32	11429.71
707.51	10012.52
707.69	8083.33
707.87	6637.47
708.06	5400.49
708.24	4569.02
708.42	4126.66
708.61	4175.81
708.79	3233.74
708.97	3256.27
709.16	3512.27
709.34	3336.14
709.52	3125.20
709.71	3127.25
709.89	3399.63
710.07	3098.58
710.26	3086.29
710.44	3084.24
710.62	3422.16
710.80	3258.32
710.99	3295.18
711.17	3268.56
711.35	3155.92
711.54	3182.54
711.72	3327.95
711.90	3102.67
712.09	3338.19
712.27	3205.07
712.45	3235.79
712.63	3051.47
712.82	3350.48
713.00	3303.37
713.18	3207.12
713.37	3266.51
713.55	3428.30
713.73	3313.61
713.91	3168.21
714.10	3057.62
714.28	3317.71
714.46	3229.65
714.65	3178.45
714.83	3237.84
715.01	3266.51
715.19	3332.05
715.38	3035.09
715.56	3317.71
715.74	3125.20
715.92	3180.50
716.11	3438.54
716.29	2854.87
716.47	3264.46
716.65	3282.89
716.84	2979.79
717.02	3145.68
717.20	2922.45
717.38	3143.63
717.57	3139.54
717.75	3127.25
717.93	3237.84
718.11	3430.35
718.30	2987.99
718.48	3172.30
718.66	3487.69
718.84	3483.59
719.03	3090.38
719.21	2953.17
719.39	3626.95
719.57	3370.96
719.75	3186.64
719.94	3049.43
720.12	3139.54
720.30	3268.56
720.48	3139.54
720.67	3098.58
720.85	3123.15
721.03	3168.21
721.21	3043.28
721.39	3180.50
721.58	3448.78
721.76	3334.09
721.94	3174.35
722.12	3235.79
722.30	3596.23
722.49	3100.62
722.67	3033.04
722.85	3106.77
723.03	2977.75
723.21	3141.58
723.40	3098.58
723.58	3239.89
723.76	3379.15
723.94	3526.60
724.12	3153.87
724.30	3387.34
724.49	3506.12
724.67	3106.77
724.85	3196.88
725.03	3074.00
725.21	3493.83
725.40	3473.36
725.58	3098.58
725.76	3303.37
725.94	3405.77
726.12	3080.14
726.30	3114.96
726.49	3061.71
726.67	3182.54
726.85	3344.33
727.03	4052.93
727.21	5658.54
727.39	7427.98
727.57	8155.01
727.76	8456.06
727.94	8572.80
728.12	7427.98
728.30	6012.84
728.48	5672.87
728.66	5134.26
728.84	4868.02
729.03	4147.14
729.21	3813.32
729.39	3618.76
729.57	3422.16
729.75	3418.06
729.93	3381.20
730.11	3098.58
730.30	3243.98
730.48	3260.37
730.66	3160.02
730.84	3092.43
731.02	3231.69
731.20	3254.22
731.38	3178.45
731.56	2877.40
731.74	3012.56
731.93	3379.15
732.11	3213.26
732.29	3053.52
732.47	3393.48
732.65	3330.00
732.83	3327.95
733.01	3209.17
733.19	3086.29
733.37	3409.87
733.56	3090.38
733.74	2942.93
733.92	3532.75
734.10	3188.69
734.28	3217.36
734.46	2912.21
734.64	3274.70
734.82	3108.82
735.00	3043.28
735.18	3026.90
735.36	3295.18
735.54	3221.45
735.73	3082.19
735.91	3221.45
736.09	3571.66
736.27	3233.74
736.45	3125.20
736.63	2836.44
736.81	3205.07
736.99	3407.82
737.17	3368.91
737.35	3108.82
737.53	3278.80
737.71	3260.37
737.89	3389.39
738.07	3018.71
738.25	3041.23
738.43	2955.22
738.61	3106.77
738.80	2957.27
738.98	3084.24
739.16	3170.26
739.34	3037.14
739.52	3375.05
739.70	3198.93
739.88	3432.40
740.06	3192.78
740.24	2879.44
740.42	3495.88
740.60	2963.41
740.78	3055.57
740.96	2885.59
741.14	3207.12
741.32	3205.07
741.50	2967.51
741.68	3346.38
741.86	3581.90
742.04	3065.81
742.22	3020.75
742.40	3055.57
742.58	3383.24
742.76	3086.29
742.94	3340.24
743.12	2895.83
743.30	3198.93
743.48	3395.53
743.66	2987.99
743.84	3092.43
744.02	3221.45
744.20	3157.97
744.38	2940.88
744.56	3026.90
744.74	3602.38
744.92	3334.09
745.10	3282.89
745.28	3057.62
745.46	3622.86
745.64	3114.96
745.82	3172.30
746.00	2987.99
746.18	3377.10
746.36	3127.25
746.54	3098.58
746.72	3145.68
746.90	3057.62
747.08	3422.16
747.26	3065.81
747.44	3221.45
747.62	3381.20
747.80	3362.76
747.98	3147.73
748.15	3063.76
748.33	3614.66
748.51	3325.90
748.69	3153.87
748.87	3014.61
749.05	3233.74
749.23	3280.85
749.41	3092.43
749.59	3112.91
749.77	3436.49
749.95	3141.58
750.13	3024.85
750.31	3262.41
750.49	3256.27
750.67	3340.24
750.85	3217.36
751.03	3110.86
751.20	3723.21
751.38	3352.52
751.56	3149.78
751.74	3125.20
751.92	3225.55
752.10	3028.95
752.28	3207.12
752.46	3071.95
752.64	3266.51
752.82	3315.66
753.00	3246.03
753.18	2959.31
753.35	3233.74
753.53	3160.02
753.71	3069.91
753.89	3219.41
754.07	3293.13
754.25	3461.07
754.43	3160.02
754.61	2963.41
754.79	3352.52
754.97	3119.06
755.14	3327.95
755.32	2953.17
755.50	3252.17
755.68	3315.66
755.86	3020.75
756.04	3033.04
756.22	2940.88
756.40	3409.87
756.57	3325.90
756.75	3117.01
756.93	3444.68
757.11	3418.06
757.29	2957.27
757.47	2996.18
757.65	2936.79
757.82	2858.96
758.00	2996.18
758.18	3069.91
758.36	3080.14
758.54	3651.53
758.72	2863.06
758.90	3262.41
759.07	3332.05
759.25	3076.05
759.43	3151.82
759.61	2865.11
759.79	4499.39
759.97	3479.50
760.15	3065.81
760.32	3098.58
760.50	3303.37
760.68	3659.72
760.86	2906.07
761.04	3327.95
761.22	3452.88
761.39	3286.99
761.57	3233.74
761.75	3114.96
761.93	3491.79
762.11	3203.02
762.28	3166.16
762.46	3004.37
762.64	3434.44
762.82	3037.14
763.00	3008.47
763.18	3350.48
763.35	3098.58
763.53	3413.96
763.71	3221.45
763.89	3110.86
764.07	3327.95
764.24	3352.52
764.42	3219.41
764.60	3127.25
764.78	3327.95
764.96	3364.81
765.13	3229.65
765.31	2951.12
765.49	3346.38
765.67	3061.71
765.84	3010.51
766.02	2996.18
766.20	3006.42
766.38	3375.05
766.56	3213.26
766.73	3164.11
766.91	3323.85
767.09	3250.13
767.27	3125.20
767.44	3063.76
767.62	3307.47
767.80	3254.22
767.98	3016.66
768.15	3082.19
768.33	3467.21
768.51	3436.49
768.69	3196.88
768.87	3078.10
769.04	3370.96
769.22	3831.75
769.40	3260.37
769.58	3205.07
769.75	3434.44
769.93	3545.03
770.11	3119.06
770.28	2897.88
770.46	3452.88
770.64	3342.28
770.82	3006.42
770.99	2998.23
771.17	3444.68
771.35	3221.45
771.53	3186.64
771.70	3008.47
771.88	3330.00
772.06	3309.52
772.23	3059.67
772.41	3196.88
772.59	3235.79
772.77	3104.72
772.94	3168.21
773.12	3147.73
773.30	3196.88
773.47	3278.80
773.65	3000.27
773.83	3213.26
774.01	3248.08
774.18	2865.11
774.36	3184.59
774.54	2942.93
774.71	3309.52
774.89	3010.51
775.07	3010.51
775.24	3090.38
775.42	3207.12
775.60	3702.73
775.78	3000.27
775.95	2930.64
776.13	2885.59
776.31	2985.94
776.48	3180.50
776.66	3225.55
776.84	3209.17
777.01	3133.39
777.19	3004.37
777.37	3074.00
777.54	3393.48
777.72	3663.82
777.90	3160.02
778.07	3071.95
778.25	3856.33
778.43	3495.88
778.60	3014.61
778.78	3096.53
778.96	3610.57
779.13	3082.19
779.31	3188.69
779.49	3102.67
779.66	3270.61
779.84	3227.60
780.01	3069.91
780.19	3039.19
780.37	3596.23
780.54	3409.87
780.72	2914.26
780.90	3143.63
781.07	3192.78
781.25	3090.38
781.43	3274.70
781.60	3112.91
781.78	3510.22
781.95	3272.65
782.13	3026.90
782.31	3067.86
782.48	2885.59
782.66	3264.46
782.83	3336.14
783.01	3297.23
783.19	3393.48
783.36	3256.27
783.54	3000.27
783.72	3188.69
783.89	3248.08
784.07	3311.57
784.24	3203.02
784.42	3325.90
784.60	3385.29
784.77	3311.57
784.95	2803.67
785.12	3018.71
785.30	3323.85
785.47	3151.82
785.65	2944.98
785.83	3155.92
786.00	3170.26
786.18	3282.89
786.35	2973.65
786.53	3028.95
786.71	3518.41
786.88	3352.52
787.06	3188.69
787.23	3200.98
787.41	3055.57
787.58	3198.93
787.76	2992.08
787.94	3112.91
788.11	3387.34
788.29	2992.08
788.46	3125.20
788.64	2928.60
788.81	3157.97
788.99	3045.33
789.16	2979.79
789.34	2957.27
789.52	3135.44
789.69	3207.12
789.87	2889.68
790.04	2969.55
790.22	3270.61
790.39	3633.10
790.57	2959.31
790.74	2895.83
790.92	3397.58
791.09	2951.12
791.27	3211.22
791.44	3196.88
791.62	3117.01
791.79	3428.30
791.97	3106.77
792.15	3389.39
792.32	3377.10
792.50	3366.86
792.67	3137.49
792.85	3344.33
793.02	3354.57
793.20	3225.55
793.37	3000.27
793.55	3033.04
793.72	3000.27
793.90	3413.96
794.07	3102.67
794.25	2967.51
794.42	3362.76
794.60	3264.46
794.77	3082.19
794.95	3149.78
795.12	3422.16
795.30	3241.93
795.47	2922.45
795.65	3459.02
795.82	3342.28
796.00	3162.06
796.17	3194.83
796.34	2940.88
796.52	3360.72
796.69	3508.17
796.87	3200.98
797.04	3278.80
797.22	3444.68
797.39	3340.24
797.57	3270.61
797.74	3198.93
797.92	3354.57
798.09	3190.74
798.27	3364.81
798.44	3057.62
798.62	3160.02
798.79	3246.03
798.96	3264.46
799.14	3080.14
799.31	3798.98
799.49	3270.61
799.66	3061.71
799.84	3155.92
800.01	3008.47
800.19	3336.14
800.36	2848.72
800.53	3168.21
800.71	3286.99
800.88	3590.09
801.06	3020.75
801.23	3037.14
801.41	3231.69
801.58	3147.73
801.75	3071.95
801.93	3119.06
802.10	3356.62
802.28	3196.88
802.45	3117.01
802.63	3141.58
802.80	3518.41
802.97	3131.34
803.15	3030.99
803.32	3074.00
803.50	3094.48
803.67	3219.41
803.84	2977.75
804.02	3145.68
804.19	3235.79
804.37	2779.09
804.54	2842.58
804.71	3043.28
804.89	3178.45
805.06	3078.10
805.24	3018.71
805.41	2881.49
805.58	3143.63
805.76	3809.22
805.93	3028.95
806.10	3205.07
806.28	3454.92
806.45	3205.07
806.63	3203.02
806.80	3125.20
806.97	3231.69
807.15	3260.37
807.32	3168.21
807.49	3000.27
807.67	3106.77
807.84	3370.96
808.01	2928.60
808.19	3248.08
808.36	3719.11
808.54	3174.35
808.71	3117.01
808.88	3049.43
809.06	3495.88
809.23	3479.50
809.40	3127.25
809.58	3049.43
809.75	3239.89
809.92	2992.08
810.10	3344.33
810.27	3053.52
810.44	3266.51
810.62	3323.85
810.79	3108.82
810.96	3074.00
811.14	3276.75
811.31	3315.66
811.48	3239.89
811.66	3100.62
811.83	3506.12
812.00	3428.30
812.18	3229.65
812.35	3438.54
812.52	3196.88
812.69	3227.60
812.87	3033.04
813.04	3106.77
813.21	3248.08
813.39	3117.01
813.56	3012.56
813.73	3291.09
813.91	3030.99
814.08	3286.99
814.25	3090.38
814.42	2822.10
814.60	3207.12
814.77	3291.09
814.94	2983.89
815.12	3215.31
815.29	3680.20
815.46	3063.76
815.63	3074.00
815.81	3057.62
815.98	3235.79
816.15	3213.26
816.33	3221.45
816.50	3172.30
816.67	3246.03
816.84	3276.75
817.02	2975.70
817.19	3049.43
817.36	3299.28
817.53	3346.38
817.71	2985.94
817.88	3153.87
818.05	3256.27
818.22	3176.40
818.40	3313.61
818.57	3098.58
818.74	3327.95
818.91	3248.08
819.09	3276.75
819.26	3262.41
819.43	3139.54
819.60	3098.58
819.78	3295.18
819.95	3080.14
820.12	3043.28
820.29	3536.84
820.47	3393.48
820.64	2975.70
820.81	3010.51
820.98	3170.26
821.15	3090.38
821.33	3297.23
821.50	2967.51
821.67	3450.83
821.84	3041.23
822.02	3035.09
822.19	3461.07
822.36	3147.73
822.53	3008.47
822.70	2998.23
822.88	3291.09
823.05	3504.07
823.22	3119.06
823.39	3049.43
823.56	3186.64
823.74	3702.73
823.91	2934.74
824.08	2977.75
824.25	3092.43
824.42	3575.75
824.60	2918.36
824.77	3211.22
824.94	3225.55
825.11	3368.91
825.28	2865.11
825.45	3188.69
825.63	3338.19
825.80	3047.38
825.97	3106.77
826.14	3135.44
826.31	2963.41
826.48	3397.58
826.66	3057.62
826.83	3063.76
827.00	3133.39
827.17	3160.02
827.34	3233.74
827.51	3074.00
827.69	3319.76
827.86	2975.70
828.03	3106.77
828.20	3145.68
828.37	3049.43
828.54	3319.76
828.71	3020.75
828.89	3157.97
829.06	3336.14
829.23	3516.36
829.40	3098.58
829.57	3016.66
829.74	3387.34
829.91	3127.25
830.09	2983.89
830.26	3157.97
830.43	3551.18
830.60	3239.89
830.77	3174.35
830.94	3284.94
831.11	3416.01
831.28	3145.68
831.46	3184.59
831.63	3147.73
831.80	3418.06
831.97	3020.75
832.14	3082.19
832.31	3114.96
832.48	3278.80
832.65	3416.01
832.82	3143.63
832.99	3190.74
833.17	3039.19
833.34	3592.14
833.51	3024.85
833.68	2818.00
833.85	3512.27
834.02	3055.57
834.19	3071.95
834.36	3133.39
834.53	3264.46
834.70	3407.82
834.87	3100.62
835.04	2887.64
835.22	3137.49
835.39	3289.04
835.56	2869.20
835.73	2983.89
835.90	3385.29
836.07	3090.38
836.24	3057.62
836.41	2799.57
836.58	3108.82
836.75	3446.73
836.92	2938.84
837.09	2879.44
837.26	3405.77
837.43	3321.81
837.60	2955.22
837.77	2936.79
837.94	3426.25
838.12	3540.94
838.29	2822.10
838.46	2824.15
838.63	3149.78
838.80	3547.08
838.97	2944.98
839.14	2863.06
839.31	3219.41
839.48	3315.66
839.65	2934.74
839.82	2940.88
839.99	3352.52
840.16	3289.04
840.33	2871.25
840.50	2963.41
840.67	3059.67
840.84	2779.09
841.01	2951.12
841.18	2871.25
841.35	3262.41
841.52	3397.58
841.69	3219.41
841.86	2893.78
842.03	3225.55
842.20	3383.24
842.37	2922.45
842.54	2947.03
842.71	3379.15
842.88	2969.55
843.05	2895.83
843.22	2957.27
843.39	3467.21
843.56	3074.00
843.73	2895.83
843.90	2981.84
844.07	3221.45
844.24	3459.02
844.41	2920.40
844.58	2973.65
844.75	3243.98
844.92	3332.05
845.09	2977.75
845.26	2865.11
845.43	3373.00
845.60	3180.50
845.77	3104.72
845.94	3004.37
846.10	3446.73
846.27	2981.84
846.44	2758.61
846.61	2873.30
846.78	3409.87
846.95	3385.29
847.12	2887.64
847.29	2926.55
847.46	3160.02
847.63	3514.31
847.80	2850.77
847.97	2863.06
848.14	3682.25
848.31	3160.02
848.48	2754.52
848.65	2895.83
848.82	3125.20
848.98	3850.18
849.15	3045.33
849.32	3088.34
849.49	3504.07
849.66	3192.78
849.83	2971.60
850.00	2869.20
850.17	3420.11
850.34	3155.92
850.51	2844.63
850.68	2953.17
850.85	3692.49
851.01	3284.94
851.18	2871.25
851.35	2901.97
851.52	3389.39
851.69	3557.32
851.86	2914.26
852.03	2934.74
852.20	3395.53
852.37	3330.00
852.53	2828.24
852.70	2889.68
852.87	3295.18
853.04	3401.68
853.21	2889.68
853.38	3225.55
853.55	3598.28
853.72	3383.24
853.89	2811.86
854.05	2865.11
854.22	3315.66
854.39	3209.17
854.56	2987.99
854.73	3088.34
854.90	3194.83
855.07	3196.88
855.23	2824.15
855.40	2762.71
855.57	3186.64
855.74	2926.55
855.91	3192.78
856.08	2789.33
856.25	2977.75
856.41	3176.40
856.58	2971.60
856.75	2934.74
856.92	3053.52
857.09	3379.15
857.26	2764.76
857.42	2863.06
857.59	3393.48
857.76	3266.51
857.93	2920.40
858.10	3000.27
858.27	3053.52
858.43	3268.56
858.60	2822.10
858.77	2813.91
858.94	3074.00
859.11	3467.21
859.27	3037.14
859.44	2883.54
859.61	3751.88
859.78	3344.33
859.95	2897.88
860.12	2787.29
860.28	3606.47
860.45	3637.19
860.62	2824.15
860.79	3080.14
860.95	3147.73
861.12	3098.58
861.29	2854.87
861.46	2877.40
861.63	3211.22
861.79	3309.52
861.96	2820.05
862.13	2885.59
862.30	3467.21
862.47	3123.15
862.63	2824.15
862.80	2912.21
862.97	3418.06
863.14	3327.95
863.30	2947.03
863.47	2836.44
863.64	3598.28
863.81	3311.57
863.97	2822.10
864.14	2934.74
864.31	3213.26
864.48	3268.56
864.65	2877.40
864.81	3014.61
864.98	3327.95
865.15	3373.00
865.32	2930.64
865.48	3084.24
865.65	3657.67
865.82	3133.39
865.98	3033.04
866.15	2936.79
866.32	3250.13
866.49	3268.56
866.65	3184.59
866.82	2977.75
866.99	3215.31
867.16	3180.50
867.32	2947.03
867.49	2787.29
867.66	3215.31
867.83	3182.54
867.99	2858.96
868.16	2934.74
868.33	3114.96
868.49	3256.27
868.66	2936.79
868.83	2975.70
868.99	3299.28
869.16	3358.67
869.33	3045.33
869.50	2934.74
869.66	3268.56
869.83	3164.11
870.00	2822.10
870.16	3100.62
870.33	3233.74
870.50	3370.96
870.66	3067.86
870.83	2895.83
871.00	3270.61
871.17	3354.57
871.33	2983.89
871.50	2897.88
871.67	3213.26
871.83	3174.35
872.00	2973.65
872.17	2977.75
872.33	3491.79
872.50	3477.45
872.67	2912.21
872.83	2944.98
873.00	3356.62
873.17	3190.74
873.33	2912.21
873.50	2983.89
873.67	3114.96
873.83	3155.92
874.00	2891.73
874.16	3110.86
874.33	3352.52
874.50	3024.85
874.66	2879.44
874.83	3016.66
875.00	3475.40
875.16	3450.83
875.33	3016.66
875.50	2740.18
875.66	3194.83
875.83	3190.74
875.99	2971.60
876.16	3084.24
876.33	3024.85
876.49	3160.02
876.66	2969.55
876.83	3012.56
876.99	2938.84
877.16	3280.85
877.32	2809.81
877.49	2967.51
877.66	3383.24
877.82	3553.23
877.99	2983.89
878.15	3190.74
878.32	3260.37
878.49	3395.53
878.65	2955.22
878.82	3172.30
878.98	3164.11
879.15	3557.32
879.32	3133.39
879.48	3155.92
879.65	3223.50
879.81	3147.73
879.98	3035.09
880.15	3049.43
880.31	3411.92
880.48	3114.96
880.64	3045.33
880.81	3094.48
880.97	3565.51
881.14	3555.27
881.31	2883.54
881.47	3018.71
881.64	3209.17
881.80	2953.17
881.97	3135.44
882.13	2985.94
882.30	3057.62
882.47	3182.54
882.63	2985.94
882.80	2885.59
882.96	3170.26
883.13	3461.07
883.29	2922.45
883.46	2869.20
883.62	3712.97
883.79	3246.03
883.95	3084.24
884.12	2885.59
884.29	3467.21
884.45	3241.93
884.62	2971.60
884.78	2871.25
884.95	3565.51
885.11	3008.47
885.28	3033.04
885.44	2985.94
885.61	3438.54
885.77	3563.47
885.94	3086.29
886.10	3024.85
886.27	3286.99
886.43	3602.38
886.60	3162.06
886.76	2951.12
886.93	3074.00
887.09	3254.22
887.26	2852.82
887.42	3067.86
887.59	3514.31
887.75	3737.54
887.92	3112.91
888.08	3086.29
888.25	3645.38
888.41	3471.31
888.58	2920.40
888.74	2914.26
888.91	3117.01
>>>>>End Processed Spectral Data<<<<<
