SpectraSuite Data File
++++++++++++++++++++++++++++++++++++
Date: Fri May 06 08:13:52 CEST 2016
User: root
Dark Spectrum Present: No
Reference Spectrum Present: No
Number of Sampled Component Spectra: 1
Spectrometers: USB4C02835
Integration Time (usec): 100000 (USB4C02835)
Spectra Averaged: 1 (USB4C02835)
Boxcar Smoothing: 0 (USB4C02835)
Correct for Electrical Dark: No (USB4C02835)
Strobe/Lamp Enabled: No (USB4C02835)
Correct for Detector Non-linearity: No (USB4C02835)
Correct for Stray Light: No (USB4C02835)
Number of Pixels in Processed Spectrum: 3648
>>>>>Begin Processed Spectral Data<<<<<
177.47	2217.95
177.69	2217.95
177.91	2217.95
178.13	2281.44
178.36	2263.01
178.58	3033.04
178.80	3194.83
179.02	3006.42
179.24	3033.04
179.46	2746.33
179.68	2795.48
179.90	3248.08
180.13	3360.72
180.35	2641.88
180.57	2766.81
180.79	3450.83
181.01	3293.13
181.23	2830.29
181.45	3045.33
181.67	3426.25
181.90	3467.21
182.12	2942.93
182.34	2725.85
182.56	3409.87
182.78	3348.43
183.00	2914.26
183.22	2932.69
183.44	2922.45
183.66	3895.24
183.89	3000.27
184.11	2883.54
184.33	3411.92
184.55	3377.10
184.77	2908.12
184.99	2850.77
185.21	3186.64
185.43	3839.94
185.65	2850.77
185.87	2865.11
186.10	3745.73
186.32	3811.27
186.54	2961.36
186.76	2953.17
186.98	3428.30
187.20	3241.93
187.42	2897.88
187.64	2836.44
187.86	3389.39
188.08	3473.36
188.30	2793.43
188.52	2854.87
188.75	3553.23
188.97	3524.55
189.19	2836.44
189.41	2822.10
189.63	3344.33
189.85	3211.22
190.07	2707.41
190.29	2721.75
190.51	3377.10
190.73	2947.03
190.95	3119.06
191.17	2910.16
191.39	3002.32
191.61	3239.89
191.84	2852.82
192.06	2994.13
192.28	2971.60
192.50	3876.80
192.72	3024.85
192.94	2928.60
193.16	3477.45
193.38	3344.33
193.60	2840.53
193.82	3008.47
194.04	3608.52
194.26	3330.00
194.48	2863.06
194.70	2850.77
194.92	3182.54
195.14	3420.11
195.36	2822.10
195.58	2967.51
195.80	3243.98
196.02	3176.40
196.24	2844.63
196.46	2936.79
196.69	3149.78
196.91	3790.79
197.13	2906.07
197.35	2975.70
197.57	3594.19
197.79	3493.83
198.01	2932.69
198.23	2899.92
198.45	3377.10
198.67	3033.04
198.89	2656.22
199.11	2895.83
199.33	3168.21
199.55	2881.49
199.77	2803.67
199.99	2967.51
200.21	3211.22
200.43	3264.46
200.65	2711.51
200.87	2705.37
201.09	3301.33
201.31	3262.41
201.53	2889.68
201.75	2889.68
201.97	3350.48
202.19	3243.98
202.41	3014.61
202.63	3028.95
202.85	3405.77
203.07	3327.95
203.29	2904.02
203.51	2799.57
203.73	3147.73
203.95	3764.17
204.17	2830.29
204.39	3012.56
204.61	3256.27
204.83	3200.98
205.05	3039.19
205.27	2869.20
205.49	3770.31
205.71	3246.03
205.93	2779.09
206.15	2789.33
206.37	3311.57
206.59	3286.99
206.81	2705.37
207.03	2738.13
207.25	3176.40
207.47	3342.28
207.69	2883.54
207.91	3131.34
208.13	3645.38
208.34	3174.35
208.56	2815.96
208.78	2844.63
209.00	3164.11
209.22	3108.82
209.44	2899.92
209.66	2807.77
209.88	3377.10
210.10	3184.59
210.32	2891.73
210.54	2895.83
210.76	3196.88
210.98	3477.45
211.20	2775.00
211.42	2992.08
211.64	3532.75
211.86	3330.00
212.08	2951.12
212.30	2875.35
212.52	3235.79
212.74	3260.37
212.96	2975.70
213.17	2932.69
213.39	3424.20
213.61	3688.39
213.83	2766.81
214.05	2723.80
214.27	3491.79
214.49	3057.62
214.71	2811.86
214.93	3008.47
215.15	3268.56
215.37	3422.16
215.59	2729.94
215.81	2885.59
216.03	3540.94
216.24	3291.09
216.46	2834.39
216.68	2916.31
216.90	3385.29
217.12	3450.83
217.34	2869.20
217.56	3012.56
217.78	3573.71
218.00	3426.25
218.22	2910.16
218.44	2967.51
218.66	3291.09
218.87	3749.83
219.09	2947.03
219.31	2881.49
219.53	3282.89
219.75	3190.74
219.97	2865.11
220.19	2949.08
220.41	3215.31
220.63	3559.37
220.85	2940.88
221.06	2944.98
221.28	3585.99
221.50	3491.79
221.72	2811.86
221.94	2781.14
222.16	3379.15
222.38	3545.03
222.60	2797.53
222.82	2887.64
223.03	3485.64
223.25	3024.85
223.47	2830.29
223.69	3106.77
223.91	3481.55
224.13	3377.10
224.35	2760.66
224.57	2901.97
224.78	3413.96
225.00	3164.11
225.22	2959.31
225.44	2850.77
225.66	3497.93
225.88	3241.93
226.10	3026.90
226.32	2877.40
226.53	3616.71
226.75	3188.69
226.97	2987.99
227.19	2852.82
227.41	3102.67
227.63	3108.82
227.85	2707.41
228.06	3000.27
228.28	3327.95
228.50	3534.79
228.72	2762.71
228.94	2779.09
229.16	2820.05
229.37	3014.61
229.59	2713.56
229.81	3076.05
230.03	3243.98
230.25	3049.43
230.47	2715.61
230.69	2795.48
230.90	3467.21
231.12	3117.01
231.34	3012.56
231.56	2947.03
231.78	3104.72
232.00	3280.85
232.21	2865.11
232.43	2889.68
232.65	2867.16
232.87	3368.91
233.09	2686.94
233.30	2844.63
233.52	3598.28
233.74	3256.27
233.96	2783.19
234.18	3049.43
234.40	3270.61
234.61	3706.82
234.83	2764.76
235.05	2926.55
235.27	3690.44
235.49	3557.32
235.70	2746.33
235.92	2959.31
236.14	3360.72
236.36	3704.78
236.58	2756.57
236.79	2926.55
237.01	3352.52
237.23	3256.27
237.45	3028.95
237.67	2912.21
237.88	3512.27
238.10	3602.38
238.32	2719.70
238.54	2787.29
238.76	3256.27
238.97	3094.48
239.19	2772.95
239.41	2914.26
239.63	3489.74
239.85	3172.30
240.06	2869.20
240.28	2824.15
240.50	3557.32
240.72	3272.65
240.93	2740.18
241.15	3028.95
241.37	3311.57
241.59	3549.13
241.81	2752.47
242.02	2930.64
242.24	3336.14
242.46	3418.06
242.68	2779.09
242.89	2822.10
243.11	3452.88
243.33	3241.93
243.55	2979.79
243.76	2918.36
243.98	3151.82
244.20	3278.80
244.42	2891.73
244.64	2748.37
244.85	2951.12
245.07	3057.62
245.29	2957.27
245.51	2897.88
245.72	3330.00
245.94	3461.07
246.16	2848.72
246.38	2852.82
246.59	3205.07
246.81	3157.97
247.03	2846.68
247.24	2758.61
247.46	3164.11
247.68	3413.96
247.90	2830.29
248.11	2871.25
248.33	3465.16
248.55	3270.61
248.77	2893.78
248.98	2981.84
249.20	3674.06
249.42	3305.42
249.64	2719.70
249.85	2787.29
250.07	3196.88
250.29	3432.40
250.50	2897.88
250.72	2797.53
250.94	3350.48
251.16	3776.45
251.37	2848.72
251.59	2967.51
251.81	3295.18
252.02	3534.79
252.24	2807.77
252.46	3012.56
252.68	3117.01
252.89	3149.78
253.11	2736.09
253.33	3012.56
253.54	3581.90
253.76	3035.09
253.98	2822.10
254.20	2779.09
254.41	2975.70
254.63	3176.40
254.85	2742.23
255.06	2990.03
255.28	3264.46
255.50	3205.07
255.71	2846.68
255.93	2713.56
256.15	3233.74
256.36	3364.81
256.58	2754.52
256.80	2770.90
257.02	3213.26
257.23	3231.69
257.45	2910.16
257.67	2930.64
257.88	3200.98
258.10	3424.20
258.32	2877.40
258.53	2908.12
258.75	3583.95
258.97	3180.50
259.18	2758.61
259.40	2856.92
259.62	3663.82
259.83	3583.95
260.05	2949.08
260.27	3792.84
260.48	3483.59
260.70	3069.91
260.92	2748.37
261.13	2856.92
261.35	3377.10
261.57	3373.00
261.78	2807.77
262.00	2746.33
262.22	3375.05
262.43	3135.44
262.65	2867.16
262.86	2846.68
263.08	3755.97
263.30	3346.38
263.51	2754.52
263.73	2793.43
263.95	3639.24
264.16	3125.20
264.38	2662.36
264.60	2777.05
264.81	3221.45
265.03	3434.44
265.25	3311.57
265.46	2815.96
265.68	3520.46
265.89	3426.25
266.11	2746.33
266.33	2873.30
266.54	3516.36
266.76	3436.49
266.98	2959.31
267.19	3082.19
267.41	3485.64
267.62	3250.13
267.84	2699.22
268.06	3026.90
268.27	3424.20
268.49	3489.74
268.70	2965.46
268.92	2852.82
269.14	3051.47
269.35	3043.28
269.57	2934.74
269.79	2869.20
270.00	3108.82
270.22	3659.72
270.43	2775.00
270.65	2779.09
270.87	3303.37
271.08	3403.72
271.30	2928.60
271.51	2772.95
271.73	3422.16
271.95	3516.36
272.16	2863.06
272.38	3008.47
272.59	3143.63
272.81	3403.72
273.02	2768.85
273.24	2906.07
273.46	3504.07
273.67	3045.33
273.89	2682.84
274.10	2904.02
274.32	3553.23
274.54	3377.10
274.75	3043.28
274.97	3000.27
275.18	3420.11
275.40	3422.16
275.61	2904.02
275.83	3018.71
276.05	3033.04
276.26	3254.22
276.48	3020.75
276.69	3039.19
276.91	3215.31
277.12	3565.51
277.34	3022.80
277.55	3182.54
277.77	3307.47
277.99	3286.99
278.20	3055.57
278.42	2893.78
278.63	3127.25
278.85	3151.82
279.06	2971.60
279.28	3102.67
279.49	3440.59
279.71	3395.53
279.93	3084.24
280.14	3026.90
280.36	3162.06
280.57	3549.13
280.79	3125.20
281.00	2863.06
281.22	3184.59
281.43	3463.12
281.65	2770.90
281.86	2983.89
282.08	3393.48
282.29	3708.87
282.51	2861.01
282.73	2856.92
282.94	2912.21
283.16	3559.37
283.37	3133.39
283.59	3045.33
283.80	3426.25
284.02	3231.69
284.23	2971.60
284.45	3035.09
284.66	3057.62
284.88	3094.48
285.09	2889.68
285.31	3125.20
285.52	3375.05
285.74	2994.13
285.95	3088.34
286.17	3026.90
286.38	3459.02
286.60	3151.82
286.81	2969.55
287.03	2947.03
287.24	3254.22
287.46	3389.39
287.67	3162.06
287.89	3176.40
288.10	3248.08
288.32	3303.37
288.53	3137.49
288.75	3041.23
288.96	3426.25
289.18	3143.63
289.39	2947.03
289.61	3104.72
289.82	3710.92
290.04	3719.11
290.25	2895.83
290.47	3012.56
290.68	3286.99
290.90	3516.36
291.11	2787.29
291.33	3143.63
291.54	3155.92
291.76	3133.39
291.97	3051.47
292.18	3155.92
292.40	3145.68
292.61	3137.49
292.83	3291.09
293.04	3117.01
293.26	3332.05
293.47	3209.17
293.69	2881.49
293.90	2938.84
294.12	3545.03
294.33	3258.32
294.55	3090.38
294.76	3114.96
294.97	3590.09
295.19	3696.58
295.40	2940.88
295.62	3041.23
295.83	3399.63
296.05	3168.21
296.26	3286.99
296.48	2949.08
296.69	3286.99
296.90	3205.07
297.12	3157.97
297.33	3123.15
297.55	3311.57
297.76	3385.29
297.98	3125.20
298.19	3170.26
298.41	3215.31
298.62	3149.78
298.83	3196.88
299.05	3131.34
299.26	3237.84
299.48	2942.93
299.69	3037.14
299.90	3000.27
300.12	3170.26
300.33	3442.64
300.55	3053.52
300.76	3057.62
300.98	3074.00
301.19	3413.96
301.40	2992.08
301.62	2985.94
301.83	3377.10
302.05	3327.95
302.26	3065.81
302.47	3086.29
302.69	3041.23
302.90	3295.18
303.12	2770.90
303.33	3069.91
303.54	3626.95
303.76	3160.02
303.97	2985.94
304.19	3194.83
304.40	2979.79
304.61	3364.81
304.83	3076.05
305.04	3059.67
305.26	3493.83
305.47	3168.21
305.68	3033.04
305.90	2861.01
306.11	3467.21
306.33	3223.50
306.54	2867.16
306.75	3012.56
306.97	3002.32
307.18	3098.58
307.39	2971.60
307.61	3139.54
307.82	3141.58
308.04	3385.29
308.25	2914.26
308.46	3114.96
308.68	3211.22
308.89	3239.89
309.10	3100.62
309.32	3002.32
309.53	3274.70
309.74	3364.81
309.96	2856.92
310.17	3074.00
310.39	3291.09
310.60	3471.31
310.81	3065.81
311.03	2992.08
311.24	3430.35
311.45	3303.37
311.67	3200.98
311.88	3051.47
312.09	3143.63
312.31	3135.44
312.52	2932.69
312.73	2987.99
312.95	3008.47
313.16	3024.85
313.37	3192.78
313.59	3243.98
313.80	3391.44
314.01	3585.99
314.23	3028.95
314.44	2924.50
314.65	3043.28
314.87	3219.41
315.08	2967.51
315.29	2981.84
315.51	3088.34
315.72	3045.33
315.93	3061.71
316.15	2979.79
316.36	3256.27
316.57	3280.85
316.79	2967.51
317.00	2967.51
317.21	3516.36
317.43	3092.43
317.64	3086.29
317.85	2979.79
318.07	3078.10
318.28	3174.35
318.49	3080.14
318.70	3176.40
318.92	3379.15
319.13	3409.87
319.34	3188.69
319.56	3018.71
319.77	3426.25
319.98	3448.78
320.20	3350.48
320.41	3200.98
320.62	3424.20
320.83	3080.14
321.05	3166.16
321.26	3049.43
321.47	3323.85
321.69	3555.27
321.90	2947.03
322.11	2932.69
322.32	3360.72
322.54	3604.42
322.75	2979.79
322.96	3999.68
323.18	2953.17
323.39	2861.01
323.60	2944.98
323.81	3102.67
324.03	3168.21
324.24	3262.41
324.45	3078.10
324.66	2934.74
324.88	3463.12
325.09	3594.19
325.30	3022.80
325.52	2899.92
325.73	3377.10
325.94	3088.34
326.15	2852.82
326.37	2961.36
326.58	3497.93
326.79	3629.00
327.00	2873.30
327.22	3033.04
327.43	3176.40
327.64	3037.14
327.85	3127.25
328.07	2987.99
328.28	3667.91
328.49	3246.03
328.70	3008.47
328.92	2959.31
329.13	3268.56
329.34	3334.09
329.55	3266.51
329.76	3098.58
329.98	3252.17
330.19	3557.32
330.40	3049.43
330.61	3028.95
330.83	3397.58
331.04	3076.05
331.25	3137.49
331.46	3057.62
331.68	3176.40
331.89	3479.50
332.10	2938.84
332.31	2893.78
332.52	3309.52
332.74	3583.95
332.95	2838.48
333.16	2908.12
333.37	3436.49
333.58	3174.35
333.80	2983.89
334.01	2795.48
334.22	3246.03
334.43	3114.96
334.64	2936.79
334.86	2887.64
335.07	3088.34
335.28	3542.99
335.49	2863.06
335.70	3108.82
335.92	3594.19
336.13	3715.02
336.34	3141.58
336.55	2961.36
336.76	3352.52
336.98	2967.51
337.19	3039.19
337.40	3082.19
337.61	3755.97
337.82	3184.59
338.04	3078.10
338.25	2795.48
338.46	3260.37
338.67	3284.94
338.88	2891.73
339.09	2899.92
339.31	3153.87
339.52	3053.52
339.73	2955.22
339.94	2924.50
340.15	3465.16
340.36	3180.50
340.58	3057.62
340.79	2947.03
341.00	3358.67
341.21	3057.62
341.42	3256.27
341.63	3055.57
341.85	3489.74
342.06	3377.10
342.27	2979.79
342.48	3198.93
342.69	3016.66
342.90	3370.96
343.12	3377.10
343.33	2967.51
343.54	3463.12
343.75	3502.03
343.96	3059.67
344.17	2977.75
344.38	3256.27
344.60	3112.91
344.81	3000.27
345.02	3024.85
345.23	3469.26
345.44	3792.84
345.65	3135.44
345.86	3094.48
346.07	3325.90
346.29	3149.78
346.50	3213.26
346.71	3178.45
346.92	3510.22
347.13	3696.58
347.34	3065.81
347.55	2885.59
347.76	3370.96
347.98	2967.51
348.19	3131.34
348.40	3123.15
348.61	3151.82
348.82	3569.61
349.03	3059.67
349.24	2846.68
349.45	3641.29
349.66	2904.02
349.88	2973.65
350.09	2871.25
350.30	3575.75
350.51	3528.65
350.72	3237.84
350.93	2965.46
351.14	3209.17
351.35	3373.00
351.56	2957.27
351.77	3065.81
351.99	3407.82
352.20	3512.27
352.41	3137.49
352.62	2781.14
352.83	3286.99
353.04	3303.37
353.25	2971.60
353.46	3065.81
353.67	3452.88
353.88	2844.63
354.09	2947.03
354.30	3076.05
354.52	3383.24
354.73	3221.45
354.94	3026.90
355.15	3026.90
355.36	3653.58
355.57	3084.24
355.78	2879.44
355.99	3037.14
356.20	3211.22
356.41	3469.26
356.62	3096.53
356.83	3071.95
357.04	3518.41
357.25	3002.32
357.46	3065.81
357.68	2926.55
357.89	3160.02
358.10	3225.55
358.31	2994.13
358.52	3065.81
358.73	3049.43
358.94	3108.82
359.15	2955.22
359.36	3065.81
359.57	3305.42
359.78	3239.89
359.99	3190.74
360.20	2908.12
360.41	3268.56
360.62	3381.20
360.83	3164.11
361.04	3061.71
361.25	3344.33
361.46	3682.25
361.67	3117.01
361.88	3033.04
362.09	3446.73
362.30	3405.77
362.51	2975.70
362.72	3098.58
362.93	3430.35
363.14	3385.29
363.35	3102.67
363.56	2926.55
363.78	3475.40
363.99	3467.21
364.20	3008.47
364.41	3133.39
364.62	3620.81
364.83	3401.68
365.04	2959.31
365.25	3035.09
365.46	3688.39
365.67	3190.74
365.88	3176.40
366.09	2953.17
366.30	3237.84
366.51	3278.80
366.72	2936.79
366.93	2934.74
367.14	3291.09
367.35	3590.09
367.56	2924.50
367.77	3131.34
367.98	3217.36
368.18	3366.86
368.39	3162.06
368.60	2910.16
368.81	3411.92
369.02	3344.33
369.23	3020.75
369.44	2871.25
369.65	3268.56
369.86	3381.20
370.07	3121.10
370.28	2820.05
370.49	3416.01
370.70	3319.76
370.91	2926.55
371.12	2916.31
371.33	3547.08
371.54	3227.60
371.75	3127.25
371.96	2766.81
372.17	3391.44
372.38	3237.84
372.59	3055.57
372.80	2944.98
373.01	3203.02
373.22	3286.99
373.43	2963.41
373.64	2879.44
373.85	3491.79
374.06	3614.66
374.26	3211.22
374.47	3088.34
374.68	3512.27
374.89	3352.52
375.10	2901.97
375.31	3045.33
375.52	3313.61
375.73	3274.70
375.94	2897.88
376.15	3155.92
376.36	3123.15
376.57	3203.02
376.78	3076.05
376.99	3078.10
377.20	3497.93
377.40	3235.79
377.61	3307.47
377.82	2938.84
378.03	3583.95
378.24	3401.68
378.45	3088.34
378.66	3090.38
378.87	2926.55
379.08	2981.84
379.29	2987.99
379.50	3178.45
379.71	3223.50
379.91	3317.71
380.12	2967.51
380.33	3117.01
380.54	3319.76
380.75	3229.65
380.96	2983.89
381.17	3026.90
381.38	3237.84
381.59	3342.28
381.80	3092.43
382.00	3266.51
382.21	3375.05
382.42	3680.20
382.63	3377.10
382.84	3117.01
383.05	3422.16
383.26	3516.36
383.47	3157.97
383.68	3008.47
383.88	3450.83
384.09	3323.85
384.30	3336.14
384.51	3123.15
384.72	3194.83
384.93	3053.52
385.14	3117.01
385.35	3330.00
385.55	2983.89
385.76	3483.59
385.97	3059.67
386.18	2897.88
386.39	3147.73
386.60	3121.10
386.81	3014.61
387.02	2869.20
387.22	3049.43
387.43	3385.29
387.64	3160.02
387.85	3291.09
388.06	3389.39
388.27	4497.34
388.48	7919.50
388.68	12209.99
388.89	15062.81
389.10	16635.65
389.31	16156.43
389.52	13125.43
389.73	11312.98
389.93	10323.81
390.14	9203.57
390.35	8632.19
390.56	7905.16
390.77	6627.23
390.98	5023.67
391.18	4186.05
391.39	3868.61
391.60	3426.25
391.81	3352.52
392.02	3164.11
392.23	3710.92
392.43	3317.71
392.64	3059.67
392.85	3141.58
393.06	3661.77
393.27	3266.51
393.47	2998.23
393.68	3074.00
393.89	3172.30
394.10	3516.36
394.31	2934.74
394.52	2936.79
394.72	3205.07
394.93	3504.07
395.14	2914.26
395.35	3155.92
395.56	3102.67
395.76	3176.40
395.97	2959.31
396.18	3123.15
396.39	3164.11
396.60	3829.70
396.80	3399.63
397.01	3260.37
397.22	3434.44
397.43	3569.61
397.64	3035.09
397.84	3106.77
398.05	3663.82
398.26	3289.04
398.47	3114.96
398.67	3248.08
398.88	3254.22
399.09	3418.06
399.30	3114.96
399.51	3102.67
399.71	3172.30
399.92	3196.88
400.13	3164.11
400.34	3033.04
400.54	3264.46
400.75	3672.01
400.96	3184.59
401.17	3338.19
401.37	3319.76
401.58	3291.09
401.79	2947.03
402.00	3180.50
402.21	3807.17
402.41	3598.28
402.62	3354.57
402.83	3499.98
403.04	3698.63
403.24	4061.12
403.45	3207.12
403.66	3395.53
403.87	3524.55
404.07	3598.28
404.28	3278.80
404.49	3428.30
404.70	3391.44
404.90	3416.01
405.11	3074.00
405.32	3069.91
405.52	3209.17
405.73	3110.86
405.94	2994.13
406.15	3100.62
406.35	3452.88
406.56	3434.44
406.77	3104.72
406.98	3004.37
407.18	3114.96
407.39	3618.76
407.60	3106.77
407.80	3200.98
408.01	3217.36
408.22	3418.06
408.43	2871.25
408.63	3209.17
408.84	3452.88
409.05	3430.35
409.25	2944.98
409.46	2959.31
409.67	3200.98
409.88	3178.45
410.08	3086.29
410.29	3024.85
410.50	3434.44
410.70	3383.24
410.91	2908.12
411.12	3112.91
411.32	3332.05
411.53	3131.34
411.74	2990.03
411.95	3143.63
412.15	3364.81
412.36	3440.59
412.57	3315.66
412.77	3260.37
412.98	3207.12
413.19	3135.44
413.39	3217.36
413.60	3053.52
413.81	3553.23
414.01	3123.15
414.22	3090.38
414.43	3262.41
414.63	3184.59
414.84	3383.24
415.05	3123.15
415.25	2893.78
415.46	3465.16
415.67	3149.78
415.87	3082.19
416.08	3043.28
416.29	3209.17
416.49	3387.34
416.70	3114.96
416.91	3049.43
417.11	3192.78
417.32	3520.46
417.53	3065.81
417.73	3149.78
417.94	3194.83
418.15	3350.48
418.35	3069.91
418.56	3110.86
418.77	3733.45
418.97	3346.38
419.18	3108.82
419.38	2682.84
419.59	3246.03
419.80	3549.13
420.00	2951.12
420.21	3043.28
420.42	3569.61
420.62	3393.48
420.83	3037.14
421.04	3002.32
421.24	3286.99
421.45	3436.49
421.65	3102.67
421.86	3106.77
422.07	3452.88
422.27	3352.52
422.48	2979.79
422.69	2854.87
422.89	3319.76
423.10	3229.65
423.30	2932.69
423.51	3147.73
423.72	3311.57
423.92	3465.16
424.13	2901.97
424.33	3121.10
424.54	3440.59
424.75	3264.46
424.95	3375.05
425.16	3014.61
425.36	3311.57
425.57	3493.83
425.78	3135.44
425.98	3133.39
426.19	3180.50
426.39	3162.06
426.60	3205.07
426.81	3262.41
427.01	3330.00
427.22	3110.86
427.42	2904.02
427.63	3000.27
427.83	3379.15
428.04	3737.54
428.25	3098.58
428.45	3184.59
428.66	3571.66
428.86	3282.89
429.07	3080.14
429.28	3104.72
429.48	3278.80
429.69	3114.96
429.89	3149.78
430.10	3028.95
430.30	3391.44
430.51	3422.16
430.71	3069.91
430.92	3137.49
431.13	3254.22
431.33	3397.58
431.54	3133.39
431.74	3254.22
431.95	3755.97
432.15	3086.29
432.36	3043.28
432.56	3104.72
432.77	3725.26
432.98	3682.25
433.18	3127.25
433.39	2914.26
433.59	3241.93
433.80	3753.93
434.00	3319.76
434.21	3049.43
434.41	3147.73
434.62	3731.40
434.82	2938.84
435.03	3008.47
435.23	3364.81
435.44	3000.27
435.64	3000.27
435.85	3149.78
436.06	3393.48
436.26	3469.26
436.47	3026.90
436.67	3041.23
436.88	3203.02
437.08	3418.06
437.29	3108.82
437.49	3223.50
437.70	3483.59
437.90	3221.45
438.11	3297.23
438.31	3057.62
438.52	3555.27
438.72	3487.69
438.93	3336.14
439.13	3143.63
439.34	3518.41
439.54	3149.78
439.75	3129.30
439.95	3213.26
440.16	3129.30
440.36	3327.95
440.57	3076.05
440.77	3026.90
440.98	3217.36
441.18	3336.14
441.39	3006.42
441.59	2910.16
441.80	3672.01
442.00	3188.69
442.21	3192.78
442.41	2992.08
442.62	3485.64
442.82	3217.36
443.02	3030.99
443.23	3065.81
443.43	3211.22
443.64	3551.18
443.84	2930.64
444.05	3092.43
444.25	3356.62
444.46	3215.31
444.66	3033.04
444.87	3241.93
445.07	3016.66
445.28	3205.07
445.48	3297.23
445.69	3155.92
445.89	3809.22
446.09	3213.26
446.30	3368.91
446.50	3473.36
446.71	5070.77
446.91	6268.83
447.12	7149.46
447.32	7669.64
447.53	7731.08
447.73	6479.77
447.93	5506.99
448.14	5279.66
448.34	5449.64
448.55	4661.18
448.75	4505.53
448.96	4112.32
449.16	4050.88
449.36	3975.11
449.57	3342.28
449.77	3155.92
449.98	3211.22
450.18	3362.76
450.39	2985.94
450.59	3196.88
450.79	3162.06
451.00	3100.62
451.20	3260.37
451.41	3092.43
451.61	3385.29
451.81	3246.03
452.02	3057.62
452.22	3041.23
452.43	3133.39
452.63	3114.96
452.84	3149.78
453.04	2965.46
453.24	3313.61
453.45	3143.63
453.65	3102.67
453.86	3102.67
454.06	3307.47
454.26	3336.14
454.47	2949.08
454.67	3268.56
454.87	3432.40
455.08	3205.07
455.28	3237.84
455.49	3215.31
455.69	3196.88
455.89	3680.20
456.10	3155.92
456.30	3030.99
456.51	3461.07
456.71	3225.55
456.91	3260.37
457.12	3026.90
457.32	3393.48
457.52	3024.85
457.73	3286.99
457.93	3286.99
458.14	3215.31
458.34	2885.59
458.54	3030.99
458.75	2951.12
458.95	3442.64
459.15	3393.48
459.36	3153.87
459.56	3114.96
459.76	3831.75
459.97	3233.74
460.17	3063.76
460.37	3147.73
460.58	3229.65
460.78	3311.57
460.99	3057.62
461.19	3047.38
461.39	3178.45
461.60	3198.93
461.80	3051.47
462.00	2895.83
462.21	3233.74
462.41	3200.98
462.61	2930.64
462.82	2846.68
463.02	3299.28
463.22	3272.65
463.43	3045.33
463.63	3030.99
463.83	3512.27
464.04	3301.33
464.24	2957.27
464.44	3033.04
464.64	3409.87
464.85	3440.59
465.05	3127.25
465.25	3047.38
465.46	3145.68
465.66	3428.30
465.86	3176.40
466.07	3028.95
466.27	3237.84
466.47	2975.70
466.68	2861.01
466.88	3182.54
467.08	3383.24
467.29	3502.03
467.49	3104.72
467.69	3196.88
467.89	3413.96
468.10	3239.89
468.30	3213.26
468.50	3188.69
468.71	3454.92
468.91	2969.55
469.11	3172.30
469.31	3051.47
469.52	3155.92
469.72	3565.51
469.92	3315.66
470.13	3030.99
470.33	3289.04
470.53	3393.48
470.73	3504.07
470.94	3868.61
471.14	4184.00
471.34	4736.95
471.54	4286.40
471.75	4087.75
471.95	3889.09
472.15	3803.08
472.36	3678.15
472.56	3590.09
472.76	3944.39
472.96	3616.71
473.17	3393.48
473.37	3293.13
473.57	3239.89
473.77	3403.72
473.98	3205.07
474.18	3002.32
474.38	3956.68
474.58	3190.74
474.79	2981.84
474.99	3184.59
475.19	3557.32
475.39	3067.86
475.60	3106.77
475.80	3059.67
476.00	3284.94
476.20	3241.93
476.41	3069.91
476.61	3178.45
476.81	3606.47
477.01	3133.39
477.21	3387.34
477.42	3131.34
477.62	3194.83
477.82	3491.79
478.02	2961.36
478.23	3082.19
478.43	3102.67
478.63	3125.20
478.83	3071.95
479.03	3121.10
479.24	3549.13
479.44	3717.06
479.64	2963.41
479.84	2877.40
480.04	3155.92
480.25	3430.35
480.45	2985.94
480.65	2942.93
480.85	3534.79
481.06	3205.07
481.26	3176.40
481.46	3039.19
481.66	3362.76
481.86	3119.06
482.06	3280.85
482.27	3043.28
482.47	3264.46
482.67	3340.24
482.87	3057.62
483.07	3157.97
483.28	3153.87
483.48	3082.19
483.68	3051.47
483.88	2955.22
484.08	2914.26
484.29	3067.86
484.49	3098.58
484.69	2858.96
484.89	3571.66
485.09	3534.79
485.29	3008.47
485.50	3207.12
485.70	3121.10
485.90	3590.09
486.10	3252.17
486.30	2965.46
486.50	3518.41
486.71	3274.70
486.91	3125.20
487.11	3074.00
487.31	2965.46
487.51	3346.38
487.71	3008.47
487.91	3033.04
488.12	3133.39
488.32	2852.82
488.52	3094.48
488.72	2820.05
488.92	3237.84
489.12	3506.12
489.32	3229.65
489.53	2967.51
489.73	3000.27
489.93	3661.77
490.13	2969.55
490.33	2832.34
490.53	3409.87
490.73	3471.31
490.94	2920.40
491.14	3180.50
491.34	3379.15
491.54	3452.88
491.74	4065.22
491.94	4544.44
492.14	5162.93
492.34	5318.57
492.54	4831.16
492.75	4200.38
492.95	4519.87
493.15	4161.47
493.35	3704.78
493.55	3739.59
493.75	3727.30
493.95	3880.90
494.15	3346.38
494.35	3215.31
494.56	3315.66
494.76	3110.86
494.96	3256.27
495.16	3008.47
495.36	3266.51
495.56	3262.41
495.76	3100.62
495.96	3045.33
496.16	3131.34
496.36	3655.62
496.56	3069.91
496.77	3145.68
496.97	3274.70
497.17	3520.46
497.37	2934.74
497.57	3121.10
497.77	3295.18
497.97	3045.33
498.17	3051.47
498.37	3039.19
498.57	3504.07
498.77	3223.50
498.97	3278.80
499.17	3383.24
499.38	3225.55
499.58	3311.57
499.78	3209.17
499.98	3194.83
500.18	3125.20
500.38	3166.16
500.58	3246.03
500.78	3766.21
500.98	6215.59
501.18	8275.84
501.38	9940.84
501.58	10843.99
501.78	10944.34
501.98	9006.97
502.18	7452.56
502.38	6559.64
502.58	6545.31
502.78	5752.74
502.98	5361.58
503.18	5199.79
503.38	4958.13
503.59	4249.54
503.79	4095.94
503.99	3725.26
504.19	3897.28
504.39	3983.30
504.59	3733.45
504.79	3637.19
504.99	4048.83
505.19	3604.42
505.39	3344.33
505.59	3495.88
505.79	3805.13
505.99	3530.70
506.19	3131.34
506.39	3377.10
506.59	3133.39
506.79	3243.98
506.99	3336.14
507.19	3061.71
507.39	3342.28
507.59	3045.33
507.79	3071.95
507.99	2967.51
508.19	3330.00
508.39	3235.79
508.59	3047.38
508.79	3174.35
508.99	3680.20
509.19	3137.49
509.39	3155.92
509.59	2926.55
509.79	3074.00
509.99	3332.05
510.19	3211.22
510.39	3186.64
510.59	3303.37
510.79	3172.30
510.99	2940.88
511.19	3016.66
511.39	3602.38
511.59	3434.44
511.79	3200.98
511.99	3043.28
512.19	3639.24
512.38	3211.22
512.58	3020.75
512.78	2955.22
512.98	3585.99
513.18	3700.68
513.38	2994.13
513.58	3135.44
513.78	3246.03
513.98	3241.93
514.18	3110.86
514.38	3039.19
514.58	3375.05
514.78	3172.30
514.98	2889.68
515.18	3119.06
515.38	3057.62
515.58	3590.09
515.78	3162.06
515.98	3028.95
516.18	3381.20
516.38	3295.18
516.57	3037.14
516.77	3065.81
516.97	3438.54
517.17	3080.14
517.37	2854.87
517.57	3147.73
517.77	3286.99
517.97	3147.73
518.17	3151.82
518.37	2975.70
518.57	3174.35
518.77	3233.74
518.97	3082.19
519.16	3168.21
519.36	3555.27
519.56	3123.15
519.76	3008.47
519.96	3112.91
520.16	3557.32
520.36	3086.29
520.56	3311.57
520.76	2996.18
520.96	3217.36
521.16	3436.49
521.35	3239.89
521.55	3119.06
521.75	3330.00
521.95	3174.35
522.15	3035.09
522.35	2895.83
522.55	3182.54
522.75	3401.68
522.95	2975.70
523.14	2863.06
523.34	3330.00
523.54	3172.30
523.74	3135.44
523.94	3157.97
524.14	3014.61
524.34	3362.76
524.54	3266.51
524.73	3104.72
524.93	3330.00
525.13	3327.95
525.33	3014.61
525.53	3336.14
525.73	3424.20
525.93	3301.33
526.13	3049.43
526.32	3000.27
526.52	3493.83
526.72	3368.91
526.92	2975.70
527.12	2961.36
527.32	2951.12
527.52	3278.80
527.71	3123.15
527.91	3164.11
528.11	3229.65
528.31	3219.41
528.51	3030.99
528.71	3198.93
528.90	3499.98
529.10	3491.79
529.30	3069.91
529.50	2772.95
529.70	3356.62
529.90	3291.09
530.09	3037.14
530.29	2918.36
530.49	3162.06
530.69	3827.65
530.89	3229.65
531.09	3065.81
531.28	3215.31
531.48	3477.45
531.68	3117.01
531.88	3039.19
532.08	3444.68
532.28	3278.80
532.47	3129.30
532.67	3221.45
532.87	3422.16
533.07	3084.24
533.27	3076.05
533.46	3106.77
533.66	3354.57
533.86	3231.69
534.06	3100.62
534.26	3102.67
534.45	3176.40
534.65	3459.02
534.85	3241.93
535.05	2987.99
535.25	3467.21
535.44	2918.36
535.64	3194.83
535.84	3063.76
536.04	3194.83
536.24	3219.41
536.43	2977.75
536.63	3049.43
536.83	3299.28
537.03	3254.22
537.22	2867.16
537.42	2926.55
537.62	3354.57
537.82	3041.23
538.02	3188.69
538.21	3035.09
538.41	3852.23
538.61	3393.48
538.81	3133.39
539.00	3157.97
539.20	2967.51
539.40	3225.55
539.60	3024.85
539.79	3295.18
539.99	3248.08
540.19	3151.82
540.39	3076.05
540.58	3057.62
540.78	3446.73
540.98	3246.03
541.18	3295.18
541.37	3086.29
541.57	3342.28
541.77	3336.14
541.97	3086.29
542.16	2887.64
542.36	3188.69
542.56	3213.26
542.76	3227.60
542.95	3129.30
543.15	3393.48
543.35	3370.96
543.54	3035.09
543.74	2959.31
543.94	3512.27
544.14	3069.91
544.33	3108.82
544.53	3051.47
544.73	3176.40
544.93	3211.22
545.12	3004.37
545.32	3033.04
545.52	3268.56
545.71	3098.58
545.91	3100.62
546.11	2959.31
546.30	3094.48
546.50	3246.03
546.70	3090.38
546.90	3108.82
547.09	2953.17
547.29	3286.99
547.49	3209.17
547.68	3127.25
547.88	3110.86
548.08	3389.39
548.27	3373.00
548.47	3016.66
548.67	3106.77
548.87	3424.20
549.06	2983.89
549.26	2965.46
549.46	3332.05
549.65	3145.68
549.85	3131.34
550.05	3090.38
550.24	3076.05
550.44	3266.51
550.64	3114.96
550.83	3104.72
551.03	3471.31
551.23	3409.87
551.42	3119.06
551.62	3155.92
551.82	3243.98
552.01	3237.84
552.21	3344.33
552.41	3155.92
552.60	3674.06
552.80	3338.19
553.00	2969.55
553.19	3065.81
553.39	3545.03
553.59	2969.55
553.78	3186.64
553.98	3012.56
554.17	3090.38
554.37	3307.47
554.57	3147.73
554.76	2908.12
554.96	3147.73
555.16	3233.74
555.35	3155.92
555.55	3231.69
555.75	3270.61
555.94	3307.47
556.14	2914.26
556.33	3092.43
556.53	3114.96
556.73	3327.95
556.92	3047.38
557.12	2987.99
557.32	3753.93
557.51	3602.38
557.71	3119.06
557.90	3157.97
558.10	3536.84
558.30	3243.98
558.49	3114.96
558.69	3098.58
558.88	3295.18
559.08	3246.03
559.28	3100.62
559.47	3149.78
559.67	3413.96
559.86	3594.19
560.06	3016.66
560.26	3086.29
560.45	3432.40
560.65	3217.36
560.84	3405.77
561.04	2930.64
561.24	3409.87
561.43	2994.13
561.63	3309.52
561.82	3098.58
562.02	3440.59
562.22	3067.86
562.41	3002.32
562.61	3039.19
562.80	3061.71
563.00	3749.83
563.19	3133.39
563.39	3180.50
563.59	3407.82
563.78	3074.00
563.98	2881.49
564.17	3020.75
564.37	2996.18
564.56	3297.23
564.76	2944.98
564.96	3174.35
565.15	3393.48
565.35	3819.46
565.54	3090.38
565.74	3123.15
565.93	3383.24
566.13	3262.41
566.32	3139.54
566.52	3215.31
566.71	3250.13
566.91	3495.88
567.11	3131.34
567.30	3014.61
567.50	3311.57
567.69	3344.33
567.89	2992.08
568.08	2967.51
568.28	3352.52
568.47	3039.19
568.67	3127.25
568.86	3069.91
569.06	3383.24
569.25	3264.46
569.45	3026.90
569.64	3080.14
569.84	3241.93
570.04	3344.33
570.23	3141.58
570.43	3131.34
570.62	3295.18
570.82	3585.99
571.01	3022.80
571.21	3100.62
571.40	3139.54
571.60	3411.92
571.79	3086.29
571.99	3039.19
572.18	3065.81
572.38	3311.57
572.57	3092.43
572.77	3164.11
572.96	3764.17
573.16	3377.10
573.35	3078.10
573.55	3258.32
573.74	3471.31
573.94	3151.82
574.13	3037.14
574.33	3166.16
574.52	3549.13
574.71	3237.84
574.91	3147.73
575.10	2887.64
575.30	3151.82
575.49	3076.05
575.69	3002.32
575.88	3065.81
576.08	3297.23
576.27	3444.68
576.47	2979.79
576.66	3246.03
576.86	3592.14
577.05	3407.82
577.25	3125.20
577.44	3276.75
577.64	3241.93
577.83	3487.69
578.02	3004.37
578.22	3272.65
578.41	3522.51
578.61	3233.74
578.80	2918.36
579.00	3006.42
579.19	3278.80
579.39	3344.33
579.58	3106.77
579.77	3088.34
579.97	3551.18
580.16	3522.51
580.36	3241.93
580.55	3131.34
580.75	3370.96
580.94	3272.65
581.13	3295.18
581.33	3346.38
581.52	3252.17
581.72	3651.53
581.91	3196.88
582.11	3104.72
582.30	3463.12
582.49	3309.52
582.69	3426.25
582.88	3147.73
583.08	3311.57
583.27	3522.51
583.47	3235.79
583.66	3028.95
583.85	3000.27
584.05	3241.93
584.24	3225.55
584.44	3174.35
584.63	3407.82
584.82	3504.07
585.02	3317.71
585.21	3174.35
585.41	3430.35
585.60	3348.43
585.79	3416.01
585.99	3432.40
586.18	3260.37
586.37	4224.96
586.57	6434.72
586.76	18030.32
586.96	37643.71
587.15	50885.88
587.34	59395.19
587.54	63601.72
587.73	56605.86
587.93	41090.44
588.12	31217.19
588.31	25656.95
588.51	22748.84
588.70	21208.76
588.89	18460.39
589.09	15791.89
589.28	13782.83
589.47	10860.38
589.67	8185.73
589.86	6397.85
590.06	5115.83
590.25	4448.19
590.44	3936.20
590.64	3624.90
590.83	3585.99
591.02	3594.19
591.22	3055.57
591.41	3198.93
591.60	3229.65
591.80	3809.22
591.99	2928.60
592.18	3114.96
592.38	3418.06
592.57	3196.88
592.76	3051.47
592.96	3174.35
593.15	3227.60
593.34	3532.75
593.54	3114.96
593.73	3274.70
593.92	3336.14
594.12	3338.19
594.31	3129.30
594.50	3260.37
594.70	3409.87
594.89	3844.04
595.08	2977.75
595.28	3246.03
595.47	3971.01
595.66	3553.23
595.86	2963.41
596.05	2981.84
596.24	3303.37
596.43	3745.73
596.63	3166.16
596.82	3250.13
597.01	3330.00
597.21	3694.54
597.40	3100.62
597.59	3114.96
597.79	3233.74
597.98	3401.68
598.17	3176.40
598.36	3127.25
598.56	3479.50
598.75	3198.93
598.94	3176.40
599.14	3141.58
599.33	3213.26
599.52	3442.64
599.71	3096.53
599.91	3139.54
600.10	3459.02
600.29	3317.71
600.48	3074.00
600.68	3221.45
600.87	3319.76
601.06	3211.22
601.26	3225.55
601.45	3168.21
601.64	3272.65
601.83	3651.53
602.03	2869.20
602.22	2977.75
602.41	3536.84
602.60	3852.23
602.80	3117.01
602.99	3246.03
603.18	3131.34
603.37	3383.24
603.57	3020.75
603.76	3108.82
603.95	3483.59
604.14	3252.17
604.34	3074.00
604.53	3067.86
604.72	3315.66
604.91	3418.06
605.10	3157.97
605.30	2912.21
605.49	3755.97
605.68	3413.96
605.87	3145.68
606.07	2979.79
606.26	3315.66
606.45	3307.47
606.64	3127.25
606.84	3051.47
607.03	3266.51
607.22	3495.88
607.41	3151.82
607.60	3043.28
607.80	3463.12
607.99	3227.60
608.18	3078.10
608.37	3098.58
608.56	3198.93
608.76	3420.11
608.95	3295.18
609.14	3051.47
609.33	3514.31
609.52	3618.76
609.72	3096.53
609.91	3223.50
610.10	3405.77
610.29	3696.58
610.48	3170.26
610.68	3221.45
610.87	3286.99
611.06	3385.29
611.25	3106.77
611.44	3147.73
611.63	3153.87
611.83	3512.27
612.02	3012.56
612.21	3223.50
612.40	2936.79
612.59	3022.80
612.79	3053.52
612.98	3155.92
613.17	3667.91
613.36	3254.22
613.55	3252.17
613.74	3145.68
613.93	3297.23
614.13	3495.88
614.32	3348.43
614.51	3155.92
614.70	3229.65
614.89	3237.84
615.08	3293.13
615.28	3534.79
615.47	3117.01
615.66	3434.44
615.85	3145.68
616.04	3094.48
616.23	3327.95
616.42	3280.85
616.62	3096.53
616.81	3086.29
617.00	3194.83
617.19	3469.26
617.38	3096.53
617.57	3194.83
617.76	3389.39
617.95	3475.40
618.15	3266.51
618.34	3344.33
618.53	3049.43
618.72	3512.27
618.91	3172.30
619.10	3069.91
619.29	3200.98
619.48	3299.28
619.68	2990.03
619.87	3106.77
620.06	3020.75
620.25	3387.34
620.44	3018.71
620.63	3012.56
620.82	3336.14
621.01	3387.34
621.20	3117.01
621.39	3160.02
621.59	3278.80
621.78	3229.65
621.97	3170.26
622.16	3252.17
622.35	3502.03
622.54	3405.77
622.73	3110.86
622.92	2887.64
623.11	3524.55
623.30	3219.41
623.49	3194.83
623.68	2912.21
623.88	3573.71
624.07	3114.96
624.26	2985.94
624.45	3057.62
624.64	3211.22
624.83	3325.90
625.02	2987.99
625.21	3043.28
625.40	3381.20
625.59	3559.37
625.78	3157.97
625.97	3225.55
626.16	3594.19
626.35	3473.36
626.54	3182.54
626.74	3284.94
626.93	3266.51
627.12	3237.84
627.31	3186.64
627.50	3028.95
627.69	3493.83
627.88	3164.11
628.07	2963.41
628.26	2899.92
628.45	3121.10
628.64	2996.18
628.83	3045.33
629.02	2875.35
629.21	3366.86
629.40	3293.13
629.59	2910.16
629.78	3051.47
629.97	3286.99
630.16	3317.71
630.35	3133.39
630.54	3147.73
630.73	3182.54
630.92	3190.74
631.11	3063.76
631.30	3160.02
631.49	3352.52
631.68	3205.07
631.87	3133.39
632.06	3069.91
632.25	3803.08
632.44	3231.69
632.63	3102.67
632.82	3110.86
633.01	3170.26
633.20	3295.18
633.39	3143.63
633.58	2901.97
633.77	3352.52
633.96	3356.62
634.15	3278.80
634.34	3207.12
634.53	3385.29
634.72	3172.30
634.91	2922.45
635.10	3082.19
635.29	3395.53
635.48	3334.09
635.67	2922.45
635.86	2922.45
636.05	3569.61
636.24	3323.85
636.43	3127.25
636.62	3151.82
636.81	2783.19
637.00	3215.31
637.19	3139.54
637.38	3028.95
637.57	3198.93
637.76	3276.75
637.95	3295.18
638.14	3289.04
638.33	3297.23
638.52	3315.66
638.71	3063.76
638.89	3008.47
639.08	3770.31
639.27	3553.23
639.46	3303.37
639.65	3602.38
639.84	3938.24
640.03	4065.22
640.22	3606.47
640.41	3579.85
640.60	3383.24
640.79	3508.17
640.98	3278.80
641.17	3323.85
641.36	3452.88
641.55	3495.88
641.74	2985.94
641.92	3055.57
642.11	3192.78
642.30	3252.17
642.49	2977.75
642.68	3082.19
642.87	3317.71
643.06	3416.01
643.25	2901.97
643.44	2983.89
643.63	3248.08
643.82	3368.91
644.00	2940.88
644.19	3139.54
644.38	3147.73
644.57	3377.10
644.76	3059.67
644.95	3094.48
645.14	3364.81
645.33	3237.84
645.52	3174.35
645.71	2910.16
645.89	3086.29
646.08	3186.64
646.27	3149.78
646.46	3336.14
646.65	2930.64
646.84	3354.57
647.03	3030.99
647.22	3246.03
647.40	3356.62
647.59	3219.41
647.78	2889.68
647.97	3123.15
648.16	3030.99
648.35	3506.12
648.54	3311.57
648.73	3112.91
648.91	3446.73
649.10	3200.98
649.29	3016.66
649.48	3020.75
649.67	3428.30
649.86	3286.99
650.05	3112.91
650.23	3364.81
650.42	3313.61
650.61	3528.65
650.80	3323.85
650.99	3319.76
651.18	3444.68
651.36	3516.36
651.55	3043.28
651.74	3217.36
651.93	3172.30
652.12	3280.85
652.31	3164.11
652.49	3119.06
652.68	3166.16
652.87	3567.56
653.06	3231.69
653.25	3364.81
653.44	3315.66
653.62	3674.06
653.81	3059.67
654.00	3106.77
654.19	3360.72
654.38	3805.13
654.56	3254.22
654.75	3049.43
654.94	3454.92
655.13	3352.52
655.32	3024.85
655.51	3094.48
655.69	3155.92
655.88	3512.27
656.07	2910.16
656.26	3106.77
656.45	3114.96
656.63	3274.70
656.82	3016.66
657.01	3405.77
657.20	3114.96
657.38	3524.55
657.57	3057.62
657.76	2901.97
657.95	3397.58
658.14	3139.54
658.32	3160.02
658.51	2942.93
658.70	3395.53
658.89	3334.09
659.08	3082.19
659.26	3301.33
659.45	3114.96
659.64	3452.88
659.83	3057.62
660.01	3463.12
660.20	3342.28
660.39	3616.71
660.58	2873.30
660.76	3198.93
660.95	2963.41
661.14	3262.41
661.33	2930.64
661.51	3082.19
661.70	3223.50
661.89	3307.47
662.08	3092.43
662.26	2985.94
662.45	3053.52
662.64	3688.39
662.83	3147.73
663.01	2934.74
663.20	3141.58
663.39	3563.47
663.58	3049.43
663.76	3049.43
663.95	3385.29
664.14	3030.99
664.32	3129.30
664.51	3002.32
664.70	2893.78
664.89	3340.24
665.07	2961.36
665.26	3221.45
665.45	3112.91
665.64	3373.00
665.82	3094.48
666.01	3221.45
666.20	3028.95
666.38	3450.83
666.57	3575.75
666.76	5607.34
666.95	12945.21
667.13	20690.63
667.32	25228.93
667.51	28345.94
667.69	28900.94
667.88	24331.92
668.07	17608.44
668.25	14944.03
668.44	12891.96
668.63	11265.88
668.81	9672.56
669.00	8515.45
669.19	7665.55
669.38	6764.44
669.56	5836.71
669.75	5040.05
669.94	4509.63
670.12	3739.59
670.31	3391.44
670.50	3418.06
670.68	3510.22
670.87	3411.92
671.06	3119.06
671.24	3151.82
671.43	3545.03
671.62	3340.24
671.80	3053.52
671.99	3246.03
672.18	3330.00
672.36	3368.91
672.55	3176.40
672.74	3121.10
672.92	3160.02
673.11	3379.15
673.29	2951.12
673.48	3241.93
673.67	3139.54
673.85	3413.96
674.04	3002.32
674.23	3157.97
674.41	3688.39
674.60	3053.52
674.79	2891.73
674.97	2951.12
675.16	3424.20
675.34	3475.40
675.53	3051.47
675.72	3102.67
675.90	3698.63
676.09	3153.87
676.28	3160.02
676.46	2914.26
676.65	3411.92
676.83	3061.71
677.02	3135.44
677.21	3131.34
677.39	3397.58
677.58	3117.01
677.77	3059.67
677.95	3024.85
678.14	3205.07
678.32	3094.48
678.51	3094.48
678.70	3424.20
678.88	3215.31
679.07	3262.41
679.25	3090.38
679.44	3084.24
679.63	2994.13
679.81	3330.00
680.00	3332.05
680.18	3172.30
680.37	3583.95
680.55	3248.08
680.74	2985.94
680.93	2805.72
681.11	3307.47
681.30	3305.42
681.48	3078.10
681.67	3114.96
681.85	3348.43
682.04	3168.21
682.23	3233.74
682.41	3205.07
682.60	3176.40
682.78	3149.78
682.97	3028.95
683.15	3131.34
683.34	3375.05
683.53	3506.12
683.71	3026.90
683.90	3186.64
684.08	3647.43
684.27	3180.50
684.45	3188.69
684.64	3217.36
684.82	3336.14
685.01	3416.01
685.19	3004.37
685.38	3389.39
685.57	3182.54
685.75	3096.53
685.94	2996.18
686.12	2969.55
686.31	3045.33
686.49	3581.90
686.68	2844.63
686.86	3149.78
687.05	3211.22
687.23	3532.75
687.42	3086.29
687.60	2906.07
687.79	3499.98
687.97	3581.90
688.16	3241.93
688.34	3270.61
688.53	3016.66
688.71	3278.80
688.90	3397.58
689.08	3117.01
689.27	2938.84
689.45	3418.06
689.64	3215.31
689.82	3196.88
690.01	3332.05
690.19	3360.72
690.38	3125.20
690.56	3217.36
690.75	3086.29
690.93	3174.35
691.12	3033.04
691.30	3084.24
691.49	3174.35
691.67	3270.61
691.86	3389.39
692.04	3129.30
692.23	3143.63
692.41	3303.37
692.60	3456.97
692.78	3344.33
692.97	3147.73
693.15	3483.59
693.34	3252.17
693.52	3295.18
693.71	3131.34
693.89	3102.67
694.08	2926.55
694.26	3229.65
694.44	3481.55
694.63	3489.74
694.81	3004.37
695.00	3119.06
695.18	3532.75
695.37	3749.83
695.55	3205.07
695.74	3198.93
695.92	3131.34
696.10	3461.07
696.29	2996.18
696.47	3076.05
696.66	2977.75
696.84	3139.54
697.03	3172.30
697.21	3321.81
697.40	4675.51
697.58	3536.84
697.76	3086.29
697.95	3059.67
698.13	3114.96
698.32	3141.58
698.50	3020.75
698.68	3160.02
698.87	3350.48
699.05	3618.76
699.24	3098.58
699.42	3102.67
699.61	3393.48
699.79	3321.81
699.97	3114.96
700.16	2936.79
700.34	3049.43
700.53	3395.53
700.71	3340.24
700.89	3217.36
701.08	3135.44
701.26	3276.75
701.45	3452.88
701.63	3016.66
701.81	3252.17
702.00	3133.39
702.18	3194.83
702.37	3127.25
702.55	3577.80
702.73	3360.72
702.92	3112.91
703.10	3502.03
703.28	3475.40
703.47	3100.62
703.65	3352.52
703.84	3237.84
704.02	3252.17
704.20	3645.38
704.39	3104.72
704.57	3071.95
704.75	3430.35
704.94	3409.87
705.12	3229.65
705.30	4136.90
705.49	8701.82
705.67	17403.64
705.86	24223.37
706.04	27553.37
706.22	30451.25
706.41	29040.20
706.59	21872.31
706.77	17067.77
706.96	14751.52
707.14	13236.02
707.32	11378.51
707.51	9832.30
707.69	8134.53
707.87	6682.52
708.06	5359.53
708.24	4515.77
708.42	4169.66
708.61	4255.68
708.79	3307.47
708.97	3289.04
709.16	3352.52
709.34	3344.33
709.52	3155.92
709.71	3092.43
709.89	3549.13
710.07	3110.86
710.26	3090.38
710.44	3123.15
710.62	3520.46
710.80	3323.85
710.99	3262.41
711.17	3200.98
711.35	3182.54
711.54	3174.35
711.72	3233.74
711.90	3196.88
712.09	3354.57
712.27	3200.98
712.45	3221.45
712.63	3092.43
712.82	3352.52
713.00	3248.08
713.18	3203.02
713.37	3231.69
713.55	3473.36
713.73	3438.54
713.91	3207.12
714.10	3131.34
714.28	3254.22
714.46	3469.26
714.65	3321.81
714.83	3028.95
715.01	3360.72
715.19	3323.85
715.38	3082.19
715.56	3268.56
715.74	3135.44
715.92	3141.58
716.11	3409.87
716.29	2787.29
716.47	3246.03
716.65	3203.02
716.84	2969.55
717.02	3192.78
717.20	2985.94
717.38	3125.20
717.57	3160.02
717.75	3135.44
717.93	3239.89
718.11	3387.34
718.30	2936.79
718.48	3178.45
718.66	3485.64
718.84	3536.84
719.03	3131.34
719.21	2922.45
719.39	3647.43
719.57	3409.87
719.75	3176.40
719.94	2996.18
720.12	3223.50
720.30	3346.38
720.48	3172.30
720.67	3088.34
720.85	3059.67
721.03	3254.22
721.21	3030.99
721.39	3176.40
721.58	3385.29
721.76	3368.91
721.94	3114.96
722.12	3233.74
722.30	3465.16
722.49	3162.06
722.67	3141.58
722.85	3074.00
723.03	2926.55
723.21	3149.78
723.40	3063.76
723.58	3190.74
723.76	3424.20
723.94	3491.79
724.12	3090.38
724.30	3264.46
724.49	3538.89
724.67	3108.82
724.85	3221.45
725.03	3047.38
725.21	3315.66
725.40	3463.12
725.58	3094.48
725.76	3340.24
725.94	3383.24
726.12	3059.67
726.30	3092.43
726.49	3061.71
726.67	3223.50
726.85	3350.48
727.03	4077.51
727.21	5541.80
727.39	7358.35
727.57	8015.75
727.76	8497.02
727.94	8482.69
728.12	7366.54
728.30	6072.23
728.48	5685.16
728.66	5167.03
728.84	4751.29
729.03	4206.53
729.21	3794.89
729.39	3618.76
729.57	3440.59
729.75	3393.48
729.93	3440.59
730.11	3049.43
730.30	3309.52
730.48	3303.37
730.66	3170.26
730.84	3231.69
731.02	3375.05
731.20	3211.22
731.38	3143.63
731.56	2961.36
731.74	3071.95
731.93	3346.38
732.11	3315.66
732.29	3121.10
732.47	3395.53
732.65	3332.05
732.83	3274.70
733.01	3198.93
733.19	3188.69
733.37	3346.38
733.56	3123.15
733.74	2975.70
733.92	3555.27
734.10	3119.06
734.28	3188.69
734.46	2904.02
734.64	3262.41
734.82	3213.26
735.00	3014.61
735.18	3090.38
735.36	3286.99
735.54	3313.61
735.73	3045.33
735.91	3155.92
736.09	3545.03
736.27	3217.36
736.45	3127.25
736.63	2793.43
736.81	3190.74
736.99	3569.61
737.17	3297.23
737.35	3010.51
737.53	3286.99
737.71	3188.69
737.89	3250.13
738.07	3059.67
738.25	3110.86
738.43	3018.71
738.61	3106.77
738.80	2955.22
738.98	3018.71
739.16	3176.40
739.34	2985.94
739.52	3426.25
739.70	3219.41
739.88	3387.34
740.06	3258.32
740.24	2772.95
740.42	3528.65
740.60	2957.27
740.78	3022.80
740.96	2906.07
741.14	3213.26
741.32	3325.90
741.50	3039.19
741.68	3362.76
741.86	3459.02
742.04	3057.62
742.22	3039.19
742.40	3074.00
742.58	3557.32
742.76	3231.69
742.94	3323.85
743.12	2920.40
743.30	3213.26
743.48	3383.24
743.66	3012.56
743.84	3112.91
744.02	3155.92
744.20	3270.61
744.38	2957.27
744.56	3014.61
744.74	3608.52
744.92	3411.92
745.10	3274.70
745.28	3145.68
745.46	3602.38
745.64	3239.89
745.82	3137.49
746.00	3016.66
746.18	3317.71
746.36	3078.10
746.54	3139.54
746.72	3106.77
746.90	3102.67
747.08	3516.36
747.26	3098.58
747.44	3231.69
747.62	3438.54
747.80	3463.12
747.98	3190.74
748.15	3123.15
748.33	3583.95
748.51	3262.41
748.69	3125.20
748.87	3018.71
749.05	3239.89
749.23	3221.45
749.41	3114.96
749.59	3092.43
749.77	3434.44
749.95	3200.98
750.13	3051.47
750.31	3205.07
750.49	3293.13
750.67	3389.39
750.85	3186.64
751.03	3037.14
751.20	3698.63
751.38	3307.47
751.56	3076.05
751.74	3125.20
751.92	3200.98
752.10	3149.78
752.28	3262.41
752.46	3153.87
752.64	3272.65
752.82	3319.76
753.00	3186.64
753.18	3043.28
753.35	3258.32
753.53	3286.99
753.71	2990.03
753.89	3108.82
754.07	3317.71
754.25	3549.13
754.43	3131.34
754.61	3024.85
754.79	3397.58
754.97	3196.88
755.14	3463.12
755.32	2951.12
755.50	3317.71
755.68	3307.47
755.86	2965.46
756.04	3043.28
756.22	2877.40
756.40	3397.58
756.57	3352.52
756.75	3030.99
756.93	3540.94
757.11	3553.23
757.29	3043.28
757.47	3012.56
757.65	3035.09
757.82	2858.96
758.00	3084.24
758.18	3018.71
758.36	3137.49
758.54	3565.51
758.72	2895.83
758.90	3225.55
759.07	3291.09
759.25	3100.62
759.43	3110.86
759.61	2912.21
759.79	4532.15
759.97	3491.79
760.15	3065.81
760.32	3133.39
760.50	3301.33
760.68	3555.27
760.86	2936.79
761.04	3254.22
761.22	3426.25
761.39	3270.61
761.57	3233.74
761.75	3114.96
761.93	3434.44
762.11	3233.74
762.28	3143.63
762.46	3018.71
762.64	3495.88
762.82	2918.36
763.00	2985.94
763.18	3319.76
763.35	3051.47
763.53	3448.78
763.71	3121.10
763.89	3039.19
764.07	3221.45
764.24	3219.41
764.42	3188.69
764.60	3108.82
764.78	3434.44
764.96	3452.88
765.13	3280.85
765.31	2949.08
765.49	3401.68
765.67	3166.16
765.84	3063.76
766.02	3018.71
766.20	3004.37
766.38	3303.37
766.56	3121.10
766.73	3264.46
766.91	3252.17
767.09	3293.13
767.27	3196.88
767.44	2957.27
767.62	3389.39
767.80	3241.93
767.98	3047.38
768.15	3051.47
768.33	3405.77
768.51	3428.30
768.69	3278.80
768.87	3045.33
769.04	3276.75
769.22	3854.28
769.40	3211.22
769.58	3246.03
769.75	3319.76
769.93	3450.83
770.11	3106.77
770.28	2949.08
770.46	3440.59
770.64	3358.67
770.82	3176.40
770.99	3000.27
771.17	3434.44
771.35	3213.26
771.53	3168.21
771.70	3039.19
771.88	3360.72
772.06	3209.17
772.23	3033.04
772.41	3166.16
772.59	3241.93
772.77	3174.35
772.94	3129.30
773.12	3188.69
773.30	3123.15
773.47	3356.62
773.65	2961.36
773.83	3164.11
774.01	3157.97
774.18	2863.06
774.36	3133.39
774.54	2987.99
774.71	3342.28
774.89	3002.32
775.07	2963.41
775.24	3080.14
775.42	3190.74
775.60	3620.81
775.78	2996.18
775.95	2922.45
776.13	2926.55
776.31	2975.70
776.48	3299.28
776.66	3258.32
776.84	3248.08
777.01	3047.38
777.19	3008.47
777.37	3098.58
777.54	3409.87
777.72	3698.63
777.90	3196.88
778.07	2963.41
778.25	3866.56
778.43	3479.50
778.60	3098.58
778.78	3192.78
778.96	3536.84
779.13	3084.24
779.31	3110.86
779.49	3112.91
779.66	3356.62
779.84	3162.06
780.01	3037.14
780.19	2977.75
780.37	3555.27
780.54	3489.74
780.72	2996.18
780.90	3123.15
781.07	3194.83
781.25	3149.78
781.43	3284.94
781.60	3022.80
781.78	3557.32
781.95	3280.85
782.13	3119.06
782.31	3051.47
782.48	2942.93
782.66	3223.50
782.83	3399.63
783.01	3196.88
783.19	3434.44
783.36	3196.88
783.54	2924.50
783.72	3209.17
783.89	3229.65
784.07	3270.61
784.24	3223.50
784.42	3248.08
784.60	3327.95
784.77	3379.15
784.95	2799.57
785.12	3051.47
785.30	3346.38
785.47	3147.73
785.65	2924.50
785.83	3151.82
786.00	3184.59
786.18	3317.71
786.35	2969.55
786.53	3016.66
786.71	3454.92
786.88	3327.95
787.06	3260.37
787.23	3131.34
787.41	3047.38
787.58	3266.51
787.76	3026.90
787.94	3119.06
788.11	3336.14
788.29	2996.18
788.46	3110.86
788.64	2871.25
788.81	3166.16
788.99	3184.59
789.16	2992.08
789.34	3100.62
789.52	3147.73
789.69	3164.11
789.87	2838.48
790.04	3100.62
790.22	3223.50
790.39	3659.72
790.57	2971.60
790.74	3043.28
790.92	3416.01
791.09	3028.95
791.27	3168.21
791.44	3110.86
791.62	3217.36
791.79	3499.98
791.97	3151.82
792.15	3391.44
792.32	3387.34
792.50	3395.53
792.67	3180.50
792.85	3346.38
793.02	3311.57
793.20	3170.26
793.37	2961.36
793.55	3024.85
793.72	2975.70
793.90	3422.16
794.07	3098.58
794.25	2975.70
794.42	3309.52
794.60	3168.21
794.77	3123.15
794.95	3223.50
795.12	3409.87
795.30	3141.58
795.47	2875.35
795.65	3397.58
795.82	3295.18
796.00	3119.06
796.17	3104.72
796.34	2967.51
796.52	3395.53
796.69	3440.59
796.87	3155.92
797.04	3229.65
797.22	3393.48
797.39	3323.85
797.57	3246.03
797.74	3166.16
797.92	3373.00
798.09	3157.97
798.27	3362.76
798.44	3057.62
798.62	3096.53
798.79	3356.62
798.96	3299.28
799.14	3076.05
799.31	3860.42
799.49	3254.22
799.66	3131.34
799.84	3155.92
800.01	2951.12
800.19	3332.05
800.36	2861.01
800.53	3110.86
800.71	3327.95
800.88	3649.48
801.06	3008.47
801.23	3074.00
801.41	3258.32
801.58	3164.11
801.75	3139.54
801.93	3141.58
802.10	3336.14
802.28	3160.02
802.45	3129.30
802.63	3121.10
802.80	3504.07
802.97	3190.74
803.15	3114.96
803.32	2992.08
803.50	3123.15
803.67	3157.97
803.84	3051.47
804.02	3172.30
804.19	3192.78
804.37	2885.59
804.54	2912.21
804.71	3049.43
804.89	3215.31
805.06	3151.82
805.24	2983.89
805.41	2822.10
805.58	3147.73
805.76	3837.89
805.93	3086.29
806.10	3256.27
806.28	3407.82
806.45	3286.99
806.63	3127.25
806.80	3135.44
806.97	3364.81
807.15	3293.13
807.32	3219.41
807.49	3074.00
807.67	3035.09
807.84	3291.09
808.01	2899.92
808.19	3225.55
808.36	3747.78
808.54	3213.26
808.71	3000.27
808.88	3074.00
809.06	3518.41
809.23	3635.14
809.40	3125.20
809.58	3086.29
809.75	3241.93
809.92	3082.19
810.10	3387.34
810.27	3106.77
810.44	3315.66
810.62	3477.45
810.79	3172.30
810.96	3043.28
811.14	3229.65
811.31	3203.02
811.48	3284.94
811.66	3082.19
811.83	3454.92
812.00	3315.66
812.18	3213.26
812.35	3422.16
812.52	3209.17
812.69	3135.44
812.87	3020.75
813.04	2983.89
813.21	3215.31
813.39	3127.25
813.56	3084.24
813.73	3325.90
813.91	3010.51
814.08	3213.26
814.25	3080.14
814.42	2881.49
814.60	3141.58
814.77	3258.32
814.94	3069.91
815.12	3229.65
815.29	3540.94
815.46	3057.62
815.63	3149.78
815.81	2981.84
815.98	3114.96
816.15	3317.71
816.33	3317.71
816.50	3114.96
816.67	3284.94
816.84	3184.59
817.02	3033.04
817.19	3065.81
817.36	3346.38
817.53	3295.18
817.71	2942.93
817.88	3096.53
818.05	3190.74
818.22	3180.50
818.40	3227.60
818.57	3049.43
818.74	3311.57
818.91	3284.94
819.09	3272.65
819.26	3205.07
819.43	3094.48
819.60	3174.35
819.78	3278.80
819.95	3172.30
820.12	3127.25
820.29	3551.18
820.47	3301.33
820.64	3008.47
820.81	3041.23
820.98	3215.31
821.15	3051.47
821.33	3198.93
821.50	2938.84
821.67	3356.62
821.84	3051.47
822.02	3065.81
822.19	3471.31
822.36	3151.82
822.53	3051.47
822.70	2924.50
822.88	3196.88
823.05	3551.18
823.22	3155.92
823.39	3203.02
823.56	3313.61
823.74	3606.47
823.91	2928.60
824.08	2967.51
824.25	3069.91
824.42	3573.71
824.60	2899.92
824.77	3108.82
824.94	3184.59
825.11	3446.73
825.28	2955.22
825.45	3221.45
825.63	3252.17
825.80	3049.43
825.97	3147.73
826.14	3141.58
826.31	2934.74
826.48	3332.05
826.66	2979.79
826.83	3022.80
827.00	3162.06
827.17	3108.82
827.34	3139.54
827.51	3059.67
827.69	3196.88
827.86	2959.31
828.03	3135.44
828.20	3180.50
828.37	3117.01
828.54	3360.72
828.71	3086.29
828.89	3198.93
829.06	3278.80
829.23	3594.19
829.40	3043.28
829.57	3030.99
829.74	3405.77
829.91	3090.38
830.09	3039.19
830.26	3229.65
830.43	3610.57
830.60	3065.81
830.77	3217.36
830.94	3248.08
831.11	3327.95
831.28	3135.44
831.46	3221.45
831.63	3051.47
831.80	3469.26
831.97	3098.58
832.14	3168.21
832.31	3143.63
832.48	3213.26
832.65	3487.69
832.82	3270.61
832.99	3139.54
833.17	3051.47
833.34	3553.23
833.51	3071.95
833.68	2901.97
833.85	3407.82
834.02	3026.90
834.19	3024.85
834.36	3123.15
834.53	3434.44
834.70	3413.96
834.87	3102.67
835.04	2836.44
835.22	3100.62
835.39	3121.10
835.56	2918.36
835.73	2940.88
835.90	3432.40
836.07	3117.01
836.24	3076.05
836.41	2949.08
836.58	3117.01
836.75	3450.83
836.92	2928.60
837.09	2856.92
837.26	3409.87
837.43	3416.01
837.60	2967.51
837.77	2947.03
837.94	3420.11
838.12	3516.36
838.29	2889.68
838.46	2815.96
838.63	3047.38
838.80	3604.42
838.97	2992.08
839.14	2877.40
839.31	3299.28
839.48	3440.59
839.65	2910.16
839.82	3074.00
839.99	3336.14
840.16	3340.24
840.33	2824.15
840.50	2987.99
840.67	3112.91
840.84	2834.39
841.01	2842.58
841.18	2885.59
841.35	3164.11
841.52	3340.24
841.69	3274.70
841.86	3006.42
842.03	3203.02
842.20	3459.02
842.37	2885.59
842.54	2904.02
842.71	3295.18
842.88	2992.08
843.05	2942.93
843.22	2885.59
843.39	3413.96
843.56	3129.30
843.73	2926.55
843.90	3012.56
844.07	3250.13
844.24	3428.30
844.41	2973.65
844.58	2949.08
844.75	3217.36
844.92	3348.43
845.09	3055.57
845.26	2975.70
845.43	3383.24
845.60	3151.82
845.77	2967.51
845.94	3061.71
846.10	3467.21
846.27	2918.36
846.44	2834.39
846.61	2781.14
846.78	3399.63
846.95	3463.12
847.12	2879.44
847.29	2912.21
847.46	3069.91
847.63	3403.72
847.80	2772.95
847.97	2924.50
848.14	3696.58
848.31	3223.50
848.48	2877.40
848.65	2944.98
848.82	3192.78
848.98	3885.00
849.15	3051.47
849.32	3090.38
849.49	3315.66
849.66	3153.87
849.83	2885.59
850.00	2877.40
850.17	3368.91
850.34	3108.82
850.51	2861.01
850.68	3043.28
850.85	3682.25
851.01	3309.52
851.18	2936.79
851.35	2947.03
851.52	3317.71
851.69	3524.55
851.86	2906.07
852.03	2883.54
852.20	3399.63
852.37	3362.76
852.53	2738.13
852.70	2826.20
852.87	3315.66
853.04	3405.77
853.21	2922.45
853.38	3205.07
853.55	3502.03
853.72	3459.02
853.89	2809.81
854.05	2856.92
854.22	3252.17
854.39	3280.85
854.56	2871.25
854.73	3033.04
854.90	3139.54
855.07	3321.81
855.23	2865.11
855.40	2815.96
855.57	3182.54
855.74	2779.09
855.91	3143.63
856.08	2791.38
856.25	3092.43
856.41	3205.07
856.58	2877.40
856.75	2877.40
856.92	3147.73
857.09	3459.02
857.26	2725.85
857.42	3004.37
857.59	3430.35
857.76	3155.92
857.93	2930.64
858.10	2963.41
858.27	3055.57
858.43	3217.36
858.60	2912.21
858.77	2836.44
858.94	3149.78
859.11	3450.83
859.27	2967.51
859.44	2873.30
859.61	3635.14
859.78	3368.91
859.95	2893.78
860.12	2830.29
860.28	3688.39
860.45	3653.58
860.62	2838.48
860.79	3078.10
860.95	3229.65
861.12	3139.54
861.29	2887.64
861.46	2936.79
861.63	3239.89
861.79	3323.85
861.96	2787.29
862.13	2865.11
862.30	3508.17
862.47	3196.88
862.63	2791.38
862.80	3045.33
862.97	3428.30
863.14	3227.60
863.30	2916.31
863.47	2850.77
863.64	3635.14
863.81	3237.84
863.97	2815.96
864.14	2924.50
864.31	3270.61
864.48	3209.17
864.65	2975.70
864.81	3078.10
864.98	3373.00
865.15	3487.69
865.32	2899.92
865.48	3067.86
865.65	3565.51
865.82	3246.03
865.98	3033.04
866.15	2953.17
866.32	3250.13
866.49	3133.39
866.65	3078.10
866.82	2934.74
866.99	3215.31
867.16	3049.43
867.32	2932.69
867.49	2836.44
867.66	3176.40
867.83	3264.46
867.99	2879.44
868.16	2936.79
868.33	3106.77
868.49	3266.51
868.66	2951.12
868.83	3022.80
868.99	3336.14
869.16	3268.56
869.33	3100.62
869.50	2971.60
869.66	3286.99
869.83	3243.98
870.00	2840.53
870.16	3094.48
870.33	3246.03
870.50	3413.96
870.66	3022.80
870.83	2928.60
871.00	3221.45
871.17	3377.10
871.33	3018.71
871.50	2867.16
871.67	3227.60
871.83	3213.26
872.00	3041.23
872.17	2963.41
872.33	3631.05
872.50	3461.07
872.67	2852.82
872.83	2912.21
873.00	3350.48
873.17	3262.41
873.33	2944.98
873.50	2994.13
873.67	3155.92
873.83	3135.44
874.00	2914.26
874.16	3076.05
874.33	3307.47
874.50	3008.47
874.66	2885.59
874.83	3033.04
875.00	3473.36
875.16	3471.31
875.33	3020.75
875.50	2684.89
875.66	3184.59
875.83	3358.67
875.99	3022.80
876.16	3092.43
876.33	2994.13
876.49	3254.22
876.66	2967.51
876.83	2944.98
876.99	3012.56
877.16	3317.71
877.32	2813.91
877.49	3028.95
877.66	3387.34
877.82	3491.79
877.99	3069.91
878.15	3198.93
878.32	3377.10
878.49	3352.52
878.65	3016.66
878.82	3196.88
878.98	3180.50
879.15	3475.40
879.32	3147.73
879.48	3184.59
879.65	3221.45
879.81	3133.39
879.98	2926.55
880.15	2955.22
880.31	3377.10
880.48	3065.81
880.64	3043.28
880.81	3051.47
880.97	3479.50
881.14	3590.09
881.31	2887.64
881.47	3110.86
881.64	3160.02
881.80	2893.78
881.97	3139.54
882.13	2987.99
882.30	2934.74
882.47	3071.95
882.63	2906.07
882.80	2881.49
882.96	3119.06
883.13	3479.50
883.29	2973.65
883.46	2879.44
883.62	3688.39
883.79	3303.37
883.95	3065.81
884.12	2893.78
884.29	3516.36
884.45	3289.04
884.62	2912.21
884.78	2967.51
884.95	3528.65
885.11	3147.73
885.28	3067.86
885.44	2973.65
885.61	3432.40
885.77	3518.41
885.94	3088.34
886.10	2979.79
886.27	3246.03
886.43	3616.71
886.60	3196.88
886.76	2961.36
886.93	3123.15
887.09	3301.33
887.26	2854.87
887.42	2938.84
887.59	3542.99
887.75	3786.69
887.92	3143.63
888.08	3043.28
888.25	3663.82
888.41	3432.40
888.58	2990.03
888.74	2813.91
888.91	3145.68
>>>>>End Processed Spectral Data<<<<<
