SpectraSuite Data File
++++++++++++++++++++++++++++++++++++
Date: Fri May 06 08:14:26 CEST 2016
User: root
Dark Spectrum Present: No
Reference Spectrum Present: No
Number of Sampled Component Spectra: 1
Spectrometers: USB4C02835
Integration Time (usec): 100000 (USB4C02835)
Spectra Averaged: 1 (USB4C02835)
Boxcar Smoothing: 0 (USB4C02835)
Correct for Electrical Dark: No (USB4C02835)
Strobe/Lamp Enabled: No (USB4C02835)
Correct for Detector Non-linearity: No (USB4C02835)
Correct for Stray Light: No (USB4C02835)
Number of Pixels in Processed Spectrum: 3648
>>>>>Begin Processed Spectral Data<<<<<
177.47	2236.38
177.69	2236.38
177.91	2236.38
178.13	2267.10
178.36	2265.05
178.58	3008.47
178.80	3129.30
179.02	2957.27
179.24	3067.86
179.46	2785.24
179.68	2867.16
179.90	3237.84
180.13	3256.27
180.35	2652.12
180.57	2861.01
180.79	3401.68
181.01	3299.28
181.23	2955.22
181.45	2932.69
181.67	3442.64
181.90	3450.83
182.12	2961.36
182.34	2705.37
182.56	3383.24
182.78	3321.81
183.00	2791.38
183.22	2918.36
183.44	2883.54
183.66	3864.52
183.89	2949.08
184.11	2899.92
184.33	3434.44
184.55	3622.86
184.77	2801.62
184.99	2928.60
185.21	3151.82
185.43	3796.93
185.65	2854.87
185.87	2854.87
186.10	3753.93
186.32	3712.97
186.54	2967.51
186.76	2930.64
186.98	3567.56
187.20	3231.69
187.42	2820.05
187.64	2867.16
187.86	3383.24
188.08	3499.98
188.30	2752.47
188.52	2881.49
188.75	3545.03
188.97	3545.03
189.19	2830.29
189.41	2844.63
189.63	3409.87
189.85	3192.78
190.07	2709.46
190.29	2734.04
190.51	3368.91
190.73	3004.37
190.95	3053.52
191.17	2918.36
191.39	2967.51
191.61	3225.55
191.84	2906.07
192.06	3049.43
192.28	2992.08
192.50	3872.71
192.72	2938.84
192.94	2977.75
193.16	3518.41
193.38	3428.30
193.60	2803.67
193.82	3078.10
194.04	3526.60
194.26	3348.43
194.48	2897.88
194.70	2824.15
194.92	3200.98
195.14	3385.29
195.36	2766.81
195.58	2889.68
195.80	3241.93
196.02	3139.54
196.24	2809.81
196.46	3000.27
196.69	3203.02
196.91	3760.07
197.13	3016.66
197.35	2910.16
197.57	3631.05
197.79	3436.49
198.01	2926.55
198.23	2957.27
198.45	3383.24
198.67	3051.47
198.89	2779.09
199.11	2963.41
199.33	3180.50
199.55	2856.92
199.77	2779.09
199.99	3049.43
200.21	3180.50
200.43	3409.87
200.65	2721.75
200.87	2650.07
201.09	3270.61
201.31	3147.73
201.53	2891.73
201.75	2973.65
201.97	3284.94
202.19	3309.52
202.41	2922.45
202.63	2987.99
202.85	3383.24
203.07	3428.30
203.29	2885.59
203.51	2688.98
203.73	3151.82
203.95	3880.90
204.17	2766.81
204.39	3012.56
204.61	3180.50
204.83	3250.13
205.05	3028.95
205.27	2828.24
205.49	3803.08
205.71	3338.19
205.93	2731.99
206.15	2779.09
206.37	3336.14
206.59	3229.65
206.81	2713.56
207.03	2725.85
207.25	3092.43
207.47	3418.06
207.69	2922.45
207.91	3098.58
208.13	3604.42
208.34	3065.81
208.56	2805.72
208.78	2889.68
209.00	3239.89
209.22	3209.17
209.44	2779.09
209.66	2811.86
209.88	3319.76
210.10	3213.26
210.32	2783.19
210.54	2983.89
210.76	3221.45
210.98	3504.07
211.20	2715.61
211.42	2977.75
211.64	3532.75
211.86	3473.36
212.08	2955.22
212.30	2885.59
212.52	3215.31
212.74	3381.20
212.96	2932.69
213.17	3020.75
213.39	3499.98
213.61	3710.92
213.83	2842.58
214.05	2754.52
214.27	3440.59
214.49	3076.05
214.71	2869.20
214.93	2949.08
215.15	3284.94
215.37	3397.58
215.59	2725.85
215.81	2914.26
216.03	3557.32
216.24	3334.09
216.46	2838.48
216.68	2906.07
216.90	3420.11
217.12	3471.31
217.34	2766.81
217.56	3071.95
217.78	3645.38
218.00	3332.05
218.22	2983.89
218.44	2951.12
218.66	3358.67
218.87	3717.06
219.09	2805.72
219.31	2867.16
219.53	3313.61
219.75	3180.50
219.97	2889.68
220.19	2891.73
220.41	3299.28
220.63	3530.70
220.85	2863.06
221.06	2887.64
221.28	3520.46
221.50	3397.58
221.72	2807.77
221.94	2813.91
222.16	3291.09
222.38	3469.26
222.60	2844.63
222.82	2942.93
223.03	3540.94
223.25	3096.53
223.47	2758.61
223.69	3092.43
223.91	3401.68
224.13	3336.14
224.35	2754.52
224.57	3037.14
224.78	3436.49
225.00	3106.77
225.22	2910.16
225.44	2795.48
225.66	3516.36
225.88	3172.30
226.10	3018.71
226.32	2746.33
226.53	3422.16
226.75	3180.50
226.97	2895.83
227.19	2813.91
227.41	3131.34
227.63	3108.82
227.85	2729.94
228.06	2879.44
228.28	3211.22
228.50	3459.02
228.72	2711.51
228.94	2854.87
229.16	2863.06
229.37	3074.00
229.59	2766.81
229.81	3076.05
230.03	3190.74
230.25	3049.43
230.47	2680.79
230.69	2901.97
230.90	3487.69
231.12	3213.26
231.34	2916.31
231.56	2920.40
231.78	3000.27
232.00	3303.37
232.21	2883.54
232.43	2879.44
232.65	2820.05
232.87	3356.62
233.09	2764.76
233.30	2858.96
233.52	3567.56
233.74	3192.78
233.96	2867.16
234.18	3123.15
234.40	3313.61
234.61	3672.01
234.83	2803.67
235.05	2809.81
235.27	3735.50
235.49	3465.16
235.70	2795.48
235.92	2924.50
236.14	3428.30
236.36	3798.98
236.58	2766.81
236.79	2951.12
237.01	3268.56
237.23	3248.08
237.45	3090.38
237.67	2934.74
237.88	3368.91
238.10	3631.05
238.32	2742.23
238.54	2838.48
238.76	3297.23
238.97	3121.10
239.19	2777.05
239.41	2904.02
239.63	3518.41
239.85	3334.09
240.06	2944.98
240.28	2717.65
240.50	3499.98
240.72	3311.57
240.93	2764.76
241.15	2996.18
241.37	3352.52
241.59	3579.85
241.81	2926.55
242.02	2820.05
242.24	3373.00
242.46	3454.92
242.68	2686.94
242.89	2805.72
243.11	3553.23
243.33	3258.32
243.55	2904.02
243.76	2889.68
243.98	3160.02
244.20	3180.50
244.42	2936.79
244.64	2775.00
244.85	3026.90
245.07	3082.19
245.29	2807.77
245.51	2885.59
245.72	3358.67
245.94	3459.02
246.16	2904.02
246.38	2922.45
246.59	3137.49
246.81	3098.58
247.03	2721.75
247.24	2719.70
247.46	3241.93
247.68	3303.37
247.90	2729.94
248.11	2828.24
248.33	3383.24
248.55	3231.69
248.77	2916.31
248.98	2928.60
249.20	3631.05
249.42	3344.33
249.64	2785.24
249.85	2852.82
250.07	3207.12
250.29	3426.25
250.50	2934.74
250.72	2781.14
250.94	3413.96
251.16	3733.45
251.37	2856.92
251.59	2967.51
251.81	3385.29
252.02	3639.24
252.24	2770.90
252.46	3016.66
252.68	3174.35
252.89	3176.40
253.11	2781.14
253.33	3102.67
253.54	3581.90
253.76	3088.34
253.98	2877.40
254.20	2844.63
254.41	2996.18
254.63	3258.32
254.85	2731.99
255.06	2955.22
255.28	3395.53
255.50	3119.06
255.71	2789.33
255.93	2715.61
256.15	3203.02
256.36	3434.44
256.58	2750.42
256.80	2805.72
257.02	3143.63
257.23	3209.17
257.45	2930.64
257.67	2959.31
257.88	3176.40
258.10	3334.09
258.32	2752.47
258.53	2967.51
258.75	3655.62
258.97	3129.30
259.18	2783.19
259.40	2844.63
259.62	3622.86
259.83	3520.46
260.05	2887.64
260.27	3770.31
260.48	3514.31
260.70	3098.58
260.92	2748.37
261.13	2873.30
261.35	3407.82
261.57	3264.46
261.78	2740.18
262.00	2826.20
262.22	3405.77
262.43	3147.73
262.65	2807.77
262.86	2901.97
263.08	3737.54
263.30	3338.19
263.51	2707.41
263.73	2842.58
263.95	3579.85
264.16	3125.20
264.38	2678.74
264.60	2715.61
264.81	3280.85
265.03	3499.98
265.25	3266.51
265.46	2803.67
265.68	3569.61
265.89	3405.77
266.11	2678.74
266.33	2809.81
266.54	3516.36
266.76	3297.23
266.98	3004.37
267.19	3053.52
267.41	3485.64
267.62	3149.78
267.84	2660.31
268.06	2904.02
268.27	3284.94
268.49	3493.83
268.70	2951.12
268.92	2858.96
269.14	3110.86
269.35	3004.37
269.57	2996.18
269.79	2910.16
270.00	3149.78
270.22	3629.00
270.43	2779.09
270.65	2740.18
270.87	3278.80
271.08	3528.65
271.30	2969.55
271.51	2871.25
271.73	3479.50
271.95	3631.05
272.16	2848.72
272.38	3030.99
272.59	3121.10
272.81	3336.14
273.02	2783.19
273.24	2920.40
273.46	3459.02
273.67	3012.56
273.89	2729.94
274.10	2811.86
274.32	3495.88
274.54	3266.51
274.75	2967.51
274.97	2981.84
275.18	3418.06
275.40	3358.67
275.61	2906.07
275.83	3049.43
276.05	3030.99
276.26	3252.17
276.48	2977.75
276.69	2994.13
276.91	3170.26
277.12	3524.55
277.34	2992.08
277.55	3145.68
277.77	3346.38
277.99	3186.64
278.20	2942.93
278.42	2861.01
278.63	3164.11
278.85	3102.67
279.06	2967.51
279.28	3133.39
279.49	3463.12
279.71	3366.86
279.93	3071.95
280.14	3135.44
280.36	3082.19
280.57	3456.97
280.79	3063.76
281.00	2879.44
281.22	3229.65
281.43	3504.07
281.65	2746.33
281.86	2832.34
282.08	3405.77
282.29	3667.91
282.51	2932.69
282.73	2906.07
282.94	2895.83
283.16	3444.68
283.37	3164.11
283.59	3020.75
283.80	3440.59
284.02	3297.23
284.23	3039.19
284.45	3016.66
284.66	3125.20
284.88	3106.77
285.09	2947.03
285.31	3119.06
285.52	3401.68
285.74	2885.59
285.95	3313.61
286.17	3026.90
286.38	3516.36
286.60	3268.56
286.81	2930.64
287.03	2977.75
287.24	3248.08
287.46	3413.96
287.67	3182.54
287.89	3225.55
288.10	3233.74
288.32	3246.03
288.53	3108.82
288.75	3012.56
288.96	3401.68
289.18	3200.98
289.39	2881.49
289.61	3104.72
289.82	3643.34
290.04	3715.02
290.25	2834.39
290.47	3067.86
290.68	3258.32
290.90	3524.55
291.11	2748.37
291.33	3098.58
291.54	3155.92
291.76	3139.54
291.97	3151.82
292.18	3133.39
292.40	3223.50
292.61	3092.43
292.83	3311.57
293.04	2947.03
293.26	3379.15
293.47	3274.70
293.69	2959.31
293.90	2918.36
294.12	3583.95
294.33	3358.67
294.55	3129.30
294.76	3246.03
294.97	3540.94
295.19	3774.41
295.40	2951.12
295.62	3055.57
295.83	3473.36
296.05	3123.15
296.26	3153.87
296.48	3012.56
296.69	3223.50
296.90	3237.84
297.12	3133.39
297.33	3123.15
297.55	3248.08
297.76	3360.72
297.98	3100.62
298.19	3110.86
298.41	3213.26
298.62	3149.78
298.83	3266.51
299.05	3037.14
299.26	3147.73
299.48	3086.29
299.69	2987.99
299.90	3004.37
300.12	3104.72
300.33	3436.49
300.55	3049.43
300.76	2971.60
300.98	3135.44
301.19	3409.87
301.40	3010.51
301.62	3035.09
301.83	3436.49
302.05	3270.61
302.26	3026.90
302.47	2994.13
302.69	3076.05
302.90	3293.13
303.12	2799.57
303.33	3131.34
303.54	3772.36
303.76	3164.11
303.97	2955.22
304.19	3246.03
304.40	3074.00
304.61	3370.96
304.83	3157.97
305.04	3074.00
305.26	3467.21
305.47	3153.87
305.68	3055.57
305.90	2904.02
306.11	3585.99
306.33	3264.46
306.54	2912.21
306.75	2959.31
306.97	3053.52
307.18	3045.33
307.39	3010.51
307.61	3123.15
307.82	3274.70
308.04	3360.72
308.25	2846.68
308.46	3133.39
308.68	3276.75
308.89	3309.52
309.10	3071.95
309.32	3012.56
309.53	3254.22
309.74	3407.82
309.96	2901.97
310.17	3125.20
310.39	3192.78
310.60	3401.68
310.81	3155.92
311.03	2965.46
311.24	3330.00
311.45	3286.99
311.67	3205.07
311.88	3133.39
312.09	3258.32
312.31	3100.62
312.52	2924.50
312.73	2916.31
312.95	3041.23
313.16	3088.34
313.37	3119.06
313.59	3123.15
313.80	3459.02
314.01	3569.61
314.23	3020.75
314.44	2918.36
314.65	2969.55
314.87	3100.62
315.08	3063.76
315.29	2994.13
315.51	3020.75
315.72	2865.11
315.93	3045.33
316.15	3020.75
316.36	3237.84
316.57	3379.15
316.79	2916.31
317.00	2967.51
317.21	3440.59
317.43	3176.40
317.64	3018.71
317.85	2918.36
318.07	3082.19
318.28	3180.50
318.49	3100.62
318.70	3307.47
318.92	3319.76
319.13	3352.52
319.34	3174.35
319.56	3026.90
319.77	3385.29
319.98	3420.11
320.20	3219.41
320.41	3147.73
320.62	3403.72
320.83	3045.33
321.05	3180.50
321.26	2971.60
321.47	3313.61
321.69	3526.60
321.90	2858.96
322.11	2934.74
322.32	3280.85
322.54	3588.04
322.75	3076.05
322.96	4036.55
323.18	2983.89
323.39	2885.59
323.60	2779.09
323.81	3172.30
324.03	3194.83
324.24	3268.56
324.45	3127.25
324.66	2916.31
324.88	3463.12
325.09	3530.70
325.30	3018.71
325.52	2869.20
325.73	3354.57
325.94	3100.62
326.15	2895.83
326.37	2811.86
326.58	3459.02
326.79	3688.39
327.00	2953.17
327.22	2977.75
327.43	3282.89
327.64	2987.99
327.85	3110.86
328.07	3092.43
328.28	3651.53
328.49	3145.68
328.70	3039.19
328.92	3026.90
329.13	3209.17
329.34	3418.06
329.55	3262.41
329.76	3076.05
329.98	3190.74
330.19	3450.83
330.40	3053.52
330.61	3104.72
330.83	3418.06
331.04	3080.14
331.25	3135.44
331.46	3076.05
331.68	3069.91
331.89	3481.55
332.10	2998.23
332.31	2918.36
332.52	3241.93
332.74	3522.51
332.95	2828.24
333.16	2959.31
333.37	3395.53
333.58	3180.50
333.80	3024.85
334.01	2844.63
334.22	3272.65
334.43	3170.26
334.64	2906.07
334.86	2947.03
335.07	3108.82
335.28	3499.98
335.49	2914.26
335.70	3117.01
335.92	3612.62
336.13	3696.58
336.34	2996.18
336.55	2996.18
336.76	3401.68
336.98	2932.69
337.19	2985.94
337.40	3084.24
337.61	3790.79
337.82	3190.74
338.04	3102.67
338.25	2914.26
338.46	3311.57
338.67	3147.73
338.88	2916.31
339.09	2914.26
339.31	3162.06
339.52	3035.09
339.73	2992.08
339.94	3074.00
340.15	3452.88
340.36	3229.65
340.58	3055.57
340.79	2912.21
341.00	3428.30
341.21	3098.58
341.42	3315.66
341.63	2981.84
341.85	3485.64
342.06	3327.95
342.27	2947.03
342.48	3149.78
342.69	3028.95
342.90	3352.52
343.12	3360.72
343.33	2949.08
343.54	3471.31
343.75	3585.99
343.96	3071.95
344.17	2893.78
344.38	3284.94
344.60	3047.38
344.81	2983.89
345.02	3016.66
345.23	3452.88
345.44	3809.22
345.65	3020.75
345.86	3121.10
346.07	3254.22
346.29	3147.73
346.50	3139.54
346.71	3133.39
346.92	3428.30
347.13	3766.21
347.34	3047.38
347.55	2863.06
347.76	3348.43
347.98	3016.66
348.19	3074.00
348.40	3155.92
348.61	3215.31
348.82	3575.75
349.03	3174.35
349.24	2887.64
349.45	3655.62
349.66	2844.63
349.88	2953.17
350.09	2996.18
350.30	3600.33
350.51	3504.07
350.72	3196.88
350.93	2920.40
351.14	3246.03
351.35	3295.18
351.56	3063.76
351.77	3123.15
351.99	3393.48
352.20	3504.07
352.41	3074.00
352.62	2807.77
352.83	3278.80
353.04	3205.07
353.25	2959.31
353.46	3024.85
353.67	3465.16
353.88	2897.88
354.09	2965.46
354.30	2990.03
354.52	3532.75
354.73	3246.03
354.94	2944.98
355.15	2981.84
355.36	3778.50
355.57	3151.82
355.78	2975.70
355.99	2969.55
356.20	3182.54
356.41	3559.37
356.62	3053.52
356.83	3145.68
357.04	3598.28
357.25	2938.84
357.46	2961.36
357.68	2918.36
357.89	3071.95
358.10	3303.37
358.31	3012.56
358.52	3051.47
358.73	3008.47
358.94	3098.58
359.15	3082.19
359.36	3090.38
359.57	3340.24
359.78	3157.97
359.99	3162.06
360.20	2920.40
360.41	3248.08
360.62	3387.34
360.83	3086.29
361.04	3045.33
361.25	3356.62
361.46	3585.99
361.67	3102.67
361.88	3053.52
362.09	3373.00
362.30	3389.39
362.51	2992.08
362.72	3010.51
362.93	3403.72
363.14	3452.88
363.35	3051.47
363.56	2979.79
363.78	3459.02
363.99	3553.23
364.20	3004.37
364.41	2979.79
364.62	3723.21
364.83	3315.66
365.04	3022.80
365.25	3006.42
365.46	3559.37
365.67	3155.92
365.88	3125.20
366.09	2981.84
366.30	3221.45
366.51	3282.89
366.72	2936.79
366.93	2979.79
367.14	3231.69
367.35	3518.41
367.56	3024.85
367.77	3174.35
367.98	3243.98
368.18	3327.95
368.39	3164.11
368.60	2951.12
368.81	3346.38
369.02	3346.38
369.23	2944.98
369.44	2889.68
369.65	3278.80
369.86	3336.14
370.07	3092.43
370.28	2994.13
370.49	3385.29
370.70	3291.09
370.91	2934.74
371.12	2934.74
371.33	3524.55
371.54	3172.30
371.75	3174.35
371.96	2752.47
372.17	3346.38
372.38	3289.04
372.59	2961.36
372.80	2918.36
373.01	3205.07
373.22	3282.89
373.43	2934.74
373.64	2944.98
373.85	3559.37
374.06	3583.95
374.26	3211.22
374.47	3114.96
374.68	3614.66
374.89	3358.67
375.10	2934.74
375.31	3141.58
375.52	3315.66
375.73	3315.66
375.94	2828.24
376.15	3141.58
376.36	3157.97
376.57	3194.83
376.78	3022.80
376.99	3049.43
377.20	3532.75
377.40	3299.28
377.61	3375.05
377.82	3008.47
378.03	3624.90
378.24	3327.95
378.45	3051.47
378.66	3057.62
378.87	2969.55
379.08	2981.84
379.29	2992.08
379.50	3147.73
379.71	3303.37
379.91	3385.29
380.12	2975.70
380.33	3131.34
380.54	3241.93
380.75	3276.75
380.96	2926.55
381.17	2916.31
381.38	3330.00
381.59	3262.41
381.80	3110.86
382.00	3196.88
382.21	3385.29
382.42	3581.90
382.63	3387.34
382.84	3106.77
383.05	3461.07
383.26	3573.71
383.47	3147.73
383.68	3043.28
383.88	3340.24
384.09	3301.33
384.30	3198.93
384.51	3086.29
384.72	3235.79
384.93	3127.25
385.14	3143.63
385.35	3266.51
385.55	3045.33
385.76	3467.21
385.97	3018.71
386.18	2895.83
386.39	3047.38
386.60	3207.12
386.81	2998.23
387.02	2901.97
387.22	2977.75
387.43	3461.07
387.64	3164.11
387.85	3217.36
388.06	3346.38
388.27	4329.41
388.48	7737.23
388.68	11884.36
388.89	14896.92
389.10	16385.80
389.31	15918.86
389.52	12924.73
389.73	10964.82
389.93	10327.91
390.14	9095.03
390.35	8501.12
390.56	7815.05
390.77	6655.90
390.98	5040.05
391.18	4198.34
391.39	3835.85
391.60	3327.95
391.81	3346.38
392.02	3082.19
392.23	3758.02
392.43	3368.91
392.64	3207.12
392.85	3086.29
393.06	3612.62
393.27	3336.14
393.47	3057.62
393.68	3069.91
393.89	3243.98
394.10	3571.66
394.31	3047.38
394.52	2979.79
394.72	3180.50
394.93	3608.52
395.14	2889.68
395.35	3143.63
395.56	3155.92
395.76	3264.46
395.97	3057.62
396.18	3180.50
396.39	3229.65
396.60	3928.00
396.80	3495.88
397.01	3237.84
397.22	3514.31
397.43	3516.36
397.64	2977.75
397.84	3082.19
398.05	3674.06
398.26	3229.65
398.47	3237.84
398.67	3235.79
398.88	3346.38
399.09	3375.05
399.30	3076.05
399.51	3012.56
399.71	3082.19
399.92	3252.17
400.13	3164.11
400.34	3004.37
400.54	3264.46
400.75	3542.99
400.96	3235.79
401.17	3413.96
401.37	3418.06
401.58	3217.36
401.79	2971.60
402.00	3190.74
402.21	3690.44
402.41	3459.02
402.62	3354.57
402.83	3524.55
403.04	3758.02
403.24	4018.11
403.45	3131.34
403.66	3344.33
403.87	3538.89
404.07	3616.71
404.28	3293.13
404.49	3383.24
404.70	3499.98
404.90	3391.44
405.11	3049.43
405.32	3082.19
405.52	3055.57
405.73	3108.82
405.94	2908.12
406.15	3123.15
406.35	3356.62
406.56	3411.92
406.77	3028.95
406.98	3114.96
407.18	3133.39
407.39	3573.71
407.60	3043.28
407.80	3180.50
408.01	3211.22
408.22	3401.68
408.43	2934.74
408.63	3188.69
408.84	3473.36
409.05	3370.96
409.25	3008.47
409.46	3024.85
409.67	3125.20
409.88	3188.69
410.08	3084.24
410.29	3035.09
410.50	3483.59
410.70	3334.09
410.91	3006.42
411.12	3065.81
411.32	3377.10
411.53	3151.82
411.74	3002.32
411.95	3162.06
412.15	3295.18
412.36	3426.25
412.57	3188.69
412.77	3313.61
412.98	3299.28
413.19	3254.22
413.39	3141.58
413.60	3110.86
413.81	3635.14
414.01	3045.33
414.22	3037.14
414.43	3264.46
414.63	3147.73
414.84	3397.58
415.05	3057.62
415.25	2912.21
415.46	3430.35
415.67	3196.88
415.87	2957.27
416.08	2998.23
416.29	3254.22
416.49	3344.33
416.70	3147.73
416.91	3043.28
417.11	3168.21
417.32	3508.17
417.53	3065.81
417.73	3131.34
417.94	3305.42
418.15	3360.72
418.35	2985.94
418.56	3047.38
418.77	3819.46
418.97	3272.65
419.18	3176.40
419.38	2736.09
419.59	3295.18
419.80	3633.10
420.00	2994.13
420.21	3119.06
420.42	3538.89
420.62	3401.68
420.83	3016.66
421.04	3074.00
421.24	3282.89
421.45	3428.30
421.65	3049.43
421.86	3117.01
422.07	3456.97
422.27	3309.52
422.48	2963.41
422.69	2918.36
422.89	3229.65
423.10	3178.45
423.30	3016.66
423.51	3076.05
423.72	3356.62
423.92	3411.92
424.13	2957.27
424.33	3139.54
424.54	3459.02
424.75	3319.76
424.95	3284.94
425.16	3026.90
425.36	3260.37
425.57	3506.12
425.78	3205.07
425.98	3172.30
426.19	3246.03
426.39	3153.87
426.60	3110.86
426.81	3200.98
427.01	3366.86
427.22	3061.71
427.42	2865.11
427.63	2961.36
427.83	3436.49
428.04	3688.39
428.25	3110.86
428.45	3211.22
428.66	3459.02
428.86	3258.32
429.07	3131.34
429.28	3053.52
429.48	3254.22
429.69	3090.38
429.89	3110.86
430.10	2922.45
430.30	3364.81
430.51	3452.88
430.71	2998.23
430.92	3102.67
431.13	3256.27
431.33	3342.28
431.54	3135.44
431.74	3260.37
431.95	3758.02
432.15	3182.54
432.36	3033.04
432.56	3131.34
432.77	3655.62
432.98	3643.34
433.18	3151.82
433.39	2924.50
433.59	3207.12
433.80	3758.02
434.00	3188.69
434.21	3205.07
434.41	3071.95
434.62	3815.37
434.82	2895.83
435.03	3033.04
435.23	3317.71
435.44	2953.17
435.64	3033.04
435.85	3123.15
436.06	3430.35
436.26	3465.16
436.47	3131.34
436.67	2951.12
436.88	3168.21
437.08	3448.78
437.29	3174.35
437.49	3131.34
437.70	3590.09
437.90	3274.70
438.11	3276.75
438.31	3076.05
438.52	3536.84
438.72	3504.07
438.93	3491.79
439.13	3160.02
439.34	3477.45
439.54	3237.84
439.75	3180.50
439.95	3176.40
440.16	3080.14
440.36	3235.79
440.57	3059.67
440.77	3092.43
440.98	3303.37
441.18	3303.37
441.39	2994.13
441.59	2973.65
441.80	3782.60
442.00	3266.51
442.21	3114.96
442.41	2895.83
442.62	3454.92
442.82	3211.22
443.02	3063.76
443.23	3028.95
443.43	3221.45
443.64	3459.02
443.84	2858.96
444.05	3135.44
444.25	3301.33
444.46	3252.17
444.66	3045.33
444.87	3246.03
445.07	2887.64
445.28	3262.41
445.48	3262.41
445.69	3098.58
445.89	3798.98
446.09	3250.13
446.30	3442.64
446.50	3487.69
446.71	5044.15
446.91	6334.37
447.12	7217.04
447.32	7493.52
447.53	7554.96
447.73	6492.06
447.93	5502.89
448.14	5273.52
448.34	5431.21
448.55	4517.82
448.75	4437.95
448.96	4112.32
449.16	4077.51
449.36	3889.09
449.57	3368.91
449.77	3190.74
449.98	3168.21
450.18	3346.38
450.39	3022.80
450.59	3268.56
450.79	3262.41
451.00	3178.45
451.20	3254.22
451.41	3094.48
451.61	3418.06
451.81	3260.37
452.02	2994.13
452.22	3002.32
452.43	3205.07
452.63	3196.88
452.84	3223.50
453.04	2983.89
453.24	3250.13
453.45	3188.69
453.65	3098.58
453.86	3092.43
454.06	3278.80
454.26	3317.71
454.47	3049.43
454.67	3190.74
454.87	3332.05
455.08	3237.84
455.28	3184.59
455.49	3139.54
455.69	3170.26
455.89	3794.89
456.10	3180.50
456.30	3002.32
456.51	3395.53
456.71	3344.33
456.91	3123.15
457.12	3012.56
457.32	3409.87
457.52	3057.62
457.73	3153.87
457.93	3246.03
458.14	3147.73
458.34	2967.51
458.54	3061.71
458.75	3014.61
458.95	3557.32
459.15	3411.92
459.36	3100.62
459.56	3076.05
459.76	3708.87
459.97	3233.74
460.17	3018.71
460.37	3166.16
460.58	3243.98
460.78	3477.45
460.99	3071.95
461.19	3051.47
461.39	3110.86
461.60	3260.37
461.80	3065.81
462.00	2951.12
462.21	3286.99
462.41	3037.14
462.61	2912.21
462.82	2877.40
463.02	3418.06
463.22	3323.85
463.43	3172.30
463.63	2979.79
463.83	3553.23
464.04	3395.53
464.24	3018.71
464.44	2983.89
464.64	3346.38
464.85	3362.76
465.05	3065.81
465.25	2940.88
465.46	3190.74
465.66	3440.59
465.86	3100.62
466.07	3010.51
466.27	3254.22
466.47	3035.09
466.68	2951.12
466.88	3143.63
467.08	3485.64
467.29	3487.69
467.49	3051.47
467.69	3157.97
467.89	3387.34
468.10	3246.03
468.30	3205.07
468.50	3157.97
468.71	3432.40
468.91	2985.94
469.11	3196.88
469.31	3188.69
469.52	3108.82
469.72	3639.24
469.92	3321.81
470.13	3094.48
470.33	3258.32
470.53	3356.62
470.73	3483.59
470.94	3854.28
471.14	4073.41
471.34	4589.50
471.54	4368.32
471.75	4005.83
471.95	3831.75
472.15	3751.88
472.36	3755.97
472.56	3499.98
472.76	3819.46
472.96	3745.73
473.17	3387.34
473.37	3180.50
473.57	3231.69
473.77	3356.62
473.98	3188.69
474.18	2934.74
474.38	4077.51
474.58	3233.74
474.79	2971.60
474.99	3200.98
475.19	3610.57
475.39	3082.19
475.60	3112.91
475.80	2965.46
476.00	3344.33
476.20	3180.50
476.41	3131.34
476.61	3114.96
476.81	3659.72
477.01	3135.44
477.21	3354.57
477.42	3164.11
477.62	3172.30
477.82	3432.40
478.02	3000.27
478.23	3053.52
478.43	3045.33
478.63	3188.69
478.83	3082.19
479.03	3117.01
479.24	3590.09
479.44	3676.10
479.64	2987.99
479.84	2959.31
480.04	3168.21
480.25	3428.30
480.45	3084.24
480.65	3053.52
480.85	3661.77
481.06	3119.06
481.26	3080.14
481.46	3135.44
481.66	3313.61
481.86	3106.77
482.06	3223.50
482.27	3043.28
482.47	3147.73
482.67	3352.52
482.87	3219.41
483.07	3131.34
483.28	3176.40
483.48	3028.95
483.68	2990.03
483.88	2924.50
484.08	2846.68
484.29	3033.04
484.49	3198.93
484.69	2844.63
484.89	3606.47
485.09	3557.32
485.29	3080.14
485.50	3164.11
485.70	3207.12
485.90	3502.03
486.10	3170.26
486.30	3033.04
486.50	3588.04
486.71	3295.18
486.91	3166.16
487.11	3096.53
487.31	2979.79
487.51	3434.44
487.71	3041.23
487.91	2975.70
488.12	3045.33
488.32	2944.98
488.52	3020.75
488.72	2830.29
488.92	3297.23
489.12	3538.89
489.32	3229.65
489.53	3135.44
489.73	2983.89
489.93	3672.01
490.13	3114.96
490.33	2899.92
490.53	3297.23
490.73	3409.87
490.94	2875.35
491.14	3141.58
491.34	3434.44
491.54	3364.81
491.74	4014.02
491.94	4499.39
492.14	5031.86
492.34	5253.04
492.54	4814.77
492.75	4151.23
492.95	4415.42
493.15	4028.35
493.35	3835.85
493.55	3680.20
493.75	3647.43
493.95	3819.46
494.15	3401.68
494.35	3196.88
494.56	3332.05
494.76	3149.78
494.96	3248.08
495.16	3002.32
495.36	3286.99
495.56	3401.68
495.76	3092.43
495.96	3065.81
496.16	3061.71
496.36	3710.92
496.56	3024.85
496.77	3049.43
496.97	3231.69
497.17	3563.47
497.37	2920.40
497.57	3190.74
497.77	3409.87
497.97	3106.77
498.17	3078.10
498.37	3018.71
498.57	3530.70
498.77	3225.55
498.97	3278.80
499.17	3475.40
499.38	3274.70
499.58	3393.48
499.78	3252.17
499.98	3254.22
500.18	3264.46
500.38	3149.78
500.58	3233.74
500.78	3604.42
500.98	6217.63
501.18	8267.65
501.38	9774.95
501.58	10743.64
501.78	10745.69
501.98	9029.49
502.18	7489.42
502.38	6453.15
502.58	6326.18
502.78	5658.54
502.98	5377.97
503.18	5228.46
503.38	4906.93
503.59	4239.30
503.79	4069.31
503.99	3815.37
504.19	3913.67
504.39	3893.19
504.59	3706.82
504.79	3612.62
504.99	4028.35
505.19	3626.95
505.39	3268.56
505.59	3450.83
505.79	3708.87
505.99	3549.13
506.19	3121.10
506.39	3368.91
506.59	3172.30
506.79	3301.33
506.99	3336.14
507.19	3004.37
507.39	3375.05
507.59	3022.80
507.79	3000.27
507.99	3051.47
508.19	3317.71
508.39	3219.41
508.59	3078.10
508.79	3106.77
508.99	3755.97
509.19	3098.58
509.39	3143.63
509.59	3028.95
509.79	3209.17
509.99	3350.48
510.19	3157.97
510.39	3172.30
510.59	3256.27
510.79	3188.69
510.99	2875.35
511.19	3030.99
511.39	3555.27
511.59	3520.46
511.79	3192.78
511.99	3006.42
512.19	3702.73
512.38	3270.61
512.58	3008.47
512.78	2973.65
512.98	3446.73
513.18	3598.28
513.38	2979.79
513.58	3127.25
513.78	3268.56
513.98	3256.27
514.18	3061.71
514.38	3061.71
514.58	3428.30
514.78	3252.17
514.98	2983.89
515.18	3100.62
515.38	3049.43
515.58	3626.95
515.78	3035.09
515.98	3110.86
516.18	3362.76
516.38	3254.22
516.57	3086.29
516.77	3022.80
516.97	3497.93
517.17	3108.82
517.37	2836.44
517.57	3170.26
517.77	3274.70
517.97	3069.91
518.17	3127.25
518.37	3000.27
518.57	3094.48
518.77	3160.02
518.97	3127.25
519.16	3053.52
519.36	3456.97
519.56	3149.78
519.76	3069.91
519.96	3106.77
520.16	3596.23
520.36	3123.15
520.56	3141.58
520.76	3053.52
520.96	3200.98
521.16	3459.02
521.35	3274.70
521.55	3196.88
521.75	3309.52
521.95	3196.88
522.15	3088.34
522.35	2951.12
522.55	3112.91
522.75	3405.77
522.95	2992.08
523.14	2930.64
523.34	3297.23
523.54	3178.45
523.74	3196.88
523.94	3123.15
524.14	3037.14
524.34	3327.95
524.54	3289.04
524.73	3051.47
524.93	3467.21
525.13	3270.61
525.33	2897.88
525.53	3295.18
525.73	3430.35
525.93	3397.58
526.13	3119.06
526.32	2947.03
526.52	3434.44
526.72	3332.05
526.92	3084.24
527.12	2987.99
527.32	2983.89
527.52	3377.10
527.71	3155.92
527.91	3088.34
528.11	3231.69
528.31	3246.03
528.51	2987.99
528.71	3270.61
528.90	3424.20
529.10	3491.79
529.30	3166.16
529.50	2815.96
529.70	3278.80
529.90	3270.61
530.09	3037.14
530.29	2901.97
530.49	3112.91
530.69	3749.83
530.89	3157.97
531.09	3145.68
531.28	3233.74
531.48	3499.98
531.68	3063.76
531.88	3088.34
532.08	3293.13
532.28	3190.74
532.47	3198.93
532.67	3100.62
532.87	3405.77
533.07	3125.20
533.27	3102.67
533.46	3000.27
533.66	3411.92
533.86	3299.28
534.06	3151.82
534.26	3084.24
534.45	3194.83
534.65	3430.35
534.85	3233.74
535.05	3002.32
535.25	3489.74
535.44	3000.27
535.64	3194.83
535.84	3065.81
536.04	3157.97
536.24	3164.11
536.43	3024.85
536.63	3018.71
536.83	3272.65
537.03	3229.65
537.22	2875.35
537.42	2828.24
537.62	3368.91
537.82	3057.62
538.02	3282.89
538.21	3184.59
538.41	3860.42
538.61	3434.44
538.81	3196.88
539.00	3180.50
539.20	3024.85
539.40	3233.74
539.60	3004.37
539.79	3270.61
539.99	3213.26
540.19	3110.86
540.39	2985.94
540.58	3162.06
540.78	3497.93
540.98	3325.90
541.18	3196.88
541.37	3049.43
541.57	3219.41
541.77	3366.86
541.97	2983.89
542.16	2897.88
542.36	3170.26
542.56	3221.45
542.76	3248.08
542.95	3084.24
543.15	3313.61
543.35	3446.73
543.54	2924.50
543.74	2977.75
543.94	3553.23
544.14	3172.30
544.33	3172.30
544.53	3086.29
544.73	3157.97
544.93	3248.08
545.12	3098.58
545.32	3098.58
545.52	3182.54
545.71	3043.28
545.91	3071.95
546.11	2977.75
546.30	3080.14
546.50	3327.95
546.70	3211.22
546.90	3094.48
547.09	2897.88
547.29	3258.32
547.49	3196.88
547.68	3045.33
547.88	3127.25
548.08	3438.54
548.27	3330.00
548.47	3000.27
548.67	3151.82
548.87	3264.46
549.06	3020.75
549.26	2979.79
549.46	3358.67
549.65	3225.55
549.85	3094.48
550.05	3035.09
550.24	3020.75
550.44	3239.89
550.64	3196.88
550.83	3145.68
551.03	3532.75
551.23	3491.79
551.42	3166.16
551.62	3127.25
551.82	3241.93
552.01	3237.84
552.21	3397.58
552.41	3053.52
552.60	3608.52
552.80	3323.85
553.00	3106.77
553.19	3000.27
553.39	3635.14
553.59	2992.08
553.78	3164.11
553.98	3074.00
554.17	2992.08
554.37	3411.92
554.57	3160.02
554.76	2877.40
554.96	3258.32
555.16	3258.32
555.35	3131.34
555.55	3264.46
555.75	3305.42
555.94	3385.29
556.14	2895.83
556.33	3100.62
556.53	3227.60
556.73	3344.33
556.92	3071.95
557.12	3037.14
557.32	3708.87
557.51	3508.17
557.71	3114.96
557.90	3174.35
558.10	3512.27
558.30	3203.02
558.49	3106.77
558.69	3035.09
558.88	3442.64
559.08	3332.05
559.28	3039.19
559.47	3018.71
559.67	3311.57
559.86	3682.25
560.06	2969.55
560.26	3065.81
560.45	3385.29
560.65	3233.74
560.84	3377.10
561.04	3018.71
561.24	3434.44
561.43	3041.23
561.63	3350.48
561.82	3135.44
562.02	3483.59
562.22	3164.11
562.41	3014.61
562.61	2969.55
562.80	3098.58
563.00	3803.08
563.19	3076.05
563.39	3174.35
563.59	3385.29
563.78	3061.71
563.98	2752.47
564.17	3016.66
564.37	2881.49
564.56	3274.70
564.76	2922.45
564.96	3155.92
565.15	3286.99
565.35	3749.83
565.54	3182.54
565.74	3117.01
565.93	3397.58
566.13	3229.65
566.32	3170.26
566.52	3192.78
566.71	3243.98
566.91	3438.54
567.11	3198.93
567.30	2977.75
567.50	3401.68
567.69	3276.75
567.89	3043.28
568.08	3008.47
568.28	3354.57
568.47	3069.91
568.67	3080.14
568.86	3084.24
569.06	3407.82
569.25	3223.50
569.45	2930.64
569.64	3059.67
569.84	3157.97
570.04	3332.05
570.23	3180.50
570.43	2992.08
570.62	3344.33
570.82	3631.05
571.01	2963.41
571.21	2975.70
571.40	3074.00
571.60	3397.58
571.79	3194.83
571.99	3045.33
572.18	3033.04
572.38	3303.37
572.57	3108.82
572.77	3069.91
572.96	3915.72
573.16	3280.85
573.35	3069.91
573.55	3215.31
573.74	3268.56
573.94	3203.02
574.13	3043.28
574.33	3231.69
574.52	3493.83
574.71	3252.17
574.91	3098.58
575.10	3004.37
575.30	3149.78
575.49	3037.14
575.69	2983.89
575.88	3045.33
576.08	3229.65
576.27	3403.72
576.47	2953.17
576.66	3258.32
576.86	3530.70
577.05	3276.75
577.25	3123.15
577.44	3188.69
577.64	3155.92
577.83	3461.07
578.02	3041.23
578.22	3207.12
578.41	3649.48
578.61	3178.45
578.80	2926.55
579.00	3100.62
579.19	3215.31
579.39	3393.48
579.58	3246.03
579.77	3074.00
579.97	3573.71
580.16	3471.31
580.36	3313.61
580.55	3170.26
580.75	3346.38
580.94	3231.69
581.13	3284.94
581.33	3336.14
581.52	3286.99
581.72	3674.06
581.91	3157.97
582.11	3008.47
582.30	3446.73
582.49	3327.95
582.69	3330.00
582.88	3112.91
583.08	3387.34
583.27	3596.23
583.47	3213.26
583.66	3014.61
583.85	3102.67
584.05	3309.52
584.24	3098.58
584.44	3100.62
584.63	3428.30
584.82	3567.56
585.02	3319.76
585.21	3180.50
585.41	3411.92
585.60	3354.57
585.79	3266.51
585.99	3446.73
586.18	3229.65
586.37	4302.78
586.57	6444.96
586.76	17792.75
586.96	37066.19
587.15	50310.40
587.34	59174.01
587.54	62766.15
587.73	56251.56
587.93	40533.40
588.12	31223.33
588.31	25683.58
588.51	22656.68
588.70	20967.10
588.89	18587.36
589.09	15679.25
589.28	13637.42
589.47	10686.30
589.67	8253.31
589.86	6447.01
590.06	5064.63
590.25	4552.63
590.44	3887.04
590.64	3489.74
590.83	3608.52
591.02	3559.37
591.22	3090.38
591.41	3223.50
591.60	3301.33
591.80	3831.75
591.99	2961.36
592.18	3037.14
592.38	3512.27
592.57	3092.43
592.76	3108.82
592.96	3225.55
593.15	3235.79
593.34	3532.75
593.54	3043.28
593.73	3252.17
593.92	3377.10
594.12	3385.29
594.31	3129.30
594.50	3215.31
594.70	3387.34
594.89	3882.95
595.08	2906.07
595.28	3235.79
595.47	3880.90
595.66	3395.53
595.86	2959.31
596.05	2975.70
596.24	3250.13
596.43	3635.14
596.63	3155.92
596.82	3198.93
597.01	3366.86
597.21	3684.30
597.40	3043.28
597.59	3108.82
597.79	3223.50
597.98	3409.87
598.17	3088.34
598.36	3080.14
598.56	3469.26
598.75	3200.98
598.94	3141.58
599.14	3194.83
599.33	3213.26
599.52	3413.96
599.71	3135.44
599.91	3090.38
600.10	3348.43
600.29	3340.24
600.48	3074.00
600.68	3180.50
600.87	3385.29
601.06	3164.11
601.26	3127.25
601.45	3243.98
601.64	3211.22
601.83	3545.03
602.03	2975.70
602.22	2938.84
602.41	3540.94
602.60	3788.74
602.80	3157.97
602.99	3250.13
603.18	3172.30
603.37	3401.68
603.57	3059.67
603.76	3090.38
603.95	3497.93
604.14	3137.49
604.34	3018.71
604.53	3086.29
604.72	3315.66
604.91	3428.30
605.10	3041.23
605.30	3020.75
605.49	3776.45
605.68	3383.24
605.87	3028.95
606.07	3065.81
606.26	3250.13
606.45	3375.05
606.64	3067.86
606.84	2922.45
607.03	3368.91
607.22	3502.03
607.41	3239.89
607.60	3141.58
607.80	3467.21
607.99	3229.65
608.18	3139.54
608.37	3119.06
608.56	3151.82
608.76	3489.74
608.95	3229.65
609.14	2975.70
609.33	3452.88
609.52	3608.52
609.72	3248.08
609.91	3180.50
610.10	3395.53
610.29	3614.66
610.48	3205.07
610.68	3254.22
610.87	3291.09
611.06	3418.06
611.25	3057.62
611.44	3157.97
611.63	3252.17
611.83	3616.71
612.02	3039.19
612.21	3250.13
612.40	2908.12
612.59	2969.55
612.79	2981.84
612.98	3123.15
613.17	3647.43
613.36	3239.89
613.55	3262.41
613.74	3141.58
613.93	3358.67
614.13	3495.88
614.32	3338.19
614.51	3192.78
614.70	3254.22
614.89	3192.78
615.08	3252.17
615.28	3424.20
615.47	3086.29
615.66	3377.10
615.85	3114.96
616.04	3174.35
616.23	3258.32
616.42	3272.65
616.62	3096.53
616.81	3155.92
617.00	3303.37
617.19	3368.91
617.38	3016.66
617.57	3198.93
617.76	3426.25
617.95	3483.59
618.15	3221.45
618.34	3246.03
618.53	3057.62
618.72	3545.03
618.91	3231.69
619.10	3127.25
619.29	3344.33
619.48	3370.96
619.68	2947.03
619.87	3065.81
620.06	3008.47
620.25	3426.25
620.44	2998.23
620.63	3004.37
620.82	3254.22
621.01	3354.57
621.20	3131.34
621.39	3151.82
621.59	3375.05
621.78	3309.52
621.97	3125.20
622.16	3182.54
622.35	3387.34
622.54	3413.96
622.73	3168.21
622.92	2844.63
623.11	3461.07
623.30	3280.85
623.49	3147.73
623.68	2987.99
623.88	3518.41
624.07	3112.91
624.26	2983.89
624.45	3088.34
624.64	3225.55
624.83	3229.65
625.02	2969.55
625.21	3086.29
625.40	3360.72
625.59	3598.28
625.78	3227.60
625.97	3198.93
626.16	3532.75
626.35	3479.50
626.54	3164.11
626.74	3360.72
626.93	3192.78
627.12	3280.85
627.31	3186.64
627.50	3082.19
627.69	3493.83
627.88	3024.85
628.07	3049.43
628.26	2815.96
628.45	3100.62
628.64	3114.96
628.83	3051.47
629.02	2910.16
629.21	3430.35
629.40	3387.34
629.59	2942.93
629.78	3041.23
629.97	3352.52
630.16	3299.28
630.35	3059.67
630.54	3205.07
630.73	3172.30
630.92	3182.54
631.11	3008.47
631.30	3114.96
631.49	3477.45
631.68	3241.93
631.87	3125.20
632.06	3002.32
632.25	3739.59
632.44	3327.95
632.63	3065.81
632.82	3114.96
633.01	3174.35
633.20	3389.39
633.39	3096.53
633.58	2938.84
633.77	3362.76
633.96	3418.06
634.15	3254.22
634.34	3200.98
634.53	3413.96
634.72	3141.58
634.91	2983.89
635.10	3090.38
635.29	3487.69
635.48	3262.41
635.67	2985.94
635.86	2895.83
636.05	3555.27
636.24	3303.37
636.43	3037.14
636.62	3180.50
636.81	2922.45
637.00	3397.58
637.19	3090.38
637.38	3074.00
637.57	3184.59
637.76	3299.28
637.95	3301.33
638.14	3215.31
638.33	3315.66
638.52	3348.43
638.71	2998.23
638.89	2940.88
639.08	3831.75
639.27	3479.50
639.46	3409.87
639.65	3631.05
639.84	3864.52
640.03	4069.31
640.22	3577.80
640.41	3590.09
640.60	3420.11
640.79	3481.55
640.98	3262.41
641.17	3346.38
641.36	3375.05
641.55	3532.75
641.74	3012.56
641.92	3000.27
642.11	3067.86
642.30	3155.92
642.49	2981.84
642.68	3012.56
642.87	3409.87
643.06	3426.25
643.25	2893.78
643.44	2953.17
643.63	3246.03
643.82	3344.33
644.00	2983.89
644.19	3141.58
644.38	3033.04
644.57	3401.68
644.76	2971.60
644.95	3164.11
645.14	3258.32
645.33	3227.60
645.52	3164.11
645.71	2901.97
645.89	3110.86
646.08	3270.61
646.27	3090.38
646.46	3346.38
646.65	2975.70
646.84	3211.22
647.03	3016.66
647.22	3209.17
647.40	3250.13
647.59	3235.79
647.78	2891.73
647.97	3074.00
648.16	3108.82
648.35	3534.79
648.54	3291.09
648.73	3067.86
648.91	3463.12
649.10	3303.37
649.29	2940.88
649.48	3069.91
649.67	3338.19
649.86	3323.85
650.05	3151.82
650.23	3217.36
650.42	3235.79
650.61	3532.75
650.80	3313.61
650.99	3315.66
651.18	3477.45
651.36	3452.88
651.55	2965.46
651.74	3143.63
651.93	3117.01
652.12	3272.65
652.31	3180.50
652.49	3157.97
652.68	3172.30
652.87	3569.61
653.06	3258.32
653.25	3409.87
653.44	3303.37
653.62	3522.51
653.81	3147.73
654.00	3049.43
654.19	3401.68
654.38	3827.65
654.56	3143.63
654.75	3010.51
654.94	3387.34
655.13	3262.41
655.32	3057.62
655.51	3160.02
655.69	3147.73
655.88	3389.39
656.07	2863.06
656.26	3133.39
656.45	3014.61
656.63	3256.27
656.82	3055.57
657.01	3377.10
657.20	3157.97
657.38	3555.27
657.57	3080.14
657.76	2987.99
657.95	3440.59
658.14	3106.77
658.32	3143.63
658.51	2918.36
658.70	3313.61
658.89	3272.65
659.08	3098.58
659.26	3323.85
659.45	3088.34
659.64	3395.53
659.83	3084.24
660.01	3491.79
660.20	3276.75
660.39	3604.42
660.58	2779.09
660.76	3127.25
660.95	3030.99
661.14	3252.17
661.33	2901.97
661.51	3182.54
661.70	3102.67
661.89	3278.80
662.08	3108.82
662.26	2844.63
662.45	3045.33
662.64	3663.82
662.83	3119.06
663.01	2920.40
663.20	3110.86
663.39	3483.59
663.58	3149.78
663.76	3069.91
663.95	3471.31
664.14	3057.62
664.32	3172.30
664.51	2934.74
664.70	2977.75
664.89	3385.29
665.07	2893.78
665.26	3364.81
665.45	3000.27
665.64	3444.68
665.82	3080.14
666.01	3248.08
666.20	3018.71
666.38	3430.35
666.57	3440.59
666.76	5533.61
666.95	12736.32
667.13	20485.83
667.32	24710.79
667.51	27932.25
667.69	28905.03
667.88	23717.53
668.07	17229.56
668.25	14700.32
668.44	12779.32
668.63	11237.20
668.81	9473.90
669.00	8316.80
669.19	7778.19
669.38	6770.58
669.56	5787.56
669.75	4949.94
669.94	4452.28
670.12	3819.46
670.31	3391.44
670.50	3428.30
670.68	3438.54
670.87	3368.91
671.06	3084.24
671.24	3153.87
671.43	3594.19
671.62	3325.90
671.80	3051.47
671.99	3203.02
672.18	3327.95
672.36	3444.68
672.55	3258.32
672.74	3096.53
672.92	3264.46
673.11	3332.05
673.29	2932.69
673.48	3276.75
673.67	3192.78
673.85	3428.30
674.04	3016.66
674.23	3184.59
674.41	3700.68
674.60	3049.43
674.79	2949.08
674.97	2944.98
675.16	3471.31
675.34	3399.63
675.53	2955.22
675.72	3123.15
675.90	3616.71
676.09	3164.11
676.28	3160.02
676.46	2889.68
676.65	3399.63
676.83	3223.50
677.02	3164.11
677.21	3088.34
677.39	3393.48
677.58	3110.86
677.77	3039.19
677.95	2920.40
678.14	3211.22
678.32	3237.84
678.51	3133.39
678.70	3354.57
678.88	3139.54
679.07	3391.44
679.25	3108.82
679.44	3033.04
679.63	2994.13
679.81	3274.70
680.00	3305.42
680.18	3178.45
680.37	3553.23
680.55	3233.74
680.74	2979.79
680.93	2836.44
681.11	3307.47
681.30	3317.71
681.48	3033.04
681.67	3106.77
681.85	3188.69
682.04	3129.30
682.23	3266.51
682.41	3192.78
682.60	3192.78
682.78	3260.37
682.97	3010.51
683.15	3164.11
683.34	3313.61
683.53	3577.80
683.71	3014.61
683.90	3121.10
684.08	3534.79
684.27	3196.88
684.45	3147.73
684.64	3315.66
684.82	3319.76
685.01	3307.47
685.19	3016.66
685.38	3305.42
685.57	3270.61
685.75	3117.01
685.94	2992.08
686.12	3065.81
686.31	3211.22
686.49	3542.99
686.68	2926.55
686.86	3082.19
687.05	3137.49
687.23	3518.41
687.42	3119.06
687.60	2867.16
687.79	3368.91
687.97	3561.42
688.16	3246.03
688.34	3231.69
688.53	2897.88
688.71	3385.29
688.90	3362.76
689.08	3139.54
689.27	2961.36
689.45	3436.49
689.64	3250.13
689.82	3160.02
690.01	3407.82
690.19	3348.43
690.38	3180.50
690.56	3229.65
690.75	3065.81
690.93	3188.69
691.12	3059.67
691.30	3145.68
691.49	3164.11
691.67	3276.75
691.86	3477.45
692.04	3094.48
692.23	3229.65
692.41	3280.85
692.60	3454.92
692.78	3332.05
692.97	3311.57
693.15	3317.71
693.34	3350.48
693.52	3325.90
693.71	3157.97
693.89	3090.38
694.08	2967.51
694.26	3100.62
694.44	3481.55
694.63	3387.34
694.81	3018.71
695.00	3061.71
695.18	3516.36
695.37	3749.83
695.55	3164.11
695.74	3110.86
695.92	3078.10
696.10	3526.60
696.29	2944.98
696.47	3090.38
696.66	3127.25
696.84	3112.91
697.03	3168.21
697.21	3354.57
697.40	4616.12
697.58	3475.40
697.76	3049.43
697.95	3041.23
698.13	3053.52
698.32	3172.30
698.50	3024.85
698.68	3160.02
698.87	3332.05
699.05	3540.94
699.24	3080.14
699.42	3022.80
699.61	3239.89
699.79	3319.76
699.97	3098.58
700.16	2983.89
700.34	3053.52
700.53	3370.96
700.71	3289.04
700.89	3200.98
701.08	3123.15
701.26	3342.28
701.45	3438.54
701.63	3069.91
701.81	3182.54
702.00	3131.34
702.18	3176.40
702.37	3094.48
702.55	3540.94
702.73	3461.07
702.92	3155.92
703.10	3499.98
703.28	3516.36
703.47	3188.69
703.65	3420.11
703.84	3229.65
704.02	3336.14
704.20	3549.13
704.39	3008.47
704.57	3098.58
704.75	3481.55
704.94	3383.24
705.12	3213.26
705.30	3919.81
705.49	8630.14
705.67	16930.56
705.86	23428.76
706.04	26717.80
706.22	29357.63
706.41	28153.43
706.59	21104.32
706.77	16510.72
706.96	14075.69
707.14	12939.07
707.32	11147.09
707.51	9766.76
707.69	7849.86
707.87	6735.77
708.06	5193.65
708.24	4603.83
708.42	4073.41
708.61	4247.49
708.79	3254.22
708.97	3196.88
709.16	3438.54
709.34	3307.47
709.52	3196.88
709.71	3078.10
709.89	3282.89
710.07	3078.10
710.26	3000.27
710.44	3143.63
710.62	3467.21
710.80	3321.81
710.99	3139.54
711.17	3252.17
711.35	3149.78
711.54	3176.40
711.72	3278.80
711.90	3065.81
712.09	3319.76
712.27	3104.72
712.45	3215.31
712.63	3106.77
712.82	3313.61
713.00	3219.41
713.18	3282.89
713.37	3280.85
713.55	3442.64
713.73	3360.72
713.91	3180.50
714.10	3098.58
714.28	3176.40
714.46	3280.85
714.65	3147.73
714.83	3168.21
715.01	3295.18
715.19	3289.04
715.38	2996.18
715.56	3280.85
715.74	3074.00
715.92	3153.87
716.11	3368.91
716.29	2824.15
716.47	3223.50
716.65	3196.88
716.84	2951.12
717.02	3196.88
717.20	2975.70
717.38	3088.34
717.57	3200.98
717.75	3151.82
717.93	3203.02
718.11	3418.06
718.30	3014.61
718.48	3139.54
718.66	3483.59
718.84	3508.17
719.03	3092.43
719.21	2961.36
719.39	3696.58
719.57	3379.15
719.75	3104.72
719.94	2971.60
720.12	3166.16
720.30	3340.24
720.48	3106.77
720.67	3094.48
720.85	3057.62
721.03	3211.22
721.21	3157.97
721.39	3192.78
721.58	3391.44
721.76	3184.59
721.94	3231.69
722.12	3192.78
722.30	3610.57
722.49	3098.58
722.67	3051.47
722.85	3135.44
723.03	2959.31
723.21	3098.58
723.40	3143.63
723.58	3330.00
723.76	3301.33
723.94	3559.37
724.12	3131.34
724.30	3268.56
724.49	3485.64
724.67	3055.57
724.85	3229.65
725.03	2967.51
725.21	3360.72
725.40	3526.60
725.58	3129.30
725.76	3350.48
725.94	3356.62
726.12	3076.05
726.30	3168.21
726.49	3125.20
726.67	3131.34
726.85	3389.39
727.03	3827.65
727.21	5498.80
727.39	7081.88
727.57	7788.43
727.76	8337.28
727.94	8382.34
728.12	7214.99
728.30	6029.22
728.48	5601.19
728.66	5171.12
728.84	4751.29
729.03	4130.75
729.21	3827.65
729.39	3520.46
729.57	3430.35
729.75	3446.73
729.93	3413.96
730.11	3008.47
730.30	3221.45
730.48	3241.93
730.66	3200.98
730.84	3223.50
731.02	3295.18
731.20	3174.35
731.38	3127.25
731.56	2987.99
731.74	3014.61
731.93	3336.14
732.11	3196.88
732.29	3106.77
732.47	3491.79
732.65	3334.09
732.83	3303.37
733.01	3186.64
733.19	3135.44
733.37	3395.53
733.56	3123.15
733.74	3008.47
733.92	3549.13
734.10	3160.02
734.28	3301.33
734.46	2961.36
734.64	3168.21
734.82	3215.31
735.00	3112.91
735.18	2996.18
735.36	3289.04
735.54	3237.84
735.73	3098.58
735.91	3250.13
736.09	3526.60
736.27	3250.13
736.45	3246.03
736.63	2846.68
736.81	3106.77
736.99	3542.99
737.17	3330.00
737.35	3082.19
737.53	3262.41
737.71	3248.08
737.89	3334.09
738.07	3061.71
738.25	3057.62
738.43	3030.99
738.61	3049.43
738.80	3012.56
738.98	3094.48
739.16	3141.58
739.34	3035.09
739.52	3444.68
739.70	3229.65
739.88	3323.85
740.06	3270.61
740.24	2895.83
740.42	3581.90
740.60	2944.98
740.78	3067.86
740.96	2820.05
741.14	3139.54
741.32	3284.94
741.50	2893.78
741.68	3311.57
741.86	3559.37
742.04	3090.38
742.22	3051.47
742.40	3051.47
742.58	3387.34
742.76	3104.72
742.94	3229.65
743.12	2904.02
743.30	3280.85
743.48	3434.44
743.66	2947.03
743.84	3141.58
744.02	3188.69
744.20	3237.84
744.38	3026.90
744.56	3026.90
744.74	3639.24
744.92	3317.71
745.10	3323.85
745.28	3143.63
745.46	3678.15
745.64	3157.97
745.82	3182.54
746.00	3045.33
746.18	3307.47
746.36	3117.01
746.54	3149.78
746.72	3074.00
746.90	3069.91
747.08	3520.46
747.26	3121.10
747.44	3250.13
747.62	3352.52
747.80	3385.29
747.98	3149.78
748.15	3049.43
748.33	3594.19
748.51	3295.18
748.69	3272.65
748.87	2996.18
749.05	3203.02
749.23	3274.70
749.41	3016.66
749.59	3045.33
749.77	3459.02
749.95	3254.22
750.13	3030.99
750.31	3205.07
750.49	3278.80
750.67	3452.88
750.85	3278.80
751.03	3133.39
751.20	3680.20
751.38	3356.62
751.56	3149.78
751.74	3221.45
751.92	3198.93
752.10	3047.38
752.28	3180.50
752.46	3080.14
752.64	3284.94
752.82	3231.69
753.00	3153.87
753.18	3006.42
753.35	3241.93
753.53	3252.17
753.71	2981.84
753.89	3110.86
754.07	3332.05
754.25	3459.02
754.43	3168.21
754.61	3016.66
754.79	3311.57
754.97	3264.46
755.14	3330.00
755.32	2977.75
755.50	3200.98
755.68	3256.27
755.86	3002.32
756.04	3035.09
756.22	2971.60
756.40	3330.00
756.57	3315.66
756.75	3002.32
756.93	3536.84
757.11	3301.33
757.29	2983.89
757.47	2924.50
757.65	2969.55
757.82	2803.67
758.00	2932.69
758.18	3035.09
758.36	3213.26
758.54	3641.29
758.72	2910.16
758.90	3192.78
759.07	3426.25
759.25	3162.06
759.43	3086.29
759.61	2891.73
759.79	4466.62
759.97	3465.16
760.15	3164.11
760.32	3102.67
760.50	3438.54
760.68	3532.75
760.86	2949.08
761.04	3332.05
761.22	3401.68
761.39	3379.15
761.57	3155.92
761.75	3157.97
761.93	3366.86
762.11	3291.09
762.28	3190.74
762.46	2975.70
762.64	3463.12
762.82	3033.04
763.00	3039.19
763.18	3295.18
763.35	3037.14
763.53	3409.87
763.71	3188.69
763.89	3022.80
764.07	3293.13
764.24	3243.98
764.42	3209.17
764.60	3061.71
764.78	3368.91
764.96	3391.44
765.13	3270.61
765.31	3022.80
765.49	3368.91
765.67	3119.06
765.84	3090.38
766.02	3028.95
766.20	2965.46
766.38	3299.28
766.56	3178.45
766.73	3153.87
766.91	3250.13
767.09	3278.80
767.27	3082.19
767.44	3035.09
767.62	3342.28
767.80	3319.76
767.98	3061.71
768.15	3067.86
768.33	3448.78
768.51	3434.44
768.69	3192.78
768.87	3057.62
769.04	3368.91
769.22	3846.09
769.40	3282.89
769.58	3262.41
769.75	3373.00
769.93	3491.79
770.11	3112.91
770.28	3008.47
770.46	3403.72
770.64	3260.37
770.82	3088.34
770.99	3051.47
771.17	3438.54
771.35	3145.68
771.53	3104.72
771.70	3022.80
771.88	3282.89
772.06	3274.70
772.23	3002.32
772.41	3119.06
772.59	3262.41
772.77	3110.86
772.94	3119.06
773.12	3102.67
773.30	3188.69
773.47	3233.74
773.65	2955.22
773.83	3248.08
774.01	3284.94
774.18	2938.84
774.36	3057.62
774.54	2953.17
774.71	3411.92
774.89	3022.80
775.07	3008.47
775.24	3078.10
775.42	3137.49
775.60	3590.09
775.78	2957.27
775.95	3022.80
776.13	2959.31
776.31	2973.65
776.48	3299.28
776.66	3319.76
776.84	3217.36
777.01	3121.10
777.19	2967.51
777.37	2971.60
777.54	3424.20
777.72	3626.95
777.90	3254.22
778.07	3041.23
778.25	4009.92
778.43	3444.68
778.60	3067.86
778.78	3211.22
778.96	3551.18
779.13	3022.80
779.31	3162.06
779.49	3198.93
779.66	3338.19
779.84	3188.69
780.01	3037.14
780.19	3043.28
780.37	3545.03
780.54	3416.01
780.72	2916.31
780.90	3080.14
781.07	3229.65
781.25	3114.96
781.43	3321.81
781.60	3090.38
781.78	3379.15
781.95	3211.22
782.13	3117.01
782.31	3037.14
782.48	2934.74
782.66	3272.65
782.83	3266.51
783.01	3241.93
783.19	3499.98
783.36	3196.88
783.54	2983.89
783.72	3186.64
783.89	3160.02
784.07	3330.00
784.24	3307.47
784.42	3190.74
784.60	3289.04
784.77	3344.33
784.95	2754.52
785.12	3123.15
785.30	3338.19
785.47	3033.04
785.65	2899.92
785.83	3121.10
786.00	3190.74
786.18	3319.76
786.35	3000.27
786.53	2985.94
786.71	3536.84
786.88	3461.07
787.06	3160.02
787.23	3123.15
787.41	2985.94
787.58	3237.84
787.76	3057.62
787.94	3117.01
788.11	3270.61
788.29	3082.19
788.46	3133.39
788.64	3010.51
788.81	3286.99
788.99	3125.20
789.16	3061.71
789.34	3086.29
789.52	3110.86
789.69	3196.88
789.87	2930.64
790.04	3030.99
790.22	3243.98
790.39	3618.76
790.57	2942.93
790.74	3008.47
790.92	3440.59
791.09	2924.50
791.27	3157.97
791.44	3139.54
791.62	3282.89
791.79	3401.68
791.97	3174.35
792.15	3325.90
792.32	3319.76
792.50	3381.20
792.67	3213.26
792.85	3319.76
793.02	3301.33
793.20	3106.77
793.37	2906.07
793.55	3016.66
793.72	3102.67
793.90	3397.58
794.07	3057.62
794.25	2994.13
794.42	3221.45
794.60	3235.79
794.77	3164.11
794.95	3176.40
795.12	3442.64
795.30	3295.18
795.47	2883.54
795.65	3418.06
795.82	3395.53
796.00	3160.02
796.17	3176.40
796.34	2887.64
796.52	3368.91
796.69	3475.40
796.87	3225.55
797.04	3188.69
797.22	3424.20
797.39	3258.32
797.57	3225.55
797.74	3108.82
797.92	3323.85
798.09	3186.64
798.27	3291.09
798.44	3082.19
798.62	3117.01
798.79	3286.99
798.96	3125.20
799.14	3018.71
799.31	3768.26
799.49	3082.19
799.66	3063.76
799.84	3125.20
800.01	2983.89
800.19	3305.42
800.36	2883.54
800.53	3117.01
800.71	3241.93
800.88	3553.23
801.06	3012.56
801.23	3063.76
801.41	3157.97
801.58	3233.74
801.75	3049.43
801.93	3155.92
802.10	3301.33
802.28	3286.99
802.45	3125.20
802.63	3200.98
802.80	3598.28
802.97	3237.84
803.15	3135.44
803.32	2975.70
803.50	3069.91
803.67	3180.50
803.84	3059.67
804.02	3160.02
804.19	3090.38
804.37	2852.82
804.54	2920.40
804.71	3045.33
804.89	3235.79
805.06	3119.06
805.24	3035.09
805.41	2910.16
805.58	3092.43
805.76	3741.64
805.93	3037.14
806.10	3231.69
806.28	3340.24
806.45	3291.09
806.63	3225.55
806.80	3188.69
806.97	3278.80
807.15	3377.10
807.32	3198.93
807.49	3006.42
807.67	3033.04
807.84	3375.05
808.01	2916.31
808.19	3233.74
808.36	3729.35
808.54	3129.30
808.71	3024.85
808.88	3051.47
809.06	3473.36
809.23	3512.27
809.40	3119.06
809.58	3086.29
809.75	3241.93
809.92	3028.95
810.10	3426.25
810.27	3090.38
810.44	3239.89
810.62	3389.39
810.79	3098.58
810.96	3074.00
811.14	3147.73
811.31	3430.35
811.48	3172.30
811.66	3131.34
811.83	3547.08
812.00	3348.43
812.18	3219.41
812.35	3405.77
812.52	3166.16
812.69	3125.20
812.87	3020.75
813.04	3035.09
813.21	3217.36
813.39	3149.78
813.56	2914.26
813.73	3291.09
813.91	2967.51
814.08	3266.51
814.25	3100.62
814.42	2918.36
814.60	3121.10
814.77	3180.50
814.94	2983.89
815.12	3141.58
815.29	3626.95
815.46	3170.26
815.63	3065.81
815.81	2983.89
815.98	3106.77
816.15	3286.99
816.33	3225.55
816.50	3028.95
816.67	3256.27
816.84	3223.50
817.02	3024.85
817.19	2979.79
817.36	3299.28
817.53	3373.00
817.71	2990.03
817.88	3149.78
818.05	3162.06
818.22	3217.36
818.40	3286.99
818.57	3041.23
818.74	3368.91
818.91	3223.50
819.09	3225.55
819.26	3188.69
819.43	3053.52
819.60	3155.92
819.78	3153.87
819.95	3168.21
820.12	3041.23
820.29	3524.55
820.47	3338.19
820.64	3035.09
820.81	2973.65
820.98	3057.62
821.15	3065.81
821.33	3153.87
821.50	2987.99
821.67	3336.14
821.84	3049.43
822.02	3180.50
822.19	3489.74
822.36	3200.98
822.53	3125.20
822.70	2996.18
822.88	3160.02
823.05	3514.31
823.22	3131.34
823.39	3100.62
823.56	3246.03
823.74	3651.53
823.91	2965.46
824.08	3024.85
824.25	3131.34
824.42	3583.95
824.60	2977.75
824.77	3108.82
824.94	3229.65
825.11	3362.76
825.28	2893.78
825.45	3235.79
825.63	3344.33
825.80	3033.04
825.97	3209.17
826.14	3119.06
826.31	2944.98
826.48	3352.52
826.66	3082.19
826.83	2975.70
827.00	3211.22
827.17	3067.86
827.34	3160.02
827.51	2979.79
827.69	3205.07
827.86	2971.60
828.03	3164.11
828.20	3176.40
828.37	3106.77
828.54	3332.05
828.71	3045.33
828.89	3225.55
829.06	3338.19
829.23	3633.10
829.40	3008.47
829.57	2971.60
829.74	3332.05
829.91	3153.87
830.09	3004.37
830.26	3250.13
830.43	3579.85
830.60	3215.31
830.77	3147.73
830.94	3274.70
831.11	3379.15
831.28	3182.54
831.46	3221.45
831.63	3008.47
831.80	3557.32
831.97	3106.77
832.14	3166.16
832.31	3155.92
832.48	3256.27
832.65	3516.36
832.82	3213.26
832.99	3239.89
833.17	3039.19
833.34	3538.89
833.51	3020.75
833.68	2854.87
833.85	3502.03
834.02	3086.29
834.19	3045.33
834.36	3108.82
834.53	3321.81
834.70	3409.87
834.87	3018.71
835.04	2850.77
835.22	3100.62
835.39	3188.69
835.56	2863.06
835.73	2904.02
835.90	3450.83
836.07	2940.88
836.24	3006.42
836.41	2963.41
836.58	3108.82
836.75	3469.26
836.92	2940.88
837.09	2895.83
837.26	3459.02
837.43	3393.48
837.60	3088.34
837.77	3035.09
837.94	3454.92
838.12	3561.42
838.29	2848.72
838.46	2799.57
838.63	2985.94
838.80	3514.31
838.97	2975.70
839.14	2844.63
839.31	3248.08
839.48	3395.53
839.65	2899.92
839.82	3014.61
839.99	3307.47
840.16	3330.00
840.33	2840.53
840.50	2930.64
840.67	3114.96
840.84	2783.19
841.01	2879.44
841.18	2832.34
841.35	3227.60
841.52	3420.11
841.69	3256.27
841.86	2959.31
842.03	3215.31
842.20	3418.06
842.37	2863.06
842.54	2969.55
842.71	3147.73
842.88	2983.89
843.05	2861.01
843.22	2854.87
843.39	3375.05
843.56	3147.73
843.73	2852.82
843.90	3033.04
844.07	3260.37
844.24	3450.83
844.41	3020.75
844.58	2975.70
844.75	3233.74
844.92	3364.81
845.09	2947.03
845.26	2910.16
845.43	3407.82
845.60	3160.02
845.77	3121.10
845.94	3094.48
846.10	3368.91
846.27	2987.99
846.44	2762.71
846.61	2850.77
846.78	3344.33
846.95	3413.96
847.12	2926.55
847.29	2983.89
847.46	3092.43
847.63	3370.96
847.80	2869.20
847.97	2906.07
848.14	3635.14
848.31	3198.93
848.48	2691.03
848.65	2869.20
848.82	3184.59
848.98	3745.73
849.15	3061.71
849.32	3086.29
849.49	3424.20
849.66	3225.55
849.83	2893.78
850.00	2901.97
850.17	3397.58
850.34	3219.41
850.51	2922.45
850.68	2963.41
850.85	3790.79
851.01	3321.81
851.18	2842.58
851.35	2938.84
851.52	3262.41
851.69	3573.71
851.86	2893.78
852.03	2832.34
852.20	3518.41
852.37	3229.65
852.53	2789.33
852.70	2770.90
852.87	3213.26
853.04	3450.83
853.21	2858.96
853.38	3237.84
853.55	3520.46
853.72	3473.36
853.89	2885.59
854.05	2893.78
854.22	3305.42
854.39	3155.92
854.56	2959.31
854.73	2987.99
854.90	3207.12
855.07	3256.27
855.23	2729.94
855.40	2811.86
855.57	3182.54
855.74	2865.11
855.91	3147.73
856.08	2762.71
856.25	2961.36
856.41	3188.69
856.58	2975.70
856.75	2883.54
856.92	3125.20
857.09	3407.82
857.26	2731.99
857.42	2963.41
857.59	3446.73
857.76	3196.88
857.93	2930.64
858.10	3018.71
858.27	3090.38
858.43	3225.55
858.60	2936.79
858.77	2934.74
858.94	3172.30
859.11	3426.25
859.27	2990.03
859.44	2875.35
859.61	3702.73
859.78	3375.05
859.95	2893.78
860.12	2861.01
860.28	3669.96
860.45	3667.91
860.62	2879.44
860.79	2992.08
860.95	3176.40
861.12	3049.43
861.29	2791.38
861.46	2856.92
861.63	3196.88
861.79	3307.47
861.96	2830.29
862.13	2983.89
862.30	3608.52
862.47	3069.91
862.63	2731.99
862.80	3018.71
862.97	3516.36
863.14	3313.61
863.30	2940.88
863.47	2795.48
863.64	3489.74
863.81	3291.09
863.97	2838.48
864.14	2955.22
864.31	3186.64
864.48	3319.76
864.65	2912.21
864.81	2981.84
864.98	3346.38
865.15	3418.06
865.32	2992.08
865.48	2971.60
865.65	3594.19
865.82	3157.97
865.98	3061.71
866.15	2920.40
866.32	3205.07
866.49	3200.98
866.65	3104.72
866.82	2869.20
866.99	3272.65
867.16	3133.39
867.32	2996.18
867.49	2840.53
867.66	3194.83
867.83	3106.77
867.99	2818.00
868.16	2994.13
868.33	3069.91
868.49	3266.51
868.66	2910.16
868.83	3061.71
868.99	3299.28
869.16	3295.18
869.33	3108.82
869.50	3039.19
869.66	3248.08
869.83	3254.22
870.00	2861.01
870.16	3033.04
870.33	3207.12
870.50	3444.68
870.66	2910.16
870.83	2936.79
871.00	3241.93
871.17	3334.09
871.33	2994.13
871.50	2840.53
871.67	3258.32
871.83	2953.17
872.00	3045.33
872.17	2873.30
872.33	3641.29
872.50	3534.79
872.67	2889.68
872.83	2922.45
873.00	3352.52
873.17	3260.37
873.33	2994.13
873.50	3008.47
873.67	3155.92
873.83	3155.92
874.00	2912.21
874.16	3090.38
874.33	3286.99
874.50	2985.94
874.66	2820.05
874.83	3082.19
875.00	3475.40
875.16	3626.95
875.33	2992.08
875.50	2645.98
875.66	3110.86
875.83	3303.37
875.99	3012.56
876.16	2985.94
876.33	3135.44
876.49	3237.84
876.66	2998.23
876.83	2953.17
876.99	3037.14
877.16	3213.26
877.32	2871.25
877.49	2971.60
877.66	3332.05
877.82	3573.71
877.99	3047.38
878.15	3190.74
878.32	3411.92
878.49	3282.89
878.65	3008.47
878.82	3149.78
878.98	3174.35
879.15	3385.29
879.32	3102.67
879.48	3090.38
879.65	3196.88
879.81	3207.12
879.98	2930.64
880.15	2998.23
880.31	3416.01
880.48	3059.67
880.64	2985.94
880.81	3067.86
880.97	3534.79
881.14	3524.55
881.31	2897.88
881.47	3112.91
881.64	3162.06
881.80	2885.59
881.97	3090.38
882.13	2936.79
882.30	3155.92
882.47	3100.62
882.63	2885.59
882.80	2955.22
882.96	3166.16
883.13	3508.17
883.29	2934.74
883.46	2947.03
883.62	3667.91
883.79	3297.23
883.95	3092.43
884.12	2801.62
884.29	3446.73
884.45	3241.93
884.62	2930.64
884.78	2916.31
884.95	3495.88
885.11	3108.82
885.28	3004.37
885.44	3028.95
885.61	3418.06
885.77	3510.22
885.94	3119.06
886.10	3016.66
886.27	3303.37
886.43	3653.58
886.60	3227.60
886.76	2920.40
886.93	3071.95
887.09	3268.56
887.26	2820.05
887.42	3010.51
887.59	3456.97
887.75	3721.16
887.92	3194.83
888.08	3078.10
888.25	3700.68
888.41	3446.73
888.58	2975.70
888.74	2897.88
888.91	3194.83
>>>>>End Processed Spectral Data<<<<<
