SpectraSuite Data File
++++++++++++++++++++++++++++++++++++
Date: Fri May 06 08:14:03 CEST 2016
User: root
Dark Spectrum Present: No
Reference Spectrum Present: No
Number of Sampled Component Spectra: 1
Spectrometers: USB4C02835
Integration Time (usec): 100000 (USB4C02835)
Spectra Averaged: 1 (USB4C02835)
Boxcar Smoothing: 0 (USB4C02835)
Correct for Electrical Dark: No (USB4C02835)
Strobe/Lamp Enabled: No (USB4C02835)
Correct for Detector Non-linearity: No (USB4C02835)
Correct for Stray Light: No (USB4C02835)
Number of Pixels in Processed Spectrum: 3648
>>>>>Begin Processed Spectral Data<<<<<
177.47	2246.62
177.69	2246.62
177.91	2246.62
178.13	2246.62
178.36	2320.35
178.58	2967.51
178.80	3080.14
179.02	3000.27
179.24	3137.49
179.46	2717.65
179.68	2938.84
179.90	3248.08
180.13	3278.80
180.35	2625.50
180.57	2805.72
180.79	3430.35
181.01	3239.89
181.23	2807.77
181.45	3047.38
181.67	3444.68
181.90	3469.26
182.12	2969.55
182.34	2697.17
182.56	3413.96
182.78	3385.29
183.00	2832.34
183.22	2934.74
183.44	3010.51
183.66	3987.40
183.89	2992.08
184.11	2887.64
184.33	3456.97
184.55	3506.12
184.77	2797.53
184.99	2887.64
185.21	3186.64
185.43	3698.63
185.65	2852.82
185.87	2832.34
186.10	3739.59
186.32	3753.93
186.54	3053.52
186.76	3006.42
186.98	3426.25
187.20	3233.74
187.42	2877.40
187.64	2824.15
187.86	3348.43
188.08	3401.68
188.30	2832.34
188.52	2854.87
188.75	3612.62
188.97	3497.93
189.19	2891.73
189.41	2893.78
189.63	3422.16
189.85	3237.84
190.07	2750.42
190.29	2717.65
190.51	3311.57
190.73	3041.23
190.95	3110.86
191.17	2895.83
191.39	2985.94
191.61	3248.08
191.84	2854.87
192.06	3020.75
192.28	2897.88
192.50	3928.00
192.72	2953.17
192.94	2936.79
193.16	3440.59
193.38	3407.82
193.60	2795.48
193.82	3121.10
194.04	3516.36
194.26	3358.67
194.48	2897.88
194.70	2895.83
194.92	3225.55
195.14	3422.16
195.36	2756.57
195.58	2895.83
195.80	3289.04
196.02	3139.54
196.24	2729.94
196.46	2871.25
196.69	3246.03
196.91	3782.60
197.13	2895.83
197.35	2953.17
197.57	3579.85
197.79	3504.07
198.01	2957.27
198.23	2885.59
198.45	3391.44
198.67	3004.37
198.89	2750.42
199.11	2897.88
199.33	3213.26
199.55	2953.17
199.77	2881.49
199.99	3000.27
200.21	3176.40
200.43	3360.72
200.65	2744.28
200.87	2658.26
201.09	3266.51
201.31	3209.17
201.53	2938.84
201.75	2963.41
201.97	3321.81
202.19	3319.76
202.41	2959.31
202.63	2979.79
202.85	3397.58
203.07	3346.38
203.29	2920.40
203.51	2858.96
203.73	3160.02
203.95	3903.43
204.17	2850.77
204.39	3012.56
204.61	3291.09
204.83	3139.54
205.05	3047.38
205.27	2830.29
205.49	3762.12
205.71	3278.80
205.93	2715.61
206.15	2795.48
206.37	3198.93
206.59	3198.93
206.81	2688.98
207.03	2709.46
207.25	3106.77
207.47	3370.96
207.69	2836.44
207.91	3080.14
208.13	3663.82
208.34	3143.63
208.56	2836.44
208.78	2920.40
209.00	3256.27
209.22	3155.92
209.44	2930.64
209.66	2846.68
209.88	3260.37
210.10	3237.84
210.32	2822.10
210.54	2969.55
210.76	3182.54
210.98	3360.72
211.20	2719.70
211.42	2969.55
211.64	3510.22
211.86	3377.10
212.08	2951.12
212.30	2879.44
212.52	3241.93
212.74	3368.91
212.96	2942.93
213.17	3006.42
213.39	3444.68
213.61	3674.06
213.83	2834.39
214.05	2783.19
214.27	3516.36
214.49	3067.86
214.71	2799.57
214.93	3022.80
215.15	3274.70
215.37	3545.03
215.59	2797.53
215.81	2918.36
216.03	3522.51
216.24	3278.80
216.46	2901.97
216.68	2877.40
216.90	3495.88
217.12	3473.36
217.34	2844.63
217.56	2987.99
217.78	3547.08
218.00	3436.49
218.22	3028.95
218.44	2985.94
218.66	3327.95
218.87	3712.97
219.09	2969.55
219.31	2856.92
219.53	3346.38
219.75	3223.50
219.97	2910.16
220.19	2852.82
220.41	3239.89
220.63	3567.56
220.85	2861.01
221.06	2852.82
221.28	3604.42
221.50	3383.24
221.72	2899.92
221.94	2826.20
222.16	3389.39
222.38	3411.92
222.60	2863.06
222.82	2854.87
223.03	3495.88
223.25	3053.52
223.47	2813.91
223.69	3043.28
223.91	3411.92
224.13	3319.76
224.35	2746.33
224.57	3033.04
224.78	3395.53
225.00	3114.96
225.22	3004.37
225.44	2807.77
225.66	3385.29
225.88	3170.26
226.10	2908.12
226.32	2844.63
226.53	3639.24
226.75	3198.93
226.97	2934.74
227.19	2861.01
227.41	3094.48
227.63	3172.30
227.85	2680.79
228.06	2912.21
228.28	3354.57
228.50	3495.88
228.72	2717.65
228.94	2811.86
229.16	2983.89
229.37	3041.23
229.59	2770.90
229.81	3110.86
230.03	3264.46
230.25	3057.62
230.47	2684.89
230.69	2854.87
230.90	3485.64
231.12	3080.14
231.34	2992.08
231.56	2944.98
231.78	3039.19
232.00	3344.33
232.21	2920.40
232.43	2897.88
232.65	2922.45
232.87	3370.96
233.09	2705.37
233.30	2820.05
233.52	3506.12
233.74	3219.41
233.96	2752.47
234.18	3057.62
234.40	3186.64
234.61	3870.66
234.83	2715.61
235.05	2830.29
235.27	3715.02
235.49	3491.79
235.70	2797.53
235.92	2967.51
236.14	3385.29
236.36	3749.83
236.58	2803.67
236.79	3000.27
237.01	3262.41
237.23	3311.57
237.45	3063.76
237.67	2885.59
237.88	3336.14
238.10	3581.90
238.32	2791.38
238.54	2869.20
238.76	3299.28
238.97	3041.23
239.19	2840.53
239.41	2867.16
239.63	3508.17
239.85	3172.30
240.06	2850.77
240.28	2799.57
240.50	3551.18
240.72	3330.00
240.93	2744.28
241.15	3010.51
241.37	3340.24
241.59	3565.51
241.81	2758.61
242.02	2906.07
242.24	3383.24
242.46	3368.91
242.68	2682.84
242.89	2840.53
243.11	3411.92
243.33	3231.69
243.55	2871.25
243.76	2879.44
243.98	3119.06
244.20	3248.08
244.42	2785.24
244.64	2803.67
244.85	3049.43
245.07	3028.95
245.29	2852.82
245.51	2912.21
245.72	3332.05
245.94	3538.89
246.16	2918.36
246.38	2897.88
246.59	3067.86
246.81	3160.02
247.03	2764.76
247.24	2770.90
247.46	3211.22
247.68	3301.33
247.90	2807.77
248.11	2897.88
248.33	3450.83
248.55	3229.65
248.77	2936.79
248.98	3014.61
249.20	3549.13
249.42	3379.15
249.64	2779.09
249.85	2811.86
250.07	3166.16
250.29	3389.39
250.50	2953.17
250.72	2748.37
250.94	3266.51
251.16	3796.93
251.37	2822.10
251.59	2990.03
251.81	3395.53
252.02	3547.08
252.24	2764.76
252.46	3016.66
252.68	3164.11
252.89	3114.96
253.11	2721.75
253.33	2953.17
253.54	3590.09
253.76	3016.66
253.98	2861.01
254.20	2836.44
254.41	2979.79
254.63	3205.07
254.85	2723.80
255.06	3082.19
255.28	3403.72
255.50	3135.44
255.71	2844.63
255.93	2666.46
256.15	3270.61
256.36	3416.01
256.58	2697.17
256.80	2797.53
257.02	3182.54
257.23	3178.45
257.45	2904.02
257.67	2969.55
257.88	3190.74
258.10	3368.91
258.32	2893.78
258.53	2893.78
258.75	3610.57
258.97	3246.03
259.18	2791.38
259.40	2830.29
259.62	3692.49
259.83	3567.56
260.05	2791.38
260.27	3760.07
260.48	3473.36
260.70	3069.91
260.92	2740.18
261.13	2822.10
261.35	3344.33
261.57	3389.39
261.78	2756.57
262.00	2795.48
262.22	3409.87
262.43	3133.39
262.65	2787.29
262.86	2914.26
263.08	3821.51
263.30	3358.67
263.51	2715.61
263.73	2820.05
263.95	3542.99
264.16	3078.10
264.38	2691.03
264.60	2752.47
264.81	3309.52
265.03	3469.26
265.25	3303.37
265.46	2772.95
265.68	3555.27
265.89	3352.52
266.11	2813.91
266.33	2805.72
266.54	3516.36
266.76	3356.62
266.98	2920.40
267.19	3102.67
267.41	3491.79
267.62	3262.41
267.84	2725.85
268.06	2996.18
268.27	3338.19
268.49	3510.22
268.70	2897.88
268.92	2846.68
269.14	3215.31
269.35	3012.56
269.57	2924.50
269.79	2992.08
270.00	3151.82
270.22	3647.43
270.43	2703.32
270.65	2795.48
270.87	3348.43
271.08	3473.36
271.30	2998.23
271.51	2865.11
271.73	3393.48
271.95	3540.94
272.16	2828.24
272.38	3033.04
272.59	3188.69
272.81	3405.77
273.02	2818.00
273.24	2891.73
273.46	3551.18
273.67	3067.86
273.89	2793.43
274.10	2799.57
274.32	3510.22
274.54	3295.18
274.75	2990.03
274.97	2951.12
275.18	3391.44
275.40	3416.01
275.61	2912.21
275.83	3039.19
276.05	3104.72
276.26	3243.98
276.48	2992.08
276.69	3084.24
276.91	3258.32
277.12	3612.62
277.34	3000.27
277.55	3182.54
277.77	3342.28
277.99	3241.93
278.20	3061.71
278.42	2856.92
278.63	3133.39
278.85	3082.19
279.06	2992.08
279.28	3123.15
279.49	3491.79
279.71	3434.44
279.93	3119.06
280.14	3039.19
280.36	3110.86
280.57	3549.13
280.79	3028.95
281.00	2916.31
281.22	3123.15
281.43	3512.27
281.65	2752.47
281.86	2904.02
282.08	3393.48
282.29	3694.54
282.51	2854.87
282.73	2897.88
282.94	2961.36
283.16	3409.87
283.37	3108.82
283.59	3018.71
283.80	3348.43
284.02	3231.69
284.23	3033.04
284.45	2975.70
284.66	2977.75
284.88	3063.76
285.09	2912.21
285.31	3049.43
285.52	3428.30
285.74	2934.74
285.95	3211.22
286.17	3000.27
286.38	3551.18
286.60	3094.48
286.81	2998.23
287.03	2918.36
287.24	3307.47
287.46	3413.96
287.67	3155.92
287.89	3160.02
288.10	3215.31
288.32	3368.91
288.53	3094.48
288.75	3061.71
288.96	3418.06
289.18	3293.13
289.39	2893.78
289.61	3063.76
289.82	3710.92
290.04	3655.62
290.25	2785.24
290.47	3098.58
290.68	3280.85
290.90	3534.79
291.11	2779.09
291.33	3149.78
291.54	2990.03
291.76	3180.50
291.97	3170.26
292.18	3043.28
292.40	3223.50
292.61	3217.36
292.83	3299.28
293.04	3047.38
293.26	3319.76
293.47	3239.89
293.69	2983.89
293.90	2930.64
294.12	3563.47
294.33	3297.23
294.55	3030.99
294.76	3145.68
294.97	3624.90
295.19	3747.78
295.40	2928.60
295.62	3102.67
295.83	3477.45
296.05	3094.48
296.26	3205.07
296.48	2975.70
296.69	3229.65
296.90	3266.51
297.12	3155.92
297.33	3100.62
297.55	3260.37
297.76	3407.82
297.98	3094.48
298.19	3164.11
298.41	3332.05
298.62	3149.78
298.83	3227.60
299.05	3082.19
299.26	3172.30
299.48	3080.14
299.69	3135.44
299.90	2883.54
300.12	3069.91
300.33	3356.62
300.55	2994.13
300.76	3084.24
300.98	3094.48
301.19	3354.57
301.40	2947.03
301.62	3000.27
301.83	3416.01
302.05	3264.46
302.26	2938.84
302.47	3071.95
302.69	3049.43
302.90	3338.19
303.12	2770.90
303.33	3063.76
303.54	3778.50
303.76	3237.84
303.97	2906.07
304.19	3114.96
304.40	3145.68
304.61	3362.76
304.83	3092.43
305.04	3067.86
305.26	3397.58
305.47	3170.26
305.68	2979.79
305.90	2885.59
306.11	3504.07
306.33	3246.03
306.54	2815.96
306.75	3000.27
306.97	2940.88
307.18	3117.01
307.39	2985.94
307.61	3104.72
307.82	3243.98
308.04	3438.54
308.25	2922.45
308.46	3172.30
308.68	3266.51
308.89	3248.08
309.10	3080.14
309.32	3051.47
309.53	3225.55
309.74	3381.20
309.96	2914.26
310.17	3100.62
310.39	3205.07
310.60	3409.87
310.81	2971.60
311.03	2934.74
311.24	3356.62
311.45	3243.98
311.67	3254.22
311.88	3170.26
312.09	3184.59
312.31	3164.11
312.52	2840.53
312.73	3020.75
312.95	3053.52
313.16	3082.19
313.37	3192.78
313.59	3225.55
313.80	3438.54
314.01	3590.09
314.23	2967.51
314.44	2918.36
314.65	3004.37
314.87	3125.20
315.08	2985.94
315.29	2975.70
315.51	3127.25
315.72	2963.41
315.93	3041.23
316.15	3045.33
316.36	3250.13
316.57	3305.42
316.79	2998.23
317.00	2908.12
317.21	3387.34
317.43	3084.24
317.64	2992.08
317.85	2971.60
318.07	3131.34
318.28	3219.41
318.49	3030.99
318.70	3286.99
318.92	3346.38
319.13	3348.43
319.34	3176.40
319.56	3014.61
319.77	3418.06
319.98	3432.40
320.20	3280.85
320.41	3155.92
320.62	3403.72
320.83	3078.10
321.05	3239.89
321.26	3033.04
321.47	3354.57
321.69	3512.27
321.90	2901.97
322.11	2983.89
322.32	3393.48
322.54	3600.33
322.75	2987.99
322.96	4011.97
323.18	3035.09
323.39	2867.16
323.60	2885.59
323.81	3057.62
324.03	3182.54
324.24	3248.08
324.45	3172.30
324.66	2951.12
324.88	3557.32
325.09	3602.38
325.30	3047.38
325.52	2955.22
325.73	3348.43
325.94	3071.95
326.15	2861.01
326.37	2852.82
326.58	3346.38
326.79	3581.90
327.00	2992.08
327.22	2973.65
327.43	3188.69
327.64	3016.66
327.85	3188.69
328.07	2928.60
328.28	3696.58
328.49	3235.79
328.70	3043.28
328.92	2996.18
329.13	3164.11
329.34	3418.06
329.55	3223.50
329.76	3207.12
329.98	3272.65
330.19	3565.51
330.40	3084.24
330.61	3090.38
330.83	3301.33
331.04	3166.16
331.25	3129.30
331.46	2969.55
331.68	3074.00
331.89	3508.17
332.10	3045.33
332.31	2891.73
332.52	3264.46
332.74	3483.59
332.95	2912.21
333.16	3020.75
333.37	3497.93
333.58	3051.47
333.80	3059.67
334.01	2787.29
334.22	3254.22
334.43	3178.45
334.64	2938.84
334.86	2975.70
335.07	3000.27
335.28	3635.14
335.49	2887.64
335.70	3139.54
335.92	3571.66
336.13	3721.16
336.34	3045.33
336.55	2992.08
336.76	3352.52
336.98	2852.82
337.19	2996.18
337.40	3078.10
337.61	3786.69
337.82	3233.74
338.04	3119.06
338.25	2858.96
338.46	3282.89
338.67	3276.75
338.88	2928.60
339.09	2899.92
339.31	3192.78
339.52	3008.47
339.73	3020.75
339.94	3045.33
340.15	3487.69
340.36	3188.69
340.58	3030.99
340.79	2934.74
341.00	3346.38
341.21	3104.72
341.42	3270.61
341.63	3039.19
341.85	3497.93
342.06	3358.67
342.27	2938.84
342.48	3135.44
342.69	2994.13
342.90	3405.77
343.12	3377.10
343.33	2901.97
343.54	3434.44
343.75	3555.27
343.96	3170.26
344.17	2981.84
344.38	3246.03
344.60	2996.18
344.81	2895.83
345.02	3002.32
345.23	3508.17
345.44	3829.70
345.65	3067.86
345.86	3049.43
346.07	3356.62
346.29	3178.45
346.50	3157.97
346.71	3096.53
346.92	3583.95
347.13	3696.58
347.34	3063.76
347.55	2957.27
347.76	3268.56
347.98	3016.66
348.19	3092.43
348.40	3207.12
348.61	3174.35
348.82	3639.24
349.03	3010.51
349.24	2934.74
349.45	3717.06
349.66	2893.78
349.88	2971.60
350.09	2914.26
350.30	3624.90
350.51	3477.45
350.72	3252.17
350.93	2953.17
351.14	3227.60
351.35	3407.82
351.56	3067.86
351.77	3041.23
351.99	3346.38
352.20	3592.14
352.41	3196.88
352.62	2807.77
352.83	3258.32
353.04	3272.65
353.25	2932.69
353.46	3092.43
353.67	3491.79
353.88	2824.15
354.09	2979.79
354.30	3090.38
354.52	3377.10
354.73	3272.65
354.94	3016.66
355.15	2996.18
355.36	3688.39
355.57	3215.31
355.78	2918.36
355.99	2977.75
356.20	3205.07
356.41	3471.31
356.62	3127.25
356.83	3069.91
357.04	3577.80
357.25	3033.04
357.46	3020.75
357.68	2846.68
357.89	3078.10
358.10	3248.08
358.31	3030.99
358.52	3080.14
358.73	3004.37
358.94	3057.62
359.15	3000.27
359.36	3024.85
359.57	3286.99
359.78	3299.28
359.99	3164.11
360.20	2867.16
360.41	3229.65
360.62	3389.39
360.83	3002.32
361.04	3014.61
361.25	3352.52
361.46	3674.06
361.67	3039.19
361.88	3016.66
362.09	3397.58
362.30	3313.61
362.51	2985.94
362.72	3022.80
362.93	3352.52
363.14	3370.96
363.35	3078.10
363.56	2940.88
363.78	3526.60
363.99	3583.95
364.20	3022.80
364.41	3080.14
364.62	3667.91
364.83	3332.05
365.04	2998.23
365.25	3063.76
365.46	3688.39
365.67	3121.10
365.88	3213.26
366.09	3008.47
366.30	3237.84
366.51	3276.75
366.72	2920.40
366.93	2957.27
367.14	3325.90
367.35	3610.57
367.56	2934.74
367.77	3094.48
367.98	3272.65
368.18	3336.14
368.39	3143.63
368.60	2908.12
368.81	3399.63
369.02	3373.00
369.23	3061.71
369.44	2834.39
369.65	3219.41
369.86	3418.06
370.07	3137.49
370.28	2926.55
370.49	3385.29
370.70	3420.11
370.91	2957.27
371.12	2914.26
371.33	3502.03
371.54	3145.68
371.75	3098.58
371.96	2809.81
372.17	3276.75
372.38	3205.07
372.59	3000.27
372.80	2961.36
373.01	3229.65
373.22	3297.23
373.43	2955.22
373.64	2861.01
373.85	3524.55
374.06	3614.66
374.26	3188.69
374.47	3127.25
374.68	3590.09
374.89	3315.66
375.10	2961.36
375.31	3172.30
375.52	3280.85
375.73	3301.33
375.94	2871.25
376.15	3117.01
376.36	3098.58
376.57	3178.45
376.78	3024.85
376.99	3045.33
377.20	3495.88
377.40	3172.30
377.61	3364.81
377.82	3010.51
378.03	3475.40
378.24	3405.77
378.45	3100.62
378.66	3084.24
378.87	2932.69
379.08	2963.41
379.29	3020.75
379.50	3200.98
379.71	3248.08
379.91	3456.97
380.12	2973.65
380.33	3076.05
380.54	3291.09
380.75	3225.55
380.96	2973.65
381.17	3160.02
381.38	3254.22
381.59	3360.72
381.80	3061.71
382.00	3260.37
382.21	3305.42
382.42	3588.04
382.63	3409.87
382.84	3182.54
383.05	3381.20
383.26	3540.94
383.47	3213.26
383.68	3016.66
383.88	3364.81
384.09	3307.47
384.30	3196.88
384.51	3055.57
384.72	3221.45
384.93	3053.52
385.14	3065.81
385.35	3241.93
385.55	3008.47
385.76	3475.40
385.97	2979.79
386.18	2895.83
386.39	3106.77
386.60	3235.79
386.81	3004.37
387.02	2977.75
387.22	3041.23
387.43	3389.39
387.64	3045.33
387.85	3299.28
388.06	3321.81
388.27	4286.40
388.48	7831.43
388.68	12154.69
388.89	15144.73
389.10	16516.87
389.31	16312.07
389.52	12879.68
389.73	11640.65
389.93	10305.38
390.14	9205.62
390.35	8572.80
390.56	7974.79
390.77	6551.45
390.98	4990.90
391.18	4333.50
391.39	3930.05
391.60	3385.29
391.81	3233.74
392.02	3026.90
392.23	3657.67
392.43	3340.24
392.64	3125.20
392.85	3065.81
393.06	3608.52
393.27	3356.62
393.47	3028.95
393.68	3133.39
393.89	3223.50
394.10	3518.41
394.31	3102.67
394.52	2944.98
394.72	3090.38
394.93	3639.24
395.14	2920.40
395.35	3094.48
395.56	3209.17
395.76	3319.76
395.97	3080.14
396.18	3176.40
396.39	3254.22
396.60	3866.56
396.80	3450.83
397.01	3323.85
397.22	3499.98
397.43	3493.83
397.64	3022.80
397.84	3053.52
398.05	3696.58
398.26	3299.28
398.47	3172.30
398.67	3278.80
398.88	3227.60
399.09	3459.02
399.30	3041.23
399.51	3063.76
399.71	3135.44
399.92	3262.41
400.13	3157.97
400.34	3117.01
400.54	3340.24
400.75	3647.43
400.96	3172.30
401.17	3311.57
401.37	3352.52
401.58	3229.65
401.79	2998.23
402.00	3174.35
402.21	3786.69
402.41	3485.64
402.62	3356.62
402.83	3528.65
403.04	3753.93
403.24	4134.85
403.45	3176.40
403.66	3397.58
403.87	3542.99
404.07	3655.62
404.28	3323.85
404.49	3268.56
404.70	3450.83
404.90	3373.00
405.11	3047.38
405.32	3131.34
405.52	3135.44
405.73	3174.35
405.94	2922.45
406.15	3051.47
406.35	3325.90
406.56	3467.21
406.77	3033.04
406.98	3117.01
407.18	3129.30
407.39	3592.14
407.60	3018.71
407.80	3139.54
408.01	3180.50
408.22	3405.77
408.43	2961.36
408.63	3190.74
408.84	3430.35
409.05	3381.20
409.25	2987.99
409.46	3018.71
409.67	3123.15
409.88	3155.92
410.08	3110.86
410.29	2994.13
410.50	3407.82
410.70	3377.10
410.91	2983.89
411.12	3139.54
411.32	3297.23
411.53	3153.87
411.74	3074.00
411.95	3096.53
412.15	3319.76
412.36	3434.44
412.57	3264.46
412.77	3346.38
412.98	3205.07
413.19	3123.15
413.39	3088.34
413.60	3071.95
413.81	3499.98
414.01	3125.20
414.22	3053.52
414.43	3252.17
414.63	3264.46
414.84	3489.74
415.05	3112.91
415.25	2906.07
415.46	3536.84
415.67	3215.31
415.87	3035.09
416.08	3078.10
416.29	3246.03
416.49	3379.15
416.70	3184.59
416.91	3026.90
417.11	3182.54
417.32	3444.68
417.53	3100.62
417.73	3123.15
417.94	3250.13
418.15	3323.85
418.35	3051.47
418.56	3012.56
418.77	3819.46
418.97	3295.18
419.18	3153.87
419.38	2795.48
419.59	3272.65
419.80	3549.13
420.00	3008.47
420.21	3028.95
420.42	3467.21
420.62	3321.81
420.83	3051.47
421.04	3037.14
421.24	3149.78
421.45	3352.52
421.65	3082.19
421.86	3061.71
422.07	3504.07
422.27	3346.38
422.48	2918.36
422.69	2953.17
422.89	3323.85
423.10	3174.35
423.30	2949.08
423.51	3000.27
423.72	3377.10
423.92	3393.48
424.13	3020.75
424.33	3151.82
424.54	3391.44
424.75	3282.89
424.95	3321.81
425.16	2969.55
425.36	3211.22
425.57	3475.40
425.78	3221.45
425.98	3186.64
426.19	3160.02
426.39	3074.00
426.60	3157.97
426.81	3114.96
427.01	3313.61
427.22	3100.62
427.42	2863.06
427.63	3022.80
427.83	3438.54
428.04	3561.42
428.25	3096.53
428.45	3215.31
428.66	3569.61
428.86	3225.55
429.07	3047.38
429.28	3121.10
429.48	3256.27
429.69	3074.00
429.89	3114.96
430.10	3035.09
430.30	3389.39
430.51	3483.59
430.71	3037.14
430.92	3121.10
431.13	3235.79
431.33	3258.32
431.54	3127.25
431.74	3254.22
431.95	3727.30
432.15	3151.82
432.36	3092.43
432.56	3143.63
432.77	3782.60
432.98	3674.06
433.18	3112.91
433.39	2934.74
433.59	3250.13
433.80	3698.63
434.00	3227.60
434.21	3117.01
434.41	3164.11
434.62	3743.69
434.82	2969.55
435.03	2926.55
435.23	3348.43
435.44	2953.17
435.64	2969.55
435.85	3082.19
436.06	3403.72
436.26	3428.30
436.47	3129.30
436.67	3041.23
436.88	3233.74
437.08	3536.84
437.29	3221.45
437.49	3180.50
437.70	3608.52
437.90	3327.95
438.11	3346.38
438.31	3194.83
438.52	3579.85
438.72	3594.19
438.93	3401.68
439.13	3282.89
439.34	3391.44
439.54	3209.17
439.75	3180.50
439.95	3176.40
440.16	3129.30
440.36	3368.91
440.57	3131.34
440.77	3063.76
440.98	3317.71
441.18	3323.85
441.39	3043.28
441.59	2910.16
441.80	3727.30
442.00	3207.12
442.21	3213.26
442.41	2877.40
442.62	3499.98
442.82	3213.26
443.02	3022.80
443.23	3069.91
443.43	3223.50
443.64	3536.84
443.84	3008.47
444.05	3133.39
444.25	3272.65
444.46	3264.46
444.66	3000.27
444.87	3315.66
445.07	2971.60
445.28	3243.98
445.48	3223.50
445.69	3094.48
445.89	3753.93
446.09	3284.94
446.30	3327.95
446.50	3428.30
446.71	4984.76
446.91	6449.05
447.12	7206.80
447.32	7663.50
447.53	7620.49
447.73	6453.15
447.93	5570.48
448.14	5418.93
448.34	5488.56
448.55	4476.86
448.75	4411.32
448.96	4229.06
449.16	4102.08
449.36	3950.53
449.57	3266.51
449.77	3207.12
449.98	3178.45
450.18	3338.19
450.39	3037.14
450.59	3280.85
450.79	3266.51
451.00	3108.82
451.20	3239.89
451.41	2983.89
451.61	3348.43
451.81	3297.23
452.02	2963.41
452.22	3080.14
452.43	3188.69
452.63	3147.73
452.84	3172.30
453.04	3004.37
453.24	3375.05
453.45	3151.82
453.65	3098.58
453.86	3090.38
454.06	3313.61
454.26	3360.72
454.47	3065.81
454.67	3237.84
454.87	3258.32
455.08	3184.59
455.28	3190.74
455.49	3213.26
455.69	3145.68
455.89	3725.26
456.10	3123.15
456.30	2977.75
456.51	3391.44
456.71	3352.52
456.91	3229.65
457.12	3006.42
457.32	3315.66
457.52	3035.09
457.73	3270.61
457.93	3229.65
458.14	3168.21
458.34	2926.55
458.54	3020.75
458.75	2973.65
458.95	3559.37
459.15	3452.88
459.36	3069.91
459.56	3033.04
459.76	3805.13
459.97	3295.18
460.17	3082.19
460.37	3139.54
460.58	3313.61
460.78	3463.12
460.99	3061.71
461.19	3043.28
461.39	3106.77
461.60	3241.93
461.80	3051.47
462.00	2951.12
462.21	3313.61
462.41	3074.00
462.61	2910.16
462.82	2877.40
463.02	3334.09
463.22	3295.18
463.43	3192.78
463.63	2957.27
463.83	3592.14
464.04	3350.48
464.24	2998.23
464.44	2998.23
464.64	3305.42
464.85	3487.69
465.05	3100.62
465.25	3014.61
465.46	3160.02
465.66	3393.48
465.86	3086.29
466.07	2963.41
466.27	3209.17
466.47	2942.93
466.68	2883.54
466.88	3188.69
467.08	3375.05
467.29	3379.15
467.49	3051.47
467.69	3196.88
467.89	3395.53
468.10	3233.74
468.30	3051.47
468.50	3215.31
468.71	3375.05
468.91	2944.98
469.11	3209.17
469.31	3160.02
469.52	3076.05
469.72	3629.00
469.92	3377.10
470.13	3125.20
470.33	3252.17
470.53	3278.80
470.73	3391.44
470.94	3862.47
471.14	4155.33
471.34	4786.10
471.54	4427.71
471.75	4020.16
471.95	3831.75
472.15	3729.35
472.36	3725.26
472.56	3516.36
472.76	3852.23
472.96	3715.02
473.17	3471.31
473.37	3200.98
473.57	3340.24
473.77	3442.64
473.98	3213.26
474.18	2953.17
474.38	4020.16
474.58	3233.74
474.79	2973.65
474.99	3182.54
475.19	3471.31
475.39	3090.38
475.60	3100.62
475.80	3069.91
476.00	3352.52
476.20	3184.59
476.41	3153.87
476.61	3106.77
476.81	3545.03
477.01	3117.01
477.21	3295.18
477.42	3133.39
477.62	3119.06
477.82	3475.40
478.02	2971.60
478.23	3098.58
478.43	3176.40
478.63	3180.50
478.83	3047.38
479.03	3155.92
479.24	3626.95
479.44	3694.54
479.64	2983.89
479.84	2918.36
480.04	3076.05
480.25	3395.53
480.45	3043.28
480.65	3065.81
480.85	3575.75
481.06	3151.82
481.26	3209.17
481.46	3098.58
481.66	3319.76
481.86	3123.15
482.06	3278.80
482.27	3151.82
482.47	3192.78
482.67	3413.96
482.87	3098.58
483.07	3086.29
483.28	3260.37
483.48	3096.53
483.68	3069.91
483.88	2973.65
484.08	2887.64
484.29	3033.04
484.49	3194.83
484.69	2856.92
484.89	3528.65
485.09	3426.25
485.29	3094.48
485.50	3229.65
485.70	3160.02
485.90	3491.79
486.10	3196.88
486.30	3026.90
486.50	3467.21
486.71	3309.52
486.91	3196.88
487.11	3155.92
487.31	2983.89
487.51	3330.00
487.71	2973.65
487.91	3000.27
488.12	3104.72
488.32	2715.61
488.52	3074.00
488.72	2754.52
488.92	3243.98
489.12	3499.98
489.32	3182.54
489.53	3061.71
489.73	3002.32
489.93	3647.43
490.13	3071.95
490.33	2918.36
490.53	3246.03
490.73	3495.88
490.94	2922.45
491.14	3254.22
491.34	3362.76
491.54	3377.10
491.74	3880.90
491.94	4521.92
492.14	5054.39
492.34	5222.32
492.54	4790.20
492.75	4245.44
492.95	4470.72
493.15	4077.51
493.35	3762.12
493.55	3880.90
493.75	3653.58
493.95	3903.43
494.15	3424.20
494.35	3186.64
494.56	3254.22
494.76	3139.54
494.96	3174.35
495.16	2981.84
495.36	3368.91
495.56	3303.37
495.76	3065.81
495.96	3061.71
496.16	3192.78
496.36	3739.59
496.56	3141.58
496.77	3074.00
496.97	3317.71
497.17	3495.88
497.37	2920.40
497.57	3139.54
497.77	3317.71
497.97	3102.67
498.17	3102.67
498.37	3033.04
498.57	3407.82
498.77	3151.82
498.97	3217.36
499.17	3442.64
499.38	3121.10
499.58	3397.58
499.78	3278.80
499.98	3213.26
500.18	3223.50
500.38	3117.01
500.58	3248.08
500.78	3723.21
500.98	6145.95
501.18	8267.65
501.38	9600.88
501.58	10774.36
501.78	10901.34
501.98	8918.90
502.18	7624.59
502.38	6573.98
502.58	6399.90
502.78	5832.62
502.98	5406.64
503.18	5279.66
503.38	4898.74
503.59	4235.20
503.79	4118.47
503.99	3764.17
504.19	3917.76
504.39	3866.56
504.59	3694.54
504.79	3637.19
504.99	3985.35
505.19	3602.38
505.39	3289.04
505.59	3534.79
505.79	3743.69
505.99	3471.31
506.19	3186.64
506.39	3385.29
506.59	3196.88
506.79	3282.89
506.99	3403.72
507.19	3098.58
507.39	3295.18
507.59	3004.37
507.79	3018.71
507.99	3065.81
508.19	3293.13
508.39	3184.59
508.59	3162.06
508.79	3190.74
508.99	3676.10
509.19	3137.49
509.39	3057.62
509.59	2998.23
509.79	3178.45
509.99	3268.56
510.19	3164.11
510.39	3141.58
510.59	3307.47
510.79	3143.63
510.99	2899.92
511.19	2987.99
511.39	3504.07
511.59	3540.94
511.79	3215.31
511.99	3049.43
512.19	3653.58
512.38	3497.93
512.58	3045.33
512.78	2963.41
512.98	3532.75
513.18	3608.52
513.38	2994.13
513.58	3168.21
513.78	3196.88
513.98	3151.82
514.18	2979.79
514.38	3108.82
514.58	3411.92
514.78	3217.36
514.98	2936.79
515.18	3176.40
515.38	2985.94
515.58	3649.48
515.78	3047.38
515.98	3035.09
516.18	3426.25
516.38	3317.71
516.57	3016.66
516.77	3090.38
516.97	3377.10
517.17	3131.34
517.37	2830.29
517.57	3108.82
517.77	3268.56
517.97	3108.82
518.17	3119.06
518.37	2910.16
518.57	3172.30
518.77	3237.84
518.97	3125.20
519.16	3082.19
519.36	3442.64
519.56	3133.39
519.76	3041.23
519.96	3035.09
520.16	3588.04
520.36	3012.56
520.56	3256.27
520.76	2998.23
520.96	3235.79
521.16	3452.88
521.35	3211.22
521.55	3160.02
521.75	3266.51
521.95	3074.00
522.15	2953.17
522.35	2883.54
522.55	3114.96
522.75	3477.45
522.95	2936.79
523.14	2887.64
523.34	3241.93
523.54	3127.25
523.74	3153.87
523.94	3106.77
524.14	2965.46
524.34	3319.76
524.54	3315.66
524.73	3123.15
524.93	3495.88
525.13	3311.57
525.33	3000.27
525.53	3348.43
525.73	3483.59
525.93	3217.36
526.13	3135.44
526.32	2908.12
526.52	3532.75
526.72	3418.06
526.92	3141.58
527.12	3004.37
527.32	3020.75
527.52	3364.81
527.71	3131.34
527.91	3106.77
528.11	3176.40
528.31	3239.89
528.51	3076.05
528.71	3223.50
528.90	3405.77
529.10	3475.40
529.30	3078.10
529.50	2846.68
529.70	3252.17
529.90	3147.73
530.09	3074.00
530.29	2899.92
530.49	3106.77
530.69	3848.13
530.89	3139.54
531.09	3246.03
531.28	3160.02
531.48	3479.50
531.68	2996.18
531.88	3086.29
532.08	3385.29
532.28	3172.30
532.47	3074.00
532.67	3143.63
532.87	3401.68
533.07	3063.76
533.27	3112.91
533.46	3117.01
533.66	3350.48
533.86	3268.56
534.06	3127.25
534.26	3041.23
534.45	3221.45
534.65	3461.07
534.85	3168.21
535.05	3004.37
535.25	3430.35
535.44	2926.55
535.64	3178.45
535.84	3108.82
536.04	3221.45
536.24	3196.88
536.43	2959.31
536.63	3067.86
536.83	3243.98
537.03	3250.13
537.22	2861.01
537.42	2914.26
537.62	3358.67
537.82	3067.86
538.02	3176.40
538.21	3141.58
538.41	3911.62
538.61	3332.05
538.81	3071.95
539.00	3176.40
539.20	3047.38
539.40	3168.21
539.60	3049.43
539.79	3319.76
539.99	3192.78
540.19	3092.43
540.39	3006.42
540.58	3141.58
540.78	3487.69
540.98	3286.99
541.18	3252.17
541.37	3108.82
541.57	3315.66
541.77	3399.63
541.97	3020.75
542.16	2885.59
542.36	3168.21
542.56	3098.58
542.76	3217.36
542.95	3225.55
543.15	3373.00
543.35	3327.95
543.54	2979.79
543.74	3004.37
543.94	3534.79
544.14	3198.93
544.33	3190.74
544.53	3082.19
544.73	3211.22
544.93	3262.41
545.12	3035.09
545.32	3012.56
545.52	3340.24
545.71	3008.47
545.91	3106.77
546.11	2967.51
546.30	3157.97
546.50	3274.70
546.70	3166.16
546.90	3143.63
547.09	2934.74
547.29	3262.41
547.49	3196.88
547.68	3074.00
547.88	3153.87
548.08	3362.76
548.27	3385.29
548.47	3022.80
548.67	3125.20
548.87	3358.67
549.06	3006.42
549.26	2969.55
549.46	3354.57
549.65	3141.58
549.85	3149.78
550.05	3065.81
550.24	3016.66
550.44	3248.08
550.64	3100.62
550.83	3123.15
551.03	3553.23
551.23	3356.62
551.42	3188.69
551.62	3172.30
551.82	3246.03
552.01	3198.93
552.21	3377.10
552.41	3069.91
552.60	3520.46
552.80	3291.09
553.00	3030.99
553.19	3047.38
553.39	3641.29
553.59	3022.80
553.78	3256.27
553.98	2979.79
554.17	2996.18
554.37	3293.13
554.57	3074.00
554.76	2936.79
554.96	3217.36
555.16	3289.04
555.35	3137.49
555.55	3295.18
555.75	3381.20
555.94	3416.01
556.14	2840.53
556.33	3057.62
556.53	3207.12
556.73	3196.88
556.92	3096.53
557.12	3026.90
557.32	3669.96
557.51	3551.18
557.71	3084.24
557.90	3252.17
558.10	3485.64
558.30	3200.98
558.49	3069.91
558.69	3153.87
558.88	3465.16
559.08	3352.52
559.28	3084.24
559.47	3172.30
559.67	3432.40
559.86	3622.86
560.06	3006.42
560.26	3137.49
560.45	3379.15
560.65	3286.99
560.84	3352.52
561.04	2965.46
561.24	3399.63
561.43	3012.56
561.63	3272.65
561.82	3121.10
562.02	3352.52
562.22	3102.67
562.41	2998.23
562.61	3022.80
562.80	3063.76
563.00	3823.56
563.19	3078.10
563.39	3262.41
563.59	3373.00
563.78	3133.39
563.98	2768.85
564.17	3102.67
564.37	2944.98
564.56	3250.13
564.76	2926.55
564.96	3186.64
565.15	3323.85
565.35	3706.82
565.54	3108.82
565.74	3100.62
565.93	3450.83
566.13	3278.80
566.32	3151.82
566.52	3229.65
566.71	3252.17
566.91	3459.02
567.11	3209.17
567.30	2938.84
567.50	3297.23
567.69	3350.48
567.89	2992.08
568.08	3002.32
568.28	3264.46
568.47	3018.71
568.67	3071.95
568.86	3022.80
569.06	3387.34
569.25	3162.06
569.45	2990.03
569.64	3133.39
569.84	3200.98
570.04	3319.76
570.23	3114.96
570.43	3147.73
570.62	3309.52
570.82	3610.57
571.01	2889.68
571.21	2985.94
571.40	3162.06
571.60	3463.12
571.79	3166.16
571.99	3123.15
572.18	3082.19
572.38	3348.43
572.57	3076.05
572.77	3108.82
572.96	3835.85
573.16	3332.05
573.35	3100.62
573.55	3274.70
573.74	3393.48
573.94	3221.45
574.13	3133.39
574.33	3280.85
574.52	3514.31
574.71	3309.52
574.91	3178.45
575.10	2949.08
575.30	3182.54
575.49	3082.19
575.69	3024.85
575.88	3030.99
576.08	3258.32
576.27	3442.64
576.47	3004.37
576.66	3274.70
576.86	3571.66
577.05	3368.91
577.25	3174.35
577.44	3213.26
577.64	3293.13
577.83	3506.12
578.02	3074.00
578.22	3166.16
578.41	3622.86
578.61	3205.07
578.80	2926.55
579.00	3096.53
579.19	3221.45
579.39	3309.52
579.58	3137.49
579.77	3110.86
579.97	3514.31
580.16	3463.12
580.36	3272.65
580.55	3213.26
580.75	3420.11
580.94	3305.42
581.13	3229.65
581.33	3342.28
581.52	3307.47
581.72	3665.86
581.91	3203.02
582.11	3008.47
582.30	3450.83
582.49	3348.43
582.69	3358.67
582.88	3112.91
583.08	3340.24
583.27	3465.16
583.47	3194.83
583.66	2998.23
583.85	3137.49
584.05	3180.50
584.24	3207.12
584.44	3110.86
584.63	3518.41
584.82	3577.80
585.02	3291.09
585.21	3186.64
585.41	3397.58
585.60	3362.76
585.79	3299.28
585.99	3413.96
586.18	3286.99
586.37	4227.01
586.57	6207.39
586.76	17995.50
586.96	37569.99
587.15	50511.10
587.34	59223.16
587.54	63286.33
587.73	56636.58
587.93	40596.88
588.12	30932.52
588.31	25511.55
588.51	22478.50
588.70	20647.62
588.89	18687.71
589.09	15929.10
589.28	13856.56
589.47	10915.67
589.67	8423.30
589.86	6522.78
590.06	5064.63
590.25	4419.52
590.44	3813.32
590.64	3516.36
590.83	3559.37
591.02	3526.60
591.22	3166.16
591.41	3155.92
591.60	3311.57
591.80	3844.04
591.99	2973.65
592.18	3008.47
592.38	3436.49
592.57	3065.81
592.76	3102.67
592.96	3188.69
593.15	3233.74
593.34	3502.03
593.54	3053.52
593.73	3182.54
593.92	3375.05
594.12	3514.31
594.31	3196.88
594.50	3276.75
594.70	3428.30
594.89	3815.37
595.08	2985.94
595.28	3303.37
595.47	3987.40
595.66	3522.51
595.86	2947.03
596.05	2899.92
596.24	3293.13
596.43	3563.47
596.63	3114.96
596.82	3334.09
597.01	3387.34
597.21	3631.05
597.40	3098.58
597.59	3147.73
597.79	3330.00
597.98	3389.39
598.17	3186.64
598.36	3108.82
598.56	3508.17
598.75	3215.31
598.94	3139.54
599.14	3153.87
599.33	3221.45
599.52	3459.02
599.71	3129.30
599.91	3125.20
600.10	3323.85
600.29	3248.08
600.48	3069.91
600.68	3227.60
600.87	3373.00
601.06	3137.49
601.26	3190.74
601.45	3241.93
601.64	3276.75
601.83	3596.23
602.03	3020.75
602.22	2938.84
602.41	3491.79
602.60	3706.82
602.80	3117.01
602.99	3221.45
603.18	3160.02
603.37	3350.48
603.57	2944.98
603.76	3082.19
603.95	3610.57
604.14	3207.12
604.34	3016.66
604.53	3057.62
604.72	3286.99
604.91	3461.07
605.10	3047.38
605.30	2963.41
605.49	3690.44
605.68	3409.87
605.87	2996.18
606.07	3024.85
606.26	3293.13
606.45	3327.95
606.64	3059.67
606.84	2981.84
607.03	3250.13
607.22	3502.03
607.41	3149.78
607.60	3071.95
607.80	3434.44
607.99	3178.45
608.18	3004.37
608.37	3065.81
608.56	3170.26
608.76	3471.31
608.95	3231.69
609.14	3110.86
609.33	3618.76
609.52	3573.71
609.72	3194.83
609.91	3196.88
610.10	3385.29
610.29	3547.08
610.48	3174.35
610.68	3215.31
610.87	3268.56
611.06	3467.21
611.25	3174.35
611.44	3200.98
611.63	3170.26
611.83	3563.47
612.02	3016.66
612.21	3196.88
612.40	2996.18
612.59	3094.48
612.79	2975.70
612.98	3112.91
613.17	3682.25
613.36	3248.08
613.55	3243.98
613.74	3098.58
613.93	3250.13
614.13	3409.87
614.32	3321.81
614.51	3164.11
614.70	3282.89
614.89	3336.14
615.08	3233.74
615.28	3430.35
615.47	3157.97
615.66	3450.83
615.85	3186.64
616.04	3176.40
616.23	3334.09
616.42	3344.33
616.62	3057.62
616.81	3094.48
617.00	3321.81
617.19	3420.11
617.38	3131.34
617.57	3260.37
617.76	3413.96
617.95	3442.64
618.15	3196.88
618.34	3243.98
618.53	3043.28
618.72	3557.32
618.91	3215.31
619.10	3203.02
619.29	3289.04
619.48	3340.24
619.68	3033.04
619.87	3053.52
620.06	2932.69
620.25	3383.24
620.44	3039.19
620.63	3114.96
620.82	3311.57
621.01	3315.66
621.20	3112.91
621.39	3166.16
621.59	3377.10
621.78	3256.27
621.97	3117.01
622.16	3209.17
622.35	3323.85
622.54	3479.50
622.73	3102.67
622.92	2797.53
623.11	3461.07
623.30	3239.89
623.49	3188.69
623.68	2930.64
623.88	3626.95
624.07	3172.30
624.26	2975.70
624.45	3022.80
624.64	3280.85
624.83	3303.37
625.02	3082.19
625.21	3100.62
625.40	3383.24
625.59	3559.37
625.78	3168.21
625.97	3155.92
626.16	3575.75
626.35	3516.36
626.54	3121.10
626.74	3301.33
626.93	3243.98
627.12	3239.89
627.31	3147.73
627.50	3114.96
627.69	3493.83
627.88	3180.50
628.07	3053.52
628.26	2953.17
628.45	3182.54
628.64	3100.62
628.83	3090.38
629.02	2926.55
629.21	3426.25
629.40	3299.28
629.59	3010.51
629.78	3030.99
629.97	3284.94
630.16	3381.20
630.35	3010.51
630.54	3164.11
630.73	3184.59
630.92	3252.17
631.11	2928.60
631.30	3180.50
631.49	3499.98
631.68	3180.50
631.87	3157.97
632.06	2981.84
632.25	3710.92
632.44	3262.41
632.63	3174.35
632.82	3145.68
633.01	3182.54
633.20	3428.30
633.39	3098.58
633.58	2844.63
633.77	3241.93
633.96	3368.91
634.15	3153.87
634.34	3190.74
634.53	3411.92
634.72	3160.02
634.91	2971.60
635.10	3127.25
635.29	3395.53
635.48	3319.76
635.67	2949.08
635.86	2912.21
636.05	3581.90
636.24	3356.62
636.43	3067.86
636.62	3110.86
636.81	2803.67
637.00	3229.65
637.19	3106.77
637.38	3094.48
637.57	3166.16
637.76	3299.28
637.95	3319.76
638.14	3321.81
638.33	3274.70
638.52	3391.44
638.71	2947.03
638.89	2949.08
639.08	3796.93
639.27	3465.16
639.46	3450.83
639.65	3602.38
639.84	3872.71
640.03	4102.08
640.22	3567.56
640.41	3583.95
640.60	3434.44
640.79	3532.75
640.98	3256.27
641.17	3377.10
641.36	3557.32
641.55	3495.88
641.74	2916.31
641.92	2985.94
642.11	3074.00
642.30	3264.46
642.49	2998.23
642.68	2992.08
642.87	3403.72
643.06	3438.54
643.25	2951.12
643.44	3033.04
643.63	3311.57
643.82	3352.52
644.00	3016.66
644.19	3065.81
644.38	3104.72
644.57	3360.72
644.76	3067.86
644.95	3057.62
645.14	3313.61
645.33	3207.12
645.52	3135.44
645.71	2871.25
645.89	3061.71
646.08	3225.55
646.27	3141.58
646.46	3258.32
646.65	3018.71
646.84	3282.89
647.03	3008.47
647.22	3246.03
647.40	3342.28
647.59	3299.28
647.78	2867.16
647.97	3014.61
648.16	3135.44
648.35	3602.38
648.54	3352.52
648.73	3067.86
648.91	3520.46
649.10	3266.51
649.29	2992.08
649.48	3030.99
649.67	3418.06
649.86	3303.37
650.05	3112.91
650.23	3293.13
650.42	3137.49
650.61	3606.47
650.80	3370.96
650.99	3356.62
651.18	3514.31
651.36	3522.51
651.55	3086.29
651.74	3334.09
651.93	3217.36
652.12	3256.27
652.31	3180.50
652.49	3141.58
652.68	3162.06
652.87	3655.62
653.06	3280.85
653.25	3352.52
653.44	3264.46
653.62	3663.82
653.81	3123.15
654.00	3205.07
654.19	3424.20
654.38	3862.47
654.56	3176.40
654.75	3084.24
654.94	3448.78
655.13	3340.24
655.32	2947.03
655.51	3151.82
655.69	3192.78
655.88	3493.83
656.07	2955.22
656.26	3172.30
656.45	3078.10
656.63	3280.85
656.82	3102.67
657.01	3362.76
657.20	3090.38
657.38	3526.60
657.57	2975.70
657.76	2901.97
657.95	3493.83
658.14	3188.69
658.32	3229.65
658.51	2949.08
658.70	3293.13
658.89	3416.01
659.08	3123.15
659.26	3336.14
659.45	3149.78
659.64	3389.39
659.83	3078.10
660.01	3469.26
660.20	3280.85
660.39	3624.90
660.58	2861.01
660.76	3209.17
660.95	2922.45
661.14	3297.23
661.33	2891.73
661.51	3067.86
661.70	3196.88
661.89	3305.42
662.08	3078.10
662.26	2877.40
662.45	3024.85
662.64	3688.39
662.83	3082.19
663.01	3020.75
663.20	3174.35
663.39	3590.09
663.58	3076.05
663.76	2953.17
663.95	3366.86
664.14	3059.67
664.32	3254.22
664.51	2863.06
664.70	2994.13
664.89	3362.76
665.07	2957.27
665.26	3291.09
665.45	3063.76
665.64	3422.16
665.82	3037.14
666.01	3264.46
666.20	2983.89
666.38	3499.98
666.57	3370.96
666.76	5619.63
666.95	12889.92
667.13	20473.54
667.32	24858.24
667.51	28026.45
667.69	29011.53
667.88	24225.42
668.07	17366.78
668.25	14847.77
668.44	12810.04
668.63	11200.34
668.81	9709.42
669.00	8439.68
669.19	7698.31
669.38	6735.77
669.56	5779.37
669.75	4931.51
669.94	4380.61
670.12	3819.46
670.31	3506.12
670.50	3387.34
670.68	3446.73
670.87	3418.06
671.06	3037.14
671.24	3190.74
671.43	3602.38
671.62	3323.85
671.80	3092.43
671.99	3207.12
672.18	3315.66
672.36	3477.45
672.55	3270.61
672.74	3207.12
672.92	3166.16
673.11	3383.24
673.29	2959.31
673.48	3360.72
673.67	3176.40
673.85	3471.31
674.04	3057.62
674.23	3117.01
674.41	3657.67
674.60	3004.37
674.79	2942.93
674.97	2893.78
675.16	3528.65
675.34	3567.56
675.53	3125.20
675.72	3117.01
675.90	3608.52
676.09	3164.11
676.28	3145.68
676.46	2844.63
676.65	3424.20
676.83	3131.34
677.02	3119.06
677.21	3205.07
677.39	3286.99
677.58	3084.24
677.77	2987.99
677.95	3047.38
678.14	3252.17
678.32	3286.99
678.51	3086.29
678.70	3446.73
678.88	3157.97
679.07	3397.58
679.25	3143.63
679.44	3178.45
679.63	2998.23
679.81	3274.70
680.00	3454.92
680.18	3239.89
680.37	3577.80
680.55	3311.57
680.74	2875.35
680.93	2801.62
681.11	3344.33
681.30	3260.37
681.48	3145.68
681.67	3131.34
681.85	3299.28
682.04	3102.67
682.23	3237.84
682.41	3270.61
682.60	3260.37
682.78	3229.65
682.97	3002.32
683.15	3123.15
683.34	3330.00
683.53	3696.58
683.71	2947.03
683.90	3096.53
684.08	3592.14
684.27	3233.74
684.45	3092.43
684.64	3209.17
684.82	3256.27
685.01	3393.48
685.19	3047.38
685.38	3409.87
685.57	3301.33
685.75	3125.20
685.94	3082.19
686.12	2934.74
686.31	3217.36
686.49	3575.75
686.68	2936.79
686.86	3106.77
687.05	3137.49
687.23	3645.38
687.42	3110.86
687.60	2912.21
687.79	3409.87
687.97	3573.71
688.16	3196.88
688.34	3377.10
688.53	2953.17
688.71	3315.66
688.90	3416.01
689.08	3166.16
689.27	3041.23
689.45	3491.79
689.64	3297.23
689.82	3155.92
690.01	3307.47
690.19	3383.24
690.38	3112.91
690.56	3276.75
690.75	3076.05
690.93	3225.55
691.12	3123.15
691.30	3166.16
691.49	3211.22
691.67	3207.12
691.86	3450.83
692.04	3084.24
692.23	3258.32
692.41	3258.32
692.60	3483.59
692.78	3354.57
692.97	3278.80
693.15	3370.96
693.34	3260.37
693.52	3325.90
693.71	3155.92
693.89	3123.15
694.08	2947.03
694.26	3137.49
694.44	3315.66
694.63	3420.11
694.81	3004.37
695.00	3108.82
695.18	3532.75
695.37	3798.98
695.55	3184.59
695.74	3200.98
695.92	3180.50
696.10	3391.44
696.29	3024.85
696.47	3086.29
696.66	3090.38
696.84	3043.28
697.03	3205.07
697.21	3393.48
697.40	4704.18
697.58	3598.28
697.76	3004.37
697.95	3098.58
698.13	3020.75
698.32	3160.02
698.50	3071.95
698.68	3057.62
698.87	3368.91
699.05	3534.79
699.24	3114.96
699.42	3018.71
699.61	3289.04
699.79	3303.37
699.97	3090.38
700.16	2955.22
700.34	3104.72
700.53	3338.19
700.71	3254.22
700.89	3125.20
701.08	3258.32
701.26	3303.37
701.45	3454.92
701.63	3024.85
701.81	3213.26
702.00	3188.69
702.18	3221.45
702.37	3069.91
702.55	3618.76
702.73	3456.97
702.92	3119.06
703.10	3506.12
703.28	3461.07
703.47	3164.11
703.65	3387.34
703.84	3252.17
704.02	3221.45
704.20	3596.23
704.39	3030.99
704.57	3043.28
704.75	3389.39
704.94	3375.05
705.12	3266.51
705.30	3932.10
705.49	8585.08
705.67	17202.94
705.86	23967.38
706.04	27199.07
706.22	30060.09
706.41	29060.68
706.59	21501.62
706.77	16862.97
706.96	14505.76
707.14	13309.75
707.32	11280.21
707.51	9883.50
707.69	8077.19
707.87	6666.14
708.06	5359.53
708.24	4487.10
708.42	4085.70
708.61	4278.21
708.79	3246.03
708.97	3272.65
709.16	3461.07
709.34	3319.76
709.52	3088.34
709.71	3119.06
709.89	3395.53
710.07	3127.25
710.26	3076.05
710.44	3117.01
710.62	3383.24
710.80	3239.89
710.99	3133.39
711.17	3213.26
711.35	3129.30
711.54	3160.02
711.72	3358.67
711.90	3166.16
712.09	3321.81
712.27	3074.00
712.45	3196.88
712.63	3092.43
712.82	3362.76
713.00	3330.00
713.18	3157.97
713.37	3239.89
713.55	3391.44
713.73	3401.68
713.91	3143.63
714.10	3133.39
714.28	3235.79
714.46	3358.67
714.65	3233.74
714.83	3180.50
715.01	3262.41
715.19	3319.76
715.38	3057.62
715.56	3211.22
715.74	3168.21
715.92	3127.25
716.11	3397.58
716.29	2914.26
716.47	3262.41
716.65	3225.55
716.84	2975.70
717.02	3092.43
717.20	2977.75
717.38	3104.72
717.57	3196.88
717.75	3125.20
717.93	3192.78
718.11	3459.02
718.30	2928.60
718.48	3117.01
718.66	3502.03
718.84	3379.15
719.03	3102.67
719.21	2949.08
719.39	3657.67
719.57	3344.33
719.75	3123.15
719.94	2998.23
720.12	3147.73
720.30	3248.08
720.48	3198.93
720.67	3074.00
720.85	3102.67
721.03	3164.11
721.21	3096.53
721.39	3172.30
721.58	3262.41
721.76	3215.31
721.94	3104.72
722.12	3160.02
722.30	3643.34
722.49	3174.35
722.67	3067.86
722.85	3123.15
723.03	3010.51
723.21	3135.44
723.40	3088.34
723.58	3286.99
723.76	3426.25
723.94	3475.40
724.12	3145.68
724.30	3397.58
724.49	3385.29
724.67	3030.99
724.85	3260.37
725.03	3047.38
725.21	3442.64
725.40	3540.94
725.58	3133.39
725.76	3264.46
725.94	3360.72
726.12	3094.48
726.30	3254.22
726.49	3123.15
726.67	3237.84
726.85	3485.64
727.03	3936.20
727.21	5599.15
727.39	7264.15
727.57	7772.04
727.76	8443.78
727.94	8505.21
728.12	7268.24
728.30	6104.99
728.48	5476.27
728.66	5238.70
728.84	4818.87
729.03	4159.42
729.21	3801.03
729.39	3676.10
729.57	3366.86
729.75	3465.16
729.93	3377.10
730.11	3049.43
730.30	3258.32
730.48	3299.28
730.66	3225.55
730.84	3209.17
731.02	3207.12
731.20	3129.30
731.38	3131.34
731.56	2934.74
731.74	3104.72
731.93	3330.00
732.11	3268.56
732.29	3114.96
732.47	3409.87
732.65	3250.13
732.83	3354.57
733.01	3203.02
733.19	3174.35
733.37	3387.34
733.56	3094.48
733.74	2973.65
733.92	3585.99
734.10	3112.91
734.28	3266.51
734.46	2813.91
734.64	3123.15
734.82	3139.54
735.00	3082.19
735.18	3061.71
735.36	3313.61
735.54	3297.23
735.73	3090.38
735.91	3205.07
736.09	3532.75
736.27	3303.37
736.45	3145.68
736.63	2840.53
736.81	3188.69
736.99	3590.09
737.17	3360.72
737.35	3024.85
737.53	3258.32
737.71	3346.38
737.89	3274.70
738.07	3071.95
738.25	3147.73
738.43	2965.46
738.61	3106.77
738.80	2971.60
738.98	3125.20
739.16	3203.02
739.34	3065.81
739.52	3418.06
739.70	3127.25
739.88	3323.85
740.06	3172.30
740.24	2856.92
740.42	3434.44
740.60	2926.55
740.78	3051.47
740.96	2822.10
741.14	3254.22
741.32	3315.66
741.50	2865.11
741.68	3420.11
741.86	3542.99
742.04	2985.94
742.22	2869.20
742.40	3127.25
742.58	3483.59
742.76	3117.01
742.94	3307.47
743.12	2879.44
743.30	3303.37
743.48	3450.83
743.66	2959.31
743.84	3180.50
744.02	3192.78
744.20	3327.95
744.38	2922.45
744.56	3100.62
744.74	3626.95
744.92	3383.24
745.10	3311.57
745.28	3194.83
745.46	3616.71
745.64	3291.09
745.82	3160.02
746.00	3035.09
746.18	3332.05
746.36	3106.77
746.54	3112.91
746.72	3190.74
746.90	3121.10
747.08	3506.12
747.26	3045.33
747.44	3192.78
747.62	3393.48
747.80	3420.11
747.98	3082.19
748.15	3076.05
748.33	3569.61
748.51	3311.57
748.69	3102.67
748.87	3065.81
749.05	3213.26
749.23	3209.17
749.41	3035.09
749.59	2961.36
749.77	3440.59
749.95	3246.03
750.13	3088.34
750.31	3133.39
750.49	3264.46
750.67	3440.59
750.85	3252.17
751.03	3096.53
751.20	3741.64
751.38	3325.90
751.56	3151.82
751.74	3098.58
751.92	3190.74
752.10	3119.06
752.28	3311.57
752.46	3037.14
752.64	3215.31
752.82	3241.93
753.00	3211.22
753.18	3049.43
753.35	3217.36
753.53	3311.57
753.71	2983.89
753.89	3184.59
754.07	3348.43
754.25	3428.30
754.43	3170.26
754.61	3024.85
754.79	3432.40
754.97	3260.37
755.14	3278.80
755.32	3026.90
755.50	3278.80
755.68	3336.14
755.86	3045.33
756.04	2949.08
756.22	2873.30
756.40	3465.16
756.57	3311.57
756.75	3053.52
756.93	3448.78
757.11	3442.64
757.29	2963.41
757.47	3049.43
757.65	2983.89
757.82	2836.44
758.00	3022.80
758.18	2992.08
758.36	3086.29
758.54	3598.28
758.72	2934.74
758.90	3147.73
759.07	3364.81
759.25	3059.67
759.43	3209.17
759.61	2965.46
759.79	4450.24
759.97	3411.92
760.15	3164.11
760.32	3053.52
760.50	3401.68
760.68	3598.28
760.86	2971.60
761.04	3348.43
761.22	3356.62
761.39	3194.83
761.57	3225.55
761.75	3074.00
761.93	3444.68
762.11	3182.54
762.28	3233.74
762.46	3045.33
762.64	3450.83
762.82	2967.51
763.00	3088.34
763.18	3342.28
763.35	3045.33
763.53	3463.12
763.71	3188.69
763.89	3127.25
764.07	3301.33
764.24	3258.32
764.42	3194.83
764.60	3131.34
764.78	3405.77
764.96	3442.64
765.13	3268.56
765.31	2912.21
765.49	3364.81
765.67	3059.67
765.84	3082.19
766.02	3035.09
766.20	2977.75
766.38	3461.07
766.56	3112.91
766.73	3223.50
766.91	3256.27
767.09	3278.80
767.27	3151.82
767.44	3010.51
767.62	3381.20
767.80	3383.24
767.98	3020.75
768.15	3092.43
768.33	3473.36
768.51	3370.96
768.69	3188.69
768.87	3063.76
769.04	3250.13
769.22	3813.32
769.40	3246.03
769.58	3194.83
769.75	3362.76
769.93	3508.17
770.11	3100.62
770.28	2959.31
770.46	3424.20
770.64	3233.74
770.82	3008.47
770.99	3033.04
771.17	3434.44
771.35	3194.83
771.53	3219.41
771.70	2992.08
771.88	3360.72
772.06	3184.59
772.23	3102.67
772.41	3094.48
772.59	3213.26
772.77	3084.24
772.94	3106.77
773.12	3168.21
773.30	3198.93
773.47	3342.28
773.65	2969.55
773.83	3207.12
774.01	3278.80
774.18	2895.83
774.36	3137.49
774.54	3049.43
774.71	3362.76
774.89	2998.23
775.07	2981.84
775.24	3110.86
775.42	3172.30
775.60	3649.48
775.78	2949.08
775.95	2969.55
776.13	2899.92
776.31	2877.40
776.48	3336.14
776.66	3278.80
776.84	3145.68
777.01	3147.73
777.19	2963.41
777.37	3014.61
777.54	3442.64
777.72	3618.76
777.90	3123.15
778.07	3018.71
778.25	3952.58
778.43	3510.22
778.60	2942.93
778.78	3172.30
778.96	3610.57
779.13	3002.32
779.31	3182.54
779.49	3104.72
779.66	3309.52
779.84	3237.84
780.01	3002.32
780.19	3035.09
780.37	3461.07
780.54	3483.59
780.72	2961.36
780.90	3129.30
781.07	3229.65
781.25	3188.69
781.43	3303.37
781.60	3133.39
781.78	3577.80
781.95	3352.52
782.13	3010.51
782.31	3100.62
782.48	2959.31
782.66	3366.86
782.83	3309.52
783.01	3205.07
783.19	3413.96
783.36	3223.50
783.54	3014.61
783.72	3176.40
783.89	3112.91
784.07	3286.99
784.24	3209.17
784.42	3319.76
784.60	3311.57
784.77	3258.32
784.95	2889.68
785.12	3043.28
785.30	3254.22
785.47	3100.62
785.65	2953.17
785.83	3086.29
786.00	3184.59
786.18	3289.04
786.35	2975.70
786.53	2998.23
786.71	3442.64
786.88	3332.05
787.06	3217.36
787.23	3188.69
787.41	3043.28
787.58	3221.45
787.76	2992.08
787.94	3061.71
788.11	3319.76
788.29	3080.14
788.46	3137.49
788.64	2934.74
788.81	3229.65
788.99	3051.47
789.16	2959.31
789.34	3131.34
789.52	3172.30
789.69	3196.88
789.87	2889.68
790.04	3094.48
790.22	3334.09
790.39	3749.83
790.57	2994.13
790.74	2901.97
790.92	3422.16
791.09	2975.70
791.27	3160.02
791.44	3217.36
791.62	3239.89
791.79	3452.88
791.97	3215.31
792.15	3387.34
792.32	3338.19
792.50	3461.07
792.67	3268.56
792.85	3303.37
793.02	3356.62
793.20	3174.35
793.37	2916.31
793.55	3018.71
793.72	3057.62
793.90	3356.62
794.07	3074.00
794.25	2969.55
794.42	3303.37
794.60	3203.02
794.77	3168.21
794.95	3213.26
795.12	3438.54
795.30	3274.70
795.47	2928.60
795.65	3440.59
795.82	3471.31
796.00	3172.30
796.17	3188.69
796.34	2990.03
796.52	3352.52
796.69	3463.12
796.87	3180.50
797.04	3241.93
797.22	3393.48
797.39	3196.88
797.57	3205.07
797.74	3188.69
797.92	3295.18
798.09	3098.58
798.27	3418.06
798.44	3086.29
798.62	3092.43
798.79	3237.84
798.96	3127.25
799.14	3096.53
799.31	3823.56
799.49	3243.98
799.66	3162.06
799.84	3125.20
800.01	2990.03
800.19	3291.09
800.36	2824.15
800.53	3180.50
800.71	3344.33
800.88	3551.18
801.06	2992.08
801.23	3024.85
801.41	3182.54
801.58	3215.31
801.75	3090.38
801.93	3155.92
802.10	3438.54
802.28	3143.63
802.45	3112.91
802.63	3114.96
802.80	3590.09
802.97	3217.36
803.15	3160.02
803.32	3102.67
803.50	3074.00
803.67	3106.77
803.84	2955.22
804.02	3250.13
804.19	3205.07
804.37	2738.13
804.54	2863.06
804.71	3065.81
804.89	3162.06
805.06	3139.54
805.24	3065.81
805.41	2873.30
805.58	3127.25
805.76	3743.69
805.93	3018.71
806.10	3168.21
806.28	3395.53
806.45	3325.90
806.63	3303.37
806.80	3119.06
806.97	3286.99
807.15	3340.24
807.32	3174.35
807.49	3033.04
807.67	3059.67
807.84	3368.91
808.01	2836.44
808.19	3192.78
808.36	3590.09
808.54	3194.83
808.71	3071.95
808.88	3127.25
809.06	3549.13
809.23	3522.51
809.40	3043.28
809.58	3014.61
809.75	3340.24
809.92	3090.38
810.10	3321.81
810.27	3026.90
810.44	3280.85
810.62	3426.25
810.79	3100.62
810.96	3008.47
811.14	3225.55
811.31	3332.05
811.48	3344.33
811.66	3225.55
811.83	3528.65
812.00	3426.25
812.18	3217.36
812.35	3409.87
812.52	3200.98
812.69	3188.69
812.87	3037.14
813.04	2994.13
813.21	3270.61
813.39	3196.88
813.56	2990.03
813.73	3299.28
813.91	3016.66
814.08	3385.29
814.25	3123.15
814.42	2899.92
814.60	3233.74
814.77	3270.61
814.94	3078.10
815.12	3133.39
815.29	3633.10
815.46	3018.71
815.63	3131.34
815.81	3053.52
815.98	3198.93
816.15	3282.89
816.33	3186.64
816.50	3065.81
816.67	3229.65
816.84	3209.17
817.02	2944.98
817.19	3092.43
817.36	3266.51
817.53	3352.52
817.71	3084.24
817.88	3084.24
818.05	3139.54
818.22	3172.30
818.40	3246.03
818.57	3028.95
818.74	3364.81
818.91	3295.18
819.09	3190.74
819.26	3176.40
819.43	3123.15
819.60	3102.67
819.78	3264.46
819.95	3149.78
820.12	3082.19
820.29	3483.59
820.47	3348.43
820.64	2981.84
820.81	3057.62
820.98	3110.86
821.15	3119.06
821.33	3198.93
821.50	2904.02
821.67	3387.34
821.84	3076.05
822.02	3098.58
822.19	3395.53
822.36	3153.87
822.53	2973.65
822.70	2977.75
822.88	3237.84
823.05	3518.41
823.22	3123.15
823.39	3106.77
823.56	3241.93
823.74	3684.30
823.91	2928.60
824.08	3037.14
824.25	3033.04
824.42	3547.08
824.60	2965.46
824.77	3207.12
824.94	3166.16
825.11	3344.33
825.28	2992.08
825.45	3256.27
825.63	3319.76
825.80	3065.81
825.97	3184.59
826.14	3092.43
826.31	2973.65
826.48	3274.70
826.66	3055.57
826.83	3055.57
827.00	3268.56
827.17	3014.61
827.34	3129.30
827.51	3041.23
827.69	3299.28
827.86	2985.94
828.03	3114.96
828.20	3108.82
828.37	3192.78
828.54	3426.25
828.71	2963.41
828.89	3123.15
829.06	3305.42
829.23	3585.99
829.40	3045.33
829.57	3065.81
829.74	3432.40
829.91	3147.73
830.09	3000.27
830.26	3215.31
830.43	3551.18
830.60	3225.55
830.77	3184.59
830.94	3313.61
831.11	3424.20
831.28	3153.87
831.46	3231.69
831.63	3071.95
831.80	3461.07
831.97	3121.10
832.14	3043.28
832.31	3182.54
832.48	3336.14
832.65	3489.74
832.82	3223.50
832.99	3139.54
833.17	3074.00
833.34	3631.05
833.51	3065.81
833.68	2854.87
833.85	3477.45
834.02	3028.95
834.19	3057.62
834.36	3028.95
834.53	3381.20
834.70	3454.92
834.87	3129.30
835.04	2822.10
835.22	3088.34
835.39	3174.35
835.56	2969.55
835.73	2959.31
835.90	3506.12
836.07	3143.63
836.24	3055.57
836.41	2930.64
836.58	3063.76
836.75	3497.93
836.92	2977.75
837.09	2879.44
837.26	3373.00
837.43	3315.66
837.60	2998.23
837.77	2922.45
837.94	3463.12
838.12	3573.71
838.29	2869.20
838.46	2779.09
838.63	3043.28
838.80	3549.13
838.97	3002.32
839.14	2957.27
839.31	3291.09
839.48	3385.29
839.65	2885.59
839.82	3016.66
839.99	3282.89
840.16	3332.05
840.33	2836.44
840.50	2953.17
840.67	3112.91
840.84	2873.30
841.01	2762.71
841.18	2953.17
841.35	3170.26
841.52	3434.44
841.69	3188.69
841.86	3002.32
842.03	3256.27
842.20	3436.49
842.37	2904.02
842.54	2916.31
842.71	3260.37
842.88	2971.60
843.05	2959.31
843.22	2834.39
843.39	3409.87
843.56	3139.54
843.73	2928.60
843.90	3024.85
844.07	3338.19
844.24	3450.83
844.41	2992.08
844.58	2934.74
844.75	3276.75
844.92	3375.05
845.09	2969.55
845.26	2953.17
845.43	3524.55
845.60	3188.69
845.77	3057.62
845.94	3010.51
846.10	3424.20
846.27	2961.36
846.44	2758.61
846.61	2803.67
846.78	3327.95
846.95	3502.03
847.12	2793.43
847.29	2918.36
847.46	3067.86
847.63	3393.48
847.80	2869.20
847.97	2985.94
848.14	3653.58
848.31	3155.92
848.48	2858.96
848.65	2858.96
848.82	3139.54
848.98	3805.13
849.15	3110.86
849.32	3082.19
849.49	3475.40
849.66	3180.50
849.83	2871.25
850.00	2861.01
850.17	3467.21
850.34	3133.39
850.51	2795.48
850.68	2906.07
850.85	3721.16
851.01	3368.91
851.18	2789.33
851.35	3014.61
851.52	3342.28
851.69	3542.99
851.86	2867.16
852.03	2820.05
852.20	3461.07
852.37	3200.98
852.53	2869.20
852.70	2885.59
852.87	3332.05
853.04	3418.06
853.21	2912.21
853.38	3229.65
853.55	3473.36
853.72	3542.99
853.89	2840.53
854.05	2871.25
854.22	3254.22
854.39	3151.82
854.56	2848.72
854.73	3063.76
854.90	3096.53
855.07	3209.17
855.23	2856.92
855.40	2891.73
855.57	3254.22
855.74	2807.77
855.91	3172.30
856.08	2828.24
856.25	2969.55
856.41	3090.38
856.58	2904.02
856.75	2996.18
856.92	3051.47
857.09	3475.40
857.26	2711.51
857.42	2965.46
857.59	3409.87
857.76	3213.26
857.93	2889.68
858.10	2979.79
858.27	3086.29
858.43	3325.90
858.60	2936.79
858.77	2797.53
858.94	3125.20
859.11	3479.50
859.27	3035.09
859.44	2914.26
859.61	3719.11
859.78	3356.62
859.95	2932.69
860.12	2736.09
860.28	3731.40
860.45	3614.66
860.62	2838.48
860.79	3016.66
860.95	3235.79
861.12	3131.34
861.29	2805.72
861.46	2856.92
861.63	3190.74
861.79	3313.61
861.96	2836.44
862.13	2916.31
862.30	3583.95
862.47	3069.91
862.63	2805.72
862.80	2953.17
862.97	3477.45
863.14	3370.96
863.30	2914.26
863.47	2906.07
863.64	3565.51
863.81	3215.31
863.97	2793.43
864.14	3006.42
864.31	3198.93
864.48	3272.65
864.65	2881.49
864.81	3041.23
864.98	3270.61
865.15	3383.24
865.32	2936.79
865.48	3053.52
865.65	3553.23
865.82	3110.86
865.98	3030.99
866.15	3014.61
866.32	3200.98
866.49	3188.69
866.65	3065.81
866.82	2973.65
866.99	3237.84
867.16	3149.78
867.32	2979.79
867.49	2775.00
867.66	3266.51
867.83	3102.67
867.99	2828.24
868.16	3004.37
868.33	3037.14
868.49	3239.89
868.66	2922.45
868.83	3063.76
868.99	3323.85
869.16	3327.95
869.33	3069.91
869.50	3057.62
869.66	3311.57
869.83	3360.72
870.00	2775.00
870.16	3020.75
870.33	3233.74
870.50	3479.50
870.66	2955.22
870.83	2957.27
871.00	3186.64
871.17	3405.77
871.33	3053.52
871.50	2918.36
871.67	3297.23
871.83	3200.98
872.00	2955.22
872.17	2955.22
872.33	3696.58
872.50	3493.83
872.67	2891.73
872.83	2912.21
873.00	3295.18
873.17	3321.81
873.33	2947.03
873.50	2983.89
873.67	3213.26
873.83	3061.71
874.00	2924.50
874.16	3035.09
874.33	3221.45
874.50	2957.27
874.66	2846.68
874.83	3053.52
875.00	3491.79
875.16	3491.79
875.33	2994.13
875.50	2711.51
875.66	3153.87
875.83	3291.09
875.99	2969.55
876.16	3000.27
876.33	3057.62
876.49	3192.78
876.66	3037.14
876.83	2949.08
876.99	3024.85
877.16	3256.27
877.32	2805.72
877.49	3053.52
877.66	3336.14
877.82	3616.71
877.99	2996.18
878.15	3229.65
878.32	3352.52
878.49	3301.33
878.65	2901.97
878.82	3237.84
878.98	3119.06
879.15	3518.41
879.32	3094.48
879.48	3039.19
879.65	3233.74
879.81	3143.63
879.98	2924.50
880.15	3000.27
880.31	3383.24
880.48	3100.62
880.64	3016.66
880.81	3082.19
880.97	3598.28
881.14	3549.13
881.31	2818.00
881.47	3080.14
881.64	3254.22
881.80	3010.51
881.97	3102.67
882.13	2854.87
882.30	3065.81
882.47	3164.11
882.63	2942.93
882.80	2918.36
882.96	3180.50
883.13	3436.49
883.29	2928.60
883.46	2940.88
883.62	3729.35
883.79	3276.75
883.95	3100.62
884.12	2887.64
884.29	3405.77
884.45	3250.13
884.62	2914.26
884.78	2854.87
884.95	3583.95
885.11	3086.29
885.28	2979.79
885.44	2949.08
885.61	3381.20
885.77	3528.65
885.94	3145.68
886.10	3049.43
886.27	3395.53
886.43	3577.80
886.60	3055.57
886.76	2879.44
886.93	3100.62
887.09	3286.99
887.26	2781.14
887.42	3094.48
887.59	3508.17
887.75	3805.13
887.92	3135.44
888.08	3008.47
888.25	3633.10
888.41	3368.91
888.58	2963.41
888.74	2897.88
888.91	3082.19
>>>>>End Processed Spectral Data<<<<<
