SpectraSuite Data File
++++++++++++++++++++++++++++++++++++
Date: Fri May 06 08:14:27 CEST 2016
User: root
Dark Spectrum Present: No
Reference Spectrum Present: No
Number of Sampled Component Spectra: 1
Spectrometers: USB4C02835
Integration Time (usec): 100000 (USB4C02835)
Spectra Averaged: 1 (USB4C02835)
Boxcar Smoothing: 0 (USB4C02835)
Correct for Electrical Dark: No (USB4C02835)
Strobe/Lamp Enabled: No (USB4C02835)
Correct for Detector Non-linearity: No (USB4C02835)
Correct for Stray Light: No (USB4C02835)
Number of Pixels in Processed Spectrum: 3648
>>>>>Begin Processed Spectral Data<<<<<
177.47	2213.85
177.69	2213.85
177.91	2213.85
178.13	2238.43
178.36	2287.58
178.58	3086.29
178.80	3112.91
179.02	2959.31
179.24	3078.10
179.46	2803.67
179.68	2797.53
179.90	3209.17
180.13	3338.19
180.35	2717.65
180.57	2838.48
180.79	3432.40
181.01	3284.94
181.23	2924.50
181.45	2918.36
181.67	3389.39
181.90	3336.14
182.12	2891.73
182.34	2713.56
182.56	3428.30
182.78	3370.96
183.00	2822.10
183.22	2861.01
183.44	2955.22
183.66	3958.72
183.89	2983.89
184.11	2863.06
184.33	3432.40
184.55	3528.65
184.77	2852.82
184.99	2897.88
185.21	3143.63
185.43	3891.14
185.65	2893.78
185.87	2807.77
186.10	3637.19
186.32	3794.89
186.54	3057.62
186.76	3016.66
186.98	3459.02
187.20	3205.07
187.42	2914.26
187.64	2807.77
187.86	3485.64
188.08	3487.69
188.30	2861.01
188.52	2910.16
188.75	3565.51
188.97	3538.89
189.19	2873.30
189.41	2721.75
189.63	3475.40
189.85	3143.63
190.07	2740.18
190.29	2715.61
190.51	3395.53
190.73	3108.82
190.95	3047.38
191.17	2830.29
191.39	2967.51
191.61	3155.92
191.84	2815.96
192.06	3000.27
192.28	3006.42
192.50	3911.62
192.72	3002.32
192.94	3006.42
193.16	3430.35
193.38	3295.18
193.60	2795.48
193.82	3045.33
194.04	3471.31
194.26	3379.15
194.48	2863.06
194.70	2918.36
194.92	3157.97
195.14	3512.27
195.36	2863.06
195.58	2897.88
195.80	3258.32
196.02	3063.76
196.24	2781.14
196.46	2865.11
196.69	3157.97
196.91	3807.17
197.13	3006.42
197.35	2942.93
197.57	3624.90
197.79	3418.06
198.01	2953.17
198.23	2893.78
198.45	3405.77
198.67	3059.67
198.89	2627.54
199.11	2922.45
199.33	3188.69
199.55	2863.06
199.77	2762.71
199.99	3053.52
200.21	3157.97
200.43	3225.55
200.65	2721.75
200.87	2762.71
201.09	3241.93
201.31	3155.92
201.53	2828.24
201.75	2969.55
201.97	3295.18
202.19	3256.27
202.41	2957.27
202.63	2965.46
202.85	3420.11
203.07	3350.48
203.29	2949.08
203.51	2764.76
203.73	3121.10
203.95	3885.00
204.17	2889.68
204.39	3020.75
204.61	3174.35
204.83	3121.10
205.05	3071.95
205.27	2936.79
205.49	3635.14
205.71	3252.17
205.93	2699.22
206.15	2723.80
206.37	3368.91
206.59	3266.51
206.81	2664.41
207.03	2844.63
207.25	3143.63
207.47	3420.11
207.69	2908.12
207.91	3090.38
208.13	3567.56
208.34	3162.06
208.56	2834.39
208.78	2920.40
209.00	3180.50
209.22	3243.98
209.44	2936.79
209.66	2770.90
209.88	3250.13
210.10	3155.92
210.32	2830.29
210.54	2891.73
210.76	3227.60
210.98	3540.94
211.20	2662.36
211.42	2992.08
211.64	3579.85
211.86	3291.09
212.08	2985.94
212.30	2926.55
212.52	3127.25
212.74	3413.96
212.96	2967.51
213.17	2887.64
213.39	3536.84
213.61	3692.49
213.83	2861.01
214.05	2736.09
214.27	3506.12
214.49	3020.75
214.71	2846.68
214.93	2953.17
215.15	3293.13
215.37	3522.51
215.59	2668.50
215.81	2951.12
216.03	3600.33
216.24	3344.33
216.46	2830.29
216.68	2914.26
216.90	3407.82
217.12	3422.16
217.34	2856.92
217.56	3086.29
217.78	3567.56
218.00	3426.25
218.22	2953.17
218.44	2912.21
218.66	3375.05
218.87	3633.10
219.09	2932.69
219.31	2922.45
219.53	3313.61
219.75	3151.82
219.97	2930.64
220.19	2867.16
220.41	3295.18
220.63	3612.62
220.85	2885.59
221.06	2887.64
221.28	3588.04
221.50	3442.64
221.72	2877.40
221.94	2824.15
222.16	3348.43
222.38	3532.75
222.60	2852.82
222.82	2932.69
223.03	3487.69
223.25	3053.52
223.47	2897.88
223.69	3063.76
223.91	3397.58
224.13	3327.95
224.35	2775.00
224.57	2959.31
224.78	3350.48
225.00	3102.67
225.22	3012.56
225.44	2787.29
225.66	3456.97
225.88	3192.78
226.10	2975.70
226.32	2887.64
226.53	3549.13
226.75	3147.73
226.97	2971.60
227.19	2871.25
227.41	3076.05
227.63	3186.64
227.85	2590.68
228.06	2963.41
228.28	3319.76
228.50	3454.92
228.72	2754.52
228.94	2838.48
229.16	2877.40
229.37	3071.95
229.59	2830.29
229.81	3196.88
230.03	3233.74
230.25	3063.76
230.47	2701.27
230.69	2844.63
230.90	3413.96
231.12	3190.74
231.34	3012.56
231.56	2914.26
231.78	3084.24
232.00	3278.80
232.21	2895.83
232.43	2942.93
232.65	2875.35
232.87	3370.96
233.09	2688.98
233.30	2797.53
233.52	3471.31
233.74	3258.32
233.96	2701.27
234.18	3063.76
234.40	3266.51
234.61	3729.35
234.83	2779.09
235.05	2869.20
235.27	3798.98
235.49	3454.92
235.70	2729.94
235.92	2922.45
236.14	3454.92
236.36	3829.70
236.58	2758.61
236.79	2910.16
237.01	3211.22
237.23	3246.03
237.45	3008.47
237.67	2926.55
237.88	3346.38
238.10	3729.35
238.32	2811.86
238.54	2770.90
238.76	3262.41
238.97	3076.05
239.19	2858.96
239.41	2901.97
239.63	3538.89
239.85	3186.64
240.06	2865.11
240.28	2838.48
240.50	3499.98
240.72	3325.90
240.93	2783.19
241.15	2955.22
241.37	3321.81
241.59	3618.76
241.81	2906.07
242.02	2955.22
242.24	3422.16
242.46	3368.91
242.68	2746.33
242.89	2815.96
243.11	3409.87
243.33	3239.89
243.55	2926.55
243.76	2926.55
243.98	3041.23
244.20	3192.78
244.42	2826.20
244.64	2844.63
244.85	3010.51
245.07	3106.77
245.29	2930.64
245.51	2901.97
245.72	3266.51
245.94	3473.36
246.16	2846.68
246.38	2899.92
246.59	3168.21
246.81	3049.43
247.03	2797.53
247.24	2697.17
247.46	3260.37
247.68	3385.29
247.90	2758.61
248.11	2828.24
248.33	3389.39
248.55	3309.52
248.77	2887.64
248.98	3039.19
249.20	3577.80
249.42	3278.80
249.64	2840.53
249.85	2828.24
250.07	3166.16
250.29	3407.82
250.50	2914.26
250.72	2781.14
250.94	3387.34
251.16	3712.97
251.37	2910.16
251.59	3030.99
251.81	3432.40
252.02	3637.19
252.24	2760.66
252.46	3035.09
252.68	3162.06
252.89	3168.21
253.11	2662.36
253.33	3012.56
253.54	3583.95
253.76	3123.15
253.98	2877.40
254.20	2895.83
254.41	2920.40
254.63	3188.69
254.85	2688.98
255.06	3069.91
255.28	3422.16
255.50	3213.26
255.71	2787.29
255.93	2709.46
256.15	3325.90
256.36	3418.06
256.58	2770.90
256.80	2779.09
257.02	3262.41
257.23	3180.50
257.45	2858.96
257.67	3037.14
257.88	3196.88
258.10	3327.95
258.32	2852.82
258.53	3008.47
258.75	3551.18
258.97	3213.26
259.18	2779.09
259.40	2805.72
259.62	3604.42
259.83	3614.66
260.05	2883.54
260.27	3813.32
260.48	3616.71
260.70	3065.81
260.92	2748.37
261.13	2822.10
261.35	3311.57
261.57	3401.68
261.78	2779.09
262.00	2822.10
262.22	3493.83
262.43	3123.15
262.65	2895.83
262.86	2824.15
263.08	3790.79
263.30	3309.52
263.51	2699.22
263.73	2811.86
263.95	3692.49
264.16	3121.10
264.38	2846.68
264.60	2805.72
264.81	3317.71
265.03	3516.36
265.25	3305.42
265.46	2748.37
265.68	3551.18
265.89	3399.63
266.11	2746.33
266.33	2746.33
266.54	3635.14
266.76	3389.39
266.98	2992.08
267.19	3065.81
267.41	3516.36
267.62	3252.17
267.84	2672.60
268.06	2987.99
268.27	3315.66
268.49	3565.51
268.70	2906.07
268.92	2863.06
269.14	3147.73
269.35	3053.52
269.57	2975.70
269.79	2944.98
270.00	3145.68
270.22	3672.01
270.43	2758.61
270.65	2729.94
270.87	3373.00
271.08	3456.97
271.30	2955.22
271.51	2811.86
271.73	3286.99
271.95	3487.69
272.16	2787.29
272.38	3129.30
272.59	3221.45
272.81	3416.01
273.02	2758.61
273.24	2897.88
273.46	3436.49
273.67	3133.39
273.89	2699.22
274.10	2809.81
274.32	3514.31
274.54	3338.19
274.75	3041.23
274.97	2955.22
275.18	3387.34
275.40	3444.68
275.61	2897.88
275.83	3053.52
276.05	3086.29
276.26	3223.50
276.48	2940.88
276.69	3002.32
276.91	3157.97
277.12	3555.27
277.34	3037.14
277.55	3125.20
277.77	3321.81
277.99	3117.01
278.20	3000.27
278.42	2881.49
278.63	3094.48
278.85	3016.66
279.06	2969.55
279.28	3100.62
279.49	3540.94
279.71	3418.06
279.93	2977.75
280.14	3102.67
280.36	3166.16
280.57	3526.60
280.79	3008.47
281.00	2926.55
281.22	3336.14
281.43	3434.44
281.65	2783.19
281.86	2852.82
282.08	3403.72
282.29	3657.67
282.51	2805.72
282.73	2869.20
282.94	2959.31
283.16	3362.76
283.37	3112.91
283.59	3028.95
283.80	3387.34
284.02	3286.99
284.23	2985.94
284.45	2963.41
284.66	3182.54
284.88	3143.63
285.09	2885.59
285.31	3094.48
285.52	3336.14
285.74	2934.74
285.95	3198.93
286.17	3049.43
286.38	3596.23
286.60	3123.15
286.81	2916.31
287.03	2996.18
287.24	3258.32
287.46	3448.78
287.67	3170.26
287.89	3229.65
288.10	3360.72
288.32	3286.99
288.53	3147.73
288.75	3057.62
288.96	3401.68
289.18	3188.69
289.39	2916.31
289.61	3010.51
289.82	3798.98
290.04	3710.92
290.25	2904.02
290.47	2979.79
290.68	3241.93
290.90	3524.55
291.11	2826.20
291.33	3170.26
291.54	3119.06
291.76	3160.02
291.97	3076.05
292.18	3057.62
292.40	3203.02
292.61	3155.92
292.83	3284.94
293.04	2975.70
293.26	3299.28
293.47	3209.17
293.69	2889.68
293.90	2865.11
294.12	3581.90
294.33	3215.31
294.55	3067.86
294.76	3168.21
294.97	3522.51
295.19	3674.06
295.40	2955.22
295.62	3057.62
295.83	3549.13
296.05	3215.31
296.26	3241.93
296.48	2975.70
296.69	3280.85
296.90	3198.93
297.12	3147.73
297.33	3155.92
297.55	3246.03
297.76	3366.86
297.98	3127.25
298.19	3250.13
298.41	3272.65
298.62	3074.00
298.83	3237.84
299.05	3092.43
299.26	3227.60
299.48	3121.10
299.69	3078.10
299.90	3065.81
300.12	3112.91
300.33	3426.25
300.55	2975.70
300.76	3000.27
300.98	3114.96
301.19	3364.81
301.40	2992.08
301.62	3037.14
301.83	3373.00
302.05	3258.32
302.26	2889.68
302.47	3074.00
302.69	3092.43
302.90	3395.53
303.12	2811.86
303.33	3094.48
303.54	3639.24
303.76	3180.50
303.97	2985.94
304.19	3207.12
304.40	3069.91
304.61	3422.16
304.83	3035.09
305.04	3110.86
305.26	3454.92
305.47	3098.58
305.68	2979.79
305.90	2893.78
306.11	3534.79
306.33	3258.32
306.54	2820.05
306.75	2959.31
306.97	2930.64
307.18	3082.19
307.39	3030.99
307.61	3123.15
307.82	3274.70
308.04	3377.10
308.25	2893.78
308.46	3168.21
308.68	3293.13
308.89	3252.17
309.10	3127.25
309.32	2922.45
309.53	3362.76
309.74	3364.81
309.96	2914.26
310.17	3143.63
310.39	3153.87
310.60	3364.81
310.81	3074.00
311.03	2885.59
311.24	3360.72
311.45	3198.93
311.67	3315.66
311.88	3084.24
312.09	3112.91
312.31	3114.96
312.52	2957.27
312.73	2916.31
312.95	3018.71
313.16	3043.28
313.37	3227.60
313.59	3172.30
313.80	3430.35
314.01	3547.08
314.23	3057.62
314.44	2955.22
314.65	3022.80
314.87	3053.52
315.08	3020.75
315.29	3002.32
315.51	3080.14
315.72	2951.12
315.93	2994.13
316.15	2963.41
316.36	3102.67
316.57	3286.99
316.79	2932.69
317.00	2867.16
317.21	3446.73
317.43	3119.06
317.64	3006.42
317.85	2967.51
318.07	3104.72
318.28	3229.65
318.49	3131.34
318.70	3186.64
318.92	3313.61
319.13	3385.29
319.34	3213.26
319.56	3010.51
319.77	3375.05
319.98	3354.57
320.20	3268.56
320.41	3211.22
320.62	3319.76
320.83	2955.22
321.05	3235.79
321.26	3076.05
321.47	3362.76
321.69	3508.17
321.90	2910.16
322.11	2934.74
322.32	3350.48
322.54	3504.07
322.75	3061.71
322.96	4009.92
323.18	2994.13
323.39	2846.68
323.60	2906.07
323.81	3106.77
324.03	3114.96
324.24	3237.84
324.45	3200.98
324.66	2971.60
324.88	3624.90
325.09	3702.73
325.30	2906.07
325.52	2916.31
325.73	3416.01
325.94	3131.34
326.15	2858.96
326.37	2926.55
326.58	3477.45
326.79	3573.71
327.00	2904.02
327.22	2942.93
327.43	3176.40
327.64	3117.01
327.85	3155.92
328.07	3014.61
328.28	3712.97
328.49	3205.07
328.70	2990.03
328.92	2969.55
329.13	3229.65
329.34	3346.38
329.55	3286.99
329.76	3104.72
329.98	3217.36
330.19	3555.27
330.40	3106.77
330.61	3133.39
330.83	3465.16
331.04	3143.63
331.25	3057.62
331.46	3065.81
331.68	3033.04
331.89	3469.26
332.10	2924.50
332.31	2852.82
332.52	3264.46
332.74	3575.75
332.95	2815.96
333.16	2983.89
333.37	3413.96
333.58	3186.64
333.80	3041.23
334.01	2807.77
334.22	3190.74
334.43	3182.54
334.64	2930.64
334.86	2920.40
335.07	3082.19
335.28	3557.32
335.49	2861.01
335.70	3145.68
335.92	3536.84
336.13	3696.58
336.34	3084.24
336.55	3024.85
336.76	3332.05
336.98	2887.64
337.19	3026.90
337.40	3125.20
337.61	3874.76
337.82	3180.50
338.04	3106.77
338.25	2848.72
338.46	3268.56
338.67	3137.49
338.88	2951.12
339.09	2912.21
339.31	3139.54
339.52	3078.10
339.73	2928.60
339.94	2942.93
340.15	3479.50
340.36	3221.45
340.58	3119.06
340.79	2967.51
341.00	3401.68
341.21	3014.61
341.42	3184.59
341.63	3035.09
341.85	3540.94
342.06	3262.41
342.27	2897.88
342.48	3172.30
342.69	3092.43
342.90	3385.29
343.12	3391.44
343.33	2957.27
343.54	3538.89
343.75	3639.24
343.96	3102.67
344.17	2912.21
344.38	3166.16
344.60	3139.54
344.81	2955.22
345.02	2924.50
345.23	3516.36
345.44	3819.46
345.65	3030.99
345.86	3114.96
346.07	3379.15
346.29	3125.20
346.50	3233.74
346.71	3100.62
346.92	3567.56
347.13	3796.93
347.34	3125.20
347.55	2897.88
347.76	3385.29
347.98	2928.60
348.19	3033.04
348.40	3162.06
348.61	3196.88
348.82	3549.13
349.03	3074.00
349.24	2838.48
349.45	3690.44
349.66	2877.40
349.88	2944.98
350.09	2854.87
350.30	3499.98
350.51	3557.32
350.72	3233.74
350.93	2918.36
351.14	3198.93
351.35	3381.20
351.56	3049.43
351.77	2975.70
351.99	3327.95
352.20	3532.75
352.41	3033.04
352.62	2828.24
352.83	3270.61
353.04	3295.18
353.25	3051.47
353.46	2996.18
353.67	3502.03
353.88	2910.16
354.09	2957.27
354.30	3057.62
354.52	3491.79
354.73	3293.13
354.94	3028.95
355.15	3000.27
355.36	3637.19
355.57	3137.49
355.78	2992.08
355.99	2987.99
356.20	3155.92
356.41	3602.38
356.62	3078.10
356.83	2985.94
357.04	3573.71
357.25	2951.12
357.46	2963.41
357.68	2922.45
357.89	3065.81
358.10	3313.61
358.31	2967.51
358.52	3006.42
358.73	3067.86
358.94	3063.76
359.15	3045.33
359.36	2977.75
359.57	3332.05
359.78	3248.08
359.99	3186.64
360.20	2904.02
360.41	3219.41
360.62	3436.49
360.83	3035.09
361.04	3055.57
361.25	3389.39
361.46	3567.56
361.67	3125.20
361.88	2996.18
362.09	3452.88
362.30	3252.17
362.51	2934.74
362.72	3076.05
362.93	3434.44
363.14	3344.33
363.35	3117.01
363.56	2879.44
363.78	3485.64
363.99	3377.10
364.20	3033.04
364.41	2992.08
364.62	3698.63
364.83	3330.00
365.04	2965.46
365.25	3092.43
365.46	3700.68
365.67	3141.58
365.88	3192.78
366.09	3006.42
366.30	3157.97
366.51	3321.81
366.72	2981.84
366.93	3030.99
367.14	3256.27
367.35	3559.37
367.56	2922.45
367.77	3043.28
367.98	3254.22
368.18	3336.14
368.39	3123.15
368.60	3035.09
368.81	3452.88
369.02	3405.77
369.23	3000.27
369.44	2836.44
369.65	3198.93
369.86	3491.79
370.07	3141.58
370.28	2963.41
370.49	3342.28
370.70	3293.13
370.91	2918.36
371.12	2858.96
371.33	3516.36
371.54	3162.06
371.75	3137.49
371.96	2756.57
372.17	3338.19
372.38	3248.08
372.59	2987.99
372.80	2981.84
373.01	3219.41
373.22	3319.76
373.43	3035.09
373.64	2914.26
373.85	3542.99
374.06	3528.65
374.26	3147.73
374.47	3117.01
374.68	3639.24
374.89	3299.28
375.10	2947.03
375.31	3051.47
375.52	3379.15
375.73	3327.95
375.94	2871.25
376.15	3074.00
376.36	3108.82
376.57	3188.69
376.78	3035.09
376.99	3043.28
377.20	3528.65
377.40	3176.40
377.61	3303.37
377.82	2942.93
378.03	3520.46
378.24	3356.62
378.45	3135.44
378.66	3086.29
378.87	2947.03
379.08	3082.19
379.29	3114.96
379.50	3157.97
379.71	3213.26
379.91	3418.06
380.12	2983.89
380.33	3172.30
380.54	3205.07
380.75	3278.80
380.96	3104.72
381.17	3055.57
381.38	3223.50
381.59	3282.89
381.80	3051.47
382.00	3190.74
382.21	3358.67
382.42	3530.70
382.63	3383.24
382.84	3182.54
383.05	3502.03
383.26	3674.06
383.47	3086.29
383.68	3024.85
383.88	3375.05
384.09	3346.38
384.30	3243.98
384.51	3114.96
384.72	3260.37
384.93	2985.94
385.14	3078.10
385.35	3299.28
385.55	3004.37
385.76	3491.79
385.97	3076.05
386.18	2863.06
386.39	3117.01
386.60	3172.30
386.81	2936.79
387.02	2953.17
387.22	3051.47
387.43	3254.22
387.64	3188.69
387.85	3278.80
388.06	3450.83
388.27	4356.03
388.48	7780.23
388.68	12078.92
388.89	15013.66
389.10	16252.68
389.31	16043.79
389.52	12799.80
389.73	11292.50
389.93	10360.67
390.14	9095.03
390.35	8472.45
390.56	7899.02
390.77	6635.42
390.98	4923.32
391.18	4206.53
391.39	3921.86
391.60	3424.20
391.81	3321.81
392.02	3069.91
392.23	3743.69
392.43	3248.08
392.64	3119.06
392.85	3129.30
393.06	3637.19
393.27	3225.55
393.47	3059.67
393.68	3043.28
393.89	3186.64
394.10	3538.89
394.31	3067.86
394.52	2990.03
394.72	3114.96
394.93	3604.42
395.14	2875.35
395.35	3182.54
395.56	3071.95
395.76	3139.54
395.97	3030.99
396.18	3131.34
396.39	3256.27
396.60	3909.57
396.80	3467.21
397.01	3330.00
397.22	3436.49
397.43	3524.55
397.64	3024.85
397.84	3117.01
398.05	3721.16
398.26	3223.50
398.47	3180.50
398.67	3286.99
398.88	3207.12
399.09	3442.64
399.30	3033.04
399.51	3155.92
399.71	3024.85
399.92	3196.88
400.13	3133.39
400.34	3020.75
400.54	3299.28
400.75	3532.75
400.96	3239.89
401.17	3360.72
401.37	3375.05
401.58	3233.74
401.79	3069.91
402.00	3108.82
402.21	3850.18
402.41	3489.74
402.62	3286.99
402.83	3497.93
403.04	3753.93
403.24	4073.41
403.45	3172.30
403.66	3344.33
403.87	3502.03
404.07	3622.86
404.28	3286.99
404.49	3393.48
404.70	3356.62
404.90	3299.28
405.11	2994.13
405.32	3155.92
405.52	3192.78
405.73	3190.74
405.94	2992.08
406.15	3114.96
406.35	3411.92
406.56	3454.92
406.77	3137.49
406.98	2969.55
407.18	3147.73
407.39	3598.28
407.60	3063.76
407.80	3065.81
408.01	3225.55
408.22	3461.07
408.43	3010.51
408.63	3137.49
408.84	3495.88
409.05	3516.36
409.25	2953.17
409.46	3041.23
409.67	3151.82
409.88	3170.26
410.08	3033.04
410.29	3004.37
410.50	3399.63
410.70	3260.37
410.91	2992.08
411.12	3155.92
411.32	3246.03
411.53	3090.38
411.74	3117.01
411.95	3100.62
412.15	3278.80
412.36	3424.20
412.57	3227.60
412.77	3223.50
412.98	3280.85
413.19	3205.07
413.39	3117.01
413.60	3114.96
413.81	3551.18
414.01	3010.51
414.22	3065.81
414.43	3252.17
414.63	3192.78
414.84	3481.55
415.05	3110.86
415.25	2889.68
415.46	3467.21
415.67	3127.25
415.87	3035.09
416.08	3020.75
416.29	3215.31
416.49	3411.92
416.70	3098.58
416.91	3002.32
417.11	3237.84
417.32	3532.75
417.53	3151.82
417.73	3188.69
417.94	3293.13
418.15	3327.95
418.35	3092.43
418.56	3121.10
418.77	3712.97
418.97	3319.76
419.18	3217.36
419.38	2742.23
419.59	3330.00
419.80	3512.27
420.00	3002.32
420.21	3096.53
420.42	3489.74
420.62	3305.42
420.83	3045.33
421.04	3020.75
421.24	3291.09
421.45	3403.72
421.65	3065.81
421.86	3106.77
422.07	3475.40
422.27	3450.83
422.48	2973.65
422.69	2901.97
422.89	3321.81
423.10	3209.17
423.30	3069.91
423.51	3043.28
423.72	3377.10
423.92	3387.34
424.13	2883.54
424.33	3100.62
424.54	3536.84
424.75	3246.03
424.95	3278.80
425.16	3041.23
425.36	3205.07
425.57	3477.45
425.78	3205.07
425.98	3074.00
426.19	3188.69
426.39	3104.72
426.60	3143.63
426.81	3190.74
427.01	3383.24
427.22	3082.19
427.42	2861.01
427.63	2940.88
427.83	3508.17
428.04	3602.38
428.25	3168.21
428.45	3200.98
428.66	3436.49
428.86	3198.93
429.07	3080.14
429.28	3078.10
429.48	3235.79
429.69	3102.67
429.89	3082.19
430.10	2879.44
430.30	3418.06
430.51	3416.01
430.71	2926.55
430.92	3174.35
431.13	3164.11
431.33	3389.39
431.54	3102.67
431.74	3280.85
431.95	3620.81
432.15	3047.38
432.36	3067.86
432.56	3084.24
432.77	3708.87
432.98	3618.76
433.18	3098.58
433.39	2987.99
433.59	3248.08
433.80	3624.90
434.00	3225.55
434.21	3114.96
434.41	3172.30
434.62	3778.50
434.82	2920.40
435.03	2983.89
435.23	3321.81
435.44	2922.45
435.64	2961.36
435.85	3141.58
436.06	3485.64
436.26	3487.69
436.47	3033.04
436.67	2996.18
436.88	3299.28
437.08	3483.59
437.29	3164.11
437.49	3164.11
437.70	3563.47
437.90	3162.06
438.11	3307.47
438.31	3104.72
438.52	3502.03
438.72	3434.44
438.93	3340.24
439.13	3166.16
439.34	3422.16
439.54	3217.36
439.75	3141.58
439.95	3164.11
440.16	3170.26
440.36	3241.93
440.57	2998.23
440.77	3020.75
440.98	3250.13
441.18	3338.19
441.39	2947.03
441.59	2926.55
441.80	3760.07
442.00	3305.42
442.21	3207.12
442.41	2908.12
442.62	3532.75
442.82	3139.54
443.02	3045.33
443.23	3119.06
443.43	3184.59
443.64	3583.95
443.84	2953.17
444.05	3229.65
444.25	3233.74
444.46	3272.65
444.66	3022.80
444.87	3317.71
445.07	3049.43
445.28	3225.55
445.48	3147.73
445.69	3172.30
445.89	3737.54
446.09	3209.17
446.30	3319.76
446.50	3499.98
446.71	5033.91
446.91	6311.84
447.12	7217.04
447.32	7573.39
447.53	7516.05
447.73	6438.81
447.93	5492.65
448.14	5212.08
448.34	5429.17
448.55	4556.73
448.75	4542.39
448.96	4140.99
449.16	4014.02
449.36	3827.65
449.57	3428.30
449.77	3182.54
449.98	3280.85
450.18	3377.10
450.39	3037.14
450.59	3203.02
450.79	3270.61
451.00	3221.45
451.20	3297.23
451.41	3094.48
451.61	3383.24
451.81	3213.26
452.02	2918.36
452.22	3084.24
452.43	3168.21
452.63	3049.43
452.84	3069.91
453.04	2912.21
453.24	3344.33
453.45	3084.24
453.65	3071.95
453.86	3106.77
454.06	3397.58
454.26	3270.61
454.47	2985.94
454.67	3311.57
454.87	3336.14
455.08	3270.61
455.28	3137.49
455.49	3241.93
455.69	3127.25
455.89	3721.16
456.10	3141.58
456.30	3057.62
456.51	3389.39
456.71	3246.03
456.91	3182.54
457.12	3117.01
457.32	3348.43
457.52	3033.04
457.73	3319.76
457.93	3182.54
458.14	3155.92
458.34	2840.53
458.54	3074.00
458.75	3061.71
458.95	3504.07
459.15	3409.87
459.36	3094.48
459.56	2983.89
459.76	3704.78
459.97	3336.14
460.17	3024.85
460.37	3088.34
460.58	3256.27
460.78	3469.26
460.99	3080.14
461.19	3125.20
461.39	3094.48
461.60	3147.73
461.80	3125.20
462.00	2985.94
462.21	3239.89
462.41	3114.96
462.61	2848.72
462.82	2881.49
463.02	3356.62
463.22	3295.18
463.43	3131.34
463.63	2934.74
463.83	3581.90
464.04	3413.96
464.24	3102.67
464.44	3108.82
464.64	3373.00
464.85	3403.72
465.05	3117.01
465.25	2918.36
465.46	3131.34
465.66	3434.44
465.86	3127.25
466.07	2987.99
466.27	3286.99
466.47	2994.13
466.68	2914.26
466.88	3131.34
467.08	3391.44
467.29	3483.59
467.49	2975.70
467.69	3252.17
467.89	3344.33
468.10	3219.41
468.30	3084.24
468.50	3164.11
468.71	3442.64
468.91	2969.55
469.11	3266.51
469.31	3119.06
469.52	3100.62
469.72	3614.66
469.92	3330.00
470.13	3033.04
470.33	3315.66
470.53	3278.80
470.73	3452.88
470.94	3839.94
471.14	4165.57
471.34	4677.56
471.54	4302.78
471.75	4022.21
471.95	3844.04
472.15	3723.21
472.36	3737.54
472.56	3461.07
472.76	3913.67
472.96	3616.71
473.17	3346.38
473.37	3243.98
473.57	3278.80
473.77	3379.15
473.98	3217.36
474.18	2938.84
474.38	4011.97
474.58	3215.31
474.79	2955.22
474.99	3243.98
475.19	3446.73
475.39	3114.96
475.60	3194.83
475.80	2992.08
476.00	3307.47
476.20	3260.37
476.41	3200.98
476.61	3160.02
476.81	3649.48
477.01	3143.63
477.21	3315.66
477.42	3170.26
477.62	3125.20
477.82	3491.79
478.02	3049.43
478.23	3078.10
478.43	3080.14
478.63	3157.97
478.83	3131.34
479.03	3061.71
479.24	3549.13
479.44	3688.39
479.64	3065.81
479.84	2908.12
480.04	3196.88
480.25	3446.73
480.45	2967.51
480.65	3078.10
480.85	3639.24
481.06	3198.93
481.26	3172.30
481.46	3000.27
481.66	3520.46
481.86	3082.19
482.06	3248.08
482.27	3018.71
482.47	3174.35
482.67	3295.18
482.87	3147.73
483.07	3121.10
483.28	3260.37
483.48	3067.86
483.68	3049.43
483.88	2971.60
484.08	2867.16
484.29	3127.25
484.49	3059.67
484.69	2887.64
484.89	3569.61
485.09	3510.22
485.29	3094.48
485.50	3151.82
485.70	3203.02
485.90	3608.52
486.10	3164.11
486.30	2990.03
486.50	3551.18
486.71	3358.67
486.91	3117.01
487.11	3123.15
487.31	3028.95
487.51	3319.76
487.71	3110.86
487.91	2953.17
488.12	3041.23
488.32	2887.64
488.52	3049.43
488.72	2748.37
488.92	3266.51
489.12	3504.07
489.32	3176.40
489.53	3084.24
489.73	3053.52
489.93	3710.92
490.13	3112.91
490.33	2889.68
490.53	3330.00
490.73	3481.55
490.94	2924.50
491.14	3143.63
491.34	3444.68
491.54	3346.38
491.74	4011.97
491.94	4550.59
492.14	5242.80
492.34	5171.12
492.54	4820.92
492.75	4065.22
492.95	4380.61
493.15	4124.61
493.35	3852.23
493.55	3739.59
493.75	3776.45
493.95	3899.33
494.15	3327.95
494.35	3176.40
494.56	3268.56
494.76	3182.54
494.96	3217.36
495.16	2910.16
495.36	3352.52
495.56	3332.05
495.76	3131.34
495.96	3121.10
496.16	3137.49
496.36	3686.34
496.56	3037.14
496.77	3106.77
496.97	3260.37
497.17	3518.41
497.37	2942.93
497.57	3190.74
497.77	3313.61
497.97	3102.67
498.17	3092.43
498.37	3063.76
498.57	3346.38
498.77	3123.15
498.97	3205.07
499.17	3475.40
499.38	3217.36
499.58	3336.14
499.78	3209.17
499.98	3205.07
500.18	3143.63
500.38	3135.44
500.58	3338.19
500.78	3686.34
500.98	6211.49
501.18	8146.82
501.38	9736.04
501.58	10962.78
501.78	10766.17
501.98	9107.32
502.18	7573.39
502.38	6547.36
502.58	6496.16
502.78	5687.21
502.98	5369.77
503.18	5089.20
503.38	4995.00
503.59	4181.95
503.79	4054.98
503.99	3719.11
504.19	3925.96
504.39	3958.72
504.59	3715.02
504.79	3629.00
504.99	4024.26
505.19	3633.10
505.39	3344.33
505.59	3456.97
505.79	3749.83
505.99	3573.71
506.19	3176.40
506.39	3336.14
506.59	3139.54
506.79	3235.79
506.99	3284.94
507.19	2992.08
507.39	3239.89
507.59	3012.56
507.79	3074.00
507.99	3037.14
508.19	3364.81
508.39	3172.30
508.59	3043.28
508.79	3172.30
508.99	3782.60
509.19	3168.21
509.39	3184.59
509.59	3069.91
509.79	3172.30
509.99	3413.96
510.19	3254.22
510.39	3164.11
510.59	3303.37
510.79	3143.63
510.99	2904.02
511.19	3055.57
511.39	3618.76
511.59	3510.22
511.79	3178.45
511.99	3137.49
512.19	3596.23
512.38	3254.22
512.58	3016.66
512.78	2975.70
512.98	3499.98
513.18	3604.42
513.38	3065.81
513.58	3155.92
513.78	3284.94
513.98	3239.89
514.18	3045.33
514.38	3082.19
514.58	3368.91
514.78	3131.34
514.98	3004.37
515.18	3043.28
515.38	3030.99
515.58	3688.39
515.78	3071.95
515.98	3114.96
516.18	3452.88
516.38	3266.51
516.57	2973.65
516.77	3035.09
516.97	3473.36
517.17	3164.11
517.37	2930.64
517.57	3104.72
517.77	3373.00
517.97	3100.62
518.17	3076.05
518.37	3010.51
518.57	3172.30
518.77	3196.88
518.97	3057.62
519.16	3098.58
519.36	3508.17
519.56	3055.57
519.76	2983.89
519.96	3110.86
520.16	3555.27
520.36	3039.19
520.56	3229.65
520.76	2930.64
520.96	3225.55
521.16	3483.59
521.35	3211.22
521.55	3166.16
521.75	3336.14
521.95	3147.73
522.15	3039.19
522.35	2983.89
522.55	3096.53
522.75	3516.36
522.95	2957.27
523.14	2914.26
523.34	3280.85
523.54	3094.48
523.74	3211.22
523.94	3117.01
524.14	2959.31
524.34	3407.82
524.54	3313.61
524.73	3074.00
524.93	3436.49
525.13	3332.05
525.33	2932.69
525.53	3295.18
525.73	3450.83
525.93	3334.09
526.13	3090.38
526.32	2979.79
526.52	3438.54
526.72	3418.06
526.92	3037.14
527.12	2977.75
527.32	3067.86
527.52	3258.32
527.71	3172.30
527.91	3117.01
528.11	3160.02
528.31	3340.24
528.51	3028.95
528.71	3186.64
528.90	3420.11
529.10	3594.19
529.30	3088.34
529.50	2801.62
529.70	3330.00
529.90	3178.45
530.09	3100.62
530.29	2901.97
530.49	3108.82
530.69	3858.37
530.89	3170.26
531.09	3162.06
531.28	3188.69
531.48	3450.83
531.68	3053.52
531.88	3049.43
532.08	3497.93
532.28	3215.31
532.47	3209.17
532.67	3174.35
532.87	3311.57
533.07	3149.78
533.27	3137.49
533.46	3147.73
533.66	3289.04
533.86	3200.98
534.06	3151.82
534.26	3065.81
534.45	3209.17
534.65	3377.10
534.85	3172.30
535.05	2996.18
535.25	3473.36
535.44	2922.45
535.64	3157.97
535.84	3119.06
536.04	3145.68
536.24	3200.98
536.43	3010.51
536.63	3088.34
536.83	3327.95
537.03	3178.45
537.22	2928.60
537.42	2863.06
537.62	3313.61
537.82	3129.30
538.02	3213.26
538.21	3164.11
538.41	3874.76
538.61	3336.14
538.81	3139.54
539.00	3188.69
539.20	3026.90
539.40	3217.36
539.60	3008.47
539.79	3198.93
539.99	3295.18
540.19	3192.78
540.39	2959.31
540.58	3133.39
540.78	3493.83
540.98	3297.23
541.18	3391.44
541.37	3149.78
541.57	3280.85
541.77	3362.76
541.97	2967.51
542.16	2863.06
542.36	3200.98
542.56	3092.43
542.76	3282.89
542.95	3129.30
543.15	3393.48
543.35	3459.02
543.54	3076.05
543.74	2973.65
543.94	3524.55
544.14	3196.88
544.33	3194.83
544.53	3129.30
544.73	3209.17
544.93	3178.45
545.12	3096.53
545.32	3067.86
545.52	3196.88
545.71	3037.14
545.91	3035.09
546.11	3002.32
546.30	3014.61
546.50	3196.88
546.70	3141.58
546.90	3127.25
547.09	2908.12
547.29	3200.98
547.49	3239.89
547.68	3065.81
547.88	3131.34
548.08	3434.44
548.27	3295.18
548.47	3041.23
548.67	3125.20
548.87	3336.14
549.06	3033.04
549.26	3010.51
549.46	3278.80
549.65	3174.35
549.85	3065.81
550.05	3086.29
550.24	3033.04
550.44	3217.36
550.64	3160.02
550.83	3133.39
551.03	3459.02
551.23	3450.83
551.42	3233.74
551.62	3147.73
551.82	3262.41
552.01	3239.89
552.21	3370.96
552.41	3100.62
552.60	3481.55
552.80	3299.28
553.00	3012.56
553.19	3098.58
553.39	3538.89
553.59	3028.95
553.78	3178.45
553.98	3002.32
554.17	2994.13
554.37	3403.72
554.57	3117.01
554.76	2934.74
554.96	3137.49
555.16	3344.33
555.35	3133.39
555.55	3284.94
555.75	3321.81
555.94	3381.20
556.14	2904.02
556.33	3059.67
556.53	3264.46
556.73	3223.50
556.92	3047.38
557.12	2996.18
557.32	3770.31
557.51	3624.90
557.71	3123.15
557.90	3250.13
558.10	3526.60
558.30	3139.54
558.49	3098.58
558.69	3026.90
558.88	3352.52
559.08	3336.14
559.28	3135.44
559.47	3074.00
559.67	3364.81
559.86	3663.82
560.06	2961.36
560.26	3069.91
560.45	3442.64
560.65	3190.74
560.84	3395.53
561.04	2975.70
561.24	3393.48
561.43	2975.70
561.63	3256.27
561.82	3203.02
562.02	3401.68
562.22	3012.56
562.41	3033.04
562.61	3061.71
562.80	3076.05
563.00	3698.63
563.19	3166.16
563.39	3164.11
563.59	3356.62
563.78	2996.18
563.98	2922.45
564.17	2994.13
564.37	2959.31
564.56	3219.41
564.76	2967.51
564.96	3125.20
565.15	3252.17
565.35	3784.65
565.54	3059.67
565.74	3147.73
565.93	3426.25
566.13	3235.79
566.32	3090.38
566.52	3104.72
566.71	3334.09
566.91	3510.22
567.11	3145.68
567.30	3002.32
567.50	3381.20
567.69	3313.61
567.89	2998.23
568.08	2949.08
568.28	3370.96
568.47	3028.95
568.67	3006.42
568.86	2983.89
569.06	3481.55
569.25	3133.39
569.45	2932.69
569.64	3108.82
569.84	3332.05
570.04	3344.33
570.23	3114.96
570.43	3084.24
570.62	3311.57
570.82	3610.57
571.01	2951.12
571.21	3008.47
571.40	3153.87
571.60	3438.54
571.79	3139.54
571.99	3051.47
572.18	3133.39
572.38	3352.52
572.57	3096.53
572.77	3196.88
572.96	3774.41
573.16	3323.85
573.35	3043.28
573.55	3225.55
573.74	3299.28
573.94	3217.36
574.13	3065.81
574.33	3325.90
574.52	3487.69
574.71	3301.33
574.91	3051.47
575.10	3000.27
575.30	3256.27
575.49	3067.86
575.69	3035.09
575.88	3020.75
576.08	3219.41
576.27	3489.74
576.47	2949.08
576.66	3250.13
576.86	3545.03
577.05	3219.41
577.25	3190.74
577.44	3291.09
577.64	3264.46
577.83	3469.26
578.02	3086.29
578.22	3272.65
578.41	3784.65
578.61	3227.60
578.80	2998.23
579.00	3157.97
579.19	3229.65
579.39	3338.19
579.58	3123.15
579.77	3084.24
579.97	3585.99
580.16	3512.27
580.36	3246.03
580.55	3090.38
580.75	3352.52
580.94	3309.52
581.13	3293.13
581.33	3368.91
581.52	3264.46
581.72	3643.34
581.91	3141.58
582.11	3127.25
582.30	3422.16
582.49	3368.91
582.69	3407.82
582.88	3092.43
583.08	3342.28
583.27	3405.77
583.47	3182.54
583.66	3092.43
583.85	3065.81
584.05	3184.59
584.24	3174.35
584.44	3164.11
584.63	3426.25
584.82	3481.55
585.02	3311.57
585.21	3231.69
585.41	3430.35
585.60	3330.00
585.79	3368.91
585.99	3405.77
586.18	3293.13
586.37	4317.12
586.57	6289.31
586.76	17628.92
586.96	37459.40
587.15	50851.06
587.34	59272.31
587.54	63255.61
587.73	56247.46
587.93	41147.79
588.12	31106.60
588.31	25566.84
588.51	22460.07
588.70	21169.85
588.89	18398.95
589.09	15875.85
589.28	13653.81
589.47	10780.51
589.67	8212.35
589.86	6498.20
590.06	5164.98
590.25	4421.56
590.44	3870.66
590.64	3401.68
590.83	3608.52
591.02	3538.89
591.22	3129.30
591.41	3182.54
591.60	3233.74
591.80	3901.38
591.99	2920.40
592.18	3045.33
592.38	3483.59
592.57	3209.17
592.76	2990.03
592.96	3147.73
593.15	3270.61
593.34	3491.79
593.54	3092.43
593.73	3188.69
593.92	3354.57
594.12	3418.06
594.31	3170.26
594.50	3270.61
594.70	3377.10
594.89	3827.65
595.08	2959.31
595.28	3262.41
595.47	3928.00
595.66	3450.83
595.86	3061.71
596.05	2926.55
596.24	3229.65
596.43	3622.86
596.63	3168.21
596.82	3225.55
597.01	3399.63
597.21	3657.67
597.40	3125.20
597.59	3149.78
597.79	3246.03
597.98	3401.68
598.17	3147.73
598.36	3049.43
598.56	3477.45
598.75	3205.07
598.94	3196.88
599.14	3262.41
599.33	3233.74
599.52	3395.53
599.71	3106.77
599.91	3117.01
600.10	3413.96
600.29	3299.28
600.48	3215.31
600.68	3176.40
600.87	3270.61
601.06	3166.16
601.26	3180.50
601.45	3166.16
601.64	3233.74
601.83	3542.99
602.03	2957.27
602.22	2992.08
602.41	3528.65
602.60	3766.21
602.80	3229.65
602.99	3223.50
603.18	3166.16
603.37	3352.52
603.57	2979.79
603.76	3041.23
603.95	3573.71
604.14	3184.59
604.34	2947.03
604.53	3053.52
604.72	3278.80
604.91	3420.11
605.10	3037.14
605.30	2975.70
605.49	3749.83
605.68	3491.79
605.87	3114.96
606.07	3045.33
606.26	3274.70
606.45	3354.57
606.64	3045.33
606.84	3010.51
607.03	3246.03
607.22	3450.83
607.41	3049.43
607.60	3086.29
607.80	3434.44
607.99	3262.41
608.18	3147.73
608.37	3067.86
608.56	3186.64
608.76	3524.55
608.95	3286.99
609.14	3020.75
609.33	3473.36
609.52	3598.28
609.72	3229.65
609.91	3207.12
610.10	3317.71
610.29	3631.05
610.48	3270.61
610.68	3229.65
610.87	3280.85
611.06	3450.83
611.25	3119.06
611.44	3256.27
611.63	3184.59
611.83	3612.62
612.02	2891.73
612.21	3149.78
612.40	2981.84
612.59	3016.66
612.79	3039.19
612.98	3176.40
613.17	3579.85
613.36	3254.22
613.55	3246.03
613.74	3137.49
613.93	3344.33
614.13	3342.28
614.32	3317.71
614.51	3205.07
614.70	3200.98
614.89	3182.54
615.08	3262.41
615.28	3481.55
615.47	3137.49
615.66	3418.06
615.85	3139.54
616.04	3143.63
616.23	3278.80
616.42	3368.91
616.62	3114.96
616.81	3141.58
617.00	3192.78
617.19	3413.96
617.38	3123.15
617.57	3252.17
617.76	3416.01
617.95	3422.16
618.15	3198.93
618.34	3305.42
618.53	3059.67
618.72	3452.88
618.91	3180.50
619.10	3174.35
619.29	3284.94
619.48	3266.51
619.68	2979.79
619.87	3028.95
620.06	2998.23
620.25	3330.00
620.44	3035.09
620.63	3018.71
620.82	3346.38
621.01	3256.27
621.20	3192.78
621.39	3178.45
621.59	3373.00
621.78	3299.28
621.97	3172.30
622.16	3176.40
622.35	3373.00
622.54	3469.26
622.73	3149.78
622.92	2832.34
623.11	3487.69
623.30	3162.06
623.49	3164.11
623.68	3008.47
623.88	3522.51
624.07	3114.96
624.26	3018.71
624.45	3024.85
624.64	3217.36
624.83	3354.57
625.02	3051.47
625.21	3055.57
625.40	3334.09
625.59	3545.03
625.78	3131.34
625.97	3198.93
626.16	3657.67
626.35	3446.73
626.54	3096.53
626.74	3272.65
626.93	3237.84
627.12	3235.79
627.31	3160.02
627.50	3129.30
627.69	3493.83
627.88	3119.06
628.07	3086.29
628.26	2777.05
628.45	3108.82
628.64	3065.81
628.83	3028.95
629.02	2838.48
629.21	3411.92
629.40	3307.47
629.59	2967.51
629.78	3080.14
629.97	3332.05
630.16	3258.32
630.35	3088.34
630.54	3182.54
630.73	3110.86
630.92	3286.99
631.11	3024.85
631.30	3160.02
631.49	3452.88
631.68	3186.64
631.87	3125.20
632.06	3020.75
632.25	3688.39
632.44	3278.80
632.63	3135.44
632.82	3164.11
633.01	3143.63
633.20	3432.40
633.39	3143.63
633.58	2863.06
633.77	3418.06
633.96	3325.90
634.15	3155.92
634.34	3106.77
634.53	3373.00
634.72	3155.92
634.91	2914.26
635.10	3100.62
635.29	3459.02
635.48	3276.75
635.67	3010.51
635.86	2926.55
636.05	3487.69
636.24	3190.74
636.43	2979.79
636.62	3160.02
636.81	2777.05
637.00	3274.70
637.19	3008.47
637.38	3049.43
637.57	3196.88
637.76	3330.00
637.95	3246.03
638.14	3188.69
638.33	3289.04
638.52	3248.08
638.71	3020.75
638.89	3008.47
639.08	3925.96
639.27	3491.79
639.46	3362.76
639.65	3633.10
639.84	3934.15
640.03	4011.97
640.22	3598.28
640.41	3516.36
640.60	3438.54
640.79	3499.98
640.98	3293.13
641.17	3373.00
641.36	3583.95
641.55	3495.88
641.74	3051.47
641.92	3016.66
642.11	3098.58
642.30	3235.79
642.49	2983.89
642.68	3069.91
642.87	3315.66
643.06	3338.19
643.25	2934.74
643.44	2955.22
643.63	3323.85
643.82	3393.48
644.00	2955.22
644.19	3082.19
644.38	3069.91
644.57	3373.00
644.76	3086.29
644.95	3139.54
645.14	3284.94
645.33	3215.31
645.52	3092.43
645.71	2979.79
645.89	3010.51
646.08	3237.84
646.27	3092.43
646.46	3313.61
646.65	2924.50
646.84	3286.99
647.03	2981.84
647.22	3221.45
647.40	3360.72
647.59	3170.26
647.78	2920.40
647.97	3061.71
648.16	3213.26
648.35	3581.90
648.54	3336.14
648.73	3078.10
648.91	3393.48
649.10	3332.05
649.29	2942.93
649.48	3057.62
649.67	3391.44
649.86	3319.76
650.05	3104.72
650.23	3323.85
650.42	3172.30
650.61	3557.32
650.80	3325.90
650.99	3270.61
651.18	3493.83
651.36	3479.50
651.55	2992.08
651.74	3231.69
651.93	3151.82
652.12	3215.31
652.31	3069.91
652.49	3106.77
652.68	3129.30
652.87	3504.07
653.06	3258.32
653.25	3383.24
653.44	3262.41
653.62	3567.56
653.81	3123.15
654.00	3127.25
654.19	3405.77
654.38	3827.65
654.56	3096.53
654.75	2969.55
654.94	3524.55
655.13	3282.89
655.32	3030.99
655.51	3127.25
655.69	3153.87
655.88	3446.73
656.07	2914.26
656.26	3106.77
656.45	3033.04
656.63	3338.19
656.82	3129.30
657.01	3403.72
657.20	3047.38
657.38	3612.62
657.57	3053.52
657.76	2889.68
657.95	3420.11
658.14	3149.78
658.32	3200.98
658.51	2930.64
658.70	3385.29
658.89	3297.23
659.08	3104.72
659.26	3334.09
659.45	3086.29
659.64	3389.39
659.83	3004.37
660.01	3428.30
660.20	3350.48
660.39	3524.55
660.58	2818.00
660.76	3147.73
660.95	3008.47
661.14	3237.84
661.33	2940.88
661.51	3037.14
661.70	3155.92
661.89	3389.39
662.08	3151.82
662.26	2918.36
662.45	3092.43
662.64	3610.57
662.83	3133.39
663.01	2881.49
663.20	3139.54
663.39	3516.36
663.58	3186.64
663.76	3037.14
663.95	3401.68
664.14	3123.15
664.32	3131.34
664.51	2996.18
664.70	2901.97
664.89	3297.23
665.07	2922.45
665.26	3209.17
665.45	3012.56
665.64	3368.91
665.82	3082.19
666.01	3270.61
666.20	3135.44
666.38	3467.21
666.57	3452.88
666.76	5590.95
666.95	12812.09
667.13	20434.63
667.32	24641.16
667.51	27706.97
667.69	28829.26
667.88	24200.85
668.07	17436.41
668.25	14733.09
668.44	12756.80
668.63	11143.00
668.81	9695.08
669.00	8462.21
669.19	7563.15
669.38	6746.01
669.56	5722.02
669.75	4915.12
669.94	4423.61
670.12	3854.28
670.31	3444.68
670.50	3393.48
670.68	3489.74
670.87	3344.33
671.06	3123.15
671.24	3217.36
671.43	3657.67
671.62	3272.65
671.80	3160.02
671.99	3182.54
672.18	3293.13
672.36	3434.44
672.55	3241.93
672.74	3133.39
672.92	3241.93
673.11	3377.10
673.29	2912.21
673.48	3254.22
673.67	3184.59
673.85	3450.83
674.04	3084.24
674.23	3157.97
674.41	3637.19
674.60	3008.47
674.79	2805.72
674.97	2969.55
675.16	3401.68
675.34	3499.98
675.53	3026.90
675.72	3108.82
675.90	3653.58
676.09	3153.87
676.28	3155.92
676.46	2869.20
676.65	3424.20
676.83	3069.91
677.02	3108.82
677.21	3147.73
677.39	3434.44
677.58	3084.24
677.77	2969.55
677.95	2973.65
678.14	3221.45
678.32	3231.69
678.51	3069.91
678.70	3422.16
678.88	3266.51
679.07	3422.16
679.25	3078.10
679.44	3078.10
679.63	3055.57
679.81	3336.14
680.00	3295.18
680.18	3196.88
680.37	3626.95
680.55	3233.74
680.74	2904.02
680.93	2772.95
681.11	3354.57
681.30	3246.03
681.48	3067.86
681.67	3125.20
681.85	3301.33
682.04	3067.86
682.23	3229.65
682.41	3164.11
682.60	3246.03
682.78	3217.36
682.97	2932.69
683.15	3133.39
683.34	3317.71
683.53	3575.75
683.71	2983.89
683.90	3119.06
684.08	3614.66
684.27	3248.08
684.45	3139.54
684.64	3229.65
684.82	3307.47
685.01	3438.54
685.19	3055.57
685.38	3364.81
685.57	3246.03
685.75	3186.64
685.94	3059.67
686.12	3098.58
686.31	3155.92
686.49	3608.52
686.68	2920.40
686.86	3082.19
687.05	3260.37
687.23	3583.95
687.42	3067.86
687.60	2963.41
687.79	3438.54
687.97	3614.66
688.16	3276.75
688.34	3278.80
688.53	2983.89
688.71	3344.33
688.90	3327.95
689.08	3145.68
689.27	2967.51
689.45	3452.88
689.64	3196.88
689.82	3145.68
690.01	3362.76
690.19	3342.28
690.38	3125.20
690.56	3198.93
690.75	3088.34
690.93	3270.61
691.12	3080.14
691.30	3123.15
691.49	3219.41
691.67	3274.70
691.86	3444.68
692.04	3067.86
692.23	3207.12
692.41	3354.57
692.60	3442.64
692.78	3340.24
692.97	3311.57
693.15	3397.58
693.34	3213.26
693.52	3293.13
693.71	3239.89
693.89	3160.02
694.08	2899.92
694.26	3164.11
694.44	3413.96
694.63	3356.62
694.81	3016.66
695.00	3045.33
695.18	3475.40
695.37	3772.36
695.55	3164.11
695.74	3131.34
695.92	3086.29
696.10	3520.46
696.29	2947.03
696.47	3069.91
696.66	3028.95
696.84	3024.85
697.03	3200.98
697.21	3422.16
697.40	4673.46
697.58	3456.97
697.76	3026.90
697.95	3100.62
698.13	3006.42
698.32	3178.45
698.50	3045.33
698.68	3104.72
698.87	3317.71
699.05	3645.38
699.24	3057.62
699.42	3125.20
699.61	3297.23
699.79	3274.70
699.97	3157.97
700.16	2906.07
700.34	3000.27
700.53	3323.85
700.71	3401.68
700.89	3213.26
701.08	3203.02
701.26	3233.74
701.45	3405.77
701.63	3127.25
701.81	3096.53
702.00	3078.10
702.18	3233.74
702.37	3033.04
702.55	3571.66
702.73	3411.92
702.92	3155.92
703.10	3438.54
703.28	3512.27
703.47	3082.19
703.65	3368.91
703.84	3192.78
704.02	3180.50
704.20	3565.51
704.39	3086.29
704.57	3143.63
704.75	3434.44
704.94	3360.72
705.12	3317.71
705.30	4007.87
705.49	8470.40
705.67	16938.75
705.86	23373.47
706.04	26697.32
706.22	29437.50
706.41	28718.67
706.59	21397.18
706.77	16492.29
706.96	14358.31
707.14	13127.48
707.32	11065.18
707.51	9750.38
707.69	7956.36
707.87	6539.16
708.06	5318.57
708.24	4487.10
708.42	4116.42
708.61	4206.53
708.79	3252.17
708.97	3258.32
709.16	3426.25
709.34	3317.71
709.52	3033.04
709.71	3164.11
709.89	3454.92
710.07	3102.67
710.26	2983.89
710.44	3123.15
710.62	3506.12
710.80	3293.13
710.99	3196.88
711.17	3239.89
711.35	3176.40
711.54	3188.69
711.72	3311.57
711.90	3174.35
712.09	3309.52
712.27	3160.02
712.45	3235.79
712.63	3016.66
712.82	3319.76
713.00	3268.56
713.18	3200.98
713.37	3350.48
713.55	3391.44
713.73	3360.72
713.91	3174.35
714.10	3065.81
714.28	3305.42
714.46	3344.33
714.65	3243.98
714.83	3129.30
715.01	3313.61
715.19	3246.03
715.38	3041.23
715.56	3207.12
715.74	3155.92
715.92	3051.47
716.11	3426.25
716.29	2842.58
716.47	3266.51
716.65	3229.65
716.84	2942.93
717.02	3114.96
717.20	2938.84
717.38	3086.29
717.57	3180.50
717.75	3141.58
717.93	3196.88
718.11	3379.15
718.30	2834.39
718.48	3129.30
718.66	3516.36
718.84	3493.83
719.03	3067.86
719.21	2947.03
719.39	3674.06
719.57	3436.49
719.75	3219.41
719.94	3010.51
720.12	3213.26
720.30	3344.33
720.48	3190.74
720.67	3002.32
720.85	3063.76
721.03	3172.30
721.21	2994.13
721.39	3135.44
721.58	3358.67
721.76	3377.10
721.94	3117.01
722.12	3164.11
722.30	3551.18
722.49	3114.96
722.67	3131.34
722.85	3110.86
723.03	2969.55
723.21	3139.54
723.40	3137.49
723.58	3301.33
723.76	3387.34
723.94	3565.51
724.12	3082.19
724.30	3418.06
724.49	3469.26
724.67	3071.95
724.85	3170.26
725.03	2920.40
725.21	3487.69
725.40	3491.79
725.58	3143.63
725.76	3321.81
725.94	3319.76
726.12	3098.58
726.30	3157.97
726.49	3088.34
726.67	3213.26
726.85	3424.20
727.03	4028.35
727.21	5427.12
727.39	7258.00
727.57	7813.00
727.76	8312.71
727.94	8406.91
728.12	7200.66
728.30	5896.10
728.48	5572.52
728.66	5154.74
728.84	4755.38
729.03	4147.14
729.21	3837.89
729.39	3614.66
729.57	3393.48
729.75	3467.21
729.93	3469.26
730.11	2971.60
730.30	3184.59
730.48	3196.88
730.66	3190.74
730.84	3162.06
731.02	3309.52
731.20	3143.63
731.38	3180.50
731.56	2992.08
731.74	2990.03
731.93	3266.51
732.11	3227.60
732.29	3053.52
732.47	3422.16
732.65	3264.46
732.83	3223.50
733.01	3256.27
733.19	3157.97
733.37	3518.41
733.56	3139.54
733.74	2963.41
733.92	3610.57
734.10	3194.83
734.28	3305.42
734.46	2942.93
734.64	3155.92
734.82	3225.55
735.00	3135.44
735.18	3076.05
735.36	3309.52
735.54	3252.17
735.73	3016.66
735.91	3223.50
736.09	3549.13
736.27	3254.22
736.45	3196.88
736.63	2848.72
736.81	3182.54
736.99	3356.62
737.17	3330.00
737.35	3094.48
737.53	3323.85
737.71	3284.94
737.89	3321.81
738.07	3069.91
738.25	3155.92
738.43	2992.08
738.61	3084.24
738.80	2967.51
738.98	3069.91
739.16	3198.93
739.34	2992.08
739.52	3387.34
739.70	3315.66
739.88	3383.24
740.06	3250.13
740.24	2846.68
740.42	3487.69
740.60	2947.03
740.78	3028.95
740.96	2856.92
741.14	3035.09
741.32	3340.24
741.50	2967.51
741.68	3373.00
741.86	3502.03
742.04	3082.19
742.22	3043.28
742.40	3127.25
742.58	3450.83
742.76	3155.92
742.94	3336.14
743.12	2910.16
743.30	3315.66
743.48	3401.68
743.66	3022.80
743.84	3198.93
744.02	3209.17
744.20	3223.50
744.38	2918.36
744.56	2992.08
744.74	3592.14
744.92	3342.28
745.10	3352.52
745.28	3125.20
745.46	3624.90
745.64	3192.78
745.82	3186.64
746.00	3086.29
746.18	3311.57
746.36	2961.36
746.54	3149.78
746.72	3108.82
746.90	3080.14
747.08	3518.41
747.26	3033.04
747.44	3248.08
747.62	3413.96
747.80	3264.46
747.98	3205.07
748.15	3082.19
748.33	3641.29
748.51	3336.14
748.69	3176.40
748.87	2947.03
749.05	3209.17
749.23	3260.37
749.41	3071.95
749.59	3061.71
749.77	3475.40
749.95	3227.60
750.13	3028.95
750.31	3254.22
750.49	3217.36
750.67	3375.05
750.85	3190.74
751.03	3082.19
751.20	3663.82
751.38	3311.57
751.56	3088.34
751.74	3063.76
751.92	3125.20
752.10	3080.14
752.28	3264.46
752.46	2965.46
752.64	3190.74
752.82	3293.13
753.00	3229.65
753.18	2992.08
753.35	3207.12
753.53	3203.02
753.71	3018.71
753.89	3164.11
754.07	3344.33
754.25	3452.88
754.43	3180.50
754.61	2947.03
754.79	3360.72
754.97	3188.69
755.14	3248.08
755.32	2967.51
755.50	3295.18
755.68	3358.67
755.86	2936.79
756.04	3065.81
756.22	2936.79
756.40	3516.36
756.57	3303.37
756.75	2987.99
756.93	3545.03
757.11	3536.84
757.29	3000.27
757.47	2953.17
757.65	2977.75
757.82	2807.77
758.00	2985.94
758.18	3008.47
758.36	3018.71
758.54	3610.57
758.72	2918.36
758.90	3327.95
759.07	3395.53
759.25	3094.48
759.43	3213.26
759.61	2959.31
759.79	4579.26
759.97	3477.45
760.15	3074.00
760.32	3084.24
760.50	3282.89
760.68	3583.95
760.86	2920.40
761.04	3286.99
761.22	3485.64
761.39	3319.76
761.57	3260.37
761.75	3063.76
761.93	3346.38
762.11	3192.78
762.28	3307.47
762.46	2889.68
762.64	3504.07
762.82	3074.00
763.00	3045.33
763.18	3284.94
763.35	3135.44
763.53	3434.44
763.71	3135.44
763.89	3037.14
764.07	3280.85
764.24	3227.60
764.42	3137.49
764.60	3209.17
764.78	3375.05
764.96	3454.92
765.13	3266.51
765.31	2955.22
765.49	3393.48
765.67	3125.20
765.84	3000.27
766.02	3012.56
766.20	2987.99
766.38	3403.72
766.56	3211.22
766.73	3264.46
766.91	3311.57
767.09	3309.52
767.27	3178.45
767.44	2992.08
767.62	3344.33
767.80	3352.52
767.98	3055.57
768.15	3088.34
768.33	3477.45
768.51	3516.36
768.69	3198.93
768.87	3076.05
769.04	3379.15
769.22	3866.56
769.40	3264.46
769.58	3227.60
769.75	3370.96
769.93	3518.41
770.11	3114.96
770.28	2996.18
770.46	3454.92
770.64	3254.22
770.82	3082.19
770.99	3047.38
771.17	3442.64
771.35	3188.69
771.53	3168.21
771.70	2953.17
771.88	3358.67
772.06	3289.04
772.23	3110.86
772.41	3213.26
772.59	3266.51
772.77	3074.00
772.94	3033.04
773.12	3194.83
773.30	3137.49
773.47	3313.61
773.65	3012.56
773.83	3248.08
774.01	3268.56
774.18	2975.70
774.36	3125.20
774.54	2947.03
774.71	3411.92
774.89	2961.36
775.07	2934.74
775.24	3059.67
775.42	3135.44
775.60	3612.62
775.78	2975.70
775.95	2858.96
776.13	2971.60
776.31	2877.40
776.48	3168.21
776.66	3299.28
776.84	3143.63
777.01	3147.73
777.19	3004.37
777.37	3041.23
777.54	3352.52
777.72	3682.25
777.90	3170.26
778.07	2998.23
778.25	3999.68
778.43	3487.69
778.60	3061.71
778.78	3143.63
778.96	3481.55
779.13	3043.28
779.31	3186.64
779.49	3043.28
779.66	3344.33
779.84	3276.75
780.01	3008.47
780.19	3026.90
780.37	3502.03
780.54	3366.86
780.72	2924.50
780.90	3160.02
781.07	3178.45
781.25	3131.34
781.43	3176.40
781.60	3084.24
781.78	3444.68
781.95	3272.65
782.13	3125.20
782.31	3037.14
782.48	2949.08
782.66	3188.69
782.83	3370.96
783.01	3235.79
783.19	3497.93
783.36	3264.46
783.54	3033.04
783.72	3219.41
783.89	3172.30
784.07	3393.48
784.24	3258.32
784.42	3207.12
784.60	3377.10
784.77	3303.37
784.95	2848.72
785.12	3104.72
785.30	3235.79
785.47	3053.52
785.65	2942.93
785.83	3131.34
786.00	3137.49
786.18	3303.37
786.35	3039.19
786.53	2949.08
786.71	3411.92
786.88	3397.58
787.06	3211.22
787.23	3147.73
787.41	3086.29
787.58	3286.99
787.76	2983.89
787.94	3061.71
788.11	3270.61
788.29	2971.60
788.46	3092.43
788.64	2848.72
788.81	3143.63
788.99	3074.00
789.16	3020.75
789.34	3049.43
789.52	3123.15
789.69	3184.59
789.87	2918.36
790.04	3082.19
790.22	3276.75
790.39	3639.24
790.57	2994.13
790.74	3043.28
790.92	3510.22
791.09	2967.51
791.27	3151.82
791.44	3180.50
791.62	3282.89
791.79	3368.91
791.97	3274.70
792.15	3461.07
792.32	3293.13
792.50	3373.00
792.67	3286.99
792.85	3282.89
793.02	3346.38
793.20	3180.50
793.37	2959.31
793.55	2985.94
793.72	3149.78
793.90	3450.83
794.07	3045.33
794.25	2969.55
794.42	3272.65
794.60	3248.08
794.77	3149.78
794.95	3194.83
795.12	3463.12
795.30	3284.94
795.47	2881.49
795.65	3407.82
795.82	3291.09
796.00	3106.77
796.17	3155.92
796.34	2985.94
796.52	3348.43
796.69	3448.78
796.87	3239.89
797.04	3174.35
797.22	3418.06
797.39	3395.53
797.57	3248.08
797.74	3149.78
797.92	3399.63
798.09	3147.73
798.27	3395.53
798.44	3041.23
798.62	3106.77
798.79	3368.91
798.96	3297.23
799.14	3207.12
799.31	3850.18
799.49	3110.86
799.66	3160.02
799.84	3205.07
800.01	3035.09
800.19	3338.19
800.36	2891.73
800.53	3065.81
800.71	3411.92
800.88	3499.98
801.06	2996.18
801.23	3057.62
801.41	3182.54
801.58	3209.17
801.75	3074.00
801.93	3114.96
802.10	3385.29
802.28	3223.50
802.45	3018.71
802.63	3166.16
802.80	3583.95
802.97	3176.40
803.15	3129.30
803.32	3049.43
803.50	3112.91
803.67	3192.78
803.84	3053.52
804.02	3188.69
804.19	3186.64
804.37	2764.76
804.54	2891.73
804.71	3110.86
804.89	3211.22
805.06	3071.95
805.24	2971.60
805.41	2928.60
805.58	3131.34
805.76	3708.87
805.93	3035.09
806.10	3147.73
806.28	3393.48
806.45	3256.27
806.63	3184.59
806.80	3137.49
806.97	3391.44
807.15	3366.86
807.32	3180.50
807.49	3076.05
807.67	3080.14
807.84	3286.99
808.01	2908.12
808.19	3297.23
808.36	3643.34
808.54	3184.59
808.71	2947.03
808.88	3051.47
809.06	3471.31
809.23	3524.55
809.40	3069.91
809.58	3010.51
809.75	3252.17
809.92	3059.67
810.10	3319.76
810.27	3055.57
810.44	3262.41
810.62	3393.48
810.79	3133.39
810.96	3127.25
811.14	3209.17
811.31	3348.43
811.48	3190.74
811.66	3149.78
811.83	3432.40
812.00	3454.92
812.18	3176.40
812.35	3373.00
812.52	3286.99
812.69	3139.54
812.87	3088.34
813.04	2996.18
813.21	3258.32
813.39	3153.87
813.56	3069.91
813.73	3346.38
813.91	2944.98
814.08	3286.99
814.25	3074.00
814.42	2885.59
814.60	3219.41
814.77	3297.23
814.94	3057.62
815.12	3196.88
815.29	3596.23
815.46	3200.98
815.63	3110.86
815.81	3082.19
815.98	3196.88
816.15	3309.52
816.33	3176.40
816.50	3143.63
816.67	3330.00
816.84	3180.50
817.02	3045.33
817.19	3080.14
817.36	3340.24
817.53	3393.48
817.71	2975.70
817.88	3151.82
818.05	3192.78
818.22	3213.26
818.40	3299.28
818.57	3010.51
818.74	3358.67
818.91	3250.13
819.09	3200.98
819.26	3155.92
819.43	3090.38
819.60	3049.43
819.78	3286.99
819.95	3071.95
820.12	3086.29
820.29	3585.99
820.47	3379.15
820.64	2949.08
820.81	3008.47
820.98	3178.45
821.15	3096.53
821.33	3194.83
821.50	3000.27
821.67	3413.96
821.84	3024.85
822.02	3129.30
822.19	3440.59
822.36	3225.55
822.53	3028.95
822.70	3006.42
822.88	3139.54
823.05	3475.40
823.22	3215.31
823.39	3114.96
823.56	3233.74
823.74	3598.28
823.91	2955.22
824.08	2932.69
824.25	3065.81
824.42	3536.84
824.60	2879.44
824.77	3174.35
824.94	3200.98
825.11	3364.81
825.28	2893.78
825.45	3213.26
825.63	3297.23
825.80	3123.15
825.97	3174.35
826.14	3041.23
826.31	2951.12
826.48	3399.63
826.66	3061.71
826.83	3065.81
827.00	3219.41
827.17	3104.72
827.34	3176.40
827.51	2996.18
827.69	3295.18
827.86	2981.84
828.03	3147.73
828.20	3104.72
828.37	3082.19
828.54	3356.62
828.71	2971.60
828.89	3207.12
829.06	3344.33
829.23	3624.90
829.40	3047.38
829.57	3074.00
829.74	3348.43
829.91	3160.02
830.09	3028.95
830.26	3233.74
830.43	3561.42
830.60	3198.93
830.77	3151.82
830.94	3272.65
831.11	3416.01
831.28	3100.62
831.46	3168.21
831.63	3063.76
831.80	3461.07
831.97	3078.10
832.14	3129.30
832.31	3018.71
832.48	3346.38
832.65	3416.01
832.82	3196.88
832.99	3211.22
833.17	3108.82
833.34	3567.56
833.51	3024.85
833.68	2832.34
833.85	3481.55
834.02	3033.04
834.19	2992.08
834.36	3069.91
834.53	3299.28
834.70	3467.21
834.87	3106.77
835.04	2828.24
835.22	3074.00
835.39	3241.93
835.56	2977.75
835.73	2922.45
835.90	3352.52
836.07	3123.15
836.24	3047.38
836.41	2951.12
836.58	3112.91
836.75	3444.68
836.92	2910.16
837.09	2887.64
837.26	3409.87
837.43	3250.13
837.60	2979.79
837.77	2912.21
837.94	3430.35
838.12	3512.27
838.29	2879.44
838.46	2869.20
838.63	3090.38
838.80	3610.57
838.97	2985.94
839.14	2865.11
839.31	3213.26
839.48	3430.35
839.65	2930.64
839.82	3022.80
839.99	3360.72
840.16	3198.93
840.33	2789.33
840.50	2934.74
840.67	3067.86
840.84	2803.67
841.01	2922.45
841.18	2871.25
841.35	3186.64
841.52	3459.02
841.69	3239.89
841.86	2992.08
842.03	3203.02
842.20	3461.07
842.37	2914.26
842.54	3041.23
842.71	3264.46
842.88	3026.90
843.05	2967.51
843.22	2975.70
843.39	3393.48
843.56	3184.59
843.73	2918.36
843.90	3033.04
844.07	3278.80
844.24	3493.83
844.41	3041.23
844.58	2887.64
844.75	3278.80
844.92	3336.14
845.09	3067.86
845.26	2983.89
845.43	3418.06
845.60	3155.92
845.77	3063.76
845.94	3008.47
846.10	3542.99
846.27	2959.31
846.44	2797.53
846.61	2781.14
846.78	3434.44
846.95	3381.20
847.12	2789.33
847.29	2887.64
847.46	3117.01
847.63	3422.16
847.80	2856.92
847.97	2951.12
848.14	3786.69
848.31	3278.80
848.48	2815.96
848.65	2834.39
848.82	3184.59
848.98	3719.11
849.15	3104.72
849.32	3020.75
849.49	3428.30
849.66	3196.88
849.83	2914.26
850.00	2811.86
850.17	3409.87
850.34	3248.08
850.51	2832.34
850.68	3014.61
850.85	3758.02
851.01	3373.00
851.18	2895.83
851.35	2963.41
851.52	3325.90
851.69	3553.23
851.86	2914.26
852.03	2865.11
852.20	3438.54
852.37	3248.08
852.53	2787.29
852.70	2865.11
852.87	3336.14
853.04	3391.44
853.21	2936.79
853.38	3278.80
853.55	3569.61
853.72	3633.10
853.89	2807.77
854.05	2893.78
854.22	3229.65
854.39	3190.74
854.56	2914.26
854.73	3033.04
854.90	3114.96
855.07	3266.51
855.23	2836.44
855.40	2912.21
855.57	3221.45
855.74	2858.96
855.91	3131.34
856.08	2707.41
856.25	3000.27
856.41	3112.91
856.58	2914.26
856.75	2961.36
856.92	3004.37
857.09	3381.20
857.26	2711.51
857.42	2906.07
857.59	3426.25
857.76	3196.88
857.93	2901.97
858.10	2963.41
858.27	3022.80
858.43	3327.95
858.60	2994.13
858.77	2770.90
858.94	3160.02
859.11	3426.25
859.27	2975.70
859.44	2863.06
859.61	3641.29
859.78	3444.68
859.95	2887.64
860.12	2770.90
860.28	3698.63
860.45	3692.49
860.62	2826.20
860.79	2965.46
860.95	3172.30
861.12	3080.14
861.29	2844.63
861.46	2936.79
861.63	3272.65
861.79	3330.00
861.96	2836.44
862.13	2865.11
862.30	3557.32
862.47	3215.31
862.63	2822.10
862.80	2924.50
862.97	3424.20
863.14	3313.61
863.30	3000.27
863.47	2906.07
863.64	3557.32
863.81	3246.03
863.97	2783.19
864.14	2895.83
864.31	3233.74
864.48	3317.71
864.65	2885.59
864.81	2983.89
864.98	3442.64
865.15	3446.73
865.32	2961.36
865.48	3094.48
865.65	3708.87
865.82	3127.25
865.98	2936.79
866.15	2975.70
866.32	3196.88
866.49	3139.54
866.65	3110.86
866.82	2938.84
866.99	3196.88
867.16	3162.06
867.32	2938.84
867.49	2842.58
867.66	3231.69
867.83	3194.83
867.99	2838.48
868.16	2934.74
868.33	3057.62
868.49	3282.89
868.66	2920.40
868.83	2987.99
868.99	3260.37
869.16	3313.61
869.33	3041.23
869.50	2987.99
869.66	3188.69
869.83	3198.93
870.00	2852.82
870.16	3049.43
870.33	3213.26
870.50	3469.26
870.66	2990.03
870.83	2973.65
871.00	3289.04
871.17	3354.57
871.33	2965.46
871.50	2861.01
871.67	3311.57
871.83	3002.32
872.00	3055.57
872.17	2922.45
872.33	3669.96
872.50	3479.50
872.67	2906.07
872.83	2887.64
873.00	3389.39
873.17	3330.00
873.33	2918.36
873.50	2951.12
873.67	3094.48
873.83	3119.06
874.00	2895.83
874.16	3065.81
874.33	3200.98
874.50	2979.79
874.66	2865.11
874.83	3002.32
875.00	3467.21
875.16	3499.98
875.33	3049.43
875.50	2731.99
875.66	3121.10
875.83	3311.57
875.99	3030.99
876.16	3078.10
876.33	3045.33
876.49	3225.55
876.66	3059.67
876.83	2994.13
876.99	2879.44
877.16	3270.61
877.32	2801.62
877.49	2947.03
877.66	3420.11
877.82	3516.36
877.99	3059.67
878.15	3284.94
878.32	3336.14
878.49	3278.80
878.65	3008.47
878.82	3188.69
878.98	3289.04
879.15	3393.48
879.32	3045.33
879.48	3155.92
879.65	3241.93
879.81	3180.50
879.98	3006.42
880.15	3049.43
880.31	3426.25
880.48	3043.28
880.64	3125.20
880.81	3049.43
880.97	3563.47
881.14	3483.59
881.31	2865.11
881.47	3067.86
881.64	3295.18
881.80	3020.75
881.97	3098.58
882.13	2910.16
882.30	2990.03
882.47	3182.54
882.63	2924.50
882.80	2932.69
882.96	3207.12
883.13	3364.81
883.29	2920.40
883.46	2840.53
883.62	3758.02
883.79	3250.13
883.95	3065.81
884.12	2893.78
884.29	3524.55
884.45	3270.61
884.62	2951.12
884.78	2959.31
884.95	3606.47
885.11	3092.43
885.28	3043.28
885.44	2959.31
885.61	3334.09
885.77	3485.64
885.94	3018.71
886.10	3020.75
886.27	3217.36
886.43	3612.62
886.60	3098.58
886.76	3016.66
886.93	3160.02
887.09	3207.12
887.26	2797.53
887.42	3078.10
887.59	3454.92
887.75	3747.78
887.92	3131.34
888.08	3008.47
888.25	3598.28
888.41	3397.58
888.58	3045.33
888.74	2895.83
888.91	3129.30
>>>>>End Processed Spectral Data<<<<<
