SpectraSuite Data File
++++++++++++++++++++++++++++++++++++
Date: Fri May 06 08:14:34 CEST 2016
User: root
Dark Spectrum Present: No
Reference Spectrum Present: No
Number of Sampled Component Spectra: 1
Spectrometers: USB4C02835
Integration Time (usec): 100000 (USB4C02835)
Spectra Averaged: 1 (USB4C02835)
Boxcar Smoothing: 0 (USB4C02835)
Correct for Electrical Dark: No (USB4C02835)
Strobe/Lamp Enabled: No (USB4C02835)
Correct for Detector Non-linearity: No (USB4C02835)
Correct for Stray Light: No (USB4C02835)
Number of Pixels in Processed Spectrum: 3648
>>>>>Begin Processed Spectral Data<<<<<
177.47	2207.71
177.69	2207.71
177.91	2207.71
178.13	2301.92
178.36	2246.62
178.58	3022.80
178.80	3160.02
179.02	2983.89
179.24	3059.67
179.46	2756.57
179.68	2869.20
179.90	3270.61
180.13	3370.96
180.35	2656.22
180.57	2750.42
180.79	3405.77
181.01	3192.78
181.23	2965.46
181.45	2994.13
181.67	3373.00
181.90	3469.26
182.12	2947.03
182.34	2682.84
182.56	3305.42
182.78	3393.48
183.00	2791.38
183.22	2901.97
183.44	2879.44
183.66	3977.16
183.89	2985.94
184.11	2947.03
184.33	3461.07
184.55	3491.79
184.77	2838.48
184.99	2897.88
185.21	3237.84
185.43	3719.11
185.65	2942.93
185.87	2901.97
186.10	3796.93
186.32	3688.39
186.54	3033.04
186.76	2918.36
186.98	3422.16
187.20	3243.98
187.42	2942.93
187.64	2797.53
187.86	3393.48
188.08	3475.40
188.30	2777.05
188.52	2858.96
188.75	3577.80
188.97	3542.99
189.19	2785.24
189.41	2836.44
189.63	3373.00
189.85	3264.46
190.07	2772.95
190.29	2707.41
190.51	3291.09
190.73	3024.85
190.95	3098.58
191.17	2871.25
191.39	2992.08
191.61	3348.43
191.84	2883.54
192.06	2987.99
192.28	2891.73
192.50	3868.61
192.72	2987.99
192.94	2994.13
193.16	3631.05
193.38	3342.28
193.60	2807.77
193.82	2981.84
194.04	3616.71
194.26	3389.39
194.48	2815.96
194.70	2901.97
194.92	3233.74
195.14	3432.40
195.36	2820.05
195.58	2957.27
195.80	3286.99
196.02	3248.08
196.24	2830.29
196.46	3012.56
196.69	3129.30
196.91	3784.65
197.13	2899.92
197.35	2987.99
197.57	3659.72
197.79	3358.67
198.01	2934.74
198.23	2861.01
198.45	3366.86
198.67	3074.00
198.89	2695.13
199.11	2967.51
199.33	3108.82
199.55	2846.68
199.77	2756.57
199.99	3074.00
200.21	3213.26
200.43	3379.15
200.65	2688.98
200.87	2758.61
201.09	3252.17
201.31	3246.03
201.53	2895.83
201.75	2920.40
201.97	3352.52
202.19	3274.70
202.41	2897.88
202.63	3000.27
202.85	3459.02
203.07	3362.76
203.29	2932.69
203.51	2832.34
203.73	3135.44
203.95	3827.65
204.17	2785.24
204.39	2987.99
204.61	3231.69
204.83	3145.68
205.05	3035.09
205.27	2897.88
205.49	3751.88
205.71	3336.14
205.93	2766.81
206.15	2713.56
206.37	3280.85
206.59	3293.13
206.81	2711.51
207.03	2795.48
207.25	3125.20
207.47	3436.49
207.69	2813.91
207.91	2985.94
208.13	3577.80
208.34	3139.54
208.56	2822.10
208.78	2865.11
209.00	3246.03
209.22	3172.30
209.44	2930.64
209.66	2852.82
209.88	3323.85
210.10	3188.69
210.32	2854.87
210.54	3000.27
210.76	3184.59
210.98	3514.31
211.20	2668.50
211.42	3030.99
211.64	3622.86
211.86	3413.96
212.08	2920.40
212.30	2918.36
212.52	3225.55
212.74	3393.48
212.96	3043.28
213.17	2942.93
213.39	3459.02
213.61	3600.33
213.83	2920.40
214.05	2731.99
214.27	3497.93
214.49	3098.58
214.71	2717.65
214.93	3037.14
215.15	3356.62
215.37	3538.89
215.59	2717.65
215.81	2955.22
216.03	3575.75
216.24	3207.12
216.46	2801.62
216.68	2938.84
216.90	3508.17
217.12	3510.22
217.34	2914.26
217.56	3024.85
217.78	3571.66
218.00	3407.82
218.22	2942.93
218.44	3041.23
218.66	3276.75
218.87	3606.47
219.09	2875.35
219.31	2953.17
219.53	3356.62
219.75	3203.02
219.97	2963.41
220.19	2889.68
220.41	3295.18
220.63	3610.57
220.85	2904.02
221.06	2883.54
221.28	3596.23
221.50	3411.92
221.72	2799.57
221.94	2783.19
222.16	3332.05
222.38	3426.25
222.60	2789.33
222.82	2944.98
223.03	3561.42
223.25	3024.85
223.47	2793.43
223.69	3084.24
223.91	3395.53
224.13	3272.65
224.35	2742.23
224.57	3018.71
224.78	3428.30
225.00	3082.19
225.22	3055.57
225.44	2832.34
225.66	3405.77
225.88	3164.11
226.10	3024.85
226.32	2899.92
226.53	3606.47
226.75	3209.17
226.97	2899.92
227.19	2944.98
227.41	3213.26
227.63	3209.17
227.85	2709.46
228.06	2942.93
228.28	3239.89
228.50	3403.72
228.72	2799.57
228.94	2813.91
229.16	3018.71
229.37	3080.14
229.59	2770.90
229.81	3112.91
230.03	3151.82
230.25	3033.04
230.47	2639.83
230.69	2840.53
230.90	3479.50
231.12	3155.92
231.34	3045.33
231.56	2996.18
231.78	3133.39
232.00	3237.84
232.21	2885.59
232.43	2910.16
232.65	2836.44
232.87	3375.05
233.09	2668.50
233.30	2809.81
233.52	3502.03
233.74	3233.74
233.96	2777.05
234.18	2981.84
234.40	3237.84
234.61	3764.17
234.83	2756.57
235.05	2848.72
235.27	3782.60
235.49	3411.92
235.70	2750.42
235.92	2875.35
236.14	3395.53
236.36	3819.46
236.58	2783.19
236.79	2994.13
237.01	3280.85
237.23	3190.74
237.45	3147.73
237.67	2904.02
237.88	3286.99
238.10	3676.10
238.32	2752.47
238.54	2754.52
238.76	3297.23
238.97	3139.54
239.19	2779.09
239.41	2920.40
239.63	3532.75
239.85	3172.30
240.06	2885.59
240.28	2852.82
240.50	3473.36
240.72	3379.15
240.93	2789.33
241.15	2959.31
241.37	3235.79
241.59	3495.88
241.81	2928.60
242.02	3057.62
242.24	3338.19
242.46	3364.81
242.68	2672.60
242.89	2791.38
243.11	3495.88
243.33	3256.27
243.55	2893.78
243.76	2887.64
243.98	3112.91
244.20	3295.18
244.42	2856.92
244.64	2830.29
244.85	3041.23
245.07	3035.09
245.29	2854.87
245.51	2930.64
245.72	3327.95
245.94	3520.46
246.16	2820.05
246.38	2922.45
246.59	3217.36
246.81	3133.39
247.03	2787.29
247.24	2715.61
247.46	3225.55
247.68	3258.32
247.90	2852.82
248.11	2887.64
248.33	3454.92
248.55	3262.41
248.77	2897.88
248.98	2955.22
249.20	3557.32
249.42	3352.52
249.64	2850.77
249.85	2820.05
250.07	3233.74
250.29	3395.53
250.50	2938.84
250.72	2766.81
250.94	3360.72
251.16	3674.06
251.37	2813.91
251.59	2922.45
251.81	3479.50
252.02	3614.66
252.24	2727.89
252.46	3016.66
252.68	3082.19
252.89	3168.21
253.11	2756.57
253.33	3028.95
253.54	3610.57
253.76	3092.43
253.98	2875.35
254.20	2832.34
254.41	3008.47
254.63	3243.98
254.85	2734.04
255.06	2852.82
255.28	3393.48
255.50	3278.80
255.71	2861.01
255.93	2691.03
256.15	3241.93
256.36	3403.72
256.58	2674.65
256.80	2783.19
257.02	3246.03
257.23	3200.98
257.45	2922.45
257.67	2949.08
257.88	3170.26
258.10	3284.94
258.32	2893.78
258.53	2959.31
258.75	3620.81
258.97	3131.34
259.18	2793.43
259.40	2793.43
259.62	3610.57
259.83	3581.90
260.05	2848.72
260.27	3794.89
260.48	3573.71
260.70	3110.86
260.92	2777.05
261.13	2928.60
261.35	3231.69
261.57	3254.22
261.78	2740.18
262.00	2797.53
262.22	3389.39
262.43	3168.21
262.65	2897.88
262.86	2936.79
263.08	3721.16
263.30	3295.18
263.51	2697.17
263.73	2772.95
263.95	3715.02
264.16	3151.82
264.38	2672.60
264.60	2793.43
264.81	3280.85
265.03	3502.03
265.25	3454.92
265.46	2820.05
265.68	3602.38
265.89	3452.88
266.11	2764.76
266.33	2818.00
266.54	3493.83
266.76	3311.57
266.98	2992.08
267.19	3074.00
267.41	3512.27
267.62	3272.65
267.84	2660.31
268.06	2975.70
268.27	3295.18
268.49	3467.21
268.70	2922.45
268.92	2897.88
269.14	3125.20
269.35	3061.71
269.57	2973.65
269.79	2959.31
270.00	3172.30
270.22	3581.90
270.43	2725.85
270.65	2668.50
270.87	3352.52
271.08	3424.20
271.30	2975.70
271.51	2873.30
271.73	3360.72
271.95	3565.51
272.16	2832.34
272.38	2944.98
272.59	3166.16
272.81	3368.91
273.02	2861.01
273.24	2934.74
273.46	3479.50
273.67	3049.43
273.89	2740.18
274.10	2828.24
274.32	3514.31
274.54	3434.44
274.75	2979.79
274.97	2969.55
275.18	3379.15
275.40	3309.52
275.61	2891.73
275.83	3053.52
276.05	2994.13
276.26	3223.50
276.48	2957.27
276.69	2963.41
276.91	3268.56
277.12	3616.71
277.34	3033.04
277.55	3162.06
277.77	3262.41
277.99	3207.12
278.20	2981.84
278.42	2930.64
278.63	3147.73
278.85	3043.28
279.06	2969.55
279.28	3135.44
279.49	3491.79
279.71	3428.30
279.93	3016.66
280.14	3090.38
280.36	3092.43
280.57	3399.63
280.79	3051.47
281.00	2881.49
281.22	3121.10
281.43	3438.54
281.65	2803.67
281.86	2926.55
282.08	3338.19
282.29	3669.96
282.51	2824.15
282.73	2893.78
282.94	2877.40
283.16	3463.12
283.37	3061.71
283.59	3041.23
283.80	3389.39
284.02	3299.28
284.23	3018.71
284.45	2965.46
284.66	3020.75
284.88	3125.20
285.09	2987.99
285.31	3035.09
285.52	3428.30
285.74	3004.37
285.95	3190.74
286.17	3090.38
286.38	3461.07
286.60	3209.17
286.81	2996.18
287.03	2947.03
287.24	3139.54
287.46	3450.83
287.67	3100.62
287.89	3270.61
288.10	3356.62
288.32	3360.72
288.53	3129.30
288.75	3094.48
288.96	3411.92
289.18	3057.62
289.39	2981.84
289.61	2994.13
289.82	3762.12
290.04	3694.54
290.25	2861.01
290.47	3004.37
290.68	3276.75
290.90	3504.07
291.11	2848.72
291.33	3188.69
291.54	3155.92
291.76	3184.59
291.97	3098.58
292.18	3041.23
292.40	3129.30
292.61	3155.92
292.83	3246.03
293.04	3000.27
293.26	3327.95
293.47	3272.65
293.69	2975.70
293.90	2895.83
294.12	3631.05
294.33	3272.65
294.55	3047.38
294.76	3106.77
294.97	3569.61
295.19	3792.84
295.40	3067.86
295.62	3102.67
295.83	3512.27
296.05	3071.95
296.26	3303.37
296.48	3053.52
296.69	3231.69
296.90	3319.76
297.12	3180.50
297.33	3153.87
297.55	3276.75
297.76	3323.85
297.98	3030.99
298.19	3166.16
298.41	3256.27
298.62	3074.00
298.83	3172.30
299.05	3059.67
299.26	3172.30
299.48	3080.14
299.69	3110.86
299.90	3071.95
300.12	3088.34
300.33	3313.61
300.55	2934.74
300.76	3071.95
300.98	3092.43
301.19	3405.77
301.40	3033.04
301.62	3051.47
301.83	3354.57
302.05	3272.65
302.26	2922.45
302.47	3057.62
302.69	3082.19
302.90	3336.14
303.12	2856.92
303.33	3145.68
303.54	3725.26
303.76	3262.41
303.97	2947.03
304.19	3176.40
304.40	3069.91
304.61	3342.28
304.83	3106.77
305.04	3147.73
305.26	3350.48
305.47	3155.92
305.68	3028.95
305.90	2942.93
306.11	3485.64
306.33	3262.41
306.54	2840.53
306.75	3045.33
306.97	2994.13
307.18	3080.14
307.39	3047.38
307.61	3057.62
307.82	3301.33
308.04	3276.75
308.25	2904.02
308.46	3235.79
308.68	3268.56
308.89	3303.37
309.10	3047.38
309.32	3078.10
309.53	3307.47
309.74	3334.09
309.96	2881.49
310.17	3164.11
310.39	3217.36
310.60	3315.66
310.81	3102.67
311.03	2916.31
311.24	3516.36
311.45	3334.09
311.67	3231.69
311.88	3108.82
312.09	3198.93
312.31	3239.89
312.52	2938.84
312.73	2938.84
312.95	3088.34
313.16	3123.15
313.37	3135.44
313.59	3157.97
313.80	3467.21
314.01	3647.43
314.23	3004.37
314.44	2979.79
314.65	3057.62
314.87	3141.58
315.08	2947.03
315.29	3041.23
315.51	3112.91
315.72	2983.89
315.93	3076.05
316.15	3035.09
316.36	3196.88
316.57	3305.42
316.79	3010.51
317.00	2865.11
317.21	3459.02
317.43	3160.02
317.64	3053.52
317.85	2877.40
318.07	3084.24
318.28	3149.78
318.49	3053.52
318.70	3239.89
318.92	3401.68
319.13	3266.51
319.34	3139.54
319.56	3002.32
319.77	3403.72
319.98	3448.78
320.20	3289.04
320.41	3157.97
320.62	3307.47
320.83	3018.71
321.05	3250.13
321.26	3041.23
321.47	3254.22
321.69	3434.44
321.90	2901.97
322.11	3002.32
322.32	3364.81
322.54	3557.32
322.75	3008.47
322.96	4157.38
323.18	3026.90
323.39	2877.40
323.60	2893.78
323.81	3039.19
324.03	3106.77
324.24	3270.61
324.45	3047.38
324.66	2926.55
324.88	3532.75
325.09	3624.90
325.30	2959.31
325.52	2887.64
325.73	3370.96
325.94	3080.14
326.15	2871.25
326.37	2877.40
326.58	3401.68
326.79	3645.38
327.00	2920.40
327.22	2852.82
327.43	3289.04
327.64	3090.38
327.85	3176.40
328.07	2930.64
328.28	3639.24
328.49	3086.29
328.70	3041.23
328.92	2928.60
329.13	3241.93
329.34	3286.99
329.55	3190.74
329.76	3141.58
329.98	3303.37
330.19	3493.83
330.40	3014.61
330.61	3076.05
330.83	3440.59
331.04	3112.91
331.25	3108.82
331.46	3090.38
331.68	3092.43
331.89	3520.46
332.10	2965.46
332.31	2861.01
332.52	3282.89
332.74	3436.49
332.95	2768.85
333.16	2951.12
333.37	3452.88
333.58	3076.05
333.80	2987.99
334.01	2760.66
334.22	3221.45
334.43	3209.17
334.64	2924.50
334.86	2963.41
335.07	3024.85
335.28	3629.00
335.49	2906.07
335.70	3037.14
335.92	3557.32
336.13	3743.69
336.34	3086.29
336.55	2971.60
336.76	3422.16
336.98	2934.74
337.19	3051.47
337.40	3041.23
337.61	3893.19
337.82	3174.35
338.04	3065.81
338.25	2766.81
338.46	3248.08
338.67	3186.64
338.88	2848.72
339.09	2850.77
339.31	3108.82
339.52	3035.09
339.73	2877.40
339.94	3037.14
340.15	3446.73
340.36	3192.78
340.58	3065.81
340.79	2920.40
341.00	3395.53
341.21	2994.13
341.42	3254.22
341.63	3057.62
341.85	3493.83
342.06	3299.28
342.27	2957.27
342.48	3215.31
342.69	3078.10
342.90	3375.05
343.12	3456.97
343.33	2891.73
343.54	3473.36
343.75	3514.31
343.96	3213.26
344.17	2912.21
344.38	3317.71
344.60	3135.44
344.81	2947.03
345.02	3051.47
345.23	3434.44
345.44	3798.98
345.65	3053.52
345.86	3059.67
346.07	3336.14
346.29	3137.49
346.50	3117.01
346.71	3102.67
346.92	3479.50
347.13	3669.96
347.34	3020.75
347.55	2934.74
347.76	3407.82
347.98	2967.51
348.19	3090.38
348.40	3155.92
348.61	3237.84
348.82	3559.37
349.03	3049.43
349.24	2940.88
349.45	3637.19
349.66	2875.35
349.88	2949.08
350.09	2899.92
350.30	3557.32
350.51	3540.94
350.72	3157.97
350.93	2955.22
351.14	3112.91
351.35	3383.24
351.56	3028.95
351.77	3051.47
351.99	3430.35
352.20	3614.66
352.41	3162.06
352.62	2852.82
352.83	3239.89
353.04	3256.27
353.25	3016.66
353.46	3016.66
353.67	3430.35
353.88	2904.02
354.09	2985.94
354.30	3037.14
354.52	3463.12
354.73	3217.36
354.94	2987.99
355.15	3104.72
355.36	3655.62
355.57	3184.59
355.78	2969.55
355.99	3006.42
356.20	3243.98
356.41	3542.99
356.62	3063.76
356.83	3067.86
357.04	3551.18
357.25	2996.18
357.46	2963.41
357.68	2822.10
357.89	3092.43
358.10	3289.04
358.31	3053.52
358.52	3016.66
358.73	3078.10
358.94	3164.11
359.15	2992.08
359.36	3010.51
359.57	3358.67
359.78	3307.47
359.99	3217.36
360.20	2920.40
360.41	3186.64
360.62	3379.15
360.83	3082.19
361.04	3024.85
361.25	3352.52
361.46	3622.86
361.67	3061.71
361.88	2983.89
362.09	3471.31
362.30	3291.09
362.51	2940.88
362.72	3049.43
362.93	3461.07
363.14	3405.77
363.35	3076.05
363.56	2930.64
363.78	3598.28
363.99	3401.68
364.20	2975.70
364.41	3090.38
364.62	3655.62
364.83	3426.25
365.04	2944.98
365.25	2979.79
365.46	3692.49
365.67	3102.67
365.88	3170.26
366.09	2959.31
366.30	3225.55
366.51	3297.23
366.72	2959.31
366.93	2959.31
367.14	3352.52
367.35	3581.90
367.56	2856.92
367.77	3030.99
367.98	3231.69
368.18	3325.90
368.39	3131.34
368.60	2994.13
368.81	3438.54
369.02	3309.52
369.23	3053.52
369.44	2951.12
369.65	3157.97
369.86	3338.19
370.07	3112.91
370.28	2893.78
370.49	3405.77
370.70	3356.62
370.91	2928.60
371.12	2924.50
371.33	3506.12
371.54	3135.44
371.75	3084.24
371.96	2738.13
372.17	3291.09
372.38	3280.85
372.59	3022.80
372.80	2961.36
373.01	3252.17
373.22	3319.76
373.43	3004.37
373.64	2863.06
373.85	3512.27
374.06	3610.57
374.26	3110.86
374.47	3127.25
374.68	3624.90
374.89	3348.43
375.10	2969.55
375.31	3074.00
375.52	3362.76
375.73	3401.68
375.94	2897.88
376.15	3160.02
376.36	3164.11
376.57	3135.44
376.78	3018.71
376.99	3037.14
377.20	3512.27
377.40	3131.34
377.61	3266.51
377.82	3000.27
378.03	3491.79
378.24	3450.83
378.45	3147.73
378.66	3074.00
378.87	2928.60
379.08	3000.27
379.29	3018.71
379.50	3186.64
379.71	3303.37
379.91	3407.82
380.12	3018.71
380.33	3078.10
380.54	3241.93
380.75	3344.33
380.96	2969.55
381.17	3065.81
381.38	3248.08
381.59	3313.61
381.80	3069.91
382.00	3258.32
382.21	3291.09
382.42	3561.42
382.63	3405.77
382.84	3182.54
383.05	3459.02
383.26	3475.40
383.47	3166.16
383.68	2973.65
383.88	3381.20
384.09	3278.80
384.30	3256.27
384.51	3155.92
384.72	3200.98
384.93	3088.34
385.14	3102.67
385.35	3295.18
385.55	2992.08
385.76	3512.27
385.97	2947.03
386.18	2863.06
386.39	3110.86
386.60	3123.15
386.81	3004.37
387.02	2897.88
387.22	2967.51
387.43	3411.92
387.64	3074.00
387.85	3295.18
388.06	3368.91
388.27	4345.79
388.48	7710.60
388.68	11745.10
388.89	14890.78
389.10	16279.30
389.31	15693.58
389.52	12805.95
389.73	11114.33
389.93	10162.02
390.14	9373.55
390.35	8384.38
390.56	7927.69
390.77	6563.74
390.98	4947.89
391.18	4198.34
391.39	3954.63
391.60	3352.52
391.81	3278.80
392.02	3035.09
392.23	3803.08
392.43	3344.33
392.64	3149.78
392.85	3207.12
393.06	3622.86
393.27	3301.33
393.47	2975.70
393.68	3147.73
393.89	3166.16
394.10	3465.16
394.31	2916.31
394.52	2891.73
394.72	3157.97
394.93	3506.12
395.14	2932.69
395.35	3088.34
395.56	3090.38
395.76	3291.09
395.97	3022.80
396.18	3153.87
396.39	3229.65
396.60	3960.77
396.80	3321.81
397.01	3256.27
397.22	3399.63
397.43	3477.45
397.64	2973.65
397.84	3117.01
398.05	3669.96
398.26	3299.28
398.47	3205.07
398.67	3291.09
398.88	3270.61
399.09	3459.02
399.30	2979.79
399.51	3098.58
399.71	3110.86
399.92	3280.85
400.13	3078.10
400.34	2994.13
400.54	3319.76
400.75	3616.71
400.96	3233.74
401.17	3336.14
401.37	3381.20
401.58	3239.89
401.79	2969.55
402.00	3174.35
402.21	3758.02
402.41	3407.82
402.62	3463.12
402.83	3467.21
403.04	3690.44
403.24	4118.47
403.45	3170.26
403.66	3368.91
403.87	3483.59
404.07	3667.91
404.28	3280.85
404.49	3303.37
404.70	3336.14
404.90	3467.21
405.11	3065.81
405.32	3104.72
405.52	3196.88
405.73	3149.78
405.94	2977.75
406.15	3022.80
406.35	3420.11
406.56	3413.96
406.77	3106.77
406.98	2985.94
407.18	3209.17
407.39	3565.51
407.60	3084.24
407.80	3100.62
408.01	3198.93
408.22	3377.10
408.43	2922.45
408.63	3098.58
408.84	3442.64
409.05	3452.88
409.25	2936.79
409.46	3061.71
409.67	3217.36
409.88	3205.07
410.08	3047.38
410.29	3039.19
410.50	3483.59
410.70	3325.90
410.91	2953.17
411.12	3088.34
411.32	3319.76
411.53	3180.50
411.74	3127.25
411.95	3139.54
412.15	3297.23
412.36	3483.59
412.57	3203.02
412.77	3299.28
412.98	3276.75
413.19	3205.07
413.39	3104.72
413.60	3063.76
413.81	3581.90
414.01	3090.38
414.22	3041.23
414.43	3225.55
414.63	3246.03
414.84	3475.40
415.05	3026.90
415.25	2934.74
415.46	3483.59
415.67	3188.69
415.87	3131.34
416.08	3090.38
416.29	3223.50
416.49	3366.86
416.70	3145.68
416.91	3024.85
417.11	3211.22
417.32	3592.14
417.53	3139.54
417.73	3182.54
417.94	3291.09
418.15	3246.03
418.35	3071.95
418.56	3016.66
418.77	3790.79
418.97	3291.09
419.18	3170.26
419.38	2813.91
419.59	3264.46
419.80	3542.99
420.00	3002.32
420.21	3076.05
420.42	3581.90
420.62	3297.23
420.83	2934.74
421.04	3002.32
421.24	3237.84
421.45	3405.77
421.65	3084.24
421.86	3051.47
422.07	3456.97
422.27	3407.82
422.48	2963.41
422.69	2873.30
422.89	3200.98
423.10	3227.60
423.30	2996.18
423.51	3147.73
423.72	3360.72
423.92	3467.21
424.13	2918.36
424.33	3088.34
424.54	3526.60
424.75	3239.89
424.95	3309.52
425.16	3004.37
425.36	3260.37
425.57	3542.99
425.78	3168.21
425.98	3164.11
426.19	3262.41
426.39	3076.05
426.60	3102.67
426.81	3182.54
427.01	3274.70
427.22	3063.76
427.42	2891.73
427.63	3010.51
427.83	3463.12
428.04	3618.76
428.25	3110.86
428.45	3157.97
428.66	3491.79
428.86	3274.70
429.07	3067.86
429.28	3108.82
429.48	3225.55
429.69	3086.29
429.89	3139.54
430.10	2957.27
430.30	3411.92
430.51	3540.94
430.71	2942.93
430.92	3061.71
431.13	3215.31
431.33	3362.76
431.54	3160.02
431.74	3213.26
431.95	3745.73
432.15	3051.47
432.36	3041.23
432.56	3088.34
432.77	3717.06
432.98	3618.76
433.18	3096.53
433.39	2908.12
433.59	3241.93
433.80	3694.54
434.00	3233.74
434.21	3096.53
434.41	3157.97
434.62	3854.28
434.82	2951.12
435.03	3012.56
435.23	3393.48
435.44	2910.16
435.64	2963.41
435.85	3100.62
436.06	3391.44
436.26	3485.64
436.47	3045.33
436.67	2979.79
436.88	3209.17
437.08	3549.13
437.29	3157.97
437.49	3182.54
437.70	3590.09
437.90	3215.31
438.11	3291.09
438.31	3215.31
438.52	3635.14
438.72	3542.99
438.93	3461.07
439.13	3157.97
439.34	3461.07
439.54	3182.54
439.75	3141.58
439.95	3078.10
440.16	3127.25
440.36	3278.80
440.57	3092.43
440.77	3041.23
440.98	3282.89
441.18	3321.81
441.39	2879.44
441.59	2901.97
441.80	3680.20
442.00	3229.65
442.21	3180.50
442.41	2990.03
442.62	3467.21
442.82	3186.64
443.02	3086.29
443.23	3112.91
443.43	3295.18
443.64	3590.09
443.84	2967.51
444.05	3160.02
444.25	3319.76
444.46	3215.31
444.66	3067.86
444.87	3264.46
445.07	2885.59
445.28	3248.08
445.48	3153.87
445.69	3160.02
445.89	3923.91
446.09	3254.22
446.30	3352.52
446.50	3467.21
446.71	5064.63
446.91	6186.91
447.12	7073.68
447.32	7595.92
447.53	7661.45
447.73	6293.41
447.93	5588.91
448.14	5265.33
448.34	5468.08
448.55	4558.78
448.75	4405.18
448.96	4175.81
449.16	4022.21
449.36	3860.42
449.57	3356.62
449.77	3174.35
449.98	3162.06
450.18	3413.96
450.39	2967.51
450.59	3266.51
450.79	3256.27
451.00	3090.38
451.20	3317.71
451.41	3010.51
451.61	3373.00
451.81	3264.46
452.02	2994.13
452.22	3024.85
452.43	3205.07
452.63	3190.74
452.84	3139.54
453.04	2947.03
453.24	3243.98
453.45	3127.25
453.65	3114.96
453.86	3131.34
454.06	3280.85
454.26	3399.63
454.47	2953.17
454.67	3266.51
454.87	3362.76
455.08	3164.11
455.28	3282.89
455.49	3346.38
455.69	3096.53
455.89	3684.30
456.10	3098.58
456.30	3090.38
456.51	3409.87
456.71	3319.76
456.91	3209.17
457.12	2971.60
457.32	3327.95
457.52	3084.24
457.73	3237.84
457.93	3237.84
458.14	3221.45
458.34	2944.98
458.54	3168.21
458.75	2963.41
458.95	3569.61
459.15	3395.53
459.36	3041.23
459.56	3131.34
459.76	3782.60
459.97	3262.41
460.17	3082.19
460.37	3104.72
460.58	3221.45
460.78	3446.73
460.99	3131.34
461.19	2996.18
461.39	3225.55
461.60	3229.65
461.80	3155.92
462.00	2920.40
462.21	3268.56
462.41	3149.78
462.61	2934.74
462.82	2850.77
463.02	3395.53
463.22	3258.32
463.43	3200.98
463.63	2975.70
463.83	3538.89
464.04	3379.15
464.24	3071.95
464.44	3063.76
464.64	3366.86
464.85	3432.40
465.05	3094.48
465.25	2971.60
465.46	3215.31
465.66	3409.87
465.86	3078.10
466.07	3059.67
466.27	3102.67
466.47	2983.89
466.68	2885.59
466.88	3139.54
467.08	3370.96
467.29	3420.11
467.49	3100.62
467.69	3180.50
467.89	3411.92
468.10	3219.41
468.30	3135.44
468.50	3127.25
468.71	3370.96
468.91	2985.94
469.11	3258.32
469.31	3102.67
469.52	3069.91
469.72	3661.77
469.92	3258.32
470.13	3028.95
470.33	3309.52
470.53	3348.43
470.73	3504.07
470.94	3925.96
471.14	4040.64
471.34	4736.95
471.54	4272.06
471.75	4095.94
471.95	3895.24
472.15	3780.55
472.36	3667.91
472.56	3495.88
472.76	3858.37
472.96	3768.26
473.17	3295.18
473.37	3264.46
473.57	3198.93
473.77	3403.72
473.98	3209.17
474.18	2967.51
474.38	4016.07
474.58	3205.07
474.79	2936.79
474.99	3227.60
475.19	3495.88
475.39	3131.34
475.60	3022.80
475.80	3061.71
476.00	3354.57
476.20	3221.45
476.41	3182.54
476.61	3149.78
476.81	3520.46
477.01	3174.35
477.21	3377.10
477.42	3184.59
477.62	3108.82
477.82	3383.24
478.02	2992.08
478.23	3207.12
478.43	3139.54
478.63	3194.83
478.83	3041.23
479.03	3067.86
479.24	3532.75
479.44	3725.26
479.64	2994.13
479.84	2803.67
480.04	3102.67
480.25	3436.49
480.45	2936.79
480.65	3016.66
480.85	3516.36
481.06	3123.15
481.26	3170.26
481.46	3006.42
481.66	3354.57
481.86	3094.48
482.06	3198.93
482.27	3082.19
482.47	3256.27
482.67	3461.07
482.87	3092.43
483.07	3059.67
483.28	3266.51
483.48	2992.08
483.68	3059.67
483.88	2951.12
484.08	2930.64
484.29	3022.80
484.49	3198.93
484.69	2916.31
484.89	3557.32
485.09	3454.92
485.29	3086.29
485.50	3143.63
485.70	3225.55
485.90	3538.89
486.10	3096.53
486.30	3051.47
486.50	3516.36
486.71	3237.84
486.91	3203.02
487.11	3123.15
487.31	3033.04
487.51	3401.68
487.71	2994.13
487.91	3035.09
488.12	3108.82
488.32	2826.20
488.52	3076.05
488.72	2775.00
488.92	3293.13
489.12	3579.85
489.32	3078.10
489.53	3037.14
489.73	3037.14
489.93	3616.71
490.13	3002.32
490.33	2944.98
490.53	3260.37
490.73	3569.61
490.94	3004.37
491.14	3157.97
491.34	3514.31
491.54	3393.48
491.74	3997.64
491.94	4546.49
492.14	5162.93
492.34	5277.62
492.54	4751.29
492.75	4100.03
492.95	4274.11
493.15	3960.77
493.35	3796.93
493.55	3682.25
493.75	3770.31
493.95	3907.52
494.15	3407.82
494.35	3133.39
494.56	3268.56
494.76	3170.26
494.96	3291.09
495.16	2990.03
495.36	3303.37
495.56	3293.13
495.76	3108.82
495.96	2977.75
496.16	3094.48
496.36	3702.73
496.56	2996.18
496.77	3184.59
496.97	3258.32
497.17	3606.47
497.37	2914.26
497.57	3225.55
497.77	3334.09
497.97	3166.16
498.17	3084.24
498.37	3098.58
498.57	3381.20
498.77	3182.54
498.97	3203.02
499.17	3463.12
499.38	3233.74
499.58	3364.81
499.78	3282.89
499.98	3190.74
500.18	3241.93
500.38	3051.47
500.58	3256.27
500.78	3575.75
500.98	6117.28
501.18	8095.62
501.38	9582.45
501.58	10737.50
501.78	10696.54
501.98	8994.68
502.18	7339.92
502.38	6553.50
502.58	6451.10
502.78	5650.35
502.98	5482.41
503.18	5199.79
503.38	4829.11
503.59	4241.34
503.79	4014.02
503.99	3712.97
504.19	3901.38
504.39	3878.85
504.59	3733.45
504.79	3665.86
504.99	3932.10
505.19	3545.03
505.39	3321.81
505.59	3588.04
505.79	3592.14
505.99	3508.17
506.19	3082.19
506.39	3229.65
506.59	3211.22
506.79	3241.93
506.99	3291.09
507.19	3004.37
507.39	3360.72
507.59	3018.71
507.79	3051.47
507.99	3102.67
508.19	3299.28
508.39	3157.97
508.59	3061.71
508.79	3139.54
508.99	3653.58
509.19	3174.35
509.39	3086.29
509.59	2942.93
509.79	3092.43
509.99	3315.66
510.19	3231.69
510.39	3123.15
510.59	3401.68
510.79	3166.16
510.99	2883.54
511.19	2979.79
511.39	3575.75
511.59	3442.64
511.79	3192.78
511.99	3090.38
512.19	3614.66
512.38	3309.52
512.58	2981.84
512.78	2973.65
512.98	3551.18
513.18	3655.62
513.38	2928.60
513.58	3147.73
513.78	3235.79
513.98	3258.32
514.18	3110.86
514.38	3160.02
514.58	3434.44
514.78	3112.91
514.98	2942.93
515.18	3160.02
515.38	2992.08
515.58	3657.67
515.78	3024.85
515.98	3053.52
516.18	3387.34
516.38	3209.17
516.57	3088.34
516.77	3020.75
516.97	3428.30
517.17	3174.35
517.37	2830.29
517.57	3055.57
517.77	3203.02
517.97	3117.01
518.17	3096.53
518.37	2932.69
518.57	3213.26
518.77	3147.73
518.97	3049.43
519.16	3049.43
519.36	3547.08
519.56	3135.44
519.76	3047.38
519.96	3074.00
520.16	3526.60
520.36	3063.76
520.56	3254.22
520.76	2944.98
520.96	3262.41
521.16	3516.36
521.35	3237.84
521.55	3080.14
521.75	3291.09
521.95	3196.88
522.15	3114.96
522.35	2926.55
522.55	3127.25
522.75	3395.53
522.95	3006.42
523.14	2861.01
523.34	3233.74
523.54	3145.68
523.74	3211.22
523.94	3084.24
524.14	2992.08
524.34	3229.65
524.54	3295.18
524.73	3045.33
524.93	3344.33
525.13	3258.32
525.33	2971.60
525.53	3360.72
525.73	3461.07
525.93	3217.36
526.13	3088.34
526.32	2928.60
526.52	3497.93
526.72	3479.50
526.92	3055.57
527.12	2938.84
527.32	2985.94
527.52	3243.98
527.71	3155.92
527.91	3051.47
528.11	3153.87
528.31	3213.26
528.51	3022.80
528.71	3213.26
528.90	3391.44
529.10	3420.11
529.30	3153.87
529.50	2822.10
529.70	3278.80
529.90	3178.45
530.09	3043.28
530.29	2869.20
530.49	3131.34
530.69	3848.13
530.89	3200.98
531.09	3164.11
531.28	3180.50
531.48	3499.98
531.68	3078.10
531.88	3121.10
532.08	3450.83
532.28	3223.50
532.47	3121.10
532.67	3221.45
532.87	3405.77
533.07	3074.00
533.27	3106.77
533.46	3147.73
533.66	3332.05
533.86	3149.78
534.06	3037.14
534.26	2981.84
534.45	3274.70
534.65	3489.74
534.85	3223.50
535.05	3026.90
535.25	3411.92
535.44	2987.99
535.64	3139.54
535.84	3119.06
536.04	3133.39
536.24	3229.65
536.43	3012.56
536.63	3041.23
536.83	3266.51
537.03	3231.69
537.22	2959.31
537.42	2858.96
537.62	3346.38
537.82	3110.86
538.02	3254.22
538.21	3160.02
538.41	3872.71
538.61	3377.10
538.81	3139.54
539.00	3215.31
539.20	3000.27
539.40	3153.87
539.60	3061.71
539.79	3225.55
539.99	3270.61
540.19	3106.77
540.39	3069.91
540.58	3094.48
540.78	3534.79
540.98	3356.62
541.18	3170.26
541.37	3125.20
541.57	3229.65
541.77	3264.46
541.97	3033.04
542.16	2910.16
542.36	3172.30
542.56	3082.19
542.76	3196.88
542.95	3207.12
543.15	3426.25
543.35	3416.01
543.54	3033.04
543.74	2965.46
543.94	3559.37
544.14	3164.11
544.33	3155.92
544.53	3123.15
544.73	3223.50
544.93	3131.34
545.12	3020.75
545.32	3114.96
545.52	3289.04
545.71	3045.33
545.91	3074.00
546.11	2953.17
546.30	3133.39
546.50	3291.09
546.70	3078.10
546.90	3071.95
547.09	2897.88
547.29	3319.76
547.49	3186.64
547.68	3082.19
547.88	3162.06
548.08	3420.11
548.27	3377.10
548.47	3051.47
548.67	3190.74
548.87	3356.62
549.06	3065.81
549.26	2977.75
549.46	3317.71
549.65	3200.98
549.85	3067.86
550.05	3059.67
550.24	3018.71
550.44	3313.61
550.64	3059.67
550.83	3178.45
551.03	3575.75
551.23	3436.49
551.42	3090.38
551.62	3078.10
551.82	3276.75
552.01	3184.59
552.21	3344.33
552.41	3135.44
552.60	3594.19
552.80	3274.70
553.00	2979.79
553.19	3131.34
553.39	3723.21
553.59	3030.99
553.78	3186.64
553.98	3024.85
554.17	3035.09
554.37	3340.24
554.57	3168.21
554.76	2965.46
554.96	3168.21
555.16	3295.18
555.35	3108.82
555.55	3248.08
555.75	3264.46
555.94	3436.49
556.14	2813.91
556.33	3145.68
556.53	3200.98
556.73	3268.56
556.92	3041.23
557.12	2983.89
557.32	3747.78
557.51	3551.18
557.71	3090.38
557.90	3274.70
558.10	3479.50
558.30	3272.65
558.49	3086.29
558.69	3000.27
558.88	3360.72
559.08	3270.61
559.28	3057.62
559.47	3133.39
559.67	3385.29
559.86	3696.58
560.06	3051.47
560.26	3065.81
560.45	3428.30
560.65	3229.65
560.84	3370.96
561.04	2897.88
561.24	3477.45
561.43	3053.52
561.63	3350.48
561.82	3188.69
562.02	3352.52
562.22	3096.53
562.41	3084.24
562.61	3061.71
562.80	3004.37
563.00	3766.21
563.19	3057.62
563.39	3121.10
563.59	3325.90
563.78	3014.61
563.98	2762.71
564.17	3033.04
564.37	2918.36
564.56	3250.13
564.76	2930.64
564.96	3215.31
565.15	3348.43
565.35	3672.01
565.54	3086.29
565.74	3102.67
565.93	3364.81
566.13	3237.84
566.32	3133.39
566.52	3141.58
566.71	3295.18
566.91	3401.68
567.11	3188.69
567.30	3018.71
567.50	3495.88
567.69	3327.95
567.89	3065.81
568.08	2975.70
568.28	3368.91
568.47	3104.72
568.67	3045.33
568.86	3026.90
569.06	3377.10
569.25	3164.11
569.45	2887.64
569.64	3035.09
569.84	3256.27
570.04	3317.71
570.23	3065.81
570.43	3106.77
570.62	3246.03
570.82	3608.52
571.01	2908.12
571.21	3045.33
571.40	3086.29
571.60	3375.05
571.79	3117.01
571.99	3082.19
572.18	3092.43
572.38	3405.77
572.57	3078.10
572.77	3205.07
572.96	3708.87
573.16	3336.14
573.35	3104.72
573.55	3225.55
573.74	3526.60
573.94	3239.89
574.13	3026.90
574.33	3246.03
574.52	3545.03
574.71	3286.99
574.91	3176.40
575.10	2893.78
575.30	3098.58
575.49	3057.62
575.69	2996.18
575.88	2983.89
576.08	3241.93
576.27	3459.02
576.47	2957.27
576.66	3162.06
576.86	3542.99
577.05	3352.52
577.25	3182.54
577.44	3280.85
577.64	3139.54
577.83	3477.45
578.02	3041.23
578.22	3289.04
578.41	3641.29
578.61	3178.45
578.80	2910.16
579.00	3108.82
579.19	3266.51
579.39	3325.90
579.58	3196.88
579.77	3049.43
579.97	3524.55
580.16	3528.65
580.36	3235.79
580.55	3145.68
580.75	3373.00
580.94	3295.18
581.13	3237.84
581.33	3385.29
581.52	3219.41
581.72	3616.71
581.91	3180.50
582.11	3028.95
582.30	3463.12
582.49	3344.33
582.69	3319.76
582.88	3123.15
583.08	3311.57
583.27	3524.55
583.47	3172.30
583.66	3039.19
583.85	3037.14
584.05	3231.69
584.24	3207.12
584.44	3043.28
584.63	3481.55
584.82	3526.60
585.02	3368.91
585.21	3303.37
585.41	3366.86
585.60	3358.67
585.79	3262.41
585.99	3416.01
586.18	3315.66
586.37	4188.10
586.57	6240.16
586.76	17506.04
586.96	36607.44
587.15	50185.47
587.34	58625.15
587.54	62600.26
587.73	55540.91
587.93	40177.05
588.12	31024.68
588.31	25177.73
588.51	22242.99
588.70	20815.55
588.89	18257.64
589.09	15832.85
589.28	13573.94
589.47	10647.39
589.67	8136.58
589.86	6483.87
590.06	5076.91
590.25	4536.25
590.44	3846.09
590.64	3563.47
590.83	3508.17
591.02	3633.10
591.22	3076.05
591.41	3182.54
591.60	3282.89
591.80	3798.98
591.99	2910.16
592.18	3082.19
592.38	3399.63
592.57	3180.50
592.76	3018.71
592.96	3135.44
593.15	3252.17
593.34	3403.72
593.54	3016.66
593.73	3180.50
593.92	3395.53
594.12	3405.77
594.31	3110.86
594.50	3264.46
594.70	3344.33
594.89	3889.09
595.08	2977.75
595.28	3176.40
595.47	3966.92
595.66	3536.84
595.86	3047.38
596.05	2893.78
596.24	3297.23
596.43	3585.99
596.63	3213.26
596.82	3215.31
597.01	3432.40
597.21	3690.44
597.40	3059.67
597.59	3065.81
597.79	3196.88
597.98	3377.10
598.17	3237.84
598.36	3139.54
598.56	3534.79
598.75	3168.21
598.94	3141.58
599.14	3092.43
599.33	3180.50
599.52	3463.12
599.71	3172.30
599.91	3082.19
600.10	3454.92
600.29	3297.23
600.48	3127.25
600.68	3196.88
600.87	3377.10
601.06	3211.22
601.26	3274.70
601.45	3303.37
601.64	3194.83
601.83	3514.31
602.03	2951.12
602.22	2992.08
602.41	3516.36
602.60	3692.49
602.80	3205.07
602.99	3327.95
603.18	3205.07
603.37	3344.33
603.57	3028.95
603.76	3028.95
603.95	3508.17
604.14	3194.83
604.34	2953.17
604.53	2940.88
604.72	3286.99
604.91	3467.21
605.10	3043.28
605.30	2922.45
605.49	3745.73
605.68	3411.92
605.87	3112.91
606.07	3000.27
606.26	3250.13
606.45	3389.39
606.64	3022.80
606.84	2957.27
607.03	3303.37
607.22	3512.27
607.41	3157.97
607.60	3094.48
607.80	3573.71
607.99	3221.45
608.18	3114.96
608.37	3190.74
608.56	3139.54
608.76	3459.02
608.95	3262.41
609.14	3033.04
609.33	3481.55
609.52	3653.58
609.72	3205.07
609.91	3254.22
610.10	3346.38
610.29	3606.47
610.48	3207.12
610.68	3280.85
610.87	3213.26
611.06	3538.89
611.25	3086.29
611.44	3250.13
611.63	3264.46
611.83	3534.79
612.02	2928.60
612.21	3096.53
612.40	2922.45
612.59	3069.91
612.79	2955.22
612.98	3180.50
613.17	3672.01
613.36	3291.09
613.55	3219.41
613.74	3098.58
613.93	3327.95
614.13	3422.16
614.32	3375.05
614.51	3157.97
614.70	3260.37
614.89	3213.26
615.08	3200.98
615.28	3442.64
615.47	3149.78
615.66	3387.34
615.85	3141.58
616.04	3231.69
616.23	3250.13
616.42	3358.67
616.62	3080.14
616.81	3114.96
617.00	3260.37
617.19	3293.13
617.38	3090.38
617.57	3176.40
617.76	3377.10
617.95	3411.92
618.15	3225.55
618.34	3342.28
618.53	2953.17
618.72	3432.40
618.91	3188.69
619.10	3096.53
619.29	3315.66
619.48	3354.57
619.68	2934.74
619.87	2987.99
620.06	3051.47
620.25	3360.72
620.44	2996.18
620.63	2992.08
620.82	3340.24
621.01	3319.76
621.20	3078.10
621.39	3217.36
621.59	3338.19
621.78	3276.75
621.97	3092.43
622.16	3151.82
622.35	3352.52
622.54	3409.87
622.73	3172.30
622.92	2844.63
623.11	3540.94
623.30	3241.93
623.49	3155.92
623.68	2944.98
623.88	3567.56
624.07	3190.74
624.26	2987.99
624.45	3041.23
624.64	3194.83
624.83	3282.89
625.02	3131.34
625.21	3137.49
625.40	3340.24
625.59	3436.49
625.78	3151.82
625.97	3147.73
626.16	3526.60
626.35	3428.30
626.54	3102.67
626.74	3262.41
626.93	3286.99
627.12	3272.65
627.31	3114.96
627.50	3082.19
627.69	3401.68
627.88	3135.44
628.07	3014.61
628.26	2930.64
628.45	3125.20
628.64	3160.02
628.83	3106.77
629.02	2912.21
629.21	3495.88
629.40	3379.15
629.59	2977.75
629.78	3090.38
629.97	3266.51
630.16	3221.45
630.35	3016.66
630.54	3213.26
630.73	3129.30
630.92	3286.99
631.11	2955.22
631.30	3225.55
631.49	3483.59
631.68	3293.13
631.87	3139.54
632.06	2969.55
632.25	3764.17
632.44	3321.81
632.63	3131.34
632.82	3137.49
633.01	3254.22
633.20	3352.52
633.39	3078.10
633.58	2918.36
633.77	3336.14
633.96	3362.76
634.15	3217.36
634.34	3063.76
634.53	3336.14
634.72	3080.14
634.91	2891.73
635.10	3061.71
635.29	3428.30
635.48	3297.23
635.67	2944.98
635.86	2936.79
636.05	3524.55
636.24	3233.74
636.43	3084.24
636.62	3180.50
636.81	2856.92
637.00	3237.84
637.19	3039.19
637.38	3114.96
637.57	3200.98
637.76	3295.18
637.95	3297.23
638.14	3178.45
638.33	3391.44
638.52	3305.42
638.71	2969.55
638.89	2969.55
639.08	3803.08
639.27	3479.50
639.46	3340.24
639.65	3653.58
639.84	3905.48
640.03	4018.11
640.22	3659.72
640.41	3528.65
640.60	3418.06
640.79	3512.27
640.98	3364.81
641.17	3319.76
641.36	3467.21
641.55	3555.27
641.74	2996.18
641.92	2928.60
642.11	3121.10
642.30	3162.06
642.49	2977.75
642.68	3033.04
642.87	3356.62
643.06	3377.10
643.25	2961.36
643.44	2975.70
643.63	3213.26
643.82	3311.57
644.00	2953.17
644.19	3084.24
644.38	3043.28
644.57	3299.28
644.76	3065.81
644.95	3182.54
645.14	3323.85
645.33	3295.18
645.52	3162.06
645.71	2936.79
645.89	3008.47
646.08	3225.55
646.27	3067.86
646.46	3315.66
646.65	2998.23
646.84	3297.23
647.03	2944.98
647.22	3221.45
647.40	3313.61
647.59	3147.73
647.78	2906.07
647.97	3055.57
648.16	3078.10
648.35	3532.75
648.54	3377.10
648.73	3157.97
648.91	3475.40
649.10	3272.65
649.29	3067.86
649.48	2994.13
649.67	3334.09
649.86	3373.00
650.05	3051.47
650.23	3229.65
650.42	3266.51
650.61	3557.32
650.80	3383.24
650.99	3385.29
651.18	3475.40
651.36	3575.75
651.55	3000.27
651.74	3309.52
651.93	3137.49
652.12	3164.11
652.31	3065.81
652.49	3155.92
652.68	3209.17
652.87	3536.84
653.06	3190.74
653.25	3379.15
653.44	3321.81
653.62	3590.09
653.81	3045.33
654.00	3086.29
654.19	3491.79
654.38	3788.74
654.56	3172.30
654.75	2977.75
654.94	3321.81
655.13	3325.90
655.32	3008.47
655.51	3131.34
655.69	3145.68
655.88	3418.06
656.07	2926.55
656.26	3114.96
656.45	3078.10
656.63	3246.03
656.82	3049.43
657.01	3350.48
657.20	3176.40
657.38	3502.03
657.57	3061.71
657.76	2904.02
657.95	3409.87
658.14	3168.21
658.32	3164.11
658.51	2920.40
658.70	3319.76
658.89	3291.09
659.08	3127.25
659.26	3297.23
659.45	3051.47
659.64	3397.58
659.83	3065.81
660.01	3438.54
660.20	3280.85
660.39	3583.95
660.58	2805.72
660.76	3090.38
660.95	3012.56
661.14	3301.33
661.33	2881.49
661.51	3174.35
661.70	3139.54
661.89	3327.95
662.08	3114.96
662.26	3000.27
662.45	3121.10
662.64	3649.48
662.83	3149.78
663.01	2873.30
663.20	3227.60
663.39	3561.42
663.58	3037.14
663.76	3018.71
663.95	3321.81
664.14	3098.58
664.32	3127.25
664.51	2998.23
664.70	3033.04
664.89	3332.05
665.07	2942.93
665.26	3198.93
665.45	3022.80
665.64	3373.00
665.82	3049.43
666.01	3252.17
666.20	3039.19
666.38	3440.59
666.57	3395.53
666.76	5613.48
666.95	12744.51
667.13	20229.84
667.32	24462.99
667.51	27432.54
667.69	28661.32
667.88	23793.30
668.07	17254.14
668.25	14688.03
668.44	12711.74
668.63	11128.66
668.81	9574.25
669.00	8261.51
669.19	7550.86
669.38	6743.96
669.56	5611.43
669.75	4937.65
669.94	4409.28
670.12	3856.33
670.31	3383.24
670.50	3377.10
670.68	3536.84
670.87	3405.77
671.06	3153.87
671.24	3110.86
671.43	3575.75
671.62	3364.81
671.80	3123.15
671.99	3243.98
672.18	3262.41
672.36	3413.96
672.55	3164.11
672.74	3205.07
672.92	3200.98
673.11	3430.35
673.29	2992.08
673.48	3264.46
673.67	3184.59
673.85	3448.78
674.04	2971.60
674.23	3196.88
674.41	3659.72
674.60	2998.23
674.79	2895.83
674.97	2951.12
675.16	3405.77
675.34	3540.94
675.53	3045.33
675.72	3094.48
675.90	3706.82
676.09	3221.45
676.28	3172.30
676.46	2893.78
676.65	3434.44
676.83	3078.10
677.02	3164.11
677.21	3168.21
677.39	3360.72
677.58	3123.15
677.77	3119.06
677.95	2906.07
678.14	3168.21
678.32	3190.74
678.51	3049.43
678.70	3450.83
678.88	3196.88
679.07	3254.22
679.25	3078.10
679.44	3076.05
679.63	3059.67
679.81	3295.18
680.00	3373.00
680.18	3117.01
680.37	3590.09
680.55	3258.32
680.74	2938.84
680.93	2865.11
681.11	3286.99
681.30	3291.09
681.48	3041.23
681.67	3082.19
681.85	3311.57
682.04	3141.58
682.23	3192.78
682.41	3248.08
682.60	3260.37
682.78	3231.69
682.97	3024.85
683.15	3166.16
683.34	3354.57
683.53	3545.03
683.71	2944.98
683.90	3096.53
684.08	3672.01
684.27	3170.26
684.45	3088.34
684.64	3340.24
684.82	3268.56
685.01	3393.48
685.19	3039.19
685.38	3430.35
685.57	3368.91
685.75	3096.53
685.94	3059.67
686.12	2996.18
686.31	3198.93
686.49	3616.71
686.68	2830.29
686.86	3153.87
687.05	3229.65
687.23	3575.75
687.42	3045.33
687.60	2975.70
687.79	3440.59
687.97	3534.79
688.16	3172.30
688.34	3248.08
688.53	2967.51
688.71	3340.24
688.90	3409.87
689.08	3108.82
689.27	2883.54
689.45	3385.29
689.64	3225.55
689.82	3131.34
690.01	3373.00
690.19	3459.02
690.38	3176.40
690.56	3155.92
690.75	3076.05
690.93	3164.11
691.12	3076.05
691.30	3143.63
691.49	3102.67
691.67	3213.26
691.86	3436.49
692.04	3078.10
692.23	3205.07
692.41	3297.23
692.60	3502.03
692.78	3360.72
692.97	3334.09
693.15	3448.78
693.34	3379.15
693.52	3289.04
693.71	3180.50
693.89	3168.21
694.08	2987.99
694.26	3166.16
694.44	3360.72
694.63	3383.24
694.81	2961.36
695.00	3131.34
695.18	3573.71
695.37	3850.18
695.55	3276.75
695.74	3260.37
695.92	3188.69
696.10	3510.22
696.29	2992.08
696.47	3090.38
696.66	3041.23
696.84	3119.06
697.03	3082.19
697.21	3373.00
697.40	4695.99
697.58	3463.12
697.76	3145.68
697.95	3010.51
698.13	3051.47
698.32	3217.36
698.50	3127.25
698.68	3149.78
698.87	3370.96
699.05	3581.90
699.24	3004.37
699.42	3035.09
699.61	3456.97
699.79	3295.18
699.97	3125.20
700.16	3006.42
700.34	3078.10
700.53	3309.52
700.71	3342.28
700.89	3221.45
701.08	3250.13
701.26	3299.28
701.45	3452.88
701.63	3041.23
701.81	3203.02
702.00	3131.34
702.18	3090.38
702.37	3024.85
702.55	3549.13
702.73	3366.86
702.92	3061.71
703.10	3422.16
703.28	3450.83
703.47	3018.71
703.65	3358.67
703.84	3278.80
704.02	3137.49
704.20	3555.27
704.39	3069.91
704.57	3117.01
704.75	3438.54
704.94	3411.92
705.12	3301.33
705.30	3995.59
705.49	8466.30
705.67	16828.16
705.86	23072.42
706.04	26457.71
706.22	28890.70
706.41	28085.84
706.59	21108.41
706.77	16422.66
706.96	14343.97
707.14	12789.56
707.32	11224.92
707.51	9586.54
707.69	7901.06
707.87	6512.54
708.06	5191.60
708.24	4509.63
708.42	4175.81
708.61	4165.57
708.79	3307.47
708.97	3330.00
709.16	3330.00
709.34	3373.00
709.52	3059.67
709.71	3069.91
709.89	3383.24
710.07	3024.85
710.26	3076.05
710.44	3121.10
710.62	3432.40
710.80	3258.32
710.99	3219.41
711.17	3303.37
711.35	3117.01
711.54	3143.63
711.72	3243.98
711.90	3147.73
712.09	3379.15
712.27	3186.64
712.45	3196.88
712.63	3139.54
712.82	3266.51
713.00	3270.61
713.18	3217.36
713.37	3297.23
713.55	3385.29
713.73	3334.09
713.91	3256.27
714.10	2985.94
714.28	3321.81
714.46	3340.24
714.65	3266.51
714.83	3127.25
715.01	3284.94
715.19	3250.13
715.38	2938.84
715.56	3289.04
715.74	3213.26
715.92	3121.10
716.11	3444.68
716.29	2836.44
716.47	3260.37
716.65	3264.46
716.84	3000.27
717.02	3139.54
717.20	2906.07
717.38	3082.19
717.57	3219.41
717.75	3069.91
717.93	3182.54
718.11	3446.73
718.30	3028.95
718.48	3166.16
718.66	3524.55
718.84	3461.07
719.03	3082.19
719.21	2981.84
719.39	3626.95
719.57	3411.92
719.75	3151.82
719.94	3076.05
720.12	3276.75
720.30	3289.04
720.48	3176.40
720.67	3100.62
720.85	3069.91
721.03	3237.84
721.21	3039.19
721.39	3135.44
721.58	3446.73
721.76	3301.33
721.94	3164.11
722.12	3182.54
722.30	3674.06
722.49	3213.26
722.67	3168.21
722.85	3196.88
723.03	2975.70
723.21	3168.21
723.40	3104.72
723.58	3258.32
723.76	3424.20
723.94	3512.27
724.12	3143.63
724.30	3340.24
724.49	3446.73
724.67	3074.00
724.85	3190.74
725.03	3004.37
725.21	3422.16
725.40	3487.69
725.58	3049.43
725.76	3327.95
725.94	3323.85
726.12	3125.20
726.30	3110.86
726.49	3080.14
726.67	3180.50
726.85	3393.48
727.03	3966.92
727.21	5527.47
727.39	7110.55
727.57	7939.97
727.76	8247.17
727.94	8275.84
728.12	7192.47
728.30	6023.08
728.48	5470.12
728.66	5038.00
728.84	4779.96
729.03	4134.85
729.21	3891.14
729.39	3559.37
729.57	3477.45
729.75	3411.92
729.93	3370.96
730.11	3057.62
730.30	3104.72
730.48	3231.69
730.66	3190.74
730.84	3151.82
731.02	3291.09
731.20	3166.16
731.38	3160.02
731.56	2914.26
731.74	3098.58
731.93	3274.70
732.11	3184.59
732.29	3102.67
732.47	3454.92
732.65	3307.47
732.83	3276.75
733.01	3149.78
733.19	3213.26
733.37	3389.39
733.56	3098.58
733.74	3022.80
733.92	3643.34
734.10	3221.45
734.28	3262.41
734.46	2934.74
734.64	3164.11
734.82	3268.56
735.00	3037.14
735.18	3016.66
735.36	3274.70
735.54	3205.07
735.73	3106.77
735.91	3293.13
736.09	3575.75
736.27	3229.65
736.45	3063.76
736.63	2863.06
736.81	3164.11
736.99	3475.40
737.17	3389.39
737.35	3041.23
737.53	3217.36
737.71	3354.57
737.89	3299.28
738.07	3030.99
738.25	3114.96
738.43	3002.32
738.61	3094.48
738.80	2963.41
738.98	2996.18
739.16	3174.35
739.34	2994.13
739.52	3385.29
739.70	3274.70
739.88	3403.72
740.06	3221.45
740.24	2818.00
740.42	3514.31
740.60	2869.20
740.78	3076.05
740.96	2854.87
741.14	3143.63
741.32	3362.76
741.50	2942.93
741.68	3356.62
741.86	3553.23
742.04	3016.66
742.22	2961.36
742.40	3071.95
742.58	3409.87
742.76	3137.49
742.94	3352.52
743.12	2914.26
743.30	3303.37
743.48	3336.14
743.66	2992.08
743.84	3119.06
744.02	3180.50
744.20	3241.93
744.38	2990.03
744.56	3055.57
744.74	3651.53
744.92	3358.67
745.10	3311.57
745.28	3094.48
745.46	3522.51
745.64	3278.80
745.82	3178.45
746.00	3123.15
746.18	3344.33
746.36	3059.67
746.54	3164.11
746.72	3094.48
746.90	3051.47
747.08	3549.13
747.26	3129.30
747.44	3209.17
747.62	3399.63
747.80	3340.24
747.98	3143.63
748.15	3067.86
748.33	3688.39
748.51	3241.93
748.69	3203.02
748.87	2992.08
749.05	3278.80
749.23	3205.07
749.41	3018.71
749.59	2983.89
749.77	3454.92
749.95	3155.92
750.13	3037.14
750.31	3262.41
750.49	3227.60
750.67	3401.68
750.85	3297.23
751.03	3094.48
751.20	3639.24
751.38	3321.81
751.56	3151.82
751.74	3053.52
751.92	3219.41
752.10	3053.52
752.28	3264.46
752.46	3035.09
752.64	3315.66
752.82	3272.65
753.00	3198.93
753.18	3114.96
753.35	3207.12
753.53	3299.28
753.71	3018.71
753.89	3131.34
754.07	3368.91
754.25	3499.98
754.43	3114.96
754.61	2994.13
754.79	3379.15
754.97	3160.02
755.14	3217.36
755.32	2887.64
755.50	3254.22
755.68	3397.58
755.86	2899.92
756.04	3002.32
756.22	2871.25
756.40	3411.92
756.57	3395.53
756.75	3061.71
756.93	3483.59
757.11	3409.87
757.29	3016.66
757.47	3002.32
757.65	3012.56
757.82	2840.53
758.00	3049.43
758.18	3041.23
758.36	3157.97
758.54	3581.90
758.72	2848.72
758.90	3164.11
759.07	3270.61
759.25	3043.28
759.43	3231.69
759.61	2873.30
759.79	4495.29
759.97	3461.07
760.15	3104.72
760.32	3133.39
760.50	3399.63
760.68	3526.60
760.86	2971.60
761.04	3342.28
761.22	3450.83
761.39	3282.89
761.57	3200.98
761.75	3016.66
761.93	3403.72
762.11	3327.95
762.28	3162.06
762.46	3018.71
762.64	3426.25
762.82	2963.41
763.00	3057.62
763.18	3278.80
763.35	3078.10
763.53	3469.26
763.71	3188.69
763.89	3020.75
764.07	3321.81
764.24	3233.74
764.42	3198.93
764.60	3219.41
764.78	3342.28
764.96	3452.88
765.13	3237.84
765.31	2953.17
765.49	3440.59
765.67	3061.71
765.84	3053.52
766.02	3041.23
766.20	3022.80
766.38	3315.66
766.56	3192.78
766.73	3291.09
766.91	3225.55
767.09	3186.64
767.27	3145.68
767.44	3043.28
767.62	3370.96
767.80	3323.85
767.98	3022.80
768.15	3047.38
768.33	3444.68
768.51	3448.78
768.69	3246.03
768.87	3016.66
769.04	3297.23
769.22	3891.14
769.40	3176.40
769.58	3297.23
769.75	3321.81
769.93	3540.94
770.11	3112.91
770.28	2959.31
770.46	3422.16
770.64	3389.39
770.82	3061.71
770.99	3020.75
771.17	3436.49
771.35	3246.03
771.53	3053.52
771.70	3035.09
771.88	3444.68
772.06	3198.93
772.23	3080.14
772.41	3162.06
772.59	3237.84
772.77	3084.24
772.94	3123.15
773.12	3188.69
773.30	3225.55
773.47	3248.08
773.65	2994.13
773.83	3305.42
774.01	3231.69
774.18	2955.22
774.36	3108.82
774.54	2959.31
774.71	3315.66
774.89	3045.33
775.07	3039.19
775.24	3125.20
775.42	3178.45
775.60	3565.51
775.78	2987.99
775.95	2924.50
776.13	2983.89
776.31	3059.67
776.48	3319.76
776.66	3223.50
776.84	3211.22
777.01	3121.10
777.19	3028.95
777.37	2971.60
777.54	3348.43
777.72	3604.42
777.90	3139.54
778.07	3002.32
778.25	3962.82
778.43	3483.59
778.60	3030.99
778.78	3090.38
778.96	3573.71
779.13	3008.47
779.31	3209.17
779.49	3139.54
779.66	3274.70
779.84	3190.74
780.01	3016.66
780.19	3078.10
780.37	3596.23
780.54	3368.91
780.72	2965.46
780.90	3043.28
781.07	3241.93
781.25	3168.21
781.43	3325.90
781.60	3071.95
781.78	3471.31
781.95	3272.65
782.13	3008.47
782.31	3108.82
782.48	2965.46
782.66	3231.69
782.83	3327.95
783.01	3258.32
783.19	3387.34
783.36	3239.89
783.54	3037.14
783.72	3151.82
783.89	3178.45
784.07	3346.38
784.24	3243.98
784.42	3198.93
784.60	3305.42
784.77	3330.00
784.95	2791.38
785.12	3024.85
785.30	3340.24
785.47	3112.91
785.65	2973.65
785.83	3123.15
786.00	3168.21
786.18	3221.45
786.35	2979.79
786.53	2938.84
786.71	3528.65
786.88	3411.92
787.06	3147.73
787.23	3117.01
787.41	3098.58
787.58	3254.22
787.76	2959.31
787.94	3114.96
788.11	3346.38
788.29	3059.67
788.46	3080.14
788.64	2959.31
788.81	3180.50
788.99	3117.01
789.16	3098.58
789.34	3090.38
789.52	3108.82
789.69	3147.73
789.87	2901.97
790.04	3041.23
790.22	3307.47
790.39	3667.91
790.57	2983.89
790.74	3024.85
790.92	3602.38
791.09	2947.03
791.27	3125.20
791.44	3149.78
791.62	3231.69
791.79	3381.20
791.97	3123.15
792.15	3379.15
792.32	3377.10
792.50	3442.64
792.67	3248.08
792.85	3297.23
793.02	3327.95
793.20	3168.21
793.37	3006.42
793.55	2994.13
793.72	3069.91
793.90	3379.15
794.07	3090.38
794.25	3014.61
794.42	3286.99
794.60	3184.59
794.77	3078.10
794.95	3205.07
795.12	3426.25
795.30	3190.74
795.47	2852.82
795.65	3373.00
795.82	3342.28
796.00	3174.35
796.17	3178.45
796.34	2983.89
796.52	3295.18
796.69	3391.44
796.87	3164.11
797.04	3157.97
797.22	3438.54
797.39	3264.46
797.57	3254.22
797.74	3135.44
797.92	3336.14
798.09	3108.82
798.27	3397.58
798.44	3131.34
798.62	3080.14
798.79	3215.31
798.96	3172.30
799.14	3043.28
799.31	3837.89
799.49	3188.69
799.66	3096.53
799.84	3143.63
800.01	3024.85
800.19	3385.29
800.36	2838.48
800.53	3104.72
800.71	3377.10
800.88	3532.75
801.06	3020.75
801.23	3049.43
801.41	3157.97
801.58	3174.35
801.75	3123.15
801.93	3112.91
802.10	3434.44
802.28	3219.41
802.45	3078.10
802.63	3241.93
802.80	3512.27
802.97	3147.73
803.15	3106.77
803.32	3059.67
803.50	3074.00
803.67	3094.48
803.84	3088.34
804.02	3151.82
804.19	3131.34
804.37	2818.00
804.54	2854.87
804.71	3117.01
804.89	3268.56
805.06	3090.38
805.24	3035.09
805.41	2904.02
805.58	3137.49
805.76	3780.55
805.93	2979.79
806.10	3235.79
806.28	3373.00
806.45	3270.61
806.63	3203.02
806.80	3106.77
806.97	3301.33
807.15	3364.81
807.32	3139.54
807.49	3063.76
807.67	2992.08
807.84	3317.71
808.01	2987.99
808.19	3291.09
808.36	3690.44
808.54	3133.39
808.71	2998.23
808.88	2992.08
809.06	3465.16
809.23	3502.03
809.40	3090.38
809.58	3063.76
809.75	3149.78
809.92	3041.23
810.10	3344.33
810.27	3114.96
810.44	3364.81
810.62	3409.87
810.79	3119.06
810.96	3108.82
811.14	3129.30
811.31	3360.72
811.48	3215.31
811.66	3059.67
811.83	3547.08
812.00	3346.38
812.18	3225.55
812.35	3405.77
812.52	3209.17
812.69	3223.50
812.87	3088.34
813.04	3008.47
813.21	3190.74
813.39	3100.62
813.56	3055.57
813.73	3321.81
813.91	2947.03
814.08	3258.32
814.25	3084.24
814.42	2838.48
814.60	3237.84
814.77	3356.62
814.94	2992.08
815.12	3139.54
815.29	3585.99
815.46	3198.93
815.63	3145.68
815.81	3053.52
815.98	3155.92
816.15	3168.21
816.33	3131.34
816.50	3139.54
816.67	3211.22
816.84	3237.84
817.02	2987.99
817.19	3010.51
817.36	3336.14
817.53	3336.14
817.71	2967.51
817.88	3182.54
818.05	3221.45
818.22	3231.69
818.40	3246.03
818.57	3090.38
818.74	3225.55
818.91	3291.09
819.09	3182.54
819.26	3180.50
819.43	3102.67
819.60	3082.19
819.78	3241.93
819.95	3137.49
820.12	3082.19
820.29	3573.71
820.47	3332.05
820.64	2992.08
820.81	2975.70
820.98	3104.72
821.15	3094.48
821.33	3145.68
821.50	2912.21
821.67	3424.20
821.84	3049.43
822.02	3078.10
822.19	3448.78
822.36	3164.11
822.53	3030.99
822.70	2969.55
822.88	3147.73
823.05	3577.80
823.22	3143.63
823.39	3090.38
823.56	3176.40
823.74	3618.76
823.91	2891.73
824.08	2996.18
824.25	3078.10
824.42	3569.61
824.60	2951.12
824.77	3168.21
824.94	3112.91
825.11	3440.59
825.28	2881.49
825.45	3237.84
825.63	3307.47
825.80	3082.19
825.97	3229.65
826.14	3104.72
826.31	2983.89
826.48	3368.91
826.66	3012.56
826.83	3059.67
827.00	3207.12
827.17	3110.86
827.34	3127.25
827.51	3002.32
827.69	3155.92
827.86	2957.27
828.03	3071.95
828.20	3028.95
828.37	3121.10
828.54	3342.28
828.71	2996.18
828.89	3155.92
829.06	3289.04
829.23	3530.70
829.40	3135.44
829.57	3026.90
829.74	3452.88
829.91	3094.48
830.09	3084.24
830.26	3219.41
830.43	3672.01
830.60	3235.79
830.77	3223.50
830.94	3241.93
831.11	3475.40
831.28	3119.06
831.46	3213.26
831.63	3076.05
831.80	3456.97
831.97	3049.43
832.14	3094.48
832.31	3084.24
832.48	3276.75
832.65	3391.44
832.82	3188.69
832.99	3137.49
833.17	3053.52
833.34	3512.27
833.51	3043.28
833.68	2830.29
833.85	3549.13
834.02	3018.71
834.19	2971.60
834.36	3016.66
834.53	3456.97
834.70	3483.59
834.87	3076.05
835.04	2863.06
835.22	3131.34
835.39	3149.78
835.56	2926.55
835.73	2947.03
835.90	3530.70
836.07	3151.82
836.24	3028.95
836.41	3041.23
836.58	3160.02
836.75	3526.60
836.92	2901.97
837.09	2865.11
837.26	3461.07
837.43	3366.86
837.60	2969.55
837.77	2992.08
837.94	3434.44
838.12	3512.27
838.29	2813.91
838.46	2832.34
838.63	3022.80
838.80	3547.08
838.97	3012.56
839.14	2885.59
839.31	3262.41
839.48	3313.61
839.65	2891.73
839.82	3016.66
839.99	3317.71
840.16	3225.55
840.33	2858.96
840.50	2969.55
840.67	3110.86
840.84	2756.57
841.01	2934.74
841.18	2904.02
841.35	3272.65
841.52	3385.29
841.69	3241.93
841.86	2987.99
842.03	3219.41
842.20	3461.07
842.37	2930.64
842.54	2981.84
842.71	3164.11
842.88	2955.22
843.05	2895.83
843.22	2940.88
843.39	3444.68
843.56	3098.58
843.73	2871.25
843.90	3045.33
844.07	3325.90
844.24	3424.20
844.41	2996.18
844.58	2977.75
844.75	3233.74
844.92	3360.72
845.09	2987.99
845.26	3002.32
845.43	3461.07
845.60	3117.01
845.77	3065.81
845.94	3000.27
846.10	3430.35
846.27	3024.85
846.44	2764.76
846.61	2820.05
846.78	3379.15
846.95	3385.29
847.12	2846.68
847.29	2877.40
847.46	3139.54
847.63	3438.54
847.80	2820.05
847.97	2926.55
848.14	3747.78
848.31	3172.30
848.48	2781.14
848.65	2844.63
848.82	3164.11
848.98	3819.46
849.15	3147.73
849.32	3114.96
849.49	3473.36
849.66	3327.95
849.83	2918.36
850.00	2922.45
850.17	3399.63
850.34	3147.73
850.51	2934.74
850.68	2959.31
850.85	3749.83
851.01	3311.57
851.18	2799.57
851.35	2934.74
851.52	3370.96
851.69	3577.80
851.86	2889.68
852.03	2910.16
852.20	3362.76
852.37	3280.85
852.53	2785.24
852.70	2879.44
852.87	3315.66
853.04	3389.39
853.21	2854.87
853.38	3145.68
853.55	3487.69
853.72	3604.42
853.89	2785.24
854.05	2828.24
854.22	3155.92
854.39	3119.06
854.56	2863.06
854.73	3106.77
854.90	3123.15
855.07	3205.07
855.23	2832.34
855.40	2838.48
855.57	3151.82
855.74	2881.49
855.91	3117.01
856.08	2688.98
856.25	3106.77
856.41	3127.25
856.58	2787.29
856.75	2987.99
856.92	3065.81
857.09	3438.54
857.26	2756.57
857.42	2955.22
857.59	3375.05
857.76	3180.50
857.93	2809.81
858.10	3026.90
858.27	3117.01
858.43	3262.41
858.60	2910.16
858.77	2863.06
858.94	3114.96
859.11	3532.75
859.27	3045.33
859.44	2828.24
859.61	3633.10
859.78	3334.09
859.95	2899.92
860.12	2846.68
860.28	3684.30
860.45	3602.38
860.62	2959.31
860.79	3012.56
860.95	3286.99
861.12	3061.71
861.29	2830.29
861.46	2832.34
861.63	3260.37
861.79	3258.32
861.96	2846.68
862.13	2881.49
862.30	3553.23
862.47	3172.30
862.63	2881.49
862.80	2965.46
862.97	3471.31
863.14	3311.57
863.30	2955.22
863.47	2772.95
863.64	3647.43
863.81	3305.42
863.97	2787.29
864.14	2987.99
864.31	3258.32
864.48	3307.47
864.65	2912.21
864.81	3000.27
864.98	3370.96
865.15	3471.31
865.32	3033.04
865.48	2961.36
865.65	3561.42
865.82	3135.44
865.98	2996.18
866.15	2998.23
866.32	3268.56
866.49	3123.15
866.65	3004.37
866.82	2887.64
866.99	3301.33
867.16	3135.44
867.32	2922.45
867.49	2838.48
867.66	3182.54
867.83	3225.55
867.99	2871.25
868.16	2951.12
868.33	3141.58
868.49	3205.07
868.66	2975.70
868.83	3035.09
868.99	3272.65
869.16	3250.13
869.33	3067.86
869.50	2961.36
869.66	3266.51
869.83	3225.55
870.00	2844.63
870.16	3016.66
870.33	3274.70
870.50	3397.58
870.66	2953.17
870.83	2828.24
871.00	3264.46
871.17	3346.38
871.33	3065.81
871.50	2918.36
871.67	3219.41
871.83	2928.60
872.00	3006.42
872.17	2910.16
872.33	3672.01
872.50	3454.92
872.67	2920.40
872.83	2975.70
873.00	3330.00
873.17	3297.23
873.33	2899.92
873.50	2953.17
873.67	3088.34
873.83	3119.06
874.00	2871.25
874.16	3090.38
874.33	3209.17
874.50	3012.56
874.66	2863.06
874.83	3035.09
875.00	3381.20
875.16	3491.79
875.33	2992.08
875.50	2772.95
875.66	3182.54
875.83	3360.72
875.99	3014.61
876.16	2975.70
876.33	3102.67
876.49	3219.41
876.66	2928.60
876.83	2944.98
876.99	2912.21
877.16	3188.69
877.32	2830.29
877.49	3012.56
877.66	3368.91
877.82	3524.55
877.99	3076.05
878.15	3237.84
878.32	3223.50
878.49	3344.33
878.65	2977.75
878.82	3164.11
878.98	3160.02
879.15	3448.78
879.32	3094.48
879.48	3102.67
879.65	3174.35
879.81	3053.52
879.98	2983.89
880.15	2920.40
880.31	3448.78
880.48	3088.34
880.64	2996.18
880.81	3131.34
880.97	3565.51
881.14	3483.59
881.31	2861.01
881.47	3125.20
881.64	3207.12
881.80	2996.18
881.97	3184.59
882.13	2942.93
882.30	3045.33
882.47	3157.97
882.63	2918.36
882.80	2918.36
882.96	3141.58
883.13	3358.67
883.29	2942.93
883.46	2967.51
883.62	3635.14
883.79	3317.71
883.95	3100.62
884.12	2926.55
884.29	3354.57
884.45	3293.13
884.62	2906.07
884.78	2893.78
884.95	3598.28
885.11	2967.51
885.28	3014.61
885.44	2992.08
885.61	3360.72
885.77	3497.93
885.94	3065.81
886.10	2961.36
886.27	3276.75
886.43	3594.19
886.60	3106.77
886.76	2938.84
886.93	3076.05
887.09	3262.41
887.26	2820.05
887.42	3008.47
887.59	3418.06
887.75	3719.11
887.92	3143.63
888.08	2938.84
888.25	3629.00
888.41	3471.31
888.58	2953.17
888.74	2990.03
888.91	3125.20
>>>>>End Processed Spectral Data<<<<<
