SpectraSuite Data File
++++++++++++++++++++++++++++++++++++
Date: Fri May 06 08:13:56 CEST 2016
User: root
Dark Spectrum Present: No
Reference Spectrum Present: No
Number of Sampled Component Spectra: 1
Spectrometers: USB4C02835
Integration Time (usec): 100000 (USB4C02835)
Spectra Averaged: 1 (USB4C02835)
Boxcar Smoothing: 0 (USB4C02835)
Correct for Electrical Dark: No (USB4C02835)
Strobe/Lamp Enabled: No (USB4C02835)
Correct for Detector Non-linearity: No (USB4C02835)
Correct for Stray Light: No (USB4C02835)
Number of Pixels in Processed Spectrum: 3648
>>>>>Begin Processed Spectral Data<<<<<
177.47	2318.30
177.69	2318.30
177.91	2318.30
178.13	2215.90
178.36	2351.07
178.58	3045.33
178.80	3147.73
179.02	2955.22
179.24	3106.77
179.46	2777.05
179.68	2893.78
179.90	3205.07
180.13	3241.93
180.35	2736.09
180.57	2846.68
180.79	3430.35
181.01	3155.92
181.23	2883.54
181.45	2918.36
181.67	3344.33
181.90	3426.25
182.12	2873.30
182.34	2752.47
182.56	3465.16
182.78	3364.81
183.00	2795.48
183.22	2942.93
183.44	2891.73
183.66	3885.00
183.89	2957.27
184.11	2934.74
184.33	3424.20
184.55	3504.07
184.77	2795.48
184.99	2889.68
185.21	3123.15
185.43	3856.33
185.65	2893.78
185.87	2744.28
186.10	3794.89
186.32	3696.58
186.54	2994.13
186.76	2955.22
186.98	3454.92
187.20	3166.16
187.42	2938.84
187.64	2791.38
187.86	3407.82
188.08	3536.84
188.30	2795.48
188.52	2942.93
188.75	3614.66
188.97	3600.33
189.19	2842.58
189.41	2750.42
189.63	3350.48
189.85	3237.84
190.07	2787.29
190.29	2707.41
190.51	3381.20
190.73	3065.81
190.95	2998.23
191.17	2949.08
191.39	3069.91
191.61	3182.54
191.84	2877.40
192.06	2973.65
192.28	2998.23
192.50	3942.34
192.72	3010.51
192.94	2942.93
193.16	3563.47
193.38	3338.19
193.60	2762.71
193.82	3041.23
194.04	3489.74
194.26	3344.33
194.48	2922.45
194.70	2861.01
194.92	3262.41
195.14	3418.06
195.36	2811.86
195.58	2947.03
195.80	3282.89
196.02	3160.02
196.24	2789.33
196.46	2910.16
196.69	3157.97
196.91	3788.74
197.13	2951.12
197.35	2910.16
197.57	3618.76
197.79	3416.01
198.01	2889.68
198.23	2875.35
198.45	3395.53
198.67	2992.08
198.89	2625.50
199.11	2932.69
199.33	3153.87
199.55	2848.72
199.77	2838.48
199.99	2973.65
200.21	3170.26
200.43	3360.72
200.65	2738.13
200.87	2715.61
201.09	3373.00
201.31	3239.89
201.53	2811.86
201.75	2973.65
201.97	3381.20
202.19	3260.37
202.41	2979.79
202.63	2987.99
202.85	3373.00
203.07	3471.31
203.29	2924.50
203.51	2719.70
203.73	3168.21
203.95	3815.37
204.17	2865.11
204.39	3028.95
204.61	3178.45
204.83	3102.67
205.05	3010.51
205.27	2963.41
205.49	3762.12
205.71	3270.61
205.93	2789.33
206.15	2803.67
206.37	3291.09
206.59	3344.33
206.81	2648.02
207.03	2703.32
207.25	3065.81
207.47	3420.11
207.69	2760.66
207.91	3082.19
208.13	3549.13
208.34	3168.21
208.56	2828.24
208.78	2885.59
209.00	3264.46
209.22	3213.26
209.44	2828.24
209.66	2813.91
209.88	3258.32
210.10	3256.27
210.32	2840.53
210.54	2967.51
210.76	3213.26
210.98	3475.40
211.20	2674.65
211.42	2938.84
211.64	3526.60
211.86	3420.11
212.08	2869.20
212.30	2934.74
212.52	3225.55
212.74	3342.28
212.96	2891.73
213.17	3000.27
213.39	3434.44
213.61	3674.06
213.83	2867.16
214.05	2797.53
214.27	3450.83
214.49	3049.43
214.71	2815.96
214.93	3004.37
215.15	3313.61
215.37	3450.83
215.59	2707.41
215.81	2969.55
216.03	3549.13
216.24	3350.48
216.46	2815.96
216.68	2828.24
216.90	3540.94
217.12	3493.83
217.34	2811.86
217.56	3002.32
217.78	3551.18
218.00	3395.53
218.22	2928.60
218.44	2990.03
218.66	3305.42
218.87	3581.90
219.09	2924.50
219.31	2828.24
219.53	3358.67
219.75	3160.02
219.97	2940.88
220.19	2883.54
220.41	3223.50
220.63	3600.33
220.85	2893.78
221.06	2926.55
221.28	3598.28
221.50	3420.11
221.72	2840.53
221.94	2770.90
222.16	3352.52
222.38	3456.97
222.60	2791.38
222.82	2895.83
223.03	3379.15
223.25	3086.29
223.47	2799.57
223.69	3090.38
223.91	3407.82
224.13	3274.70
224.35	2731.99
224.57	3090.38
224.78	3397.58
225.00	3065.81
225.22	3004.37
225.44	2729.94
225.66	3409.87
225.88	3215.31
226.10	2955.22
226.32	2910.16
226.53	3583.95
226.75	3221.45
226.97	2869.20
227.19	2844.63
227.41	3143.63
227.63	3174.35
227.85	2666.46
228.06	2912.21
228.28	3330.00
228.50	3471.31
228.72	2701.27
228.94	2742.23
229.16	2955.22
229.37	3004.37
229.59	2738.13
229.81	3125.20
230.03	3186.64
230.25	3018.71
230.47	2723.80
230.69	2852.82
230.90	3393.48
231.12	3133.39
231.34	2904.02
231.56	2994.13
231.78	3002.32
232.00	3231.69
232.21	2856.92
232.43	2936.79
232.65	2858.96
232.87	3321.81
233.09	2770.90
233.30	2770.90
233.52	3559.37
233.74	3264.46
233.96	2797.53
234.18	3010.51
234.40	3221.45
234.61	3704.78
234.83	2813.91
235.05	2861.01
235.27	3764.17
235.49	3473.36
235.70	2719.70
235.92	2863.06
236.14	3348.43
236.36	3762.12
236.58	2787.29
236.79	2955.22
237.01	3270.61
237.23	3368.91
237.45	3106.77
237.67	2873.30
237.88	3338.19
238.10	3598.28
238.32	2830.29
238.54	2785.24
238.76	3270.61
238.97	3074.00
239.19	2787.29
239.41	3043.28
239.63	3553.23
239.85	3127.25
240.06	2955.22
240.28	2852.82
240.50	3499.98
240.72	3198.93
240.93	2723.80
241.15	2996.18
241.37	3231.69
241.59	3549.13
241.81	2838.48
242.02	2951.12
242.24	3325.90
242.46	3436.49
242.68	2693.08
242.89	2822.10
243.11	3454.92
243.33	3270.61
243.55	2852.82
243.76	2867.16
243.98	3149.78
244.20	3274.70
244.42	2820.05
244.64	2830.29
244.85	3012.56
245.07	3129.30
245.29	2854.87
245.51	2977.75
245.72	3377.10
245.94	3514.31
246.16	2852.82
246.38	2981.84
246.59	3117.01
246.81	3209.17
247.03	2820.05
247.24	2783.19
247.46	3119.06
247.68	3346.38
247.90	2760.66
248.11	2904.02
248.33	3483.59
248.55	3325.90
248.77	2926.55
248.98	2852.82
249.20	3622.86
249.42	3338.19
249.64	2834.39
249.85	2865.11
250.07	3074.00
250.29	3487.69
250.50	2928.60
250.72	2801.62
250.94	3411.92
251.16	3651.53
251.37	2883.54
251.59	2994.13
251.81	3385.29
252.02	3598.28
252.24	2713.56
252.46	2977.75
252.68	3160.02
252.89	3139.54
253.11	2738.13
253.33	3024.85
253.54	3553.23
253.76	3063.76
253.98	2889.68
254.20	2850.77
254.41	3018.71
254.63	3270.61
254.85	2734.04
255.06	3022.80
255.28	3325.90
255.50	3241.93
255.71	2820.05
255.93	2703.32
256.15	3278.80
256.36	3311.57
256.58	2764.76
256.80	2738.13
257.02	3280.85
257.23	3262.41
257.45	3016.66
257.67	2992.08
257.88	3229.65
258.10	3434.44
258.32	2850.77
258.53	3004.37
258.75	3602.38
258.97	3141.58
259.18	2693.08
259.40	2752.47
259.62	3610.57
259.83	3590.09
260.05	2916.31
260.27	3729.35
260.48	3471.31
260.70	3016.66
260.92	2775.00
261.13	2861.01
261.35	3282.89
261.57	3381.20
261.78	2785.24
262.00	2861.01
262.22	3434.44
262.43	3155.92
262.65	2934.74
262.86	2854.87
263.08	3715.02
263.30	3258.32
263.51	2674.65
263.73	2803.67
263.95	3643.34
264.16	3094.48
264.38	2750.42
264.60	2840.53
264.81	3198.93
265.03	3405.77
265.25	3256.27
265.46	2893.78
265.68	3504.07
265.89	3373.00
266.11	2760.66
266.33	2840.53
266.54	3585.99
266.76	3356.62
266.98	2967.51
267.19	3071.95
267.41	3491.79
267.62	3196.88
267.84	2684.89
268.06	2990.03
268.27	3248.08
268.49	3534.79
268.70	2867.16
268.92	2873.30
269.14	3071.95
269.35	3082.19
269.57	2992.08
269.79	2942.93
270.00	3174.35
270.22	3602.38
270.43	2750.42
270.65	2697.17
270.87	3379.15
271.08	3434.44
271.30	2965.46
271.51	2869.20
271.73	3315.66
271.95	3631.05
272.16	2744.28
272.38	2969.55
272.59	3168.21
272.81	3389.39
273.02	2799.57
273.24	2955.22
273.46	3512.27
273.67	2973.65
273.89	2781.14
274.10	2936.79
274.32	3467.21
274.54	3362.76
274.75	2959.31
274.97	3030.99
275.18	3373.00
275.40	3350.48
275.61	2897.88
275.83	3000.27
276.05	3110.86
276.26	3233.74
276.48	2998.23
276.69	3039.19
276.91	3151.82
277.12	3592.14
277.34	3024.85
277.55	3190.74
277.77	3227.60
277.99	3301.33
278.20	2926.55
278.42	2893.78
278.63	3188.69
278.85	3172.30
279.06	2947.03
279.28	3094.48
279.49	3481.55
279.71	3424.20
279.93	3002.32
280.14	3028.95
280.36	3125.20
280.57	3481.55
280.79	3102.67
281.00	2826.20
281.22	3233.74
281.43	3551.18
281.65	2715.61
281.86	2942.93
282.08	3418.06
282.29	3647.43
282.51	2848.72
282.73	2889.68
282.94	3014.61
283.16	3393.48
283.37	3149.78
283.59	2987.99
283.80	3317.71
284.02	3272.65
284.23	3000.27
284.45	3028.95
284.66	3100.62
284.88	3108.82
285.09	2957.27
285.31	3041.23
285.52	3362.76
285.74	2938.84
285.95	3184.59
286.17	3106.77
286.38	3514.31
286.60	3147.73
286.81	2881.49
287.03	2889.68
287.24	3264.46
287.46	3387.34
287.67	3123.15
287.89	3166.16
288.10	3272.65
288.32	3272.65
288.53	3088.34
288.75	3076.05
288.96	3338.19
289.18	3157.97
289.39	3004.37
289.61	3121.10
289.82	3766.21
290.04	3710.92
290.25	2893.78
290.47	3061.71
290.68	3215.31
290.90	3473.36
291.11	2830.29
291.33	3141.58
291.54	3145.68
291.76	3137.49
291.97	3114.96
292.18	3102.67
292.40	3176.40
292.61	3188.69
292.83	3248.08
293.04	2961.36
293.26	3293.13
293.47	3127.25
293.69	3000.27
293.90	2834.39
294.12	3545.03
294.33	3284.94
294.55	2977.75
294.76	3139.54
294.97	3534.79
295.19	3721.16
295.40	2975.70
295.62	3057.62
295.83	3483.59
296.05	3182.54
296.26	3160.02
296.48	3047.38
296.69	3200.98
296.90	3219.41
297.12	3117.01
297.33	3137.49
297.55	3340.24
297.76	3364.81
297.98	3155.92
298.19	3176.40
298.41	3299.28
298.62	3090.38
298.83	3219.41
299.05	3139.54
299.26	3258.32
299.48	3012.56
299.69	3018.71
299.90	2967.51
300.12	3100.62
300.33	3409.87
300.55	3080.14
300.76	3059.67
300.98	2977.75
301.19	3434.44
301.40	3024.85
301.62	3057.62
301.83	3448.78
302.05	3289.04
302.26	3008.47
302.47	3121.10
302.69	2987.99
302.90	3274.70
303.12	2840.53
303.33	3071.95
303.54	3657.67
303.76	3172.30
303.97	2912.21
304.19	3207.12
304.40	3067.86
304.61	3323.85
304.83	3053.52
305.04	3084.24
305.26	3413.96
305.47	3237.84
305.68	2983.89
305.90	2910.16
306.11	3559.37
306.33	3241.93
306.54	2899.92
306.75	3010.51
306.97	2914.26
307.18	3211.22
307.39	2961.36
307.61	3051.47
307.82	3264.46
308.04	3317.71
308.25	2871.25
308.46	3119.06
308.68	3270.61
308.89	3157.97
309.10	3127.25
309.32	3033.04
309.53	3278.80
309.74	3413.96
309.96	2899.92
310.17	3086.29
310.39	3192.78
310.60	3401.68
310.81	3112.91
311.03	2977.75
311.24	3454.92
311.45	3299.28
311.67	3248.08
311.88	3078.10
312.09	3143.63
312.31	3190.74
312.52	2932.69
312.73	2983.89
312.95	3069.91
313.16	3155.92
313.37	3205.07
313.59	3180.50
313.80	3502.03
314.01	3643.34
314.23	3026.90
314.44	3039.19
314.65	3008.47
314.87	3119.06
315.08	2975.70
315.29	3065.81
315.51	3028.95
315.72	2969.55
315.93	3092.43
316.15	3059.67
316.36	3162.06
316.57	3334.09
316.79	2987.99
317.00	2992.08
317.21	3436.49
317.43	3143.63
317.64	3069.91
317.85	2832.34
318.07	3139.54
318.28	3299.28
318.49	3092.43
318.70	3229.65
318.92	3319.76
319.13	3291.09
319.34	3160.02
319.56	2979.79
319.77	3348.43
319.98	3434.44
320.20	3375.05
320.41	3172.30
320.62	3436.49
320.83	2955.22
321.05	3272.65
321.26	3026.90
321.47	3327.95
321.69	3571.66
321.90	2895.83
322.11	2836.44
322.32	3344.33
322.54	3549.13
322.75	3030.99
322.96	3942.34
323.18	3076.05
323.39	2981.84
323.60	2949.08
323.81	3076.05
324.03	3030.99
324.24	3239.89
324.45	3178.45
324.66	3026.90
324.88	3553.23
325.09	3581.90
325.30	3016.66
325.52	2947.03
325.73	3346.38
325.94	2983.89
326.15	2938.84
326.37	2873.30
326.58	3434.44
326.79	3588.04
327.00	2826.20
327.22	2985.94
327.43	3243.98
327.64	3112.91
327.85	3121.10
328.07	3043.28
328.28	3639.24
328.49	3280.85
328.70	3026.90
328.92	2977.75
329.13	3211.22
329.34	3262.41
329.55	3174.35
329.76	3112.91
329.98	3205.07
330.19	3485.64
330.40	3106.77
330.61	3133.39
330.83	3504.07
331.04	3090.38
331.25	3024.85
331.46	3065.81
331.68	3043.28
331.89	3502.03
332.10	3037.14
332.31	2893.78
332.52	3270.61
332.74	3534.79
332.95	2865.11
333.16	2977.75
333.37	3534.79
333.58	3188.69
333.80	3037.14
334.01	2844.63
334.22	3305.42
334.43	3155.92
334.64	3004.37
334.86	2908.12
335.07	3164.11
335.28	3590.09
335.49	2914.26
335.70	3098.58
335.92	3594.19
336.13	3680.20
336.34	3090.38
336.55	2957.27
336.76	3385.29
336.98	2897.88
337.19	3049.43
337.40	3133.39
337.61	3893.19
337.82	3211.22
338.04	2998.23
338.25	2815.96
338.46	3176.40
338.67	3223.50
338.88	2959.31
339.09	2904.02
339.31	3092.43
339.52	2910.16
339.73	2922.45
339.94	3067.86
340.15	3446.73
340.36	3196.88
340.58	3129.30
340.79	2895.83
341.00	3430.35
341.21	3030.99
341.42	3336.14
341.63	2906.07
341.85	3428.30
342.06	3354.57
342.27	2906.07
342.48	3049.43
342.69	3016.66
342.90	3362.76
343.12	3409.87
343.33	2914.26
343.54	3487.69
343.75	3510.22
343.96	3127.25
344.17	2922.45
344.38	3213.26
344.60	3071.95
344.81	2994.13
345.02	2977.75
345.23	3467.21
345.44	3737.54
345.65	3059.67
345.86	3071.95
346.07	3323.85
346.29	3164.11
346.50	3170.26
346.71	3086.29
346.92	3549.13
347.13	3741.64
347.34	3110.86
347.55	2904.02
347.76	3311.57
347.98	2979.79
348.19	2990.03
348.40	3194.83
348.61	3170.26
348.82	3555.27
349.03	3074.00
349.24	2953.17
349.45	3647.43
349.66	2879.44
349.88	2979.79
350.09	2942.93
350.30	3459.02
350.51	3551.18
350.72	3186.64
350.93	2944.98
351.14	3272.65
351.35	3442.64
351.56	2985.94
351.77	2969.55
351.99	3373.00
352.20	3569.61
352.41	3094.48
352.62	2822.10
352.83	3330.00
353.04	3299.28
353.25	3043.28
353.46	3049.43
353.67	3491.79
353.88	2908.12
354.09	2881.49
354.30	3067.86
354.52	3346.38
354.73	3303.37
354.94	2990.03
355.15	3055.57
355.36	3661.77
355.57	3213.26
355.78	2965.46
355.99	3098.58
356.20	3266.51
356.41	3477.45
356.62	3121.10
356.83	3055.57
357.04	3553.23
357.25	3012.56
357.46	2936.79
357.68	2867.16
357.89	3078.10
358.10	3258.32
358.31	3008.47
358.52	3043.28
358.73	2998.23
358.94	3106.77
359.15	3035.09
359.36	3008.47
359.57	3295.18
359.78	3151.82
359.99	3217.36
360.20	2916.31
360.41	3143.63
360.62	3450.83
360.83	3121.10
361.04	3043.28
361.25	3301.33
361.46	3606.47
361.67	3149.78
361.88	3057.62
362.09	3450.83
362.30	3295.18
362.51	2959.31
362.72	3061.71
362.93	3389.39
363.14	3448.78
363.35	3110.86
363.56	2910.16
363.78	3510.22
363.99	3418.06
364.20	3059.67
364.41	3084.24
364.62	3729.35
364.83	3282.89
365.04	2975.70
365.25	3084.24
365.46	3710.92
365.67	3217.36
365.88	3182.54
366.09	3012.56
366.30	3225.55
366.51	3299.28
366.72	2979.79
366.93	3080.14
367.14	3254.22
367.35	3608.52
367.56	2973.65
367.77	3129.30
367.98	3217.36
368.18	3418.06
368.39	3108.82
368.60	2985.94
368.81	3428.30
369.02	3360.72
369.23	3024.85
369.44	2805.72
369.65	3229.65
369.86	3348.43
370.07	3057.62
370.28	2926.55
370.49	3381.20
370.70	3313.61
370.91	2918.36
371.12	2875.35
371.33	3469.26
371.54	3151.82
371.75	3135.44
371.96	2795.48
372.17	3264.46
372.38	3262.41
372.59	3078.10
372.80	2844.63
373.01	3299.28
373.22	3346.38
373.43	2975.70
373.64	2922.45
373.85	3569.61
374.06	3565.51
374.26	3162.06
374.47	3166.16
374.68	3643.34
374.89	3344.33
375.10	2920.40
375.31	3114.96
375.52	3344.33
375.73	3309.52
375.94	2879.44
376.15	3074.00
376.36	3129.30
376.57	3246.03
376.78	2944.98
376.99	3078.10
377.20	3545.03
377.40	3188.69
377.61	3284.94
377.82	2979.79
378.03	3557.32
378.24	3407.82
378.45	3131.34
378.66	3000.27
378.87	2885.59
379.08	2996.18
379.29	3045.33
379.50	3143.63
379.71	3186.64
379.91	3301.33
380.12	2971.60
380.33	3065.81
380.54	3317.71
380.75	3280.85
380.96	3028.95
381.17	3080.14
381.38	3205.07
381.59	3246.03
381.80	3059.67
382.00	3160.02
382.21	3393.48
382.42	3653.58
382.63	3338.19
382.84	3192.78
383.05	3426.25
383.26	3571.66
383.47	3174.35
383.68	2918.36
383.88	3360.72
384.09	3291.09
384.30	3315.66
384.51	3117.01
384.72	3121.10
384.93	2985.94
385.14	3135.44
385.35	3303.37
385.55	3033.04
385.76	3532.75
385.97	3028.95
386.18	2916.31
386.39	3125.20
386.60	3196.88
386.81	2918.36
387.02	2865.11
387.22	3045.33
387.43	3459.02
387.64	3147.73
387.85	3200.98
388.06	3373.00
388.27	4364.22
388.48	7937.93
388.68	11982.67
388.89	15228.70
389.10	16572.16
389.31	16099.08
389.52	13129.53
389.73	11302.74
389.93	10340.19
390.14	9287.54
390.35	8464.25
390.56	7903.11
390.77	6594.46
390.98	4960.18
391.18	4229.06
391.39	3960.77
391.60	3344.33
391.81	3321.81
392.02	3037.14
392.23	3807.17
392.43	3311.57
392.64	3098.58
392.85	3164.11
393.06	3602.38
393.27	3258.32
393.47	2971.60
393.68	3141.58
393.89	3196.88
394.10	3508.17
394.31	2996.18
394.52	2944.98
394.72	3168.21
394.93	3659.72
395.14	2904.02
395.35	3139.54
395.56	3157.97
395.76	3211.22
395.97	2994.13
396.18	3141.58
396.39	3229.65
396.60	3956.68
396.80	3395.53
397.01	3211.22
397.22	3424.20
397.43	3524.55
397.64	2998.23
397.84	3131.34
398.05	3653.58
398.26	3243.98
398.47	3123.15
398.67	3276.75
398.88	3272.65
399.09	3389.39
399.30	2981.84
399.51	3030.99
399.71	3141.58
399.92	3250.13
400.13	3114.96
400.34	3022.80
400.54	3262.41
400.75	3575.75
400.96	3233.74
401.17	3403.72
401.37	3452.88
401.58	3258.32
401.79	3035.09
402.00	3166.16
402.21	3790.79
402.41	3379.15
402.62	3289.04
402.83	3542.99
403.04	3819.46
403.24	4165.57
403.45	3215.31
403.66	3338.19
403.87	3428.30
404.07	3680.20
404.28	3409.87
404.49	3297.23
404.70	3475.40
404.90	3446.73
405.11	3106.77
405.32	3096.53
405.52	3151.82
405.73	3217.36
405.94	2934.74
406.15	3131.34
406.35	3424.20
406.56	3493.83
406.77	3071.95
406.98	3053.52
407.18	3065.81
407.39	3573.71
407.60	3065.81
407.80	3139.54
408.01	3139.54
408.22	3450.83
408.43	2951.12
408.63	3176.40
408.84	3499.98
409.05	3434.44
409.25	2955.22
409.46	3057.62
409.67	3194.83
409.88	3162.06
410.08	3069.91
410.29	3057.62
410.50	3510.22
410.70	3362.76
410.91	2854.87
411.12	3106.77
411.32	3274.70
411.53	3133.39
411.74	3033.04
411.95	3147.73
412.15	3368.91
412.36	3418.06
412.57	3184.59
412.77	3174.35
412.98	3246.03
413.19	3203.02
413.39	3131.34
413.60	3022.80
413.81	3506.12
414.01	3104.72
414.22	3041.23
414.43	3305.42
414.63	3176.40
414.84	3459.02
415.05	3069.91
415.25	2906.07
415.46	3389.39
415.67	3235.79
415.87	3110.86
416.08	3049.43
416.29	3299.28
416.49	3399.63
416.70	3110.86
416.91	3063.76
417.11	3196.88
417.32	3448.78
417.53	3184.59
417.73	3155.92
417.94	3260.37
418.15	3352.52
418.35	3119.06
418.56	2987.99
418.77	3696.58
418.97	3344.33
419.18	3223.50
419.38	2766.81
419.59	3196.88
419.80	3559.37
420.00	2967.51
420.21	3055.57
420.42	3559.37
420.62	3377.10
420.83	3055.57
421.04	3002.32
421.24	3196.88
421.45	3413.96
421.65	3082.19
421.86	3035.09
422.07	3504.07
422.27	3381.20
422.48	3000.27
422.69	2897.88
422.89	3299.28
423.10	3227.60
423.30	3041.23
423.51	3086.29
423.72	3393.48
423.92	3375.05
424.13	2875.35
424.33	3098.58
424.54	3504.07
424.75	3307.47
424.95	3235.79
425.16	3018.71
425.36	3213.26
425.57	3483.59
425.78	3219.41
425.98	3141.58
426.19	3239.89
426.39	3131.34
426.60	3203.02
426.81	3272.65
427.01	3416.01
427.22	3049.43
427.42	2934.74
427.63	2969.55
427.83	3520.46
428.04	3624.90
428.25	3069.91
428.45	3186.64
428.66	3448.78
428.86	3180.50
429.07	3059.67
429.28	3059.67
429.48	3266.51
429.69	3106.77
429.89	3092.43
430.10	3026.90
430.30	3442.64
430.51	3510.22
430.71	2969.55
430.92	3147.73
431.13	3250.13
431.33	3381.20
431.54	3098.58
431.74	3157.97
431.95	3737.54
432.15	3041.23
432.36	3024.85
432.56	3106.77
432.77	3712.97
432.98	3639.24
433.18	3145.68
433.39	2959.31
433.59	3233.74
433.80	3684.30
434.00	3209.17
434.21	3098.58
434.41	3135.44
434.62	3854.28
434.82	2951.12
435.03	3080.14
435.23	3313.61
435.44	3033.04
435.64	2942.93
435.85	3100.62
436.06	3461.07
436.26	3446.73
436.47	3076.05
436.67	2996.18
436.88	3229.65
437.08	3489.74
437.29	3129.30
437.49	3229.65
437.70	3522.51
437.90	3237.84
438.11	3239.89
438.31	3143.63
438.52	3522.51
438.72	3530.70
438.93	3364.81
439.13	3186.64
439.34	3432.40
439.54	3237.84
439.75	3192.78
439.95	3139.54
440.16	3090.38
440.36	3321.81
440.57	2983.89
440.77	3082.19
440.98	3262.41
441.18	3389.39
441.39	2922.45
441.59	2953.17
441.80	3743.69
442.00	3274.70
442.21	3170.26
442.41	2875.35
442.62	3499.98
442.82	3102.67
443.02	3155.92
443.23	3084.24
443.43	3246.03
443.64	3522.51
443.84	3051.47
444.05	3174.35
444.25	3332.05
444.46	3174.35
444.66	3008.47
444.87	3344.33
445.07	3004.37
445.28	3268.56
445.48	3297.23
445.69	3149.78
445.89	3895.24
446.09	3282.89
446.30	3366.86
446.50	3522.51
446.71	5105.59
446.91	6291.36
447.12	7192.47
447.32	7718.79
447.53	7733.13
447.73	6287.26
447.93	5570.48
448.14	5359.53
448.34	5330.86
448.55	4528.06
448.75	4521.92
448.96	4329.41
449.16	4079.55
449.36	3919.81
449.57	3344.33
449.77	3145.68
449.98	3182.54
450.18	3325.90
450.39	3006.42
450.59	3270.61
450.79	3192.78
451.00	3143.63
451.20	3350.48
451.41	3035.09
451.61	3364.81
451.81	3241.93
452.02	2961.36
452.22	3065.81
452.43	3262.41
452.63	3106.77
452.84	3092.43
453.04	2963.41
453.24	3350.48
453.45	3106.77
453.65	3035.09
453.86	3057.62
454.06	3360.72
454.26	3284.94
454.47	3004.37
454.67	3274.70
454.87	3286.99
455.08	3241.93
455.28	3145.68
455.49	3221.45
455.69	3129.30
455.89	3663.82
456.10	3098.58
456.30	3084.24
456.51	3405.77
456.71	3252.17
456.91	3229.65
457.12	3061.71
457.32	3346.38
457.52	3049.43
457.73	3299.28
457.93	3182.54
458.14	3184.59
458.34	2889.68
458.54	3024.85
458.75	3004.37
458.95	3393.48
459.15	3454.92
459.36	3045.33
459.56	3061.71
459.76	3760.07
459.97	3291.09
460.17	3028.95
460.37	3100.62
460.58	3383.24
460.78	3420.11
460.99	3104.72
461.19	3057.62
461.39	3160.02
461.60	3237.84
461.80	3114.96
462.00	2996.18
462.21	3141.58
462.41	3127.25
462.61	2920.40
462.82	2815.96
463.02	3284.94
463.22	3305.42
463.43	3094.48
463.63	2957.27
463.83	3594.19
464.04	3393.48
464.24	3057.62
464.44	3051.47
464.64	3274.70
464.85	3330.00
465.05	3098.58
465.25	2951.12
465.46	3162.06
465.66	3442.64
465.86	3172.30
466.07	3059.67
466.27	3196.88
466.47	3008.47
466.68	2930.64
466.88	3119.06
467.08	3346.38
467.29	3485.64
467.49	3098.58
467.69	3139.54
467.89	3348.43
468.10	3213.26
468.30	3137.49
468.50	3114.96
468.71	3438.54
468.91	3004.37
469.11	3211.22
469.31	3200.98
469.52	3157.97
469.72	3559.37
469.92	3305.42
470.13	3110.86
470.33	3289.04
470.53	3305.42
470.73	3504.07
470.94	3893.19
471.14	4095.94
471.34	4786.10
471.54	4351.93
471.75	4067.27
471.95	3893.19
472.15	3745.73
472.36	3796.93
472.56	3520.46
472.76	3850.18
472.96	3712.97
473.17	3377.10
473.37	3311.57
473.57	3297.23
473.77	3461.07
473.98	3260.37
474.18	2928.60
474.38	3966.92
474.58	3215.31
474.79	2865.11
474.99	3178.45
475.19	3596.23
475.39	3041.23
475.60	3123.15
475.80	3049.43
476.00	3344.33
476.20	3276.75
476.41	3205.07
476.61	3102.67
476.81	3579.85
477.01	3080.14
477.21	3340.24
477.42	3188.69
477.62	3203.02
477.82	3358.67
478.02	3020.75
478.23	3090.38
478.43	3151.82
478.63	3229.65
478.83	3024.85
479.03	3141.58
479.24	3639.24
479.44	3694.54
479.64	2981.84
479.84	2953.17
480.04	3053.52
480.25	3434.44
480.45	3020.75
480.65	2961.36
480.85	3549.13
481.06	3198.93
481.26	3233.74
481.46	3055.57
481.66	3309.52
481.86	3090.38
482.06	3174.35
482.27	3106.77
482.47	3266.51
482.67	3330.00
482.87	3065.81
483.07	3133.39
483.28	3114.96
483.48	2994.13
483.68	3112.91
483.88	2979.79
484.08	2885.59
484.29	3047.38
484.49	3131.34
484.69	2842.58
484.89	3528.65
485.09	3465.16
485.29	3082.19
485.50	3246.03
485.70	3104.72
485.90	3581.90
486.10	3139.54
486.30	3010.51
486.50	3397.58
486.71	3373.00
486.91	3127.25
487.11	3219.41
487.31	2975.70
487.51	3389.39
487.71	3014.61
487.91	2955.22
488.12	3086.29
488.32	2756.57
488.52	3088.34
488.72	2768.85
488.92	3340.24
489.12	3540.94
489.32	3203.02
489.53	3094.48
489.73	3043.28
489.93	3639.24
490.13	2975.70
490.33	2910.16
490.53	3270.61
490.73	3493.83
490.94	2901.97
491.14	3147.73
491.34	3413.96
491.54	3461.07
491.74	4040.64
491.94	4491.20
492.14	5167.03
492.34	5273.52
492.54	4796.34
492.75	4200.38
492.95	4425.66
493.15	4143.04
493.35	3852.23
493.55	3762.12
493.75	3753.93
493.95	3938.24
494.15	3293.13
494.35	3196.88
494.56	3381.20
494.76	3129.30
494.96	3196.88
495.16	2953.17
495.36	3270.61
495.56	3379.15
495.76	3143.63
495.96	3018.71
496.16	3098.58
496.36	3600.33
496.56	2975.70
496.77	3145.68
496.97	3338.19
497.17	3481.55
497.37	2965.46
497.57	3149.78
497.77	3295.18
497.97	3037.14
498.17	3114.96
498.37	3106.77
498.57	3416.01
498.77	3219.41
498.97	3192.78
499.17	3418.06
499.38	3237.84
499.58	3373.00
499.78	3233.74
499.98	3180.50
500.18	3272.65
500.38	3182.54
500.58	3338.19
500.78	3637.19
500.98	6266.78
501.18	8431.49
501.38	9721.71
501.58	10938.20
501.78	10999.64
501.98	8914.81
502.18	7563.15
502.38	6571.93
502.58	6500.25
502.78	5801.90
502.98	5457.84
503.18	5253.04
503.38	4835.25
503.59	4282.30
503.79	4140.99
503.99	3725.26
504.19	3942.34
504.39	3872.71
504.59	3766.21
504.79	3571.66
504.99	4014.02
505.19	3647.43
505.39	3389.39
505.59	3489.74
505.79	3753.93
505.99	3585.99
506.19	3147.73
506.39	3370.96
506.59	3180.50
506.79	3137.49
506.99	3368.91
507.19	3024.85
507.39	3295.18
507.59	3002.32
507.79	3047.38
507.99	2967.51
508.19	3352.52
508.39	3215.31
508.59	3074.00
508.79	3213.26
508.99	3751.88
509.19	3086.29
509.39	3145.68
509.59	3014.61
509.79	3123.15
509.99	3346.38
510.19	3168.21
510.39	3188.69
510.59	3301.33
510.79	3184.59
510.99	2836.44
511.19	3035.09
511.39	3585.99
511.59	3475.40
511.79	3217.36
511.99	3053.52
512.19	3583.95
512.38	3325.90
512.58	3065.81
512.78	2957.27
512.98	3569.61
513.18	3602.38
513.38	2963.41
513.58	3172.30
513.78	3344.33
513.98	3221.45
514.18	3033.04
514.38	3067.86
514.58	3446.73
514.78	3112.91
514.98	2955.22
515.18	3082.19
515.38	3041.23
515.58	3624.90
515.78	2959.31
515.98	3106.77
516.18	3430.35
516.38	3256.27
516.57	3018.71
516.77	3069.91
516.97	3432.40
517.17	3157.97
517.37	2871.25
517.57	3033.04
517.77	3274.70
517.97	3135.44
518.17	3194.83
518.37	2934.74
518.57	3098.58
518.77	3221.45
518.97	3110.86
519.16	3039.19
519.36	3506.12
519.56	3162.06
519.76	3028.95
519.96	3112.91
520.16	3610.57
520.36	3084.24
520.56	3262.41
520.76	3049.43
520.96	3196.88
521.16	3475.40
521.35	3188.69
521.55	3164.11
521.75	3268.56
521.95	3246.03
522.15	3039.19
522.35	2985.94
522.55	3133.39
522.75	3401.68
522.95	2979.79
523.14	2865.11
523.34	3323.85
523.54	3241.93
523.74	3172.30
523.94	3059.67
524.14	3002.32
524.34	3319.76
524.54	3231.69
524.73	3139.54
524.93	3397.58
525.13	3291.09
525.33	3008.47
525.53	3311.57
525.73	3366.86
525.93	3258.32
526.13	3035.09
526.32	2953.17
526.52	3440.59
526.72	3504.07
526.92	3153.87
527.12	3008.47
527.32	3002.32
527.52	3379.15
527.71	3151.82
527.91	3114.96
528.11	3205.07
528.31	3239.89
528.51	3090.38
528.71	3110.86
528.90	3424.20
529.10	3485.64
529.30	3100.62
529.50	2656.22
529.70	3352.52
529.90	3172.30
530.09	3053.52
530.29	2830.29
530.49	3135.44
530.69	3852.23
530.89	3223.50
531.09	3086.29
531.28	3286.99
531.48	3485.64
531.68	3078.10
531.88	3084.24
532.08	3368.91
532.28	3131.34
532.47	3151.82
532.67	3225.55
532.87	3237.84
533.07	3104.72
533.27	3147.73
533.46	3092.43
533.66	3373.00
533.86	3207.12
534.06	3102.67
534.26	3074.00
534.45	3213.26
534.65	3436.49
534.85	3198.93
535.05	3012.56
535.25	3518.41
535.44	3000.27
535.64	3180.50
535.84	3102.67
536.04	3182.54
536.24	3229.65
536.43	3000.27
536.63	2977.75
536.83	3254.22
537.03	3258.32
537.22	2885.59
537.42	2924.50
537.62	3366.86
537.82	3049.43
538.02	3235.79
538.21	3086.29
538.41	3811.27
538.61	3358.67
538.81	3166.16
539.00	3221.45
539.20	2934.74
539.40	3246.03
539.60	3057.62
539.79	3235.79
539.99	3239.89
540.19	3078.10
540.39	2940.88
540.58	3094.48
540.78	3418.06
540.98	3293.13
541.18	3325.90
541.37	3139.54
541.57	3362.76
541.77	3348.43
541.97	2938.84
542.16	2934.74
542.36	3246.03
542.56	3151.82
542.76	3293.13
542.95	3160.02
543.15	3282.89
543.35	3377.10
543.54	3065.81
543.74	2985.94
543.94	3522.51
544.14	3125.20
544.33	3209.17
544.53	3069.91
544.73	3213.26
544.93	3178.45
545.12	3035.09
545.32	3108.82
545.52	3182.54
545.71	3092.43
545.91	3024.85
546.11	2987.99
546.30	3141.58
546.50	3266.51
546.70	3149.78
546.90	3100.62
547.09	2992.08
547.29	3266.51
547.49	3180.50
547.68	3190.74
547.88	3125.20
548.08	3405.77
548.27	3399.63
548.47	3063.76
548.67	3174.35
548.87	3360.72
549.06	3026.90
549.26	3033.04
549.46	3291.09
549.65	3094.48
549.85	3180.50
550.05	3098.58
550.24	3067.86
550.44	3321.81
550.64	3098.58
550.83	3125.20
551.03	3491.79
551.23	3428.30
551.42	3110.86
551.62	3106.77
551.82	3225.55
552.01	3256.27
552.21	3368.91
552.41	3131.34
552.60	3512.27
552.80	3348.43
553.00	3084.24
553.19	3106.77
553.39	3567.56
553.59	3008.47
553.78	3178.45
553.98	3037.14
554.17	3074.00
554.37	3321.81
554.57	3131.34
554.76	2936.79
554.96	3170.26
555.16	3262.41
555.35	3151.82
555.55	3231.69
555.75	3338.19
555.94	3397.58
556.14	2938.84
556.33	3114.96
556.53	3221.45
556.73	3278.80
556.92	3078.10
557.12	2975.70
557.32	3672.01
557.51	3577.80
557.71	3030.99
557.90	3243.98
558.10	3485.64
558.30	3172.30
558.49	3082.19
558.69	3002.32
558.88	3364.81
559.08	3325.90
559.28	3082.19
559.47	3092.43
559.67	3309.52
559.86	3610.57
560.06	3059.67
560.26	3110.86
560.45	3352.52
560.65	3203.02
560.84	3366.86
561.04	2947.03
561.24	3420.11
561.43	3074.00
561.63	3303.37
561.82	3168.21
562.02	3383.24
562.22	3123.15
562.41	2938.84
562.61	3074.00
562.80	3026.90
563.00	3803.08
563.19	3106.77
563.39	3127.25
563.59	3368.91
563.78	3057.62
563.98	2742.23
564.17	3041.23
564.37	2953.17
564.56	3256.27
564.76	2977.75
564.96	3172.30
565.15	3352.52
565.35	3772.36
565.54	3137.49
565.74	3104.72
565.93	3344.33
566.13	3217.36
566.32	3180.50
566.52	3225.55
566.71	3403.72
566.91	3407.82
567.11	3141.58
567.30	3026.90
567.50	3409.87
567.69	3360.72
567.89	3016.66
568.08	2865.11
568.28	3332.05
568.47	3086.29
568.67	3076.05
568.86	3055.57
569.06	3454.92
569.25	3254.22
569.45	2918.36
569.64	3053.52
569.84	3141.58
570.04	3293.13
570.23	3131.34
570.43	3069.91
570.62	3315.66
570.82	3661.77
571.01	3002.32
571.21	3028.95
571.40	3108.82
571.60	3422.16
571.79	3127.25
571.99	2979.79
572.18	3016.66
572.38	3319.76
572.57	3123.15
572.77	3094.48
572.96	3839.94
573.16	3188.69
573.35	3084.24
573.55	3207.12
573.74	3327.95
573.94	3121.10
574.13	3067.86
574.33	3250.13
574.52	3444.68
574.71	3262.41
574.91	3125.20
575.10	2959.31
575.30	3246.03
575.49	3117.01
575.69	2934.74
575.88	2969.55
576.08	3248.08
576.27	3477.45
576.47	3104.72
576.66	3147.73
576.86	3540.94
577.05	3317.71
577.25	3149.78
577.44	3289.04
577.64	3166.16
577.83	3467.21
578.02	3016.66
578.22	3149.78
578.41	3592.14
578.61	3110.86
578.80	2977.75
579.00	3094.48
579.19	3235.79
579.39	3364.81
579.58	3127.25
579.77	3002.32
579.97	3534.79
580.16	3471.31
580.36	3270.61
580.55	3106.77
580.75	3330.00
580.94	3319.76
581.13	3200.98
581.33	3366.86
581.52	3192.78
581.72	3669.96
581.91	3221.45
582.11	3090.38
582.30	3389.39
582.49	3354.57
582.69	3391.44
582.88	3131.34
583.08	3270.61
583.27	3483.59
583.47	3284.94
583.66	3069.91
583.85	3057.62
584.05	3211.22
584.24	3235.79
584.44	3172.30
584.63	3459.02
584.82	3569.61
585.02	3377.10
585.21	3205.07
585.41	3428.30
585.60	3385.29
585.79	3278.80
585.99	3377.10
586.18	3348.43
586.37	4272.06
586.57	6246.30
586.76	18077.42
586.96	37944.76
587.15	50719.99
587.34	59571.32
587.54	63370.30
587.73	56558.75
587.93	40822.16
588.12	31831.58
588.31	25765.49
588.51	22619.81
588.70	21006.02
588.89	18732.77
589.09	15838.99
589.28	13586.22
589.47	10870.62
589.67	8245.12
589.86	6522.78
590.06	5105.59
590.25	4450.24
590.44	3932.10
590.64	3504.07
590.83	3622.86
591.02	3565.51
591.22	3076.05
591.41	3223.50
591.60	3309.52
591.80	3825.61
591.99	2985.94
592.18	3094.48
592.38	3420.11
592.57	3260.37
592.76	3053.52
592.96	3147.73
593.15	3250.13
593.34	3508.17
593.54	3051.47
593.73	3149.78
593.92	3317.71
594.12	3397.58
594.31	3139.54
594.50	3250.13
594.70	3381.20
594.89	3897.28
595.08	2940.88
595.28	3270.61
595.47	3911.62
595.66	3446.73
595.86	2942.93
596.05	2887.64
596.24	3235.79
596.43	3667.91
596.63	3180.50
596.82	3213.26
597.01	3354.57
597.21	3559.37
597.40	3080.14
597.59	3112.91
597.79	3321.81
597.98	3446.73
598.17	3155.92
598.36	3094.48
598.56	3418.06
598.75	3196.88
598.94	3162.06
599.14	3143.63
599.33	3157.97
599.52	3442.64
599.71	3160.02
599.91	3090.38
600.10	3377.10
600.29	3383.24
600.48	3211.22
600.68	3182.54
600.87	3393.48
601.06	3143.63
601.26	3129.30
601.45	3237.84
601.64	3200.98
601.83	3571.66
602.03	2916.31
602.22	2955.22
602.41	3561.42
602.60	3721.16
602.80	3203.02
602.99	3225.55
603.18	3176.40
603.37	3274.70
603.57	3039.19
603.76	3147.73
603.95	3631.05
604.14	3166.16
604.34	2983.89
604.53	3026.90
604.72	3321.81
604.91	3397.58
605.10	2998.23
605.30	2944.98
605.49	3663.82
605.68	3467.21
605.87	3033.04
606.07	3035.09
606.26	3305.42
606.45	3446.73
606.64	3084.24
606.84	2975.70
607.03	3295.18
607.22	3442.64
607.41	3145.68
607.60	3030.99
607.80	3459.02
607.99	3282.89
608.18	3069.91
608.37	2971.60
608.56	3065.81
608.76	3551.18
608.95	3250.13
609.14	3108.82
609.33	3512.27
609.52	3559.37
609.72	3203.02
609.91	3184.59
610.10	3297.23
610.29	3672.01
610.48	3229.65
610.68	3127.25
610.87	3274.70
611.06	3495.88
611.25	3098.58
611.44	3235.79
611.63	3172.30
611.83	3499.98
612.02	3010.51
612.21	3160.02
612.40	2959.31
612.59	3106.77
612.79	3033.04
612.98	3164.11
613.17	3669.96
613.36	3254.22
613.55	3284.94
613.74	3151.82
613.93	3340.24
614.13	3352.52
614.32	3332.05
614.51	3123.15
614.70	3229.65
614.89	3160.02
615.08	3108.82
615.28	3358.67
615.47	3151.82
615.66	3444.68
615.85	3094.48
616.04	3145.68
616.23	3395.53
616.42	3323.85
616.62	3065.81
616.81	3147.73
617.00	3319.76
617.19	3301.33
617.38	3106.77
617.57	3188.69
617.76	3444.68
617.95	3469.26
618.15	3180.50
618.34	3264.46
618.53	3018.71
618.72	3426.25
618.91	3213.26
619.10	3098.58
619.29	3184.59
619.48	3256.27
619.68	2922.45
619.87	3020.75
620.06	2998.23
620.25	3422.16
620.44	3092.43
620.63	3022.80
620.82	3338.19
621.01	3289.04
621.20	3168.21
621.39	3106.77
621.59	3373.00
621.78	3205.07
621.97	3162.06
622.16	3178.45
622.35	3391.44
622.54	3389.39
622.73	3055.57
622.92	2824.15
623.11	3493.83
623.30	3241.93
623.49	3231.69
623.68	2938.84
623.88	3551.18
624.07	3102.67
624.26	2996.18
624.45	3108.82
624.64	3260.37
624.83	3370.96
625.02	3076.05
625.21	3010.51
625.40	3291.09
625.59	3520.46
625.78	3061.71
625.97	3186.64
626.16	3577.80
626.35	3483.59
626.54	3098.58
626.74	3327.95
626.93	3176.40
627.12	3168.21
627.31	3139.54
627.50	3133.39
627.69	3504.07
627.88	3164.11
628.07	3002.32
628.26	2947.03
628.45	3084.24
628.64	3108.82
628.83	3086.29
629.02	2949.08
629.21	3420.11
629.40	3481.55
629.59	3016.66
629.78	3020.75
629.97	3270.61
630.16	3407.82
630.35	3098.58
630.54	3119.06
630.73	3188.69
630.92	3262.41
631.11	2983.89
631.30	3155.92
631.49	3424.20
631.68	3209.17
631.87	3008.47
632.06	3059.67
632.25	3739.59
632.44	3366.86
632.63	3127.25
632.82	3112.91
633.01	3160.02
633.20	3338.19
633.39	3076.05
633.58	2914.26
633.77	3286.99
633.96	3418.06
634.15	3209.17
634.34	3194.83
634.53	3360.72
634.72	3149.78
634.91	2928.60
635.10	3061.71
635.29	3532.75
635.48	3356.62
635.67	3014.61
635.86	2936.79
636.05	3542.99
636.24	3301.33
636.43	3147.73
636.62	3196.88
636.81	2758.61
637.00	3235.79
637.19	3061.71
637.38	3059.67
637.57	3172.30
637.76	3385.29
637.95	3289.04
638.14	3262.41
638.33	3307.47
638.52	3282.89
638.71	2951.12
638.89	2899.92
639.08	3848.13
639.27	3567.56
639.46	3403.72
639.65	3688.39
639.84	3801.03
640.03	4100.03
640.22	3667.91
640.41	3602.38
640.60	3430.35
640.79	3614.66
640.98	3327.95
641.17	3401.68
641.36	3516.36
641.55	3393.48
641.74	3002.32
641.92	2897.88
642.11	3106.77
642.30	3127.25
642.49	3043.28
642.68	3076.05
642.87	3360.72
643.06	3334.09
643.25	2951.12
643.44	2990.03
643.63	3227.60
643.82	3350.48
644.00	2963.41
644.19	3094.48
644.38	3137.49
644.57	3514.31
644.76	3119.06
644.95	3074.00
645.14	3309.52
645.33	3196.88
645.52	3198.93
645.71	2969.55
645.89	3121.10
646.08	3205.07
646.27	3051.47
646.46	3295.18
646.65	2957.27
646.84	3379.15
647.03	2938.84
647.22	3219.41
647.40	3346.38
647.59	3225.55
647.78	2885.59
647.97	3074.00
648.16	3033.04
648.35	3581.90
648.54	3366.86
648.73	3051.47
648.91	3389.39
649.10	3340.24
649.29	3037.14
649.48	3037.14
649.67	3438.54
649.86	3362.76
650.05	3121.10
650.23	3256.27
650.42	3188.69
650.61	3590.09
650.80	3342.28
650.99	3352.52
651.18	3534.79
651.36	3502.03
651.55	2961.36
651.74	3231.69
651.93	3266.51
652.12	3203.02
652.31	3065.81
652.49	3196.88
652.68	3241.93
652.87	3549.13
653.06	3147.73
653.25	3307.47
653.44	3254.22
653.62	3618.76
653.81	3057.62
654.00	3055.57
654.19	3450.83
654.38	3866.56
654.56	3090.38
654.75	2987.99
654.94	3405.77
655.13	3276.75
655.32	3071.95
655.51	3182.54
655.69	3215.31
655.88	3418.06
656.07	2936.79
656.26	3131.34
656.45	2934.74
656.63	3276.75
656.82	3035.09
657.01	3368.91
657.20	3131.34
657.38	3526.60
657.57	3014.61
657.76	2985.94
657.95	3485.64
658.14	3223.50
658.32	3194.83
658.51	2959.31
658.70	3334.09
658.89	3366.86
659.08	3217.36
659.26	3315.66
659.45	3028.95
659.64	3416.01
659.83	3217.36
660.01	3518.41
660.20	3334.09
660.39	3577.80
660.58	2785.24
660.76	3102.67
660.95	2949.08
661.14	3243.98
661.33	2879.44
661.51	3096.53
661.70	3133.39
661.89	3344.33
662.08	3147.73
662.26	2957.27
662.45	3133.39
662.64	3665.86
662.83	3198.93
663.01	2961.36
663.20	3153.87
663.39	3534.79
663.58	3137.49
663.76	3002.32
663.95	3393.48
664.14	3086.29
664.32	3155.92
664.51	3002.32
664.70	2914.26
664.89	3430.35
665.07	2934.74
665.26	3188.69
665.45	3053.52
665.64	3393.48
665.82	3086.29
666.01	3297.23
666.20	3092.43
666.38	3450.83
666.57	3420.11
666.76	5537.71
666.95	13014.84
667.13	20889.28
667.32	25089.67
667.51	28169.81
667.69	29376.06
667.88	24405.64
668.07	17532.66
668.25	15154.97
668.44	12998.46
668.63	11380.56
668.81	9754.48
669.00	8568.70
669.19	7843.72
669.38	6731.67
669.56	5679.02
669.75	4988.85
669.94	4429.76
670.12	3790.79
670.31	3385.29
670.50	3442.64
670.68	3569.61
670.87	3360.72
671.06	3041.23
671.24	3207.12
671.43	3610.57
671.62	3356.62
671.80	3082.19
671.99	3266.51
672.18	3319.76
672.36	3381.20
672.55	3272.65
672.74	3135.44
672.92	3246.03
673.11	3454.92
673.29	2871.25
673.48	3254.22
673.67	3135.44
673.85	3485.64
674.04	2992.08
674.23	3209.17
674.41	3659.72
674.60	3049.43
674.79	2897.88
674.97	2934.74
675.16	3426.25
675.34	3444.68
675.53	3047.38
675.72	3129.30
675.90	3641.29
676.09	3182.54
676.28	3137.49
676.46	2996.18
676.65	3342.28
676.83	3102.67
677.02	3151.82
677.21	3188.69
677.39	3362.76
677.58	3149.78
677.77	3131.34
677.95	3004.37
678.14	3286.99
678.32	3237.84
678.51	3147.73
678.70	3403.72
678.88	3200.98
679.07	3319.76
679.25	3051.47
679.44	3082.19
679.63	3053.52
679.81	3397.58
680.00	3411.92
680.18	3184.59
680.37	3583.95
680.55	3332.05
680.74	2869.20
680.93	2838.48
681.11	3368.91
681.30	3246.03
681.48	3131.34
681.67	3084.24
681.85	3246.03
682.04	3127.25
682.23	3237.84
682.41	3229.65
682.60	3250.13
682.78	3227.60
682.97	2953.17
683.15	3149.78
683.34	3383.24
683.53	3499.98
683.71	2924.50
683.90	3112.91
684.08	3581.90
684.27	3157.97
684.45	3164.11
684.64	3282.89
684.82	3276.75
685.01	3387.34
685.19	3065.81
685.38	3346.38
685.57	3338.19
685.75	3092.43
685.94	3004.37
686.12	2918.36
686.31	3184.59
686.49	3633.10
686.68	2848.72
686.86	3039.19
687.05	3223.50
687.23	3653.58
687.42	3110.86
687.60	2891.73
687.79	3438.54
687.97	3483.59
688.16	3323.85
688.34	3311.57
688.53	2893.78
688.71	3385.29
688.90	3358.67
689.08	3135.44
689.27	2987.99
689.45	3418.06
689.64	3303.37
689.82	3164.11
690.01	3344.33
690.19	3270.61
690.38	3174.35
690.56	3213.26
690.75	3157.97
690.93	3088.34
691.12	3076.05
691.30	3074.00
691.49	3200.98
691.67	3254.22
691.86	3377.10
692.04	3069.91
692.23	3231.69
692.41	3321.81
692.60	3459.02
692.78	3319.76
692.97	3297.23
693.15	3475.40
693.34	3389.39
693.52	3284.94
693.71	3182.54
693.89	3205.07
694.08	2875.35
694.26	3237.84
694.44	3403.72
694.63	3385.29
694.81	3012.56
695.00	3090.38
695.18	3549.13
695.37	3813.32
695.55	3186.64
695.74	3188.69
695.92	3082.19
696.10	3477.45
696.29	2947.03
696.47	3078.10
696.66	3104.72
696.84	3061.71
697.03	3143.63
697.21	3424.20
697.40	4732.86
697.58	3493.83
697.76	3123.15
697.95	3096.53
698.13	3059.67
698.32	3149.78
698.50	3037.14
698.68	3160.02
698.87	3354.57
699.05	3661.77
699.24	3078.10
699.42	3086.29
699.61	3325.90
699.79	3239.89
699.97	3155.92
700.16	3004.37
700.34	3061.71
700.53	3266.51
700.71	3303.37
700.89	3190.74
701.08	3213.26
701.26	3301.33
701.45	3422.16
701.63	3049.43
701.81	3231.69
702.00	3170.26
702.18	3233.74
702.37	3057.62
702.55	3526.60
702.73	3405.77
702.92	3203.02
703.10	3508.17
703.28	3520.46
703.47	2987.99
703.65	3348.43
703.84	3278.80
704.02	3196.88
704.20	3669.96
704.39	3141.58
704.57	3086.29
704.75	3463.12
704.94	3395.53
705.12	3303.37
705.30	3887.04
705.49	8886.14
705.67	17526.52
705.86	23981.71
706.04	27580.00
706.22	30424.62
706.41	29113.92
706.59	21853.87
706.77	17020.67
706.96	14716.70
707.14	13393.72
707.32	11239.25
707.51	9879.40
707.69	8054.66
707.87	6653.85
708.06	5259.18
708.24	4517.82
708.42	4128.70
708.61	4249.54
708.79	3227.60
708.97	3411.92
709.16	3340.24
709.34	3307.47
709.52	3215.31
709.71	3196.88
709.89	3436.49
710.07	3164.11
710.26	3043.28
710.44	3074.00
710.62	3442.64
710.80	3344.33
710.99	3188.69
711.17	3198.93
711.35	3123.15
711.54	3112.91
711.72	3248.08
711.90	3182.54
712.09	3284.94
712.27	3149.78
712.45	3227.60
712.63	3086.29
712.82	3377.10
713.00	3258.32
713.18	3209.17
713.37	3297.23
713.55	3409.87
713.73	3360.72
713.91	3096.53
714.10	3168.21
714.28	3248.08
714.46	3311.57
714.65	3184.59
714.83	3164.11
715.01	3276.75
715.19	3248.08
715.38	3088.34
715.56	3213.26
715.74	3149.78
715.92	3117.01
716.11	3377.10
716.29	2901.97
716.47	3211.22
716.65	3256.27
716.84	3000.27
717.02	3104.72
717.20	2850.77
717.38	3065.81
717.57	3186.64
717.75	3166.16
717.93	3221.45
718.11	3434.44
718.30	2922.45
718.48	3143.63
718.66	3545.03
718.84	3528.65
719.03	3074.00
719.21	2949.08
719.39	3633.10
719.57	3354.57
719.75	3176.40
719.94	3143.63
720.12	3250.13
720.30	3346.38
720.48	3155.92
720.67	3102.67
720.85	3133.39
721.03	3184.59
721.21	3059.67
721.39	3262.41
721.58	3346.38
721.76	3397.58
721.94	3110.86
722.12	3180.50
722.30	3626.95
722.49	3139.54
722.67	3022.80
722.85	3123.15
723.03	3010.51
723.21	3117.01
723.40	3057.62
723.58	3207.12
723.76	3420.11
723.94	3518.41
724.12	3092.43
724.30	3381.20
724.49	3471.31
724.67	3063.76
724.85	3215.31
725.03	2893.78
725.21	3467.21
725.40	3473.36
725.58	3088.34
725.76	3262.41
725.94	3401.68
726.12	3098.58
726.30	3256.27
726.49	3108.82
726.67	3131.34
726.85	3403.72
727.03	4048.83
727.21	5455.79
727.39	7403.41
727.57	7782.28
727.76	8560.51
727.94	8630.14
728.12	7425.93
728.30	6006.69
728.48	5568.43
728.66	5246.90
728.84	4818.87
729.03	4235.20
729.21	3864.52
729.39	3588.04
729.57	3418.06
729.75	3424.20
729.93	3389.39
730.11	3006.42
730.30	3200.98
730.48	3262.41
730.66	3213.26
730.84	3231.69
731.02	3252.17
731.20	3166.16
731.38	3098.58
731.56	3020.75
731.74	2965.46
731.93	3383.24
732.11	3121.10
732.29	3096.53
732.47	3348.43
732.65	3303.37
732.83	3305.42
733.01	3164.11
733.19	3119.06
733.37	3379.15
733.56	3069.91
733.74	2920.40
733.92	3645.38
734.10	3221.45
734.28	3272.65
734.46	2928.60
734.64	3172.30
734.82	3213.26
735.00	3051.47
735.18	3002.32
735.36	3241.93
735.54	3248.08
735.73	3119.06
735.91	3231.69
736.09	3524.55
736.27	3272.65
736.45	3147.73
736.63	2834.39
736.81	3217.36
736.99	3504.07
737.17	3246.03
737.35	3051.47
737.53	3299.28
737.71	3248.08
737.89	3295.18
738.07	3074.00
738.25	3178.45
738.43	3020.75
738.61	3106.77
738.80	2928.60
738.98	3076.05
739.16	3114.96
739.34	3018.71
739.52	3327.95
739.70	3164.11
739.88	3387.34
740.06	3254.22
740.24	2877.40
740.42	3489.74
740.60	2920.40
740.78	3117.01
740.96	2918.36
741.14	3188.69
741.32	3219.41
741.50	2955.22
741.68	3325.90
741.86	3557.32
742.04	3022.80
742.22	2928.60
742.40	3114.96
742.58	3463.12
742.76	3188.69
742.94	3356.62
743.12	2979.79
743.30	3305.42
743.48	3315.66
743.66	3024.85
743.84	3065.81
744.02	3239.89
744.20	3205.07
744.38	2924.50
744.56	3028.95
744.74	3729.35
744.92	3338.19
745.10	3344.33
745.28	3194.83
745.46	3598.28
745.64	3198.93
745.82	3096.53
746.00	3092.43
746.18	3362.76
746.36	3061.71
746.54	3164.11
746.72	3155.92
746.90	3084.24
747.08	3467.21
747.26	3057.62
747.44	3229.65
747.62	3452.88
747.80	3352.52
747.98	3176.40
748.15	3057.62
748.33	3667.91
748.51	3303.37
748.69	3219.41
748.87	2963.41
749.05	3258.32
749.23	3157.97
749.41	3143.63
749.59	3076.05
749.77	3450.83
749.95	3225.55
750.13	3114.96
750.31	3254.22
750.49	3305.42
750.67	3491.79
750.85	3192.78
751.03	3049.43
751.20	3704.78
751.38	3256.27
751.56	3092.43
751.74	3086.29
751.92	3264.46
752.10	3110.86
752.28	3246.03
752.46	3086.29
752.64	3254.22
752.82	3256.27
753.00	3176.40
753.18	2977.75
753.35	3180.50
753.53	3233.74
753.71	3012.56
753.89	3090.38
754.07	3403.72
754.25	3411.92
754.43	3190.74
754.61	2940.88
754.79	3395.53
754.97	3223.50
755.14	3270.61
755.32	3006.42
755.50	3299.28
755.68	3280.85
755.86	3022.80
756.04	3043.28
756.22	2877.40
756.40	3504.07
756.57	3278.80
756.75	3098.58
756.93	3483.59
757.11	3495.88
757.29	2953.17
757.47	3037.14
757.65	2961.36
757.82	2836.44
758.00	3086.29
758.18	3022.80
758.36	3110.86
758.54	3626.95
758.72	2836.44
758.90	3250.13
759.07	3301.33
759.25	3162.06
759.43	3203.02
759.61	2910.16
759.79	4489.15
759.97	3508.17
760.15	3100.62
760.32	3000.27
760.50	3346.38
760.68	3567.56
760.86	2904.02
761.04	3373.00
761.22	3299.28
761.39	3286.99
761.57	3135.44
761.75	3071.95
761.93	3389.39
762.11	3203.02
762.28	3182.54
762.46	3018.71
762.64	3442.64
762.82	2979.79
763.00	2981.84
763.18	3235.79
763.35	3041.23
763.53	3385.29
763.71	3200.98
763.89	3127.25
764.07	3301.33
764.24	3291.09
764.42	3211.22
764.60	3086.29
764.78	3407.82
764.96	3344.33
765.13	3350.48
765.31	2969.55
765.49	3434.44
765.67	3035.09
765.84	3016.66
766.02	3012.56
766.20	2922.45
766.38	3344.33
766.56	3133.39
766.73	3221.45
766.91	3254.22
767.09	3209.17
767.27	3147.73
767.44	2971.60
767.62	3409.87
767.80	3243.98
767.98	3000.27
768.15	3127.25
768.33	3418.06
768.51	3348.43
768.69	3250.13
768.87	3098.58
769.04	3305.42
769.22	3848.13
769.40	3164.11
769.58	3270.61
769.75	3258.32
769.93	3510.22
770.11	3102.67
770.28	2996.18
770.46	3370.96
770.64	3405.77
770.82	3033.04
770.99	3035.09
771.17	3467.21
771.35	3184.59
771.53	3155.92
771.70	3100.62
771.88	3401.68
772.06	3221.45
772.23	3067.86
772.41	3117.01
772.59	3200.98
772.77	3123.15
772.94	3123.15
773.12	3231.69
773.30	3225.55
773.47	3250.13
773.65	3090.38
773.83	3235.79
774.01	3252.17
774.18	2934.74
774.36	3131.34
774.54	2942.93
774.71	3291.09
774.89	2961.36
775.07	3008.47
775.24	3157.97
775.42	3147.73
775.60	3626.95
775.78	3069.91
775.95	2969.55
776.13	2885.59
776.31	2961.36
776.48	3274.70
776.66	3301.33
776.84	3205.07
777.01	3121.10
777.19	3008.47
777.37	3043.28
777.54	3387.34
777.72	3706.82
777.90	3172.30
778.07	2949.08
778.25	3897.28
778.43	3461.07
778.60	3069.91
778.78	3190.74
778.96	3459.02
779.13	3098.58
779.31	3176.40
779.49	3106.77
779.66	3334.09
779.84	3147.73
780.01	3065.81
780.19	2987.99
780.37	3557.32
780.54	3426.25
780.72	2947.03
780.90	3125.20
781.07	3182.54
781.25	3110.86
781.43	3289.04
781.60	3106.77
781.78	3583.95
781.95	3340.24
782.13	3028.95
782.31	3049.43
782.48	2824.15
782.66	3131.34
782.83	3352.52
783.01	3225.55
783.19	3452.88
783.36	3184.59
783.54	3037.14
783.72	3229.65
783.89	3227.60
784.07	3399.63
784.24	3200.98
784.42	3266.51
784.60	3377.10
784.77	3366.86
784.95	2840.53
785.12	3008.47
785.30	3315.66
785.47	3078.10
785.65	3028.95
785.83	3166.16
786.00	3211.22
786.18	3264.46
786.35	3043.28
786.53	2953.17
786.71	3438.54
786.88	3352.52
787.06	3196.88
787.23	3098.58
787.41	3090.38
787.58	3323.85
787.76	2979.79
787.94	3067.86
788.11	3325.90
788.29	3041.23
788.46	3123.15
788.64	2930.64
788.81	3139.54
788.99	3065.81
789.16	2967.51
789.34	3108.82
789.52	3196.88
789.69	3184.59
789.87	2861.01
790.04	3071.95
790.22	3221.45
790.39	3684.30
790.57	2981.84
790.74	2987.99
790.92	3495.88
791.09	2967.51
791.27	3135.44
791.44	3178.45
791.62	3184.59
791.79	3461.07
791.97	3176.40
792.15	3399.63
792.32	3342.28
792.50	3373.00
792.67	3299.28
792.85	3405.77
793.02	3340.24
793.20	3207.12
793.37	2940.88
793.55	2983.89
793.72	2967.51
793.90	3368.91
794.07	3041.23
794.25	3033.04
794.42	3211.22
794.60	3198.93
794.77	3117.01
794.95	3278.80
795.12	3450.83
795.30	3282.89
795.47	2836.44
795.65	3430.35
795.82	3368.91
796.00	3153.87
796.17	3131.34
796.34	3020.75
796.52	3305.42
796.69	3381.20
796.87	3153.87
797.04	3178.45
797.22	3444.68
797.39	3293.13
797.57	3225.55
797.74	3145.68
797.92	3311.57
798.09	3188.69
798.27	3370.96
798.44	3082.19
798.62	3119.06
798.79	3319.76
798.96	3241.93
799.14	3074.00
799.31	3930.05
799.49	3229.65
799.66	3071.95
799.84	3151.82
800.01	3020.75
800.19	3360.72
800.36	2877.40
800.53	3078.10
800.71	3307.47
800.88	3577.80
801.06	3033.04
801.23	3084.24
801.41	3213.26
801.58	3170.26
801.75	3074.00
801.93	3215.31
802.10	3438.54
802.28	3141.58
802.45	3092.43
802.63	3170.26
802.80	3532.75
802.97	3207.12
803.15	3119.06
803.32	3051.47
803.50	3076.05
803.67	3108.82
803.84	3012.56
804.02	3168.21
804.19	3215.31
804.37	2779.09
804.54	2846.68
804.71	3076.05
804.89	3278.80
805.06	3188.69
805.24	3039.19
805.41	2994.13
805.58	3147.73
805.76	3764.17
805.93	3035.09
806.10	3256.27
806.28	3373.00
806.45	3274.70
806.63	3176.40
806.80	3164.11
806.97	3321.81
807.15	3241.93
807.32	3117.01
807.49	3133.39
807.67	3020.75
807.84	3354.57
808.01	2955.22
808.19	3246.03
808.36	3733.45
808.54	3203.02
808.71	3092.43
808.88	3084.24
809.06	3508.17
809.23	3524.55
809.40	3139.54
809.58	3000.27
809.75	3252.17
809.92	3071.95
810.10	3297.23
810.27	3022.80
810.44	3350.48
810.62	3481.55
810.79	3131.34
810.96	3047.38
811.14	3170.26
811.31	3332.05
811.48	3229.65
811.66	3176.40
811.83	3491.79
812.00	3305.42
812.18	3215.31
812.35	3420.11
812.52	3213.26
812.69	3188.69
812.87	3030.99
813.04	3012.56
813.21	3221.45
813.39	3110.86
813.56	3045.33
813.73	3364.81
813.91	3051.47
814.08	3289.04
814.25	3125.20
814.42	2910.16
814.60	3225.55
814.77	3258.32
814.94	3016.66
815.12	3182.54
815.29	3522.51
815.46	3151.82
815.63	3123.15
815.81	3024.85
815.98	3160.02
816.15	3129.30
816.33	3200.98
816.50	3055.57
816.67	3295.18
816.84	3246.03
817.02	2924.50
817.19	2975.70
817.36	3377.10
817.53	3379.15
817.71	2973.65
817.88	3137.49
818.05	3198.93
818.22	3112.91
818.40	3278.80
818.57	3100.62
818.74	3352.52
818.91	3258.32
819.09	3282.89
819.26	3209.17
819.43	3127.25
819.60	3096.53
819.78	3295.18
819.95	3225.55
820.12	3108.82
820.29	3532.75
820.47	3297.23
820.64	3024.85
820.81	3067.86
820.98	3100.62
821.15	3055.57
821.33	3166.16
821.50	2928.60
821.67	3352.52
821.84	3043.28
822.02	3059.67
822.19	3383.24
822.36	3194.83
822.53	3008.47
822.70	2967.51
822.88	3127.25
823.05	3469.26
823.22	3160.02
823.39	3102.67
823.56	3323.85
823.74	3721.16
823.91	2895.83
824.08	3020.75
824.25	3024.85
824.42	3473.36
824.60	2844.63
824.77	3139.54
824.94	3164.11
825.11	3444.68
825.28	2918.36
825.45	3121.10
825.63	3252.17
825.80	3033.04
825.97	3121.10
826.14	3110.86
826.31	3004.37
826.48	3330.00
826.66	3082.19
826.83	3037.14
827.00	3221.45
827.17	3069.91
827.34	3139.54
827.51	3057.62
827.69	3217.36
827.86	2998.23
828.03	3131.34
828.20	3096.53
828.37	3119.06
828.54	3413.96
828.71	3030.99
828.89	3211.22
829.06	3217.36
829.23	3516.36
829.40	3024.85
829.57	3108.82
829.74	3420.11
829.91	3135.44
830.09	2973.65
830.26	3223.50
830.43	3549.13
830.60	3282.89
830.77	3178.45
830.94	3284.94
831.11	3387.34
831.28	3180.50
831.46	3182.54
831.63	3100.62
831.80	3454.92
831.97	3055.57
832.14	3024.85
832.31	3176.40
832.48	3180.50
832.65	3395.53
832.82	3274.70
832.99	3110.86
833.17	3114.96
833.34	3581.90
833.51	3035.09
833.68	2897.88
833.85	3387.34
834.02	3063.76
834.19	2983.89
834.36	3004.37
834.53	3289.04
834.70	3403.72
834.87	3098.58
835.04	2820.05
835.22	3104.72
835.39	3264.46
835.56	2877.40
835.73	2963.41
835.90	3532.75
836.07	3094.48
836.24	3045.33
836.41	2906.07
836.58	3157.97
836.75	3379.15
836.92	2928.60
837.09	2844.63
837.26	3469.26
837.43	3381.20
837.60	2957.27
837.77	2963.41
837.94	3434.44
838.12	3491.79
838.29	2811.86
838.46	2877.40
838.63	3069.91
838.80	3633.10
838.97	2947.03
839.14	2867.16
839.31	3258.32
839.48	3383.24
839.65	2910.16
839.82	3008.47
839.99	3325.90
840.16	3311.57
840.33	2863.06
840.50	2998.23
840.67	3119.06
840.84	2750.42
841.01	2873.30
841.18	2848.72
841.35	3188.69
841.52	3495.88
841.69	3256.27
841.86	2934.74
842.03	3248.08
842.20	3422.16
842.37	2893.78
842.54	2996.18
842.71	3286.99
842.88	2998.23
843.05	2969.55
843.22	2904.02
843.39	3469.26
843.56	3164.11
843.73	2936.79
843.90	2938.84
844.07	3248.08
844.24	3522.51
844.41	3045.33
844.58	2944.98
844.75	3342.28
844.92	3334.09
845.09	3039.19
845.26	2914.26
845.43	3444.68
845.60	3223.50
845.77	2963.41
845.94	3053.52
846.10	3360.72
846.27	3043.28
846.44	2750.42
846.61	2836.44
846.78	3373.00
846.95	3416.01
847.12	2871.25
847.29	2910.16
847.46	3055.57
847.63	3436.49
847.80	2867.16
847.97	2953.17
848.14	3778.50
848.31	3231.69
848.48	2781.14
848.65	2865.11
848.82	3082.19
848.98	3805.13
849.15	3049.43
849.32	3030.99
849.49	3514.31
849.66	3235.79
849.83	2836.44
850.00	2924.50
850.17	3348.43
850.34	3186.64
850.51	2869.20
850.68	2987.99
850.85	3737.54
851.01	3409.87
851.18	2869.20
851.35	3020.75
851.52	3336.14
851.69	3639.24
851.86	2916.31
852.03	2869.20
852.20	3430.35
852.37	3270.61
852.53	2734.04
852.70	2895.83
852.87	3323.85
853.04	3393.48
853.21	2891.73
853.38	3246.03
853.55	3624.90
853.72	3483.59
853.89	2797.53
854.05	2889.68
854.22	3223.50
854.39	3133.39
854.56	2877.40
854.73	3049.43
854.90	3006.42
855.07	3248.08
855.23	2840.53
855.40	2861.01
855.57	3168.21
855.74	2826.20
855.91	3176.40
856.08	2746.33
856.25	2949.08
856.41	3098.58
856.58	2947.03
856.75	3012.56
856.92	3049.43
857.09	3403.72
857.26	2758.61
857.42	3000.27
857.59	3385.29
857.76	3131.34
857.93	2926.55
858.10	2938.84
858.27	2938.84
858.43	3311.57
858.60	2985.94
858.77	2861.01
858.94	3231.69
859.11	3493.83
859.27	3008.47
859.44	2914.26
859.61	3721.16
859.78	3323.85
859.95	2959.31
860.12	2799.57
860.28	3682.25
860.45	3598.28
860.62	2838.48
860.79	2977.75
860.95	3266.51
861.12	3121.10
861.29	2830.29
861.46	2873.30
861.63	3264.46
861.79	3266.51
861.96	2856.92
862.13	2889.68
862.30	3534.79
862.47	3108.82
862.63	2787.29
862.80	3002.32
862.97	3446.73
863.14	3373.00
863.30	2987.99
863.47	2877.40
863.64	3540.94
863.81	3250.13
863.97	2832.34
864.14	2928.60
864.31	3196.88
864.48	3241.93
864.65	2906.07
864.81	3026.90
864.98	3411.92
865.15	3389.39
865.32	3012.56
865.48	3043.28
865.65	3561.42
865.82	3147.73
865.98	3041.23
866.15	2969.55
866.32	3291.09
866.49	3198.93
866.65	3092.43
866.82	2953.17
866.99	3291.09
867.16	3082.19
867.32	3026.90
867.49	2904.02
867.66	3227.60
867.83	3151.82
867.99	2848.72
868.16	2967.51
868.33	3041.23
868.49	3280.85
868.66	2848.72
868.83	2967.51
868.99	3274.70
869.16	3350.48
869.33	3014.61
869.50	3041.23
869.66	3256.27
869.83	3225.55
870.00	2838.48
870.16	3035.09
870.33	3284.94
870.50	3393.48
870.66	3024.85
870.83	2965.46
871.00	3229.65
871.17	3332.05
871.33	3059.67
871.50	2844.63
871.67	3262.41
871.83	3133.39
872.00	2992.08
872.17	2897.88
872.33	3682.25
872.50	3485.64
872.67	2904.02
872.83	2815.96
873.00	3278.80
873.17	3272.65
873.33	3012.56
873.50	3016.66
873.67	3125.20
873.83	3074.00
874.00	2932.69
874.16	3096.53
874.33	3256.27
874.50	3016.66
874.66	2824.15
874.83	3014.61
875.00	3446.73
875.16	3381.20
875.33	3076.05
875.50	2684.89
875.66	3121.10
875.83	3336.14
875.99	3002.32
876.16	3100.62
876.33	3033.04
876.49	3221.45
876.66	3039.19
876.83	2934.74
876.99	2959.31
877.16	3182.54
877.32	2879.44
877.49	2983.89
877.66	3311.57
877.82	3647.43
877.99	2934.74
878.15	3231.69
878.32	3325.90
878.49	3295.18
878.65	2959.31
878.82	3198.93
878.98	3239.89
879.15	3489.74
879.32	3155.92
879.48	3135.44
879.65	3209.17
879.81	3223.50
879.98	2920.40
880.15	3047.38
880.31	3430.35
880.48	3108.82
880.64	3037.14
880.81	3080.14
880.97	3577.80
881.14	3606.47
881.31	2963.41
881.47	3074.00
881.64	3188.69
881.80	2975.70
881.97	3082.19
882.13	3039.19
882.30	3020.75
882.47	3071.95
882.63	2895.83
882.80	2901.97
882.96	3235.79
883.13	3471.31
883.29	2891.73
883.46	2916.31
883.62	3694.54
883.79	3213.26
883.95	3145.68
884.12	2934.74
884.29	3471.31
884.45	3338.19
884.62	2975.70
884.78	2879.44
884.95	3612.62
885.11	3082.19
885.28	3090.38
885.44	2885.59
885.61	3395.53
885.77	3510.22
885.94	3000.27
886.10	3026.90
886.27	3379.15
886.43	3547.08
886.60	3172.30
886.76	2985.94
886.93	3090.38
887.09	3299.28
887.26	2715.61
887.42	3049.43
887.59	3475.40
887.75	3688.39
887.92	3203.02
888.08	3086.29
888.25	3696.58
888.41	3432.40
888.58	2967.51
888.74	2953.17
888.91	3147.73
>>>>>End Processed Spectral Data<<<<<
