SpectraSuite Data File
++++++++++++++++++++++++++++++++++++
Date: Fri May 06 08:14:36 CEST 2016
User: root
Dark Spectrum Present: No
Reference Spectrum Present: No
Number of Sampled Component Spectra: 1
Spectrometers: USB4C02835
Integration Time (usec): 100000 (USB4C02835)
Spectra Averaged: 1 (USB4C02835)
Boxcar Smoothing: 0 (USB4C02835)
Correct for Electrical Dark: No (USB4C02835)
Strobe/Lamp Enabled: No (USB4C02835)
Correct for Detector Non-linearity: No (USB4C02835)
Correct for Stray Light: No (USB4C02835)
Number of Pixels in Processed Spectrum: 3648
>>>>>Begin Processed Spectral Data<<<<<
177.47	2281.44
177.69	2281.44
177.91	2281.44
178.13	2195.42
178.36	2306.01
178.58	3008.47
178.80	3180.50
179.02	2994.13
179.24	3049.43
179.46	2789.33
179.68	2832.34
179.90	3297.23
180.13	3284.94
180.35	2625.50
180.57	2881.49
180.79	3459.02
181.01	3321.81
181.23	2820.05
181.45	3035.09
181.67	3422.16
181.90	3389.39
182.12	2936.79
182.34	2648.02
182.56	3440.59
182.78	3362.76
183.00	2828.24
183.22	2918.36
183.44	2869.20
183.66	3844.04
183.89	2942.93
184.11	2822.10
184.33	3405.77
184.55	3551.18
184.77	2852.82
184.99	2824.15
185.21	3213.26
185.43	3792.84
185.65	2901.97
185.87	2881.49
186.10	3751.88
186.32	3794.89
186.54	3008.47
186.76	3016.66
186.98	3438.54
187.20	3196.88
187.42	2848.72
187.64	2828.24
187.86	3450.83
188.08	3471.31
188.30	2779.09
188.52	2887.64
188.75	3536.84
188.97	3549.13
189.19	2842.58
189.41	2867.16
189.63	3420.11
189.85	3250.13
190.07	2742.23
190.29	2699.22
190.51	3383.24
190.73	3024.85
190.95	3104.72
191.17	2975.70
191.39	3016.66
191.61	3223.50
191.84	2828.24
192.06	3028.95
192.28	3000.27
192.50	3925.96
192.72	3016.66
192.94	2940.88
193.16	3493.83
193.38	3389.39
193.60	2756.57
193.82	3008.47
194.04	3428.30
194.26	3395.53
194.48	2869.20
194.70	2822.10
194.92	3121.10
195.14	3325.90
195.36	2807.77
195.58	2885.59
195.80	3174.35
196.02	3147.73
196.24	2791.38
196.46	3010.51
196.69	3174.35
196.91	3784.65
197.13	2881.49
197.35	2947.03
197.57	3553.23
197.79	3387.34
198.01	2930.64
198.23	2932.69
198.45	3409.87
198.67	3100.62
198.89	2699.22
199.11	2990.03
199.33	3192.78
199.55	2820.05
199.77	2844.63
199.99	3020.75
200.21	3225.55
200.43	3391.44
200.65	2731.99
200.87	2678.74
201.09	3321.81
201.31	3270.61
201.53	2858.96
201.75	2916.31
201.97	3256.27
202.19	3198.93
202.41	3006.42
202.63	3004.37
202.85	3426.25
203.07	3413.96
203.29	2938.84
203.51	2781.14
203.73	3086.29
203.95	3758.02
204.17	2885.59
204.39	2992.08
204.61	3297.23
204.83	3190.74
205.05	2992.08
205.27	2865.11
205.49	3747.78
205.71	3264.46
205.93	2770.90
206.15	2758.61
206.37	3239.89
206.59	3231.69
206.81	2729.94
207.03	2738.13
207.25	3071.95
207.47	3418.06
207.69	2869.20
207.91	3006.42
208.13	3635.14
208.34	3117.01
208.56	2791.38
208.78	2914.26
209.00	3278.80
209.22	3278.80
209.44	2897.88
209.66	2815.96
209.88	3284.94
210.10	3162.06
210.32	2904.02
210.54	2942.93
210.76	3293.13
210.98	3520.46
211.20	2707.41
211.42	2916.31
211.64	3569.61
211.86	3340.24
212.08	2975.70
212.30	2865.11
212.52	3186.64
212.74	3422.16
212.96	3016.66
213.17	2901.97
213.39	3418.06
213.61	3534.79
213.83	2914.26
214.05	2826.20
214.27	3571.66
214.49	3096.53
214.71	2805.72
214.93	2889.68
215.15	3291.09
215.37	3502.03
215.59	2764.76
215.81	2953.17
216.03	3577.80
216.24	3280.85
216.46	2807.77
216.68	2858.96
216.90	3475.40
217.12	3499.98
217.34	2832.34
217.56	3006.42
217.78	3594.19
218.00	3389.39
218.22	2959.31
218.44	2963.41
218.66	3354.57
218.87	3706.82
219.09	2893.78
219.31	2854.87
219.53	3373.00
219.75	3164.11
219.97	2856.92
220.19	2848.72
220.41	3223.50
220.63	3622.86
220.85	2844.63
221.06	2957.27
221.28	3561.42
221.50	3385.29
221.72	2760.66
221.94	2723.80
222.16	3340.24
222.38	3336.14
222.60	2856.92
222.82	2918.36
223.03	3395.53
223.25	3035.09
223.47	2832.34
223.69	3123.15
223.91	3456.97
224.13	3217.36
224.35	2772.95
224.57	3084.24
224.78	3395.53
225.00	3147.73
225.22	3026.90
225.44	2807.77
225.66	3385.29
225.88	3209.17
226.10	3008.47
226.32	2875.35
226.53	3553.23
226.75	3141.58
226.97	2899.92
227.19	2840.53
227.41	3094.48
227.63	3155.92
227.85	2693.08
228.06	2987.99
228.28	3338.19
228.50	3510.22
228.72	2703.32
228.94	2830.29
229.16	2818.00
229.37	2957.27
229.59	2738.13
229.81	3153.87
230.03	3114.96
230.25	3035.09
230.47	2707.41
230.69	2791.38
230.90	3401.68
231.12	3084.24
231.34	2949.08
231.56	2957.27
231.78	3039.19
232.00	3303.37
232.21	2877.40
232.43	2881.49
232.65	2861.01
232.87	3334.09
233.09	2754.52
233.30	2795.48
233.52	3446.73
233.74	3176.40
233.96	2781.14
234.18	3041.23
234.40	3166.16
234.61	3737.54
234.83	2721.75
235.05	2815.96
235.27	3753.93
235.49	3467.21
235.70	2729.94
235.92	2924.50
236.14	3389.39
236.36	3768.26
236.58	2756.57
236.79	2977.75
237.01	3377.10
237.23	3246.03
237.45	3090.38
237.67	2844.63
237.88	3360.72
238.10	3610.57
238.32	2742.23
238.54	2754.52
238.76	3200.98
238.97	2965.46
239.19	2666.46
239.41	2901.97
239.63	3463.12
239.85	3147.73
240.06	2973.65
240.28	2822.10
240.50	3448.78
240.72	3289.04
240.93	2834.39
241.15	2998.23
241.37	3268.56
241.59	3598.28
241.81	2863.06
242.02	2951.12
242.24	3336.14
242.46	3364.81
242.68	2693.08
242.89	2797.53
243.11	3440.59
243.33	3303.37
243.55	2918.36
243.76	2879.44
243.98	3176.40
244.20	3311.57
244.42	2879.44
244.64	2830.29
244.85	2971.60
245.07	3096.53
245.29	2885.59
245.51	2856.92
245.72	3336.14
245.94	3504.07
246.16	2811.86
246.38	2901.97
246.59	3190.74
246.81	3135.44
247.03	2818.00
247.24	2731.99
247.46	3192.78
247.68	3393.48
247.90	2803.67
248.11	2912.21
248.33	3432.40
248.55	3307.47
248.77	2940.88
248.98	2985.94
249.20	3606.47
249.42	3321.81
249.64	2861.01
249.85	2932.69
250.07	3239.89
250.29	3426.25
250.50	2983.89
250.72	2805.72
250.94	3395.53
251.16	3731.40
251.37	2832.34
251.59	2973.65
251.81	3409.87
252.02	3563.47
252.24	2791.38
252.46	3000.27
252.68	3151.82
252.89	3198.93
253.11	2742.23
253.33	2981.84
253.54	3547.08
253.76	2992.08
253.98	2818.00
254.20	2789.33
254.41	3053.52
254.63	3217.36
254.85	2717.65
255.06	2961.36
255.28	3391.44
255.50	3131.34
255.71	2826.20
255.93	2668.50
256.15	3196.88
256.36	3452.88
256.58	2668.50
256.80	2731.99
257.02	3274.70
257.23	3246.03
257.45	2930.64
257.67	3024.85
257.88	3166.16
258.10	3352.52
258.32	2820.05
258.53	2969.55
258.75	3633.10
258.97	3174.35
259.18	2789.33
259.40	2854.87
259.62	3633.10
259.83	3612.62
260.05	2885.59
260.27	3774.41
260.48	3377.10
260.70	3041.23
260.92	2746.33
261.13	2836.44
261.35	3311.57
261.57	3325.90
261.78	2762.71
262.00	2820.05
262.22	3385.29
262.43	3125.20
262.65	2865.11
262.86	2877.40
263.08	3809.22
263.30	3309.52
263.51	2672.60
263.73	2785.24
263.95	3649.48
264.16	3092.43
264.38	2674.65
264.60	2799.57
264.81	3217.36
265.03	3469.26
265.25	3330.00
265.46	2758.61
265.68	3510.22
265.89	3428.30
266.11	2631.64
266.33	2889.68
266.54	3516.36
266.76	3385.29
266.98	2961.36
267.19	2992.08
267.41	3461.07
267.62	3272.65
267.84	2707.41
268.06	3076.05
268.27	3336.14
268.49	3456.97
268.70	3051.47
268.92	2910.16
269.14	3155.92
269.35	2981.84
269.57	3053.52
269.79	2947.03
270.00	3176.40
270.22	3692.49
270.43	2746.33
270.65	2709.46
270.87	3274.70
271.08	3334.09
271.30	2963.41
271.51	2887.64
271.73	3407.82
271.95	3471.31
272.16	2789.33
272.38	2987.99
272.59	3119.06
272.81	3448.78
273.02	2783.19
273.24	2987.99
273.46	3571.66
273.67	3002.32
273.89	2764.76
274.10	2813.91
274.32	3524.55
274.54	3358.67
274.75	2908.12
274.97	2934.74
275.18	3407.82
275.40	3442.64
275.61	2883.54
275.83	3045.33
276.05	3088.34
276.26	3284.94
276.48	2938.84
276.69	3053.52
276.91	3233.74
277.12	3606.47
277.34	3102.67
277.55	3125.20
277.77	3246.03
277.99	3147.73
278.20	3022.80
278.42	2904.02
278.63	3102.67
278.85	3071.95
279.06	3024.85
279.28	3065.81
279.49	3471.31
279.71	3469.26
279.93	2979.79
280.14	3084.24
280.36	3160.02
280.57	3401.68
280.79	3162.06
281.00	2918.36
281.22	3104.72
281.43	3469.26
281.65	2721.75
281.86	2928.60
282.08	3375.05
282.29	3725.26
282.51	2893.78
282.73	2863.06
282.94	3000.27
283.16	3397.58
283.37	3092.43
283.59	3008.47
283.80	3366.86
284.02	3268.56
284.23	2963.41
284.45	3074.00
284.66	3067.86
284.88	3141.58
285.09	2861.01
285.31	3145.68
285.52	3383.24
285.74	2959.31
285.95	3108.82
286.17	3043.28
286.38	3524.55
286.60	3160.02
286.81	2961.36
287.03	2918.36
287.24	3233.74
287.46	3332.05
287.67	3155.92
287.89	3321.81
288.10	3282.89
288.32	3358.67
288.53	3153.87
288.75	3149.78
288.96	3407.82
289.18	3137.49
289.39	2914.26
289.61	2987.99
289.82	3684.30
290.04	3745.73
290.25	2854.87
290.47	3092.43
290.68	3266.51
290.90	3477.45
291.11	2822.10
291.33	3166.16
291.54	3108.82
291.76	3198.93
291.97	3131.34
292.18	3090.38
292.40	3270.61
292.61	3137.49
292.83	3299.28
293.04	3022.80
293.26	3301.33
293.47	3272.65
293.69	2992.08
293.90	2893.78
294.12	3612.62
294.33	3237.84
294.55	3110.86
294.76	3307.47
294.97	3518.41
295.19	3735.50
295.40	3028.95
295.62	3020.75
295.83	3485.64
296.05	3084.24
296.26	3246.03
296.48	3020.75
296.69	3241.93
296.90	3289.04
297.12	3168.21
297.33	3108.82
297.55	3340.24
297.76	3446.73
297.98	3063.76
298.19	3196.88
298.41	3256.27
298.62	3098.58
298.83	3131.34
299.05	3069.91
299.26	3172.30
299.48	3063.76
299.69	3059.67
299.90	2975.70
300.12	3059.67
300.33	3432.40
300.55	3037.14
300.76	3026.90
300.98	3131.34
301.19	3440.59
301.40	2932.69
301.62	2981.84
301.83	3379.15
302.05	3297.23
302.26	3020.75
302.47	3041.23
302.69	3024.85
302.90	3223.50
303.12	2834.39
303.33	3164.11
303.54	3686.34
303.76	3149.78
303.97	3033.04
304.19	3164.11
304.40	3020.75
304.61	3358.67
304.83	3170.26
305.04	3043.28
305.26	3381.20
305.47	3078.10
305.68	3074.00
305.90	2916.31
306.11	3477.45
306.33	3237.84
306.54	2967.51
306.75	2944.98
306.97	2928.60
307.18	3065.81
307.39	2987.99
307.61	3024.85
307.82	3217.36
308.04	3278.80
308.25	2863.06
308.46	3123.15
308.68	3344.33
308.89	3233.74
309.10	3065.81
309.32	2975.70
309.53	3250.13
309.74	3391.44
309.96	2914.26
310.17	3082.19
310.39	3182.54
310.60	3379.15
310.81	3045.33
311.03	2889.68
311.24	3381.20
311.45	3246.03
311.67	3190.74
311.88	3106.77
312.09	3237.84
312.31	3123.15
312.52	2910.16
312.73	2953.17
312.95	2992.08
313.16	3037.14
313.37	3196.88
313.59	3121.10
313.80	3399.63
314.01	3600.33
314.23	3065.81
314.44	2863.06
314.65	3004.37
314.87	3096.53
315.08	3037.14
315.29	2918.36
315.51	3117.01
315.72	3008.47
315.93	3000.27
316.15	3014.61
316.36	3139.54
316.57	3301.33
316.79	3010.51
317.00	2916.31
317.21	3321.81
317.43	3188.69
317.64	3033.04
317.85	2908.12
318.07	3082.19
318.28	3180.50
318.49	3010.51
318.70	3248.08
318.92	3313.61
319.13	3280.85
319.34	3254.22
319.56	3033.04
319.77	3407.82
319.98	3499.98
320.20	3311.57
320.41	3143.63
320.62	3495.88
320.83	3106.77
321.05	3229.65
321.26	3041.23
321.47	3262.41
321.69	3461.07
321.90	2828.24
322.11	2893.78
322.32	3274.70
322.54	3624.90
322.75	2979.79
322.96	4026.31
323.18	2934.74
323.39	2901.97
323.60	2844.63
323.81	3010.51
324.03	3131.34
324.24	3291.09
324.45	3078.10
324.66	2992.08
324.88	3510.22
325.09	3682.25
325.30	2992.08
325.52	2885.59
325.73	3321.81
325.94	3157.97
326.15	2957.27
326.37	2912.21
326.58	3456.97
326.79	3665.86
327.00	2928.60
327.22	2895.83
327.43	3268.56
327.64	3026.90
327.85	3168.21
328.07	3010.51
328.28	3657.67
328.49	3190.74
328.70	3020.75
328.92	3028.95
329.13	3219.41
329.34	3344.33
329.55	3311.57
329.76	3207.12
329.98	3215.31
330.19	3506.12
330.40	3069.91
330.61	3117.01
330.83	3432.40
331.04	3059.67
331.25	3094.48
331.46	3090.38
331.68	3057.62
331.89	3459.02
332.10	3041.23
332.31	2846.68
332.52	3342.28
332.74	3432.40
332.95	2877.40
333.16	2971.60
333.37	3432.40
333.58	3131.34
333.80	3020.75
334.01	2803.67
334.22	3239.89
334.43	3104.72
334.64	2928.60
334.86	2918.36
335.07	3086.29
335.28	3549.13
335.49	2836.44
335.70	3094.48
335.92	3581.90
336.13	3700.68
336.34	3141.58
336.55	3004.37
336.76	3448.78
336.98	2885.59
337.19	2906.07
337.40	3071.95
337.61	3780.55
337.82	3227.60
338.04	3096.53
338.25	2883.54
338.46	3198.93
338.67	3291.09
338.88	2926.55
339.09	2940.88
339.31	3250.13
339.52	3074.00
339.73	2916.31
339.94	3033.04
340.15	3385.29
340.36	3139.54
340.58	3076.05
340.79	2920.40
341.00	3323.85
341.21	2985.94
341.42	3309.52
341.63	3008.47
341.85	3512.27
342.06	3311.57
342.27	2914.26
342.48	3147.73
342.69	3008.47
342.90	3409.87
343.12	3291.09
343.33	2936.79
343.54	3547.08
343.75	3551.18
343.96	3022.80
344.17	2852.82
344.38	3164.11
344.60	3141.58
344.81	2893.78
345.02	3067.86
345.23	3442.64
345.44	3819.46
345.65	3065.81
345.86	3074.00
346.07	3391.44
346.29	3151.82
346.50	3082.19
346.71	2998.23
346.92	3565.51
347.13	3708.87
347.34	3094.48
347.55	2822.10
347.76	3418.06
347.98	2953.17
348.19	3069.91
348.40	3145.68
348.61	3221.45
348.82	3602.38
349.03	3090.38
349.24	2906.07
349.45	3686.34
349.66	2914.26
349.88	3002.32
350.09	2942.93
350.30	3596.23
350.51	3545.03
350.72	3174.35
350.93	2983.89
351.14	3239.89
351.35	3330.00
351.56	3045.33
351.77	3123.15
351.99	3297.23
352.20	3510.22
352.41	3135.44
352.62	2856.92
352.83	3246.03
353.04	3219.41
353.25	2981.84
353.46	3084.24
353.67	3608.52
353.88	2889.68
354.09	2924.50
354.30	3024.85
354.52	3461.07
354.73	3164.11
354.94	2961.36
355.15	3094.48
355.36	3755.97
355.57	3200.98
355.78	2955.22
355.99	2979.79
356.20	3209.17
356.41	3508.17
356.62	3092.43
356.83	2975.70
357.04	3497.93
357.25	2908.12
357.46	2979.79
357.68	2832.34
357.89	3143.63
358.10	3264.46
358.31	2961.36
358.52	2961.36
358.73	3057.62
358.94	3209.17
359.15	2983.89
359.36	3069.91
359.57	3356.62
359.78	3221.45
359.99	3188.69
360.20	2930.64
360.41	3188.69
360.62	3397.58
360.83	3059.67
361.04	2973.65
361.25	3270.61
361.46	3631.05
361.67	3125.20
361.88	3059.67
362.09	3461.07
362.30	3327.95
362.51	2924.50
362.72	3051.47
362.93	3430.35
363.14	3370.96
363.35	3018.71
363.56	2977.75
363.78	3553.23
363.99	3504.07
364.20	2985.94
364.41	3067.86
364.62	3635.14
364.83	3270.61
365.04	3024.85
365.25	3028.95
365.46	3602.38
365.67	3106.77
365.88	3131.34
366.09	2985.94
366.30	3180.50
366.51	3327.95
366.72	2914.26
366.93	2875.35
367.14	3299.28
367.35	3561.42
367.56	2922.45
367.77	3190.74
367.98	3217.36
368.18	3397.58
368.39	3133.39
368.60	3002.32
368.81	3411.92
369.02	3356.62
369.23	3004.37
369.44	2877.40
369.65	3213.26
369.86	3321.81
370.07	3078.10
370.28	2865.11
370.49	3348.43
370.70	3344.33
370.91	2934.74
371.12	2934.74
371.33	3479.50
371.54	3117.01
371.75	3110.86
371.96	2738.13
372.17	3346.38
372.38	3198.93
372.59	3008.47
372.80	2904.02
373.01	3100.62
373.22	3241.93
373.43	3004.37
373.64	2934.74
373.85	3590.09
374.06	3583.95
374.26	3084.24
374.47	3139.54
374.68	3674.06
374.89	3356.62
375.10	2916.31
375.31	3067.86
375.52	3231.69
375.73	3274.70
375.94	2815.96
376.15	3076.05
376.36	3168.21
376.57	3106.77
376.78	3000.27
376.99	3082.19
377.20	3510.22
377.40	3209.17
377.61	3301.33
377.82	3008.47
378.03	3542.99
378.24	3434.44
378.45	3022.80
378.66	3145.68
378.87	3010.51
379.08	3049.43
379.29	3008.47
379.50	3164.11
379.71	3262.41
379.91	3362.76
380.12	3057.62
380.33	3082.19
380.54	3180.50
380.75	3192.78
380.96	2979.79
381.17	3049.43
381.38	3219.41
381.59	3317.71
381.80	3098.58
382.00	3301.33
382.21	3354.57
382.42	3612.62
382.63	3405.77
382.84	3180.50
383.05	3354.57
383.26	3540.94
383.47	3145.68
383.68	2926.55
383.88	3377.10
384.09	3270.61
384.30	3233.74
384.51	3125.20
384.72	3239.89
384.93	2918.36
385.14	3045.33
385.35	3188.69
385.55	3002.32
385.76	3491.79
385.97	2969.55
386.18	2914.26
386.39	3147.73
386.60	3174.35
386.81	3045.33
387.02	3026.90
387.22	3000.27
387.43	3319.76
387.64	3117.01
387.85	3311.57
388.06	3352.52
388.27	4399.04
388.48	7745.42
388.68	11915.08
388.89	14954.27
389.10	16441.09
389.31	16094.99
389.52	12650.30
389.73	11349.84
389.93	10225.51
390.14	9162.61
390.35	8585.08
390.56	7982.98
390.77	6594.46
390.98	5029.81
391.18	4124.61
391.39	3893.19
391.60	3352.52
391.81	3233.74
392.02	2934.74
392.23	3794.89
392.43	3338.19
392.64	3104.72
392.85	3137.49
393.06	3653.58
393.27	3246.03
393.47	3037.14
393.68	3141.58
393.89	3196.88
394.10	3577.80
394.31	2996.18
394.52	2938.84
394.72	3145.68
394.93	3588.04
395.14	2914.26
395.35	3082.19
395.56	3133.39
395.76	3317.71
395.97	3094.48
396.18	3170.26
396.39	3229.65
396.60	3885.00
396.80	3446.73
397.01	3207.12
397.22	3420.11
397.43	3461.07
397.64	3037.14
397.84	3139.54
398.05	3639.24
398.26	3231.69
398.47	3143.63
398.67	3239.89
398.88	3268.56
399.09	3409.87
399.30	3022.80
399.51	3067.86
399.71	3078.10
399.92	3270.61
400.13	3045.33
400.34	3041.23
400.54	3280.85
400.75	3600.33
400.96	3237.84
401.17	3303.37
401.37	3364.81
401.58	3262.41
401.79	3016.66
402.00	3166.16
402.21	3831.75
402.41	3444.68
402.62	3274.70
402.83	3352.52
403.04	3835.85
403.24	4069.31
403.45	3198.93
403.66	3420.11
403.87	3551.18
404.07	3651.53
404.28	3295.18
404.49	3327.95
404.70	3391.44
404.90	3450.83
405.11	3080.14
405.32	3164.11
405.52	3184.59
405.73	3168.21
405.94	2975.70
406.15	3016.66
406.35	3379.15
406.56	3512.27
406.77	3121.10
406.98	3061.71
407.18	3100.62
407.39	3563.47
407.60	3092.43
407.80	3147.73
408.01	3145.68
408.22	3358.67
408.43	2951.12
408.63	3203.02
408.84	3450.83
409.05	3520.46
409.25	3004.37
409.46	3033.04
409.67	3186.64
409.88	3166.16
410.08	3061.71
410.29	3024.85
410.50	3418.06
410.70	3356.62
410.91	3008.47
411.12	3094.48
411.32	3295.18
411.53	3141.58
411.74	3102.67
411.95	3094.48
412.15	3338.19
412.36	3436.49
412.57	3182.54
412.77	3192.78
412.98	3262.41
413.19	3194.83
413.39	3151.82
413.60	3076.05
413.81	3493.83
414.01	3051.47
414.22	3086.29
414.43	3221.45
414.63	3172.30
414.84	3463.12
415.05	3125.20
415.25	2963.41
415.46	3430.35
415.67	3182.54
415.87	3086.29
416.08	2998.23
416.29	3227.60
416.49	3346.38
416.70	3090.38
416.91	3047.38
417.11	3123.15
417.32	3436.49
417.53	3104.72
417.73	3233.74
417.94	3297.23
418.15	3313.61
418.35	3119.06
418.56	3149.78
418.77	3733.45
418.97	3272.65
419.18	3125.20
419.38	2781.14
419.59	3235.79
419.80	3561.42
420.00	3016.66
420.21	3067.86
420.42	3545.03
420.62	3338.19
420.83	3076.05
421.04	3014.61
421.24	3194.83
421.45	3397.58
421.65	3059.67
421.86	3055.57
422.07	3469.26
422.27	3301.33
422.48	2951.12
422.69	2897.88
422.89	3291.09
423.10	3215.31
423.30	2947.03
423.51	3100.62
423.72	3319.76
423.92	3436.49
424.13	2996.18
424.33	3102.67
424.54	3440.59
424.75	3319.76
424.95	3237.84
425.16	2975.70
425.36	3213.26
425.57	3424.20
425.78	3196.88
425.98	3164.11
426.19	3246.03
426.39	3131.34
426.60	3067.86
426.81	3248.08
427.01	3295.18
427.22	3090.38
427.42	2861.01
427.63	2953.17
427.83	3467.21
428.04	3674.06
428.25	3096.53
428.45	3149.78
428.66	3567.56
428.86	3272.65
429.07	3145.68
429.28	3092.43
429.48	3344.33
429.69	3082.19
429.89	3078.10
430.10	2963.41
430.30	3479.50
430.51	3528.65
430.71	2996.18
430.92	3117.01
431.13	3141.58
431.33	3436.49
431.54	3174.35
431.74	3241.93
431.95	3698.63
432.15	3065.81
432.36	2979.79
432.56	3108.82
432.77	3616.71
432.98	3616.71
433.18	3102.67
433.39	2906.07
433.59	3332.05
433.80	3717.06
434.00	3223.50
434.21	3043.28
434.41	3088.34
434.62	3852.23
434.82	2908.12
435.03	2994.13
435.23	3266.51
435.44	2936.79
435.64	3035.09
435.85	3016.66
436.06	3456.97
436.26	3448.78
436.47	3018.71
436.67	2957.27
436.88	3231.69
437.08	3452.88
437.29	3223.50
437.49	3217.36
437.70	3477.45
437.90	3200.98
438.11	3241.93
438.31	3108.82
438.52	3485.64
438.72	3508.17
438.93	3391.44
439.13	3221.45
439.34	3477.45
439.54	3166.16
439.75	3131.34
439.95	3172.30
440.16	3155.92
440.36	3289.04
440.57	3096.53
440.77	3039.19
440.98	3229.65
441.18	3356.62
441.39	2891.73
441.59	2904.02
441.80	3659.72
442.00	3221.45
442.21	3112.91
442.41	2944.98
442.62	3512.27
442.82	3071.95
443.02	3051.47
443.23	3043.28
443.43	3268.56
443.64	3612.62
443.84	2975.70
444.05	3114.96
444.25	3284.94
444.46	3248.08
444.66	3028.95
444.87	3313.61
445.07	3033.04
445.28	3237.84
445.48	3221.45
445.69	3182.54
445.89	3792.84
446.09	3182.54
446.30	3373.00
446.50	3565.51
446.71	4984.76
446.91	6260.64
447.12	7190.42
447.32	7825.29
447.53	7616.40
447.73	6352.80
447.93	5574.57
448.14	5318.57
448.34	5334.96
448.55	4575.16
448.75	4413.37
448.96	4229.06
449.16	4020.16
449.36	3936.20
449.57	3258.32
449.77	3123.15
449.98	3252.17
450.18	3356.62
450.39	3039.19
450.59	3231.69
450.79	3327.95
451.00	3125.20
451.20	3256.27
451.41	3065.81
451.61	3299.28
451.81	3272.65
452.02	3020.75
452.22	3030.99
452.43	3198.93
452.63	3166.16
452.84	3153.87
453.04	2969.55
453.24	3327.95
453.45	3125.20
453.65	3102.67
453.86	3028.95
454.06	3233.74
454.26	3262.41
454.47	2979.79
454.67	3282.89
454.87	3338.19
455.08	3260.37
455.28	3229.65
455.49	3106.77
455.69	3104.72
455.89	3686.34
456.10	3221.45
456.30	3057.62
456.51	3446.73
456.71	3286.99
456.91	3186.64
457.12	3030.99
457.32	3370.96
457.52	3045.33
457.73	3241.93
457.93	3295.18
458.14	3219.41
458.34	2959.31
458.54	3071.95
458.75	3037.14
458.95	3530.70
459.15	3389.39
459.36	3080.14
459.56	3063.76
459.76	3852.23
459.97	3282.89
460.17	3033.04
460.37	3065.81
460.58	3264.46
460.78	3377.10
460.99	3096.53
461.19	3098.58
461.39	3166.16
461.60	3153.87
461.80	3016.66
462.00	2983.89
462.21	3282.89
462.41	3092.43
462.61	2908.12
462.82	2938.84
463.02	3274.70
463.22	3309.52
463.43	3117.01
463.63	3022.80
463.83	3545.03
464.04	3360.72
464.24	3102.67
464.44	3020.75
464.64	3286.99
464.85	3485.64
465.05	3010.51
465.25	3074.00
465.46	3100.62
465.66	3368.91
465.86	3119.06
466.07	3037.14
466.27	3194.83
466.47	3022.80
466.68	2846.68
466.88	3186.64
467.08	3483.59
467.29	3469.26
467.49	3076.05
467.69	3170.26
467.89	3352.52
468.10	3243.98
468.30	3121.10
468.50	3147.73
468.71	3411.92
468.91	2901.97
469.11	3293.13
469.31	3123.15
469.52	3053.52
469.72	3672.01
469.92	3321.81
470.13	3063.76
470.33	3274.70
470.53	3422.16
470.73	3510.22
470.94	3837.89
471.14	4237.25
471.34	4798.39
471.54	4257.73
471.75	3964.87
471.95	3813.32
472.15	3690.44
472.36	3706.82
472.56	3379.15
472.76	3885.00
472.96	3649.48
473.17	3377.10
473.37	3237.84
473.57	3254.22
473.77	3467.21
473.98	3219.41
474.18	2951.12
474.38	3956.68
474.58	3114.96
474.79	2906.07
474.99	3219.41
475.19	3481.55
475.39	3059.67
475.60	3221.45
475.80	3051.47
476.00	3311.57
476.20	3276.75
476.41	3045.33
476.61	3145.68
476.81	3592.14
477.01	3196.88
477.21	3430.35
477.42	3172.30
477.62	3053.52
477.82	3452.88
478.02	2971.60
478.23	3157.97
478.43	3155.92
478.63	3192.78
478.83	3129.30
479.03	3141.58
479.24	3577.80
479.44	3698.63
479.64	2977.75
479.84	2856.92
480.04	3078.10
480.25	3465.16
480.45	2994.13
480.65	2934.74
480.85	3553.23
481.06	3129.30
481.26	3200.98
481.46	3024.85
481.66	3356.62
481.86	3080.14
482.06	3258.32
482.27	3102.67
482.47	3233.74
482.67	3354.57
482.87	3112.91
483.07	3051.47
483.28	3108.82
483.48	3061.71
483.68	3004.37
483.88	2979.79
484.08	2861.01
484.29	3022.80
484.49	3180.50
484.69	2828.24
484.89	3563.47
485.09	3508.17
485.29	3026.90
485.50	3246.03
485.70	3190.74
485.90	3522.51
486.10	3157.97
486.30	3026.90
486.50	3483.59
486.71	3401.68
486.91	3149.78
487.11	3133.39
487.31	3008.47
487.51	3370.96
487.71	3049.43
487.91	2938.84
488.12	3092.43
488.32	2822.10
488.52	2992.08
488.72	2777.05
488.92	3295.18
489.12	3526.60
489.32	3272.65
489.53	3067.86
489.73	3016.66
489.93	3567.56
490.13	3000.27
490.33	2877.40
490.53	3289.04
490.73	3555.27
490.94	2904.02
491.14	3143.63
491.34	3356.62
491.54	3409.87
491.74	3960.77
491.94	4532.15
492.14	5222.32
492.34	5285.81
492.54	4782.01
492.75	4016.07
492.95	4360.13
493.15	4024.26
493.35	3872.71
493.55	3760.07
493.75	3622.86
493.95	3856.33
494.15	3436.49
494.35	3207.12
494.56	3282.89
494.76	3141.58
494.96	3196.88
495.16	2975.70
495.36	3278.80
495.56	3252.17
495.76	3049.43
495.96	2938.84
496.16	3024.85
496.36	3651.53
496.56	2951.12
496.77	3119.06
496.97	3348.43
497.17	3540.94
497.37	2897.88
497.57	3160.02
497.77	3360.72
497.97	3018.71
498.17	3059.67
498.37	2973.65
498.57	3370.96
498.77	3194.83
498.97	3213.26
499.17	3368.91
499.38	3164.11
499.58	3377.10
499.78	3227.60
499.98	3243.98
500.18	3270.61
500.38	3145.68
500.58	3254.22
500.78	3672.01
500.98	6145.95
501.18	8152.96
501.38	9777.00
501.58	10741.60
501.78	10909.53
501.98	8990.58
502.18	7432.08
502.38	6580.12
502.58	6379.42
502.78	5754.79
502.98	5490.60
503.18	5230.51
503.38	4941.75
503.59	4270.01
503.79	4026.31
503.99	3762.12
504.19	3897.28
504.39	3997.64
504.59	3651.53
504.79	3616.71
504.99	3975.11
505.19	3620.81
505.39	3344.33
505.59	3569.61
505.79	3751.88
505.99	3493.83
506.19	3145.68
506.39	3426.25
506.59	3190.74
506.79	3188.69
506.99	3342.28
507.19	3043.28
507.39	3340.24
507.59	3010.51
507.79	3063.76
507.99	3000.27
508.19	3305.42
508.39	3108.82
508.59	3102.67
508.79	3178.45
508.99	3635.14
509.19	3114.96
509.39	3209.17
509.59	3008.47
509.79	3102.67
509.99	3381.20
510.19	3174.35
510.39	3106.77
510.59	3348.43
510.79	3160.02
510.99	2861.01
511.19	2983.89
511.39	3573.71
511.59	3532.75
511.79	3258.32
511.99	3090.38
512.19	3602.38
512.38	3327.95
512.58	2996.18
512.78	2996.18
512.98	3497.93
513.18	3645.38
513.38	2971.60
513.58	3174.35
513.78	3180.50
513.98	3221.45
514.18	3151.82
514.38	3082.19
514.58	3256.27
514.78	3162.06
514.98	2920.40
515.18	3137.49
515.38	3049.43
515.58	3647.43
515.78	3018.71
515.98	3139.54
516.18	3471.31
516.38	3264.46
516.57	3024.85
516.77	2996.18
516.97	3350.48
517.17	3225.55
517.37	2850.77
517.57	3059.67
517.77	3303.37
517.97	3229.65
518.17	3196.88
518.37	2924.50
518.57	3125.20
518.77	3246.03
518.97	3086.29
519.16	3117.01
519.36	3454.92
519.56	3174.35
519.76	3039.19
519.96	3086.29
520.16	3592.14
520.36	3051.47
520.56	3180.50
520.76	3030.99
520.96	3225.55
521.16	3469.26
521.35	3352.52
521.55	3086.29
521.75	3381.20
521.95	3196.88
522.15	2987.99
522.35	3006.42
522.55	3110.86
522.75	3393.48
522.95	3002.32
523.14	2869.20
523.34	3307.47
523.54	3157.97
523.74	3123.15
523.94	3119.06
524.14	3012.56
524.34	3317.71
524.54	3340.24
524.73	3049.43
524.93	3461.07
525.13	3293.13
525.33	2934.74
525.53	3301.33
525.73	3379.15
525.93	3284.94
526.13	3059.67
526.32	2985.94
526.52	3520.46
526.72	3379.15
526.92	3127.25
527.12	3074.00
527.32	3026.90
527.52	3299.28
527.71	3090.38
527.91	3061.71
528.11	3198.93
528.31	3274.70
528.51	3010.51
528.71	3246.03
528.90	3461.07
529.10	3540.94
529.30	3157.97
529.50	2811.86
529.70	3375.05
529.90	3241.93
530.09	3141.58
530.29	2912.21
530.49	3119.06
530.69	3893.19
530.89	3147.73
531.09	3151.82
531.28	3258.32
531.48	3497.93
531.68	3074.00
531.88	3092.43
532.08	3452.88
532.28	3250.13
532.47	3180.50
532.67	3246.03
532.87	3368.91
533.07	3080.14
533.27	3110.86
533.46	3123.15
533.66	3338.19
533.86	3252.17
534.06	3157.97
534.26	3067.86
534.45	3184.59
534.65	3401.68
534.85	3117.01
535.05	2992.08
535.25	3381.20
535.44	2965.46
535.64	3186.64
535.84	3147.73
536.04	3196.88
536.24	3190.74
536.43	3051.47
536.63	3047.38
536.83	3295.18
537.03	3284.94
537.22	2801.62
537.42	2836.44
537.62	3299.28
537.82	3026.90
538.02	3211.22
538.21	3071.95
538.41	3854.28
538.61	3368.91
538.81	3139.54
539.00	3114.96
539.20	2938.84
539.40	3157.97
539.60	2998.23
539.79	3256.27
539.99	3270.61
540.19	3112.91
540.39	3045.33
540.58	3182.54
540.78	3459.02
540.98	3186.64
541.18	3229.65
541.37	3123.15
541.57	3362.76
541.77	3303.37
541.97	2973.65
542.16	2930.64
542.36	3153.87
542.56	3096.53
542.76	3221.45
542.95	3139.54
543.15	3387.34
543.35	3440.59
543.54	3000.27
543.74	2967.51
543.94	3592.14
544.14	3119.06
544.33	3180.50
544.53	3030.99
544.73	3213.26
544.93	3182.54
545.12	3035.09
545.32	3055.57
545.52	3293.13
545.71	3082.19
545.91	3143.63
546.11	3000.27
546.30	3024.85
546.50	3264.46
546.70	3106.77
546.90	3051.47
547.09	2971.60
547.29	3282.89
547.49	3213.26
547.68	3143.63
547.88	3131.34
548.08	3424.20
548.27	3426.25
548.47	3041.23
548.67	3270.61
548.87	3391.44
549.06	3084.24
549.26	3018.71
549.46	3278.80
549.65	3155.92
549.85	3074.00
550.05	3071.95
550.24	3051.47
550.44	3250.13
550.64	3100.62
550.83	3162.06
551.03	3540.94
551.23	3469.26
551.42	3090.38
551.62	3162.06
551.82	3215.31
552.01	3172.30
552.21	3381.20
552.41	3084.24
552.60	3534.79
552.80	3180.50
553.00	3008.47
553.19	3094.48
553.39	3651.53
553.59	3057.62
553.78	3223.50
553.98	3049.43
554.17	3012.56
554.37	3358.67
554.57	3090.38
554.76	2844.63
554.96	3106.77
555.16	3311.57
555.35	3127.25
555.55	3289.04
555.75	3278.80
555.94	3373.00
556.14	2906.07
556.33	3123.15
556.53	3227.60
556.73	3178.45
556.92	3088.34
557.12	3059.67
557.32	3841.99
557.51	3596.23
557.71	3131.34
557.90	3268.56
558.10	3520.46
558.30	3221.45
558.49	3080.14
558.69	3061.71
558.88	3422.16
559.08	3352.52
559.28	3071.95
559.47	3157.97
559.67	3395.53
559.86	3631.05
560.06	2992.08
560.26	3053.52
560.45	3393.48
560.65	3229.65
560.84	3401.68
561.04	2949.08
561.24	3420.11
561.43	3102.67
561.63	3377.10
561.82	3127.25
562.02	3344.33
562.22	2985.94
562.41	3043.28
562.61	3043.28
562.80	3002.32
563.00	3657.67
563.19	3176.40
563.39	3149.78
563.59	3444.68
563.78	3080.14
563.98	2791.38
564.17	3086.29
564.37	2918.36
564.56	3217.36
564.76	2940.88
564.96	3135.44
565.15	3280.85
565.35	3753.93
565.54	3117.01
565.74	3155.92
565.93	3373.00
566.13	3264.46
566.32	3119.06
566.52	3094.48
566.71	3262.41
566.91	3418.06
567.11	3176.40
567.30	2942.93
567.50	3383.24
567.69	3379.15
567.89	3045.33
568.08	2955.22
568.28	3211.22
568.47	3024.85
568.67	3047.38
568.86	3041.23
569.06	3473.36
569.25	3303.37
569.45	3047.38
569.64	3088.34
569.84	3135.44
570.04	3368.91
570.23	3071.95
570.43	3063.76
570.62	3280.85
570.82	3610.57
571.01	2904.02
571.21	3012.56
571.40	3102.67
571.60	3424.20
571.79	3241.93
571.99	3086.29
572.18	3141.58
572.38	3340.24
572.57	3098.58
572.77	3053.52
572.96	3850.18
573.16	3327.95
573.35	3121.10
573.55	3221.45
573.74	3418.06
573.94	3192.78
574.13	3037.14
574.33	3225.55
574.52	3534.79
574.71	3286.99
574.91	3123.15
575.10	2899.92
575.30	3098.58
575.49	3010.51
575.69	2957.27
575.88	2981.84
576.08	3225.55
576.27	3524.55
576.47	3037.14
576.66	3213.26
576.86	3643.34
577.05	3327.95
577.25	3108.82
577.44	3268.56
577.64	3196.88
577.83	3522.51
578.02	3037.14
578.22	3237.84
578.41	3721.16
578.61	3223.50
578.80	2928.60
579.00	3092.43
579.19	3297.23
579.39	3364.81
579.58	3231.69
579.77	3123.15
579.97	3520.46
580.16	3499.98
580.36	3246.03
580.55	3184.59
580.75	3332.05
580.94	3327.95
581.13	3243.98
581.33	3313.61
581.52	3178.45
581.72	3635.14
581.91	3141.58
582.11	3069.91
582.30	3420.11
582.49	3344.33
582.69	3383.24
582.88	3069.91
583.08	3426.25
583.27	3520.46
583.47	3266.51
583.66	3117.01
583.85	3086.29
584.05	3180.50
584.24	3248.08
584.44	3164.11
584.63	3510.22
584.82	3481.55
585.02	3207.12
585.21	3205.07
585.41	3366.86
585.60	3297.23
585.79	3368.91
585.99	3403.72
586.18	3356.62
586.37	4302.78
586.57	6360.99
586.76	17643.25
586.96	37301.70
587.15	50656.51
587.34	58954.88
587.54	62905.41
587.73	56874.14
587.93	40684.95
588.12	31292.96
588.31	25659.00
588.51	22658.73
588.70	20934.34
588.89	18482.92
589.09	15763.22
589.28	13664.05
589.47	11018.07
589.67	8253.31
589.86	6442.91
590.06	5187.50
590.25	4538.30
590.44	3930.05
590.64	3575.75
590.83	3598.28
591.02	3549.13
591.22	3010.51
591.41	3246.03
591.60	3362.76
591.80	3749.83
591.99	2912.21
592.18	3098.58
592.38	3514.31
592.57	3188.69
592.76	3057.62
592.96	3098.58
593.15	3325.90
593.34	3424.20
593.54	3055.57
593.73	3180.50
593.92	3397.58
594.12	3325.90
594.31	3196.88
594.50	3332.05
594.70	3370.96
594.89	3860.42
595.08	2959.31
595.28	3211.22
595.47	3928.00
595.66	3559.37
595.86	2992.08
596.05	2957.27
596.24	3225.55
596.43	3659.72
596.63	3178.45
596.82	3205.07
597.01	3334.09
597.21	3690.44
597.40	3061.71
597.59	3108.82
597.79	3225.55
597.98	3446.73
598.17	3090.38
598.36	3098.58
598.56	3477.45
598.75	3227.60
598.94	3139.54
599.14	3141.58
599.33	3137.49
599.52	3495.88
599.71	3180.50
599.91	3059.67
600.10	3467.21
600.29	3311.57
600.48	3080.14
600.68	3241.93
600.87	3336.14
601.06	3166.16
601.26	3096.53
601.45	3188.69
601.64	3241.93
601.83	3649.48
602.03	2934.74
602.22	2955.22
602.41	3518.41
602.60	3772.36
602.80	3157.97
602.99	3348.43
603.18	3213.26
603.37	3319.76
603.57	3018.71
603.76	3014.61
603.95	3534.79
604.14	3155.92
604.34	2904.02
604.53	3076.05
604.72	3268.56
604.91	3499.98
605.10	2994.13
605.30	2887.64
605.49	3690.44
605.68	3422.16
605.87	3045.33
606.07	2985.94
606.26	3391.44
606.45	3383.24
606.64	3078.10
606.84	2992.08
607.03	3268.56
607.22	3405.77
607.41	3186.64
607.60	3035.09
607.80	3506.12
607.99	3237.84
608.18	3143.63
608.37	3119.06
608.56	3192.78
608.76	3526.60
608.95	3258.32
609.14	3098.58
609.33	3530.70
609.52	3551.18
609.72	3221.45
609.91	3237.84
610.10	3409.87
610.29	3549.13
610.48	3190.74
610.68	3131.34
610.87	3272.65
611.06	3463.12
611.25	3049.43
611.44	3250.13
611.63	3246.03
611.83	3477.45
612.02	2951.12
612.21	3192.78
612.40	2842.58
612.59	3074.00
612.79	2983.89
612.98	3117.01
613.17	3624.90
613.36	3192.78
613.55	3194.83
613.74	3039.19
613.93	3399.63
614.13	3393.48
614.32	3346.38
614.51	3127.25
614.70	3315.66
614.89	3164.11
615.08	3243.98
615.28	3493.83
615.47	3098.58
615.66	3364.81
615.85	3069.91
616.04	3168.21
616.23	3311.57
616.42	3227.60
616.62	3063.76
616.81	3000.27
617.00	3282.89
617.19	3356.62
617.38	3033.04
617.57	3108.82
617.76	3469.26
617.95	3389.39
618.15	3248.08
618.34	3313.61
618.53	2992.08
618.72	3499.98
618.91	3149.78
619.10	3127.25
619.29	3205.07
619.48	3299.28
619.68	2969.55
619.87	3110.86
620.06	2951.12
620.25	3370.96
620.44	3074.00
620.63	3045.33
620.82	3254.22
621.01	3330.00
621.20	3114.96
621.39	3172.30
621.59	3344.33
621.78	3217.36
621.97	3108.82
622.16	3260.37
622.35	3352.52
622.54	3418.06
622.73	3176.40
622.92	2834.39
623.11	3538.89
623.30	3188.69
623.49	3182.54
623.68	3014.61
623.88	3485.64
624.07	3133.39
624.26	2992.08
624.45	3018.71
624.64	3321.81
624.83	3360.72
625.02	3043.28
625.21	3082.19
625.40	3346.38
625.59	3549.13
625.78	3155.92
625.97	3121.10
626.16	3635.14
626.35	3448.78
626.54	2996.18
626.74	3246.03
626.93	3252.17
627.12	3225.55
627.31	3096.53
627.50	3205.07
627.69	3538.89
627.88	2992.08
628.07	3016.66
628.26	2942.93
628.45	3117.01
628.64	3102.67
628.83	3121.10
629.02	2910.16
629.21	3409.87
629.40	3350.48
629.59	3002.32
629.78	3053.52
629.97	3373.00
630.16	3362.76
630.35	3051.47
630.54	3196.88
630.73	3182.54
630.92	3258.32
631.11	3045.33
631.30	3164.11
631.49	3426.25
631.68	3225.55
631.87	3108.82
632.06	3006.42
632.25	3858.37
632.44	3299.28
632.63	3102.67
632.82	3172.30
633.01	3143.63
633.20	3352.52
633.39	3104.72
633.58	3035.09
633.77	3354.57
633.96	3387.34
634.15	3190.74
634.34	3272.65
634.53	3407.82
634.72	3168.21
634.91	2944.98
635.10	3047.38
635.29	3450.83
635.48	3198.93
635.67	2901.97
635.86	2916.31
636.05	3514.31
636.24	3284.94
636.43	3065.81
636.62	3205.07
636.81	2838.48
637.00	3205.07
637.19	3063.76
637.38	3076.05
637.57	3225.55
637.76	3252.17
637.95	3305.42
638.14	3223.50
638.33	3381.20
638.52	3268.56
638.71	2959.31
638.89	2994.13
639.08	3821.51
639.27	3639.24
639.46	3379.15
639.65	3631.05
639.84	3919.81
640.03	4112.32
640.22	3672.01
640.41	3450.83
640.60	3403.72
640.79	3454.92
640.98	3319.76
641.17	3344.33
641.36	3561.42
641.55	3518.41
641.74	2971.60
641.92	3006.42
642.11	3149.78
642.30	3270.61
642.49	2942.93
642.68	3045.33
642.87	3370.96
643.06	3418.06
643.25	2930.64
643.44	2930.64
643.63	3213.26
643.82	3387.34
644.00	3024.85
644.19	3098.58
644.38	3092.43
644.57	3379.15
644.76	3008.47
644.95	3151.82
645.14	3233.74
645.33	3307.47
645.52	3192.78
645.71	2934.74
645.89	3049.43
646.08	3213.26
646.27	3067.86
646.46	3209.17
646.65	3057.62
646.84	3227.60
647.03	2930.64
647.22	3260.37
647.40	3323.85
647.59	3309.52
647.78	2938.84
647.97	3059.67
648.16	3088.34
648.35	3575.75
648.54	3332.05
648.73	3123.15
648.91	3416.01
649.10	3358.67
649.29	3020.75
649.48	2981.84
649.67	3346.38
649.86	3383.24
650.05	3108.82
650.23	3346.38
650.42	3209.17
650.61	3561.42
650.80	3291.09
650.99	3420.11
651.18	3420.11
651.36	3520.46
651.55	3117.01
651.74	3237.84
651.93	3225.55
652.12	3274.70
652.31	3168.21
652.49	3112.91
652.68	3180.50
652.87	3512.27
653.06	3125.20
653.25	3319.76
653.44	3303.37
653.62	3577.80
653.81	3078.10
654.00	3065.81
654.19	3491.79
654.38	3766.21
654.56	3117.01
654.75	3008.47
654.94	3489.74
655.13	3270.61
655.32	3024.85
655.51	3178.45
655.69	3170.26
655.88	3338.19
656.07	2822.10
656.26	3090.38
656.45	3088.34
656.63	3299.28
656.82	2992.08
657.01	3299.28
657.20	3162.06
657.38	3551.18
657.57	3016.66
657.76	2844.63
657.95	3364.81
658.14	3117.01
658.32	3256.27
658.51	2904.02
658.70	3346.38
658.89	3348.43
659.08	3086.29
659.26	3286.99
659.45	3121.10
659.64	3368.91
659.83	3045.33
660.01	3485.64
660.20	3264.46
660.39	3614.66
660.58	2754.52
660.76	3149.78
660.95	3008.47
661.14	3313.61
661.33	3012.56
661.51	3143.63
661.70	3164.11
661.89	3373.00
662.08	3155.92
662.26	2871.25
662.45	3022.80
662.64	3629.00
662.83	3131.34
663.01	2920.40
663.20	3207.12
663.39	3573.71
663.58	3076.05
663.76	3000.27
663.95	3401.68
664.14	3131.34
664.32	3065.81
664.51	2910.16
664.70	2901.97
664.89	3280.85
665.07	2936.79
665.26	3213.26
665.45	3033.04
665.64	3360.72
665.82	3026.90
666.01	3203.02
666.20	3110.86
666.38	3520.46
666.57	3375.05
666.76	5517.23
666.95	13027.13
667.13	20506.31
667.32	24852.10
667.51	27821.66
667.69	28829.26
667.88	24016.53
668.07	17618.68
668.25	14831.39
668.44	12715.84
668.63	11112.28
668.81	9832.30
669.00	8429.44
669.19	7784.33
669.38	6678.43
669.56	5654.44
669.75	4986.80
669.94	4425.66
670.12	3801.03
670.31	3420.11
670.50	3481.55
670.68	3475.40
670.87	3334.09
671.06	3088.34
671.24	3248.08
671.43	3631.05
671.62	3346.38
671.80	3033.04
671.99	3200.98
672.18	3344.33
672.36	3356.62
672.55	3190.74
672.74	3135.44
672.92	3213.26
673.11	3456.97
673.29	2959.31
673.48	3198.93
673.67	3194.83
673.85	3495.88
674.04	2951.12
674.23	3141.58
674.41	3770.31
674.60	3082.19
674.79	2930.64
674.97	2932.69
675.16	3383.24
675.34	3516.36
675.53	3088.34
675.72	3133.39
675.90	3626.95
676.09	3141.58
676.28	3098.58
676.46	2904.02
676.65	3448.78
676.83	3143.63
677.02	3078.10
677.21	3190.74
677.39	3278.80
677.58	3192.78
677.77	2969.55
677.95	2926.55
678.14	3196.88
678.32	3205.07
678.51	3053.52
678.70	3387.34
678.88	3223.50
679.07	3336.14
679.25	3080.14
679.44	3149.78
679.63	3065.81
679.81	3258.32
680.00	3248.08
680.18	3106.77
680.37	3614.66
680.55	3338.19
680.74	2936.79
680.93	2830.29
681.11	3330.00
681.30	3231.69
681.48	3076.05
681.67	3106.77
681.85	3286.99
682.04	3114.96
682.23	3252.17
682.41	3239.89
682.60	3241.93
682.78	3325.90
682.97	3045.33
683.15	3076.05
683.34	3334.09
683.53	3540.94
683.71	2951.12
683.90	3078.10
684.08	3657.67
684.27	3223.50
684.45	3137.49
684.64	3258.32
684.82	3352.52
685.01	3307.47
685.19	3016.66
685.38	3405.77
685.57	3231.69
685.75	3039.19
685.94	2971.60
686.12	2934.74
686.31	3102.67
686.49	3604.42
686.68	2928.60
686.86	3082.19
687.05	3213.26
687.23	3530.70
687.42	3084.24
687.60	2887.64
687.79	3409.87
687.97	3604.42
688.16	3129.30
688.34	3260.37
688.53	2924.50
688.71	3274.70
688.90	3418.06
689.08	3104.72
689.27	2965.46
689.45	3563.47
689.64	3207.12
689.82	3223.50
690.01	3387.34
690.19	3327.95
690.38	3129.30
690.56	3248.08
690.75	3114.96
690.93	3084.24
691.12	3098.58
691.30	3172.30
691.49	3200.98
691.67	3291.09
691.86	3446.73
692.04	3205.07
692.23	3196.88
692.41	3346.38
692.60	3364.81
692.78	3301.33
692.97	3358.67
693.15	3444.68
693.34	3327.95
693.52	3389.39
693.71	3223.50
693.89	3129.30
694.08	2922.45
694.26	3184.59
694.44	3325.90
694.63	3393.48
694.81	2969.55
695.00	3067.86
695.18	3520.46
695.37	3692.49
695.55	3139.54
695.74	3121.10
695.92	3051.47
696.10	3440.59
696.29	2953.17
696.47	3069.91
696.66	3078.10
696.84	3100.62
697.03	3182.54
697.21	3368.91
697.40	4655.03
697.58	3493.83
697.76	3080.14
697.95	3041.23
698.13	3020.75
698.32	3188.69
698.50	2998.23
698.68	3051.47
698.87	3389.39
699.05	3631.05
699.24	3123.15
699.42	3026.90
699.61	3342.28
699.79	3334.09
699.97	3143.63
700.16	2961.36
700.34	3018.71
700.53	3223.50
700.71	3299.28
700.89	3176.40
701.08	3135.44
701.26	3221.45
701.45	3450.83
701.63	3069.91
701.81	3127.25
702.00	3041.23
702.18	3164.11
702.37	3117.01
702.55	3571.66
702.73	3352.52
702.92	3114.96
703.10	3432.40
703.28	3504.07
703.47	3065.81
703.65	3332.05
703.84	3168.21
704.02	3176.40
704.20	3672.01
704.39	3020.75
704.57	3110.86
704.75	3504.07
704.94	3364.81
705.12	3286.99
705.30	4024.26
705.49	8730.49
705.67	16926.46
705.86	23436.95
706.04	26824.29
706.22	29658.68
706.41	28575.31
706.59	21460.66
706.77	16600.83
706.96	14460.71
707.14	13160.25
707.32	11089.75
707.51	9850.73
707.69	7933.83
707.87	6623.13
708.06	5263.28
708.24	4532.15
708.42	4034.50
708.61	4255.68
708.79	3241.93
708.97	3237.84
709.16	3411.92
709.34	3301.33
709.52	3074.00
709.71	3188.69
709.89	3411.92
710.07	3090.38
710.26	2963.41
710.44	3110.86
710.62	3540.94
710.80	3258.32
710.99	3196.88
711.17	3166.16
711.35	3131.34
711.54	3157.97
711.72	3268.56
711.90	3239.89
712.09	3282.89
712.27	3221.45
712.45	3227.60
712.63	3092.43
712.82	3266.51
713.00	3317.71
713.18	3213.26
713.37	3313.61
713.55	3456.97
713.73	3446.73
713.91	3164.11
714.10	3088.34
714.28	3209.17
714.46	3315.66
714.65	3172.30
714.83	3098.58
715.01	3295.18
715.19	3315.66
715.38	3065.81
715.56	3135.44
715.74	3139.54
715.92	3080.14
716.11	3393.48
716.29	2863.06
716.47	3379.15
716.65	3250.13
716.84	2938.84
717.02	3229.65
717.20	2953.17
717.38	3100.62
717.57	3309.52
717.75	3198.93
717.93	3262.41
718.11	3487.69
718.30	2942.93
718.48	3137.49
718.66	3432.40
718.84	3471.31
719.03	3147.73
719.21	2971.60
719.39	3637.19
719.57	3348.43
719.75	3117.01
719.94	3008.47
720.12	3246.03
720.30	3352.52
720.48	3176.40
720.67	3039.19
720.85	3157.97
721.03	3135.44
721.21	3114.96
721.39	3235.79
721.58	3364.81
721.76	3258.32
721.94	3078.10
722.12	3149.78
722.30	3571.66
722.49	3192.78
722.67	3123.15
722.85	3108.82
723.03	2983.89
723.21	3162.06
723.40	3100.62
723.58	3213.26
723.76	3473.36
723.94	3553.23
724.12	3055.57
724.30	3338.19
724.49	3524.55
724.67	3114.96
724.85	3207.12
725.03	3016.66
725.21	3426.25
725.40	3635.14
725.58	3088.34
725.76	3370.96
725.94	3420.11
726.12	3053.52
726.30	3200.98
726.49	3090.38
726.67	3180.50
726.85	3409.87
727.03	3919.81
727.21	5486.51
727.39	7143.32
727.57	7751.56
727.76	8343.42
727.94	8394.62
728.12	7286.67
728.30	6031.27
728.48	5588.91
728.66	5181.36
728.84	4863.93
729.03	4065.22
729.21	3837.89
729.39	3520.46
729.57	3524.55
729.75	3422.16
729.93	3344.33
730.11	3069.91
730.30	3155.92
730.48	3182.54
730.66	3112.91
730.84	3174.35
731.02	3252.17
731.20	3098.58
731.38	3112.91
731.56	2897.88
731.74	3006.42
731.93	3330.00
732.11	3207.12
732.29	3078.10
732.47	3426.25
732.65	3291.09
732.83	3284.94
733.01	3223.50
733.19	3121.10
733.37	3383.24
733.56	3137.49
733.74	2967.51
733.92	3635.14
734.10	3180.50
734.28	3215.31
734.46	2854.87
734.64	3203.02
734.82	3153.87
735.00	3030.99
735.18	3055.57
735.36	3354.57
735.54	3200.98
735.73	3063.76
735.91	3196.88
736.09	3522.51
736.27	3217.36
736.45	3139.54
736.63	2836.44
736.81	3229.65
736.99	3405.77
737.17	3311.57
737.35	3061.71
737.53	3309.52
737.71	3205.07
737.89	3327.95
738.07	3098.58
738.25	3112.91
738.43	2938.84
738.61	3129.30
738.80	2936.79
738.98	3157.97
739.16	3205.07
739.34	3051.47
739.52	3389.39
739.70	3348.43
739.88	3420.11
740.06	3209.17
740.24	2846.68
740.42	3428.30
740.60	2830.29
740.78	2994.13
740.96	2912.21
741.14	3260.37
741.32	3311.57
741.50	2893.78
741.68	3354.57
741.86	3528.65
742.04	3125.20
742.22	2910.16
742.40	3149.78
742.58	3495.88
742.76	3190.74
742.94	3295.18
743.12	2953.17
743.30	3250.13
743.48	3395.53
743.66	3084.24
743.84	3182.54
744.02	3254.22
744.20	3317.71
744.38	2959.31
744.56	3037.14
744.74	3682.25
744.92	3409.87
745.10	3354.57
745.28	3147.73
745.46	3649.48
745.64	3348.43
745.82	3082.19
746.00	3051.47
746.18	3438.54
746.36	3084.24
746.54	3147.73
746.72	3057.62
746.90	3112.91
747.08	3506.12
747.26	3037.14
747.44	3231.69
747.62	3452.88
747.80	3286.99
747.98	3155.92
748.15	3069.91
748.33	3602.38
748.51	3319.76
748.69	3180.50
748.87	2992.08
749.05	3157.97
749.23	3209.17
749.41	3053.52
749.59	3047.38
749.77	3430.35
749.95	3243.98
750.13	3071.95
750.31	3233.74
750.49	3352.52
750.67	3450.83
750.85	3219.41
751.03	3033.04
751.20	3688.39
751.38	3297.23
751.56	3094.48
751.74	3106.77
751.92	3129.30
752.10	3010.51
752.28	3235.79
752.46	3094.48
752.64	3246.03
752.82	3252.17
753.00	3266.51
753.18	3008.47
753.35	3160.02
753.53	3350.48
753.71	2977.75
753.89	3133.39
754.07	3352.52
754.25	3477.45
754.43	3139.54
754.61	2967.51
754.79	3381.20
754.97	3194.83
755.14	3215.31
755.32	2973.65
755.50	3350.48
755.68	3274.70
755.86	2959.31
756.04	3000.27
756.22	2928.60
756.40	3481.55
756.57	3356.62
756.75	3057.62
756.93	3491.79
757.11	3434.44
757.29	2963.41
757.47	3041.23
757.65	2987.99
757.82	2879.44
758.00	2969.55
758.18	3084.24
758.36	3133.39
758.54	3569.61
758.72	2879.44
758.90	3227.60
759.07	3295.18
759.25	3026.90
759.43	3209.17
759.61	2936.79
759.79	4489.15
759.97	3483.59
760.15	3117.01
760.32	3069.91
760.50	3340.24
760.68	3610.57
760.86	2947.03
761.04	3248.08
761.22	3493.83
761.39	3325.90
761.57	3282.89
761.75	3108.82
761.93	3377.10
762.11	3198.93
762.28	3106.77
762.46	2891.73
762.64	3516.36
762.82	3010.51
763.00	3000.27
763.18	3327.95
763.35	2973.65
763.53	3344.33
763.71	3127.25
763.89	3026.90
764.07	3207.12
764.24	3205.07
764.42	3241.93
764.60	3053.52
764.78	3319.76
764.96	3467.21
765.13	3301.33
765.31	3020.75
765.49	3389.39
765.67	3086.29
765.84	2985.94
766.02	3033.04
766.20	2951.12
766.38	3438.54
766.56	3153.87
766.73	3123.15
766.91	3309.52
767.09	3336.14
767.27	3155.92
767.44	2930.64
767.62	3411.92
767.80	3280.85
767.98	3039.19
768.15	3135.44
768.33	3432.40
768.51	3489.74
768.69	3239.89
768.87	3016.66
769.04	3325.90
769.22	3819.46
769.40	3141.58
769.58	3184.59
769.75	3274.70
769.93	3442.64
770.11	3117.01
770.28	2963.41
770.46	3475.40
770.64	3305.42
770.82	3112.91
770.99	3020.75
771.17	3321.81
771.35	3151.82
771.53	3108.82
771.70	3002.32
771.88	3377.10
772.06	3241.93
772.23	3119.06
772.41	3090.38
772.59	3231.69
772.77	3016.66
772.94	3121.10
773.12	3172.30
773.30	3188.69
773.47	3336.14
773.65	3071.95
773.83	3278.80
774.01	3235.79
774.18	2881.49
774.36	3104.72
774.54	2918.36
774.71	3231.69
774.89	2971.60
775.07	2930.64
775.24	3147.73
775.42	3219.41
775.60	3655.62
775.78	3035.09
775.95	2961.36
776.13	2949.08
776.31	2985.94
776.48	3237.84
776.66	3293.13
776.84	3217.36
777.01	3114.96
777.19	3002.32
777.37	2983.89
777.54	3446.73
777.72	3639.24
777.90	3192.78
778.07	3024.85
778.25	3878.85
778.43	3549.13
778.60	3082.19
778.78	3196.88
778.96	3522.51
779.13	2963.41
779.31	3160.02
779.49	3141.58
779.66	3401.68
779.84	3270.61
780.01	3092.43
780.19	3037.14
780.37	3536.84
780.54	3475.40
780.72	2791.38
780.90	3131.34
781.07	3209.17
781.25	3147.73
781.43	3246.03
781.60	3078.10
781.78	3465.16
781.95	3352.52
782.13	2971.60
782.31	2971.60
782.48	2922.45
782.66	3286.99
782.83	3387.34
783.01	3254.22
783.19	3395.53
783.36	3172.30
783.54	3016.66
783.72	3164.11
783.89	3200.98
784.07	3229.65
784.24	3246.03
784.42	3203.02
784.60	3282.89
784.77	3338.19
784.95	2789.33
785.12	3082.19
785.30	3389.39
785.47	3119.06
785.65	2887.64
785.83	3008.47
786.00	3188.69
786.18	3264.46
786.35	2951.12
786.53	2899.92
786.71	3485.64
786.88	3442.64
787.06	3190.74
787.23	3215.31
787.41	3037.14
787.58	3266.51
787.76	2973.65
787.94	3041.23
788.11	3289.04
788.29	3061.71
788.46	3076.05
788.64	2918.36
788.81	3196.88
788.99	3033.04
789.16	2979.79
789.34	3084.24
789.52	3164.11
789.69	3170.26
789.87	2924.50
790.04	2967.51
790.22	3248.08
790.39	3686.34
790.57	2992.08
790.74	2979.79
790.92	3362.76
791.09	2953.17
791.27	3196.88
791.44	3153.87
791.62	3186.64
791.79	3428.30
791.97	3141.58
792.15	3385.29
792.32	3352.52
792.50	3448.78
792.67	3321.81
792.85	3327.95
793.02	3338.19
793.20	3188.69
793.37	2955.22
793.55	3069.91
793.72	3026.90
793.90	3362.76
794.07	3037.14
794.25	3037.14
794.42	3362.76
794.60	3252.17
794.77	3157.97
794.95	3225.55
795.12	3395.53
795.30	3168.21
795.47	2895.83
795.65	3442.64
795.82	3321.81
796.00	3157.97
796.17	3203.02
796.34	3010.51
796.52	3299.28
796.69	3424.20
796.87	3209.17
797.04	3217.36
797.22	3387.34
797.39	3377.10
797.57	3149.78
797.74	3127.25
797.92	3336.14
798.09	3119.06
798.27	3377.10
798.44	3067.86
798.62	3194.83
798.79	3266.51
798.96	3227.60
799.14	3102.67
799.31	3839.94
799.49	3186.64
799.66	3074.00
799.84	3127.25
800.01	3037.14
800.19	3278.80
800.36	2873.30
800.53	3090.38
800.71	3286.99
800.88	3575.75
801.06	2967.51
801.23	3043.28
801.41	3160.02
801.58	3262.41
801.75	3108.82
801.93	3180.50
802.10	3440.59
802.28	3205.07
802.45	3147.73
802.63	3145.68
802.80	3491.79
802.97	3170.26
803.15	3129.30
803.32	3069.91
803.50	3153.87
803.67	3082.19
803.84	3010.51
804.02	3217.36
804.19	3215.31
804.37	2807.77
804.54	2818.00
804.71	3008.47
804.89	3256.27
805.06	3170.26
805.24	3047.38
805.41	2947.03
805.58	3057.62
805.76	3835.85
805.93	2959.31
806.10	3221.45
806.28	3416.01
806.45	3362.76
806.63	3172.30
806.80	3125.20
806.97	3272.65
807.15	3278.80
807.32	3117.01
807.49	3069.91
807.67	3051.47
807.84	3311.57
808.01	2924.50
808.19	3295.18
808.36	3749.83
808.54	3200.98
808.71	3028.95
808.88	3045.33
809.06	3495.88
809.23	3485.64
809.40	3131.34
809.58	3061.71
809.75	3334.09
809.92	3082.19
810.10	3303.37
810.27	3059.67
810.44	3377.10
810.62	3450.83
810.79	3088.34
810.96	3088.34
811.14	3194.83
811.31	3397.58
811.48	3252.17
811.66	3135.44
811.83	3534.79
812.00	3379.15
812.18	3231.69
812.35	3387.34
812.52	3266.51
812.69	3246.03
812.87	3082.19
813.04	2944.98
813.21	3203.02
813.39	3125.20
813.56	3035.09
813.73	3350.48
813.91	2983.89
814.08	3356.62
814.25	3123.15
814.42	2955.22
814.60	3139.54
814.77	3280.85
814.94	2985.94
815.12	3164.11
815.29	3489.74
815.46	3160.02
815.63	3090.38
815.81	3119.06
815.98	3139.54
816.15	3297.23
816.33	3188.69
816.50	3123.15
816.67	3286.99
816.84	3233.74
817.02	2985.94
817.19	3078.10
817.36	3291.09
817.53	3385.29
817.71	2965.46
817.88	3028.95
818.05	3213.26
818.22	3176.40
818.40	3319.76
818.57	3016.66
818.74	3352.52
818.91	3237.84
819.09	3225.55
819.26	3155.92
819.43	3086.29
819.60	3080.14
819.78	3264.46
819.95	3119.06
820.12	3119.06
820.29	3567.56
820.47	3311.57
820.64	2979.79
820.81	3067.86
820.98	3180.50
821.15	3133.39
821.33	3241.93
821.50	3035.09
821.67	3416.01
821.84	3051.47
822.02	3125.20
822.19	3393.48
822.36	3123.15
822.53	3002.32
822.70	3002.32
822.88	3205.07
823.05	3499.98
823.22	3172.30
823.39	3049.43
823.56	3407.82
823.74	3581.90
823.91	3016.66
824.08	2940.88
824.25	3049.43
824.42	3475.40
824.60	2934.74
824.77	3176.40
824.94	3223.50
825.11	3360.72
825.28	2969.55
825.45	3213.26
825.63	3268.56
825.80	3016.66
825.97	3241.93
826.14	3209.17
826.31	3002.32
826.48	3397.58
826.66	3157.97
826.83	3057.62
827.00	3180.50
827.17	3094.48
827.34	3133.39
827.51	3057.62
827.69	3178.45
827.86	2918.36
828.03	3104.72
828.20	3231.69
828.37	3149.78
828.54	3336.14
828.71	2947.03
828.89	3217.36
829.06	3192.78
829.23	3575.75
829.40	3082.19
829.57	3051.47
829.74	3407.82
829.91	3168.21
830.09	2969.55
830.26	3313.61
830.43	3629.00
830.60	3196.88
830.77	3092.43
830.94	3227.60
831.11	3350.48
831.28	3229.65
831.46	3137.49
831.63	3084.24
831.80	3536.84
831.97	3139.54
832.14	3102.67
832.31	3039.19
832.48	3223.50
832.65	3434.44
832.82	3221.45
832.99	3125.20
833.17	3157.97
833.34	3598.28
833.51	3026.90
833.68	2901.97
833.85	3485.64
834.02	3086.29
834.19	2971.60
834.36	3016.66
834.53	3303.37
834.70	3444.68
834.87	3018.71
835.04	2822.10
835.22	3047.38
835.39	3172.30
835.56	2893.78
835.73	2932.69
835.90	3428.30
836.07	3092.43
836.24	2983.89
836.41	2879.44
836.58	3043.28
836.75	3434.44
836.92	2963.41
837.09	2928.60
837.26	3440.59
837.43	3387.34
837.60	2904.02
837.77	2883.54
837.94	3475.40
838.12	3442.64
838.29	2809.81
838.46	2881.49
838.63	3018.71
838.80	3551.18
838.97	2918.36
839.14	2861.01
839.31	3315.66
839.48	3401.68
839.65	2885.59
839.82	3012.56
839.99	3311.57
840.16	3323.85
840.33	2906.07
840.50	2893.78
840.67	3080.14
840.84	2721.75
841.01	2895.83
841.18	2854.87
841.35	3200.98
841.52	3422.16
841.69	3260.37
841.86	3012.56
842.03	3243.98
842.20	3450.83
842.37	2863.06
842.54	2924.50
842.71	3262.41
842.88	2983.89
843.05	2920.40
843.22	2955.22
843.39	3469.26
843.56	3098.58
843.73	2987.99
843.90	2998.23
844.07	3256.27
844.24	3401.68
844.41	2975.70
844.58	2865.11
844.75	3270.61
844.92	3321.81
845.09	3008.47
845.26	2922.45
845.43	3413.96
845.60	3131.34
845.77	3039.19
845.94	3088.34
846.10	3446.73
846.27	3000.27
846.44	2793.43
846.61	2838.48
846.78	3362.76
846.95	3489.74
847.12	2889.68
847.29	2922.45
847.46	3098.58
847.63	3442.64
847.80	2901.97
847.97	2953.17
848.14	3719.11
848.31	3254.22
848.48	2826.20
848.65	2928.60
848.82	3135.44
848.98	3788.74
849.15	3065.81
849.32	3106.77
849.49	3471.31
849.66	3278.80
849.83	2881.49
850.00	2895.83
850.17	3413.96
850.34	3168.21
850.51	2856.92
850.68	2979.79
850.85	3762.12
851.01	3205.07
851.18	2852.82
851.35	2934.74
851.52	3295.18
851.69	3647.43
851.86	2834.39
852.03	2873.30
852.20	3428.30
852.37	3264.46
852.53	2805.72
852.70	2885.59
852.87	3293.13
853.04	3385.29
853.21	2881.49
853.38	3262.41
853.55	3532.75
853.72	3489.74
853.89	2842.58
854.05	2904.02
854.22	3266.51
854.39	3235.79
854.56	2910.16
854.73	3049.43
854.90	3063.76
855.07	3180.50
855.23	2838.48
855.40	2893.78
855.57	3162.06
855.74	2861.01
855.91	3069.91
856.08	2731.99
856.25	3057.62
856.41	3106.77
856.58	2936.79
856.75	3012.56
856.92	3020.75
857.09	3389.39
857.26	2746.33
857.42	2987.99
857.59	3348.43
857.76	3241.93
857.93	2955.22
858.10	3033.04
858.27	3043.28
858.43	3198.93
858.60	2926.55
858.77	2856.92
858.94	3151.82
859.11	3430.35
859.27	2967.51
859.44	2822.10
859.61	3706.82
859.78	3301.33
859.95	2901.97
860.12	2883.54
860.28	3706.82
860.45	3688.39
860.62	2893.78
860.79	2983.89
860.95	3147.73
861.12	3074.00
861.29	2803.67
861.46	2901.97
861.63	3284.94
861.79	3358.67
861.96	2783.19
862.13	2959.31
862.30	3569.61
862.47	3229.65
862.63	2858.96
862.80	3041.23
862.97	3454.92
863.14	3409.87
863.30	3026.90
863.47	2883.54
863.64	3553.23
863.81	3258.32
863.97	2826.20
864.14	2969.55
864.31	3252.17
864.48	3336.14
864.65	2922.45
864.81	3059.67
864.98	3344.33
865.15	3459.02
865.32	2949.08
865.48	2930.64
865.65	3606.47
865.82	3196.88
865.98	3020.75
866.15	2963.41
866.32	3225.55
866.49	3166.16
866.65	3045.33
866.82	2897.88
866.99	3241.93
867.16	3155.92
867.32	2953.17
867.49	2846.68
867.66	3198.93
867.83	3129.30
867.99	2811.86
868.16	2910.16
868.33	2981.84
868.49	3338.19
868.66	2953.17
868.83	3061.71
868.99	3270.61
869.16	3196.88
869.33	3047.38
869.50	2990.03
869.66	3282.89
869.83	3252.17
870.00	2934.74
870.16	3037.14
870.33	3237.84
870.50	3461.07
870.66	3008.47
870.83	2877.40
871.00	3166.16
871.17	3278.80
871.33	3014.61
871.50	2908.12
871.67	3262.41
871.83	3147.73
872.00	3041.23
872.17	2914.26
872.33	3588.04
872.50	3467.21
872.67	2922.45
872.83	2904.02
873.00	3268.56
873.17	3239.89
873.33	3002.32
873.50	2961.36
873.67	3074.00
873.83	3106.77
874.00	2965.46
874.16	3149.78
874.33	3327.95
874.50	3002.32
874.66	2828.24
874.83	3024.85
875.00	3565.51
875.16	3506.12
875.33	2985.94
875.50	2645.98
875.66	3135.44
875.83	3346.38
875.99	3024.85
876.16	3071.95
876.33	3067.86
876.49	3166.16
876.66	2944.98
876.83	2942.93
876.99	2940.88
877.16	3205.07
877.32	2879.44
877.49	2975.70
877.66	3291.09
877.82	3508.17
877.99	2947.03
878.15	3143.63
878.32	3262.41
878.49	3360.72
878.65	2963.41
878.82	3258.32
878.98	3090.38
879.15	3411.92
879.32	3037.14
879.48	3166.16
879.65	3278.80
879.81	3237.84
879.98	2961.36
880.15	3037.14
880.31	3409.87
880.48	2983.89
880.64	3055.57
880.81	3055.57
880.97	3508.17
881.14	3542.99
881.31	2889.68
881.47	3127.25
881.64	3170.26
881.80	2975.70
881.97	3153.87
882.13	2951.12
882.30	3086.29
882.47	3114.96
882.63	2901.97
882.80	2885.59
882.96	3168.21
883.13	3514.31
883.29	2940.88
883.46	2895.83
883.62	3680.20
883.79	3293.13
883.95	3147.73
884.12	2838.48
884.29	3495.88
884.45	3282.89
884.62	2959.31
884.78	2885.59
884.95	3624.90
885.11	3059.67
885.28	3063.76
885.44	3016.66
885.61	3352.52
885.77	3485.64
885.94	3028.95
886.10	2975.70
886.27	3250.13
886.43	3600.33
886.60	3053.52
886.76	2955.22
886.93	3094.48
887.09	3297.23
887.26	2838.48
887.42	3014.61
887.59	3362.76
887.75	3774.41
887.92	3117.01
888.08	3059.67
888.25	3680.20
888.41	3448.78
888.58	3026.90
888.74	2887.64
888.91	3121.10
>>>>>End Processed Spectral Data<<<<<
