SpectraSuite Data File
++++++++++++++++++++++++++++++++++++
Date: Fri May 06 08:14:16 CEST 2016
User: root
Dark Spectrum Present: No
Reference Spectrum Present: No
Number of Sampled Component Spectra: 1
Spectrometers: USB4C02835
Integration Time (usec): 100000 (USB4C02835)
Spectra Averaged: 1 (USB4C02835)
Boxcar Smoothing: 0 (USB4C02835)
Correct for Electrical Dark: No (USB4C02835)
Strobe/Lamp Enabled: No (USB4C02835)
Correct for Detector Non-linearity: No (USB4C02835)
Correct for Stray Light: No (USB4C02835)
Number of Pixels in Processed Spectrum: 3648
>>>>>Begin Processed Spectral Data<<<<<
177.47	2222.05
177.69	2222.05
177.91	2222.05
178.13	2322.40
178.36	2230.24
178.58	3000.27
178.80	3055.57
179.02	2967.51
179.24	3145.68
179.46	2723.80
179.68	2891.73
179.90	3219.41
180.13	3291.09
180.35	2682.84
180.57	2789.33
180.79	3416.01
181.01	3190.74
181.23	2809.81
181.45	3004.37
181.67	3405.77
181.90	3483.59
182.12	2883.54
182.34	2721.75
182.56	3385.29
182.78	3397.58
183.00	2768.85
183.22	2824.15
183.44	2877.40
183.66	3864.52
183.89	3102.67
184.11	2820.05
184.33	3379.15
184.55	3448.78
184.77	2863.06
184.99	2881.49
185.21	3274.70
185.43	3811.27
185.65	2961.36
185.87	2881.49
186.10	3772.36
186.32	3749.83
186.54	2959.31
186.76	3010.51
186.98	3508.17
187.20	3209.17
187.42	2920.40
187.64	2815.96
187.86	3268.56
188.08	3524.55
188.30	2748.37
188.52	2928.60
188.75	3583.95
188.97	3491.79
189.19	2834.39
189.41	2873.30
189.63	3377.10
189.85	3192.78
190.07	2809.81
190.29	2666.46
190.51	3360.72
190.73	3059.67
190.95	3127.25
191.17	2869.20
191.39	2918.36
191.61	3268.56
191.84	2844.63
192.06	3018.71
192.28	2983.89
192.50	3940.29
192.72	2961.36
192.94	2994.13
193.16	3467.21
193.38	3358.67
193.60	2766.81
193.82	3057.62
194.04	3430.35
194.26	3344.33
194.48	2893.78
194.70	2848.72
194.92	3227.60
195.14	3395.53
195.36	2738.13
195.58	2934.74
195.80	3295.18
196.02	3213.26
196.24	2815.96
196.46	2957.27
196.69	3217.36
196.91	3827.65
197.13	2901.97
197.35	2893.78
197.57	3557.32
197.79	3397.58
198.01	2967.51
198.23	2904.02
198.45	3368.91
198.67	3012.56
198.89	2729.94
199.11	2990.03
199.33	3147.73
199.55	2873.30
199.77	2809.81
199.99	3069.91
200.21	3102.67
200.43	3444.68
200.65	2758.61
200.87	2738.13
201.09	3260.37
201.31	3147.73
201.53	2885.59
201.75	2975.70
201.97	3303.37
202.19	3344.33
202.41	2992.08
202.63	2926.55
202.85	3493.83
203.07	3282.89
203.29	2930.64
203.51	2731.99
203.73	3147.73
203.95	3792.84
204.17	2873.30
204.39	2951.12
204.61	3217.36
204.83	3237.84
205.05	3035.09
205.27	2914.26
205.49	3719.11
205.71	3313.61
205.93	2775.00
206.15	2834.39
206.37	3305.42
206.59	3207.12
206.81	2758.61
207.03	2740.18
207.25	3129.30
207.47	3452.88
207.69	2805.72
207.91	3051.47
208.13	3583.95
208.34	3162.06
208.56	2815.96
208.78	2844.63
209.00	3166.16
209.22	3231.69
209.44	2865.11
209.66	2813.91
209.88	3368.91
210.10	3319.76
210.32	2887.64
210.54	2910.16
210.76	3223.50
210.98	3573.71
211.20	2811.86
211.42	2967.51
211.64	3559.37
211.86	3440.59
212.08	2936.79
212.30	2885.59
212.52	3131.34
212.74	3387.34
212.96	3004.37
213.17	2951.12
213.39	3409.87
213.61	3704.78
213.83	2852.82
214.05	2738.13
214.27	3467.21
214.49	3074.00
214.71	2791.38
214.93	2916.31
215.15	3325.90
215.37	3516.36
215.59	2707.41
215.81	2891.73
216.03	3508.17
216.24	3342.28
216.46	2885.59
216.68	2918.36
216.90	3436.49
217.12	3491.79
217.34	2848.72
217.56	3100.62
217.78	3446.73
218.00	3366.86
218.22	2938.84
218.44	3004.37
218.66	3274.70
218.87	3561.42
219.09	2955.22
219.31	2856.92
219.53	3430.35
219.75	3170.26
219.97	2795.48
220.19	2924.50
220.41	3272.65
220.63	3579.85
220.85	2893.78
221.06	2838.48
221.28	3559.37
221.50	3428.30
221.72	2805.72
221.94	2723.80
222.16	3379.15
222.38	3409.87
222.60	2877.40
222.82	2865.11
223.03	3461.07
223.25	3020.75
223.47	2787.29
223.69	3112.91
223.91	3334.09
224.13	3268.56
224.35	2738.13
224.57	3084.24
224.78	3360.72
225.00	3145.68
225.22	3002.32
225.44	2738.13
225.66	3436.49
225.88	3215.31
226.10	3071.95
226.32	2852.82
226.53	3573.71
226.75	3188.69
226.97	3020.75
227.19	2828.24
227.41	3127.25
227.63	3170.26
227.85	2713.56
228.06	2949.08
228.28	3405.77
228.50	3495.88
228.72	2746.33
228.94	2775.00
229.16	2891.73
229.37	3045.33
229.59	2695.13
229.81	3078.10
230.03	3217.36
230.25	2922.45
230.47	2678.74
230.69	2922.45
230.90	3473.36
231.12	3157.97
231.34	2897.88
231.56	2973.65
231.78	3028.95
232.00	3297.23
232.21	2869.20
232.43	2805.72
232.65	2969.55
232.87	3352.52
233.09	2744.28
233.30	2785.24
233.52	3526.60
233.74	3303.37
233.96	2836.44
234.18	3090.38
234.40	3186.64
234.61	3801.03
234.83	2703.32
235.05	2871.25
235.27	3891.14
235.49	3497.93
235.70	2664.41
235.92	2908.12
236.14	3483.59
236.36	3708.87
236.58	2731.99
236.79	2963.41
237.01	3246.03
237.23	3280.85
237.45	3078.10
237.67	2893.78
237.88	3336.14
238.10	3655.62
238.32	2770.90
238.54	2832.34
238.76	3209.17
238.97	3049.43
239.19	2783.19
239.41	2852.82
239.63	3416.01
239.85	3192.78
240.06	2922.45
240.28	2854.87
240.50	3475.40
240.72	3282.89
240.93	2789.33
241.15	2973.65
241.37	3235.79
241.59	3542.99
241.81	2883.54
242.02	2940.88
242.24	3270.61
242.46	3475.40
242.68	2648.02
242.89	2738.13
243.11	3522.51
243.33	3190.74
243.55	2881.49
243.76	2918.36
243.98	3157.97
244.20	3229.65
244.42	2832.34
244.64	2797.53
244.85	3010.51
245.07	3012.56
245.29	2828.24
245.51	2926.55
245.72	3336.14
245.94	3459.02
246.16	2797.53
246.38	2969.55
246.59	3182.54
246.81	3139.54
247.03	2822.10
247.24	2770.90
247.46	3203.02
247.68	3215.31
247.90	2711.51
248.11	2781.14
248.33	3452.88
248.55	3229.65
248.77	2904.02
248.98	3057.62
249.20	3585.99
249.42	3289.04
249.64	2805.72
249.85	2885.59
250.07	3217.36
250.29	3401.68
250.50	3006.42
250.72	2813.91
250.94	3373.00
251.16	3708.87
251.37	2861.01
251.59	3008.47
251.81	3407.82
252.02	3545.03
252.24	2799.57
252.46	2955.22
252.68	3147.73
252.89	3213.26
253.11	2715.61
253.33	3041.23
253.54	3545.03
253.76	3108.82
253.98	2893.78
254.20	2795.48
254.41	2963.41
254.63	3278.80
254.85	2705.37
255.06	2965.46
255.28	3309.52
255.50	3227.60
255.71	2865.11
255.93	2670.55
256.15	3203.02
256.36	3291.09
256.58	2734.04
256.80	2815.96
257.02	3280.85
257.23	3223.50
257.45	2914.26
257.67	2987.99
257.88	3258.32
258.10	3368.91
258.32	2787.29
258.53	2969.55
258.75	3512.27
258.97	3155.92
259.18	2889.68
259.40	2738.13
259.62	3672.01
259.83	3616.71
260.05	2916.31
260.27	3788.74
260.48	3450.83
260.70	3114.96
260.92	2746.33
261.13	2949.08
261.35	3340.24
261.57	3409.87
261.78	2787.29
262.00	2772.95
262.22	3377.10
262.43	3143.63
262.65	2815.96
262.86	2942.93
263.08	3813.32
263.30	3237.84
263.51	2678.74
263.73	2799.57
263.95	3686.34
264.16	3135.44
264.38	2691.03
264.60	2809.81
264.81	3344.33
265.03	3493.83
265.25	3383.24
265.46	2805.72
265.68	3524.55
265.89	3489.74
266.11	2758.61
266.33	2869.20
266.54	3450.83
266.76	3436.49
266.98	2992.08
267.19	3059.67
267.41	3397.58
267.62	3254.22
267.84	2693.08
268.06	2951.12
268.27	3282.89
268.49	3489.74
268.70	2928.60
268.92	2830.29
269.14	3074.00
269.35	3014.61
269.57	2963.41
269.79	2906.07
270.00	3180.50
270.22	3542.99
270.43	2789.33
270.65	2742.23
270.87	3248.08
271.08	3506.12
271.30	2947.03
271.51	2846.68
271.73	3483.59
271.95	3600.33
272.16	2881.49
272.38	2910.16
272.59	3211.22
272.81	3332.05
273.02	2787.29
273.24	2852.82
273.46	3487.69
273.67	3008.47
273.89	2684.89
274.10	2834.39
274.32	3534.79
274.54	3309.52
274.75	2926.55
274.97	2985.94
275.18	3364.81
275.40	3383.24
275.61	2803.67
275.83	3018.71
276.05	3049.43
276.26	3297.23
276.48	2953.17
276.69	3039.19
276.91	3170.26
277.12	3622.86
277.34	3065.81
277.55	3049.43
277.77	3352.52
277.99	3246.03
278.20	3024.85
278.42	2836.44
278.63	3166.16
278.85	3067.86
279.06	2908.12
279.28	3090.38
279.49	3516.36
279.71	3370.96
279.93	2996.18
280.14	3045.33
280.36	3164.11
280.57	3477.45
280.79	3063.76
281.00	2891.73
281.22	3170.26
281.43	3483.59
281.65	2731.99
281.86	3000.27
282.08	3303.37
282.29	3739.59
282.51	2805.72
282.73	2959.31
282.94	2967.51
283.16	3426.25
283.37	3155.92
283.59	3051.47
283.80	3344.33
284.02	3317.71
284.23	3035.09
284.45	3016.66
284.66	3145.68
284.88	3143.63
285.09	2889.68
285.31	3053.52
285.52	3360.72
285.74	3028.95
285.95	3225.55
286.17	3041.23
286.38	3471.31
286.60	3196.88
286.81	2944.98
287.03	2858.96
287.24	3246.03
287.46	3385.29
287.67	3137.49
287.89	3213.26
288.10	3250.13
288.32	3266.51
288.53	3106.77
288.75	3033.04
288.96	3516.36
289.18	3098.58
289.39	2904.02
289.61	2994.13
289.82	3667.91
290.04	3622.86
290.25	2916.31
290.47	3123.15
290.68	3311.57
290.90	3463.12
291.11	2846.68
291.33	3133.39
291.54	3043.28
291.76	3114.96
291.97	3155.92
292.18	3114.96
292.40	3160.02
292.61	3205.07
292.83	3280.85
293.04	3022.80
293.26	3286.99
293.47	3239.89
293.69	2920.40
293.90	2867.16
294.12	3583.95
294.33	3215.31
294.55	2983.89
294.76	3174.35
294.97	3616.71
295.19	3745.73
295.40	2977.75
295.62	3125.20
295.83	3491.79
296.05	3071.95
296.26	3239.89
296.48	2994.13
296.69	3268.56
296.90	3297.23
297.12	3149.78
297.33	3223.50
297.55	3344.33
297.76	3336.14
297.98	3114.96
298.19	3200.98
298.41	3262.41
298.62	3086.29
298.83	3180.50
299.05	3086.29
299.26	3200.98
299.48	3098.58
299.69	3078.10
299.90	3018.71
300.12	3065.81
300.33	3454.92
300.55	3037.14
300.76	3033.04
300.98	3092.43
301.19	3299.28
301.40	3061.71
301.62	3002.32
301.83	3299.28
302.05	3196.88
302.26	2992.08
302.47	3037.14
302.69	3098.58
302.90	3221.45
303.12	2828.24
303.33	3160.02
303.54	3700.68
303.76	3248.08
303.97	3033.04
304.19	3172.30
304.40	3110.86
304.61	3332.05
304.83	3057.62
305.04	3080.14
305.26	3487.69
305.47	3172.30
305.68	2959.31
305.90	2908.12
306.11	3545.03
306.33	3235.79
306.54	2840.53
306.75	2934.74
306.97	3063.76
307.18	3123.15
307.39	2959.31
307.61	3096.53
307.82	3256.27
308.04	3301.33
308.25	2850.77
308.46	3166.16
308.68	3264.46
308.89	3131.34
309.10	3076.05
309.32	3028.95
309.53	3243.98
309.74	3428.30
309.96	2963.41
310.17	3135.44
310.39	3188.69
310.60	3389.39
310.81	3016.66
311.03	2932.69
311.24	3383.24
311.45	3311.57
311.67	3252.17
311.88	3092.43
312.09	3117.01
312.31	3160.02
312.52	2912.21
312.73	2914.26
312.95	3041.23
313.16	3151.82
313.37	3133.39
313.59	3164.11
313.80	3428.30
314.01	3540.94
314.23	3043.28
314.44	2906.07
314.65	3078.10
314.87	3211.22
315.08	3020.75
315.29	3008.47
315.51	3188.69
315.72	3035.09
315.93	3104.72
316.15	2985.94
316.36	3211.22
316.57	3342.28
316.79	3000.27
317.00	2969.55
317.21	3430.35
317.43	3098.58
317.64	3108.82
317.85	2914.26
318.07	3166.16
318.28	3069.91
318.49	3061.71
318.70	3225.55
318.92	3342.28
319.13	3286.99
319.34	3205.07
319.56	3049.43
319.77	3385.29
319.98	3454.92
320.20	3327.95
320.41	3147.73
320.62	3313.61
320.83	3016.66
321.05	3227.60
321.26	3030.99
321.47	3389.39
321.69	3489.74
321.90	2846.68
322.11	2973.65
322.32	3436.49
322.54	3493.83
322.75	3102.67
322.96	3995.59
323.18	2985.94
323.39	2969.55
323.60	2922.45
323.81	3055.57
324.03	3237.84
324.24	3233.74
324.45	3090.38
324.66	2877.40
324.88	3524.55
325.09	3540.94
325.30	2949.08
325.52	2938.84
325.73	3358.67
325.94	3153.87
326.15	2852.82
326.37	2990.03
326.58	3434.44
326.79	3573.71
327.00	2963.41
327.22	2936.79
327.43	3188.69
327.64	3100.62
327.85	3112.91
328.07	3080.14
328.28	3665.86
328.49	3157.97
328.70	2951.12
328.92	2983.89
329.13	3186.64
329.34	3442.64
329.55	3254.22
329.76	3157.97
329.98	3219.41
330.19	3575.75
330.40	3114.96
330.61	3086.29
330.83	3409.87
331.04	3119.06
331.25	3047.38
331.46	2949.08
331.68	3102.67
331.89	3524.55
332.10	3020.75
332.31	2875.35
332.52	3246.03
332.74	3471.31
332.95	2889.68
333.16	2928.60
333.37	3516.36
333.58	3213.26
333.80	3039.19
334.01	2838.48
334.22	3221.45
334.43	3182.54
334.64	2881.49
334.86	3004.37
335.07	3106.77
335.28	3524.55
335.49	2961.36
335.70	3084.24
335.92	3565.51
336.13	3708.87
336.34	3127.25
336.55	2942.93
336.76	3373.00
336.98	2908.12
337.19	3037.14
337.40	3084.24
337.61	3729.35
337.82	3196.88
338.04	3117.01
338.25	2869.20
338.46	3219.41
338.67	3264.46
338.88	2848.72
339.09	2887.64
339.31	3213.26
339.52	3053.52
339.73	2955.22
339.94	3014.61
340.15	3426.25
340.36	3172.30
340.58	3078.10
340.79	2957.27
341.00	3397.58
341.21	3057.62
341.42	3243.98
341.63	3033.04
341.85	3432.40
342.06	3323.85
342.27	3018.71
342.48	3153.87
342.69	2951.12
342.90	3409.87
343.12	3397.58
343.33	2916.31
343.54	3487.69
343.75	3573.71
343.96	3078.10
344.17	2922.45
344.38	3211.22
344.60	3106.77
344.81	3051.47
345.02	3006.42
345.23	3585.99
345.44	3831.75
345.65	3131.34
345.86	3102.67
346.07	3248.08
346.29	3135.44
346.50	3155.92
346.71	3053.52
346.92	3565.51
347.13	3786.69
347.34	3114.96
347.55	2875.35
347.76	3315.66
347.98	2949.08
348.19	3028.95
348.40	3174.35
348.61	3172.30
348.82	3551.18
349.03	3112.91
349.24	2891.73
349.45	3674.06
349.66	2895.83
349.88	2936.79
350.09	2916.31
350.30	3606.47
350.51	3518.41
350.72	3223.50
350.93	2914.26
351.14	3186.64
351.35	3348.43
351.56	3039.19
351.77	3080.14
351.99	3446.73
352.20	3577.80
352.41	3080.14
352.62	2852.82
352.83	3278.80
353.04	3272.65
353.25	2971.60
353.46	2944.98
353.67	3536.84
353.88	2904.02
354.09	2893.78
354.30	3053.52
354.52	3473.36
354.73	3200.98
354.94	2979.79
355.15	2981.84
355.36	3749.83
355.57	3186.64
355.78	2932.69
355.99	2985.94
356.20	3254.22
356.41	3463.12
356.62	3067.86
356.83	3028.95
357.04	3471.31
357.25	2942.93
357.46	2990.03
357.68	2897.88
357.89	3102.67
358.10	3233.74
358.31	3018.71
358.52	3030.99
358.73	3041.23
358.94	3065.81
359.15	2973.65
359.36	2996.18
359.57	3221.45
359.78	3225.55
359.99	3114.96
360.20	2889.68
360.41	3258.32
360.62	3379.15
360.83	3006.42
361.04	2975.70
361.25	3334.09
361.46	3641.29
361.67	3153.87
361.88	2910.16
362.09	3497.93
362.30	3299.28
362.51	2979.79
362.72	3043.28
362.93	3407.82
363.14	3301.33
363.35	3055.57
363.56	2893.78
363.78	3495.88
363.99	3551.18
364.20	3020.75
364.41	3035.09
364.62	3731.40
364.83	3368.91
365.04	2926.55
365.25	3049.43
365.46	3706.82
365.67	3067.86
365.88	3205.07
366.09	3055.57
366.30	3235.79
366.51	3270.61
366.72	2863.06
366.93	2973.65
367.14	3399.63
367.35	3549.13
367.56	2912.21
367.77	3135.44
367.98	3270.61
368.18	3327.95
368.39	3147.73
368.60	2940.88
368.81	3411.92
369.02	3373.00
369.23	2977.75
369.44	2830.29
369.65	3260.37
369.86	3383.24
370.07	3207.12
370.28	2895.83
370.49	3358.67
370.70	3291.09
370.91	2912.21
371.12	2887.64
371.33	3514.31
371.54	3127.25
371.75	3100.62
371.96	2793.43
372.17	3276.75
372.38	3252.17
372.59	3018.71
372.80	3002.32
373.01	3221.45
373.22	3260.37
373.43	2961.36
373.64	2959.31
373.85	3499.98
374.06	3633.10
374.26	3172.30
374.47	3135.44
374.68	3538.89
374.89	3319.76
375.10	2932.69
375.31	3114.96
375.52	3307.47
375.73	3336.14
375.94	2830.29
376.15	3221.45
376.36	3129.30
376.57	3123.15
376.78	2979.79
376.99	3131.34
377.20	3579.85
377.40	3157.97
377.61	3366.86
377.82	2987.99
378.03	3553.23
378.24	3463.12
378.45	3100.62
378.66	3051.47
378.87	2990.03
379.08	3057.62
379.29	2992.08
379.50	3149.78
379.71	3223.50
379.91	3504.07
380.12	3030.99
380.33	3172.30
380.54	3235.79
380.75	3235.79
380.96	2947.03
381.17	2992.08
381.38	3315.66
381.59	3299.28
381.80	3033.04
382.00	3231.69
382.21	3268.56
382.42	3598.28
382.63	3381.20
382.84	3166.16
383.05	3456.97
383.26	3581.90
383.47	3219.41
383.68	3004.37
383.88	3483.59
384.09	3262.41
384.30	3252.17
384.51	3131.34
384.72	3293.13
384.93	2938.84
385.14	3059.67
385.35	3303.37
385.55	3024.85
385.76	3502.03
385.97	3035.09
386.18	2914.26
386.39	3041.23
386.60	3180.50
386.81	2983.89
387.02	2904.02
387.22	3057.62
387.43	3395.53
387.64	3094.48
387.85	3303.37
388.06	3334.09
388.27	4306.88
388.48	7753.61
388.68	11937.61
388.89	15144.73
389.10	16262.92
389.31	16121.61
389.52	12934.97
389.73	11204.44
389.93	10354.53
390.14	9467.76
390.35	8402.82
390.56	7864.20
390.77	6621.08
390.98	5060.53
391.18	4118.47
391.39	3903.43
391.60	3299.28
391.81	3252.17
392.02	3051.47
392.23	3780.55
392.43	3311.57
392.64	3108.82
392.85	3123.15
393.06	3643.34
393.27	3313.61
393.47	3012.56
393.68	3074.00
393.89	3188.69
394.10	3508.17
394.31	3014.61
394.52	2949.08
394.72	3151.82
394.93	3469.26
395.14	2899.92
395.35	3131.34
395.56	3200.98
395.76	3278.80
395.97	2947.03
396.18	3211.22
396.39	3250.13
396.60	3999.68
396.80	3416.01
397.01	3346.38
397.22	3483.59
397.43	3518.41
397.64	3024.85
397.84	3139.54
398.05	3721.16
398.26	3311.57
398.47	3164.11
398.67	3254.22
398.88	3274.70
399.09	3444.68
399.30	3069.91
399.51	3117.01
399.71	3129.30
399.92	3297.23
400.13	3100.62
400.34	3010.51
400.54	3375.05
400.75	3592.14
400.96	3176.40
401.17	3307.47
401.37	3465.16
401.58	3207.12
401.79	2998.23
402.00	3108.82
402.21	3780.55
402.41	3479.50
402.62	3313.61
402.83	3448.78
403.04	3704.78
403.24	4106.18
403.45	3243.98
403.66	3393.48
403.87	3434.44
404.07	3669.96
404.28	3442.64
404.49	3370.96
404.70	3395.53
404.90	3499.98
405.11	3143.63
405.32	3162.06
405.52	3237.84
405.73	3135.44
405.94	2975.70
406.15	3121.10
406.35	3459.02
406.56	3491.79
406.77	3074.00
406.98	2971.60
407.18	3166.16
407.39	3547.08
407.60	3028.95
407.80	3160.02
408.01	3215.31
408.22	3395.53
408.43	2957.27
408.63	3139.54
408.84	3450.83
409.05	3499.98
409.25	2965.46
409.46	3084.24
409.67	3205.07
409.88	3131.34
410.08	3127.25
410.29	2959.31
410.50	3485.64
410.70	3385.29
410.91	2942.93
411.12	3176.40
411.32	3293.13
411.53	3061.71
411.74	2996.18
411.95	3096.53
412.15	3286.99
412.36	3506.12
412.57	3188.69
412.77	3264.46
412.98	3280.85
413.19	3160.02
413.39	3043.28
413.60	3057.62
413.81	3559.37
414.01	3074.00
414.22	3090.38
414.43	3241.93
414.63	3221.45
414.84	3516.36
415.05	3119.06
415.25	2928.60
415.46	3352.52
415.67	3180.50
415.87	3135.44
416.08	3100.62
416.29	3209.17
416.49	3418.06
416.70	3086.29
416.91	3127.25
417.11	3248.08
417.32	3567.56
417.53	3119.06
417.73	3205.07
417.94	3217.36
418.15	3303.37
418.35	3063.76
418.56	3133.39
418.77	3776.45
418.97	3286.99
419.18	3196.88
419.38	2799.57
419.59	3221.45
419.80	3569.61
420.00	3012.56
420.21	3024.85
420.42	3504.07
420.62	3217.36
420.83	3051.47
421.04	3059.67
421.24	3213.26
421.45	3436.49
421.65	3026.90
421.86	3096.53
422.07	3516.36
422.27	3401.68
422.48	2965.46
422.69	2947.03
422.89	3246.03
423.10	3143.63
423.30	3000.27
423.51	3004.37
423.72	3407.82
423.92	3405.77
424.13	2926.55
424.33	3098.58
424.54	3475.40
424.75	3280.85
424.95	3235.79
425.16	3028.95
425.36	3205.07
425.57	3438.54
425.78	3213.26
425.98	3119.06
426.19	3243.98
426.39	3127.25
426.60	3076.05
426.81	3194.83
427.01	3295.18
427.22	3069.91
427.42	2828.24
427.63	2934.74
427.83	3346.38
428.04	3624.90
428.25	3086.29
428.45	3205.07
428.66	3502.03
428.86	3264.46
429.07	3063.76
429.28	3114.96
429.48	3315.66
429.69	3039.19
429.89	3176.40
430.10	2992.08
430.30	3420.11
430.51	3491.79
430.71	3049.43
430.92	3211.22
431.13	3157.97
431.33	3356.62
431.54	3145.68
431.74	3207.12
431.95	3704.78
432.15	3117.01
432.36	3049.43
432.56	3121.10
432.77	3688.39
432.98	3653.58
433.18	3092.43
433.39	2871.25
433.59	3188.69
433.80	3706.82
434.00	3305.42
434.21	3030.99
434.41	3143.63
434.62	3717.06
434.82	2961.36
435.03	3014.61
435.23	3379.15
435.44	2951.12
435.64	3004.37
435.85	3110.86
436.06	3430.35
436.26	3499.98
436.47	3035.09
436.67	3035.09
436.88	3227.60
437.08	3493.83
437.29	3323.85
437.49	3223.50
437.70	3547.08
437.90	3323.85
438.11	3325.90
438.31	3164.11
438.52	3493.83
438.72	3581.90
438.93	3354.57
439.13	3252.17
439.34	3426.25
439.54	3225.55
439.75	3172.30
439.95	3182.54
440.16	3110.86
440.36	3207.12
440.57	3026.90
440.77	3080.14
440.98	3256.27
441.18	3377.10
441.39	2985.94
441.59	2932.69
441.80	3739.59
442.00	3303.37
442.21	3145.68
442.41	2893.78
442.62	3526.60
442.82	3137.49
443.02	2977.75
443.23	3039.19
443.43	3289.04
443.64	3512.27
443.84	2979.79
444.05	3092.43
444.25	3301.33
444.46	3147.73
444.66	3063.76
444.87	3276.75
445.07	3055.57
445.28	3266.51
445.48	3190.74
445.69	3098.58
445.89	3805.13
446.09	3254.22
446.30	3309.52
446.50	3377.10
446.71	5033.91
446.91	6279.07
447.12	7075.73
447.32	7643.02
447.53	7600.01
447.73	6340.51
447.93	5603.24
448.14	5285.81
448.34	5441.45
448.55	4530.11
448.75	4562.87
448.96	4171.71
449.16	4114.37
449.36	3911.62
449.57	3344.33
449.77	3112.91
449.98	3145.68
450.18	3411.92
450.39	3033.04
450.59	3360.72
450.79	3303.37
451.00	3086.29
451.20	3241.93
451.41	3092.43
451.61	3397.58
451.81	3276.75
452.02	3078.10
452.22	3090.38
452.43	3117.01
452.63	3100.62
452.84	3176.40
453.04	2969.55
453.24	3278.80
453.45	3098.58
453.65	3108.82
453.86	3076.05
454.06	3364.81
454.26	3235.79
454.47	2977.75
454.67	3178.45
454.87	3358.67
455.08	3284.94
455.28	3168.21
455.49	3223.50
455.69	3188.69
455.89	3680.20
456.10	3176.40
456.30	3041.23
456.51	3426.25
456.71	3327.95
456.91	3188.69
457.12	3067.86
457.32	3368.91
457.52	3016.66
457.73	3164.11
457.93	3217.36
458.14	3172.30
458.34	2938.84
458.54	3141.58
458.75	3020.75
458.95	3504.07
459.15	3395.53
459.36	3082.19
459.56	3108.82
459.76	3835.85
459.97	3375.05
460.17	3053.52
460.37	3133.39
460.58	3299.28
460.78	3436.49
460.99	3139.54
461.19	3039.19
461.39	3123.15
461.60	3229.65
461.80	3100.62
462.00	2901.97
462.21	3207.12
462.41	3094.48
462.61	2865.11
462.82	2828.24
463.02	3313.61
463.22	3225.55
463.43	3123.15
463.63	2961.36
463.83	3631.05
464.04	3358.67
464.24	3012.56
464.44	3049.43
464.64	3416.01
464.85	3405.77
465.05	3055.57
465.25	2973.65
465.46	3147.73
465.66	3332.05
465.86	3094.48
466.07	2981.84
466.27	3336.14
466.47	3049.43
466.68	2852.82
466.88	3174.35
467.08	3370.96
467.29	3567.56
467.49	3004.37
467.69	3209.17
467.89	3399.63
468.10	3237.84
468.30	3125.20
468.50	3151.82
468.71	3442.64
468.91	2967.51
469.11	3291.09
469.31	3135.44
469.52	3110.86
469.72	3594.19
469.92	3375.05
470.13	3067.86
470.33	3260.37
470.53	3391.44
470.73	3450.83
470.94	3940.29
471.14	4116.42
471.34	4777.91
471.54	4366.27
471.75	3979.20
471.95	3846.09
472.15	3618.76
472.36	3649.48
472.56	3473.36
472.76	3882.95
472.96	3678.15
473.17	3354.57
473.37	3207.12
473.57	3196.88
473.77	3430.35
473.98	3198.93
474.18	2910.16
474.38	4069.31
474.58	3170.26
474.79	2924.50
474.99	3145.68
475.19	3473.36
475.39	3110.86
475.60	3110.86
475.80	2994.13
476.00	3373.00
476.20	3190.74
476.41	3147.73
476.61	3037.14
476.81	3585.99
477.01	3086.29
477.21	3237.84
477.42	3155.92
477.62	3049.43
477.82	3448.78
478.02	3053.52
478.23	3051.47
478.43	3084.24
478.63	3114.96
478.83	3057.62
479.03	3164.11
479.24	3522.51
479.44	3680.20
479.64	2963.41
479.84	2852.82
480.04	3243.98
480.25	3416.01
480.45	2969.55
480.65	2985.94
480.85	3647.43
481.06	3182.54
481.26	3176.40
481.46	3047.38
481.66	3370.96
481.86	3063.76
482.06	3215.31
482.27	3071.95
482.47	3164.11
482.67	3373.00
482.87	3104.72
483.07	3131.34
483.28	3243.98
483.48	3018.71
483.68	3039.19
483.88	2953.17
484.08	2858.96
484.29	3104.72
484.49	3151.82
484.69	2811.86
484.89	3461.07
485.09	3461.07
485.29	3053.52
485.50	3198.93
485.70	3205.07
485.90	3549.13
486.10	3229.65
486.30	3012.56
486.50	3452.88
486.71	3338.19
486.91	3125.20
487.11	3061.71
487.31	3016.66
487.51	3307.47
487.71	3000.27
487.91	3024.85
488.12	3094.48
488.32	2846.68
488.52	3024.85
488.72	2803.67
488.92	3254.22
489.12	3530.70
489.32	3198.93
489.53	3186.64
489.73	2963.41
489.93	3696.58
490.13	3067.86
490.33	2914.26
490.53	3325.90
490.73	3469.26
490.94	2828.24
491.14	3141.58
491.34	3436.49
491.54	3428.30
491.74	3934.15
491.94	4566.97
492.14	5050.29
492.34	5238.70
492.54	4736.95
492.75	4112.32
492.95	4317.12
493.15	4140.99
493.35	3813.32
493.55	3655.62
493.75	3626.95
493.95	3934.15
494.15	3364.81
494.35	3219.41
494.56	3215.31
494.76	3160.02
494.96	3192.78
495.16	3016.66
495.36	3233.74
495.56	3325.90
495.76	3106.77
495.96	3096.53
496.16	3071.95
496.36	3723.21
496.56	3039.19
496.77	3133.39
496.97	3299.28
497.17	3633.10
497.37	2953.17
497.57	3096.53
497.77	3282.89
497.97	3092.43
498.17	3098.58
498.37	3061.71
498.57	3403.72
498.77	3157.97
498.97	3209.17
499.17	3502.03
499.38	3280.85
499.58	3422.16
499.78	3309.52
499.98	3229.65
500.18	3176.40
500.38	3149.78
500.58	3243.98
500.78	3653.58
500.98	6145.95
501.18	8206.21
501.38	9817.96
501.58	10790.75
501.78	10792.80
501.98	9080.69
502.18	7561.10
502.38	6485.92
502.58	6567.84
502.78	5564.33
502.98	5394.35
503.18	5173.17
503.38	4937.65
503.59	4245.44
503.79	4093.89
503.99	3762.12
504.19	3870.66
504.39	3880.90
504.59	3760.07
504.79	3667.91
504.99	4003.78
505.19	3522.51
505.39	3344.33
505.59	3487.69
505.79	3725.26
505.99	3428.30
506.19	3192.78
506.39	3383.24
506.59	3170.26
506.79	3231.69
506.99	3332.05
507.19	2985.94
507.39	3358.67
507.59	2906.07
507.79	3014.61
507.99	3000.27
508.19	3336.14
508.39	3180.50
508.59	3102.67
508.79	3182.54
508.99	3731.40
509.19	3135.44
509.39	3139.54
509.59	3000.27
509.79	3160.02
509.99	3303.37
510.19	3237.84
510.39	3114.96
510.59	3289.04
510.79	3188.69
510.99	2953.17
511.19	3035.09
511.39	3633.10
511.59	3590.09
511.79	3252.17
511.99	3110.86
512.19	3706.82
512.38	3291.09
512.58	2928.60
512.78	2983.89
512.98	3575.75
513.18	3635.14
513.38	2920.40
513.58	3114.96
513.78	3188.69
513.98	3196.88
514.18	3051.47
514.38	3088.34
514.58	3340.24
514.78	3135.44
514.98	2967.51
515.18	3082.19
515.38	3069.91
515.58	3672.01
515.78	3055.57
515.98	3100.62
516.18	3413.96
516.38	3280.85
516.57	3069.91
516.77	3008.47
516.97	3420.11
517.17	3229.65
517.37	2834.39
517.57	3149.78
517.77	3250.13
517.97	3137.49
518.17	3137.49
518.37	2934.74
518.57	3100.62
518.77	3250.13
518.97	3096.53
519.16	3117.01
519.36	3508.17
519.56	3309.52
519.76	3112.91
519.96	3090.38
520.16	3518.41
520.36	3084.24
520.56	3200.98
520.76	2944.98
520.96	3229.65
521.16	3514.31
521.35	3350.48
521.55	3170.26
521.75	3246.03
521.95	3241.93
522.15	3024.85
522.35	2977.75
522.55	3110.86
522.75	3452.88
522.95	2979.79
523.14	2904.02
523.34	3364.81
523.54	3200.98
523.74	3188.69
523.94	3057.62
524.14	3020.75
524.34	3293.13
524.54	3223.50
524.73	3063.76
524.93	3459.02
525.13	3307.47
525.33	2914.26
525.53	3274.70
525.73	3463.12
525.93	3311.57
526.13	3092.43
526.32	2961.36
526.52	3608.52
526.72	3528.65
526.92	3119.06
527.12	2934.74
527.32	2971.60
527.52	3256.27
527.71	3143.63
527.91	3000.27
528.11	3164.11
528.31	3237.84
528.51	3065.81
528.71	3123.15
528.90	3368.91
529.10	3534.79
529.30	3114.96
529.50	2787.29
529.70	3323.85
529.90	3205.07
530.09	3086.29
530.29	2873.30
530.49	3131.34
530.69	3819.46
530.89	3217.36
531.09	3149.78
531.28	3137.49
531.48	3567.56
531.68	3026.90
531.88	3028.95
532.08	3360.72
532.28	3278.80
532.47	3129.30
532.67	3141.58
532.87	3354.57
533.07	3149.78
533.27	3092.43
533.46	3178.45
533.66	3424.20
533.86	3260.37
534.06	3137.49
534.26	3026.90
534.45	3272.65
534.65	3489.74
534.85	3092.43
535.05	3092.43
535.25	3483.59
535.44	2928.60
535.64	3170.26
535.84	3041.23
536.04	3241.93
536.24	3166.16
536.43	3016.66
536.63	3028.95
536.83	3237.84
537.03	3231.69
537.22	2893.78
537.42	2901.97
537.62	3231.69
537.82	3166.16
538.02	3248.08
538.21	3096.53
538.41	3839.94
538.61	3336.14
538.81	3176.40
539.00	3196.88
539.20	2977.75
539.40	3180.50
539.60	3012.56
539.79	3350.48
539.99	3254.22
540.19	3098.58
540.39	2971.60
540.58	3198.93
540.78	3405.77
540.98	3334.09
541.18	3282.89
541.37	3123.15
541.57	3293.13
541.77	3344.33
541.97	2996.18
542.16	3002.32
542.36	3192.78
542.56	3190.74
542.76	3200.98
542.95	3174.35
543.15	3381.20
543.35	3422.16
543.54	2975.70
543.74	2998.23
543.94	3559.37
544.14	3157.97
544.33	3117.01
544.53	3049.43
544.73	3200.98
544.93	3172.30
545.12	2998.23
545.32	3000.27
545.52	3192.78
545.71	3123.15
545.91	3063.76
546.11	3014.61
546.30	3026.90
546.50	3311.57
546.70	3139.54
546.90	3049.43
547.09	2985.94
547.29	3299.28
547.49	3254.22
547.68	3098.58
547.88	3117.01
548.08	3385.29
548.27	3354.57
548.47	3012.56
548.67	3104.72
548.87	3379.15
549.06	2998.23
549.26	2985.94
549.46	3340.24
549.65	3184.59
549.85	3098.58
550.05	3129.30
550.24	2994.13
550.44	3229.65
550.64	3172.30
550.83	3114.96
551.03	3602.38
551.23	3475.40
551.42	3094.48
551.62	3258.32
551.82	3239.89
552.01	3194.83
552.21	3430.35
552.41	3131.34
552.60	3520.46
552.80	3246.03
553.00	2981.84
553.19	3094.48
553.39	3688.39
553.59	3069.91
553.78	3295.18
553.98	2967.51
554.17	2981.84
554.37	3377.10
554.57	3121.10
554.76	3018.71
554.96	3272.65
555.16	3305.42
555.35	3143.63
555.55	3258.32
555.75	3327.95
555.94	3422.16
556.14	2869.20
556.33	3059.67
556.53	3272.65
556.73	3354.57
556.92	2985.94
557.12	3035.09
557.32	3692.49
557.51	3516.36
557.71	3155.92
557.90	3258.32
558.10	3569.61
558.30	3188.69
558.49	3127.25
558.69	3071.95
558.88	3434.44
559.08	3411.92
559.28	3039.19
559.47	3133.39
559.67	3420.11
559.86	3702.73
560.06	2983.89
560.26	3071.95
560.45	3356.62
560.65	3270.61
560.84	3368.91
561.04	3000.27
561.24	3391.44
561.43	3100.62
561.63	3332.05
561.82	3164.11
562.02	3342.28
562.22	3035.09
562.41	3041.23
562.61	2996.18
562.80	3002.32
563.00	3735.50
563.19	3166.16
563.39	3151.82
563.59	3334.09
563.78	2983.89
563.98	2813.91
564.17	3053.52
564.37	2979.79
564.56	3266.51
564.76	2938.84
564.96	3231.69
565.15	3416.01
565.35	3880.90
565.54	3135.44
565.74	3162.06
565.93	3407.82
566.13	3235.79
566.32	3172.30
566.52	3205.07
566.71	3184.59
566.91	3491.79
567.11	3217.36
567.30	2908.12
567.50	3327.95
567.69	3377.10
567.89	3033.04
568.08	2899.92
568.28	3303.37
568.47	3090.38
568.67	3119.06
568.86	3035.09
569.06	3409.87
569.25	3270.61
569.45	2889.68
569.64	3100.62
569.84	3215.31
570.04	3332.05
570.23	2996.18
570.43	3209.17
570.62	3295.18
570.82	3577.80
571.01	2951.12
571.21	3055.57
571.40	3172.30
571.60	3440.59
571.79	3076.05
571.99	3069.91
572.18	3137.49
572.38	3387.34
572.57	3147.73
572.77	3217.36
572.96	3864.52
573.16	3264.46
573.35	3170.26
573.55	3217.36
573.74	3231.69
573.94	3198.93
574.13	3065.81
574.33	3196.88
574.52	3502.03
574.71	3317.71
574.91	3139.54
575.10	2994.13
575.30	3237.84
575.49	3106.77
575.69	2994.13
575.88	3012.56
576.08	3225.55
576.27	3434.44
576.47	3012.56
576.66	3276.75
576.86	3534.79
577.05	3364.81
577.25	3094.48
577.44	3266.51
577.64	3135.44
577.83	3463.12
578.02	3084.24
578.22	3225.55
578.41	3688.39
578.61	3180.50
578.80	2996.18
579.00	3092.43
579.19	3182.54
579.39	3340.24
579.58	3127.25
579.77	3200.98
579.97	3446.73
580.16	3569.61
580.36	3291.09
580.55	3094.48
580.75	3401.68
580.94	3248.08
581.13	3229.65
581.33	3375.05
581.52	3379.15
581.72	3624.90
581.91	3170.26
582.11	3061.71
582.30	3385.29
582.49	3282.89
582.69	3506.12
582.88	3090.38
583.08	3391.44
583.27	3547.08
583.47	3217.36
583.66	3008.47
583.85	3168.21
584.05	3217.36
584.24	3266.51
584.44	3110.86
584.63	3534.79
584.82	3532.75
585.02	3293.13
585.21	3227.60
585.41	3411.92
585.60	3272.65
585.79	3348.43
585.99	3424.20
586.18	3241.93
586.37	4175.81
586.57	6281.12
586.76	17878.77
586.96	37309.89
587.15	50486.53
587.34	58930.30
587.54	63151.16
587.73	56100.01
587.93	40396.18
588.12	30916.14
588.31	25222.78
588.51	22261.42
588.70	20973.25
588.89	18503.40
589.09	15724.30
589.28	13834.03
589.47	10741.60
589.67	8277.89
589.86	6406.05
590.06	5201.84
590.25	4552.63
590.44	3915.72
590.64	3573.71
590.83	3467.21
591.02	3508.17
591.22	3088.34
591.41	3153.87
591.60	3303.37
591.80	3801.03
591.99	2901.97
592.18	3065.81
592.38	3459.02
592.57	3119.06
592.76	3102.67
592.96	3145.68
593.15	3258.32
593.34	3532.75
593.54	3030.99
593.73	3317.71
593.92	3454.92
594.12	3385.29
594.31	3147.73
594.50	3286.99
594.70	3436.49
594.89	3805.13
595.08	2994.13
595.28	3209.17
595.47	3979.20
595.66	3522.51
595.86	3035.09
596.05	2994.13
596.24	3182.54
596.43	3674.06
596.63	3186.64
596.82	3282.89
597.01	3311.57
597.21	3606.47
597.40	2973.65
597.59	3157.97
597.79	3291.09
597.98	3428.30
598.17	3139.54
598.36	3198.93
598.56	3495.88
598.75	3266.51
598.94	3155.92
599.14	3168.21
599.33	3174.35
599.52	3442.64
599.71	3209.17
599.91	3151.82
600.10	3416.01
600.29	3250.13
600.48	3125.20
600.68	3188.69
600.87	3409.87
601.06	3117.01
601.26	3139.54
601.45	3157.97
601.64	3246.03
601.83	3549.13
602.03	2930.64
602.22	2983.89
602.41	3590.09
602.60	3790.79
602.80	3192.78
602.99	3180.50
603.18	3174.35
603.37	3360.72
603.57	2973.65
603.76	3147.73
603.95	3481.55
604.14	3192.78
604.34	3010.51
604.53	3076.05
604.72	3289.04
604.91	3440.59
605.10	3102.67
605.30	2951.12
605.49	3700.68
605.68	3502.03
605.87	3110.86
606.07	3043.28
606.26	3303.37
606.45	3352.52
606.64	3112.91
606.84	2934.74
607.03	3258.32
607.22	3504.07
607.41	3157.97
607.60	3016.66
607.80	3538.89
607.99	3231.69
608.18	3170.26
608.37	3180.50
608.56	3200.98
608.76	3405.77
608.95	3233.74
609.14	3043.28
609.33	3526.60
609.52	3487.69
609.72	3248.08
609.91	3252.17
610.10	3407.82
610.29	3612.62
610.48	3256.27
610.68	3215.31
610.87	3274.70
611.06	3368.91
611.25	3098.58
611.44	3221.45
611.63	3143.63
611.83	3573.71
612.02	3028.95
612.21	3196.88
612.40	2947.03
612.59	3024.85
612.79	3084.24
612.98	3110.86
613.17	3618.76
613.36	3278.80
613.55	3270.61
613.74	3057.62
613.93	3340.24
614.13	3405.77
614.32	3209.17
614.51	3102.67
614.70	3338.19
614.89	3182.54
615.08	3237.84
615.28	3477.45
615.47	3096.53
615.66	3389.39
615.85	3059.67
616.04	3143.63
616.23	3276.75
616.42	3305.42
616.62	3051.47
616.81	3133.39
617.00	3327.95
617.19	3459.02
617.38	3092.43
617.57	3149.78
617.76	3463.12
617.95	3467.21
618.15	3209.17
618.34	3319.76
618.53	3076.05
618.72	3446.73
618.91	3172.30
619.10	3121.10
619.29	3280.85
619.48	3266.51
619.68	2985.94
619.87	3094.48
620.06	2951.12
620.25	3280.85
620.44	3037.14
620.63	3104.72
620.82	3301.33
621.01	3342.28
621.20	3090.38
621.39	3139.54
621.59	3477.45
621.78	3188.69
621.97	3117.01
622.16	3209.17
622.35	3405.77
622.54	3483.59
622.73	3174.35
622.92	2844.63
623.11	3481.55
623.30	3260.37
623.49	3248.08
623.68	2975.70
623.88	3536.84
624.07	3119.06
624.26	3012.56
624.45	3022.80
624.64	3170.26
624.83	3387.34
625.02	3016.66
625.21	3080.14
625.40	3311.57
625.59	3573.71
625.78	3143.63
625.97	3205.07
626.16	3592.14
626.35	3436.49
626.54	3067.86
626.74	3239.89
626.93	3143.63
627.12	3164.11
627.31	3256.27
627.50	3129.30
627.69	3448.78
627.88	3055.57
628.07	3057.62
628.26	2869.20
628.45	3131.34
628.64	3057.62
628.83	3051.47
629.02	2893.78
629.21	3485.64
629.40	3381.20
629.59	2899.92
629.78	3051.47
629.97	3256.27
630.16	3260.37
630.35	3024.85
630.54	3057.62
630.73	3213.26
630.92	3252.17
631.11	2967.51
631.30	3198.93
631.49	3442.64
631.68	3270.61
631.87	3106.77
632.06	3004.37
632.25	3680.20
632.44	3276.75
632.63	3082.19
632.82	3045.33
633.01	3117.01
633.20	3360.72
633.39	3063.76
633.58	2918.36
633.77	3477.45
633.96	3459.02
634.15	3182.54
634.34	3149.78
634.53	3395.53
634.72	3182.54
634.91	2834.39
635.10	3037.14
635.29	3377.10
635.48	3303.37
635.67	3004.37
635.86	2998.23
636.05	3575.75
636.24	3278.80
636.43	3037.14
636.62	3237.84
636.81	2803.67
637.00	3327.95
637.19	3147.73
637.38	2975.70
637.57	3192.78
637.76	3248.08
637.95	3309.52
638.14	3188.69
638.33	3368.91
638.52	3330.00
638.71	2955.22
638.89	2977.75
639.08	3848.13
639.27	3520.46
639.46	3413.96
639.65	3700.68
639.84	3837.89
640.03	4081.60
640.22	3614.66
640.41	3467.21
640.60	3442.64
640.79	3557.32
640.98	3352.52
641.17	3280.85
641.36	3395.53
641.55	3477.45
641.74	2951.12
641.92	2992.08
642.11	3078.10
642.30	3213.26
642.49	2955.22
642.68	3090.38
642.87	3327.95
643.06	3358.67
643.25	2930.64
643.44	2967.51
643.63	3317.71
643.82	3393.48
644.00	2959.31
644.19	3086.29
644.38	3057.62
644.57	3370.96
644.76	3155.92
644.95	3162.06
645.14	3303.37
645.33	3219.41
645.52	3108.82
645.71	2885.59
645.89	3057.62
646.08	3243.98
646.27	3086.29
646.46	3397.58
646.65	3024.85
646.84	3254.22
647.03	2975.70
647.22	3266.51
647.40	3323.85
647.59	3205.07
647.78	2826.20
647.97	3045.33
648.16	3143.63
648.35	3557.32
648.54	3375.05
648.73	3047.38
648.91	3389.39
649.10	3276.75
649.29	3033.04
649.48	3082.19
649.67	3340.24
649.86	3305.42
650.05	3147.73
650.23	3239.89
650.42	3182.54
650.61	3571.66
650.80	3311.57
650.99	3295.18
651.18	3549.13
651.36	3520.46
651.55	3088.34
651.74	3248.08
651.93	3182.54
652.12	3192.78
652.31	3104.72
652.49	3053.52
652.68	3313.61
652.87	3614.66
653.06	3258.32
653.25	3354.57
653.44	3250.13
653.62	3602.38
653.81	3082.19
654.00	3055.57
654.19	3442.64
654.38	3745.73
654.56	3200.98
654.75	3045.33
654.94	3491.79
655.13	3332.05
655.32	3045.33
655.51	3174.35
655.69	3274.70
655.88	3459.02
656.07	2924.50
656.26	3108.82
656.45	3067.86
656.63	3311.57
656.82	3047.38
657.01	3407.82
657.20	3164.11
657.38	3567.56
657.57	3024.85
657.76	2869.20
657.95	3426.25
658.14	3166.16
658.32	3174.35
658.51	2983.89
658.70	3315.66
658.89	3338.19
659.08	3071.95
659.26	3237.84
659.45	3141.58
659.64	3450.83
659.83	3139.54
660.01	3387.34
660.20	3286.99
660.39	3540.94
660.58	2787.29
660.76	3188.69
660.95	3043.28
661.14	3237.84
661.33	2947.03
661.51	3147.73
661.70	3139.54
661.89	3319.76
662.08	3205.07
662.26	2858.96
662.45	3043.28
662.64	3518.41
662.83	3043.28
663.01	2951.12
663.20	3180.50
663.39	3516.36
663.58	3129.30
663.76	2990.03
663.95	3409.87
664.14	3061.71
664.32	3131.34
664.51	2918.36
664.70	2975.70
664.89	3393.48
665.07	2961.36
665.26	3278.80
665.45	3092.43
665.64	3393.48
665.82	3096.53
666.01	3321.81
666.20	3043.28
666.38	3444.68
666.57	3383.24
666.76	5572.52
666.95	12977.98
667.13	20408.01
667.32	24790.66
667.51	27960.92
667.69	28814.92
667.88	23740.05
668.07	17137.40
668.25	14903.07
668.44	12693.31
668.63	10919.77
668.81	9578.35
669.00	8357.76
669.19	7837.58
669.38	6635.42
669.56	5652.39
669.75	5119.92
669.94	4380.61
670.12	3784.65
670.31	3413.96
670.50	3379.15
670.68	3454.92
670.87	3370.96
671.06	3121.10
671.24	3125.20
671.43	3565.51
671.62	3291.09
671.80	3112.91
671.99	3170.26
672.18	3270.61
672.36	3514.31
672.55	3215.31
672.74	3180.50
672.92	3217.36
673.11	3418.06
673.29	3000.27
673.48	3258.32
673.67	3178.45
673.85	3393.48
674.04	2963.41
674.23	3141.58
674.41	3663.82
674.60	3057.62
674.79	2838.48
674.97	2930.64
675.16	3499.98
675.34	3436.49
675.53	3090.38
675.72	3117.01
675.90	3721.16
676.09	3221.45
676.28	3194.83
676.46	2983.89
676.65	3459.02
676.83	3100.62
677.02	3088.34
677.21	3086.29
677.39	3205.07
677.58	3106.77
677.77	3047.38
677.95	2994.13
678.14	3182.54
678.32	3200.98
678.51	3088.34
678.70	3465.16
678.88	3151.82
679.07	3332.05
679.25	3030.99
679.44	3078.10
679.63	3051.47
679.81	3360.72
680.00	3321.81
680.18	3131.34
680.37	3643.34
680.55	3307.47
680.74	2955.22
680.93	2818.00
681.11	3319.76
681.30	3221.45
681.48	3074.00
681.67	3112.91
681.85	3332.05
682.04	3065.81
682.23	3221.45
682.41	3235.79
682.60	3188.69
682.78	3311.57
682.97	2951.12
683.15	3133.39
683.34	3295.18
683.53	3573.71
683.71	2934.74
683.90	3174.35
684.08	3561.42
684.27	3160.02
684.45	3080.14
684.64	3264.46
684.82	3346.38
685.01	3266.51
685.19	3104.72
685.38	3377.10
685.57	3293.13
685.75	3184.59
685.94	3000.27
686.12	3028.95
686.31	3180.50
686.49	3647.43
686.68	2881.49
686.86	3139.54
687.05	3237.84
687.23	3592.14
687.42	2992.08
687.60	2934.74
687.79	3479.50
687.97	3624.90
688.16	3239.89
688.34	3311.57
688.53	2987.99
688.71	3416.01
688.90	3459.02
689.08	3117.01
689.27	2916.31
689.45	3434.44
689.64	3235.79
689.82	3153.87
690.01	3295.18
690.19	3315.66
690.38	3164.11
690.56	3205.07
690.75	3033.04
690.93	3145.68
691.12	3071.95
691.30	3164.11
691.49	3229.65
691.67	3213.26
691.86	3473.36
692.04	3074.00
692.23	3262.41
692.41	3270.61
692.60	3436.49
692.78	3286.99
692.97	3334.09
693.15	3350.48
693.34	3260.37
693.52	3307.47
693.71	3121.10
693.89	3117.01
694.08	3014.61
694.26	3141.58
694.44	3430.35
694.63	3438.54
694.81	2983.89
695.00	3145.68
695.18	3368.91
695.37	3731.40
695.55	3157.97
695.74	3123.15
695.92	3114.96
696.10	3487.69
696.29	3016.66
696.47	3094.48
696.66	3008.47
696.84	3151.82
697.03	3076.05
697.21	3352.52
697.40	4716.47
697.58	3520.46
697.76	3049.43
697.95	3063.76
698.13	3084.24
698.32	3145.68
698.50	3098.58
698.68	3074.00
698.87	3317.71
699.05	3639.24
699.24	3110.86
699.42	3131.34
699.61	3366.86
699.79	3303.37
699.97	3059.67
700.16	2893.78
700.34	3047.38
700.53	3373.00
700.71	3375.05
700.89	3284.94
701.08	3180.50
701.26	3211.22
701.45	3393.48
701.63	3090.38
701.81	3114.96
702.00	3110.86
702.18	3192.78
702.37	3143.63
702.55	3452.88
702.73	3356.62
702.92	3102.67
703.10	3352.52
703.28	3512.27
703.47	3053.52
703.65	3309.52
703.84	3327.95
704.02	3246.03
704.20	3629.00
704.39	3112.91
704.57	3121.10
704.75	3452.88
704.94	3442.64
705.12	3332.05
705.30	3952.58
705.49	8755.07
705.67	16877.31
705.86	23791.25
706.04	26953.32
706.22	29589.05
706.41	28642.89
706.59	21534.39
706.77	16670.47
706.96	14272.29
707.14	12971.83
707.32	11317.08
707.51	9811.82
707.69	8066.95
707.87	6487.96
708.06	5330.86
708.24	4493.24
708.42	4210.62
708.61	4204.48
708.79	3293.13
708.97	3299.28
709.16	3483.59
709.34	3315.66
709.52	3164.11
709.71	3121.10
709.89	3321.81
710.07	3147.73
710.26	2963.41
710.44	3078.10
710.62	3456.97
710.80	3248.08
710.99	3135.44
711.17	3200.98
711.35	3164.11
711.54	3127.25
711.72	3182.54
711.90	3176.40
712.09	3405.77
712.27	3205.07
712.45	3225.55
712.63	3106.77
712.82	3338.19
713.00	3200.98
713.18	3241.93
713.37	3270.61
713.55	3485.64
713.73	3483.59
713.91	3098.58
714.10	3061.71
714.28	3198.93
714.46	3313.61
714.65	3205.07
714.83	3180.50
715.01	3286.99
715.19	3227.60
715.38	3117.01
715.56	3223.50
715.74	3080.14
715.92	3166.16
716.11	3430.35
716.29	2906.07
716.47	3278.80
716.65	3272.65
716.84	2985.94
717.02	3114.96
717.20	2951.12
717.38	3203.02
717.57	3196.88
717.75	3196.88
717.93	3149.78
718.11	3411.92
718.30	3016.66
718.48	3164.11
718.66	3497.93
718.84	3520.46
719.03	3100.62
719.21	2953.17
719.39	3688.39
719.57	3385.29
719.75	3153.87
719.94	3037.14
720.12	3160.02
720.30	3213.26
720.48	3137.49
720.67	3067.86
720.85	3020.75
721.03	3157.97
721.21	2990.03
721.39	3162.06
721.58	3413.96
721.76	3330.00
721.94	3104.72
722.12	3143.63
722.30	3631.05
722.49	3135.44
722.67	3184.59
722.85	3065.81
723.03	3049.43
723.21	3227.60
723.40	3168.21
723.58	3319.76
723.76	3362.76
723.94	3491.79
724.12	3149.78
724.30	3352.52
724.49	3516.36
724.67	3157.97
724.85	3176.40
725.03	3051.47
725.21	3393.48
725.40	3499.98
725.58	3104.72
725.76	3282.89
725.94	3385.29
726.12	3024.85
726.30	3162.06
726.49	3008.47
726.67	3209.17
726.85	3528.65
727.03	3952.58
727.21	5590.95
727.39	7208.85
727.57	7837.58
727.76	8613.76
727.94	8339.33
728.12	7249.81
728.30	5900.20
728.48	5550.00
728.66	5158.83
728.84	4849.59
729.03	4112.32
729.21	3835.85
729.39	3497.93
729.57	3332.05
729.75	3379.15
729.93	3370.96
730.11	3024.85
730.30	3200.98
730.48	3330.00
730.66	3137.49
730.84	3157.97
731.02	3319.76
731.20	3145.68
731.38	3174.35
731.56	2942.93
731.74	2992.08
731.93	3379.15
732.11	3164.11
732.29	3143.63
732.47	3426.25
732.65	3272.65
732.83	3254.22
733.01	3229.65
733.19	3139.54
733.37	3276.75
733.56	3096.53
733.74	2938.84
733.92	3645.38
734.10	3153.87
734.28	3256.27
734.46	2975.70
734.64	3221.45
734.82	3231.69
735.00	3104.72
735.18	3092.43
735.36	3213.26
735.54	3272.65
735.73	2938.84
735.91	3172.30
736.09	3467.21
736.27	3293.13
736.45	3160.02
736.63	2858.96
736.81	3067.86
736.99	3475.40
737.17	3293.13
737.35	3033.04
737.53	3352.52
737.71	3188.69
737.89	3301.33
738.07	3045.33
738.25	3129.30
738.43	2985.94
738.61	3090.38
738.80	2932.69
738.98	3084.24
739.16	3139.54
739.34	2990.03
739.52	3385.29
739.70	3243.98
739.88	3364.81
740.06	3256.27
740.24	2875.35
740.42	3461.07
740.60	2852.82
740.78	3117.01
740.96	2787.29
741.14	3147.73
741.32	3248.08
741.50	2928.60
741.68	3319.76
741.86	3577.80
742.04	2994.13
742.22	2971.60
742.40	3119.06
742.58	3450.83
742.76	3071.95
742.94	3229.65
743.12	2904.02
743.30	3278.80
743.48	3352.52
743.66	3088.34
743.84	3123.15
744.02	3174.35
744.20	3293.13
744.38	2951.12
744.56	3051.47
744.74	3598.28
744.92	3344.33
745.10	3360.72
745.28	3133.39
745.46	3602.38
745.64	3270.61
745.82	3215.31
746.00	2959.31
746.18	3332.05
746.36	3024.85
746.54	3139.54
746.72	3172.30
746.90	3030.99
747.08	3536.84
747.26	3098.58
747.44	3305.42
747.62	3368.91
747.80	3336.14
747.98	3223.50
748.15	3065.81
748.33	3708.87
748.51	3241.93
748.69	3190.74
748.87	2977.75
749.05	3213.26
749.23	3223.50
749.41	2998.23
749.59	3057.62
749.77	3473.36
749.95	3229.65
750.13	3006.42
750.31	3231.69
750.49	3303.37
750.67	3411.92
750.85	3266.51
751.03	3078.10
751.20	3688.39
751.38	3264.46
751.56	3133.39
751.74	3098.58
751.92	3252.17
752.10	3010.51
752.28	3227.60
752.46	3102.67
752.64	3284.94
752.82	3272.65
753.00	3151.82
753.18	3010.51
753.35	3272.65
753.53	3217.36
753.71	3078.10
753.89	3123.15
754.07	3305.42
754.25	3469.26
754.43	3059.67
754.61	2983.89
754.79	3397.58
754.97	3258.32
755.14	3207.12
755.32	2969.55
755.50	3338.19
755.68	3448.78
755.86	2992.08
756.04	3053.52
756.22	2875.35
756.40	3438.54
756.57	3278.80
756.75	3131.34
756.93	3477.45
757.11	3409.87
757.29	3010.51
757.47	3065.81
757.65	2928.60
757.82	2865.11
758.00	2987.99
758.18	2963.41
758.36	3039.19
758.54	3602.38
758.72	2891.73
758.90	3213.26
759.07	3319.76
759.25	3123.15
759.43	3157.97
759.61	2904.02
759.79	4409.28
759.97	3426.25
760.15	3149.78
760.32	3090.38
760.50	3346.38
760.68	3663.82
760.86	3024.85
761.04	3334.09
761.22	3360.72
761.39	3323.85
761.57	3184.59
761.75	3051.47
761.93	3360.72
762.11	3256.27
762.28	3196.88
762.46	3020.75
762.64	3401.68
762.82	2973.65
763.00	3002.32
763.18	3336.14
763.35	2959.31
763.53	3389.39
763.71	3112.91
763.89	3049.43
764.07	3354.57
764.24	3241.93
764.42	3325.90
764.60	3090.38
764.78	3364.81
764.96	3360.72
765.13	3209.17
765.31	2959.31
765.49	3354.57
765.67	3123.15
765.84	3016.66
766.02	2998.23
766.20	3033.04
766.38	3426.25
766.56	3125.20
766.73	3223.50
766.91	3307.47
767.09	3332.05
767.27	3131.34
767.44	3035.09
767.62	3413.96
767.80	3311.57
767.98	2994.13
768.15	3149.78
768.33	3403.72
768.51	3385.29
768.69	3180.50
768.87	3096.53
769.04	3276.75
769.22	3719.11
769.40	3209.17
769.58	3217.36
769.75	3332.05
769.93	3491.79
770.11	3047.38
770.28	2961.36
770.46	3411.92
770.64	3317.71
770.82	3028.95
770.99	3045.33
771.17	3315.66
771.35	3235.79
771.53	3217.36
771.70	3018.71
771.88	3385.29
772.06	3250.13
772.23	3059.67
772.41	3121.10
772.59	3170.26
772.77	3123.15
772.94	3121.10
773.12	3119.06
773.30	3117.01
773.47	3207.12
773.65	3018.71
773.83	3278.80
774.01	3180.50
774.18	2973.65
774.36	3098.58
774.54	2961.36
774.71	3360.72
774.89	3002.32
775.07	2885.59
775.24	3063.76
775.42	3123.15
775.60	3672.01
775.78	3057.62
775.95	2914.26
776.13	2942.93
776.31	2944.98
776.48	3301.33
776.66	3266.51
776.84	3098.58
777.01	3084.24
777.19	2947.03
777.37	3014.61
777.54	3395.53
777.72	3631.05
777.90	3135.44
778.07	3012.56
778.25	3954.63
778.43	3465.16
778.60	2930.64
778.78	3157.97
778.96	3514.31
779.13	3041.23
779.31	3198.93
779.49	3162.06
779.66	3368.91
779.84	3182.54
780.01	2979.79
780.19	3045.33
780.37	3532.75
780.54	3516.36
780.72	2893.78
780.90	3178.45
781.07	3256.27
781.25	3182.54
781.43	3233.74
781.60	3041.23
781.78	3407.82
781.95	3258.32
782.13	3035.09
782.31	3100.62
782.48	2904.02
782.66	3205.07
782.83	3309.52
783.01	3147.73
783.19	3407.82
783.36	3168.21
783.54	2973.65
783.72	3155.92
783.89	3151.82
784.07	3344.33
784.24	3192.78
784.42	3215.31
784.60	3272.65
784.77	3360.72
784.95	2879.44
785.12	3008.47
785.30	3370.96
785.47	3106.77
785.65	3067.86
785.83	3157.97
786.00	3123.15
786.18	3270.61
786.35	2916.31
786.53	3018.71
786.71	3536.84
786.88	3354.57
787.06	3194.83
787.23	3147.73
787.41	3008.47
787.58	3229.65
787.76	2926.55
787.94	3133.39
788.11	3387.34
788.29	2994.13
788.46	3078.10
788.64	2930.64
788.81	3274.70
788.99	3114.96
789.16	3053.52
789.34	3092.43
789.52	3153.87
789.69	3133.39
789.87	2992.08
790.04	3082.19
790.22	3254.22
790.39	3667.91
790.57	3039.19
790.74	3043.28
790.92	3471.31
791.09	2955.22
791.27	3145.68
791.44	3213.26
791.62	3237.84
791.79	3391.44
791.97	3125.20
792.15	3463.12
792.32	3389.39
792.50	3393.48
792.67	3178.45
792.85	3377.10
793.02	3385.29
793.20	3125.20
793.37	2990.03
793.55	2953.17
793.72	2969.55
793.90	3424.20
794.07	3035.09
794.25	2953.17
794.42	3284.94
794.60	3252.17
794.77	3104.72
794.95	3143.63
795.12	3350.48
795.30	3190.74
795.47	2889.68
795.65	3395.53
795.82	3336.14
796.00	3080.14
796.17	3112.91
796.34	3024.85
796.52	3330.00
796.69	3391.44
796.87	3198.93
797.04	3215.31
797.22	3440.59
797.39	3299.28
797.57	3299.28
797.74	3196.88
797.92	3409.87
798.09	3129.30
798.27	3303.37
798.44	3074.00
798.62	3114.96
798.79	3250.13
798.96	3143.63
799.14	3131.34
799.31	3862.47
799.49	3213.26
799.66	3094.48
799.84	3117.01
800.01	3004.37
800.19	3379.15
800.36	2856.92
800.53	3143.63
800.71	3395.53
800.88	3581.90
801.06	2967.51
801.23	2971.60
801.41	3246.03
801.58	3147.73
801.75	3084.24
801.93	3168.21
802.10	3428.30
802.28	3190.74
802.45	3084.24
802.63	3221.45
802.80	3600.33
802.97	3063.76
803.15	3123.15
803.32	3082.19
803.50	3106.77
803.67	3200.98
803.84	3065.81
804.02	3157.97
804.19	3129.30
804.37	2789.33
804.54	2967.51
804.71	3076.05
804.89	3280.85
805.06	3041.23
805.24	2983.89
805.41	2904.02
805.58	3160.02
805.76	3676.10
805.93	2983.89
806.10	3241.93
806.28	3377.10
806.45	3243.98
806.63	3211.22
806.80	3225.55
806.97	3389.39
807.15	3297.23
807.32	3155.92
807.49	3084.24
807.67	3018.71
807.84	3364.81
808.01	2877.40
808.19	3223.50
808.36	3583.95
808.54	3123.15
808.71	3076.05
808.88	3004.37
809.06	3499.98
809.23	3520.46
809.40	3123.15
809.58	2971.60
809.75	3225.55
809.92	2936.79
810.10	3317.71
810.27	3153.87
810.44	3350.48
810.62	3368.91
810.79	3008.47
810.96	3082.19
811.14	3291.09
811.31	3467.21
811.48	3221.45
811.66	3117.01
811.83	3508.17
812.00	3430.35
812.18	3164.11
812.35	3403.72
812.52	3215.31
812.69	3223.50
812.87	3049.43
813.04	3080.14
813.21	3217.36
813.39	3176.40
813.56	2977.75
813.73	3397.58
813.91	2959.31
814.08	3219.41
814.25	3094.48
814.42	2893.78
814.60	3215.31
814.77	3301.33
814.94	2985.94
815.12	3151.82
815.29	3592.14
815.46	3192.78
815.63	3170.26
815.81	3006.42
815.98	3223.50
816.15	3323.85
816.33	3162.06
816.50	2996.18
816.67	3307.47
816.84	3278.80
817.02	2912.21
817.19	3047.38
817.36	3254.22
817.53	3370.96
817.71	2994.13
817.88	3155.92
818.05	3348.43
818.22	3209.17
818.40	3229.65
818.57	3061.71
818.74	3286.99
818.91	3276.75
819.09	3286.99
819.26	3233.74
819.43	3166.16
819.60	3065.81
819.78	3213.26
819.95	3176.40
820.12	3065.81
820.29	3592.14
820.47	3295.18
820.64	2926.55
820.81	3030.99
820.98	3059.67
821.15	3149.78
821.33	3192.78
821.50	3022.80
821.67	3342.28
821.84	3117.01
822.02	3088.34
822.19	3538.89
822.36	3192.78
822.53	2994.13
822.70	3008.47
822.88	3166.16
823.05	3581.90
823.22	3106.77
823.39	3139.54
823.56	3258.32
823.74	3612.62
823.91	2922.45
824.08	2967.51
824.25	3139.54
824.42	3565.51
824.60	2881.49
824.77	3196.88
824.94	3227.60
825.11	3434.44
825.28	2885.59
825.45	3223.50
825.63	3366.86
825.80	3047.38
825.97	3217.36
826.14	3100.62
826.31	2981.84
826.48	3383.24
826.66	2987.99
826.83	3061.71
827.00	3207.12
827.17	3043.28
827.34	3094.48
827.51	2959.31
827.69	3207.12
827.86	2971.60
828.03	3135.44
828.20	3119.06
828.37	3223.50
828.54	3293.13
828.71	3000.27
828.89	3155.92
829.06	3311.57
829.23	3579.85
829.40	3119.06
829.57	3071.95
829.74	3397.58
829.91	3184.59
830.09	3012.56
830.26	3227.60
830.43	3598.28
830.60	3207.12
830.77	3237.84
830.94	3272.65
831.11	3332.05
831.28	3237.84
831.46	3192.78
831.63	3020.75
831.80	3446.73
831.97	3110.86
832.14	3071.95
832.31	3133.39
832.48	3262.41
832.65	3444.68
832.82	3121.10
832.99	3117.01
833.17	3080.14
833.34	3510.22
833.51	3020.75
833.68	2844.63
833.85	3510.22
834.02	3059.67
834.19	3041.23
834.36	3071.95
834.53	3262.41
834.70	3397.58
834.87	3041.23
835.04	2858.96
835.22	3123.15
835.39	3194.83
835.56	2869.20
835.73	2944.98
835.90	3465.16
836.07	2969.55
836.24	3086.29
836.41	2912.21
836.58	3067.86
836.75	3540.94
836.92	2867.16
837.09	2830.29
837.26	3473.36
837.43	3387.34
837.60	2969.55
837.77	2895.83
837.94	3381.20
838.12	3452.88
838.29	2895.83
838.46	2840.53
838.63	3059.67
838.80	3579.85
838.97	3008.47
839.14	2846.68
839.31	3258.32
839.48	3358.67
839.65	2987.99
839.82	2977.75
839.99	3336.14
840.16	3200.98
840.33	2846.68
840.50	2979.79
840.67	3114.96
840.84	2830.29
841.01	2865.11
841.18	2920.40
841.35	3198.93
841.52	3411.92
841.69	3260.37
841.86	3065.81
842.03	3323.85
842.20	3393.48
842.37	2942.93
842.54	2922.45
842.71	3313.61
842.88	2977.75
843.05	2936.79
843.22	2953.17
843.39	3448.78
843.56	3200.98
843.73	2869.20
843.90	2998.23
844.07	3268.56
844.24	3407.82
844.41	2981.84
844.58	2953.17
844.75	3229.65
844.92	3389.39
845.09	2912.21
845.26	2893.78
845.43	3319.76
845.60	3133.39
845.77	3059.67
845.94	2977.75
846.10	3362.76
846.27	2924.50
846.44	2734.04
846.61	2775.00
846.78	3327.95
846.95	3479.50
847.12	2840.53
847.29	2977.75
847.46	3114.96
847.63	3436.49
847.80	2789.33
847.97	2934.74
848.14	3641.29
848.31	3207.12
848.48	2834.39
848.65	2869.20
848.82	3125.20
848.98	3825.61
849.15	3051.47
849.32	3082.19
849.49	3516.36
849.66	3241.93
849.83	2942.93
850.00	2858.96
850.17	3444.68
850.34	3229.65
850.51	2846.68
850.68	3002.32
850.85	3684.30
851.01	3330.00
851.18	2901.97
851.35	2981.84
851.52	3358.67
851.69	3532.75
851.86	2787.29
852.03	2904.02
852.20	3438.54
852.37	3246.03
852.53	2777.05
852.70	2795.48
852.87	3286.99
853.04	3364.81
853.21	2938.84
853.38	3184.59
853.55	3590.09
853.72	3520.46
853.89	2789.33
854.05	2938.84
854.22	3246.03
854.39	3209.17
854.56	2904.02
854.73	3024.85
854.90	3092.43
855.07	3262.41
855.23	2828.24
855.40	2828.24
855.57	3149.78
855.74	2867.16
855.91	3145.68
856.08	2740.18
856.25	3016.66
856.41	3110.86
856.58	2971.60
856.75	2981.84
856.92	3096.53
857.09	3432.40
857.26	2742.23
857.42	2990.03
857.59	3403.72
857.76	3219.41
857.93	2899.92
858.10	3053.52
858.27	3059.67
858.43	3270.61
858.60	2914.26
858.77	2787.29
858.94	3221.45
859.11	3463.12
859.27	3053.52
859.44	2815.96
859.61	3674.06
859.78	3393.48
859.95	2953.17
860.12	2813.91
860.28	3686.34
860.45	3663.82
860.62	2901.97
860.79	3004.37
860.95	3160.02
861.12	3063.76
861.29	2791.38
861.46	2899.92
861.63	3157.97
861.79	3387.34
861.96	2820.05
862.13	2990.03
862.30	3557.32
862.47	3160.02
862.63	2766.81
862.80	2936.79
862.97	3475.40
863.14	3403.72
863.30	2971.60
863.47	2803.67
863.64	3549.13
863.81	3340.24
863.97	2815.96
864.14	2858.96
864.31	3233.74
864.48	3325.90
864.65	2914.26
864.81	3051.47
864.98	3282.89
865.15	3454.92
865.32	3051.47
865.48	2994.13
865.65	3581.90
865.82	3133.39
865.98	3043.28
866.15	2926.55
866.32	3291.09
866.49	3225.55
866.65	3037.14
866.82	2947.03
866.99	3282.89
867.16	3164.11
867.32	2955.22
867.49	2836.44
867.66	3225.55
867.83	3114.96
867.99	2772.95
868.16	2951.12
868.33	3000.27
868.49	3213.26
868.66	2928.60
868.83	3059.67
868.99	3268.56
869.16	3237.84
869.33	3090.38
869.50	3080.14
869.66	3295.18
869.83	3293.13
870.00	2836.44
870.16	3067.86
870.33	3233.74
870.50	3442.64
870.66	2936.79
870.83	2959.31
871.00	3352.52
871.17	3313.61
871.33	2994.13
871.50	2824.15
871.67	3186.64
871.83	2947.03
872.00	3000.27
872.17	2990.03
872.33	3594.19
872.50	3583.95
872.67	2961.36
872.83	2848.72
873.00	3344.33
873.17	3250.13
873.33	2934.74
873.50	2977.75
873.67	3123.15
873.83	3090.38
874.00	2912.21
874.16	3041.23
874.33	3274.70
874.50	3084.24
874.66	2893.78
874.83	3041.23
875.00	3528.65
875.16	3432.40
875.33	3004.37
875.50	2650.07
875.66	3119.06
875.83	3278.80
875.99	2924.50
876.16	3090.38
876.33	3055.57
876.49	3145.68
876.66	2979.79
876.83	2992.08
876.99	3030.99
877.16	3254.22
877.32	2832.34
877.49	3037.14
877.66	3403.72
877.82	3508.17
877.99	3010.51
878.15	3207.12
878.32	3256.27
878.49	3354.57
878.65	2992.08
878.82	3223.50
878.98	3149.78
879.15	3469.26
879.32	3082.19
879.48	3071.95
879.65	3219.41
879.81	3246.03
879.98	2977.75
880.15	3012.56
880.31	3422.16
880.48	3035.09
880.64	3008.47
880.81	3012.56
880.97	3522.51
881.14	3454.92
881.31	2838.48
881.47	3051.47
881.64	3241.93
881.80	2906.07
881.97	3096.53
882.13	2926.55
882.30	3065.81
882.47	3135.44
882.63	2895.83
882.80	2953.17
882.96	3188.69
883.13	3336.14
883.29	2963.41
883.46	2926.55
883.62	3794.89
883.79	3299.28
883.95	3129.30
884.12	2920.40
884.29	3485.64
884.45	3311.57
884.62	2994.13
884.78	2918.36
884.95	3637.19
885.11	2957.27
885.28	2983.89
885.44	2930.64
885.61	3405.77
885.77	3592.14
885.94	3049.43
886.10	3002.32
886.27	3299.28
886.43	3616.71
886.60	3157.97
886.76	2940.88
886.93	3119.06
887.09	3248.08
887.26	2752.47
887.42	3082.19
887.59	3485.64
887.75	3694.54
887.92	3157.97
888.08	3057.62
888.25	3581.90
888.41	3313.61
888.58	3065.81
888.74	2815.96
888.91	3117.01
>>>>>End Processed Spectral Data<<<<<
