SpectraSuite Data File
++++++++++++++++++++++++++++++++++++
Date: Fri May 06 08:13:58 CEST 2016
User: root
Dark Spectrum Present: No
Reference Spectrum Present: No
Number of Sampled Component Spectra: 1
Spectrometers: USB4C02835
Integration Time (usec): 100000 (USB4C02835)
Spectra Averaged: 1 (USB4C02835)
Boxcar Smoothing: 0 (USB4C02835)
Correct for Electrical Dark: No (USB4C02835)
Strobe/Lamp Enabled: No (USB4C02835)
Correct for Detector Non-linearity: No (USB4C02835)
Correct for Stray Light: No (USB4C02835)
Number of Pixels in Processed Spectrum: 3648
>>>>>Begin Processed Spectral Data<<<<<
177.47	2232.29
177.69	2232.29
177.91	2232.29
178.13	2289.63
178.36	2281.44
178.58	3016.66
178.80	3164.11
179.02	3055.57
179.24	2998.23
179.46	2746.33
179.68	2838.48
179.90	3153.87
180.13	3311.57
180.35	2641.88
180.57	2803.67
180.79	3413.96
181.01	3211.22
181.23	2910.16
181.45	3004.37
181.67	3391.44
181.90	3422.16
182.12	2906.07
182.34	2676.70
182.56	3426.25
182.78	3307.47
183.00	2844.63
183.22	2891.73
183.44	2842.58
183.66	3940.29
183.89	2987.99
184.11	2873.30
184.33	3430.35
184.55	3524.55
184.77	2836.44
184.99	2863.06
185.21	3213.26
185.43	3844.04
185.65	2901.97
185.87	2834.39
186.10	3700.68
186.32	3778.50
186.54	2914.26
186.76	2951.12
186.98	3512.27
187.20	3246.03
187.42	2959.31
187.64	2820.05
187.86	3418.06
188.08	3487.69
188.30	2729.94
188.52	2969.55
188.75	3536.84
188.97	3547.08
189.19	2889.68
189.41	2801.62
189.63	3389.39
189.85	3145.68
190.07	2793.43
190.29	2740.18
190.51	3416.01
190.73	3045.33
190.95	3026.90
191.17	2861.01
191.39	2971.60
191.61	3223.50
191.84	2863.06
192.06	3041.23
192.28	3041.23
192.50	3938.24
192.72	3030.99
192.94	2969.55
193.16	3461.07
193.38	3432.40
193.60	2801.62
193.82	3002.32
194.04	3526.60
194.26	3368.91
194.48	2910.16
194.70	2863.06
194.92	3262.41
195.14	3434.44
195.36	2803.67
195.58	2885.59
195.80	3254.22
196.02	3133.39
196.24	2828.24
196.46	2934.74
196.69	3225.55
196.91	3733.45
197.13	2856.92
197.35	2947.03
197.57	3659.72
197.79	3405.77
198.01	2899.92
198.23	2877.40
198.45	3405.77
198.67	3000.27
198.89	2715.61
199.11	3053.52
199.33	3207.12
199.55	2822.10
199.77	2848.72
199.99	3039.19
200.21	3209.17
200.43	3276.75
200.65	2693.08
200.87	2691.03
201.09	3219.41
201.31	3260.37
201.53	2877.40
201.75	2867.16
201.97	3373.00
202.19	3311.57
202.41	2893.78
202.63	3008.47
202.85	3307.47
203.07	3327.95
203.29	2957.27
203.51	2815.96
203.73	3188.69
203.95	3841.99
204.17	2879.44
204.39	2994.13
204.61	3313.61
204.83	3182.54
205.05	2928.60
205.27	2932.69
205.49	3676.10
205.71	3309.52
205.93	2674.65
206.15	2762.71
206.37	3368.91
206.59	3164.11
206.81	2729.94
207.03	2772.95
207.25	3170.26
207.47	3461.07
207.69	2838.48
207.91	3045.33
208.13	3674.06
208.34	3149.78
208.56	2799.57
208.78	2959.31
209.00	3254.22
209.22	3129.30
209.44	2858.96
209.66	2756.57
209.88	3373.00
210.10	3229.65
210.32	2815.96
210.54	2979.79
210.76	3125.20
210.98	3463.12
211.20	2660.31
211.42	3049.43
211.64	3532.75
211.86	3385.29
212.08	2889.68
212.30	2858.96
212.52	3258.32
212.74	3282.89
212.96	2951.12
213.17	3006.42
213.39	3499.98
213.61	3651.53
213.83	2840.53
214.05	2723.80
214.27	3465.16
214.49	3057.62
214.71	2879.44
214.93	3041.23
215.15	3235.79
215.37	3364.81
215.59	2725.85
215.81	2850.77
216.03	3594.19
216.24	3250.13
216.46	2772.95
216.68	2885.59
216.90	3454.92
217.12	3430.35
217.34	2830.29
217.56	3041.23
217.78	3594.19
218.00	3411.92
218.22	3045.33
218.44	3006.42
218.66	3391.44
218.87	3592.14
219.09	2844.63
219.31	2895.83
219.53	3407.82
219.75	3221.45
219.97	2932.69
220.19	2975.70
220.41	3291.09
220.63	3616.71
220.85	2873.30
221.06	2850.77
221.28	3504.07
221.50	3411.92
221.72	2906.07
221.94	2742.23
222.16	3260.37
222.38	3444.68
222.60	2840.53
222.82	2897.88
223.03	3461.07
223.25	3082.19
223.47	2783.19
223.69	3090.38
223.91	3440.59
224.13	3194.83
224.35	2750.42
224.57	3086.29
224.78	3442.64
225.00	3047.38
225.22	2975.70
225.44	2824.15
225.66	3442.64
225.88	3233.74
226.10	2961.36
226.32	2879.44
226.53	3629.00
226.75	3229.65
226.97	3016.66
227.19	2910.16
227.41	3258.32
227.63	3129.30
227.85	2662.36
228.06	2891.73
228.28	3358.67
228.50	3373.00
228.72	2723.80
228.94	2938.84
229.16	2901.97
229.37	3139.54
229.59	2824.15
229.81	3067.86
230.03	3166.16
230.25	3053.52
230.47	2748.37
230.69	2861.01
230.90	3362.76
231.12	3180.50
231.34	2977.75
231.56	2942.93
231.78	3114.96
232.00	3282.89
232.21	2846.68
232.43	2971.60
232.65	2820.05
232.87	3377.10
233.09	2699.22
233.30	2811.86
233.52	3528.65
233.74	3354.57
233.96	2801.62
234.18	3088.34
234.40	3289.04
234.61	3856.33
234.83	2688.98
235.05	2858.96
235.27	3932.10
235.49	3512.27
235.70	2754.52
235.92	2916.31
236.14	3487.69
236.36	3780.55
236.58	2680.79
236.79	2904.02
237.01	3286.99
237.23	3211.22
237.45	3108.82
237.67	2928.60
237.88	3340.24
238.10	3604.42
238.32	2740.18
238.54	2877.40
238.76	3295.18
238.97	3043.28
239.19	2791.38
239.41	2932.69
239.63	3532.75
239.85	3162.06
240.06	2877.40
240.28	2803.67
240.50	3487.69
240.72	3303.37
240.93	2770.90
241.15	2951.12
241.37	3276.75
241.59	3516.36
241.81	2928.60
242.02	2924.50
242.24	3289.04
242.46	3422.16
242.68	2629.59
242.89	2811.86
243.11	3471.31
243.33	3262.41
243.55	2877.40
243.76	2820.05
243.98	3117.01
244.20	3266.51
244.42	2842.58
244.64	2836.44
244.85	3033.04
245.07	3102.67
245.29	2906.07
245.51	2920.40
245.72	3366.86
245.94	3463.12
246.16	2789.33
246.38	2877.40
246.59	3151.82
246.81	3155.92
247.03	2783.19
247.24	2752.47
247.46	3190.74
247.68	3307.47
247.90	2770.90
248.11	2867.16
248.33	3411.92
248.55	3358.67
248.77	2977.75
248.98	2955.22
249.20	3622.86
249.42	3256.27
249.64	2836.44
249.85	2852.82
250.07	3295.18
250.29	3477.45
250.50	2904.02
250.72	2709.46
250.94	3330.00
251.16	3749.83
251.37	2791.38
251.59	2940.88
251.81	3381.20
252.02	3624.90
252.24	2742.23
252.46	2996.18
252.68	3217.36
252.89	3141.58
253.11	2752.47
253.33	3010.51
253.54	3559.37
253.76	3067.86
253.98	2830.29
254.20	2852.82
254.41	3053.52
254.63	3266.51
254.85	2772.95
255.06	3004.37
255.28	3385.29
255.50	3182.54
255.71	2783.19
255.93	2752.47
256.15	3278.80
256.36	3452.88
256.58	2705.37
256.80	2797.53
257.02	3229.65
257.23	3168.21
257.45	2951.12
257.67	3024.85
257.88	3192.78
258.10	3368.91
258.32	2914.26
258.53	2906.07
258.75	3698.63
258.97	3139.54
259.18	2770.90
259.40	2818.00
259.62	3635.14
259.83	3649.48
260.05	2865.11
260.27	3905.48
260.48	3508.17
260.70	3160.02
260.92	2785.24
261.13	2889.68
261.35	3325.90
261.57	3475.40
261.78	2750.42
262.00	2824.15
262.22	3403.72
262.43	3129.30
262.65	2910.16
262.86	2904.02
263.08	3819.46
263.30	3307.47
263.51	2693.08
263.73	2848.72
263.95	3669.96
264.16	3076.05
264.38	2740.18
264.60	2832.34
264.81	3174.35
265.03	3452.88
265.25	3411.92
265.46	2820.05
265.68	3512.27
265.89	3469.26
266.11	2820.05
266.33	2813.91
266.54	3518.41
266.76	3467.21
266.98	2867.16
267.19	3074.00
267.41	3495.88
267.62	3254.22
267.84	2676.70
268.06	2981.84
268.27	3284.94
268.49	3516.36
268.70	2873.30
268.92	2906.07
269.14	3106.77
269.35	3033.04
269.57	3002.32
269.79	2963.41
270.00	3112.91
270.22	3643.34
270.43	2686.94
270.65	2731.99
270.87	3403.72
271.08	3395.53
271.30	2922.45
271.51	2910.16
271.73	3436.49
271.95	3536.84
272.16	2824.15
272.38	2998.23
272.59	3223.50
272.81	3416.01
273.02	2758.61
273.24	2895.83
273.46	3471.31
273.67	3014.61
273.89	2754.52
274.10	2750.42
274.32	3553.23
274.54	3395.53
274.75	2955.22
274.97	2983.89
275.18	3356.62
275.40	3411.92
275.61	2893.78
275.83	3059.67
276.05	3090.38
276.26	3174.35
276.48	2877.40
276.69	3078.10
276.91	3076.05
277.12	3495.88
277.34	3037.14
277.55	3078.10
277.77	3319.76
277.99	3172.30
278.20	3094.48
278.42	2883.54
278.63	3137.49
278.85	3117.01
279.06	2920.40
279.28	3065.81
279.49	3508.17
279.71	3477.45
279.93	3065.81
280.14	3035.09
280.36	3069.91
280.57	3510.22
280.79	3065.81
281.00	2871.25
281.22	3094.48
281.43	3452.88
281.65	2756.57
281.86	2854.87
282.08	3360.72
282.29	3649.48
282.51	2928.60
282.73	2910.16
282.94	3020.75
283.16	3434.44
283.37	3133.39
283.59	3088.34
283.80	3311.57
284.02	3246.03
284.23	3084.24
284.45	3002.32
284.66	3061.71
284.88	3119.06
285.09	2893.78
285.31	3012.56
285.52	3373.00
285.74	3041.23
285.95	3215.31
286.17	3055.57
286.38	3540.94
286.60	3217.36
286.81	2908.12
287.03	3004.37
287.24	3262.41
287.46	3518.41
287.67	3168.21
287.89	3246.03
288.10	3229.65
288.32	3262.41
288.53	3119.06
288.75	3018.71
288.96	3368.91
289.18	3203.02
289.39	2869.20
289.61	3016.66
289.82	3663.82
290.04	3600.33
290.25	2885.59
290.47	3123.15
290.68	3239.89
290.90	3411.92
291.11	2775.00
291.33	3106.77
291.54	3123.15
291.76	3186.64
291.97	3092.43
292.18	3114.96
292.40	3213.26
292.61	3166.16
292.83	3299.28
293.04	3049.43
293.26	3272.65
293.47	3311.57
293.69	2949.08
293.90	2883.54
294.12	3555.27
294.33	3362.76
294.55	2996.18
294.76	3143.63
294.97	3614.66
295.19	3698.63
295.40	3045.33
295.62	3082.19
295.83	3434.44
296.05	3041.23
296.26	3252.17
296.48	2979.79
296.69	3278.80
296.90	3278.80
297.12	3102.67
297.33	3110.86
297.55	3303.37
297.76	3434.44
297.98	3071.95
298.19	3198.93
298.41	3243.98
298.62	3047.38
298.83	3104.72
299.05	3100.62
299.26	3145.68
299.48	3176.40
299.69	3110.86
299.90	3024.85
300.12	3137.49
300.33	3450.83
300.55	3059.67
300.76	3047.38
300.98	3117.01
301.19	3356.62
301.40	3035.09
301.62	2992.08
301.83	3381.20
302.05	3330.00
302.26	2957.27
302.47	3082.19
302.69	3008.47
302.90	3284.94
303.12	2867.16
303.33	3086.29
303.54	3649.48
303.76	3172.30
303.97	2955.22
304.19	3164.11
304.40	3086.29
304.61	3354.57
304.83	3106.77
305.04	3059.67
305.26	3411.92
305.47	3147.73
305.68	3067.86
305.90	2838.48
306.11	3534.79
306.33	3301.33
306.54	2873.30
306.75	2924.50
306.97	3037.14
307.18	3157.97
307.39	2987.99
307.61	2987.99
307.82	3284.94
308.04	3319.76
308.25	2893.78
308.46	3135.44
308.68	3250.13
308.89	3286.99
309.10	3106.77
309.32	3074.00
309.53	3221.45
309.74	3403.72
309.96	2944.98
310.17	3092.43
310.39	3160.02
310.60	3383.24
310.81	3186.64
311.03	2949.08
311.24	3442.64
311.45	3346.38
311.67	3256.27
311.88	3114.96
312.09	3176.40
312.31	3168.21
312.52	2920.40
312.73	2942.93
312.95	3000.27
313.16	3117.01
313.37	3182.54
313.59	3188.69
313.80	3481.55
314.01	3499.98
314.23	3037.14
314.44	2899.92
314.65	3049.43
314.87	3155.92
315.08	2953.17
315.29	2971.60
315.51	3131.34
315.72	3090.38
315.93	3049.43
316.15	3004.37
316.36	3241.93
316.57	3377.10
316.79	2977.75
317.00	2885.59
317.21	3446.73
317.43	3098.58
317.64	2975.70
317.85	2877.40
318.07	3049.43
318.28	3203.02
318.49	3067.86
318.70	3188.69
318.92	3319.76
319.13	3344.33
319.34	3221.45
319.56	2992.08
319.77	3407.82
319.98	3442.64
320.20	3243.98
320.41	3121.10
320.62	3409.87
320.83	3049.43
321.05	3239.89
321.26	2977.75
321.47	3325.90
321.69	3502.03
321.90	2897.88
322.11	2994.13
322.32	3289.04
322.54	3524.55
322.75	3033.04
322.96	4040.64
323.18	3020.75
323.39	2889.68
323.60	2942.93
323.81	3071.95
324.03	3137.49
324.24	3258.32
324.45	3110.86
324.66	2885.59
324.88	3469.26
325.09	3581.90
325.30	3000.27
325.52	2930.64
325.73	3362.76
325.94	3114.96
326.15	2908.12
326.37	2936.79
326.58	3430.35
326.79	3641.29
327.00	2893.78
327.22	2932.69
327.43	3194.83
327.64	3065.81
327.85	3090.38
328.07	2951.12
328.28	3651.53
328.49	3123.15
328.70	3055.57
328.92	3000.27
329.13	3200.98
329.34	3401.68
329.55	3286.99
329.76	3092.43
329.98	3133.39
330.19	3502.03
330.40	3061.71
330.61	3155.92
330.83	3444.68
331.04	3047.38
331.25	3065.81
331.46	3131.34
331.68	2992.08
331.89	3387.34
332.10	3039.19
332.31	2879.44
332.52	3311.57
332.74	3487.69
332.95	2834.39
333.16	2971.60
333.37	3403.72
333.58	3196.88
333.80	2961.36
334.01	2854.87
334.22	3297.23
334.43	3198.93
334.64	2854.87
334.86	2965.46
335.07	3022.80
335.28	3604.42
335.49	2897.88
335.70	3057.62
335.92	3518.41
336.13	3641.29
336.34	3041.23
336.55	2977.75
336.76	3364.81
336.98	2869.20
337.19	3008.47
337.40	3057.62
337.61	3825.61
337.82	3215.31
338.04	3123.15
338.25	2865.11
338.46	3250.13
338.67	3252.17
338.88	2875.35
339.09	2947.03
339.31	3198.93
339.52	3035.09
339.73	2897.88
339.94	3039.19
340.15	3465.16
340.36	3180.50
340.58	3102.67
340.79	2979.79
341.00	3461.07
341.21	3098.58
341.42	3268.56
341.63	3069.91
341.85	3479.50
342.06	3342.28
342.27	2930.64
342.48	3127.25
342.69	3059.67
342.90	3293.13
343.12	3504.07
343.33	2916.31
343.54	3432.40
343.75	3571.66
343.96	3151.82
344.17	2887.64
344.38	3194.83
344.60	3084.24
344.81	2928.60
345.02	3008.47
345.23	3506.12
345.44	3878.85
345.65	3088.34
345.86	3094.48
346.07	3188.69
346.29	3166.16
346.50	3178.45
346.71	3119.06
346.92	3524.55
347.13	3665.86
347.34	3137.49
347.55	2912.21
347.76	3385.29
347.98	2996.18
348.19	3069.91
348.40	3190.74
348.61	3151.82
348.82	3565.51
349.03	3090.38
349.24	2916.31
349.45	3706.82
349.66	2883.54
349.88	2877.40
350.09	2912.21
350.30	3653.58
350.51	3526.60
350.72	3278.80
350.93	3049.43
351.14	3215.31
351.35	3432.40
351.56	3102.67
351.77	3104.72
351.99	3368.91
352.20	3573.71
352.41	3155.92
352.62	2828.24
352.83	3176.40
353.04	3293.13
353.25	3014.61
353.46	3069.91
353.67	3545.03
353.88	2867.16
354.09	2854.87
354.30	3020.75
354.52	3352.52
354.73	3198.93
354.94	2936.79
355.15	3057.62
355.36	3649.48
355.57	3145.68
355.78	2904.02
355.99	2973.65
356.20	3291.09
356.41	3518.41
356.62	3100.62
356.83	3018.71
357.04	3518.41
357.25	2971.60
357.46	2973.65
357.68	2836.44
357.89	3098.58
358.10	3319.76
358.31	3002.32
358.52	3057.62
358.73	2998.23
358.94	3026.90
359.15	3061.71
359.36	2998.23
359.57	3295.18
359.78	3258.32
359.99	3184.59
360.20	2940.88
360.41	3239.89
360.62	3387.34
360.83	3074.00
361.04	2996.18
361.25	3311.57
361.46	3606.47
361.67	3131.34
361.88	3033.04
362.09	3475.40
362.30	3459.02
362.51	2916.31
362.72	3024.85
362.93	3418.06
363.14	3393.48
363.35	3139.54
363.56	2940.88
363.78	3575.75
363.99	3467.21
364.20	3026.90
364.41	3053.52
364.62	3737.54
364.83	3307.47
365.04	3000.27
365.25	3084.24
365.46	3770.31
365.67	3143.63
365.88	3170.26
366.09	3059.67
366.30	3176.40
366.51	3319.76
366.72	2975.70
366.93	2944.98
367.14	3307.47
367.35	3493.83
367.56	2914.26
367.77	3180.50
367.98	3280.85
368.18	3375.05
368.39	3176.40
368.60	2944.98
368.81	3471.31
369.02	3354.57
369.23	3033.04
369.44	2906.07
369.65	3207.12
369.86	3360.72
370.07	3112.91
370.28	2897.88
370.49	3336.14
370.70	3327.95
370.91	2914.26
371.12	2871.25
371.33	3473.36
371.54	3221.45
371.75	3092.43
371.96	2725.85
372.17	3291.09
372.38	3223.50
372.59	3008.47
372.80	2961.36
373.01	3209.17
373.22	3377.10
373.43	2994.13
373.64	2893.78
373.85	3518.41
374.06	3614.66
374.26	3137.49
374.47	3125.20
374.68	3629.00
374.89	3309.52
375.10	2920.40
375.31	3090.38
375.52	3344.33
375.73	3254.22
375.94	2883.54
376.15	3033.04
376.36	3078.10
376.57	3209.17
376.78	3002.32
376.99	3047.38
377.20	3557.32
377.40	3200.98
377.61	3332.05
377.82	2938.84
378.03	3647.43
378.24	3387.34
378.45	3061.71
378.66	3033.04
378.87	3020.75
379.08	2987.99
379.29	2985.94
379.50	3110.86
379.71	3246.03
379.91	3364.81
380.12	2955.22
380.33	3135.44
380.54	3278.80
380.75	3344.33
380.96	2924.50
381.17	3010.51
381.38	3243.98
381.59	3313.61
381.80	3166.16
382.00	3190.74
382.21	3297.23
382.42	3610.57
382.63	3456.97
382.84	3071.95
383.05	3483.59
383.26	3624.90
383.47	3057.62
383.68	2983.89
383.88	3399.63
384.09	3319.76
384.30	3215.31
384.51	3049.43
384.72	3205.07
384.93	2992.08
385.14	3104.72
385.35	3274.70
385.55	3043.28
385.76	3555.27
385.97	3030.99
386.18	2742.23
386.39	3166.16
386.60	3166.16
386.81	3010.51
387.02	2959.31
387.22	2979.79
387.43	3420.11
387.64	3090.38
387.85	3203.02
388.06	3319.76
388.27	4429.76
388.48	7806.86
388.68	11765.58
388.89	15200.02
389.10	16523.01
389.31	15992.59
389.52	13057.85
389.73	11106.13
389.93	10391.39
390.14	9455.47
390.35	8515.45
390.56	7849.86
390.77	6621.08
390.98	5027.76
391.18	4196.29
391.39	3895.24
391.60	3368.91
391.81	3311.57
392.02	3063.76
392.23	3696.58
392.43	3336.14
392.64	3147.73
392.85	3123.15
393.06	3610.57
393.27	3209.17
393.47	2994.13
393.68	3074.00
393.89	3221.45
394.10	3536.84
394.31	2994.13
394.52	3002.32
394.72	3166.16
394.93	3571.66
395.14	2971.60
395.35	3092.43
395.56	3141.58
395.76	3286.99
395.97	3024.85
396.18	3063.76
396.39	3272.65
396.60	3930.05
396.80	3418.06
397.01	3223.50
397.22	3413.96
397.43	3442.64
397.64	3039.19
397.84	3123.15
398.05	3725.26
398.26	3272.65
398.47	3141.58
398.67	3330.00
398.88	3274.70
399.09	3467.21
399.30	3018.71
399.51	3119.06
399.71	3127.25
399.92	3243.98
400.13	3108.82
400.34	2996.18
400.54	3256.27
400.75	3545.03
400.96	3233.74
401.17	3393.48
401.37	3387.34
401.58	3162.06
401.79	3018.71
402.00	3164.11
402.21	3778.50
402.41	3456.97
402.62	3272.65
402.83	3477.45
403.04	3774.41
403.24	4073.41
403.45	3131.34
403.66	3332.05
403.87	3487.69
404.07	3647.43
404.28	3325.90
404.49	3358.67
404.70	3444.68
404.90	3442.64
405.11	3037.14
405.32	3160.02
405.52	3172.30
405.73	3229.65
405.94	2979.79
406.15	3104.72
406.35	3407.82
406.56	3461.07
406.77	3053.52
406.98	3028.95
407.18	3100.62
407.39	3647.43
407.60	3053.52
407.80	3074.00
408.01	3284.94
408.22	3413.96
408.43	2981.84
408.63	3139.54
408.84	3461.07
409.05	3485.64
409.25	3000.27
409.46	3059.67
409.67	3172.30
409.88	3192.78
410.08	3114.96
410.29	3067.86
410.50	3450.83
410.70	3323.85
410.91	3053.52
411.12	3117.01
411.32	3352.52
411.53	3084.24
411.74	3082.19
411.95	3131.34
412.15	3321.81
412.36	3391.44
412.57	3258.32
412.77	3180.50
412.98	3254.22
413.19	3067.86
413.39	3133.39
413.60	3082.19
413.81	3585.99
414.01	3033.04
414.22	3121.10
414.43	3254.22
414.63	3319.76
414.84	3479.50
415.05	3030.99
415.25	2889.68
415.46	3475.40
415.67	3221.45
415.87	3049.43
416.08	3067.86
416.29	3194.83
416.49	3446.73
416.70	3139.54
416.91	3047.38
417.11	3334.09
417.32	3475.40
417.53	3147.73
417.73	3114.96
417.94	3299.28
418.15	3286.99
418.35	3160.02
418.56	3086.29
418.77	3786.69
418.97	3315.66
419.18	3178.45
419.38	2744.28
419.59	3280.85
419.80	3565.51
420.00	2955.22
420.21	3045.33
420.42	3524.55
420.62	3348.43
420.83	3000.27
421.04	3082.19
421.24	3368.91
421.45	3401.68
421.65	3020.75
421.86	3057.62
422.07	3469.26
422.27	3418.06
422.48	2965.46
422.69	2856.92
422.89	3264.46
423.10	3180.50
423.30	3033.04
423.51	3114.96
423.72	3356.62
423.92	3399.63
424.13	2887.64
424.33	3065.81
424.54	3377.10
424.75	3237.84
424.95	3266.51
425.16	3008.47
425.36	3237.84
425.57	3448.78
425.78	3155.92
425.98	3139.54
426.19	3278.80
426.39	3176.40
426.60	3157.97
426.81	3180.50
427.01	3432.40
427.22	3098.58
427.42	2852.82
427.63	2961.36
427.83	3485.64
428.04	3553.23
428.25	3133.39
428.45	3141.58
428.66	3545.03
428.86	3223.50
429.07	3051.47
429.28	3094.48
429.48	3246.03
429.69	3153.87
429.89	3170.26
430.10	2979.79
430.30	3461.07
430.51	3493.83
430.71	2971.60
430.92	3143.63
431.13	3180.50
431.33	3362.76
431.54	3133.39
431.74	3235.79
431.95	3667.91
432.15	3026.90
432.36	3074.00
432.56	3098.58
432.77	3688.39
432.98	3633.10
433.18	3110.86
433.39	2951.12
433.59	3270.61
433.80	3770.31
434.00	3225.55
434.21	3106.77
434.41	3043.28
434.62	3784.65
434.82	2928.60
435.03	2983.89
435.23	3403.72
435.44	2912.21
435.64	3018.71
435.85	3098.58
436.06	3516.36
436.26	3497.93
436.47	3092.43
436.67	3033.04
436.88	3237.84
437.08	3379.15
437.29	3200.98
437.49	3155.92
437.70	3571.66
437.90	3205.07
438.11	3293.13
438.31	3194.83
438.52	3551.18
438.72	3520.46
438.93	3428.30
439.13	3133.39
439.34	3592.14
439.54	3196.88
439.75	3200.98
439.95	3137.49
440.16	3162.06
440.36	3340.24
440.57	3129.30
440.77	3112.91
440.98	3291.09
441.18	3330.00
441.39	2983.89
441.59	2899.92
441.80	3712.97
442.00	3276.75
442.21	3190.74
442.41	2910.16
442.62	3483.59
442.82	3043.28
443.02	3059.67
443.23	3053.52
443.43	3291.09
443.64	3518.41
443.84	2953.17
444.05	3084.24
444.25	3303.37
444.46	3209.17
444.66	3022.80
444.87	3260.37
445.07	2975.70
445.28	3211.22
445.48	3313.61
445.69	3108.82
445.89	3856.33
446.09	3348.43
446.30	3305.42
446.50	3499.98
446.71	5115.83
446.91	6305.70
447.12	7059.35
447.32	7628.68
447.53	7581.58
447.73	6250.40
447.93	5543.85
448.14	5332.91
448.34	5453.74
448.55	4503.48
448.75	4386.75
448.96	4298.69
449.16	4059.07
449.36	4001.73
449.57	3391.44
449.77	3196.88
449.98	3213.26
450.18	3348.43
450.39	3041.23
450.59	3387.34
450.79	3196.88
451.00	3121.10
451.20	3246.03
451.41	3045.33
451.61	3360.72
451.81	3178.45
452.02	3033.04
452.22	3045.33
452.43	3168.21
452.63	3121.10
452.84	3125.20
453.04	3016.66
453.24	3254.22
453.45	3153.87
453.65	3037.14
453.86	3094.48
454.06	3379.15
454.26	3291.09
454.47	3059.67
454.67	3258.32
454.87	3264.46
455.08	3164.11
455.28	3196.88
455.49	3209.17
455.69	3135.44
455.89	3647.43
456.10	3102.67
456.30	3014.61
456.51	3438.54
456.71	3344.33
456.91	3200.98
457.12	3090.38
457.32	3237.84
457.52	3061.71
457.73	3213.26
457.93	3248.08
458.14	3198.93
458.34	2932.69
458.54	3022.80
458.75	3018.71
458.95	3440.59
459.15	3418.06
459.36	3110.86
459.56	3008.47
459.76	3770.31
459.97	3362.76
460.17	3030.99
460.37	3057.62
460.58	3282.89
460.78	3461.07
460.99	3125.20
461.19	2981.84
461.39	3211.22
461.60	3276.75
461.80	3086.29
462.00	2924.50
462.21	3336.14
462.41	3131.34
462.61	2936.79
462.82	2832.34
463.02	3340.24
463.22	3286.99
463.43	3155.92
463.63	2967.51
463.83	3610.57
464.04	3325.90
464.24	3086.29
464.44	3061.71
464.64	3346.38
464.85	3430.35
465.05	3067.86
465.25	3074.00
465.46	3231.69
465.66	3360.72
465.86	3166.16
466.07	3059.67
466.27	3209.17
466.47	2934.74
466.68	2889.68
466.88	3229.65
467.08	3420.11
467.29	3440.59
467.49	3057.62
467.69	3188.69
467.89	3420.11
468.10	3219.41
468.30	3160.02
468.50	3164.11
468.71	3428.30
468.91	2930.64
469.11	3207.12
469.31	3200.98
469.52	3088.34
469.72	3590.09
469.92	3325.90
470.13	3067.86
470.33	3229.65
470.53	3309.52
470.73	3497.93
470.94	3997.64
471.14	4192.19
471.34	4698.04
471.54	4435.90
471.75	4071.36
471.95	3819.46
472.15	3837.89
472.36	3729.35
472.56	3635.14
472.76	3815.37
472.96	3725.26
473.17	3489.74
473.37	3243.98
473.57	3272.65
473.77	3499.98
473.98	3196.88
474.18	2930.64
474.38	4026.31
474.58	3205.07
474.79	2963.41
474.99	3225.55
475.19	3512.27
475.39	3114.96
475.60	3106.77
475.80	2987.99
476.00	3321.81
476.20	3243.98
476.41	3151.82
476.61	3119.06
476.81	3524.55
477.01	3139.54
477.21	3266.51
477.42	3135.44
477.62	3211.22
477.82	3434.44
478.02	2973.65
478.23	3114.96
478.43	3123.15
478.63	3196.88
478.83	3157.97
479.03	3106.77
479.24	3467.21
479.44	3672.01
479.64	2996.18
479.84	2838.48
480.04	3209.17
480.25	3428.30
480.45	3010.51
480.65	3006.42
480.85	3635.14
481.06	3164.11
481.26	3125.20
481.46	3041.23
481.66	3332.05
481.86	3182.54
482.06	3286.99
482.27	3127.25
482.47	3256.27
482.67	3409.87
482.87	3071.95
483.07	3090.38
483.28	3106.77
483.48	3004.37
483.68	3000.27
483.88	2975.70
484.08	2904.02
484.29	3065.81
484.49	3143.63
484.69	2867.16
484.89	3581.90
485.09	3463.12
485.29	3080.14
485.50	3141.58
485.70	3231.69
485.90	3534.79
486.10	3209.17
486.30	3033.04
486.50	3573.71
486.71	3327.95
486.91	3192.78
487.11	3186.64
487.31	3055.57
487.51	3344.33
487.71	2975.70
487.91	2977.75
488.12	3006.42
488.32	2781.14
488.52	3041.23
488.72	2779.09
488.92	3370.96
489.12	3602.38
489.32	3241.93
489.53	3033.04
489.73	2992.08
489.93	3614.66
490.13	3088.34
490.33	2840.53
490.53	3239.89
490.73	3493.83
490.94	2947.03
491.14	3188.69
491.34	3393.48
491.54	3409.87
491.74	4003.78
491.94	4442.04
492.14	5162.93
492.34	5224.37
492.54	4777.91
492.75	4124.61
492.95	4294.59
493.15	4177.86
493.35	3780.55
493.55	3684.30
493.75	3782.60
493.95	3905.48
494.15	3360.72
494.35	3174.35
494.56	3282.89
494.76	3127.25
494.96	3246.03
495.16	3037.14
495.36	3237.84
495.56	3256.27
495.76	3106.77
495.96	3127.25
496.16	3061.71
496.36	3663.82
496.56	2955.22
496.77	3180.50
496.97	3272.65
497.17	3563.47
497.37	2852.82
497.57	3172.30
497.77	3313.61
497.97	3078.10
498.17	3114.96
498.37	3067.86
498.57	3389.39
498.77	3213.26
498.97	3299.28
499.17	3450.83
499.38	3336.14
499.58	3352.52
499.78	3190.74
499.98	3209.17
500.18	3143.63
500.38	3153.87
500.58	3291.09
500.78	3692.49
500.98	6154.15
501.18	8136.58
501.38	9703.28
501.58	10760.03
501.78	10952.54
501.98	8877.94
502.18	7522.19
502.38	6631.32
502.58	6375.33
502.78	5638.06
502.98	5371.82
503.18	5187.50
503.38	4818.87
503.59	4337.60
503.79	4069.31
503.99	3760.07
504.19	3936.20
504.39	3905.48
504.59	3696.58
504.79	3598.28
504.99	4054.98
505.19	3651.53
505.39	3360.72
505.59	3403.72
505.79	3663.82
505.99	3526.60
506.19	3157.97
506.39	3325.90
506.59	3213.26
506.79	3209.17
506.99	3286.99
507.19	3053.52
507.39	3268.56
507.59	3024.85
507.79	3067.86
507.99	3057.62
508.19	3284.94
508.39	3106.77
508.59	3076.05
508.79	3213.26
508.99	3676.10
509.19	3166.16
509.39	3139.54
509.59	2926.55
509.79	3106.77
509.99	3286.99
510.19	3207.12
510.39	3198.93
510.59	3321.81
510.79	3231.69
510.99	2914.26
511.19	3084.24
511.39	3510.22
511.59	3516.36
511.79	3186.64
511.99	3037.14
512.19	3682.25
512.38	3231.69
512.58	3012.56
512.78	3018.71
512.98	3553.23
513.18	3559.37
513.38	2953.17
513.58	3213.26
513.78	3239.89
513.98	3274.70
514.18	3053.52
514.38	3006.42
514.58	3360.72
514.78	3168.21
514.98	3053.52
515.18	3102.67
515.38	3100.62
515.58	3655.62
515.78	3028.95
515.98	3004.37
516.18	3368.91
516.38	3272.65
516.57	3024.85
516.77	3065.81
516.97	3366.86
517.17	3166.16
517.37	2844.63
517.57	3076.05
517.77	3231.69
517.97	3170.26
518.17	3096.53
518.37	2897.88
518.57	3164.11
518.77	3147.73
518.97	3055.57
519.16	3078.10
519.36	3514.31
519.56	3131.34
519.76	3057.62
519.96	3131.34
520.16	3700.68
520.36	3108.82
520.56	3217.36
520.76	2967.51
520.96	3250.13
521.16	3475.40
521.35	3315.66
521.55	3262.41
521.75	3229.65
521.95	3264.46
522.15	3047.38
522.35	2957.27
522.55	3149.78
522.75	3422.16
522.95	2965.46
523.14	2861.01
523.34	3344.33
523.54	3166.16
523.74	3229.65
523.94	3082.19
524.14	2932.69
524.34	3385.29
524.54	3223.50
524.73	3147.73
524.93	3442.64
525.13	3231.69
525.33	2973.65
525.53	3280.85
525.73	3520.46
525.93	3311.57
526.13	3092.43
526.32	2969.55
526.52	3575.75
526.72	3354.57
526.92	3121.10
527.12	3008.47
527.32	2953.17
527.52	3334.09
527.71	3080.14
527.91	3051.47
528.11	3217.36
528.31	3246.03
528.51	3012.56
528.71	3217.36
528.90	3413.96
529.10	3497.93
529.30	3110.86
529.50	2770.90
529.70	3387.34
529.90	3164.11
530.09	3057.62
530.29	2875.35
530.49	3110.86
530.69	3882.95
530.89	3225.55
531.09	3151.82
531.28	3059.67
531.48	3571.66
531.68	2971.60
531.88	3082.19
532.08	3487.69
532.28	3280.85
532.47	3211.22
532.67	3160.02
532.87	3311.57
533.07	3147.73
533.27	3180.50
533.46	3166.16
533.66	3330.00
533.86	3241.93
534.06	3131.34
534.26	3000.27
534.45	3217.36
534.65	3497.93
534.85	3149.78
535.05	2983.89
535.25	3499.98
535.44	3041.23
535.64	3143.63
535.84	3063.76
536.04	3129.30
536.24	3198.93
536.43	3041.23
536.63	3002.32
536.83	3323.85
537.03	3198.93
537.22	2863.06
537.42	2930.64
537.62	3213.26
537.82	3123.15
538.02	3250.13
538.21	3084.24
538.41	3837.89
538.61	3407.82
538.81	3117.01
539.00	3162.06
539.20	3018.71
539.40	3188.69
539.60	3018.71
539.79	3282.89
539.99	3223.50
540.19	3084.24
540.39	2983.89
540.58	3145.68
540.78	3389.39
540.98	3330.00
541.18	3297.23
541.37	3065.81
541.57	3225.55
541.77	3368.91
541.97	2955.22
542.16	2871.25
542.36	3223.50
542.56	3139.54
542.76	3254.22
542.95	3164.11
543.15	3315.66
543.35	3491.79
543.54	3053.52
543.74	3012.56
543.94	3565.51
544.14	3121.10
544.33	3166.16
544.53	3049.43
544.73	3174.35
544.93	3180.50
545.12	3018.71
545.32	3102.67
545.52	3200.98
545.71	2992.08
545.91	3078.10
546.11	3043.28
546.30	3106.77
546.50	3254.22
546.70	3180.50
546.90	3125.20
547.09	2908.12
547.29	3221.45
547.49	3166.16
547.68	3067.86
547.88	3071.95
548.08	3354.57
548.27	3411.92
548.47	3065.81
548.67	3164.11
548.87	3399.63
549.06	3071.95
549.26	2936.79
549.46	3373.00
549.65	3186.64
549.85	3125.20
550.05	3139.54
550.24	2955.22
550.44	3213.26
550.64	3155.92
550.83	3098.58
551.03	3512.27
551.23	3475.40
551.42	3268.56
551.62	2957.27
551.82	3276.75
552.01	3176.40
552.21	3350.48
552.41	3153.87
552.60	3608.52
552.80	3295.18
553.00	2987.99
553.19	3112.91
553.39	3727.30
553.59	3061.71
553.78	3233.74
553.98	3076.05
554.17	3065.81
554.37	3393.48
554.57	3143.63
554.76	2983.89
554.96	3164.11
555.16	3319.76
555.35	3157.97
555.55	3336.14
555.75	3336.14
555.94	3452.88
556.14	2942.93
556.33	3065.81
556.53	3297.23
556.73	3248.08
556.92	3074.00
557.12	2992.08
557.32	3723.21
557.51	3600.33
557.71	3092.43
557.90	3270.61
558.10	3493.83
558.30	3258.32
558.49	3135.44
558.69	3117.01
558.88	3401.68
559.08	3274.70
559.28	3082.19
559.47	3090.38
559.67	3401.68
559.86	3723.21
560.06	3047.38
560.26	3074.00
560.45	3315.66
560.65	3274.70
560.84	3317.71
561.04	3002.32
561.24	3436.49
561.43	3028.95
561.63	3338.19
561.82	3174.35
562.02	3426.25
562.22	3084.24
562.41	3049.43
562.61	3008.47
562.80	3024.85
563.00	3723.21
563.19	3123.15
563.39	3121.10
563.59	3403.72
563.78	3024.85
563.98	2809.81
564.17	2994.13
564.37	2940.88
564.56	3282.89
564.76	2957.27
564.96	3143.63
565.15	3350.48
565.35	3741.64
565.54	3076.05
565.74	3067.86
565.93	3403.72
566.13	3229.65
566.32	3131.34
566.52	3178.45
566.71	3317.71
566.91	3461.07
567.11	3186.64
567.30	2947.03
567.50	3352.52
567.69	3401.68
567.89	3008.47
568.08	2928.60
568.28	3266.51
568.47	3051.47
568.67	3098.58
568.86	3020.75
569.06	3346.38
569.25	3239.89
569.45	2910.16
569.64	3022.80
569.84	3170.26
570.04	3358.67
570.23	3037.14
570.43	3065.81
570.62	3260.37
570.82	3538.89
571.01	2949.08
571.21	3043.28
571.40	3141.58
571.60	3446.73
571.79	3164.11
571.99	3018.71
572.18	3041.23
572.38	3258.32
572.57	3090.38
572.77	3188.69
572.96	3788.74
573.16	3340.24
573.35	3041.23
573.55	3223.50
573.74	3327.95
573.94	3211.22
574.13	3092.43
574.33	3215.31
574.52	3565.51
574.71	3278.80
574.91	3133.39
575.10	2928.60
575.30	3147.73
575.49	3176.40
575.69	2965.46
575.88	2985.94
576.08	3213.26
576.27	3569.61
576.47	2918.36
576.66	3260.37
576.86	3489.74
577.05	3305.42
577.25	3129.30
577.44	3360.72
577.64	3096.53
577.83	3442.64
578.02	3000.27
578.22	3266.51
578.41	3712.97
578.61	3200.98
578.80	2928.60
579.00	3090.38
579.19	3307.47
579.39	3315.66
579.58	3135.44
579.77	3155.92
579.97	3559.37
580.16	3475.40
580.36	3286.99
580.55	3166.16
580.75	3395.53
580.94	3350.48
581.13	3237.84
581.33	3305.42
581.52	3258.32
581.72	3647.43
581.91	3188.69
582.11	3094.48
582.30	3510.22
582.49	3364.81
582.69	3370.96
582.88	3129.30
583.08	3391.44
583.27	3483.59
583.47	3217.36
583.66	3147.73
583.85	3084.24
584.05	3233.74
584.24	3268.56
584.44	3149.78
584.63	3487.69
584.82	3569.61
585.02	3313.61
585.21	3225.55
585.41	3385.29
585.60	3305.42
585.79	3411.92
585.99	3338.19
586.18	3311.57
586.37	4204.48
586.57	6256.54
586.76	17805.04
586.96	37119.43
587.15	50377.98
587.34	58543.23
587.54	62504.01
587.73	55710.89
587.93	40627.60
588.12	30791.21
588.31	25339.52
588.51	22517.42
588.70	20776.64
588.89	18570.98
589.09	15746.83
589.28	13639.47
589.47	10626.91
589.67	8296.32
589.86	6424.48
590.06	4990.90
590.25	4505.53
590.44	3887.04
590.64	3581.90
590.83	3598.28
591.02	3528.65
591.22	3106.77
591.41	3180.50
591.60	3225.55
591.80	3940.29
591.99	2926.55
592.18	3112.91
592.38	3510.22
592.57	3168.21
592.76	3033.04
592.96	3149.78
593.15	3286.99
593.34	3459.02
593.54	2936.79
593.73	3291.09
593.92	3459.02
594.12	3348.43
594.31	3155.92
594.50	3286.99
594.70	3379.15
594.89	3837.89
595.08	2992.08
595.28	3182.54
595.47	3930.05
595.66	3430.35
595.86	3000.27
596.05	2977.75
596.24	3219.41
596.43	3678.15
596.63	3106.77
596.82	3301.33
597.01	3401.68
597.21	3649.48
597.40	3055.57
597.59	3078.10
597.79	3336.14
597.98	3424.20
598.17	3246.03
598.36	3153.87
598.56	3436.49
598.75	3157.97
598.94	3137.49
599.14	3139.54
599.33	3213.26
599.52	3418.06
599.71	3182.54
599.91	3160.02
600.10	3375.05
600.29	3293.13
600.48	3123.15
600.68	3229.65
600.87	3346.38
601.06	3231.69
601.26	3182.54
601.45	3258.32
601.64	3174.35
601.83	3585.99
602.03	3000.27
602.22	3012.56
602.41	3489.74
602.60	3823.56
602.80	3186.64
602.99	3237.84
603.18	3241.93
603.37	3393.48
603.57	2975.70
603.76	3094.48
603.95	3669.96
604.14	3278.80
604.34	3041.23
604.53	2983.89
604.72	3366.86
604.91	3319.76
605.10	3063.76
605.30	2942.93
605.49	3682.25
605.68	3401.68
605.87	3018.71
606.07	3016.66
606.26	3229.65
606.45	3446.73
606.64	3106.77
606.84	2979.79
607.03	3266.51
607.22	3481.55
607.41	3221.45
607.60	3133.39
607.80	3549.13
607.99	3260.37
608.18	3119.06
608.37	3041.23
608.56	3162.06
608.76	3473.36
608.95	3311.57
609.14	3069.91
609.33	3551.18
609.52	3454.92
609.72	3248.08
609.91	3188.69
610.10	3305.42
610.29	3631.05
610.48	3190.74
610.68	3198.93
610.87	3203.02
611.06	3381.20
611.25	3145.68
611.44	3213.26
611.63	3235.79
611.83	3506.12
612.02	2959.31
612.21	3196.88
612.40	2918.36
612.59	3014.61
612.79	2971.60
612.98	3143.63
613.17	3631.05
613.36	3219.41
613.55	3196.88
613.74	3164.11
613.93	3299.28
614.13	3485.64
614.32	3243.98
614.51	3213.26
614.70	3258.32
614.89	3176.40
615.08	3209.17
615.28	3459.02
615.47	3076.05
615.66	3368.91
615.85	3112.91
616.04	3205.07
616.23	3315.66
616.42	3203.02
616.62	3065.81
616.81	3168.21
617.00	3266.51
617.19	3403.72
617.38	3162.06
617.57	3180.50
617.76	3483.59
617.95	3471.31
618.15	3246.03
618.34	3395.53
618.53	2975.70
618.72	3383.24
618.91	3186.64
619.10	3188.69
619.29	3274.70
619.48	3315.66
619.68	3000.27
619.87	3067.86
620.06	2953.17
620.25	3518.41
620.44	3057.62
620.63	3026.90
620.82	3327.95
621.01	3278.80
621.20	3143.63
621.39	3127.25
621.59	3446.73
621.78	3248.08
621.97	3119.06
622.16	3137.49
622.35	3401.68
622.54	3399.63
622.73	3121.10
622.92	2887.64
623.11	3514.31
623.30	3211.22
623.49	3176.40
623.68	2914.26
623.88	3487.69
624.07	3198.93
624.26	3078.10
624.45	3104.72
624.64	3311.57
624.83	3422.16
625.02	3059.67
625.21	3082.19
625.40	3444.68
625.59	3508.17
625.78	3151.82
625.97	3258.32
626.16	3510.22
626.35	3497.93
626.54	3157.97
626.74	3260.37
626.93	3248.08
627.12	3262.41
627.31	3213.26
627.50	3063.76
627.69	3454.92
627.88	3080.14
628.07	3041.23
628.26	2863.06
628.45	3180.50
628.64	3037.14
628.83	3102.67
629.02	2904.02
629.21	3540.94
629.40	3368.91
629.59	2979.79
629.78	3045.33
629.97	3301.33
630.16	3284.94
630.35	3065.81
630.54	3096.53
630.73	3133.39
630.92	3239.89
631.11	3059.67
631.30	3184.59
631.49	3461.07
631.68	3315.66
631.87	3084.24
632.06	2983.89
632.25	3616.71
632.44	3239.89
632.63	3174.35
632.82	3084.24
633.01	3078.10
633.20	3401.68
633.39	3143.63
633.58	2871.25
633.77	3299.28
633.96	3393.48
634.15	3139.54
634.34	3114.96
634.53	3381.20
634.72	3053.52
634.91	3030.99
635.10	3188.69
635.29	3395.53
635.48	3342.28
635.67	2899.92
635.86	2914.26
636.05	3444.68
636.24	3186.64
636.43	2961.36
636.62	3227.60
636.81	2822.10
637.00	3274.70
637.19	3117.01
637.38	3143.63
637.57	3188.69
637.76	3264.46
637.95	3278.80
638.14	3227.60
638.33	3250.13
638.52	3248.08
638.71	2983.89
638.89	2967.51
639.08	3747.78
639.27	3530.70
639.46	3465.16
639.65	3735.50
639.84	3803.08
640.03	4169.66
640.22	3645.38
640.41	3545.03
640.60	3420.11
640.79	3579.85
640.98	3270.61
641.17	3262.41
641.36	3551.18
641.55	3512.27
641.74	2985.94
641.92	3028.95
642.11	3157.97
642.30	3256.27
642.49	2979.79
642.68	3008.47
642.87	3370.96
643.06	3364.81
643.25	2881.49
643.44	2961.36
643.63	3289.04
643.82	3430.35
644.00	2926.55
644.19	3074.00
644.38	3076.05
644.57	3358.67
644.76	3131.34
644.95	3151.82
645.14	3381.20
645.33	3278.80
645.52	3198.93
645.71	2922.45
645.89	2959.31
646.08	3246.03
646.27	3041.23
646.46	3284.94
646.65	2998.23
646.84	3260.37
647.03	3035.09
647.22	3280.85
647.40	3303.37
647.59	3182.54
647.78	2850.77
647.97	3047.38
648.16	3092.43
648.35	3649.48
648.54	3250.13
648.73	3096.53
648.91	3434.44
649.10	3254.22
649.29	3061.71
649.48	3127.25
649.67	3346.38
649.86	3418.06
650.05	3192.78
650.23	3280.85
650.42	3198.93
650.61	3598.28
650.80	3336.14
650.99	3340.24
651.18	3483.59
651.36	3616.71
651.55	3051.47
651.74	3231.69
651.93	3270.61
652.12	3198.93
652.31	3151.82
652.49	3149.78
652.68	3200.98
652.87	3604.42
653.06	3205.07
653.25	3354.57
653.44	3219.41
653.62	3643.34
653.81	3069.91
654.00	3078.10
654.19	3440.59
654.38	3870.66
654.56	3123.15
654.75	2992.08
654.94	3481.55
655.13	3385.29
655.32	3008.47
655.51	3170.26
655.69	3188.69
655.88	3483.59
656.07	2914.26
656.26	3155.92
656.45	3057.62
656.63	3272.65
656.82	2983.89
657.01	3358.67
657.20	3184.59
657.38	3608.52
657.57	3033.04
657.76	2861.01
657.95	3373.00
658.14	3190.74
658.32	3205.07
658.51	2893.78
658.70	3327.95
658.89	3264.46
659.08	3164.11
659.26	3334.09
659.45	3112.91
659.64	3426.25
659.83	3059.67
660.01	3450.83
660.20	3250.13
660.39	3571.66
660.58	2787.29
660.76	3061.71
660.95	3041.23
661.14	3336.14
661.33	2955.22
661.51	3092.43
661.70	3174.35
661.89	3364.81
662.08	3190.74
662.26	2883.54
662.45	3104.72
662.64	3688.39
662.83	3164.11
663.01	2979.79
663.20	3133.39
663.39	3569.61
663.58	3082.19
663.76	3071.95
663.95	3393.48
664.14	3065.81
664.32	3143.63
664.51	2932.69
664.70	2893.78
664.89	3301.33
665.07	2975.70
665.26	3264.46
665.45	3074.00
665.64	3389.39
665.82	3024.85
666.01	3184.59
666.20	3002.32
666.38	3481.55
666.57	3450.83
666.76	5556.14
666.95	13201.21
667.13	20629.19
667.32	24557.19
667.51	28247.63
667.69	28821.06
667.88	24280.72
668.07	17620.72
668.25	14976.80
668.44	12879.68
668.63	11065.18
668.81	9709.42
669.00	8445.82
669.19	7782.28
669.38	6688.67
669.56	5713.83
669.75	4962.23
669.94	4415.42
670.12	3764.17
670.31	3360.72
670.50	3424.20
670.68	3446.73
670.87	3340.24
671.06	3117.01
671.24	3196.88
671.43	3608.52
671.62	3332.05
671.80	3078.10
671.99	3231.69
672.18	3422.16
672.36	3420.11
672.55	3090.38
672.74	3151.82
672.92	3243.98
673.11	3467.21
673.29	2961.36
673.48	3217.36
673.67	3223.50
673.85	3514.31
674.04	3094.48
674.23	3211.22
674.41	3801.03
674.60	3010.51
674.79	2932.69
674.97	2877.40
675.16	3475.40
675.34	3485.64
675.53	3014.61
675.72	3114.96
675.90	3653.58
676.09	3188.69
676.28	3186.64
676.46	2944.98
676.65	3422.16
676.83	3123.15
677.02	3209.17
677.21	3108.82
677.39	3264.46
677.58	3160.02
677.77	3043.28
677.95	2893.78
678.14	3217.36
678.32	3123.15
678.51	3096.53
678.70	3485.64
678.88	3145.68
679.07	3272.65
679.25	3057.62
679.44	3119.06
679.63	2973.65
679.81	3297.23
680.00	3262.41
680.18	3133.39
680.37	3645.38
680.55	3344.33
680.74	2942.93
680.93	2836.44
681.11	3282.89
681.30	3246.03
681.48	3139.54
681.67	3067.86
681.85	3289.04
682.04	3100.62
682.23	3219.41
682.41	3160.02
682.60	3221.45
682.78	3239.89
682.97	3059.67
683.15	3141.58
683.34	3305.42
683.53	3618.76
683.71	2940.88
683.90	3168.21
684.08	3624.90
684.27	3215.31
684.45	3133.39
684.64	3248.08
684.82	3270.61
685.01	3432.40
685.19	3082.19
685.38	3403.72
685.57	3297.23
685.75	3129.30
685.94	2996.18
686.12	2975.70
686.31	3164.11
686.49	3610.57
686.68	2901.97
686.86	3164.11
687.05	3252.17
687.23	3555.27
687.42	3117.01
687.60	2877.40
687.79	3471.31
687.97	3647.43
688.16	3190.74
688.34	3231.69
688.53	2981.84
688.71	3375.05
688.90	3407.82
689.08	3117.01
689.27	2998.23
689.45	3473.36
689.64	3209.17
689.82	3086.29
690.01	3303.37
690.19	3424.20
690.38	3147.73
690.56	3149.78
690.75	3074.00
690.93	3231.69
691.12	3082.19
691.30	3090.38
691.49	3145.68
691.67	3239.89
691.86	3442.64
692.04	3096.53
692.23	3289.04
692.41	3286.99
692.60	3426.25
692.78	3348.43
692.97	3235.79
693.15	3323.85
693.34	3313.61
693.52	3348.43
693.71	3217.36
693.89	3123.15
694.08	2977.75
694.26	3139.54
694.44	3352.52
694.63	3424.20
694.81	2994.13
695.00	3059.67
695.18	3532.75
695.37	3755.97
695.55	3119.06
695.74	3178.45
695.92	3102.67
696.10	3557.32
696.29	2996.18
696.47	3086.29
696.66	3022.80
696.84	3051.47
697.03	3108.82
697.21	3446.73
697.40	4675.51
697.58	3526.60
697.76	3033.04
697.95	3096.53
698.13	3078.10
698.32	3055.57
698.50	3076.05
698.68	3137.49
698.87	3241.93
699.05	3614.66
699.24	3143.63
699.42	3012.56
699.61	3317.71
699.79	3327.95
699.97	3045.33
700.16	2936.79
700.34	3102.67
700.53	3295.18
700.71	3303.37
700.89	3151.82
701.08	3229.65
701.26	3198.93
701.45	3432.40
701.63	3008.47
701.81	3094.48
702.00	3157.97
702.18	3160.02
702.37	3100.62
702.55	3491.79
702.73	3385.29
702.92	3092.43
703.10	3438.54
703.28	3483.59
703.47	3041.23
703.65	3375.05
703.84	3246.03
704.02	3211.22
704.20	3604.42
704.39	3026.90
704.57	3051.47
704.75	3442.64
704.94	3381.20
705.12	3268.56
705.30	4024.26
705.49	8701.82
705.67	17172.22
705.86	23758.49
706.04	27194.98
706.22	30019.13
706.41	28900.94
706.59	21227.20
706.77	16652.03
706.96	14548.77
707.14	13133.62
707.32	11159.38
707.51	9869.16
707.69	8030.09
707.87	6721.43
708.06	5287.86
708.24	4526.01
708.42	4186.05
708.61	4218.82
708.79	3270.61
708.97	3237.84
709.16	3440.59
709.34	3338.19
709.52	3086.29
709.71	3145.68
709.89	3352.52
710.07	3100.62
710.26	3065.81
710.44	3166.16
710.62	3491.79
710.80	3246.03
710.99	3200.98
711.17	3231.69
711.35	3151.82
711.54	3139.54
711.72	3256.27
711.90	3209.17
712.09	3340.24
712.27	3223.50
712.45	3278.80
712.63	3018.71
712.82	3291.09
713.00	3246.03
713.18	3192.78
713.37	3284.94
713.55	3452.88
713.73	3227.60
713.91	3223.50
714.10	3053.52
714.28	3342.28
714.46	3311.57
714.65	3190.74
714.83	3162.06
715.01	3420.11
715.19	3289.04
715.38	3016.66
715.56	3219.41
715.74	3133.39
715.92	3125.20
716.11	3325.90
716.29	2811.86
716.47	3297.23
716.65	3194.83
716.84	2987.99
717.02	3194.83
717.20	2990.03
717.38	3129.30
717.57	3286.99
717.75	3164.11
717.93	3196.88
718.11	3385.29
718.30	3000.27
718.48	3125.20
718.66	3475.40
718.84	3485.64
719.03	3088.34
719.21	2873.30
719.39	3575.75
719.57	3352.52
719.75	3213.26
719.94	3055.57
720.12	3262.41
720.30	3305.42
720.48	3123.15
720.67	3051.47
720.85	3082.19
721.03	3155.92
721.21	2990.03
721.39	3221.45
721.58	3346.38
721.76	3309.52
721.94	2985.94
722.12	3192.78
722.30	3588.04
722.49	3213.26
722.67	3117.01
722.85	3149.78
723.03	3008.47
723.21	3184.59
723.40	3117.01
723.58	3284.94
723.76	3461.07
723.94	3563.47
724.12	3125.20
724.30	3344.33
724.49	3583.95
724.67	3096.53
724.85	3284.94
725.03	3035.09
725.21	3385.29
725.40	3516.36
725.58	3059.67
725.76	3278.80
725.94	3373.00
726.12	3117.01
726.30	3127.25
726.49	3108.82
726.67	3166.16
726.85	3360.72
727.03	3868.61
727.21	5457.84
727.39	7239.57
727.57	7862.15
727.76	8374.14
727.94	8552.32
728.12	7473.04
728.30	6039.46
728.48	5597.10
728.66	5107.63
728.84	4683.70
729.03	4196.29
729.21	3798.98
729.39	3620.81
729.57	3403.72
729.75	3536.84
729.93	3446.73
730.11	3057.62
730.30	3190.74
730.48	3151.82
730.66	3168.21
730.84	3266.51
731.02	3225.55
731.20	3127.25
731.38	3069.91
731.56	3016.66
731.74	2981.84
731.93	3225.55
732.11	3184.59
732.29	3123.15
732.47	3401.68
732.65	3366.86
732.83	3200.98
733.01	3221.45
733.19	3155.92
733.37	3450.83
733.56	3067.86
733.74	3010.51
733.92	3588.04
734.10	3114.96
734.28	3297.23
734.46	2850.77
734.64	3176.40
734.82	3176.40
735.00	3172.30
735.18	3018.71
735.36	3280.85
735.54	3282.89
735.73	3088.34
735.91	3207.12
736.09	3571.66
736.27	3268.56
736.45	3145.68
736.63	2924.50
736.81	3262.41
736.99	3454.92
737.17	3344.33
737.35	3106.77
737.53	3270.61
737.71	3168.21
737.89	3315.66
738.07	3164.11
738.25	3155.92
738.43	2994.13
738.61	3123.15
738.80	2965.46
738.98	3063.76
739.16	3157.97
739.34	3063.76
739.52	3422.16
739.70	3327.95
739.88	3358.67
740.06	3256.27
740.24	2820.05
740.42	3567.56
740.60	3014.61
740.78	3108.82
740.96	2910.16
741.14	3198.93
741.32	3346.38
741.50	2910.16
741.68	3364.81
741.86	3573.71
742.04	2975.70
742.22	3045.33
742.40	3117.01
742.58	3340.24
742.76	3114.96
742.94	3317.71
743.12	2951.12
743.30	3299.28
743.48	3430.35
743.66	2990.03
743.84	3119.06
744.02	3254.22
744.20	3176.40
744.38	2971.60
744.56	3065.81
744.74	3700.68
744.92	3434.44
745.10	3342.28
745.28	3133.39
745.46	3614.66
745.64	3239.89
745.82	3219.41
746.00	3022.80
746.18	3346.38
746.36	3065.81
746.54	3119.06
746.72	3104.72
746.90	3016.66
747.08	3510.22
747.26	3143.63
747.44	3254.22
747.62	3432.40
747.80	3440.59
747.98	3133.39
748.15	3049.43
748.33	3680.20
748.51	3274.70
748.69	3243.98
748.87	3000.27
749.05	3223.50
749.23	3256.27
749.41	3059.67
749.59	3125.20
749.77	3393.48
749.95	3213.26
750.13	3002.32
750.31	3155.92
750.49	3237.84
750.67	3510.22
750.85	3200.98
751.03	3084.24
751.20	3686.34
751.38	3182.54
751.56	3133.39
751.74	3141.58
751.92	3203.02
752.10	3102.67
752.28	3196.88
752.46	3004.37
752.64	3268.56
752.82	3332.05
753.00	3170.26
753.18	2949.08
753.35	3205.07
753.53	3190.74
753.71	3053.52
753.89	3151.82
754.07	3325.90
754.25	3461.07
754.43	3114.96
754.61	2975.70
754.79	3317.71
754.97	3082.19
755.14	3243.98
755.32	2967.51
755.50	3307.47
755.68	3233.74
755.86	2983.89
756.04	3000.27
756.22	2865.11
756.40	3491.79
756.57	3315.66
756.75	3106.77
756.93	3536.84
757.11	3471.31
757.29	3008.47
757.47	2928.60
757.65	3059.67
757.82	2791.38
758.00	3035.09
758.18	3061.71
758.36	3045.33
758.54	3540.94
758.72	2928.60
758.90	3270.61
759.07	3426.25
759.25	3149.78
759.43	3223.50
759.61	2863.06
759.79	4521.92
759.97	3483.59
760.15	3065.81
760.32	3041.23
760.50	3338.19
760.68	3624.90
760.86	2924.50
761.04	3286.99
761.22	3411.92
761.39	3311.57
761.57	3241.93
761.75	3074.00
761.93	3434.44
762.11	3237.84
762.28	3184.59
762.46	2957.27
762.64	3456.97
762.82	2971.60
763.00	3074.00
763.18	3280.85
763.35	3051.47
763.53	3389.39
763.71	3178.45
763.89	3026.90
764.07	3373.00
764.24	3315.66
764.42	3164.11
764.60	3135.44
764.78	3434.44
764.96	3487.69
765.13	3268.56
765.31	2953.17
765.49	3426.25
765.67	3069.91
765.84	3063.76
766.02	3135.44
766.20	2932.69
766.38	3305.42
766.56	3151.82
766.73	3190.74
766.91	3297.23
767.09	3248.08
767.27	3106.77
767.44	3037.14
767.62	3352.52
767.80	3327.95
767.98	3035.09
768.15	3090.38
768.33	3432.40
768.51	3379.15
768.69	3221.45
768.87	3051.47
769.04	3323.85
769.22	3772.36
769.40	3246.03
769.58	3188.69
769.75	3424.20
769.93	3585.99
770.11	3106.77
770.28	2955.22
770.46	3373.00
770.64	3286.99
770.82	3086.29
770.99	3074.00
771.17	3313.61
771.35	3143.63
771.53	3160.02
771.70	2959.31
771.88	3397.58
772.06	3254.22
772.23	3028.95
772.41	3135.44
772.59	3280.85
772.77	3133.39
772.94	3123.15
773.12	3121.10
773.30	3182.54
773.47	3254.22
773.65	2996.18
773.83	3211.22
774.01	3237.84
774.18	3002.32
774.36	3125.20
774.54	2926.55
774.71	3295.18
774.89	3010.51
775.07	3006.42
775.24	3084.24
775.42	3264.46
775.60	3698.63
775.78	2998.23
775.95	2938.84
776.13	3006.42
776.31	2959.31
776.48	3248.08
776.66	3246.03
776.84	3219.41
777.01	3024.85
777.19	3035.09
777.37	2987.99
777.54	3370.96
777.72	3631.05
777.90	3233.74
778.07	3010.51
778.25	3971.01
778.43	3418.06
778.60	3002.32
778.78	3172.30
778.96	3520.46
779.13	3010.51
779.31	3143.63
779.49	3213.26
779.66	3223.50
779.84	3248.08
780.01	3067.86
780.19	3004.37
780.37	3450.83
780.54	3375.05
780.72	2901.97
780.90	3041.23
781.07	3209.17
781.25	3203.02
781.43	3280.85
781.60	3035.09
781.78	3504.07
781.95	3258.32
782.13	3002.32
782.31	3076.05
782.48	2928.60
782.66	3215.31
782.83	3252.17
783.01	3182.54
783.19	3450.83
783.36	3291.09
783.54	3051.47
783.72	3139.54
783.89	3106.77
784.07	3383.24
784.24	3149.78
784.42	3303.37
784.60	3311.57
784.77	3360.72
784.95	2787.29
785.12	3051.47
785.30	3297.23
785.47	3035.09
785.65	3026.90
785.83	3147.73
786.00	3252.17
786.18	3358.67
786.35	2940.88
786.53	2953.17
786.71	3557.32
786.88	3344.33
787.06	3135.44
787.23	3186.64
787.41	3069.91
787.58	3274.70
787.76	2998.23
787.94	3131.34
788.11	3307.47
788.29	3076.05
788.46	3061.71
788.64	2893.78
788.81	3209.17
788.99	3051.47
789.16	3028.95
789.34	3069.91
789.52	3121.10
789.69	3112.91
789.87	2844.63
790.04	3108.82
790.22	3200.98
790.39	3741.64
790.57	2977.75
790.74	2971.60
790.92	3479.50
791.09	2893.78
791.27	3112.91
791.44	3151.82
791.62	3231.69
791.79	3385.29
791.97	3153.87
792.15	3370.96
792.32	3338.19
792.50	3440.59
792.67	3295.18
792.85	3362.76
793.02	3319.76
793.20	3207.12
793.37	2934.74
793.55	3020.75
793.72	3090.38
793.90	3389.39
794.07	3071.95
794.25	2977.75
794.42	3266.51
794.60	3160.02
794.77	3235.79
794.95	3190.74
795.12	3481.55
795.30	3323.85
795.47	2879.44
795.65	3469.26
795.82	3409.87
796.00	3108.82
796.17	3139.54
796.34	2936.79
796.52	3356.62
796.69	3401.68
796.87	3160.02
797.04	3231.69
797.22	3479.50
797.39	3356.62
797.57	3229.65
797.74	3127.25
797.92	3405.77
798.09	3119.06
798.27	3319.76
798.44	3110.86
798.62	3170.26
798.79	3217.36
798.96	3266.51
799.14	3104.72
799.31	3829.70
799.49	3319.76
799.66	3114.96
799.84	3174.35
800.01	3086.29
800.19	3336.14
800.36	2940.88
800.53	3074.00
800.71	3323.85
800.88	3581.90
801.06	3051.47
801.23	3053.52
801.41	3221.45
801.58	3192.78
801.75	3078.10
801.93	3110.86
802.10	3504.07
802.28	3133.39
802.45	3106.77
802.63	3074.00
802.80	3598.28
802.97	3186.64
803.15	3028.95
803.32	3020.75
803.50	3114.96
803.67	3102.67
803.84	3012.56
804.02	3225.55
804.19	3250.13
804.37	2879.44
804.54	2930.64
804.71	3123.15
804.89	3327.95
805.06	3164.11
805.24	3035.09
805.41	2990.03
805.58	3123.15
805.76	3786.69
805.93	3033.04
806.10	3231.69
806.28	3373.00
806.45	3215.31
806.63	3241.93
806.80	3205.07
806.97	3313.61
807.15	3336.14
807.32	3209.17
807.49	3082.19
807.67	3028.95
807.84	3317.71
808.01	2934.74
808.19	3223.50
808.36	3684.30
808.54	3166.16
808.71	3024.85
808.88	3082.19
809.06	3459.02
809.23	3577.80
809.40	3141.58
809.58	3053.52
809.75	3250.13
809.92	3051.47
810.10	3309.52
810.27	3104.72
810.44	3319.76
810.62	3510.22
810.79	3090.38
810.96	3035.09
811.14	3149.78
811.31	3373.00
811.48	3190.74
811.66	3168.21
811.83	3592.14
812.00	3344.33
812.18	3149.78
812.35	3379.15
812.52	3225.55
812.69	3188.69
812.87	3037.14
813.04	3041.23
813.21	3258.32
813.39	3102.67
813.56	2953.17
813.73	3336.14
813.91	3002.32
814.08	3252.17
814.25	3026.90
814.42	2910.16
814.60	3196.88
814.77	3192.78
814.94	3024.85
815.12	3110.86
815.29	3579.85
815.46	3139.54
815.63	3104.72
815.81	3057.62
815.98	3252.17
816.15	3248.08
816.33	3174.35
816.50	3155.92
816.67	3291.09
816.84	3313.61
817.02	2930.64
817.19	3125.20
817.36	3389.39
817.53	3352.52
817.71	2967.51
817.88	3135.44
818.05	3241.93
818.22	3211.22
818.40	3327.95
818.57	2987.99
818.74	3325.90
818.91	3200.98
819.09	3211.22
819.26	3172.30
819.43	3141.58
819.60	3028.95
819.78	3276.75
819.95	3227.60
820.12	2996.18
820.29	3504.07
820.47	3346.38
820.64	2932.69
820.81	3026.90
820.98	3155.92
821.15	3102.67
821.33	3229.65
821.50	2971.60
821.67	3422.16
821.84	2994.13
822.02	3004.37
822.19	3446.73
822.36	3168.21
822.53	3039.19
822.70	2953.17
822.88	3239.89
823.05	3651.53
823.22	3143.63
823.39	3123.15
823.56	3225.55
823.74	3667.91
823.91	2947.03
824.08	3061.71
824.25	3061.71
824.42	3622.86
824.60	2971.60
824.77	3217.36
824.94	3227.60
825.11	3395.53
825.28	2926.55
825.45	3295.18
825.63	3280.85
825.80	3057.62
825.97	3196.88
826.14	3110.86
826.31	2934.74
826.48	3344.33
826.66	3004.37
826.83	3022.80
827.00	3231.69
827.17	3121.10
827.34	3184.59
827.51	3061.71
827.69	3180.50
827.86	3026.90
828.03	3100.62
828.20	3033.04
828.37	3157.97
828.54	3393.48
828.71	2996.18
828.89	3162.06
829.06	3194.83
829.23	3538.89
829.40	3067.86
829.57	2969.55
829.74	3342.28
829.91	3123.15
830.09	3045.33
830.26	3160.02
830.43	3622.86
830.60	3127.25
830.77	3192.78
830.94	3219.41
831.11	3450.83
831.28	3176.40
831.46	3164.11
831.63	3041.23
831.80	3436.49
831.97	3086.29
832.14	3123.15
832.31	3100.62
832.48	3321.81
832.65	3405.77
832.82	3129.30
832.99	3131.34
833.17	3102.67
833.34	3559.37
833.51	3035.09
833.68	2791.38
833.85	3452.88
834.02	3098.58
834.19	3059.67
834.36	3049.43
834.53	3315.66
834.70	3434.44
834.87	3110.86
835.04	2879.44
835.22	3098.58
835.39	3196.88
835.56	2899.92
835.73	2881.49
835.90	3481.55
836.07	3139.54
836.24	3018.71
836.41	2922.45
836.58	3069.91
836.75	3473.36
836.92	2883.54
837.09	2850.77
837.26	3475.40
837.43	3348.43
837.60	2983.89
837.77	2959.31
837.94	3471.31
838.12	3553.23
838.29	2836.44
838.46	2830.29
838.63	3053.52
838.80	3579.85
838.97	3012.56
839.14	2934.74
839.31	3330.00
839.48	3368.91
839.65	2979.79
839.82	2973.65
839.99	3235.79
840.16	3211.22
840.33	2850.77
840.50	2953.17
840.67	3092.43
840.84	2746.33
841.01	2885.59
841.18	2828.24
841.35	3205.07
841.52	3327.95
841.69	3270.61
841.86	2969.55
842.03	3291.09
842.20	3461.07
842.37	2854.87
842.54	3016.66
842.71	3225.55
842.88	2963.41
843.05	2940.88
843.22	2842.58
843.39	3452.88
843.56	3188.69
843.73	2881.49
843.90	3018.71
844.07	3248.08
844.24	3461.07
844.41	2994.13
844.58	2940.88
844.75	3291.09
844.92	3344.33
845.09	2897.88
845.26	2963.41
845.43	3416.01
845.60	3135.44
845.77	3104.72
845.94	3082.19
846.10	3434.44
846.27	2977.75
846.44	2815.96
846.61	2758.61
846.78	3323.85
846.95	3479.50
847.12	2838.48
847.29	2883.54
847.46	3108.82
847.63	3395.53
847.80	2850.77
847.97	2961.36
848.14	3651.53
848.31	3196.88
848.48	2811.86
848.65	2969.55
848.82	3133.39
848.98	3778.50
849.15	3047.38
849.32	3065.81
849.49	3459.02
849.66	3325.90
849.83	2869.20
850.00	2828.24
850.17	3471.31
850.34	3176.40
850.51	2858.96
850.68	3033.04
850.85	3780.55
851.01	3319.76
851.18	2840.53
851.35	2998.23
851.52	3334.09
851.69	3616.71
851.86	2844.63
852.03	2840.53
852.20	3332.05
852.37	3170.26
852.53	2764.76
852.70	2893.78
852.87	3293.13
853.04	3409.87
853.21	2959.31
853.38	3186.64
853.55	3553.23
853.72	3540.94
853.89	2830.29
854.05	2877.40
854.22	3291.09
854.39	3186.64
854.56	2867.16
854.73	3022.80
854.90	3119.06
855.07	3172.30
855.23	2789.33
855.40	2877.40
855.57	3155.92
855.74	2813.91
855.91	3119.06
856.08	2822.10
856.25	2981.84
856.41	3155.92
856.58	2942.93
856.75	2871.25
856.92	3049.43
857.09	3508.17
857.26	2680.79
857.42	2992.08
857.59	3465.16
857.76	3200.98
857.93	2920.40
858.10	2955.22
858.27	3067.86
858.43	3266.51
858.60	2889.68
858.77	2807.77
858.94	3137.49
859.11	3401.68
859.27	2992.08
859.44	2801.62
859.61	3674.06
859.78	3426.25
859.95	2885.59
860.12	2885.59
860.28	3794.89
860.45	3696.58
860.62	2920.40
860.79	3041.23
860.95	3225.55
861.12	3188.69
861.29	2856.92
861.46	2889.68
861.63	3295.18
861.79	3295.18
861.96	2781.14
862.13	2895.83
862.30	3542.99
862.47	3114.96
862.63	2803.67
862.80	2975.70
862.97	3450.83
863.14	3280.85
863.30	3008.47
863.47	2865.11
863.64	3565.51
863.81	3301.33
863.97	2813.91
864.14	2901.97
864.31	3248.08
864.48	3252.17
864.65	2947.03
864.81	2967.51
864.98	3442.64
865.15	3434.44
865.32	3026.90
865.48	3016.66
865.65	3639.24
865.82	3219.41
865.98	2942.93
866.15	2971.60
866.32	3299.28
866.49	3233.74
866.65	3041.23
866.82	2967.51
866.99	3293.13
867.16	3100.62
867.32	2936.79
867.49	2871.25
867.66	3170.26
867.83	3137.49
867.99	2854.87
868.16	2992.08
868.33	2994.13
868.49	3282.89
868.66	2967.51
868.83	3016.66
868.99	3278.80
869.16	3254.22
869.33	3110.86
869.50	2983.89
869.66	3338.19
869.83	3307.47
870.00	2777.05
870.16	3076.05
870.33	3215.31
870.50	3422.16
870.66	3094.48
870.83	2930.64
871.00	3237.84
871.17	3395.53
871.33	2987.99
871.50	2850.77
871.67	3235.79
871.83	3135.44
872.00	2990.03
872.17	2930.64
872.33	3585.99
872.50	3510.22
872.67	2844.63
872.83	2918.36
873.00	3364.81
873.17	3262.41
873.33	2983.89
873.50	2981.84
873.67	3121.10
873.83	3086.29
874.00	2912.21
874.16	3123.15
874.33	3233.74
874.50	2955.22
874.66	2901.97
874.83	3014.61
875.00	3475.40
875.16	3456.97
875.33	3008.47
875.50	2705.37
875.66	3106.77
875.83	3256.27
875.99	3047.38
876.16	3076.05
876.33	3086.29
876.49	3241.93
876.66	3012.56
876.83	3008.47
876.99	2949.08
877.16	3246.03
877.32	2940.88
877.49	2996.18
877.66	3364.81
877.82	3602.38
877.99	2983.89
878.15	3295.18
878.32	3350.48
878.49	3286.99
878.65	2967.51
878.82	3266.51
878.98	3200.98
879.15	3461.07
879.32	3143.63
879.48	3112.91
879.65	3264.46
879.81	3149.78
879.98	2940.88
880.15	2998.23
880.31	3446.73
880.48	3110.86
880.64	3018.71
880.81	3055.57
880.97	3614.66
881.14	3450.83
881.31	2940.88
881.47	3086.29
881.64	3317.71
881.80	3024.85
881.97	3078.10
882.13	2858.96
882.30	3069.91
882.47	3213.26
882.63	2877.40
882.80	2867.16
882.96	3241.93
883.13	3452.88
883.29	2981.84
883.46	2951.12
883.62	3778.50
883.79	3303.37
883.95	3053.52
884.12	2846.68
884.29	3340.24
884.45	3270.61
884.62	2910.16
884.78	2887.64
884.95	3549.13
885.11	2953.17
885.28	3033.04
885.44	3008.47
885.61	3407.82
885.77	3579.85
885.94	3024.85
886.10	3000.27
886.27	3276.75
886.43	3542.99
886.60	3153.87
886.76	2994.13
886.93	3026.90
887.09	3280.85
887.26	2746.33
887.42	3008.47
887.59	3485.64
887.75	3676.10
887.92	3119.06
888.08	3125.20
888.25	3551.18
888.41	3420.11
888.58	2944.98
888.74	2869.20
888.91	3219.41
>>>>>End Processed Spectral Data<<<<<
