SpectraSuite Data File
++++++++++++++++++++++++++++++++++++
Date: Fri May 06 08:13:44 CEST 2016
User: root
Dark Spectrum Present: No
Reference Spectrum Present: No
Number of Sampled Component Spectra: 1
Spectrometers: USB4C02835
Integration Time (usec): 100000 (USB4C02835)
Spectra Averaged: 1 (USB4C02835)
Boxcar Smoothing: 0 (USB4C02835)
Correct for Electrical Dark: No (USB4C02835)
Strobe/Lamp Enabled: No (USB4C02835)
Correct for Detector Non-linearity: No (USB4C02835)
Correct for Stray Light: No (USB4C02835)
Number of Pixels in Processed Spectrum: 3648
>>>>>Begin Processed Spectral Data<<<<<
177.47	2252.77
177.69	2252.77
177.91	2252.77
178.13	2269.15
178.36	2267.10
178.58	2990.03
178.80	3168.21
179.02	2961.36
179.24	3030.99
179.46	2729.94
179.68	2797.53
179.90	3182.54
180.13	3282.89
180.35	2701.27
180.57	2795.48
180.79	3395.53
181.01	3258.32
181.23	2854.87
181.45	2983.89
181.67	3364.81
181.90	3422.16
182.12	2914.26
182.34	2707.41
182.56	3360.72
182.78	3344.33
183.00	2824.15
183.22	2852.82
183.44	2879.44
183.66	3909.57
183.89	2987.99
184.11	2854.87
184.33	3403.72
184.55	3540.94
184.77	2852.82
184.99	2891.73
185.21	3221.45
185.43	3803.08
185.65	2889.68
185.87	2793.43
186.10	3784.65
186.32	3729.35
186.54	2985.94
186.76	2947.03
186.98	3569.61
187.20	3325.90
187.42	2893.78
187.64	2889.68
187.86	3278.80
188.08	3530.70
188.30	2805.72
188.52	2881.49
188.75	3479.50
188.97	3499.98
189.19	2779.09
189.41	2830.29
189.63	3358.67
189.85	3168.21
190.07	2785.24
190.29	2684.89
190.51	3313.61
190.73	3045.33
190.95	3065.81
191.17	2926.55
191.39	2981.84
191.61	3248.08
191.84	2836.44
192.06	2971.60
192.28	3016.66
192.50	3917.76
192.72	3047.38
192.94	2975.70
193.16	3528.65
193.38	3301.33
193.60	2768.85
193.82	3059.67
194.04	3508.17
194.26	3454.92
194.48	2889.68
194.70	2875.35
194.92	3139.54
195.14	3377.10
195.36	2846.68
195.58	2934.74
195.80	3219.41
196.02	3188.69
196.24	2768.85
196.46	2981.84
196.69	3209.17
196.91	3837.89
197.13	2981.84
197.35	2891.73
197.57	3672.01
197.79	3477.45
198.01	2873.30
198.23	2842.58
198.45	3346.38
198.67	3041.23
198.89	2770.90
199.11	2926.55
199.33	3102.67
199.55	2877.40
199.77	2793.43
199.99	2963.41
200.21	3239.89
200.43	3413.96
200.65	2738.13
200.87	2707.41
201.09	3332.05
201.31	3246.03
201.53	2971.60
201.75	2899.92
201.97	3377.10
202.19	3344.33
202.41	2922.45
202.63	2920.40
202.85	3405.77
203.07	3319.76
203.29	2955.22
203.51	2775.00
203.73	3110.86
203.95	3831.75
204.17	2850.77
204.39	3033.04
204.61	3266.51
204.83	3182.54
205.05	3008.47
205.27	2877.40
205.49	3895.24
205.71	3219.41
205.93	2770.90
206.15	2754.52
206.37	3266.51
206.59	3239.89
206.81	2713.56
207.03	2699.22
207.25	3106.77
207.47	3426.25
207.69	2897.88
207.91	3102.67
208.13	3610.57
208.34	3139.54
208.56	2795.48
208.78	2832.34
209.00	3211.22
209.22	3205.07
209.44	2885.59
209.66	2820.05
209.88	3381.20
210.10	3215.31
210.32	2846.68
210.54	2912.21
210.76	3250.13
210.98	3450.83
211.20	2770.90
211.42	3049.43
211.64	3487.69
211.86	3352.52
212.08	2920.40
212.30	2879.44
212.52	3231.69
212.74	3325.90
212.96	2969.55
213.17	2893.78
213.39	3387.34
213.61	3653.58
213.83	2820.05
214.05	2746.33
214.27	3497.93
214.49	2979.79
214.71	2854.87
214.93	2987.99
215.15	3246.03
215.37	3471.31
215.59	2717.65
215.81	2959.31
216.03	3559.37
216.24	3192.78
216.46	2879.44
216.68	2858.96
216.90	3440.59
217.12	3536.84
217.34	2815.96
217.56	2971.60
217.78	3600.33
218.00	3401.68
218.22	2936.79
218.44	3014.61
218.66	3293.13
218.87	3672.01
219.09	2924.50
219.31	2916.31
219.53	3264.46
219.75	3174.35
219.97	2987.99
220.19	2975.70
220.41	3278.80
220.63	3669.96
220.85	2854.87
221.06	2820.05
221.28	3573.71
221.50	3319.76
221.72	2854.87
221.94	2783.19
222.16	3360.72
222.38	3448.78
222.60	2901.97
222.82	2865.11
223.03	3413.96
223.25	3033.04
223.47	2820.05
223.69	3084.24
223.91	3524.55
224.13	3260.37
224.35	2764.76
224.57	3059.67
224.78	3489.74
225.00	3094.48
225.22	3004.37
225.44	2822.10
225.66	3497.93
225.88	3241.93
226.10	3014.61
226.32	2924.50
226.53	3536.84
226.75	3180.50
226.97	2942.93
227.19	2877.40
227.41	3147.73
227.63	3112.91
227.85	2627.54
228.06	2949.08
228.28	3364.81
228.50	3475.40
228.72	2715.61
228.94	2901.97
229.16	2904.02
229.37	3092.43
229.59	2736.09
229.81	3069.91
230.03	3164.11
230.25	3069.91
230.47	2648.02
230.69	2848.72
230.90	3524.55
231.12	3127.25
231.34	2981.84
231.56	2877.40
231.78	3084.24
232.00	3246.03
232.21	2918.36
232.43	2893.78
232.65	2947.03
232.87	3385.29
233.09	2738.13
233.30	2861.01
233.52	3559.37
233.74	3254.22
233.96	2873.30
234.18	3076.05
234.40	3235.79
234.61	3794.89
234.83	2775.00
235.05	2818.00
235.27	3833.80
235.49	3536.84
235.70	2744.28
235.92	2977.75
236.14	3327.95
236.36	3745.73
236.58	2756.57
236.79	3024.85
237.01	3319.76
237.23	3340.24
237.45	3018.71
237.67	2852.82
237.88	3403.72
238.10	3585.99
238.32	2811.86
238.54	2838.48
238.76	3286.99
238.97	3018.71
239.19	2781.14
239.41	2889.68
239.63	3547.08
239.85	3174.35
240.06	2867.16
240.28	2959.31
240.50	3532.75
240.72	3215.31
240.93	2772.95
241.15	2967.51
241.37	3311.57
241.59	3585.99
241.81	2863.06
242.02	2963.41
242.24	3266.51
242.46	3426.25
242.68	2662.36
242.89	2895.83
243.11	3450.83
243.33	3196.88
243.55	2883.54
243.76	2926.55
243.98	3133.39
244.20	3286.99
244.42	2834.39
244.64	2893.78
244.85	3008.47
245.07	3184.59
245.29	2848.72
245.51	2985.94
245.72	3366.86
245.94	3524.55
246.16	2830.29
246.38	2944.98
246.59	3198.93
246.81	3086.29
247.03	2781.14
247.24	2699.22
247.46	3174.35
247.68	3360.72
247.90	2820.05
248.11	2908.12
248.33	3456.97
248.55	3297.23
248.77	2873.30
248.98	2947.03
249.20	3620.81
249.42	3385.29
249.64	2875.35
249.85	2781.14
250.07	3174.35
250.29	3407.82
250.50	2942.93
250.72	2807.77
250.94	3327.95
251.16	3749.83
251.37	2889.68
251.59	2897.88
251.81	3364.81
252.02	3516.36
252.24	2777.05
252.46	3030.99
252.68	3078.10
252.89	3069.91
253.11	2709.46
253.33	3010.51
253.54	3608.52
253.76	3094.48
253.98	2811.86
254.20	2875.35
254.41	3012.56
254.63	3196.88
254.85	2734.04
255.06	2998.23
255.28	3307.47
255.50	3264.46
255.71	2865.11
255.93	2650.07
256.15	3227.60
256.36	3401.68
256.58	2676.70
256.80	2795.48
257.02	3286.99
257.23	3237.84
257.45	2912.21
257.67	3123.15
257.88	3196.88
258.10	3319.76
258.32	2858.96
258.53	2926.55
258.75	3637.19
258.97	3178.45
259.18	2709.46
259.40	2781.14
259.62	3594.19
259.83	3592.14
260.05	2858.96
260.27	3762.12
260.48	3409.87
260.70	3149.78
260.92	2801.62
261.13	2865.11
261.35	3422.16
261.57	3360.72
261.78	2721.75
262.00	2807.77
262.22	3368.91
262.43	3106.77
262.65	2922.45
262.86	2901.97
263.08	3805.13
263.30	3295.18
263.51	2674.65
263.73	2807.77
263.95	3616.71
264.16	3176.40
264.38	2852.82
264.60	2809.81
264.81	3270.61
265.03	3495.88
265.25	3319.76
265.46	2861.01
265.68	3542.99
265.89	3424.20
266.11	2731.99
266.33	2861.01
266.54	3542.99
266.76	3336.14
266.98	2947.03
267.19	3094.48
267.41	3559.37
267.62	3256.27
267.84	2607.06
268.06	2944.98
268.27	3272.65
268.49	3483.59
268.70	2947.03
268.92	2895.83
269.14	3121.10
269.35	3016.66
269.57	3035.09
269.79	2930.64
270.00	3157.97
270.22	3631.05
270.43	2820.05
270.65	2674.65
270.87	3348.43
271.08	3450.83
271.30	2936.79
271.51	2781.14
271.73	3368.91
271.95	3592.14
272.16	2787.29
272.38	3053.52
272.59	3117.01
272.81	3360.72
273.02	2764.76
273.24	3008.47
273.46	3510.22
273.67	3041.23
273.89	2727.89
274.10	2822.10
274.32	3540.94
274.54	3346.38
274.75	2848.72
274.97	2977.75
275.18	3483.59
275.40	3393.48
275.61	2879.44
275.83	2963.41
276.05	3155.92
276.26	3303.37
276.48	3022.80
276.69	3033.04
276.91	3196.88
277.12	3598.28
277.34	3006.42
277.55	3108.82
277.77	3268.56
277.99	3207.12
278.20	3020.75
278.42	2838.48
278.63	3174.35
278.85	3069.91
279.06	2895.83
279.28	3088.34
279.49	3542.99
279.71	3360.72
279.93	3010.51
280.14	3045.33
280.36	3180.50
280.57	3483.59
280.79	3127.25
281.00	2875.35
281.22	3188.69
281.43	3577.80
281.65	2805.72
281.86	2871.25
282.08	3385.29
282.29	3712.97
282.51	2846.68
282.73	2863.06
282.94	2979.79
283.16	3430.35
283.37	3045.33
283.59	2930.64
283.80	3278.80
284.02	3225.55
284.23	2965.46
284.45	3018.71
284.66	3106.77
284.88	3119.06
285.09	2928.60
285.31	3033.04
285.52	3389.39
285.74	2914.26
285.95	3182.54
286.17	3057.62
286.38	3577.80
286.60	3125.20
286.81	2930.64
287.03	3010.51
287.24	3373.00
287.46	3469.26
287.67	3098.58
287.89	3141.58
288.10	3280.85
288.32	3397.58
288.53	3114.96
288.75	2996.18
288.96	3434.44
289.18	3147.73
289.39	2885.59
289.61	3106.77
289.82	3782.60
290.04	3733.45
290.25	2895.83
290.47	3065.81
290.68	3278.80
290.90	3428.30
291.11	2795.48
291.33	3123.15
291.54	3219.41
291.76	3080.14
291.97	3098.58
292.18	3106.77
292.40	3074.00
292.61	3207.12
292.83	3307.47
293.04	2947.03
293.26	3274.70
293.47	3262.41
293.69	2912.21
293.90	2936.79
294.12	3534.79
294.33	3254.22
294.55	3086.29
294.76	3270.61
294.97	3491.79
295.19	3715.02
295.40	2944.98
295.62	3090.38
295.83	3401.68
296.05	3149.78
296.26	3219.41
296.48	3016.66
296.69	3291.09
296.90	3291.09
297.12	3108.82
297.33	3112.91
297.55	3325.90
297.76	3338.19
297.98	3157.97
298.19	3205.07
298.41	3260.37
298.62	3135.44
298.83	3286.99
299.05	3133.39
299.26	3203.02
299.48	3123.15
299.69	3045.33
299.90	2969.55
300.12	3119.06
300.33	3465.16
300.55	3051.47
300.76	3039.19
300.98	3147.73
301.19	3420.11
301.40	2983.89
301.62	2949.08
301.83	3420.11
302.05	3356.62
302.26	2983.89
302.47	3153.87
302.69	3106.77
302.90	3362.76
303.12	2770.90
303.33	3049.43
303.54	3608.52
303.76	3117.01
303.97	2979.79
304.19	3219.41
304.40	3106.77
304.61	3297.23
304.83	3121.10
305.04	3076.05
305.26	3540.94
305.47	3125.20
305.68	3041.23
305.90	2906.07
306.11	3569.61
306.33	3229.65
306.54	2908.12
306.75	2994.13
306.97	2998.23
307.18	3114.96
307.39	2951.12
307.61	3096.53
307.82	3221.45
308.04	3346.38
308.25	2820.05
308.46	3160.02
308.68	3334.09
308.89	3352.52
309.10	3133.39
309.32	3057.62
309.53	3229.65
309.74	3393.48
309.96	2901.97
310.17	3209.17
310.39	3243.98
310.60	3385.29
310.81	2961.36
311.03	2938.84
311.24	3352.52
311.45	3280.85
311.67	3243.98
311.88	3078.10
312.09	3260.37
312.31	3182.54
312.52	2912.21
312.73	2936.79
312.95	3020.75
313.16	3053.52
313.37	3168.21
313.59	3166.16
313.80	3424.20
314.01	3665.86
314.23	3039.19
314.44	2955.22
314.65	3049.43
314.87	3123.15
315.08	2983.89
315.29	3004.37
315.51	3078.10
315.72	2953.17
315.93	3051.47
316.15	3098.58
316.36	3284.94
316.57	3307.47
316.79	3041.23
317.00	2944.98
317.21	3348.43
317.43	3123.15
317.64	3059.67
317.85	2858.96
318.07	3141.58
318.28	3125.20
318.49	3080.14
318.70	3272.65
318.92	3399.63
319.13	3370.96
319.34	3160.02
319.56	3067.86
319.77	3350.48
319.98	3422.16
320.20	3262.41
320.41	3176.40
320.62	3418.06
320.83	3123.15
321.05	3237.84
321.26	3049.43
321.47	3319.76
321.69	3567.56
321.90	2873.30
322.11	2891.73
322.32	3307.47
322.54	3608.52
322.75	3024.85
322.96	4007.87
323.18	3010.51
323.39	2922.45
323.60	2926.55
323.81	3090.38
324.03	3149.78
324.24	3256.27
324.45	3123.15
324.66	2963.41
324.88	3575.75
325.09	3643.34
325.30	2944.98
325.52	2887.64
325.73	3373.00
325.94	3194.83
326.15	2861.01
326.37	2848.72
326.58	3497.93
326.79	3633.10
327.00	2924.50
327.22	2985.94
327.43	3160.02
327.64	3039.19
327.85	3166.16
328.07	3045.33
328.28	3762.12
328.49	3196.88
328.70	3096.53
328.92	2967.51
329.13	3262.41
329.34	3368.91
329.55	3233.74
329.76	3141.58
329.98	3219.41
330.19	3569.61
330.40	3133.39
330.61	3164.11
330.83	3426.25
331.04	3108.82
331.25	3117.01
331.46	3012.56
331.68	3026.90
331.89	3510.22
332.10	3114.96
332.31	2803.67
332.52	3342.28
332.74	3510.22
332.95	2768.85
333.16	2990.03
333.37	3530.70
333.58	3100.62
333.80	3053.52
334.01	2775.00
334.22	3241.93
334.43	3106.77
334.64	2891.73
334.86	2854.87
335.07	3157.97
335.28	3631.05
335.49	2867.16
335.70	3098.58
335.92	3545.03
336.13	3733.45
336.34	3067.86
336.55	2969.55
336.76	3295.18
336.98	2893.78
337.19	2971.60
337.40	3106.77
337.61	3858.37
337.82	3198.93
338.04	3125.20
338.25	2865.11
338.46	3223.50
338.67	3164.11
338.88	2863.06
339.09	2867.16
339.31	3203.02
339.52	2959.31
339.73	2963.41
339.94	3037.14
340.15	3377.10
340.36	3180.50
340.58	3004.37
340.79	2895.83
341.00	3401.68
341.21	3127.25
341.42	3190.74
341.63	3055.57
341.85	3442.64
342.06	3311.57
342.27	2904.02
342.48	3127.25
342.69	3026.90
342.90	3401.68
343.12	3315.66
343.33	2893.78
343.54	3483.59
343.75	3577.80
343.96	3151.82
344.17	2914.26
344.38	3235.79
344.60	3106.77
344.81	2938.84
345.02	3035.09
345.23	3528.65
345.44	3866.56
345.65	2965.46
345.86	3121.10
346.07	3286.99
346.29	3164.11
346.50	3200.98
346.71	3090.38
346.92	3491.79
347.13	3704.78
347.34	3098.58
347.55	2818.00
347.76	3387.34
347.98	3000.27
348.19	3014.61
348.40	3243.98
348.61	3196.88
348.82	3626.95
349.03	3121.10
349.24	2899.92
349.45	3725.26
349.66	2912.21
349.88	2983.89
350.09	2947.03
350.30	3598.28
350.51	3504.07
350.72	3182.54
350.93	2967.51
351.14	3205.07
351.35	3366.86
351.56	3028.95
351.77	3026.90
351.99	3346.38
352.20	3553.23
352.41	3164.11
352.62	2836.44
352.83	3231.69
353.04	3309.52
353.25	2994.13
353.46	2983.89
353.67	3545.03
353.88	2838.48
354.09	2910.16
354.30	3033.04
354.52	3366.86
354.73	3293.13
354.94	2996.18
355.15	3065.81
355.36	3696.58
355.57	3223.50
355.78	2944.98
355.99	3074.00
356.20	3221.45
356.41	3557.32
356.62	3051.47
356.83	3024.85
357.04	3499.98
357.25	3008.47
357.46	2973.65
357.68	2820.05
357.89	3082.19
358.10	3278.80
358.31	2924.50
358.52	3090.38
358.73	3157.97
358.94	3039.19
359.15	3033.04
359.36	3065.81
359.57	3254.22
359.78	3252.17
359.99	3207.12
360.20	2883.54
360.41	3303.37
360.62	3418.06
360.83	3155.92
361.04	3000.27
361.25	3299.28
361.46	3639.24
361.67	3063.76
361.88	2998.23
362.09	3438.54
362.30	3332.05
362.51	2924.50
362.72	3110.86
362.93	3516.36
363.14	3336.14
363.35	3049.43
363.56	2934.74
363.78	3559.37
363.99	3518.41
364.20	3069.91
364.41	3076.05
364.62	3661.77
364.83	3303.37
365.04	2983.89
365.25	2942.93
365.46	3723.21
365.67	3151.82
365.88	3205.07
366.09	3008.47
366.30	3229.65
366.51	3319.76
366.72	2961.36
366.93	2957.27
367.14	3274.70
367.35	3542.99
367.56	2994.13
367.77	3157.97
367.98	3321.81
368.18	3407.82
368.39	3100.62
368.60	2987.99
368.81	3413.96
369.02	3397.58
369.23	3028.95
369.44	2854.87
369.65	3190.74
369.86	3332.05
370.07	3125.20
370.28	2861.01
370.49	3338.19
370.70	3315.66
370.91	2963.41
371.12	2910.16
371.33	3577.80
371.54	3129.30
371.75	3160.02
371.96	2717.65
372.17	3360.72
372.38	3174.35
372.59	3010.51
372.80	2955.22
373.01	3221.45
373.22	3278.80
373.43	3006.42
373.64	2932.69
373.85	3547.08
374.06	3653.58
374.26	3182.54
374.47	3139.54
374.68	3561.42
374.89	3264.46
375.10	2904.02
375.31	3059.67
375.52	3348.43
375.73	3403.72
375.94	2834.39
376.15	3082.19
376.36	3174.35
376.57	3231.69
376.78	2969.55
376.99	3041.23
377.20	3512.27
377.40	3233.74
377.61	3278.80
377.82	3000.27
378.03	3567.56
378.24	3524.55
378.45	3057.62
378.66	3119.06
378.87	2994.13
379.08	2969.55
379.29	3000.27
379.50	3188.69
379.71	3289.04
379.91	3461.07
380.12	3010.51
380.33	3145.68
380.54	3254.22
380.75	3239.89
380.96	2922.45
381.17	3043.28
381.38	3243.98
381.59	3295.18
381.80	3074.00
382.00	3123.15
382.21	3311.57
382.42	3542.99
382.63	3344.33
382.84	3123.15
383.05	3479.50
383.26	3590.09
383.47	3223.50
383.68	2967.51
383.88	3475.40
384.09	3370.96
384.30	3090.38
384.51	3006.42
384.72	3252.17
384.93	3069.91
385.14	3051.47
385.35	3250.13
385.55	2983.89
385.76	3452.88
385.97	3012.56
386.18	2916.31
386.39	3098.58
386.60	3188.69
386.81	2957.27
387.02	2897.88
387.22	3012.56
387.43	3418.06
387.64	3067.86
387.85	3241.93
388.06	3346.38
388.27	4351.93
388.48	7841.67
388.68	12035.91
388.89	15253.27
389.10	16453.38
389.31	16326.41
389.52	12961.59
389.73	11194.20
389.93	10403.68
390.14	9185.14
390.35	8724.35
390.56	7923.59
390.77	6510.49
390.98	4990.90
391.18	4198.34
391.39	3831.75
391.60	3315.66
391.81	3332.05
392.02	3057.62
392.23	3770.31
392.43	3352.52
392.64	3192.78
392.85	3162.06
393.06	3635.14
393.27	3174.35
393.47	3014.61
393.68	3059.67
393.89	3215.31
394.10	3528.65
394.31	2963.41
394.52	2953.17
394.72	3106.77
394.93	3592.14
395.14	2957.27
395.35	3106.77
395.56	3166.16
395.76	3252.17
395.97	3014.61
396.18	3121.10
396.39	3209.17
396.60	3971.01
396.80	3389.39
397.01	3299.28
397.22	3487.69
397.43	3368.91
397.64	3030.99
397.84	3123.15
398.05	3731.40
398.26	3256.27
398.47	3172.30
398.67	3235.79
398.88	3246.03
399.09	3379.15
399.30	2990.03
399.51	3059.67
399.71	3221.45
399.92	3256.27
400.13	3172.30
400.34	3008.47
400.54	3319.76
400.75	3629.00
400.96	3164.11
401.17	3313.61
401.37	3489.74
401.58	3274.70
401.79	2938.84
402.00	3196.88
402.21	3778.50
402.41	3344.33
402.62	3352.52
402.83	3516.36
403.04	3772.36
403.24	4138.94
403.45	3123.15
403.66	3403.72
403.87	3565.51
404.07	3663.82
404.28	3319.76
404.49	3295.18
404.70	3426.25
404.90	3381.20
405.11	3014.61
405.32	3166.16
405.52	3209.17
405.73	3157.97
405.94	2891.73
406.15	3112.91
406.35	3350.48
406.56	3352.52
406.77	3041.23
406.98	2992.08
407.18	3157.97
407.39	3614.66
407.60	3108.82
407.80	3139.54
408.01	3237.84
408.22	3389.39
408.43	2901.97
408.63	3186.64
408.84	3422.16
409.05	3401.68
409.25	2944.98
409.46	2971.60
409.67	3151.82
409.88	3168.21
410.08	3104.72
410.29	3090.38
410.50	3540.94
410.70	3383.24
410.91	2979.79
411.12	3078.10
411.32	3299.28
411.53	3168.21
411.74	3008.47
411.95	3106.77
412.15	3336.14
412.36	3483.59
412.57	3172.30
412.77	3213.26
412.98	3295.18
413.19	3168.21
413.39	3100.62
413.60	3067.86
413.81	3542.99
414.01	3020.75
414.22	3010.51
414.43	3239.89
414.63	3213.26
414.84	3397.58
415.05	3114.96
415.25	2934.74
415.46	3370.96
415.67	3125.20
415.87	3041.23
416.08	3076.05
416.29	3205.07
416.49	3491.79
416.70	3110.86
416.91	3090.38
417.11	3219.41
417.32	3450.83
417.53	3123.15
417.73	3145.68
417.94	3336.14
418.15	3307.47
418.35	3104.72
418.56	3129.30
418.77	3798.98
418.97	3377.10
419.18	3074.00
419.38	2758.61
419.59	3291.09
419.80	3594.19
420.00	2926.55
420.21	3143.63
420.42	3565.51
420.62	3334.09
420.83	2996.18
421.04	3039.19
421.24	3229.65
421.45	3416.01
421.65	3076.05
421.86	3092.43
422.07	3401.68
422.27	3407.82
422.48	2932.69
422.69	2951.12
422.89	3344.33
423.10	3282.89
423.30	3010.51
423.51	3065.81
423.72	3413.96
423.92	3438.54
424.13	2910.16
424.33	3196.88
424.54	3432.40
424.75	3321.81
424.95	3246.03
425.16	2996.18
425.36	3221.45
425.57	3600.33
425.78	3170.26
425.98	3205.07
426.19	3184.59
426.39	3125.20
426.60	3178.45
426.81	3166.16
427.01	3305.42
427.22	3155.92
427.42	2850.77
427.63	2963.41
427.83	3577.80
428.04	3583.95
428.25	3078.10
428.45	3127.25
428.66	3520.46
428.86	3164.11
429.07	3084.24
429.28	3051.47
429.48	3260.37
429.69	3129.30
429.89	3168.21
430.10	3004.37
430.30	3471.31
430.51	3522.51
430.71	3016.66
430.92	3129.30
431.13	3213.26
431.33	3336.14
431.54	3248.08
431.74	3360.72
431.95	3682.25
432.15	3186.64
432.36	3059.67
432.56	3151.82
432.77	3665.86
432.98	3665.86
433.18	3125.20
433.39	2947.03
433.59	3346.38
433.80	3747.78
434.00	3188.69
434.21	3074.00
434.41	3141.58
434.62	3852.23
434.82	2897.88
435.03	3012.56
435.23	3366.86
435.44	2979.79
435.64	2875.35
435.85	3151.82
436.06	3434.44
436.26	3512.27
436.47	3106.77
436.67	3028.95
436.88	3221.45
437.08	3532.75
437.29	3188.69
437.49	3151.82
437.70	3491.79
437.90	3299.28
438.11	3272.65
438.31	3139.54
438.52	3573.71
438.72	3557.32
438.93	3311.57
439.13	3155.92
439.34	3456.97
439.54	3291.09
439.75	3256.27
439.95	3047.38
440.16	3172.30
440.36	3262.41
440.57	3084.24
440.77	3045.33
440.98	3178.45
441.18	3403.72
441.39	2924.50
441.59	2975.70
441.80	3710.92
442.00	3184.59
442.21	3170.26
442.41	2869.20
442.62	3516.36
442.82	3160.02
443.02	3043.28
443.23	3045.33
443.43	3215.31
443.64	3432.40
443.84	2944.98
444.05	3123.15
444.25	3309.52
444.46	3135.44
444.66	3059.67
444.87	3284.94
445.07	2920.40
445.28	3194.83
445.48	3241.93
445.69	3149.78
445.89	3807.17
446.09	3299.28
446.30	3393.48
446.50	3432.40
446.71	5023.67
446.91	6330.27
447.12	7169.94
447.32	7583.63
447.53	7751.56
447.73	6334.37
447.93	5541.80
448.14	5326.77
448.34	5568.43
448.55	4515.77
448.75	4464.57
448.96	4280.25
449.16	4163.52
449.36	3979.20
449.57	3332.05
449.77	3114.96
449.98	3248.08
450.18	3424.20
450.39	3008.47
450.59	3303.37
450.79	3311.57
451.00	3168.21
451.20	3241.93
451.41	3074.00
451.61	3282.89
451.81	3223.50
452.02	2983.89
452.22	3092.43
452.43	3223.50
452.63	3194.83
452.84	3147.73
453.04	3026.90
453.24	3368.91
453.45	3108.82
453.65	3157.97
453.86	3119.06
454.06	3387.34
454.26	3262.41
454.47	2992.08
454.67	3237.84
454.87	3362.76
455.08	3239.89
455.28	3168.21
455.49	3145.68
455.69	3155.92
455.89	3696.58
456.10	3162.06
456.30	2987.99
456.51	3485.64
456.71	3250.13
456.91	3209.17
457.12	3057.62
457.32	3454.92
457.52	3086.29
457.73	3241.93
457.93	3198.93
458.14	3106.77
458.34	2959.31
458.54	3100.62
458.75	2992.08
458.95	3520.46
459.15	3330.00
459.36	3088.34
459.56	2983.89
459.76	3749.83
459.97	3260.37
460.17	3076.05
460.37	3149.78
460.58	3272.65
460.78	3346.38
460.99	3125.20
461.19	3026.90
461.39	3188.69
461.60	3194.83
461.80	3160.02
462.00	2979.79
462.21	3278.80
462.41	3151.82
462.61	2908.12
462.82	2934.74
463.02	3327.95
463.22	3270.61
463.43	3057.62
463.63	2930.64
463.83	3581.90
464.04	3368.91
464.24	3033.04
464.44	2924.50
464.64	3291.09
464.85	3358.67
465.05	3069.91
465.25	3026.90
465.46	3157.97
465.66	3370.96
465.86	3082.19
466.07	3065.81
466.27	3170.26
466.47	3043.28
466.68	2858.96
466.88	3196.88
467.08	3475.40
467.29	3456.97
467.49	3018.71
467.69	3194.83
467.89	3360.72
468.10	3284.94
468.30	3147.73
468.50	3184.59
468.71	3532.75
468.91	2906.07
469.11	3223.50
469.31	3231.69
469.52	3061.71
469.72	3614.66
469.92	3362.76
470.13	3086.29
470.33	3291.09
470.53	3377.10
470.73	3479.50
470.94	3930.05
471.14	4106.18
471.34	4917.17
471.54	4450.24
471.75	4087.75
471.95	3852.23
472.15	3680.20
472.36	3837.89
472.56	3561.42
472.76	3878.85
472.96	3831.75
473.17	3362.76
473.37	3213.26
473.57	3190.74
473.77	3418.06
473.98	3114.96
474.18	2951.12
474.38	4009.92
474.58	3246.03
474.79	2992.08
474.99	3172.30
475.19	3467.21
475.39	3067.86
475.60	3184.59
475.80	3016.66
476.00	3286.99
476.20	3303.37
476.41	3184.59
476.61	3157.97
476.81	3540.94
477.01	3104.72
477.21	3321.81
477.42	3229.65
477.62	3129.30
477.82	3389.39
478.02	2965.46
478.23	3147.73
478.43	3076.05
478.63	3231.69
478.83	3100.62
479.03	3092.43
479.24	3594.19
479.44	3729.35
479.64	3008.47
479.84	2836.44
480.04	3127.25
480.25	3471.31
480.45	2992.08
480.65	2965.46
480.85	3579.85
481.06	3119.06
481.26	3196.88
481.46	3055.57
481.66	3377.10
481.86	3229.65
482.06	3223.50
482.27	3039.19
482.47	3241.93
482.67	3373.00
482.87	3047.38
483.07	3139.54
483.28	3223.50
483.48	3092.43
483.68	3033.04
483.88	2885.59
484.08	2920.40
484.29	3092.43
484.49	3160.02
484.69	2928.60
484.89	3561.42
485.09	3411.92
485.29	3059.67
485.50	3133.39
485.70	3149.78
485.90	3506.12
486.10	3121.10
486.30	2969.55
486.50	3508.17
486.71	3450.83
486.91	3139.54
487.11	3100.62
487.31	2961.36
487.51	3381.20
487.71	2994.13
487.91	2951.12
488.12	3098.58
488.32	2901.97
488.52	3086.29
488.72	2785.24
488.92	3340.24
489.12	3512.27
489.32	3184.59
489.53	3094.48
489.73	2940.88
489.93	3614.66
490.13	3041.23
490.33	2858.96
490.53	3375.05
490.73	3461.07
490.94	2916.31
491.14	3246.03
491.34	3303.37
491.54	3405.77
491.74	4005.83
491.94	4575.16
492.14	5115.83
492.34	5011.38
492.54	4775.86
492.75	4106.18
492.95	4423.61
493.15	4114.37
493.35	3833.80
493.55	3712.97
493.75	3807.17
493.95	3911.62
494.15	3311.57
494.35	3225.55
494.56	3284.94
494.76	3221.45
494.96	3203.02
495.16	3028.95
495.36	3276.75
495.56	3340.24
495.76	3168.21
495.96	3024.85
496.16	3114.96
496.36	3688.39
496.56	3078.10
496.77	3184.59
496.97	3282.89
497.17	3581.90
497.37	2897.88
497.57	3117.01
497.77	3346.38
497.97	3090.38
498.17	3119.06
498.37	3059.67
498.57	3411.92
498.77	3246.03
498.97	3215.31
499.17	3346.38
499.38	3203.02
499.58	3366.86
499.78	3188.69
499.98	3209.17
500.18	3321.81
500.38	3053.52
500.58	3305.42
500.78	3663.82
500.98	6227.87
501.18	8281.99
501.38	9879.40
501.58	10899.29
501.78	10936.15
501.98	9195.38
502.18	7643.02
502.38	6512.54
502.58	6383.52
502.78	5625.77
502.98	5443.50
503.18	5179.31
503.38	4884.41
503.59	4263.87
503.79	4024.26
503.99	3805.13
504.19	4003.78
504.39	3901.38
504.59	3672.01
504.79	3573.71
504.99	3975.11
505.19	3583.95
505.39	3366.86
505.59	3606.47
505.79	3778.50
505.99	3545.03
506.19	3078.10
506.39	3346.38
506.59	3254.22
506.79	3284.94
506.99	3274.70
507.19	2975.70
507.39	3315.66
507.59	3045.33
507.79	3053.52
507.99	3057.62
508.19	3317.71
508.39	3200.98
508.59	3096.53
508.79	3160.02
508.99	3596.23
509.19	3141.58
509.39	3127.25
509.59	2992.08
509.79	3035.09
509.99	3344.33
510.19	3198.93
510.39	3215.31
510.59	3346.38
510.79	3143.63
510.99	2936.79
511.19	2998.23
511.39	3635.14
511.59	3565.51
511.79	3272.65
511.99	3028.95
512.19	3649.48
512.38	3286.99
512.58	3026.90
512.78	2975.70
512.98	3532.75
513.18	3590.09
513.38	3030.99
513.58	3119.06
513.78	3147.73
513.98	3241.93
514.18	3065.81
514.38	3059.67
514.58	3321.81
514.78	3174.35
514.98	2969.55
515.18	3088.34
515.38	3084.24
515.58	3573.71
515.78	3074.00
515.98	3043.28
516.18	3407.82
516.38	3262.41
516.57	2963.41
516.77	2992.08
516.97	3459.02
517.17	3117.01
517.37	2901.97
517.57	3133.39
517.77	3346.38
517.97	2994.13
518.17	3149.78
518.37	2992.08
518.57	3190.74
518.77	3217.36
518.97	3182.54
519.16	3098.58
519.36	3452.88
519.56	3155.92
519.76	3030.99
519.96	3076.05
520.16	3471.31
520.36	3055.57
520.56	3196.88
520.76	3014.61
520.96	3246.03
521.16	3536.84
521.35	3250.13
521.55	3168.21
521.75	3301.33
521.95	3278.80
522.15	2996.18
522.35	2887.64
522.55	3180.50
522.75	3430.35
522.95	2987.99
523.14	2893.78
523.34	3284.94
523.54	3239.89
523.74	3219.41
523.94	3061.71
524.14	2998.23
524.34	3391.44
524.54	3295.18
524.73	3041.23
524.93	3397.58
525.13	3223.50
525.33	2987.99
525.53	3264.46
525.73	3356.62
525.93	3338.19
526.13	3055.57
526.32	2932.69
526.52	3534.79
526.72	3493.83
526.92	3141.58
527.12	3026.90
527.32	2983.89
527.52	3370.96
527.71	3104.72
527.91	3123.15
528.11	3182.54
528.31	3213.26
528.51	3063.76
528.71	3119.06
528.90	3440.59
529.10	3518.41
529.30	3071.95
529.50	2801.62
529.70	3325.90
529.90	3188.69
530.09	3067.86
530.29	2840.53
530.49	3100.62
530.69	3872.71
530.89	3246.03
531.09	3133.39
531.28	3141.58
531.48	3493.83
531.68	3078.10
531.88	3127.25
532.08	3483.59
532.28	3178.45
532.47	3198.93
532.67	3088.34
532.87	3325.90
533.07	3139.54
533.27	3057.62
533.46	3104.72
533.66	3301.33
533.86	3309.52
534.06	3137.49
534.26	3057.62
534.45	3231.69
534.65	3475.40
534.85	3205.07
535.05	3057.62
535.25	3461.07
535.44	2992.08
535.64	3188.69
535.84	3076.05
536.04	3207.12
536.24	3168.21
536.43	3039.19
536.63	3074.00
536.83	3297.23
537.03	3350.48
537.22	2897.88
537.42	2932.69
537.62	3397.58
537.82	3139.54
538.02	3321.81
538.21	3078.10
538.41	3913.67
538.61	3440.59
538.81	3180.50
539.00	3172.30
539.20	3006.42
539.40	3233.74
539.60	3028.95
539.79	3321.81
539.99	3254.22
540.19	3108.82
540.39	3012.56
540.58	3065.81
540.78	3432.40
540.98	3360.72
541.18	3299.28
541.37	3088.34
541.57	3291.09
541.77	3321.81
541.97	3018.71
542.16	2775.00
542.36	3190.74
542.56	3135.44
542.76	3223.50
542.95	3178.45
543.15	3352.52
543.35	3426.25
543.54	3026.90
543.74	3010.51
543.94	3493.83
544.14	3182.54
544.33	3174.35
544.53	3090.38
544.73	3145.68
544.93	3227.60
545.12	3057.62
545.32	3037.14
545.52	3239.89
545.71	3051.47
545.91	3020.75
546.11	3041.23
546.30	3114.96
546.50	3364.81
546.70	3090.38
546.90	3074.00
547.09	2873.30
547.29	3311.57
547.49	3176.40
547.68	3018.71
547.88	3149.78
548.08	3426.25
548.27	3373.00
548.47	3049.43
548.67	3151.82
548.87	3379.15
549.06	3071.95
549.26	3084.24
549.46	3250.13
549.65	3149.78
549.85	3112.91
550.05	3166.16
550.24	3047.38
550.44	3237.84
550.64	3141.58
550.83	3110.86
551.03	3444.68
551.23	3553.23
551.42	3149.78
551.62	3123.15
551.82	3325.90
552.01	3223.50
552.21	3411.92
552.41	3123.15
552.60	3571.66
552.80	3223.50
553.00	3041.23
553.19	3065.81
553.39	3641.29
553.59	3012.56
553.78	3172.30
553.98	3074.00
554.17	2992.08
554.37	3297.23
554.57	3149.78
554.76	2959.31
554.96	3188.69
555.16	3317.71
555.35	3106.77
555.55	3133.39
555.75	3330.00
555.94	3413.96
556.14	2832.34
556.33	3149.78
556.53	3252.17
556.73	3305.42
556.92	3071.95
557.12	2994.13
557.32	3760.07
557.51	3565.51
557.71	3151.82
557.90	3196.88
558.10	3569.61
558.30	3174.35
558.49	3067.86
558.69	3123.15
558.88	3430.35
559.08	3289.04
559.28	3180.50
559.47	3160.02
559.67	3401.68
559.86	3672.01
560.06	3102.67
560.26	3084.24
560.45	3426.25
560.65	3286.99
560.84	3403.72
561.04	3061.71
561.24	3405.77
561.43	3028.95
561.63	3295.18
561.82	3164.11
562.02	3481.55
562.22	3196.88
562.41	2967.51
562.61	3082.19
562.80	3080.14
563.00	3792.84
563.19	3256.27
563.39	3180.50
563.59	3387.34
563.78	3033.04
563.98	2766.81
564.17	2947.03
564.37	3000.27
564.56	3223.50
564.76	2947.03
564.96	3213.26
565.15	3221.45
565.35	3776.45
565.54	3053.52
565.74	3053.52
565.93	3327.95
566.13	3108.82
566.32	3127.25
566.52	3166.16
566.71	3274.70
566.91	3502.03
567.11	3143.63
567.30	3080.14
567.50	3362.76
567.69	3305.42
567.89	3016.66
568.08	3004.37
568.28	3401.68
568.47	3069.91
568.67	2975.70
568.86	3061.71
569.06	3493.83
569.25	3176.40
569.45	3030.99
569.64	3084.24
569.84	3145.68
570.04	3311.57
570.23	3043.28
570.43	3127.25
570.62	3254.22
570.82	3614.66
571.01	2965.46
571.21	3018.71
571.40	3086.29
571.60	3463.12
571.79	3186.64
571.99	3051.47
572.18	3102.67
572.38	3272.65
572.57	3119.06
572.77	3061.71
572.96	3774.41
573.16	3311.57
573.35	3053.52
573.55	3291.09
573.74	3416.01
573.94	3203.02
574.13	3086.29
574.33	3344.33
574.52	3559.37
574.71	3291.09
574.91	3180.50
575.10	2992.08
575.30	3172.30
575.49	3096.53
575.69	3037.14
575.88	3076.05
576.08	3276.75
576.27	3409.87
576.47	3110.86
576.66	3217.36
576.86	3639.24
577.05	3284.94
577.25	3155.92
577.44	3295.18
577.64	3137.49
577.83	3323.85
578.02	3084.24
578.22	3243.98
578.41	3645.38
578.61	3219.41
578.80	2936.79
579.00	3108.82
579.19	3278.80
579.39	3459.02
579.58	3123.15
579.77	3133.39
579.97	3583.95
580.16	3475.40
580.36	3229.65
580.55	3117.01
580.75	3397.58
580.94	3325.90
581.13	3178.45
581.33	3311.57
581.52	3235.79
581.72	3616.71
581.91	3188.69
582.11	3049.43
582.30	3450.83
582.49	3387.34
582.69	3381.20
582.88	3067.86
583.08	3317.71
583.27	3340.24
583.47	3270.61
583.66	3063.76
583.85	3086.29
584.05	3155.92
584.24	3254.22
584.44	3102.67
584.63	3512.27
584.82	3450.83
585.02	3315.66
585.21	3221.45
585.41	3393.48
585.60	3317.71
585.79	3360.72
585.99	3424.20
586.18	3370.96
586.37	4204.48
586.57	6395.81
586.76	17753.84
586.96	37385.67
587.15	50814.20
587.34	59137.15
587.54	62637.12
587.73	55741.61
587.93	40351.13
588.12	31102.50
588.31	25308.80
588.51	22585.00
588.70	20985.54
588.89	18355.94
589.09	15572.75
589.28	13588.27
589.47	10702.68
589.67	8120.20
589.86	6451.10
590.06	5105.59
590.25	4460.48
590.44	3893.19
590.64	3485.64
590.83	3563.47
591.02	3442.64
591.22	3168.21
591.41	3108.82
591.60	3311.57
591.80	3837.89
591.99	2955.22
592.18	3051.47
592.38	3403.72
592.57	3155.92
592.76	3141.58
592.96	3198.93
593.15	3233.74
593.34	3563.47
593.54	3074.00
593.73	3252.17
593.92	3352.52
594.12	3342.28
594.31	3205.07
594.50	3289.04
594.70	3377.10
594.89	3856.33
595.08	2971.60
595.28	3252.17
595.47	3966.92
595.66	3485.64
595.86	3028.95
596.05	2932.69
596.24	3157.97
596.43	3631.05
596.63	3157.97
596.82	3319.76
597.01	3432.40
597.21	3645.38
597.40	2996.18
597.59	3106.77
597.79	3188.69
597.98	3379.15
598.17	3121.10
598.36	3174.35
598.56	3434.44
598.75	3168.21
598.94	3135.44
599.14	3108.82
599.33	3155.92
599.52	3440.59
599.71	3211.22
599.91	3100.62
600.10	3393.48
600.29	3270.61
600.48	3117.01
600.68	3268.56
600.87	3377.10
601.06	3180.50
601.26	3241.93
601.45	3162.06
601.64	3268.56
601.83	3590.09
602.03	2975.70
602.22	2992.08
602.41	3491.79
602.60	3798.98
602.80	3254.22
602.99	3186.64
603.18	3200.98
603.37	3260.37
603.57	3028.95
603.76	3008.47
603.95	3551.18
604.14	3188.69
604.34	3024.85
604.53	3012.56
604.72	3336.14
604.91	3393.48
605.10	3035.09
605.30	2912.21
605.49	3749.83
605.68	3559.37
605.87	3082.19
606.07	2963.41
606.26	3377.10
606.45	3428.30
606.64	3117.01
606.84	3022.80
607.03	3286.99
607.22	3450.83
607.41	3155.92
607.60	3037.14
607.80	3446.73
607.99	3219.41
608.18	3026.90
608.37	3117.01
608.56	3153.87
608.76	3504.07
608.95	3213.26
609.14	3141.58
609.33	3547.08
609.52	3581.90
609.72	3219.41
609.91	3221.45
610.10	3383.24
610.29	3622.86
610.48	3166.16
610.68	3213.26
610.87	3315.66
611.06	3452.88
611.25	3065.81
611.44	3145.68
611.63	3145.68
611.83	3532.75
612.02	2951.12
612.21	3172.30
612.40	2918.36
612.59	3045.33
612.79	2973.65
612.98	3092.43
613.17	3647.43
613.36	3246.03
613.55	3205.07
613.74	3160.02
613.93	3319.76
614.13	3493.83
614.32	3336.14
614.51	3147.73
614.70	3229.65
614.89	3266.51
615.08	3233.74
615.28	3448.78
615.47	2998.23
615.66	3327.95
615.85	3125.20
616.04	3213.26
616.23	3246.03
616.42	3270.61
616.62	3065.81
616.81	3200.98
617.00	3295.18
617.19	3430.35
617.38	3082.19
617.57	3172.30
617.76	3430.35
617.95	3399.63
618.15	3221.45
618.34	3313.61
618.53	3010.51
618.72	3588.04
618.91	3237.84
619.10	3155.92
619.29	3327.95
619.48	3266.51
619.68	3000.27
619.87	3043.28
620.06	2977.75
620.25	3411.92
620.44	2969.55
620.63	3047.38
620.82	3344.33
621.01	3278.80
621.20	3141.58
621.39	3074.00
621.59	3362.76
621.78	3231.69
621.97	3053.52
622.16	3209.17
622.35	3325.90
622.54	3370.96
622.73	3166.16
622.92	2910.16
623.11	3459.02
623.30	3147.73
623.49	3309.52
623.68	2949.08
623.88	3506.12
624.07	3108.82
624.26	2942.93
624.45	3004.37
624.64	3192.78
624.83	3403.72
625.02	3078.10
625.21	3065.81
625.40	3332.05
625.59	3540.94
625.78	3213.26
625.97	3164.11
626.16	3624.90
626.35	3483.59
626.54	3172.30
626.74	3284.94
626.93	3221.45
627.12	3248.08
627.31	3155.92
627.50	3106.77
627.69	3446.73
627.88	3117.01
628.07	3004.37
628.26	2967.51
628.45	3078.10
628.64	3139.54
628.83	3065.81
629.02	2926.55
629.21	3401.68
629.40	3291.09
629.59	2899.92
629.78	3131.34
629.97	3377.10
630.16	3352.52
630.35	3084.24
630.54	3237.84
630.73	3172.30
630.92	3289.04
631.11	3004.37
631.30	3188.69
631.49	3467.21
631.68	3190.74
631.87	3153.87
632.06	3065.81
632.25	3659.72
632.44	3336.14
632.63	3127.25
632.82	3090.38
633.01	3153.87
633.20	3422.16
633.39	3076.05
633.58	2854.87
633.77	3344.33
633.96	3405.77
634.15	3178.45
634.34	3190.74
634.53	3366.86
634.72	3151.82
634.91	2973.65
635.10	3069.91
635.29	3454.92
635.48	3309.52
635.67	2963.41
635.86	2877.40
636.05	3573.71
636.24	3303.37
636.43	2955.22
636.62	3182.54
636.81	2746.33
637.00	3209.17
637.19	3071.95
637.38	2975.70
637.57	3254.22
637.76	3282.89
637.95	3235.79
638.14	3274.70
638.33	3360.72
638.52	3280.85
638.71	3022.80
638.89	2983.89
639.08	3809.22
639.27	3565.51
639.46	3303.37
639.65	3770.31
639.84	3862.47
640.03	4093.89
640.22	3708.87
640.41	3532.75
640.60	3395.53
640.79	3452.88
640.98	3286.99
641.17	3309.52
641.36	3499.98
641.55	3567.56
641.74	2928.60
641.92	3016.66
642.11	3092.43
642.30	3172.30
642.49	3000.27
642.68	3074.00
642.87	3266.51
643.06	3442.64
643.25	2895.83
643.44	2920.40
643.63	3272.65
643.82	3436.49
644.00	3026.90
644.19	3123.15
644.38	3110.86
644.57	3477.45
644.76	3182.54
644.95	3205.07
645.14	3237.84
645.33	3360.72
645.52	3182.54
645.71	2975.70
645.89	3069.91
646.08	3272.65
646.27	3074.00
646.46	3325.90
646.65	2934.74
646.84	3264.46
647.03	3053.52
647.22	3114.96
647.40	3309.52
647.59	3231.69
647.78	2844.63
647.97	3049.43
648.16	3137.49
648.35	3637.19
648.54	3336.14
648.73	3125.20
648.91	3545.03
649.10	3301.33
649.29	2959.31
649.48	3000.27
649.67	3360.72
649.86	3409.87
650.05	3084.24
650.23	3278.80
650.42	3248.08
650.61	3600.33
650.80	3395.53
650.99	3375.05
651.18	3352.52
651.36	3542.99
651.55	3006.42
651.74	3166.16
651.93	3176.40
652.12	3186.64
652.31	3135.44
652.49	3114.96
652.68	3248.08
652.87	3499.98
653.06	3184.59
653.25	3342.28
653.44	3211.22
653.62	3559.37
653.81	3121.10
654.00	3043.28
654.19	3465.16
654.38	3792.84
654.56	3153.87
654.75	3033.04
654.94	3499.98
655.13	3246.03
655.32	3035.09
655.51	3125.20
655.69	3147.73
655.88	3395.53
656.07	2895.83
656.26	3133.39
656.45	3037.14
656.63	3229.65
656.82	3106.77
657.01	3370.96
657.20	3135.44
657.38	3551.18
657.57	3000.27
657.76	2912.21
657.95	3442.64
658.14	3188.69
658.32	3205.07
658.51	2967.51
658.70	3270.61
658.89	3270.61
659.08	3129.30
659.26	3327.95
659.45	3127.25
659.64	3403.72
659.83	3078.10
660.01	3467.21
660.20	3321.81
660.39	3669.96
660.58	2762.71
660.76	3084.24
660.95	2983.89
661.14	3264.46
661.33	2938.84
661.51	3049.43
661.70	3121.10
661.89	3340.24
662.08	3153.87
662.26	2938.84
662.45	3071.95
662.64	3573.71
662.83	3125.20
663.01	2912.21
663.20	3246.03
663.39	3499.98
663.58	3100.62
663.76	2994.13
663.95	3426.25
664.14	3053.52
664.32	3106.77
664.51	2981.84
664.70	2885.59
664.89	3289.04
665.07	2916.31
665.26	3264.46
665.45	3067.86
665.64	3362.76
665.82	3096.53
666.01	3297.23
666.20	3045.33
666.38	3536.84
666.57	3393.48
666.76	5654.44
666.95	13162.30
667.13	20664.00
667.32	25142.91
667.51	28704.33
667.69	29097.54
667.88	24202.89
668.07	17508.08
668.25	14841.63
668.44	12992.31
668.63	11147.09
668.81	9957.22
669.00	8521.60
669.19	7778.19
669.38	6707.10
669.56	5650.35
669.75	5033.91
669.94	4566.97
670.12	3841.99
670.31	3459.02
670.50	3364.81
670.68	3469.26
670.87	3434.44
671.06	3053.52
671.24	3196.88
671.43	3592.14
671.62	3315.66
671.80	3141.58
671.99	3274.70
672.18	3401.68
672.36	3428.30
672.55	3237.84
672.74	3084.24
672.92	3225.55
673.11	3426.25
673.29	2959.31
673.48	3262.41
673.67	3237.84
673.85	3504.07
674.04	3010.51
674.23	3145.68
674.41	3655.62
674.60	3065.81
674.79	2916.31
674.97	2951.12
675.16	3491.79
675.34	3524.55
675.53	3082.19
675.72	3180.50
675.90	3661.77
676.09	3194.83
676.28	3135.44
676.46	2910.16
676.65	3377.10
676.83	3094.48
677.02	3139.54
677.21	3172.30
677.39	3323.85
677.58	3143.63
677.77	3086.29
677.95	2983.89
678.14	3239.89
678.32	3217.36
678.51	3063.76
678.70	3393.48
678.88	3237.84
679.07	3223.50
679.25	3178.45
679.44	3090.38
679.63	3035.09
679.81	3289.04
680.00	3379.15
680.18	3139.54
680.37	3602.38
680.55	3291.09
680.74	2967.51
680.93	2852.82
681.11	3352.52
681.30	3381.20
681.48	3053.52
681.67	3114.96
681.85	3309.52
682.04	3108.82
682.23	3278.80
682.41	3262.41
682.60	3190.74
682.78	3309.52
682.97	3026.90
683.15	3155.92
683.34	3295.18
683.53	3581.90
683.71	2944.98
683.90	3123.15
684.08	3672.01
684.27	3270.61
684.45	3127.25
684.64	3237.84
684.82	3303.37
685.01	3459.02
685.19	3033.04
685.38	3389.39
685.57	3330.00
685.75	3102.67
685.94	2951.12
686.12	2942.93
686.31	3219.41
686.49	3542.99
686.68	2858.96
686.86	3067.86
687.05	3311.57
687.23	3624.90
687.42	3092.43
687.60	2914.26
687.79	3489.74
687.97	3559.37
688.16	3241.93
688.34	3278.80
688.53	2987.99
688.71	3358.67
688.90	3358.67
689.08	3065.81
689.27	2994.13
689.45	3454.92
689.64	3254.22
689.82	3147.73
690.01	3321.81
690.19	3286.99
690.38	3131.34
690.56	3147.73
690.75	3055.57
690.93	3164.11
691.12	2983.89
691.30	3121.10
691.49	3209.17
691.67	3307.47
691.86	3448.78
692.04	3071.95
692.23	3252.17
692.41	3319.76
692.60	3504.07
692.78	3336.14
692.97	3280.85
693.15	3454.92
693.34	3303.37
693.52	3278.80
693.71	3172.30
693.89	3176.40
694.08	2959.31
694.26	3164.11
694.44	3442.64
694.63	3495.88
694.81	3051.47
695.00	3074.00
695.18	3485.64
695.37	3745.73
695.55	3248.08
695.74	3123.15
695.92	3053.52
696.10	3530.70
696.29	2977.75
696.47	3076.05
696.66	3055.57
696.84	3141.58
697.03	3162.06
697.21	3340.24
697.40	4657.08
697.58	3518.41
697.76	3008.47
697.95	3057.62
698.13	3067.86
698.32	3229.65
698.50	3151.82
698.68	3149.78
698.87	3313.61
699.05	3647.43
699.24	3114.96
699.42	3000.27
699.61	3313.61
699.79	3215.31
699.97	3086.29
700.16	2820.05
700.34	3082.19
700.53	3344.33
700.71	3317.71
700.89	3196.88
701.08	3184.59
701.26	3231.69
701.45	3520.46
701.63	3051.47
701.81	3139.54
702.00	3166.16
702.18	3176.40
702.37	3147.73
702.55	3579.85
702.73	3387.34
702.92	3137.49
703.10	3409.87
703.28	3534.79
703.47	3125.20
703.65	3389.39
703.84	3209.17
704.02	3207.12
704.20	3522.51
704.39	3082.19
704.57	3119.06
704.75	3428.30
704.94	3413.96
705.12	3368.91
705.30	4097.99
705.49	8877.94
705.67	17559.28
705.86	24108.69
706.04	27825.75
706.22	30740.01
706.41	29097.54
706.59	22009.52
706.77	17088.25
706.96	14933.79
707.14	13596.46
707.32	11425.62
707.51	10020.71
707.69	8185.73
707.87	6616.99
708.06	5500.84
708.24	4556.73
708.42	4284.35
708.61	4253.63
708.79	3317.71
708.97	3274.70
709.16	3469.26
709.34	3297.23
709.52	3176.40
709.71	3170.26
709.89	3379.15
710.07	3151.82
710.26	3028.95
710.44	3076.05
710.62	3504.07
710.80	3276.75
710.99	3203.02
711.17	3235.79
711.35	3186.64
711.54	3145.68
711.72	3225.55
711.90	3217.36
712.09	3368.91
712.27	3143.63
712.45	3270.61
712.63	3114.96
712.82	3346.38
713.00	3205.07
713.18	3176.40
713.37	3254.22
713.55	3377.10
713.73	3391.44
713.91	3223.50
714.10	3166.16
714.28	3221.45
714.46	3338.19
714.65	3196.88
714.83	3160.02
715.01	3289.04
715.19	3317.71
715.38	3020.75
715.56	3207.12
715.74	3133.39
715.92	3104.72
716.11	3377.10
716.29	2820.05
716.47	3223.50
716.65	3196.88
716.84	2961.36
717.02	3123.15
717.20	2959.31
717.38	3127.25
717.57	3182.54
717.75	3090.38
717.93	3190.74
718.11	3438.54
718.30	2969.55
718.48	3114.96
718.66	3536.84
718.84	3540.94
719.03	3076.05
719.21	2889.68
719.39	3729.35
719.57	3370.96
719.75	3225.55
719.94	3022.80
720.12	3248.08
720.30	3276.75
720.48	3194.83
720.67	3131.34
720.85	3129.30
721.03	3135.44
721.21	3039.19
721.39	3149.78
721.58	3430.35
721.76	3254.22
721.94	3125.20
722.12	3221.45
722.30	3573.71
722.49	3190.74
722.67	3155.92
722.85	3149.78
723.03	3016.66
723.21	3164.11
723.40	3170.26
723.58	3225.55
723.76	3370.96
723.94	3520.46
724.12	3114.96
724.30	3393.48
724.49	3473.36
724.67	3131.34
724.85	3213.26
725.03	3037.14
725.21	3381.20
725.40	3528.65
725.58	3180.50
725.76	3342.28
725.94	3373.00
726.12	3022.80
726.30	3119.06
726.49	3026.90
726.67	3205.07
726.85	3428.30
727.03	3968.96
727.21	5642.15
727.39	7526.29
727.57	7948.17
727.76	8726.39
727.94	8796.03
728.12	7366.54
728.30	6090.66
728.48	5775.27
728.66	5224.37
728.84	4777.91
729.03	4227.01
729.21	3835.85
729.39	3655.62
729.57	3448.78
729.75	3370.96
729.93	3340.24
730.11	3082.19
730.30	3213.26
730.48	3227.60
730.66	3170.26
730.84	3205.07
731.02	3270.61
731.20	3123.15
731.38	3184.59
731.56	2936.79
731.74	2992.08
731.93	3340.24
732.11	3160.02
732.29	3196.88
732.47	3375.05
732.65	3303.37
732.83	3246.03
733.01	3176.40
733.19	3223.50
733.37	3416.01
733.56	3057.62
733.74	3006.42
733.92	3569.61
734.10	3139.54
734.28	3305.42
734.46	2861.01
734.64	3280.85
734.82	3215.31
735.00	3084.24
735.18	3065.81
735.36	3260.37
735.54	3317.71
735.73	3020.75
735.91	3205.07
736.09	3502.03
736.27	3286.99
736.45	3141.58
736.63	2779.09
736.81	3233.74
736.99	3526.60
737.17	3330.00
737.35	3016.66
737.53	3407.82
737.71	3205.07
737.89	3289.04
738.07	3098.58
738.25	3180.50
738.43	2936.79
738.61	3076.05
738.80	2928.60
738.98	3088.34
739.16	3188.69
739.34	3020.75
739.52	3377.10
739.70	3291.09
739.88	3389.39
740.06	3209.17
740.24	2828.24
740.42	3448.78
740.60	2934.74
740.78	3039.19
740.96	2815.96
741.14	3200.98
741.32	3330.00
741.50	2940.88
741.68	3334.09
741.86	3504.07
742.04	3043.28
742.22	2969.55
742.40	3125.20
742.58	3440.59
742.76	3123.15
742.94	3336.14
743.12	2918.36
743.30	3297.23
743.48	3354.57
743.66	3065.81
743.84	3184.59
744.02	3280.85
744.20	3241.93
744.38	2977.75
744.56	3049.43
744.74	3665.86
744.92	3409.87
745.10	3442.64
745.28	3129.30
745.46	3565.51
745.64	3241.93
745.82	3200.98
746.00	3010.51
746.18	3299.28
746.36	3108.82
746.54	3203.02
746.72	3143.63
746.90	3084.24
747.08	3575.75
747.26	3057.62
747.44	3155.92
747.62	3385.29
747.80	3336.14
747.98	3162.06
748.15	3127.25
748.33	3590.09
748.51	3297.23
748.69	3180.50
748.87	3012.56
749.05	3137.49
749.23	3250.13
749.41	3022.80
749.59	3106.77
749.77	3469.26
749.95	3276.75
750.13	3041.23
750.31	3250.13
750.49	3243.98
750.67	3516.36
750.85	3227.60
751.03	3084.24
751.20	3702.73
751.38	3227.60
751.56	3121.10
751.74	3141.58
751.92	3237.84
752.10	3024.85
752.28	3272.65
752.46	3065.81
752.64	3260.37
752.82	3270.61
753.00	3254.22
753.18	3051.47
753.35	3186.64
753.53	3338.19
753.71	3024.85
753.89	3129.30
754.07	3332.05
754.25	3497.93
754.43	3241.93
754.61	2949.08
754.79	3397.58
754.97	3239.89
755.14	3231.69
755.32	3016.66
755.50	3254.22
755.68	3352.52
755.86	3074.00
756.04	2981.84
756.22	3018.71
756.40	3422.16
756.57	3286.99
756.75	3067.86
756.93	3499.98
757.11	3422.16
757.29	2940.88
757.47	3033.04
757.65	2992.08
757.82	2846.68
758.00	3018.71
758.18	2926.55
758.36	3123.15
758.54	3655.62
758.72	2873.30
758.90	3182.54
759.07	3362.76
759.25	3100.62
759.43	3170.26
759.61	2940.88
759.79	4433.85
759.97	3426.25
760.15	3098.58
760.32	3057.62
760.50	3274.70
760.68	3643.34
760.86	2955.22
761.04	3270.61
761.22	3440.59
761.39	3342.28
761.57	3192.78
761.75	3084.24
761.93	3385.29
762.11	3237.84
762.28	3225.55
762.46	3024.85
762.64	3463.12
762.82	3094.48
763.00	3035.09
763.18	3299.28
763.35	3010.51
763.53	3364.81
763.71	3106.77
763.89	3067.86
764.07	3295.18
764.24	3254.22
764.42	3203.02
764.60	3098.58
764.78	3379.15
764.96	3512.27
765.13	3272.65
765.31	2912.21
765.49	3428.30
765.67	3102.67
765.84	2979.79
766.02	2959.31
766.20	3000.27
766.38	3303.37
766.56	3262.41
766.73	3129.30
766.91	3258.32
767.09	3291.09
767.27	3143.63
767.44	3008.47
767.62	3434.44
767.80	3250.13
767.98	2955.22
768.15	3049.43
768.33	3461.07
768.51	3508.17
768.69	3280.85
768.87	3008.47
769.04	3196.88
769.22	3747.78
769.40	3209.17
769.58	3262.41
769.75	3393.48
769.93	3532.75
770.11	3114.96
770.28	3033.04
770.46	3370.96
770.64	3368.91
770.82	3117.01
770.99	2959.31
771.17	3403.72
771.35	3213.26
771.53	3125.20
771.70	3082.19
771.88	3291.09
772.06	3254.22
772.23	3033.04
772.41	3174.35
772.59	3219.41
772.77	3059.67
772.94	3104.72
773.12	3139.54
773.30	3131.34
773.47	3307.47
773.65	3037.14
773.83	3231.69
774.01	3352.52
774.18	2867.16
774.36	3110.86
774.54	2996.18
774.71	3291.09
774.89	2975.70
775.07	2951.12
775.24	3018.71
775.42	3133.39
775.60	3602.38
775.78	3020.75
775.95	2934.74
776.13	2879.44
776.31	3004.37
776.48	3223.50
776.66	3315.66
776.84	3184.59
777.01	3123.15
777.19	2969.55
777.37	3004.37
777.54	3385.29
777.72	3721.16
777.90	3217.36
778.07	3061.71
778.25	4022.21
778.43	3540.94
778.60	3102.67
778.78	3254.22
778.96	3569.61
779.13	3090.38
779.31	3164.11
779.49	3108.82
779.66	3223.50
779.84	3194.83
780.01	3067.86
780.19	3082.19
780.37	3489.74
780.54	3446.73
780.72	2926.55
780.90	3041.23
781.07	3268.56
781.25	3129.30
781.43	3243.98
781.60	3002.32
781.78	3467.21
781.95	3270.61
782.13	2996.18
782.31	3037.14
782.48	2985.94
782.66	3299.28
782.83	3368.91
783.01	3198.93
783.19	3375.05
783.36	3180.50
783.54	2967.51
783.72	3155.92
783.89	3198.93
784.07	3280.85
784.24	3178.45
784.42	3241.93
784.60	3332.05
784.77	3381.20
784.95	2891.73
785.12	3026.90
785.30	3307.47
785.47	3067.86
785.65	3000.27
785.83	3127.25
786.00	3190.74
786.18	3237.84
786.35	3024.85
786.53	2940.88
786.71	3512.27
786.88	3354.57
787.06	3205.07
787.23	3205.07
787.41	3028.95
787.58	3278.80
787.76	3002.32
787.94	3080.14
788.11	3383.24
788.29	3051.47
788.46	3076.05
788.64	2969.55
788.81	3203.02
788.99	3125.20
789.16	3051.47
789.34	3078.10
789.52	3139.54
789.69	3133.39
789.87	2912.21
790.04	3045.33
790.22	3237.84
790.39	3682.25
790.57	3012.56
790.74	3000.27
790.92	3442.64
791.09	2942.93
791.27	3127.25
791.44	3141.58
791.62	3211.22
791.79	3459.02
791.97	3164.11
792.15	3411.92
792.32	3446.73
792.50	3397.58
792.67	3305.42
792.85	3364.81
793.02	3256.27
793.20	3098.58
793.37	3055.57
793.55	3028.95
793.72	3057.62
793.90	3430.35
794.07	3026.90
794.25	2992.08
794.42	3305.42
794.60	3221.45
794.77	3143.63
794.95	3221.45
795.12	3405.77
795.30	3139.54
795.47	2832.34
795.65	3483.59
795.82	3338.19
796.00	3180.50
796.17	3135.44
796.34	2973.65
796.52	3311.57
796.69	3499.98
796.87	3172.30
797.04	3233.74
797.22	3442.64
797.39	3385.29
797.57	3237.84
797.74	3174.35
797.92	3327.95
798.09	3082.19
798.27	3354.57
798.44	3033.04
798.62	3180.50
798.79	3313.61
798.96	3235.79
799.14	3119.06
799.31	3921.86
799.49	3139.54
799.66	3092.43
799.84	3180.50
800.01	3014.61
800.19	3315.66
800.36	2895.83
800.53	3084.24
800.71	3381.20
800.88	3614.66
801.06	3047.38
801.23	3049.43
801.41	3180.50
801.58	3270.61
801.75	3041.23
801.93	3117.01
802.10	3286.99
802.28	3256.27
802.45	3160.02
802.63	3139.54
802.80	3600.33
802.97	3182.54
803.15	3057.62
803.32	3117.01
803.50	3051.47
803.67	3147.73
803.84	3057.62
804.02	3143.63
804.19	3211.22
804.37	2838.48
804.54	2914.26
804.71	3043.28
804.89	3278.80
805.06	3098.58
805.24	3057.62
805.41	2877.40
805.58	3065.81
805.76	3774.41
805.93	3053.52
806.10	3248.08
806.28	3336.14
806.45	3307.47
806.63	3248.08
806.80	3094.48
806.97	3352.52
807.15	3368.91
807.32	3160.02
807.49	3016.66
807.67	3096.53
807.84	3381.20
808.01	2918.36
808.19	3313.61
808.36	3631.05
808.54	3200.98
808.71	3051.47
808.88	3057.62
809.06	3559.37
809.23	3594.19
809.40	3127.25
809.58	3061.71
809.75	3278.80
809.92	3000.27
810.10	3323.85
810.27	3028.95
810.44	3418.06
810.62	3463.12
810.79	3098.58
810.96	3114.96
811.14	3168.21
811.31	3430.35
811.48	3319.76
811.66	3119.06
811.83	3545.03
812.00	3377.10
812.18	3276.75
812.35	3438.54
812.52	3237.84
812.69	3164.11
812.87	3078.10
813.04	2994.13
813.21	3207.12
813.39	3155.92
813.56	3043.28
813.73	3321.81
813.91	2961.36
814.08	3246.03
814.25	3053.52
814.42	2805.72
814.60	3182.54
814.77	3241.93
814.94	3053.52
815.12	3188.69
815.29	3590.09
815.46	3178.45
815.63	3084.24
815.81	3045.33
815.98	3241.93
816.15	3196.88
816.33	3188.69
816.50	3069.91
816.67	3305.42
816.84	3301.33
817.02	3037.14
817.19	3074.00
817.36	3336.14
817.53	3289.04
817.71	3020.75
817.88	3139.54
818.05	3250.13
818.22	3278.80
818.40	3225.55
818.57	3104.72
818.74	3282.89
818.91	3295.18
819.09	3196.88
819.26	3219.41
819.43	3096.53
819.60	3151.82
819.78	3207.12
819.95	3196.88
820.12	3102.67
820.29	3571.66
820.47	3289.04
820.64	2992.08
820.81	3088.34
820.98	3143.63
821.15	3098.58
821.33	3295.18
821.50	2947.03
821.67	3364.81
821.84	3057.62
822.02	3067.86
822.19	3430.35
822.36	3227.60
822.53	3049.43
822.70	3043.28
822.88	3190.74
823.05	3561.42
823.22	3180.50
823.39	3094.48
823.56	3291.09
823.74	3608.52
823.91	2904.02
824.08	3006.42
824.25	3045.33
824.42	3657.67
824.60	2891.73
824.77	3123.15
824.94	3225.55
825.11	3368.91
825.28	2947.03
825.45	3168.21
825.63	3217.36
825.80	3110.86
825.97	3151.82
826.14	3125.20
826.31	2959.31
826.48	3352.52
826.66	3049.43
826.83	3035.09
827.00	3299.28
827.17	3057.62
827.34	3166.16
827.51	3041.23
827.69	3160.02
827.86	2889.68
828.03	3065.81
828.20	3090.38
828.37	3192.78
828.54	3311.57
828.71	3045.33
828.89	3143.63
829.06	3336.14
829.23	3610.57
829.40	2963.41
829.57	3074.00
829.74	3420.11
829.91	3278.80
830.09	2983.89
830.26	3151.82
830.43	3592.14
830.60	3229.65
830.77	3170.26
830.94	3264.46
831.11	3506.12
831.28	3217.36
831.46	3217.36
831.63	3117.01
831.80	3438.54
831.97	3194.83
832.14	3012.56
832.31	3147.73
832.48	3360.72
832.65	3469.26
832.82	3229.65
832.99	3162.06
833.17	3082.19
833.34	3510.22
833.51	2996.18
833.68	2828.24
833.85	3479.50
834.02	3129.30
834.19	3018.71
834.36	3045.33
834.53	3305.42
834.70	3477.45
834.87	3033.04
835.04	2818.00
835.22	3018.71
835.39	3176.40
835.56	2887.64
835.73	2893.78
835.90	3463.12
836.07	3123.15
836.24	3082.19
836.41	2889.68
836.58	3065.81
836.75	3485.64
836.92	2926.55
837.09	2850.77
837.26	3483.59
837.43	3330.00
837.60	2959.31
837.77	2891.73
837.94	3401.68
838.12	3518.41
838.29	2871.25
838.46	2820.05
838.63	3016.66
838.80	3573.71
838.97	2955.22
839.14	2844.63
839.31	3241.93
839.48	3377.10
839.65	2940.88
839.82	2981.84
839.99	3346.38
840.16	3258.32
840.33	2838.48
840.50	2983.89
840.67	3180.50
840.84	2795.48
841.01	2940.88
841.18	2926.55
841.35	3233.74
841.52	3352.52
841.69	3215.31
841.86	2985.94
842.03	3198.93
842.20	3420.11
842.37	2908.12
842.54	2973.65
842.71	3291.09
842.88	3037.14
843.05	2965.46
843.22	2875.35
843.39	3405.77
843.56	3125.20
843.73	2920.40
843.90	2924.50
844.07	3172.30
844.24	3461.07
844.41	2914.26
844.58	2977.75
844.75	3246.03
844.92	3313.61
845.09	2983.89
845.26	2891.73
845.43	3340.24
845.60	3213.26
845.77	3010.51
845.94	3051.47
846.10	3493.83
846.27	3037.14
846.44	2836.44
846.61	2801.62
846.78	3428.30
846.95	3434.44
847.12	2912.21
847.29	2916.31
847.46	3186.64
847.63	3381.20
847.80	2815.96
847.97	2983.89
848.14	3778.50
848.31	3176.40
848.48	2807.77
848.65	2895.83
848.82	3153.87
848.98	3856.33
849.15	3110.86
849.32	3088.34
849.49	3483.59
849.66	3194.83
849.83	2877.40
850.00	2838.48
850.17	3452.88
850.34	3155.92
850.51	2889.68
850.68	2938.84
850.85	3794.89
851.01	3364.81
851.18	2926.55
851.35	3069.91
851.52	3395.53
851.69	3459.02
851.86	2811.86
852.03	2901.97
852.20	3393.48
852.37	3286.99
852.53	2779.09
852.70	2809.81
852.87	3340.24
853.04	3389.39
853.21	2926.55
853.38	3147.73
853.55	3528.65
853.72	3555.27
853.89	2854.87
854.05	2930.64
854.22	3229.65
854.39	3239.89
854.56	2836.44
854.73	3037.14
854.90	3172.30
855.07	3293.13
855.23	2846.68
855.40	2875.35
855.57	3223.50
855.74	2846.68
855.91	3114.96
856.08	2840.53
856.25	2969.55
856.41	3155.92
856.58	2936.79
856.75	2963.41
856.92	3076.05
857.09	3538.89
857.26	2738.13
857.42	2969.55
857.59	3387.34
857.76	3190.74
857.93	2875.35
858.10	3008.47
858.27	3082.19
858.43	3297.23
858.60	2912.21
858.77	2760.66
858.94	3211.22
859.11	3436.49
859.27	2981.84
859.44	2815.96
859.61	3735.50
859.78	3473.36
859.95	2891.73
860.12	2928.60
860.28	3704.78
860.45	3696.58
860.62	2838.48
860.79	2975.70
860.95	3137.49
861.12	3157.97
861.29	2801.62
861.46	2875.35
861.63	3241.93
861.79	3303.37
861.96	2777.05
862.13	2944.98
862.30	3594.19
862.47	3041.23
862.63	2820.05
862.80	2965.46
862.97	3440.59
863.14	3424.20
863.30	2951.12
863.47	2818.00
863.64	3538.89
863.81	3237.84
863.97	2852.82
864.14	2938.84
864.31	3200.98
864.48	3317.71
864.65	2963.41
864.81	2979.79
864.98	3411.92
865.15	3399.63
865.32	3016.66
865.48	3006.42
865.65	3715.02
865.82	3135.44
865.98	2983.89
866.15	2983.89
866.32	3264.46
866.49	3160.02
866.65	3041.23
866.82	2920.40
866.99	3207.12
867.16	3178.45
867.32	2967.51
867.49	2828.24
867.66	3180.50
867.83	3151.82
867.99	2889.68
868.16	3008.47
868.33	3018.71
868.49	3205.07
868.66	2854.87
868.83	2981.84
868.99	3198.93
869.16	3278.80
869.33	3084.24
869.50	2979.79
869.66	3307.47
869.83	3174.35
870.00	2832.34
870.16	2998.23
870.33	3252.17
870.50	3413.96
870.66	3022.80
870.83	2910.16
871.00	3182.54
871.17	3344.33
871.33	2951.12
871.50	2938.84
871.67	3207.12
871.83	3108.82
872.00	2990.03
872.17	2912.21
872.33	3723.21
872.50	3436.49
872.67	2895.83
872.83	2914.26
873.00	3297.23
873.17	3258.32
873.33	2944.98
873.50	2926.55
873.67	3082.19
873.83	3135.44
874.00	2863.06
874.16	3051.47
874.33	3254.22
874.50	2961.36
874.66	2873.30
874.83	3057.62
875.00	3448.78
875.16	3471.31
875.33	2914.26
875.50	2693.08
875.66	3155.92
875.83	3344.33
875.99	3037.14
876.16	3016.66
876.33	3092.43
876.49	3215.31
876.66	3008.47
876.83	3002.32
876.99	2971.60
877.16	3215.31
877.32	2793.43
877.49	2985.94
877.66	3370.96
877.82	3542.99
877.99	3045.33
878.15	3246.03
878.32	3330.00
878.49	3272.65
878.65	3008.47
878.82	3211.22
878.98	3141.58
879.15	3424.20
879.32	3061.71
879.48	3108.82
879.65	3233.74
879.81	3172.30
879.98	2883.54
880.15	3018.71
880.31	3395.53
880.48	3117.01
880.64	3033.04
880.81	3100.62
880.97	3651.53
881.14	3459.02
881.31	2904.02
881.47	3127.25
881.64	3170.26
881.80	2969.55
881.97	3069.91
882.13	2938.84
882.30	3030.99
882.47	3035.09
882.63	2910.16
882.80	2901.97
882.96	3207.12
883.13	3436.49
883.29	2887.64
883.46	2863.06
883.62	3692.49
883.79	3278.80
883.95	3121.10
884.12	2861.01
884.29	3463.12
884.45	3215.31
884.62	3020.75
884.78	2914.26
884.95	3639.24
885.11	3059.67
885.28	3004.37
885.44	2930.64
885.61	3323.85
885.77	3534.79
885.94	3024.85
886.10	2922.45
886.27	3192.78
886.43	3583.95
886.60	3129.30
886.76	2951.12
886.93	3098.58
887.09	3366.86
887.26	2805.72
887.42	3094.48
887.59	3446.73
887.75	3778.50
887.92	3082.19
888.08	3028.95
888.25	3540.94
888.41	3409.87
888.58	2996.18
888.74	2889.68
888.91	3182.54
>>>>>End Processed Spectral Data<<<<<
