SpectraSuite Data File
++++++++++++++++++++++++++++++++++++
Date: Fri May 06 08:14:19 CEST 2016
User: root
Dark Spectrum Present: No
Reference Spectrum Present: No
Number of Sampled Component Spectra: 1
Spectrometers: USB4C02835
Integration Time (usec): 100000 (USB4C02835)
Spectra Averaged: 1 (USB4C02835)
Boxcar Smoothing: 0 (USB4C02835)
Correct for Electrical Dark: No (USB4C02835)
Strobe/Lamp Enabled: No (USB4C02835)
Correct for Detector Non-linearity: No (USB4C02835)
Correct for Stray Light: No (USB4C02835)
Number of Pixels in Processed Spectrum: 3648
>>>>>Begin Processed Spectral Data<<<<<
177.47	2338.78
177.69	2338.78
177.91	2338.78
178.13	2250.72
178.36	2312.16
178.58	3061.71
178.80	3106.77
179.02	2959.31
179.24	3010.51
179.46	2756.57
179.68	2914.26
179.90	3221.45
180.13	3311.57
180.35	2717.65
180.57	2799.57
180.79	3442.64
181.01	3239.89
181.23	2856.92
181.45	2983.89
181.67	3432.40
181.90	3450.83
182.12	2947.03
182.34	2672.60
182.56	3450.83
182.78	3356.62
183.00	2791.38
183.22	2895.83
183.44	2912.21
183.66	3917.76
183.89	3000.27
184.11	2924.50
184.33	3430.35
184.55	3540.94
184.77	2801.62
184.99	2836.44
185.21	3198.93
185.43	3819.46
185.65	2914.26
185.87	2822.10
186.10	3776.45
186.32	3794.89
186.54	3002.32
186.76	2994.13
186.98	3520.46
187.20	3289.04
187.42	2877.40
187.64	2869.20
187.86	3370.96
188.08	3555.27
188.30	2756.57
188.52	2869.20
188.75	3598.28
188.97	3551.18
189.19	2887.64
189.41	2834.39
189.63	3360.72
189.85	3172.30
190.07	2680.79
190.29	2772.95
190.51	3327.95
190.73	2949.08
190.95	3053.52
191.17	2942.93
191.39	2930.64
191.61	3268.56
191.84	2883.54
192.06	2949.08
192.28	2983.89
192.50	3936.20
192.72	3000.27
192.94	2940.88
193.16	3526.60
193.38	3274.70
193.60	2842.58
193.82	3018.71
194.04	3512.27
194.26	3452.88
194.48	2924.50
194.70	2836.44
194.92	3160.02
195.14	3444.68
195.36	2863.06
195.58	2934.74
195.80	3278.80
196.02	3172.30
196.24	2818.00
196.46	2922.45
196.69	3166.16
196.91	3753.93
197.13	2922.45
197.35	2897.88
197.57	3647.43
197.79	3440.59
198.01	2955.22
198.23	2883.54
198.45	3315.66
198.67	3090.38
198.89	2744.28
199.11	3008.47
199.33	3024.85
199.55	2881.49
199.77	2813.91
199.99	3024.85
200.21	3209.17
200.43	3301.33
200.65	2795.48
200.87	2697.17
201.09	3270.61
201.31	3164.11
201.53	2854.87
201.75	2918.36
201.97	3323.85
202.19	3270.61
202.41	2910.16
202.63	2969.55
202.85	3434.44
203.07	3276.75
203.29	2936.79
203.51	2901.97
203.73	3211.22
203.95	3889.09
204.17	2881.49
204.39	2994.13
204.61	3252.17
204.83	3170.26
205.05	2987.99
205.27	2959.31
205.49	3794.89
205.71	3254.22
205.93	2746.33
206.15	2693.08
206.37	3297.23
206.59	3192.78
206.81	2709.46
207.03	2805.72
207.25	3033.04
207.47	3379.15
207.69	2834.39
207.91	3174.35
208.13	3598.28
208.34	3086.29
208.56	2809.81
208.78	2865.11
209.00	3213.26
209.22	3196.88
209.44	2875.35
209.66	2789.33
209.88	3295.18
210.10	3272.65
210.32	2803.67
210.54	2971.60
210.76	3200.98
210.98	3438.54
211.20	2666.46
211.42	2975.70
211.64	3434.44
211.86	3377.10
212.08	2928.60
212.30	2840.53
212.52	3200.98
212.74	3336.14
212.96	2904.02
213.17	2846.68
213.39	3379.15
213.61	3614.66
213.83	2836.44
214.05	2799.57
214.27	3491.79
214.49	3043.28
214.71	2746.33
214.93	3002.32
215.15	3258.32
215.37	3479.50
215.59	2754.52
215.81	2936.79
216.03	3596.23
216.24	3248.08
216.46	2858.96
216.68	2934.74
216.90	3401.68
217.12	3426.25
217.34	2818.00
217.56	3074.00
217.78	3542.99
218.00	3401.68
218.22	3018.71
218.44	2977.75
218.66	3313.61
218.87	3698.63
219.09	2904.02
219.31	2904.02
219.53	3350.48
219.75	3164.11
219.97	2912.21
220.19	2914.26
220.41	3233.74
220.63	3555.27
220.85	2881.49
221.06	2906.07
221.28	3581.90
221.50	3407.82
221.72	2865.11
221.94	2734.04
222.16	3332.05
222.38	3411.92
222.60	2887.64
222.82	2932.69
223.03	3467.21
223.25	3139.54
223.47	2779.09
223.69	3129.30
223.91	3393.48
224.13	3354.57
224.35	2807.77
224.57	3026.90
224.78	3491.79
225.00	3147.73
225.22	2965.46
225.44	2826.20
225.66	3493.83
225.88	3143.63
226.10	3020.75
226.32	2842.58
226.53	3583.95
226.75	3235.79
226.97	2953.17
227.19	2836.44
227.41	3143.63
227.63	3198.93
227.85	2688.98
228.06	2944.98
228.28	3282.89
228.50	3430.35
228.72	2707.41
228.94	2815.96
229.16	2936.79
229.37	2990.03
229.59	2789.33
229.81	3100.62
230.03	3231.69
230.25	2910.16
230.47	2719.70
230.69	2852.82
230.90	3461.07
231.12	3174.35
231.34	2983.89
231.56	3024.85
231.78	3016.66
232.00	3280.85
232.21	2959.31
232.43	2926.55
232.65	2936.79
232.87	3327.95
233.09	2760.66
233.30	2826.20
233.52	3536.84
233.74	3317.71
233.96	2844.63
234.18	3018.71
234.40	3301.33
234.61	3778.50
234.83	2783.19
235.05	2854.87
235.27	3850.18
235.49	3542.99
235.70	2736.09
235.92	2955.22
236.14	3440.59
236.36	3760.07
236.58	2772.95
236.79	2949.08
237.01	3284.94
237.23	3174.35
237.45	3002.32
237.67	2901.97
237.88	3340.24
238.10	3696.58
238.32	2811.86
238.54	2877.40
238.76	3248.08
238.97	3020.75
239.19	2731.99
239.41	2916.31
239.63	3649.48
239.85	3192.78
240.06	2926.55
240.28	2844.63
240.50	3485.64
240.72	3184.59
240.93	2772.95
241.15	2959.31
241.37	3229.65
241.59	3598.28
241.81	2869.20
242.02	2944.98
242.24	3428.30
242.46	3461.07
242.68	2721.75
242.89	2887.64
243.11	3493.83
243.33	3231.69
243.55	2865.11
243.76	2871.25
243.98	3137.49
244.20	3227.60
244.42	2938.84
244.64	2822.10
244.85	3030.99
245.07	3135.44
245.29	2809.81
245.51	2891.73
245.72	3379.15
245.94	3518.41
246.16	2838.48
246.38	2891.73
246.59	3172.30
246.81	3131.34
247.03	2813.91
247.24	2820.05
247.46	3157.97
247.68	3352.52
247.90	2805.72
248.11	2873.30
248.33	3516.36
248.55	3172.30
248.77	2967.51
248.98	2953.17
249.20	3606.47
249.42	3338.19
249.64	2881.49
249.85	2815.96
250.07	3059.67
250.29	3385.29
250.50	2953.17
250.72	2803.67
250.94	3254.22
251.16	3745.73
251.37	2799.57
251.59	2904.02
251.81	3405.77
252.02	3612.62
252.24	2861.01
252.46	3051.47
252.68	3129.30
252.89	3229.65
253.11	2678.74
253.33	3045.33
253.54	3594.19
253.76	3043.28
253.98	2877.40
254.20	2822.10
254.41	3024.85
254.63	3229.65
254.85	2752.47
255.06	2951.12
255.28	3373.00
255.50	3256.27
255.71	2844.63
255.93	2748.37
256.15	3254.22
256.36	3403.72
256.58	2715.61
256.80	2807.77
257.02	3256.27
257.23	3168.21
257.45	2910.16
257.67	2983.89
257.88	3164.11
258.10	3440.59
258.32	2822.10
258.53	2957.27
258.75	3667.91
258.97	3149.78
259.18	2756.57
259.40	2807.77
259.62	3690.44
259.83	3545.03
260.05	2854.87
260.27	3780.55
260.48	3477.45
260.70	2992.08
260.92	2826.20
261.13	2846.68
261.35	3348.43
261.57	3418.06
261.78	2709.46
262.00	2777.05
262.22	3377.10
262.43	3147.73
262.65	2838.48
262.86	2863.06
263.08	3819.46
263.30	3327.95
263.51	2664.41
263.73	2799.57
263.95	3555.27
264.16	3041.23
264.38	2746.33
264.60	2797.53
264.81	3338.19
265.03	3557.32
265.25	3303.37
265.46	2805.72
265.68	3485.64
265.89	3530.70
266.11	2699.22
266.33	2836.44
266.54	3530.70
266.76	3461.07
266.98	2910.16
267.19	3100.62
267.41	3522.51
267.62	3207.12
267.84	2664.41
268.06	2998.23
268.27	3319.76
268.49	3401.68
268.70	2934.74
268.92	2885.59
269.14	3139.54
269.35	2965.46
269.57	2904.02
269.79	2908.12
270.00	3123.15
270.22	3686.34
270.43	2750.42
270.65	2731.99
270.87	3319.76
271.08	3471.31
271.30	3008.47
271.51	2875.35
271.73	3405.77
271.95	3618.76
272.16	2838.48
272.38	3061.71
272.59	3200.98
272.81	3401.68
273.02	2760.66
273.24	2889.68
273.46	3549.13
273.67	3008.47
273.89	2791.38
274.10	2885.59
274.32	3512.27
274.54	3270.61
274.75	3016.66
274.97	2926.55
275.18	3395.53
275.40	3319.76
275.61	2910.16
275.83	3028.95
276.05	2979.79
276.26	3250.13
276.48	2981.84
276.69	3004.37
276.91	3100.62
277.12	3577.80
277.34	3090.38
277.55	3139.54
277.77	3225.55
277.99	3200.98
278.20	2961.36
278.42	2924.50
278.63	3067.86
278.85	2994.13
279.06	2920.40
279.28	3045.33
279.49	3461.07
279.71	3440.59
279.93	3008.47
280.14	3010.51
280.36	3123.15
280.57	3573.71
280.79	3065.81
281.00	2897.88
281.22	3160.02
281.43	3456.97
281.65	2746.33
281.86	2918.36
282.08	3403.72
282.29	3661.77
282.51	2856.92
282.73	2949.08
282.94	2967.51
283.16	3407.82
283.37	3067.86
283.59	3006.42
283.80	3418.06
284.02	3274.70
284.23	3024.85
284.45	3110.86
284.66	3092.43
284.88	3114.96
285.09	2891.73
285.31	3010.51
285.52	3321.81
285.74	2965.46
285.95	3211.22
286.17	3071.95
286.38	3479.50
286.60	3114.96
286.81	3026.90
287.03	2942.93
287.24	3248.08
287.46	3497.93
287.67	3168.21
287.89	3252.17
288.10	3223.50
288.32	3344.33
288.53	3141.58
288.75	3026.90
288.96	3438.54
289.18	3180.50
289.39	2985.94
289.61	3092.43
289.82	3688.39
290.04	3659.72
290.25	2889.68
290.47	3061.71
290.68	3282.89
290.90	3452.88
291.11	2832.34
291.33	3123.15
291.54	3090.38
291.76	3221.45
291.97	3114.96
292.18	3180.50
292.40	3106.77
292.61	3086.29
292.83	3254.22
293.04	2924.50
293.26	3325.90
293.47	3250.13
293.69	2904.02
293.90	2893.78
294.12	3585.99
294.33	3340.24
294.55	3121.10
294.76	3219.41
294.97	3696.58
295.19	3692.49
295.40	2987.99
295.62	3024.85
295.83	3553.23
296.05	3133.39
296.26	3243.98
296.48	2959.31
296.69	3266.51
296.90	3237.84
297.12	3198.93
297.33	3151.82
297.55	3393.48
297.76	3440.59
297.98	3008.47
298.19	3184.59
298.41	3354.57
298.62	3078.10
298.83	3217.36
299.05	3108.82
299.26	3186.64
299.48	3110.86
299.69	3024.85
299.90	2963.41
300.12	3198.93
300.33	3370.96
300.55	3000.27
300.76	3057.62
300.98	3096.53
301.19	3411.92
301.40	3045.33
301.62	2959.31
301.83	3452.88
302.05	3291.09
302.26	3012.56
302.47	3102.67
302.69	2996.18
302.90	3262.41
303.12	2756.57
303.33	3112.91
303.54	3682.25
303.76	3164.11
303.97	2959.31
304.19	3131.34
304.40	3049.43
304.61	3368.91
304.83	3059.67
305.04	3026.90
305.26	3438.54
305.47	3194.83
305.68	2994.13
305.90	2869.20
306.11	3532.75
306.33	3282.89
306.54	2832.34
306.75	2947.03
306.97	2965.46
307.18	3198.93
307.39	3012.56
307.61	3096.53
307.82	3268.56
308.04	3327.95
308.25	2899.92
308.46	3123.15
308.68	3278.80
308.89	3286.99
309.10	3151.82
309.32	3043.28
309.53	3235.79
309.74	3284.94
309.96	2934.74
310.17	3043.28
310.39	3178.45
310.60	3450.83
310.81	3030.99
311.03	2953.17
311.24	3438.54
311.45	3383.24
311.67	3311.57
311.88	3026.90
312.09	3235.79
312.31	3145.68
312.52	2875.35
312.73	2912.21
312.95	3020.75
313.16	3090.38
313.37	3219.41
313.59	3213.26
313.80	3440.59
314.01	3565.51
314.23	3008.47
314.44	2861.01
314.65	3037.14
314.87	3114.96
315.08	2990.03
315.29	3030.99
315.51	3090.38
315.72	2992.08
315.93	3074.00
316.15	2969.55
316.36	3114.96
316.57	3370.96
316.79	2994.13
317.00	2914.26
317.21	3368.91
317.43	3168.21
317.64	3012.56
317.85	2854.87
318.07	3104.72
318.28	3203.02
318.49	3155.92
318.70	3180.50
318.92	3332.05
319.13	3364.81
319.34	3203.02
319.56	3028.95
319.77	3416.01
319.98	3459.02
320.20	3241.93
320.41	3168.21
320.62	3346.38
320.83	3104.72
321.05	3264.46
321.26	3106.77
321.47	3254.22
321.69	3401.68
321.90	2830.29
322.11	2992.08
322.32	3262.41
322.54	3561.42
322.75	2992.08
322.96	4057.03
323.18	3012.56
323.39	2887.64
323.60	2869.20
323.81	3086.29
324.03	3151.82
324.24	3200.98
324.45	3096.53
324.66	2936.79
324.88	3418.06
325.09	3631.05
325.30	3006.42
325.52	2977.75
325.73	3330.00
325.94	3082.19
326.15	2910.16
326.37	2787.29
326.58	3446.73
326.79	3629.00
327.00	2938.84
327.22	2934.74
327.43	3233.74
327.64	3133.39
327.85	3112.91
328.07	2990.03
328.28	3614.66
328.49	3205.07
328.70	3018.71
328.92	3057.62
329.13	3166.16
329.34	3379.15
329.55	3241.93
329.76	3090.38
329.98	3168.21
330.19	3467.21
330.40	3098.58
330.61	3155.92
330.83	3452.88
331.04	3100.62
331.25	3074.00
331.46	3018.71
331.68	3108.82
331.89	3434.44
332.10	3024.85
332.31	2893.78
332.52	3323.85
332.74	3477.45
332.95	2820.05
333.16	2994.13
333.37	3405.77
333.58	3123.15
333.80	3063.76
334.01	2795.48
334.22	3278.80
334.43	3094.48
334.64	2920.40
334.86	2944.98
335.07	3121.10
335.28	3577.80
335.49	2938.84
335.70	3086.29
335.92	3643.34
336.13	3721.16
336.34	3014.61
336.55	2957.27
336.76	3366.86
336.98	2842.58
337.19	3004.37
337.40	3051.47
337.61	3719.11
337.82	3280.85
338.04	3104.72
338.25	2865.11
338.46	3239.89
338.67	3246.03
338.88	2904.02
339.09	2914.26
339.31	3151.82
339.52	3039.19
339.73	3004.37
339.94	3051.47
340.15	3420.11
340.36	3143.63
340.58	3074.00
340.79	2940.88
341.00	3385.29
341.21	3033.04
341.42	3282.89
341.63	3051.47
341.85	3483.59
342.06	3295.18
342.27	2967.51
342.48	3176.40
342.69	3012.56
342.90	3479.50
343.12	3387.34
343.33	2871.25
343.54	3450.83
343.75	3583.95
343.96	3145.68
344.17	2783.19
344.38	3194.83
344.60	3045.33
344.81	2910.16
345.02	3002.32
345.23	3530.70
345.44	3807.17
345.65	3096.53
345.86	3049.43
346.07	3336.14
346.29	3172.30
346.50	3166.16
346.71	3082.19
346.92	3499.98
347.13	3712.97
347.34	3114.96
347.55	2942.93
347.76	3424.20
347.98	2971.60
348.19	3002.32
348.40	3205.07
348.61	3209.17
348.82	3643.34
349.03	3061.71
349.24	2887.64
349.45	3721.16
349.66	2875.35
349.88	2951.12
350.09	3004.37
350.30	3491.79
350.51	3436.49
350.72	3215.31
350.93	3041.23
351.14	3235.79
351.35	3336.14
351.56	3049.43
351.77	3100.62
351.99	3409.87
352.20	3520.46
352.41	3106.77
352.62	2858.96
352.83	3264.46
353.04	3256.27
353.25	2998.23
353.46	3059.67
353.67	3463.12
353.88	2852.82
354.09	2914.26
354.30	3080.14
354.52	3399.63
354.73	3280.85
354.94	2951.12
355.15	2969.55
355.36	3581.90
355.57	3180.50
355.78	2901.97
355.99	3000.27
356.20	3200.98
356.41	3600.33
356.62	3016.66
356.83	3028.95
357.04	3547.08
357.25	2961.36
357.46	3000.27
357.68	2908.12
357.89	3205.07
358.10	3133.39
358.31	2985.94
358.52	3002.32
358.73	3059.67
358.94	3049.43
359.15	2998.23
359.36	2994.13
359.57	3260.37
359.78	3299.28
359.99	3198.93
360.20	2850.77
360.41	3180.50
360.62	3407.82
360.83	3123.15
361.04	3024.85
361.25	3278.80
361.46	3583.95
361.67	3092.43
361.88	3014.61
362.09	3504.07
362.30	3379.15
362.51	2914.26
362.72	3033.04
362.93	3389.39
363.14	3327.95
363.35	3082.19
363.56	2924.50
363.78	3424.20
363.99	3487.69
364.20	3063.76
364.41	3026.90
364.62	3602.38
364.83	3309.52
365.04	3102.67
365.25	2987.99
365.46	3704.78
365.67	3141.58
365.88	3082.19
366.09	2967.51
366.30	3186.64
366.51	3264.46
366.72	2949.08
366.93	2983.89
367.14	3323.85
367.35	3545.03
367.56	2865.11
367.77	3157.97
367.98	3276.75
368.18	3377.10
368.39	3188.69
368.60	2987.99
368.81	3418.06
369.02	3299.28
369.23	3037.14
369.44	2893.78
369.65	3207.12
369.86	3420.11
370.07	3127.25
370.28	2926.55
370.49	3368.91
370.70	3319.76
370.91	2922.45
371.12	2858.96
371.33	3479.50
371.54	3151.82
371.75	3131.34
371.96	2795.48
372.17	3299.28
372.38	3227.60
372.59	2996.18
372.80	2979.79
373.01	3303.37
373.22	3241.93
373.43	2979.79
373.64	2865.11
373.85	3508.17
374.06	3588.04
374.26	3166.16
374.47	3076.05
374.68	3581.90
374.89	3422.16
375.10	2983.89
375.31	3151.82
375.52	3323.85
375.73	3272.65
375.94	2836.44
376.15	2992.08
376.36	3135.44
376.57	3198.93
376.78	3037.14
376.99	2967.51
377.20	3510.22
377.40	3180.50
377.61	3332.05
377.82	2955.22
378.03	3502.03
378.24	3362.76
378.45	3112.91
378.66	3074.00
378.87	2959.31
379.08	3071.95
379.29	2992.08
379.50	3168.21
379.71	3217.36
379.91	3403.72
380.12	2938.84
380.33	3065.81
380.54	3286.99
380.75	3315.66
380.96	2996.18
381.17	2981.84
381.38	3217.36
381.59	3200.98
381.80	3098.58
382.00	3241.93
382.21	3321.81
382.42	3739.59
382.63	3454.92
382.84	3233.74
383.05	3510.22
383.26	3516.36
383.47	3215.31
383.68	3008.47
383.88	3389.39
384.09	3286.99
384.30	3289.04
384.51	3092.43
384.72	3205.07
384.93	3030.99
385.14	3176.40
385.35	3307.47
385.55	2983.89
385.76	3516.36
385.97	3063.76
386.18	2848.72
386.39	3151.82
386.60	3102.67
386.81	3016.66
387.02	2914.26
387.22	3074.00
387.43	3381.20
387.64	3012.56
387.85	3286.99
388.06	3377.10
388.27	4310.97
388.48	7669.64
388.68	11900.75
388.89	14923.55
389.10	16256.78
389.31	15828.75
389.52	12859.20
389.73	11034.46
389.93	10360.67
390.14	9101.17
390.35	8605.56
390.56	7788.43
390.77	6674.33
390.98	4954.04
391.18	4200.38
391.39	3917.76
391.60	3323.85
391.81	3354.57
392.02	3127.25
392.23	3706.82
392.43	3325.90
392.64	3151.82
392.85	3076.05
393.06	3690.44
393.27	3352.52
393.47	3012.56
393.68	3090.38
393.89	3229.65
394.10	3526.60
394.31	3037.14
394.52	3004.37
394.72	3155.92
394.93	3641.29
395.14	2979.79
395.35	3133.39
395.56	3186.64
395.76	3252.17
395.97	2975.70
396.18	3248.08
396.39	3291.09
396.60	3854.28
396.80	3438.54
397.01	3254.22
397.22	3430.35
397.43	3389.39
397.64	3123.15
397.84	3076.05
398.05	3688.39
398.26	3217.36
398.47	3106.77
398.67	3278.80
398.88	3338.19
399.09	3456.97
399.30	3024.85
399.51	3082.19
399.71	3157.97
399.92	3295.18
400.13	3166.16
400.34	2990.03
400.54	3250.13
400.75	3643.34
400.96	3176.40
401.17	3356.62
401.37	3459.02
401.58	3231.69
401.79	3002.32
402.00	3080.14
402.21	3739.59
402.41	3424.20
402.62	3217.36
402.83	3481.55
403.04	3676.10
403.24	4085.70
403.45	3123.15
403.66	3405.77
403.87	3512.27
404.07	3647.43
404.28	3305.42
404.49	3362.76
404.70	3284.94
404.90	3401.68
405.11	3008.47
405.32	3160.02
405.52	3168.21
405.73	3108.82
405.94	2926.55
406.15	3131.34
406.35	3526.60
406.56	3459.02
406.77	3139.54
406.98	3071.95
407.18	3119.06
407.39	3528.65
407.60	3129.30
407.80	3135.44
408.01	3145.68
408.22	3399.63
408.43	2965.46
408.63	3098.58
408.84	3444.68
409.05	3393.48
409.25	2987.99
409.46	3053.52
409.67	3233.74
409.88	3223.50
410.08	3086.29
410.29	2967.51
410.50	3487.69
410.70	3338.19
410.91	2947.03
411.12	3143.63
411.32	3336.14
411.53	3188.69
411.74	2977.75
411.95	3182.54
412.15	3352.52
412.36	3438.54
412.57	3190.74
412.77	3235.79
412.98	3211.22
413.19	3284.94
413.39	3082.19
413.60	3157.97
413.81	3516.36
414.01	3055.57
414.22	3020.75
414.43	3344.33
414.63	3254.22
414.84	3459.02
415.05	3135.44
415.25	2901.97
415.46	3442.64
415.67	3198.93
415.87	3088.34
416.08	3088.34
416.29	3166.16
416.49	3428.30
416.70	3043.28
416.91	3024.85
417.11	3250.13
417.32	3405.77
417.53	3147.73
417.73	3188.69
417.94	3325.90
418.15	3317.71
418.35	3178.45
418.56	3125.20
418.77	3815.37
418.97	3241.93
419.18	3186.64
419.38	2758.61
419.59	3266.51
419.80	3491.79
420.00	3000.27
420.21	3069.91
420.42	3559.37
420.62	3413.96
420.83	3028.95
421.04	3002.32
421.24	3227.60
421.45	3377.10
421.65	3086.29
421.86	3143.63
422.07	3438.54
422.27	3387.34
422.48	2979.79
422.69	2879.44
422.89	3315.66
423.10	3157.97
423.30	3037.14
423.51	3014.61
423.72	3311.57
423.92	3409.87
424.13	2947.03
424.33	3108.82
424.54	3448.78
424.75	3307.47
424.95	3323.85
425.16	3057.62
425.36	3243.98
425.57	3442.64
425.78	3254.22
425.98	3139.54
426.19	3274.70
426.39	3137.49
426.60	3198.93
426.81	3233.74
427.01	3360.72
427.22	3067.86
427.42	2869.20
427.63	2885.59
427.83	3487.69
428.04	3631.05
428.25	3131.34
428.45	3211.22
428.66	3555.27
428.86	3239.89
429.07	3057.62
429.28	3037.14
429.48	3225.55
429.69	3131.34
429.89	3172.30
430.10	2957.27
430.30	3305.42
430.51	3438.54
430.71	2983.89
430.92	3069.91
431.13	3086.29
431.33	3422.16
431.54	3155.92
431.74	3237.84
431.95	3745.73
432.15	3157.97
432.36	3004.37
432.56	3110.86
432.77	3635.14
432.98	3583.95
433.18	3112.91
433.39	2922.45
433.59	3215.31
433.80	3770.31
434.00	3246.03
434.21	3129.30
434.41	3188.69
434.62	3755.97
434.82	2992.08
435.03	2928.60
435.23	3358.67
435.44	2971.60
435.64	2969.55
435.85	3067.86
436.06	3528.65
436.26	3534.79
436.47	3002.32
436.67	2953.17
436.88	3272.65
437.08	3469.26
437.29	3149.78
437.49	3207.12
437.70	3530.70
437.90	3237.84
438.11	3295.18
438.31	3045.33
438.52	3561.42
438.72	3442.64
438.93	3438.54
439.13	3157.97
439.34	3467.21
439.54	3196.88
439.75	3145.68
439.95	3067.86
440.16	3172.30
440.36	3233.74
440.57	3082.19
440.77	3033.04
440.98	3338.19
441.18	3442.64
441.39	2928.60
441.59	2906.07
441.80	3655.62
442.00	3270.61
442.21	3078.10
442.41	2863.06
442.62	3565.51
442.82	3200.98
443.02	3090.38
443.23	3074.00
443.43	3170.26
443.64	3610.57
443.84	2914.26
444.05	3192.78
444.25	3254.22
444.46	3289.04
444.66	3063.76
444.87	3282.89
445.07	2959.31
445.28	3166.16
445.48	3229.65
445.69	3074.00
445.89	3860.42
446.09	3205.07
446.30	3381.20
446.50	3418.06
446.71	5021.62
446.91	6246.30
447.12	7090.07
447.32	7481.23
447.53	7579.53
447.73	6404.00
447.93	5580.71
448.14	5244.85
448.34	5457.84
448.55	4478.91
448.75	4470.72
448.96	4130.75
449.16	4157.38
449.36	3885.00
449.57	3330.00
449.77	3106.77
449.98	3266.51
450.18	3327.95
450.39	2959.31
450.59	3215.31
450.79	3188.69
451.00	3061.71
451.20	3286.99
451.41	3094.48
451.61	3385.29
451.81	3239.89
452.02	2942.93
452.22	3160.02
452.43	3076.05
452.63	3205.07
452.84	3069.91
453.04	3000.27
453.24	3373.00
453.45	3139.54
453.65	3145.68
453.86	3141.58
454.06	3325.90
454.26	3227.60
454.47	2983.89
454.67	3248.08
454.87	3356.62
455.08	3215.31
455.28	3233.74
455.49	3151.82
455.69	3110.86
455.89	3819.46
456.10	3086.29
456.30	3041.23
456.51	3413.96
456.71	3373.00
456.91	3233.74
457.12	3053.52
457.32	3286.99
457.52	3069.91
457.73	3211.22
457.93	3241.93
458.14	3157.97
458.34	2934.74
458.54	3131.34
458.75	3108.82
458.95	3516.36
459.15	3364.81
459.36	3147.73
459.56	3067.86
459.76	3833.80
459.97	3266.51
460.17	3033.04
460.37	3094.48
460.58	3311.57
460.78	3401.68
460.99	3065.81
461.19	3090.38
461.39	3102.67
461.60	3225.55
461.80	3153.87
462.00	2920.40
462.21	3270.61
462.41	3184.59
462.61	2904.02
462.82	2910.16
463.02	3286.99
463.22	3307.47
463.43	3061.71
463.63	3008.47
463.83	3561.42
464.04	3391.44
464.24	3061.71
464.44	3024.85
464.64	3219.41
464.85	3434.44
465.05	3090.38
465.25	2906.07
465.46	3200.98
465.66	3368.91
465.86	3110.86
466.07	2951.12
466.27	3178.45
466.47	3000.27
466.68	2828.24
466.88	3168.21
467.08	3454.92
467.29	3512.27
467.49	3061.71
467.69	3057.62
467.89	3418.06
468.10	3162.06
468.30	3151.82
468.50	3162.06
468.71	3452.88
468.91	2955.22
469.11	3198.93
469.31	3157.97
469.52	3039.19
469.72	3678.15
469.92	3401.68
470.13	3041.23
470.33	3286.99
470.53	3344.33
470.73	3502.03
470.94	3841.99
471.14	4196.29
471.34	4618.17
471.54	4380.61
471.75	3944.39
471.95	3907.52
472.15	3827.65
472.36	3637.19
472.56	3536.84
472.76	3776.45
472.96	3700.68
473.17	3420.11
473.37	3250.13
473.57	3203.02
473.77	3483.59
473.98	3219.41
474.18	2955.22
474.38	4042.69
474.58	3270.61
474.79	2947.03
474.99	3182.54
475.19	3575.75
475.39	3078.10
475.60	3168.21
475.80	2951.12
476.00	3258.32
476.20	3188.69
476.41	3112.91
476.61	3106.77
476.81	3581.90
477.01	3078.10
477.21	3373.00
477.42	3172.30
477.62	3110.86
477.82	3422.16
478.02	2965.46
478.23	3151.82
478.43	3055.57
478.63	3225.55
478.83	3119.06
479.03	3139.54
479.24	3588.04
479.44	3672.01
479.64	3000.27
479.84	2914.26
480.04	3233.74
480.25	3463.12
480.45	2992.08
480.65	3035.09
480.85	3559.37
481.06	3223.50
481.26	3143.63
481.46	2967.51
481.66	3327.95
481.86	3096.53
482.06	3264.46
482.27	3133.39
482.47	3219.41
482.67	3348.43
482.87	3119.06
483.07	3076.05
483.28	3139.54
483.48	3082.19
483.68	3057.62
483.88	2904.02
484.08	2865.11
484.29	3020.75
484.49	3182.54
484.69	2889.68
484.89	3518.41
485.09	3422.16
485.29	3078.10
485.50	3280.85
485.70	3207.12
485.90	3440.59
486.10	3266.51
486.30	3016.66
486.50	3428.30
486.71	3291.09
486.91	3123.15
487.11	3174.35
487.31	2990.03
487.51	3352.52
487.71	3037.14
487.91	2983.89
488.12	3053.52
488.32	2721.75
488.52	3035.09
488.72	2803.67
488.92	3375.05
489.12	3491.79
489.32	3262.41
489.53	3094.48
489.73	3051.47
489.93	3688.39
490.13	3037.14
490.33	2815.96
490.53	3336.14
490.73	3559.37
490.94	2936.79
491.14	3133.39
491.34	3297.23
491.54	3344.33
491.74	4005.83
491.94	4583.35
492.14	5175.22
492.34	5308.34
492.54	4767.67
492.75	4081.60
492.95	4435.90
493.15	4044.74
493.35	3737.54
493.55	3708.87
493.75	3727.30
493.95	3956.68
494.15	3409.87
494.35	3157.97
494.56	3289.04
494.76	3192.78
494.96	3203.02
495.16	3059.67
495.36	3252.17
495.56	3317.71
495.76	3153.87
495.96	2983.89
496.16	3123.15
496.36	3739.59
496.56	2985.94
496.77	3221.45
496.97	3164.11
497.17	3540.94
497.37	2861.01
497.57	3233.74
497.77	3385.29
497.97	3149.78
498.17	3110.86
498.37	3090.38
498.57	3370.96
498.77	3239.89
498.97	3254.22
499.17	3463.12
499.38	3307.47
499.58	3332.05
499.78	3170.26
499.98	3207.12
500.18	3248.08
500.38	3166.16
500.58	3176.40
500.78	3733.45
500.98	6061.99
501.18	8259.46
501.38	9650.03
501.58	10923.87
501.78	10729.31
501.98	8896.38
502.18	7530.38
502.38	6406.05
502.58	6479.77
502.78	5660.59
502.98	5470.12
503.18	5181.36
503.38	4945.84
503.59	4284.35
503.79	4163.52
503.99	3782.60
504.19	3876.80
504.39	3946.44
504.59	3653.58
504.79	3579.85
504.99	4061.12
505.19	3518.41
505.39	3311.57
505.59	3536.84
505.79	3727.30
505.99	3602.38
506.19	3207.12
506.39	3315.66
506.59	3137.49
506.79	3200.98
506.99	3405.77
507.19	3045.33
507.39	3373.00
507.59	2992.08
507.79	3053.52
507.99	2996.18
508.19	3401.68
508.39	3200.98
508.59	3082.19
508.79	3139.54
508.99	3700.68
509.19	3160.02
509.39	3082.19
509.59	2994.13
509.79	3170.26
509.99	3336.14
510.19	3211.22
510.39	3145.68
510.59	3286.99
510.79	3188.69
510.99	2914.26
511.19	2987.99
511.39	3624.90
511.59	3426.25
511.79	3205.07
511.99	3121.10
512.19	3612.62
512.38	3233.74
512.58	3102.67
512.78	3008.47
512.98	3459.02
513.18	3624.90
513.38	2990.03
513.58	3190.74
513.78	3235.79
513.98	3162.06
514.18	3028.95
514.38	3063.76
514.58	3192.78
514.78	3145.68
514.98	2973.65
515.18	3123.15
515.38	3033.04
515.58	3606.47
515.78	3030.99
515.98	3084.24
516.18	3438.54
516.38	3151.82
516.57	3004.37
516.77	3065.81
516.97	3373.00
517.17	3104.72
517.37	2846.68
517.57	3082.19
517.77	3239.89
517.97	3020.75
518.17	3135.44
518.37	2936.79
518.57	3135.44
518.77	3303.37
518.97	3112.91
519.16	3041.23
519.36	3487.69
519.56	3164.11
519.76	3004.37
519.96	3065.81
520.16	3614.66
520.36	3000.27
520.56	3215.31
520.76	3100.62
520.96	3209.17
521.16	3516.36
521.35	3278.80
521.55	3180.50
521.75	3327.95
521.95	3205.07
522.15	2967.51
522.35	2951.12
522.55	3037.14
522.75	3528.65
522.95	2975.70
523.14	2940.88
523.34	3307.47
523.54	3160.02
523.74	3168.21
523.94	3110.86
524.14	2967.51
524.34	3336.14
524.54	3289.04
524.73	3033.04
524.93	3450.83
525.13	3225.55
525.33	2983.89
525.53	3237.84
525.73	3459.02
525.93	3246.03
526.13	3104.72
526.32	2959.31
526.52	3508.17
526.72	3508.17
526.92	3176.40
527.12	2975.70
527.32	3008.47
527.52	3368.91
527.71	3164.11
527.91	3196.88
528.11	3172.30
528.31	3196.88
528.51	3028.95
528.71	3248.08
528.90	3375.05
529.10	3479.50
529.30	3078.10
529.50	2863.06
529.70	3346.38
529.90	3117.01
530.09	3074.00
530.29	2910.16
530.49	3125.20
530.69	3751.88
530.89	3203.02
531.09	3205.07
531.28	3231.69
531.48	3624.90
531.68	3090.38
531.88	3043.28
532.08	3446.73
532.28	3141.58
532.47	3176.40
532.67	3104.72
532.87	3416.01
533.07	3127.25
533.27	3057.62
533.46	3188.69
533.66	3383.24
533.86	3325.90
534.06	3147.73
534.26	3039.19
534.45	3221.45
534.65	3407.82
534.85	3157.97
535.05	3033.04
535.25	3428.30
535.44	2955.22
535.64	3123.15
535.84	3088.34
536.04	3170.26
536.24	3190.74
536.43	3065.81
536.63	3135.44
536.83	3246.03
537.03	3248.08
537.22	2877.40
537.42	2910.16
537.62	3405.77
537.82	3090.38
538.02	3323.85
538.21	3127.25
538.41	3835.85
538.61	3401.68
538.81	3057.62
539.00	3135.44
539.20	2996.18
539.40	3246.03
539.60	3094.48
539.79	3297.23
539.99	3254.22
540.19	3016.66
540.39	2971.60
540.58	3090.38
540.78	3508.17
540.98	3233.74
541.18	3313.61
541.37	3098.58
541.57	3311.57
541.77	3426.25
541.97	2981.84
542.16	2861.01
542.36	3196.88
542.56	3123.15
542.76	3233.74
542.95	3139.54
543.15	3317.71
543.35	3471.31
543.54	2947.03
543.74	2922.45
543.94	3559.37
544.14	3223.50
544.33	3192.78
544.53	3129.30
544.73	3209.17
544.93	3227.60
545.12	3057.62
545.32	3096.53
545.52	3188.69
545.71	3020.75
545.91	3065.81
546.11	2985.94
546.30	3057.62
546.50	3266.51
546.70	3100.62
546.90	3104.72
547.09	2883.54
547.29	3237.84
547.49	3166.16
547.68	3110.86
547.88	3127.25
548.08	3389.39
548.27	3385.29
548.47	3012.56
548.67	3102.67
548.87	3416.01
549.06	3065.81
549.26	2996.18
549.46	3344.33
549.65	3114.96
549.85	3098.58
550.05	3057.62
550.24	2975.70
550.44	3248.08
550.64	3094.48
550.83	3112.91
551.03	3579.85
551.23	3512.27
551.42	3061.71
551.62	3106.77
551.82	3272.65
552.01	3278.80
552.21	3403.72
552.41	3108.82
552.60	3620.81
552.80	3291.09
553.00	2977.75
553.19	3082.19
553.39	3614.66
553.59	3067.86
553.78	3225.55
553.98	2994.13
554.17	3024.85
554.37	3338.19
554.57	3110.86
554.76	2944.98
554.96	3200.98
555.16	3323.85
555.35	3143.63
555.55	3223.50
555.75	3340.24
555.94	3422.16
556.14	2914.26
556.33	3041.23
556.53	3237.84
556.73	3256.27
556.92	3043.28
557.12	2987.99
557.32	3672.01
557.51	3581.90
557.71	3129.30
557.90	3250.13
558.10	3477.45
558.30	3170.26
558.49	3022.80
558.69	3074.00
558.88	3393.48
559.08	3352.52
559.28	3172.30
559.47	3145.68
559.67	3467.21
559.86	3727.30
560.06	3069.91
560.26	3139.54
560.45	3422.16
560.65	3170.26
560.84	3389.39
561.04	2932.69
561.24	3416.01
561.43	3037.14
561.63	3295.18
561.82	3200.98
562.02	3403.72
562.22	3119.06
562.41	2983.89
562.61	2990.03
562.80	3172.30
563.00	3758.02
563.19	3174.35
563.39	3102.67
563.59	3334.09
563.78	3020.75
563.98	2889.68
564.17	3078.10
564.37	2918.36
564.56	3196.88
564.76	2932.69
564.96	3166.16
565.15	3330.00
565.35	3798.98
565.54	3092.43
565.74	3135.44
565.93	3381.20
566.13	3272.65
566.32	3106.77
566.52	3157.97
566.71	3262.41
566.91	3491.79
567.11	3211.22
567.30	3028.95
567.50	3424.20
567.69	3409.87
567.89	3082.19
568.08	2934.74
568.28	3276.75
568.47	3016.66
568.67	3127.25
568.86	3145.68
569.06	3477.45
569.25	3246.03
569.45	2967.51
569.64	3125.20
569.84	3231.69
570.04	3336.14
570.23	3037.14
570.43	3119.06
570.62	3323.85
570.82	3571.66
571.01	3024.85
571.21	3037.14
571.40	3096.53
571.60	3479.50
571.79	3147.73
571.99	3000.27
572.18	3084.24
572.38	3330.00
572.57	3176.40
572.77	3108.82
572.96	3776.45
573.16	3381.20
573.35	3086.29
573.55	3213.26
573.74	3284.94
573.94	3184.59
574.13	3055.57
574.33	3186.64
574.52	3551.18
574.71	3344.33
574.91	3123.15
575.10	2998.23
575.30	3151.82
575.49	3043.28
575.69	3030.99
575.88	3057.62
576.08	3258.32
576.27	3422.16
576.47	2983.89
576.66	3213.26
576.86	3495.88
577.05	3350.48
577.25	3160.02
577.44	3225.55
577.64	3248.08
577.83	3506.12
578.02	3090.38
578.22	3180.50
578.41	3684.30
578.61	3243.98
578.80	2934.74
579.00	3114.96
579.19	3344.33
579.39	3350.48
579.58	3131.34
579.77	3133.39
579.97	3555.27
580.16	3456.97
580.36	3284.94
580.55	3102.67
580.75	3389.39
580.94	3266.51
581.13	3237.84
581.33	3401.68
581.52	3264.46
581.72	3755.97
581.91	3231.69
582.11	3016.66
582.30	3448.78
582.49	3379.15
582.69	3389.39
582.88	3065.81
583.08	3399.63
583.27	3471.31
583.47	3192.78
583.66	3047.38
583.85	3090.38
584.05	3229.65
584.24	3272.65
584.44	3184.59
584.63	3452.88
584.82	3499.98
585.02	3325.90
585.21	3250.13
585.41	3389.39
585.60	3338.19
585.79	3348.43
585.99	3348.43
586.18	3272.65
586.37	4263.87
586.57	6420.38
586.76	17743.60
586.96	36916.68
587.15	50306.30
587.34	58850.43
587.54	62407.75
587.73	55868.59
587.93	40191.39
588.12	30774.83
588.31	25321.09
588.51	22808.23
588.70	20997.82
588.89	18296.55
589.09	15857.42
589.28	13653.81
589.47	10710.88
589.67	8138.63
589.86	6449.05
590.06	5042.10
590.25	4521.92
590.44	3934.15
590.64	3557.32
590.83	3590.09
591.02	3588.04
591.22	3166.16
591.41	3131.34
591.60	3274.70
591.80	3751.88
591.99	2979.79
592.18	3084.24
592.38	3428.30
592.57	3188.69
592.76	3004.37
592.96	3114.96
593.15	3264.46
593.34	3487.69
593.54	3057.62
593.73	3229.65
593.92	3356.62
594.12	3377.10
594.31	3141.58
594.50	3311.57
594.70	3442.64
594.89	3819.46
595.08	3000.27
595.28	3180.50
595.47	3997.64
595.66	3477.45
595.86	3080.14
596.05	3055.57
596.24	3186.64
596.43	3680.20
596.63	3151.82
596.82	3297.23
597.01	3499.98
597.21	3665.86
597.40	3045.33
597.59	3063.76
597.79	3278.80
597.98	3495.88
598.17	3102.67
598.36	3135.44
598.56	3483.59
598.75	3205.07
598.94	3151.82
599.14	3170.26
599.33	3164.11
599.52	3524.55
599.71	3117.01
599.91	3092.43
600.10	3491.79
600.29	3309.52
600.48	3092.43
600.68	3207.12
600.87	3336.14
601.06	3117.01
601.26	3200.98
601.45	3188.69
601.64	3219.41
601.83	3571.66
602.03	3045.33
602.22	2983.89
602.41	3594.19
602.60	3876.80
602.80	3139.54
602.99	3274.70
603.18	3223.50
603.37	3317.71
603.57	3016.66
603.76	3135.44
603.95	3532.75
604.14	3256.27
604.34	2942.93
604.53	3051.47
604.72	3403.72
604.91	3461.07
605.10	3137.49
605.30	2926.55
605.49	3725.26
605.68	3393.48
605.87	3067.86
606.07	3018.71
606.26	3229.65
606.45	3434.44
606.64	3131.34
606.84	2963.41
607.03	3272.65
607.22	3508.17
607.41	3129.30
607.60	3090.38
607.80	3456.97
607.99	3256.27
608.18	3125.20
608.37	3051.47
608.56	3110.86
608.76	3508.17
608.95	3235.79
609.14	3141.58
609.33	3540.94
609.52	3573.71
609.72	3153.87
609.91	3180.50
610.10	3250.13
610.29	3604.42
610.48	3223.50
610.68	3198.93
610.87	3260.37
611.06	3459.02
611.25	3082.19
611.44	3229.65
611.63	3186.64
611.83	3553.23
612.02	3002.32
612.21	3172.30
612.40	3004.37
612.59	2969.55
612.79	2981.84
612.98	3182.54
613.17	3577.80
613.36	3305.42
613.55	3196.88
613.74	3196.88
613.93	3297.23
614.13	3434.44
614.32	3282.89
614.51	3137.49
614.70	3299.28
614.89	3293.13
615.08	3166.16
615.28	3475.40
615.47	3139.54
615.66	3422.16
615.85	3131.34
616.04	3074.00
616.23	3338.19
616.42	3379.15
616.62	3102.67
616.81	3127.25
617.00	3270.61
617.19	3422.16
617.38	3164.11
617.57	3239.89
617.76	3442.64
617.95	3551.18
618.15	3252.17
618.34	3311.57
618.53	2965.46
618.72	3426.25
618.91	3162.06
619.10	3172.30
619.29	3338.19
619.48	3338.19
619.68	2987.99
619.87	3012.56
620.06	3041.23
620.25	3405.77
620.44	3014.61
620.63	3024.85
620.82	3286.99
621.01	3330.00
621.20	3090.38
621.39	3172.30
621.59	3268.56
621.78	3254.22
621.97	3071.95
622.16	3278.80
622.35	3366.86
622.54	3389.39
622.73	3184.59
622.92	2832.34
623.11	3434.44
623.30	3203.02
623.49	3190.74
623.68	2942.93
623.88	3542.99
624.07	3059.67
624.26	3045.33
624.45	3074.00
624.64	3149.78
624.83	3364.81
625.02	3119.06
625.21	2996.18
625.40	3344.33
625.59	3524.55
625.78	3143.63
625.97	3211.22
626.16	3555.27
626.35	3424.20
626.54	3092.43
626.74	3340.24
626.93	3182.54
627.12	3307.47
627.31	3174.35
627.50	3086.29
627.69	3401.68
627.88	3049.43
628.07	3035.09
628.26	2944.98
628.45	3114.96
628.64	3162.06
628.83	3035.09
629.02	2967.51
629.21	3413.96
629.40	3332.05
629.59	2959.31
629.78	2990.03
629.97	3301.33
630.16	3291.09
630.35	3057.62
630.54	3182.54
630.73	3188.69
630.92	3264.46
631.11	3008.47
631.30	3123.15
631.49	3518.41
631.68	3262.41
631.87	3119.06
632.06	3043.28
632.25	3712.97
632.44	3293.13
632.63	3157.97
632.82	3153.87
633.01	3160.02
633.20	3301.33
633.39	3057.62
633.58	2836.44
633.77	3377.10
633.96	3254.22
634.15	3194.83
634.34	3188.69
634.53	3377.10
634.72	3168.21
634.91	2955.22
635.10	3108.82
635.29	3370.96
635.48	3327.95
635.67	2983.89
635.86	2920.40
636.05	3583.95
636.24	3332.05
636.43	3041.23
636.62	3153.87
636.81	2914.26
637.00	3352.52
637.19	3061.71
637.38	3008.47
637.57	3207.12
637.76	3192.78
637.95	3278.80
638.14	3215.31
638.33	3360.72
638.52	3239.89
638.71	2992.08
638.89	2994.13
639.08	3911.62
639.27	3477.45
639.46	3358.67
639.65	3721.16
639.84	3954.63
640.03	3995.59
640.22	3663.82
640.41	3545.03
640.60	3448.78
640.79	3508.17
640.98	3364.81
641.17	3338.19
641.36	3540.94
641.55	3473.36
641.74	3026.90
641.92	3039.19
642.11	3106.77
642.30	3221.45
642.49	3090.38
642.68	2971.60
642.87	3303.37
643.06	3413.96
643.25	2916.31
643.44	2998.23
643.63	3241.93
643.82	3393.48
644.00	2971.60
644.19	3084.24
644.38	2983.89
644.57	3344.33
644.76	3086.29
644.95	3106.77
645.14	3270.61
645.33	3239.89
645.52	3215.31
645.71	2869.20
645.89	3067.86
646.08	3229.65
646.27	3039.19
646.46	3303.37
646.65	2975.70
646.84	3319.76
647.03	2944.98
647.22	3229.65
647.40	3274.70
647.59	3227.60
647.78	2828.24
647.97	2959.31
648.16	3151.82
648.35	3585.99
648.54	3348.43
648.73	3098.58
648.91	3465.16
649.10	3360.72
649.29	3026.90
649.48	3035.09
649.67	3348.43
649.86	3360.72
650.05	3139.54
650.23	3256.27
650.42	3176.40
650.61	3551.18
650.80	3282.89
650.99	3405.77
651.18	3420.11
651.36	3547.08
651.55	3028.95
651.74	3262.41
651.93	3209.17
652.12	3256.27
652.31	3096.53
652.49	3141.58
652.68	3192.78
652.87	3610.57
653.06	3223.50
653.25	3354.57
653.44	3219.41
653.62	3565.51
653.81	3145.68
654.00	3096.53
654.19	3479.50
654.38	3764.17
654.56	3188.69
654.75	3004.37
654.94	3405.77
655.13	3295.18
655.32	3094.48
655.51	3170.26
655.69	3094.48
655.88	3436.49
656.07	2947.03
656.26	3147.73
656.45	2996.18
656.63	3198.93
656.82	3053.52
657.01	3332.05
657.20	3106.77
657.38	3641.29
657.57	3045.33
657.76	2944.98
657.95	3360.72
658.14	3125.20
658.32	3256.27
658.51	2985.94
658.70	3301.33
658.89	3368.91
659.08	3100.62
659.26	3305.42
659.45	3022.80
659.64	3461.07
659.83	3094.48
660.01	3467.21
660.20	3338.19
660.39	3588.04
660.58	2762.71
660.76	3176.40
660.95	2975.70
661.14	3246.03
661.33	2910.16
661.51	3065.81
661.70	3196.88
661.89	3428.30
662.08	3086.29
662.26	2877.40
662.45	3076.05
662.64	3565.51
662.83	3166.16
663.01	2987.99
663.20	3147.73
663.39	3565.51
663.58	3123.15
663.76	3000.27
663.95	3434.44
664.14	3082.19
664.32	3164.11
664.51	2957.27
664.70	2914.26
664.89	3289.04
665.07	2957.27
665.26	3168.21
665.45	2940.88
665.64	3403.72
665.82	2942.93
666.01	3260.37
666.20	2985.94
666.38	3530.70
666.57	3409.87
666.76	5445.55
666.95	12746.56
667.13	20338.38
667.32	24628.87
667.51	28046.93
667.69	28884.55
667.88	23936.66
668.07	17438.45
668.25	14944.03
668.44	12625.73
668.63	11138.90
668.81	9742.19
669.00	8208.26
669.19	7663.50
669.38	6707.10
669.56	5621.67
669.75	5056.43
669.94	4376.51
670.12	3813.32
670.31	3436.49
670.50	3393.48
670.68	3510.22
670.87	3340.24
671.06	3114.96
671.24	3215.31
671.43	3674.06
671.62	3252.17
671.80	3133.39
671.99	3256.27
672.18	3442.64
672.36	3459.02
672.55	3254.22
672.74	3168.21
672.92	3237.84
673.11	3459.02
673.29	2953.17
673.48	3184.59
673.67	3213.26
673.85	3327.95
674.04	2914.26
674.23	3182.54
674.41	3680.20
674.60	3051.47
674.79	2850.77
674.97	2910.16
675.16	3405.77
675.34	3491.79
675.53	3053.52
675.72	3071.95
675.90	3700.68
676.09	3141.58
676.28	3184.59
676.46	2947.03
676.65	3387.34
676.83	3114.96
677.02	3117.01
677.21	3100.62
677.39	3364.81
677.58	3049.43
677.77	3055.57
677.95	2975.70
678.14	3174.35
678.32	3262.41
678.51	3082.19
678.70	3422.16
678.88	3131.34
679.07	3307.47
679.25	3074.00
679.44	3178.45
679.63	3061.71
679.81	3295.18
680.00	3321.81
680.18	3133.39
680.37	3581.90
680.55	3319.76
680.74	2930.64
680.93	2795.48
681.11	3375.05
681.30	3246.03
681.48	3039.19
681.67	3106.77
681.85	3282.89
682.04	3135.44
682.23	3229.65
682.41	3188.69
682.60	3231.69
682.78	3203.02
682.97	3074.00
683.15	3094.48
683.34	3330.00
683.53	3616.71
683.71	3016.66
683.90	3131.34
684.08	3706.82
684.27	3180.50
684.45	3155.92
684.64	3221.45
684.82	3289.04
685.01	3385.29
685.19	3014.61
685.38	3274.70
685.57	3262.41
685.75	3135.44
685.94	3041.23
686.12	2963.41
686.31	3172.30
686.49	3493.83
686.68	2813.91
686.86	3131.34
687.05	3272.65
687.23	3622.86
687.42	3160.02
687.60	2926.55
687.79	3551.18
687.97	3606.47
688.16	3264.46
688.34	3256.27
688.53	2979.79
688.71	3350.48
688.90	3385.29
689.08	3190.74
689.27	2877.40
689.45	3446.73
689.64	3260.37
689.82	3178.45
690.01	3393.48
690.19	3336.14
690.38	3182.54
690.56	3250.13
690.75	3065.81
690.93	3174.35
691.12	3004.37
691.30	3209.17
691.49	3215.31
691.67	3262.41
691.86	3385.29
692.04	3102.67
692.23	3180.50
692.41	3250.13
692.60	3428.30
692.78	3274.70
692.97	3221.45
693.15	3315.66
693.34	3321.81
693.52	3295.18
693.71	3203.02
693.89	3153.87
694.08	2887.64
694.26	3182.54
694.44	3403.72
694.63	3368.91
694.81	2957.27
695.00	3065.81
695.18	3569.61
695.37	3735.50
695.55	3225.55
695.74	3149.78
695.92	3008.47
696.10	3454.92
696.29	3010.51
696.47	3080.14
696.66	2967.51
696.84	3078.10
697.03	3135.44
697.21	3377.10
697.40	4712.38
697.58	3532.75
697.76	3045.33
697.95	3157.97
698.13	3014.61
698.32	3172.30
698.50	3065.81
698.68	3119.06
698.87	3278.80
699.05	3641.29
699.24	3090.38
699.42	3049.43
699.61	3375.05
699.79	3280.85
699.97	3102.67
700.16	2936.79
700.34	3065.81
700.53	3227.60
700.71	3315.66
700.89	3235.79
701.08	3061.71
701.26	3184.59
701.45	3452.88
701.63	3059.67
701.81	3123.15
702.00	3057.62
702.18	3194.83
702.37	3049.43
702.55	3499.98
702.73	3309.52
702.92	3162.06
703.10	3504.07
703.28	3461.07
703.47	3164.11
703.65	3379.15
703.84	3213.26
704.02	3145.68
704.20	3661.77
704.39	3024.85
704.57	3063.76
704.75	3459.02
704.94	3459.02
705.12	3264.46
705.30	4046.79
705.49	8662.91
705.67	16826.11
705.86	23541.40
706.04	26562.15
706.22	29652.54
706.41	28374.61
706.59	21153.47
706.77	16500.48
706.96	14151.46
707.14	12928.83
707.32	11118.42
707.51	9547.63
707.69	8013.70
707.87	6485.92
708.06	5433.26
708.24	4493.24
708.42	4073.41
708.61	4212.67
708.79	3256.27
708.97	3293.13
709.16	3461.07
709.34	3350.48
709.52	3147.73
709.71	3100.62
709.89	3442.64
710.07	3076.05
710.26	3024.85
710.44	3084.24
710.62	3426.25
710.80	3289.04
710.99	3233.74
711.17	3272.65
711.35	3088.34
711.54	3182.54
711.72	3262.41
711.90	3182.54
712.09	3317.71
712.27	3258.32
712.45	3209.17
712.63	3121.10
712.82	3297.23
713.00	3209.17
713.18	3250.13
713.37	3317.71
713.55	3463.12
713.73	3383.24
713.91	3168.21
714.10	3053.52
714.28	3336.14
714.46	3385.29
714.65	3205.07
714.83	3164.11
715.01	3299.28
715.19	3209.17
715.38	3002.32
715.56	3264.46
715.74	3024.85
715.92	3143.63
716.11	3364.81
716.29	2838.48
716.47	3176.40
716.65	3258.32
716.84	2998.23
717.02	3205.07
717.20	2891.73
717.38	3137.49
717.57	3219.41
717.75	3117.01
717.93	3176.40
718.11	3389.39
718.30	3053.52
718.48	3104.72
718.66	3510.22
718.84	3542.99
719.03	3121.10
719.21	2971.60
719.39	3639.24
719.57	3336.14
719.75	3241.93
719.94	3008.47
720.12	3311.57
720.30	3241.93
720.48	3131.34
720.67	3061.71
720.85	3110.86
721.03	3153.87
721.21	3080.14
721.39	3139.54
721.58	3327.95
721.76	3268.56
721.94	3098.58
722.12	3225.55
722.30	3631.05
722.49	3133.39
722.67	3139.54
722.85	3203.02
723.03	2971.60
723.21	3106.77
723.40	3078.10
723.58	3241.93
723.76	3434.44
723.94	3542.99
724.12	3174.35
724.30	3321.81
724.49	3459.02
724.67	3078.10
724.85	3219.41
725.03	3018.71
725.21	3387.34
725.40	3459.02
725.58	3143.63
725.76	3352.52
725.94	3338.19
726.12	3123.15
726.30	3151.82
726.49	3129.30
726.67	3141.58
726.85	3452.88
727.03	3979.20
727.21	5468.08
727.39	7323.54
727.57	7784.33
727.76	8390.53
727.94	8374.14
728.12	7145.36
728.30	5867.43
728.48	5498.80
728.66	5140.40
728.84	4749.24
729.03	4229.06
729.21	3776.45
729.39	3532.75
729.57	3319.76
729.75	3295.18
729.93	3332.05
730.11	3074.00
730.30	3182.54
730.48	3266.51
730.66	3170.26
730.84	3266.51
731.02	3336.14
731.20	3200.98
731.38	3133.39
731.56	2949.08
731.74	3071.95
731.93	3393.48
732.11	3229.65
732.29	3041.23
732.47	3368.91
732.65	3348.43
732.83	3297.23
733.01	3262.41
733.19	3135.44
733.37	3393.48
733.56	3100.62
733.74	2983.89
733.92	3690.44
734.10	3160.02
734.28	3309.52
734.46	2922.45
734.64	3213.26
734.82	3289.04
735.00	3098.58
735.18	2992.08
735.36	3282.89
735.54	3241.93
735.73	3059.67
735.91	3252.17
736.09	3532.75
736.27	3319.76
736.45	3192.78
736.63	2861.01
736.81	3174.35
736.99	3565.51
737.17	3383.24
737.35	3014.61
737.53	3344.33
737.71	3196.88
737.89	3323.85
738.07	3018.71
738.25	3147.73
738.43	3049.43
738.61	3065.81
738.80	2985.94
738.98	3065.81
739.16	3149.78
739.34	3057.62
739.52	3360.72
739.70	3262.41
739.88	3379.15
740.06	3217.36
740.24	2805.72
740.42	3540.94
740.60	2918.36
740.78	3037.14
740.96	2793.43
741.14	3176.40
741.32	3241.93
741.50	2916.31
741.68	3334.09
741.86	3583.95
742.04	3082.19
742.22	2981.84
742.40	3110.86
742.58	3370.96
742.76	3090.38
742.94	3286.99
743.12	3039.19
743.30	3262.41
743.48	3282.89
743.66	3028.95
743.84	3123.15
744.02	3260.37
744.20	3289.04
744.38	2977.75
744.56	3074.00
744.74	3626.95
744.92	3360.72
745.10	3272.65
745.28	3188.69
745.46	3536.84
745.64	3313.61
745.82	3203.02
746.00	2994.13
746.18	3420.11
746.36	3133.39
746.54	3125.20
746.72	3215.31
746.90	3033.04
747.08	3502.03
747.26	3092.43
747.44	3182.54
747.62	3368.91
747.80	3340.24
747.98	3184.59
748.15	3088.34
748.33	3588.04
748.51	3356.62
748.69	3213.26
748.87	2967.51
749.05	3237.84
749.23	3180.50
749.41	3071.95
749.59	3069.91
749.77	3413.96
749.95	3188.69
750.13	3063.76
750.31	3215.31
750.49	3184.59
750.67	3407.82
750.85	3241.93
751.03	3049.43
751.20	3686.34
751.38	3356.62
751.56	3100.62
751.74	3057.62
751.92	3225.55
752.10	3041.23
752.28	3276.75
752.46	3020.75
752.64	3346.38
752.82	3301.33
753.00	3217.36
753.18	2979.79
753.35	3246.03
753.53	3268.56
753.71	2971.60
753.89	3194.83
754.07	3254.22
754.25	3432.40
754.43	3198.93
754.61	2932.69
754.79	3362.76
754.97	3205.07
755.14	3334.09
755.32	2926.55
755.50	3274.70
755.68	3266.51
755.86	3024.85
756.04	3088.34
756.22	2904.02
756.40	3428.30
756.57	3317.71
756.75	3000.27
756.93	3487.69
757.11	3518.41
757.29	2934.74
757.47	3024.85
757.65	2973.65
757.82	2719.70
758.00	3016.66
758.18	2893.78
758.36	3084.24
758.54	3665.86
758.72	2990.03
758.90	3172.30
759.07	3403.72
759.25	3030.99
759.43	3147.73
759.61	2955.22
759.79	4466.62
759.97	3502.03
760.15	3164.11
760.32	3084.24
760.50	3403.72
760.68	3596.23
760.86	2873.30
761.04	3278.80
761.22	3487.69
761.39	3319.76
761.57	3207.12
761.75	3110.86
761.93	3395.53
762.11	3313.61
762.28	3278.80
762.46	2951.12
762.64	3516.36
762.82	2961.36
763.00	2998.23
763.18	3280.85
763.35	3078.10
763.53	3336.14
763.71	3139.54
763.89	3055.57
764.07	3225.55
764.24	3246.03
764.42	3231.69
764.60	3155.92
764.78	3348.43
764.96	3393.48
765.13	3293.13
765.31	2998.23
765.49	3407.82
765.67	3061.71
765.84	2987.99
766.02	3028.95
766.20	2918.36
766.38	3305.42
766.56	3209.17
766.73	3155.92
766.91	3205.07
767.09	3286.99
767.27	3192.78
767.44	2990.03
767.62	3409.87
767.80	3176.40
767.98	3080.14
768.15	3149.78
768.33	3448.78
768.51	3465.16
768.69	3254.22
768.87	3090.38
769.04	3336.14
769.22	3811.27
769.40	3209.17
769.58	3221.45
769.75	3387.34
769.93	3545.03
770.11	3137.49
770.28	2967.51
770.46	3405.77
770.64	3375.05
770.82	3143.63
770.99	2934.74
771.17	3315.66
771.35	3106.77
771.53	3110.86
771.70	3108.82
771.88	3430.35
772.06	3239.89
772.23	2961.36
772.41	3160.02
772.59	3203.02
772.77	3108.82
772.94	3143.63
773.12	3221.45
773.30	3229.65
773.47	3317.71
773.65	2963.41
773.83	3307.47
774.01	3258.32
774.18	2906.07
774.36	3041.23
774.54	2957.27
774.71	3413.96
774.89	2985.94
775.07	2959.31
775.24	3028.95
775.42	3258.32
775.60	3731.40
775.78	3014.61
775.95	2924.50
776.13	2916.31
776.31	2934.74
776.48	3229.65
776.66	3334.09
776.84	3248.08
777.01	3069.91
777.19	2928.60
777.37	3002.32
777.54	3403.72
777.72	3762.12
777.90	3209.17
778.07	3000.27
778.25	3897.28
778.43	3430.35
778.60	3051.47
778.78	3227.60
778.96	3473.36
779.13	3043.28
779.31	3157.97
779.49	3133.39
779.66	3358.67
779.84	3157.97
780.01	3051.47
780.19	3010.51
780.37	3534.79
780.54	3307.47
780.72	2969.55
780.90	3065.81
781.07	3205.07
781.25	3106.77
781.43	3286.99
781.60	3065.81
781.78	3508.17
781.95	3293.13
782.13	3041.23
782.31	3049.43
782.48	2854.87
782.66	3252.17
782.83	3313.61
783.01	3207.12
783.19	3428.30
783.36	3215.31
783.54	2916.31
783.72	3209.17
783.89	3198.93
784.07	3235.79
784.24	3260.37
784.42	3307.47
784.60	3383.24
784.77	3254.22
784.95	2887.64
785.12	3065.81
785.30	3231.69
785.47	3086.29
785.65	2944.98
785.83	3106.77
786.00	3141.58
786.18	3344.33
786.35	3049.43
786.53	2987.99
786.71	3485.64
786.88	3418.06
787.06	3198.93
787.23	3147.73
787.41	3065.81
787.58	3205.07
787.76	2987.99
787.94	3078.10
788.11	3373.00
788.29	3084.24
788.46	3090.38
788.64	2934.74
788.81	3127.25
788.99	3143.63
789.16	3020.75
789.34	3053.52
789.52	3086.29
789.69	3200.98
789.87	2852.82
790.04	3084.24
790.22	3233.74
790.39	3706.82
790.57	3004.37
790.74	3041.23
790.92	3446.73
791.09	2983.89
791.27	3106.77
791.44	3157.97
791.62	3307.47
791.79	3422.16
791.97	3143.63
792.15	3450.83
792.32	3475.40
792.50	3358.67
792.67	3239.89
792.85	3409.87
793.02	3338.19
793.20	3164.11
793.37	2953.17
793.55	2998.23
793.72	3024.85
793.90	3428.30
794.07	3088.34
794.25	3008.47
794.42	3295.18
794.60	3221.45
794.77	3133.39
794.95	3102.67
795.12	3495.88
795.30	3313.61
795.47	2918.36
795.65	3356.62
795.82	3336.14
796.00	3110.86
796.17	3117.01
796.34	3090.38
796.52	3418.06
796.69	3350.48
796.87	3217.36
797.04	3200.98
797.22	3452.88
797.39	3330.00
797.57	3198.93
797.74	3160.02
797.92	3354.57
798.09	3164.11
798.27	3370.96
798.44	3057.62
798.62	3184.59
798.79	3241.93
798.96	3186.64
799.14	3035.09
799.31	3778.50
799.49	3221.45
799.66	3098.58
799.84	3172.30
800.01	2947.03
800.19	3303.37
800.36	2914.26
800.53	3139.54
800.71	3297.23
800.88	3590.09
801.06	3008.47
801.23	3074.00
801.41	3137.49
801.58	3227.60
801.75	3022.80
801.93	3135.44
802.10	3391.44
802.28	3157.97
802.45	3094.48
802.63	3145.68
802.80	3426.25
802.97	3239.89
803.15	3061.71
803.32	3057.62
803.50	3155.92
803.67	3106.77
803.84	2983.89
804.02	3221.45
804.19	3293.13
804.37	2815.96
804.54	2858.96
804.71	3084.24
804.89	3225.55
805.06	3133.39
805.24	2957.27
805.41	2924.50
805.58	3168.21
805.76	3774.41
805.93	3053.52
806.10	3205.07
806.28	3362.76
806.45	3243.98
806.63	3221.45
806.80	3149.78
806.97	3303.37
807.15	3262.41
807.32	3057.62
807.49	3110.86
807.67	2975.70
807.84	3352.52
808.01	2889.68
808.19	3256.27
808.36	3753.93
808.54	3065.81
808.71	3004.37
808.88	3037.14
809.06	3499.98
809.23	3569.61
809.40	3129.30
809.58	3043.28
809.75	3299.28
809.92	3033.04
810.10	3332.05
810.27	3071.95
810.44	3311.57
810.62	3381.20
810.79	3063.76
810.96	3090.38
811.14	3162.06
811.31	3420.11
811.48	3248.08
811.66	3166.16
811.83	3504.07
812.00	3272.65
812.18	3243.98
812.35	3473.36
812.52	3176.40
812.69	3174.35
812.87	3078.10
813.04	3059.67
813.21	3278.80
813.39	3104.72
813.56	3055.57
813.73	3336.14
813.91	2959.31
814.08	3213.26
814.25	3121.10
814.42	2914.26
814.60	3162.06
814.77	3221.45
814.94	3014.61
815.12	3160.02
815.29	3590.09
815.46	3205.07
815.63	3151.82
815.81	2990.03
815.98	3131.34
816.15	3213.26
816.33	3162.06
816.50	3094.48
816.67	3309.52
816.84	3188.69
817.02	3063.76
817.19	3030.99
817.36	3299.28
817.53	3360.72
817.71	3000.27
817.88	3121.10
818.05	3250.13
818.22	3200.98
818.40	3299.28
818.57	2983.89
818.74	3393.48
818.91	3301.33
819.09	3289.04
819.26	3190.74
819.43	3172.30
819.60	3051.47
819.78	3215.31
819.95	3160.02
820.12	3102.67
820.29	3473.36
820.47	3352.52
820.64	2936.79
820.81	3047.38
820.98	3164.11
821.15	3063.76
821.33	3170.26
821.50	3002.32
821.67	3385.29
821.84	3039.19
822.02	3147.73
822.19	3442.64
822.36	3131.34
822.53	2967.51
822.70	2961.36
822.88	3186.64
823.05	3502.03
823.22	3155.92
823.39	3051.47
823.56	3217.36
823.74	3672.01
823.91	2947.03
824.08	3000.27
824.25	3018.71
824.42	3590.09
824.60	2944.98
824.77	3207.12
824.94	3264.46
825.11	3434.44
825.28	2861.01
825.45	3207.12
825.63	3327.95
825.80	3051.47
825.97	3196.88
826.14	3139.54
826.31	2926.55
826.48	3311.57
826.66	3033.04
826.83	3039.19
827.00	3184.59
827.17	3100.62
827.34	3061.71
827.51	2959.31
827.69	3270.61
827.86	2912.21
828.03	3119.06
828.20	3106.77
828.37	3143.63
828.54	3383.24
828.71	3008.47
828.89	3166.16
829.06	3356.62
829.23	3551.18
829.40	3121.10
829.57	3000.27
829.74	3502.03
829.91	3205.07
830.09	2971.60
830.26	3254.22
830.43	3700.68
830.60	3155.92
830.77	3166.16
830.94	3295.18
831.11	3397.58
831.28	3198.93
831.46	3188.69
831.63	3041.23
831.80	3481.55
831.97	3084.24
832.14	3090.38
832.31	3119.06
832.48	3286.99
832.65	3491.79
832.82	3149.78
832.99	3149.78
833.17	2987.99
833.34	3508.17
833.51	2981.84
833.68	2824.15
833.85	3467.21
834.02	3024.85
834.19	3102.67
834.36	3139.54
834.53	3297.23
834.70	3528.65
834.87	3106.77
835.04	2852.82
835.22	3096.53
835.39	3190.74
835.56	2856.92
835.73	2883.54
835.90	3518.41
836.07	3065.81
836.24	3014.61
836.41	2910.16
836.58	3119.06
836.75	3438.54
836.92	2942.93
837.09	2899.92
837.26	3334.09
837.43	3358.67
837.60	3002.32
837.77	2922.45
837.94	3502.03
838.12	3450.83
838.29	2877.40
838.46	2856.92
838.63	3004.37
838.80	3577.80
838.97	2934.74
839.14	2869.20
839.31	3340.24
839.48	3463.12
839.65	2877.40
839.82	2998.23
839.99	3297.23
840.16	3280.85
840.33	2863.06
840.50	3024.85
840.67	3170.26
840.84	2838.48
841.01	2852.82
841.18	2928.60
841.35	3233.74
841.52	3338.19
841.69	3237.84
841.86	2951.12
842.03	3239.89
842.20	3407.82
842.37	2959.31
842.54	2965.46
842.71	3233.74
842.88	2985.94
843.05	2940.88
843.22	2887.64
843.39	3483.59
843.56	3106.77
843.73	2901.97
843.90	2977.75
844.07	3246.03
844.24	3481.55
844.41	2951.12
844.58	2887.64
844.75	3211.22
844.92	3418.06
845.09	2906.07
845.26	2930.64
845.43	3366.86
845.60	3106.77
845.77	3059.67
845.94	3030.99
846.10	3448.78
846.27	2967.51
846.44	2811.86
846.61	2828.24
846.78	3407.82
846.95	3499.98
847.12	2893.78
847.29	2947.03
847.46	3008.47
847.63	3420.11
847.80	2912.21
847.97	2897.88
848.14	3712.97
848.31	3250.13
848.48	2848.72
848.65	2904.02
848.82	3149.78
848.98	3682.25
849.15	3004.37
849.32	3078.10
849.49	3463.12
849.66	3182.54
849.83	2865.11
850.00	2789.33
850.17	3440.59
850.34	3239.89
850.51	2844.63
850.68	2983.89
850.85	3790.79
851.01	3340.24
851.18	2854.87
851.35	2928.60
851.52	3348.43
851.69	3629.00
851.86	2869.20
852.03	2856.92
852.20	3413.96
852.37	3303.37
852.53	2795.48
852.70	2813.91
852.87	3235.79
853.04	3389.39
853.21	2836.44
853.38	3213.26
853.55	3520.46
853.72	3508.17
853.89	2775.00
854.05	2926.55
854.22	3151.82
854.39	3186.64
854.56	2822.10
854.73	3082.19
854.90	3090.38
855.07	3286.99
855.23	2811.86
855.40	2861.01
855.57	3205.07
855.74	2822.10
855.91	3059.67
856.08	2834.39
856.25	3033.04
856.41	3194.83
856.58	2938.84
856.75	2936.79
856.92	3016.66
857.09	3502.03
857.26	2744.28
857.42	3026.90
857.59	3481.55
857.76	3194.83
857.93	2887.64
858.10	2953.17
858.27	3086.29
858.43	3297.23
858.60	2983.89
858.77	2779.09
858.94	3184.59
859.11	3487.69
859.27	2955.22
859.44	2818.00
859.61	3704.78
859.78	3342.28
859.95	2932.69
860.12	2746.33
860.28	3725.26
860.45	3686.34
860.62	2838.48
860.79	2959.31
860.95	3203.02
861.12	3131.34
861.29	2959.31
861.46	2936.79
861.63	3192.78
861.79	3360.72
861.96	2725.85
862.13	2906.07
862.30	3594.19
862.47	3137.49
862.63	2779.09
862.80	2983.89
862.97	3467.21
863.14	3307.47
863.30	2910.16
863.47	2930.64
863.64	3573.71
863.81	3237.84
863.97	2813.91
864.14	2944.98
864.31	3200.98
864.48	3336.14
864.65	2965.46
864.81	2918.36
864.98	3381.20
865.15	3387.34
865.32	2994.13
865.48	3010.51
865.65	3598.28
865.82	3190.74
865.98	3045.33
866.15	2971.60
866.32	3289.04
866.49	3168.21
866.65	3098.58
866.82	2918.36
866.99	3205.07
867.16	3086.29
867.32	2979.79
867.49	2731.99
867.66	3157.97
867.83	3127.25
867.99	2871.25
868.16	2920.40
868.33	3000.27
868.49	3213.26
868.66	2912.21
868.83	2998.23
868.99	3198.93
869.16	3221.45
869.33	3035.09
869.50	2955.22
869.66	3309.52
869.83	3221.45
870.00	2861.01
870.16	3063.76
870.33	3284.94
870.50	3346.38
870.66	3018.71
870.83	2973.65
871.00	3256.27
871.17	3379.15
871.33	3020.75
871.50	2820.05
871.67	3229.65
871.83	2959.31
872.00	3030.99
872.17	2932.69
872.33	3538.89
872.50	3497.93
872.67	2869.20
872.83	2904.02
873.00	3311.57
873.17	3180.50
873.33	2949.08
873.50	3030.99
873.67	3074.00
873.83	3180.50
874.00	2895.83
874.16	3028.95
874.33	3274.70
874.50	3018.71
874.66	2867.16
874.83	3084.24
875.00	3471.31
875.16	3461.07
875.33	3090.38
875.50	2645.98
875.66	3125.20
875.83	3268.56
875.99	3033.04
876.16	3035.09
876.33	3006.42
876.49	3229.65
876.66	2920.40
876.83	2967.51
876.99	2975.70
877.16	3246.03
877.32	2932.69
877.49	2955.22
877.66	3354.57
877.82	3549.13
877.99	3053.52
878.15	3282.89
878.32	3334.09
878.49	3315.66
878.65	2914.26
878.82	3168.21
878.98	3047.38
879.15	3471.31
879.32	3127.25
879.48	3131.34
879.65	3209.17
879.81	3233.74
879.98	2998.23
880.15	3006.42
880.31	3448.78
880.48	3135.44
880.64	3035.09
880.81	3098.58
880.97	3692.49
881.14	3545.03
881.31	2910.16
881.47	3106.77
881.64	3205.07
881.80	2996.18
881.97	3082.19
882.13	2879.44
882.30	3049.43
882.47	3153.87
882.63	2895.83
882.80	2805.72
882.96	3256.27
883.13	3403.72
883.29	2852.82
883.46	2916.31
883.62	3723.21
883.79	3211.22
883.95	3104.72
884.12	2904.02
884.29	3483.59
884.45	3225.55
884.62	2869.20
884.78	2856.92
884.95	3504.07
885.11	3100.62
885.28	2996.18
885.44	2942.93
885.61	3362.76
885.77	3428.30
885.94	3039.19
886.10	3037.14
886.27	3221.45
886.43	3606.47
886.60	3168.21
886.76	2906.07
886.93	3088.34
887.09	3256.27
887.26	2787.29
887.42	3041.23
887.59	3512.27
887.75	3696.58
887.92	3102.67
888.08	3071.95
888.25	3702.73
888.41	3442.64
888.58	3002.32
888.74	2795.48
888.91	3117.01
>>>>>End Processed Spectral Data<<<<<
