SpectraSuite Data File
++++++++++++++++++++++++++++++++++++
Date: Fri May 06 08:13:53 CEST 2016
User: root
Dark Spectrum Present: No
Reference Spectrum Present: No
Number of Sampled Component Spectra: 1
Spectrometers: USB4C02835
Integration Time (usec): 100000 (USB4C02835)
Spectra Averaged: 1 (USB4C02835)
Boxcar Smoothing: 0 (USB4C02835)
Correct for Electrical Dark: No (USB4C02835)
Strobe/Lamp Enabled: No (USB4C02835)
Correct for Detector Non-linearity: No (USB4C02835)
Correct for Stray Light: No (USB4C02835)
Number of Pixels in Processed Spectrum: 3648
>>>>>Begin Processed Spectral Data<<<<<
177.47	2322.40
177.69	2322.40
177.91	2322.40
178.13	2181.09
178.36	2166.75
178.58	2977.75
178.80	3057.62
179.02	3008.47
179.24	3057.62
179.46	2738.13
179.68	2811.86
179.90	3209.17
180.13	3303.37
180.35	2705.37
180.57	2838.48
180.79	3434.44
181.01	3278.80
181.23	2828.24
181.45	2959.31
181.67	3409.87
181.90	3485.64
182.12	2934.74
182.34	2721.75
182.56	3381.20
182.78	3399.63
183.00	2791.38
183.22	2863.06
183.44	2975.70
183.66	3958.72
183.89	2981.84
184.11	2850.77
184.33	3405.77
184.55	3575.75
184.77	2840.53
184.99	2813.91
185.21	3256.27
185.43	3803.08
185.65	2854.87
185.87	2813.91
186.10	3721.16
186.32	3786.69
186.54	2977.75
186.76	3069.91
186.98	3569.61
187.20	3227.60
187.42	2846.68
187.64	2826.20
187.86	3397.58
188.08	3518.41
188.30	2717.65
188.52	2912.21
188.75	3614.66
188.97	3516.36
189.19	2840.53
189.41	2758.61
189.63	3405.77
189.85	3243.98
190.07	2656.22
190.29	2766.81
190.51	3395.53
190.73	2961.36
190.95	3104.72
191.17	2893.78
191.39	3074.00
191.61	3213.26
191.84	2832.34
192.06	3074.00
192.28	2987.99
192.50	3999.68
192.72	2992.08
192.94	2953.17
193.16	3567.56
193.38	3375.05
193.60	2756.57
193.82	3030.99
194.04	3508.17
194.26	3303.37
194.48	2914.26
194.70	2846.68
194.92	3260.37
195.14	3428.30
195.36	2770.90
195.58	3018.71
195.80	3264.46
196.02	3219.41
196.24	2832.34
196.46	2936.79
196.69	3231.69
196.91	3753.93
197.13	2985.94
197.35	2918.36
197.57	3571.66
197.79	3391.44
198.01	2889.68
198.23	2914.26
198.45	3368.91
198.67	3078.10
198.89	2697.17
199.11	2932.69
199.33	3129.30
199.55	2922.45
199.77	2791.38
199.99	3053.52
200.21	3092.43
200.43	3360.72
200.65	2664.41
200.87	2660.31
201.09	3385.29
201.31	3190.74
201.53	2920.40
201.75	2926.55
201.97	3321.81
202.19	3231.69
202.41	2955.22
202.63	2985.94
202.85	3426.25
203.07	3428.30
203.29	2994.13
203.51	2783.19
203.73	3110.86
203.95	3925.96
204.17	2891.73
204.39	3084.24
204.61	3227.60
204.83	3149.78
205.05	3094.48
205.27	2906.07
205.49	3747.78
205.71	3254.22
205.93	2779.09
206.15	2775.00
206.37	3381.20
206.59	3248.08
206.81	2731.99
207.03	2772.95
207.25	3131.34
207.47	3366.86
207.69	2830.29
207.91	3112.91
208.13	3614.66
208.34	3114.96
208.56	2824.15
208.78	2897.88
209.00	3188.69
209.22	3160.02
209.44	2875.35
209.66	2795.48
209.88	3282.89
210.10	3237.84
210.32	2883.54
210.54	2906.07
210.76	3192.78
210.98	3524.55
211.20	2695.13
211.42	2994.13
211.64	3514.31
211.86	3481.55
212.08	2959.31
212.30	2910.16
212.52	3205.07
212.74	3409.87
212.96	2975.70
213.17	2932.69
213.39	3403.72
213.61	3565.51
213.83	2766.81
214.05	2770.90
214.27	3592.14
214.49	3076.05
214.71	2871.25
214.93	2987.99
215.15	3293.13
215.37	3524.55
215.59	2738.13
215.81	2918.36
216.03	3614.66
216.24	3282.89
216.46	2850.77
216.68	2871.25
216.90	3332.05
217.12	3426.25
217.34	2803.67
217.56	3065.81
217.78	3557.32
218.00	3409.87
218.22	2975.70
218.44	2967.51
218.66	3340.24
218.87	3665.86
219.09	2932.69
219.31	2844.63
219.53	3389.39
219.75	3229.65
219.97	2875.35
220.19	2828.24
220.41	3274.70
220.63	3551.18
220.85	2879.44
221.06	2897.88
221.28	3549.13
221.50	3368.91
221.72	2920.40
221.94	2715.61
222.16	3256.27
222.38	3389.39
222.60	2809.81
222.82	2940.88
223.03	3428.30
223.25	3061.71
223.47	2781.14
223.69	3119.06
223.91	3493.83
224.13	3270.61
224.35	2779.09
224.57	3020.75
224.78	3450.83
225.00	3074.00
225.22	2920.40
225.44	2867.16
225.66	3567.56
225.88	3164.11
226.10	2983.89
226.32	2877.40
226.53	3653.58
226.75	3209.17
226.97	2975.70
227.19	2877.40
227.41	3135.44
227.63	3151.82
227.85	2684.89
228.06	2955.22
228.28	3428.30
228.50	3450.83
228.72	2695.13
228.94	2832.34
229.16	2942.93
229.37	3004.37
229.59	2852.82
229.81	3106.77
230.03	3205.07
230.25	2985.94
230.47	2717.65
230.69	2828.24
230.90	3473.36
231.12	3168.21
231.34	2914.26
231.56	3000.27
231.78	3080.14
232.00	3266.51
232.21	2975.70
232.43	2879.44
232.65	2840.53
232.87	3344.33
233.09	2744.28
233.30	2756.57
233.52	3616.71
233.74	3237.84
233.96	2805.72
234.18	3100.62
234.40	3241.93
234.61	3835.85
234.83	2766.81
235.05	2881.49
235.27	3774.41
235.49	3524.55
235.70	2727.89
235.92	2871.25
236.14	3442.64
236.36	3813.32
236.58	2758.61
236.79	3024.85
237.01	3250.13
237.23	3262.41
237.45	3012.56
237.67	2828.24
237.88	3311.57
238.10	3667.91
238.32	2766.81
238.54	2840.53
238.76	3258.32
238.97	3092.43
239.19	2781.14
239.41	2938.84
239.63	3651.53
239.85	3192.78
240.06	2983.89
240.28	2772.95
240.50	3436.49
240.72	3266.51
240.93	2740.18
241.15	2967.51
241.37	3264.46
241.59	3598.28
241.81	2887.64
242.02	2885.59
242.24	3344.33
242.46	3418.06
242.68	2672.60
242.89	2838.48
243.11	3467.21
243.33	3155.92
243.55	2854.87
243.76	2844.63
243.98	3184.59
244.20	3260.37
244.42	2887.64
244.64	2828.24
244.85	3108.82
245.07	3078.10
245.29	2951.12
245.51	2965.46
245.72	3252.17
245.94	3459.02
246.16	2811.86
246.38	2889.68
246.59	3190.74
246.81	3190.74
247.03	2731.99
247.24	2750.42
247.46	3188.69
247.68	3364.81
247.90	2793.43
248.11	2830.29
248.33	3381.20
248.55	3272.65
248.77	2895.83
248.98	2975.70
249.20	3684.30
249.42	3272.65
249.64	2805.72
249.85	2797.53
250.07	3145.68
250.29	3459.02
250.50	3045.33
250.72	2756.57
250.94	3323.85
251.16	3729.35
251.37	2809.81
251.59	2971.60
251.81	3409.87
252.02	3600.33
252.24	2795.48
252.46	2983.89
252.68	3180.50
252.89	3059.67
253.11	2666.46
253.33	3061.71
253.54	3612.62
253.76	3090.38
253.98	2852.82
254.20	2881.49
254.41	3053.52
254.63	3264.46
254.85	2731.99
255.06	2916.31
255.28	3377.10
255.50	3192.78
255.71	2770.90
255.93	2787.29
256.15	3272.65
256.36	3330.00
256.58	2756.57
256.80	2729.94
257.02	3200.98
257.23	3180.50
257.45	2936.79
257.67	3020.75
257.88	3180.50
258.10	3379.15
258.32	2826.20
258.53	3000.27
258.75	3592.14
258.97	3186.64
259.18	2766.81
259.40	2811.86
259.62	3616.71
259.83	3467.21
260.05	2947.03
260.27	3803.08
260.48	3428.30
260.70	3092.43
260.92	2803.67
261.13	2887.64
261.35	3344.33
261.57	3397.58
261.78	2830.29
262.00	2787.29
262.22	3422.16
262.43	3008.47
262.65	2836.44
262.86	2885.59
263.08	3768.26
263.30	3250.13
263.51	2678.74
263.73	2844.63
263.95	3643.34
264.16	2981.84
264.38	2717.65
264.60	2779.09
264.81	3307.47
265.03	3549.13
265.25	3325.90
265.46	2815.96
265.68	3497.93
265.89	3471.31
266.11	2729.94
266.33	2752.47
266.54	3567.56
266.76	3327.95
266.98	2834.39
267.19	3014.61
267.41	3489.74
267.62	3184.59
267.84	2633.69
268.06	3053.52
268.27	3291.09
268.49	3512.27
268.70	2867.16
268.92	2863.06
269.14	3123.15
269.35	2979.79
269.57	3045.33
269.79	2904.02
270.00	3188.69
270.22	3622.86
270.43	2770.90
270.65	2662.36
270.87	3373.00
271.08	3497.93
271.30	3004.37
271.51	2832.34
271.73	3424.20
271.95	3495.88
272.16	2830.29
272.38	3051.47
272.59	3137.49
272.81	3346.38
273.02	2777.05
273.24	2971.60
273.46	3446.73
273.67	3071.95
273.89	2807.77
274.10	2838.48
274.32	3487.69
274.54	3422.16
274.75	2936.79
274.97	2887.64
275.18	3393.48
275.40	3436.49
275.61	2863.06
275.83	3076.05
276.05	3043.28
276.26	3243.98
276.48	2955.22
276.69	3082.19
276.91	3106.77
277.12	3571.66
277.34	3057.62
277.55	3088.34
277.77	3188.69
277.99	3180.50
278.20	3053.52
278.42	2930.64
278.63	3149.78
278.85	3008.47
279.06	2967.51
279.28	3110.86
279.49	3536.84
279.71	3358.67
279.93	2967.51
280.14	3065.81
280.36	3114.96
280.57	3518.41
280.79	3045.33
281.00	2926.55
281.22	3225.55
281.43	3524.55
281.65	2760.66
281.86	2885.59
282.08	3434.44
282.29	3631.05
282.51	2893.78
282.73	2914.26
282.94	3049.43
283.16	3413.96
283.37	3147.73
283.59	2998.23
283.80	3323.85
284.02	3295.18
284.23	3053.52
284.45	2985.94
284.66	3125.20
284.88	3127.25
285.09	2836.44
285.31	3125.20
285.52	3286.99
285.74	2969.55
285.95	3219.41
286.17	3049.43
286.38	3549.13
286.60	3237.84
286.81	2959.31
287.03	2922.45
287.24	3213.26
287.46	3391.44
287.67	3123.15
287.89	3262.41
288.10	3325.90
288.32	3262.41
288.53	3155.92
288.75	2985.94
288.96	3405.77
289.18	3211.22
289.39	2934.74
289.61	3074.00
289.82	3682.25
290.04	3760.07
290.25	2856.92
290.47	3100.62
290.68	3237.84
290.90	3504.07
291.11	2846.68
291.33	3207.12
291.54	3092.43
291.76	3114.96
291.97	3096.53
292.18	3110.86
292.40	3262.41
292.61	3114.96
292.83	3332.05
293.04	3004.37
293.26	3387.34
293.47	3221.45
293.69	2877.40
293.90	2904.02
294.12	3518.41
294.33	3336.14
294.55	3094.48
294.76	3203.02
294.97	3585.99
295.19	3659.72
295.40	2942.93
295.62	3082.19
295.83	3499.98
296.05	3092.43
296.26	3196.88
296.48	2944.98
296.69	3211.22
296.90	3237.84
297.12	3151.82
297.33	3166.16
297.55	3364.81
297.76	3399.63
297.98	3125.20
298.19	3219.41
298.41	3254.22
298.62	3082.19
298.83	3180.50
299.05	3117.01
299.26	3194.83
299.48	3059.67
299.69	3076.05
299.90	3020.75
300.12	3096.53
300.33	3377.10
300.55	3082.19
300.76	3074.00
300.98	3051.47
301.19	3391.44
301.40	2951.12
301.62	3026.90
301.83	3340.24
302.05	3289.04
302.26	2918.36
302.47	3069.91
302.69	3053.52
302.90	3280.85
303.12	2805.72
303.33	3135.44
303.54	3706.82
303.76	3149.78
303.97	2910.16
304.19	3295.18
304.40	3135.44
304.61	3379.15
304.83	3067.86
305.04	3024.85
305.26	3370.96
305.47	3145.68
305.68	3049.43
305.90	2840.53
306.11	3585.99
306.33	3217.36
306.54	2858.96
306.75	3012.56
306.97	2987.99
307.18	3131.34
307.39	2938.84
307.61	3053.52
307.82	3223.50
308.04	3336.14
308.25	2885.59
308.46	3131.34
308.68	3375.05
308.89	3278.80
309.10	3051.47
309.32	3053.52
309.53	3260.37
309.74	3375.05
309.96	2947.03
310.17	3074.00
310.39	3231.69
310.60	3389.39
310.81	3045.33
311.03	2912.21
311.24	3506.12
311.45	3299.28
311.67	3340.24
311.88	3106.77
312.09	3262.41
312.31	3184.59
312.52	2934.74
312.73	2963.41
312.95	3018.71
313.16	3074.00
313.37	3155.92
313.59	3139.54
313.80	3403.72
314.01	3639.24
314.23	2934.74
314.44	2926.55
314.65	3051.47
314.87	3102.67
315.08	3063.76
315.29	3039.19
315.51	3168.21
315.72	2965.46
315.93	3018.71
316.15	3033.04
316.36	3155.92
316.57	3274.70
316.79	2992.08
317.00	2924.50
317.21	3434.44
317.43	3127.25
317.64	3098.58
317.85	2918.36
318.07	3086.29
318.28	3237.84
318.49	3127.25
318.70	3272.65
318.92	3352.52
319.13	3403.72
319.34	3227.60
319.56	2971.60
319.77	3471.31
319.98	3477.45
320.20	3348.43
320.41	3239.89
320.62	3385.29
320.83	3149.78
321.05	3295.18
321.26	3106.77
321.47	3225.55
321.69	3528.65
321.90	2922.45
322.11	2959.31
322.32	3307.47
322.54	3641.29
322.75	3008.47
322.96	4018.11
323.18	3020.75
323.39	2922.45
323.60	2904.02
323.81	3055.57
324.03	3211.22
324.24	3246.03
324.45	3067.86
324.66	2942.93
324.88	3532.75
325.09	3510.22
325.30	2963.41
325.52	2940.88
325.73	3334.09
325.94	3039.19
326.15	2877.40
326.37	2836.44
326.58	3393.48
326.79	3563.47
327.00	2936.79
327.22	2992.08
327.43	3266.51
327.64	3139.54
327.85	3149.78
328.07	3074.00
328.28	3610.57
328.49	3260.37
328.70	2996.18
328.92	2983.89
329.13	3188.69
329.34	3313.61
329.55	3174.35
329.76	3139.54
329.98	3192.78
330.19	3520.46
330.40	3028.95
330.61	3139.54
330.83	3467.21
331.04	3131.34
331.25	3086.29
331.46	3055.57
331.68	3123.15
331.89	3491.79
332.10	2994.13
332.31	2906.07
332.52	3278.80
332.74	3577.80
332.95	2752.47
333.16	3008.47
333.37	3370.96
333.58	3225.55
333.80	2992.08
334.01	2836.44
334.22	3266.51
334.43	3119.06
334.64	2965.46
334.86	2940.88
335.07	3094.48
335.28	3688.39
335.49	2881.49
335.70	3057.62
335.92	3528.65
336.13	3692.49
336.34	3125.20
336.55	3028.95
336.76	3297.23
336.98	2932.69
337.19	3053.52
337.40	3063.76
337.61	3692.49
337.82	3237.84
338.04	3133.39
338.25	2861.01
338.46	3198.93
338.67	3184.59
338.88	2844.63
339.09	2928.60
339.31	3215.31
339.52	3022.80
339.73	2910.16
339.94	3065.81
340.15	3370.96
340.36	3213.26
340.58	3102.67
340.79	2924.50
341.00	3350.48
341.21	2998.23
341.42	3303.37
341.63	3016.66
341.85	3383.24
342.06	3291.09
342.27	2834.39
342.48	3135.44
342.69	3102.67
342.90	3377.10
343.12	3399.63
343.33	2918.36
343.54	3438.54
343.75	3598.28
343.96	3125.20
344.17	2963.41
344.38	3266.51
344.60	3090.38
344.81	2899.92
345.02	3076.05
345.23	3411.92
345.44	3753.93
345.65	3102.67
345.86	3086.29
346.07	3342.28
346.29	3135.44
346.50	3155.92
346.71	3065.81
346.92	3483.59
347.13	3674.06
347.34	3098.58
347.55	2920.40
347.76	3475.40
347.98	2938.84
348.19	3078.10
348.40	3147.73
348.61	3209.17
348.82	3520.46
349.03	3071.95
349.24	2944.98
349.45	3667.91
349.66	2836.44
349.88	2926.55
350.09	2930.64
350.30	3579.85
350.51	3502.03
350.72	3231.69
350.93	3041.23
351.14	3168.21
351.35	3393.48
351.56	3028.95
351.77	3088.34
351.99	3370.96
352.20	3446.73
352.41	3139.54
352.62	2869.20
352.83	3266.51
353.04	3270.61
353.25	3065.81
353.46	3000.27
353.67	3528.65
353.88	2969.55
354.09	2965.46
354.30	3125.20
354.52	3450.83
354.73	3231.69
354.94	3004.37
355.15	3057.62
355.36	3682.25
355.57	3071.95
355.78	2938.84
355.99	3041.23
356.20	3241.93
356.41	3459.02
356.62	3106.77
356.83	3084.24
357.04	3622.86
357.25	2975.70
357.46	2918.36
357.68	2947.03
357.89	3045.33
358.10	3264.46
358.31	2930.64
358.52	2981.84
358.73	3041.23
358.94	3092.43
359.15	3033.04
359.36	3012.56
359.57	3319.76
359.78	3211.22
359.99	3254.22
360.20	2879.44
360.41	3153.87
360.62	3364.81
360.83	3141.58
361.04	2971.60
361.25	3352.52
361.46	3516.36
361.67	3092.43
361.88	3008.47
362.09	3444.68
362.30	3350.48
362.51	2944.98
362.72	3084.24
362.93	3438.54
363.14	3334.09
363.35	3092.43
363.56	2869.20
363.78	3516.36
363.99	3520.46
364.20	2996.18
364.41	2969.55
364.62	3688.39
364.83	3311.57
365.04	2936.79
365.25	3100.62
365.46	3796.93
365.67	3110.86
365.88	3200.98
366.09	2947.03
366.30	3196.88
366.51	3362.76
366.72	2947.03
366.93	3033.04
367.14	3286.99
367.35	3532.75
367.56	2969.55
367.77	3155.92
367.98	3354.57
368.18	3254.22
368.39	3119.06
368.60	2955.22
368.81	3332.05
369.02	3356.62
369.23	3004.37
369.44	2861.01
369.65	3239.89
369.86	3391.44
370.07	3090.38
370.28	2899.92
370.49	3377.10
370.70	3375.05
370.91	2899.92
371.12	2846.68
371.33	3471.31
371.54	3174.35
371.75	3166.16
371.96	2775.00
372.17	3282.89
372.38	3237.84
372.59	2998.23
372.80	2895.83
373.01	3252.17
373.22	3327.95
373.43	2932.69
373.64	2809.81
373.85	3577.80
374.06	3487.69
374.26	3125.20
374.47	3182.54
374.68	3583.95
374.89	3346.38
375.10	2889.68
375.31	3104.72
375.52	3291.09
375.73	3246.03
375.94	2844.63
376.15	3059.67
376.36	3133.39
376.57	3114.96
376.78	3086.29
376.99	3028.95
377.20	3549.13
377.40	3246.03
377.61	3289.04
377.82	2963.41
378.03	3649.48
378.24	3489.74
378.45	3117.01
378.66	3123.15
378.87	2994.13
379.08	3043.28
379.29	2969.55
379.50	3162.06
379.71	3176.40
379.91	3420.11
380.12	3004.37
380.33	3108.82
380.54	3317.71
380.75	3248.08
380.96	3026.90
381.17	3018.71
381.38	3299.28
381.59	3291.09
381.80	3028.95
382.00	3198.93
382.21	3319.76
382.42	3588.04
382.63	3430.35
382.84	3237.84
383.05	3471.31
383.26	3585.99
383.47	3088.34
383.68	2975.70
383.88	3438.54
384.09	3291.09
384.30	3278.80
384.51	3141.58
384.72	3172.30
384.93	3131.34
385.14	3100.62
385.35	3270.61
385.55	3041.23
385.76	3575.75
385.97	3082.19
386.18	2873.30
386.39	3080.14
386.60	3188.69
386.81	2996.18
387.02	2967.51
387.22	3147.73
387.43	3373.00
387.64	3131.34
387.85	3321.81
388.06	3362.76
388.27	4259.78
388.48	8007.56
388.68	12265.28
388.89	15382.29
389.10	16783.10
389.31	16445.19
389.52	12998.46
389.73	11276.12
389.93	10383.20
390.14	9234.29
390.35	8488.83
390.56	7862.15
390.77	6580.12
390.98	5021.62
391.18	4280.25
391.39	3885.00
391.60	3370.96
391.81	3264.46
392.02	3053.52
392.23	3727.30
392.43	3377.10
392.64	3133.39
392.85	3143.63
393.06	3665.86
393.27	3280.85
393.47	2955.22
393.68	3100.62
393.89	3258.32
394.10	3528.65
394.31	3004.37
394.52	2985.94
394.72	3125.20
394.93	3520.46
395.14	2885.59
395.35	3096.53
395.56	3205.07
395.76	3221.45
395.97	3022.80
396.18	3119.06
396.39	3246.03
396.60	3966.92
396.80	3393.48
397.01	3254.22
397.22	3489.74
397.43	3438.54
397.64	2983.89
397.84	3176.40
398.05	3653.58
398.26	3237.84
398.47	3164.11
398.67	3260.37
398.88	3215.31
399.09	3360.72
399.30	2998.23
399.51	3053.52
399.71	3139.54
399.92	3289.04
400.13	3114.96
400.34	3047.38
400.54	3291.09
400.75	3674.06
400.96	3151.82
401.17	3344.33
401.37	3444.68
401.58	3200.98
401.79	3026.90
402.00	3100.62
402.21	3661.77
402.41	3499.98
402.62	3317.71
402.83	3506.12
403.04	3596.23
403.24	4110.27
403.45	3264.46
403.66	3383.24
403.87	3504.07
404.07	3540.94
404.28	3389.39
404.49	3330.00
404.70	3366.86
404.90	3442.64
405.11	3078.10
405.32	3106.77
405.52	3157.97
405.73	3227.60
405.94	2932.69
406.15	3139.54
406.35	3432.40
406.56	3393.48
406.77	3047.38
406.98	2983.89
407.18	3147.73
407.39	3604.42
407.60	3082.19
407.80	3155.92
408.01	3219.41
408.22	3311.57
408.43	2895.83
408.63	3168.21
408.84	3434.44
409.05	3411.92
409.25	3024.85
409.46	3121.10
409.67	3272.65
409.88	3096.53
410.08	3129.30
410.29	3039.19
410.50	3422.16
410.70	3354.57
410.91	2965.46
411.12	3028.95
411.32	3321.81
411.53	3010.51
411.74	3051.47
411.95	3186.64
412.15	3274.70
412.36	3438.54
412.57	3260.37
412.77	3336.14
412.98	3260.37
413.19	3194.83
413.39	3104.72
413.60	3037.14
413.81	3577.80
414.01	3024.85
414.22	3065.81
414.43	3264.46
414.63	3164.11
414.84	3467.21
415.05	3071.95
415.25	2897.88
415.46	3454.92
415.67	3092.43
415.87	3020.75
416.08	3067.86
416.29	3250.13
416.49	3430.35
416.70	3082.19
416.91	3033.04
417.11	3147.73
417.32	3532.75
417.53	3131.34
417.73	3157.97
417.94	3239.89
418.15	3323.85
418.35	3137.49
418.56	3112.91
418.77	3762.12
418.97	3252.17
419.18	3147.73
419.38	2727.89
419.59	3286.99
419.80	3561.42
420.00	3004.37
420.21	3057.62
420.42	3448.78
420.62	3289.04
420.83	3110.86
421.04	2985.94
421.24	3250.13
421.45	3475.40
421.65	3074.00
421.86	3094.48
422.07	3467.21
422.27	3348.43
422.48	2967.51
422.69	2879.44
422.89	3297.23
423.10	3172.30
423.30	2973.65
423.51	3094.48
423.72	3327.95
423.92	3370.96
424.13	2969.55
424.33	3143.63
424.54	3471.31
424.75	3303.37
424.95	3227.60
425.16	3026.90
425.36	3311.57
425.57	3454.92
425.78	3198.93
425.98	3139.54
426.19	3303.37
426.39	3145.68
426.60	3248.08
426.81	3227.60
427.01	3356.62
427.22	3106.77
427.42	2924.50
427.63	2992.08
427.83	3512.27
428.04	3755.97
428.25	3098.58
428.45	3178.45
428.66	3493.83
428.86	3241.93
429.07	3071.95
429.28	3117.01
429.48	3278.80
429.69	3147.73
429.89	3176.40
430.10	2985.94
430.30	3399.63
430.51	3506.12
430.71	2936.79
430.92	3053.52
431.13	3182.54
431.33	3368.91
431.54	3166.16
431.74	3147.73
431.95	3762.12
432.15	3147.73
432.36	3035.09
432.56	3131.34
432.77	3692.49
432.98	3606.47
433.18	3125.20
433.39	2959.31
433.59	3254.22
433.80	3725.26
434.00	3225.55
434.21	3086.29
434.41	3147.73
434.62	3729.35
434.82	2971.60
435.03	2926.55
435.23	3354.57
435.44	2992.08
435.64	2906.07
435.85	3080.14
436.06	3495.88
436.26	3479.50
436.47	3045.33
436.67	3026.90
436.88	3282.89
437.08	3557.32
437.29	3168.21
437.49	3237.84
437.70	3598.28
437.90	3272.65
438.11	3319.76
438.31	3184.59
438.52	3518.41
438.72	3585.99
438.93	3438.54
439.13	3254.22
439.34	3524.55
439.54	3174.35
439.75	3225.55
439.95	3178.45
440.16	3078.10
440.36	3182.54
440.57	3069.91
440.77	3039.19
440.98	3223.50
441.18	3342.28
441.39	3010.51
441.59	2996.18
441.80	3704.78
442.00	3330.00
442.21	3090.38
442.41	2963.41
442.62	3598.28
442.82	3194.83
443.02	3078.10
443.23	3055.57
443.43	3176.40
443.64	3600.33
443.84	2942.93
444.05	3215.31
444.25	3264.46
444.46	3250.13
444.66	3065.81
444.87	3276.75
445.07	3020.75
445.28	3227.60
445.48	3205.07
445.69	3086.29
445.89	3778.50
446.09	3203.02
446.30	3395.53
446.50	3565.51
446.71	5068.72
446.91	6377.37
447.12	7100.31
447.32	7645.07
447.53	7622.54
447.73	6483.87
447.93	5564.33
448.14	5238.70
448.34	5371.82
448.55	4544.44
448.75	4483.00
448.96	4251.58
449.16	4016.07
449.36	3971.01
449.57	3350.48
449.77	3164.11
449.98	3127.25
450.18	3315.66
450.39	3065.81
450.59	3217.36
450.79	3299.28
451.00	3155.92
451.20	3243.98
451.41	3137.49
451.61	3280.85
451.81	3153.87
452.02	2983.89
452.22	3092.43
452.43	3235.79
452.63	3106.77
452.84	3112.91
453.04	3039.19
453.24	3233.74
453.45	3164.11
453.65	3157.97
453.86	3155.92
454.06	3291.09
454.26	3352.52
454.47	2961.36
454.67	3190.74
454.87	3366.86
455.08	3246.03
455.28	3241.93
455.49	3252.17
455.69	3223.50
455.89	3663.82
456.10	3180.50
456.30	2983.89
456.51	3409.87
456.71	3422.16
456.91	3215.31
457.12	3076.05
457.32	3387.34
457.52	3074.00
457.73	3211.22
457.93	3198.93
458.14	3188.69
458.34	2936.79
458.54	3127.25
458.75	3022.80
458.95	3461.07
459.15	3385.29
459.36	3028.95
459.56	3022.80
459.76	3680.20
459.97	3260.37
460.17	3051.47
460.37	3100.62
460.58	3330.00
460.78	3416.01
460.99	3106.77
461.19	3051.47
461.39	3196.88
461.60	3217.36
461.80	3110.86
462.00	2975.70
462.21	3252.17
462.41	3129.30
462.61	2953.17
462.82	2885.59
463.02	3377.10
463.22	3241.93
463.43	3198.93
463.63	2930.64
463.83	3559.37
464.04	3409.87
464.24	3006.42
464.44	3071.95
464.64	3446.73
464.85	3426.25
465.05	3041.23
465.25	3020.75
465.46	3106.77
465.66	3401.68
465.86	3129.30
466.07	3004.37
466.27	3246.03
466.47	3012.56
466.68	2838.48
466.88	3164.11
467.08	3444.68
467.29	3502.03
467.49	3094.48
467.69	3180.50
467.89	3434.44
468.10	3200.98
468.30	3104.72
468.50	3194.83
468.71	3461.07
468.91	2944.98
469.11	3299.28
469.31	3229.65
469.52	3192.78
469.72	3569.61
469.92	3373.00
470.13	3108.82
470.33	3266.51
470.53	3301.33
470.73	3528.65
470.94	3930.05
471.14	4009.92
471.34	4689.85
471.54	4351.93
471.75	4065.22
471.95	3866.56
472.15	3815.37
472.36	3717.06
472.56	3592.14
472.76	3856.33
472.96	3661.77
473.17	3395.53
473.37	3233.74
473.57	3248.08
473.77	3438.54
473.98	3233.74
474.18	2987.99
474.38	3962.82
474.58	3129.30
474.79	2977.75
474.99	3221.45
475.19	3514.31
475.39	3028.95
475.60	3104.72
475.80	3047.38
476.00	3307.47
476.20	3246.03
476.41	3131.34
476.61	3209.17
476.81	3594.19
477.01	3100.62
477.21	3381.20
477.42	3198.93
477.62	3114.96
477.82	3430.35
478.02	3000.27
478.23	3102.67
478.43	3088.34
478.63	3198.93
478.83	2963.41
479.03	3139.54
479.24	3616.71
479.44	3680.20
479.64	2994.13
479.84	2877.40
480.04	3139.54
480.25	3438.54
480.45	3049.43
480.65	3037.14
480.85	3581.90
481.06	3194.83
481.26	3114.96
481.46	3024.85
481.66	3317.71
481.86	3133.39
482.06	3213.26
482.27	3121.10
482.47	3133.39
482.67	3383.24
482.87	3098.58
483.07	3074.00
483.28	3200.98
483.48	3037.14
483.68	3043.28
483.88	2949.08
484.08	2885.59
484.29	3039.19
484.49	3080.14
484.69	2858.96
484.89	3536.84
485.09	3557.32
485.29	3051.47
485.50	3258.32
485.70	3153.87
485.90	3491.79
486.10	3223.50
486.30	3000.27
486.50	3536.84
486.71	3393.48
486.91	3100.62
487.11	3164.11
487.31	3076.05
487.51	3383.24
487.71	3016.66
487.91	3016.66
488.12	3174.35
488.32	2762.71
488.52	2983.89
488.72	2797.53
488.92	3229.65
489.12	3524.55
489.32	3239.89
489.53	3086.29
489.73	3024.85
489.93	3694.54
490.13	2944.98
490.33	2940.88
490.53	3344.33
490.73	3444.68
490.94	2877.40
491.14	3295.18
491.34	3430.35
491.54	3401.68
491.74	3993.54
491.94	4593.59
492.14	5136.31
492.34	5246.90
492.54	4730.81
492.75	4147.14
492.95	4386.75
493.15	4022.21
493.35	3819.46
493.55	3745.73
493.75	3737.54
493.95	3919.81
494.15	3426.25
494.35	3145.68
494.56	3221.45
494.76	3076.05
494.96	3227.60
495.16	2998.23
495.36	3227.60
495.56	3307.47
495.76	3114.96
495.96	3104.72
496.16	3082.19
496.36	3674.06
496.56	2983.89
496.77	3186.64
496.97	3311.57
497.17	3463.12
497.37	2910.16
497.57	3090.38
497.77	3321.81
497.97	3094.48
498.17	3074.00
498.37	3045.33
498.57	3393.48
498.77	3174.35
498.97	3241.93
499.17	3389.39
499.38	3254.22
499.58	3424.20
499.78	3250.13
499.98	3297.23
500.18	3250.13
500.38	3039.19
500.58	3256.27
500.78	3620.81
500.98	6164.39
501.18	8148.87
501.38	9934.70
501.58	10800.99
501.78	11046.74
501.98	9107.32
502.18	7565.20
502.38	6584.22
502.58	6500.25
502.78	5713.83
502.98	5478.32
503.18	5224.37
503.38	4923.32
503.59	4149.18
503.79	4126.66
503.99	3782.60
504.19	3827.65
504.39	3885.00
504.59	3749.83
504.79	3600.33
504.99	4024.26
505.19	3657.67
505.39	3266.51
505.59	3532.75
505.79	3758.02
505.99	3502.03
506.19	3184.59
506.39	3407.82
506.59	3182.54
506.79	3289.04
506.99	3289.04
507.19	3014.61
507.39	3295.18
507.59	3108.82
507.79	3067.86
507.99	3041.23
508.19	3348.43
508.39	3164.11
508.59	3061.71
508.79	3155.92
508.99	3604.42
509.19	3098.58
509.39	3131.34
509.59	2992.08
509.79	3117.01
509.99	3352.52
510.19	3258.32
510.39	3172.30
510.59	3231.69
510.79	3182.54
510.99	2930.64
511.19	3006.42
511.39	3651.53
511.59	3475.40
511.79	3200.98
511.99	2983.89
512.19	3704.78
512.38	3264.46
512.58	3016.66
512.78	2940.88
512.98	3526.60
513.18	3661.77
513.38	3012.56
513.58	3168.21
513.78	3278.80
513.98	3205.07
514.18	3020.75
514.38	2977.75
514.58	3397.58
514.78	3151.82
514.98	2961.36
515.18	3024.85
515.38	3094.48
515.58	3631.05
515.78	3082.19
515.98	3084.24
516.18	3360.72
516.38	3239.89
516.57	3002.32
516.77	2998.23
516.97	3323.85
517.17	3053.52
517.37	2830.29
517.57	3184.59
517.77	3262.41
517.97	3133.39
518.17	3137.49
518.37	2965.46
518.57	3104.72
518.77	3131.34
518.97	3172.30
519.16	2979.79
519.36	3495.88
519.56	3180.50
519.76	3008.47
519.96	3098.58
520.16	3561.42
520.36	3110.86
520.56	3243.98
520.76	3098.58
520.96	3131.34
521.16	3491.79
521.35	3297.23
521.55	3133.39
521.75	3252.17
521.95	3164.11
522.15	3002.32
522.35	3008.47
522.55	3108.82
522.75	3475.40
522.95	2922.45
523.14	2885.59
523.34	3235.79
523.54	3151.82
523.74	3098.58
523.94	3139.54
524.14	2994.13
524.34	3317.71
524.54	3250.13
524.73	3074.00
524.93	3487.69
525.13	3282.89
525.33	2947.03
525.53	3348.43
525.73	3422.16
525.93	3352.52
526.13	3119.06
526.32	2969.55
526.52	3495.88
526.72	3393.48
526.92	3094.48
527.12	3037.14
527.32	2985.94
527.52	3284.94
527.71	3098.58
527.91	3033.04
528.11	3119.06
528.31	3196.88
528.51	3108.82
528.71	3215.31
528.90	3430.35
529.10	3454.92
529.30	3119.06
529.50	2836.44
529.70	3340.24
529.90	3184.59
530.09	3043.28
530.29	2889.68
530.49	3084.24
530.69	3864.52
530.89	3127.25
531.09	3246.03
531.28	3114.96
531.48	3477.45
531.68	2977.75
531.88	3155.92
532.08	3434.44
532.28	3178.45
532.47	3172.30
532.67	3190.74
532.87	3381.20
533.07	3104.72
533.27	3080.14
533.46	3164.11
533.66	3336.14
533.86	3313.61
534.06	3160.02
534.26	3137.49
534.45	3192.78
534.65	3422.16
534.85	3153.87
535.05	3041.23
535.25	3467.21
535.44	2949.08
535.64	3065.81
535.84	3110.86
536.04	3254.22
536.24	3250.13
536.43	3018.71
536.63	3069.91
536.83	3190.74
537.03	3237.84
537.22	2910.16
537.42	2863.06
537.62	3377.10
537.82	3155.92
538.02	3250.13
538.21	3129.30
538.41	3909.57
538.61	3321.81
538.81	3110.86
539.00	3213.26
539.20	3055.57
539.40	3219.41
539.60	3041.23
539.79	3291.09
539.99	3317.71
540.19	3094.48
540.39	3108.82
540.58	3143.63
540.78	3491.79
540.98	3352.52
541.18	3217.36
541.37	3121.10
541.57	3342.28
541.77	3440.59
541.97	3033.04
542.16	2953.17
542.36	3160.02
542.56	3188.69
542.76	3213.26
542.95	3127.25
543.15	3401.68
543.35	3395.53
543.54	2996.18
543.74	2983.89
543.94	3512.27
544.14	3100.62
544.33	3114.96
544.53	3026.90
544.73	3188.69
544.93	3166.16
545.12	3078.10
545.32	3026.90
545.52	3225.55
545.71	3127.25
545.91	3065.81
546.11	3033.04
546.30	3114.96
546.50	3260.37
546.70	3125.20
546.90	3016.66
547.09	2953.17
547.29	3225.55
547.49	3200.98
547.68	3020.75
547.88	3178.45
548.08	3360.72
548.27	3334.09
548.47	3076.05
548.67	3172.30
548.87	3352.52
549.06	2985.94
549.26	2951.12
549.46	3332.05
549.65	3155.92
549.85	3125.20
550.05	3129.30
550.24	3059.67
550.44	3264.46
550.64	3053.52
550.83	3139.54
551.03	3620.81
551.23	3499.98
551.42	3061.71
551.62	3106.77
551.82	3319.76
552.01	3207.12
552.21	3352.52
552.41	3162.06
552.60	3561.42
552.80	3225.55
553.00	2985.94
553.19	3051.47
553.39	3569.61
553.59	3020.75
553.78	3264.46
553.98	2967.51
554.17	3049.43
554.37	3381.20
554.57	3166.16
554.76	2971.60
554.96	3170.26
555.16	3336.14
555.35	3100.62
555.55	3223.50
555.75	3366.86
555.94	3452.88
556.14	2791.38
556.33	3098.58
556.53	3286.99
556.73	3327.95
556.92	3123.15
557.12	2992.08
557.32	3733.45
557.51	3602.38
557.71	3012.56
557.90	3184.59
558.10	3491.79
558.30	3186.64
558.49	3076.05
558.69	3141.58
558.88	3401.68
559.08	3307.47
559.28	3104.72
559.47	3203.02
559.67	3467.21
559.86	3727.30
560.06	2959.31
560.26	3088.34
560.45	3428.30
560.65	3274.70
560.84	3342.28
561.04	2985.94
561.24	3370.96
561.43	3045.33
561.63	3344.33
561.82	3223.50
562.02	3504.07
562.22	3106.77
562.41	2981.84
562.61	3012.56
562.80	3063.76
563.00	3807.17
563.19	3114.96
563.39	3117.01
563.59	3454.92
563.78	2987.99
563.98	2852.82
564.17	3000.27
564.37	2967.51
564.56	3246.03
564.76	2930.64
564.96	3186.64
565.15	3280.85
565.35	3764.17
565.54	3139.54
565.74	3123.15
565.93	3397.58
566.13	3295.18
566.32	3143.63
566.52	3205.07
566.71	3342.28
566.91	3563.47
567.11	3254.22
567.30	2992.08
567.50	3391.44
567.69	3413.96
567.89	3010.51
568.08	3041.23
568.28	3352.52
568.47	3155.92
568.67	3106.77
568.86	3139.54
569.06	3446.73
569.25	3272.65
569.45	2916.31
569.64	3051.47
569.84	3200.98
570.04	3307.47
570.23	3078.10
570.43	3147.73
570.62	3317.71
570.82	3557.32
571.01	2963.41
571.21	3018.71
571.40	3135.44
571.60	3409.87
571.79	3157.97
571.99	3049.43
572.18	3086.29
572.38	3336.14
572.57	3114.96
572.77	3190.74
572.96	3809.22
573.16	3360.72
573.35	2951.12
573.55	3239.89
573.74	3448.78
573.94	3172.30
574.13	3057.62
574.33	3239.89
574.52	3387.34
574.71	3190.74
574.91	3117.01
575.10	2918.36
575.30	3149.78
575.49	3098.58
575.69	2959.31
575.88	3092.43
576.08	3282.89
576.27	3463.12
576.47	3039.19
576.66	3254.22
576.86	3631.05
577.05	3450.83
577.25	3112.91
577.44	3289.04
577.64	3149.78
577.83	3524.55
578.02	3057.62
578.22	3182.54
578.41	3661.77
578.61	3209.17
578.80	2920.40
579.00	3028.95
579.19	3227.60
579.39	3370.96
579.58	3090.38
579.77	3131.34
579.97	3596.23
580.16	3518.41
580.36	3270.61
580.55	3090.38
580.75	3373.00
580.94	3274.70
581.13	3219.41
581.33	3344.33
581.52	3200.98
581.72	3653.58
581.91	3180.50
582.11	3102.67
582.30	3389.39
582.49	3346.38
582.69	3395.53
582.88	3094.48
583.08	3252.17
583.27	3508.17
583.47	3254.22
583.66	2977.75
583.85	3057.62
584.05	3248.08
584.24	3291.09
584.44	3108.82
584.63	3444.68
584.82	3491.79
585.02	3303.37
585.21	3215.31
585.41	3422.16
585.60	3340.24
585.79	3377.10
585.99	3385.29
586.18	3311.57
586.37	4157.38
586.57	6330.27
586.76	18134.76
586.96	37240.26
587.15	51119.35
587.34	59542.64
587.54	63323.19
587.73	56728.73
587.93	40977.81
588.12	31397.41
588.31	25724.54
588.51	22668.97
588.70	21030.59
588.89	18554.60
589.09	15748.88
589.28	13858.60
589.47	10868.57
589.67	8261.51
589.86	6358.94
590.06	5173.17
590.25	4446.14
590.44	3944.39
590.64	3526.60
590.83	3563.47
591.02	3612.62
591.22	3024.85
591.41	3147.73
591.60	3227.60
591.80	3801.03
591.99	2961.36
592.18	3094.48
592.38	3491.79
592.57	3172.30
592.76	3051.47
592.96	3233.74
593.15	3203.02
593.34	3495.88
593.54	3151.82
593.73	3200.98
593.92	3409.87
594.12	3399.63
594.31	3157.97
594.50	3246.03
594.70	3467.21
594.89	3805.13
595.08	2981.84
595.28	3272.65
595.47	3930.05
595.66	3510.22
595.86	2918.36
596.05	2914.26
596.24	3241.93
596.43	3704.78
596.63	3207.12
596.82	3229.65
597.01	3340.24
597.21	3645.38
597.40	3114.96
597.59	3168.21
597.79	3268.56
597.98	3395.53
598.17	3221.45
598.36	3104.72
598.56	3499.98
598.75	3164.11
598.94	3141.58
599.14	3172.30
599.33	3166.16
599.52	3373.00
599.71	3139.54
599.91	3155.92
600.10	3434.44
600.29	3430.35
600.48	3266.51
600.68	3157.97
600.87	3356.62
601.06	3143.63
601.26	3135.44
601.45	3231.69
601.64	3256.27
601.83	3616.71
602.03	2936.79
602.22	2922.45
602.41	3508.17
602.60	3764.17
602.80	3200.98
602.99	3243.98
603.18	3182.54
603.37	3420.11
603.57	2938.84
603.76	3108.82
603.95	3477.45
604.14	3223.50
604.34	3071.95
604.53	3022.80
604.72	3305.42
604.91	3438.54
605.10	3067.86
605.30	2904.02
605.49	3743.69
605.68	3409.87
605.87	3082.19
606.07	3047.38
606.26	3305.42
606.45	3395.53
606.64	3106.77
606.84	2985.94
607.03	3305.42
607.22	3575.75
607.41	3176.40
607.60	3030.99
607.80	3467.21
607.99	3278.80
608.18	3063.76
608.37	3180.50
608.56	3137.49
608.76	3493.83
608.95	3241.93
609.14	3135.44
609.33	3524.55
609.52	3631.05
609.72	3246.03
609.91	3241.93
610.10	3325.90
610.29	3690.44
610.48	3192.78
610.68	3233.74
610.87	3381.20
611.06	3493.83
611.25	3125.20
611.44	3211.22
611.63	3207.12
611.83	3549.13
612.02	3098.58
612.21	3205.07
612.40	2901.97
612.59	3125.20
612.79	2983.89
612.98	3184.59
613.17	3690.44
613.36	3291.09
613.55	3215.31
613.74	3178.45
613.93	3387.34
614.13	3338.19
614.32	3321.81
614.51	3125.20
614.70	3246.03
614.89	3250.13
615.08	3200.98
615.28	3401.68
615.47	3119.06
615.66	3393.48
615.85	3125.20
616.04	3188.69
616.23	3321.81
616.42	3270.61
616.62	3051.47
616.81	3061.71
617.00	3344.33
617.19	3344.33
617.38	3045.33
617.57	3151.82
617.76	3463.12
617.95	3538.89
618.15	3276.75
618.34	3180.50
618.53	3016.66
618.72	3567.56
618.91	3139.54
619.10	3153.87
619.29	3295.18
619.48	3272.65
619.68	2934.74
619.87	2994.13
620.06	2994.13
620.25	3452.88
620.44	2916.31
620.63	2979.79
620.82	3325.90
621.01	3307.47
621.20	3147.73
621.39	3145.68
621.59	3348.43
621.78	3289.04
621.97	3010.51
622.16	3229.65
622.35	3336.14
622.54	3420.11
622.73	3153.87
622.92	2756.57
623.11	3508.17
623.30	3182.54
623.49	3246.03
623.68	2875.35
623.88	3491.79
624.07	3198.93
624.26	3016.66
624.45	3082.19
624.64	3143.63
624.83	3368.91
625.02	3108.82
625.21	3100.62
625.40	3383.24
625.59	3606.47
625.78	3133.39
625.97	3184.59
626.16	3475.40
626.35	3422.16
626.54	3166.16
626.74	3307.47
626.93	3278.80
627.12	3198.93
627.31	3235.79
627.50	3160.02
627.69	3299.28
627.88	3065.81
628.07	2985.94
628.26	2955.22
628.45	3098.58
628.64	3084.24
628.83	3061.71
629.02	2885.59
629.21	3368.91
629.40	3434.44
629.59	2922.45
629.78	3037.14
629.97	3299.28
630.16	3278.80
630.35	3059.67
630.54	3162.06
630.73	3086.29
630.92	3221.45
631.11	2963.41
631.30	3088.34
631.49	3399.63
631.68	3268.56
631.87	3127.25
632.06	3016.66
632.25	3770.31
632.44	3262.41
632.63	3108.82
632.82	3090.38
633.01	3229.65
633.20	3385.29
633.39	3104.72
633.58	2965.46
633.77	3264.46
633.96	3446.73
634.15	3184.59
634.34	3180.50
634.53	3387.34
634.72	3188.69
634.91	2942.93
635.10	3049.43
635.29	3510.22
635.48	3354.57
635.67	2975.70
635.86	2959.31
636.05	3547.08
636.24	3219.41
636.43	3065.81
636.62	3137.49
636.81	2795.48
637.00	3342.28
637.19	3053.52
637.38	3123.15
637.57	3233.74
637.76	3248.08
637.95	3334.09
638.14	3203.02
638.33	3303.37
638.52	3323.85
638.71	2979.79
638.89	2992.08
639.08	3872.71
639.27	3450.83
639.46	3379.15
639.65	3739.59
639.84	3903.43
640.03	3977.16
640.22	3600.33
640.41	3530.70
640.60	3346.38
640.79	3577.80
640.98	3356.62
641.17	3352.52
641.36	3479.50
641.55	3471.31
641.74	2967.51
641.92	3069.91
642.11	3125.20
642.30	3137.49
642.49	3045.33
642.68	3006.42
642.87	3309.52
643.06	3377.10
643.25	2951.12
643.44	2996.18
643.63	3246.03
643.82	3370.96
644.00	2918.36
644.19	3012.56
644.38	3074.00
644.57	3354.57
644.76	3174.35
644.95	3205.07
645.14	3399.63
645.33	3239.89
645.52	3213.26
645.71	2975.70
645.89	3037.14
646.08	3252.17
646.27	3147.73
646.46	3256.27
646.65	2992.08
646.84	3254.22
647.03	3016.66
647.22	3223.50
647.40	3330.00
647.59	3233.74
647.78	2856.92
647.97	2992.08
648.16	3078.10
648.35	3473.36
648.54	3397.58
648.73	3092.43
648.91	3399.63
649.10	3286.99
649.29	3004.37
649.48	3094.48
649.67	3313.61
649.86	3360.72
650.05	3147.73
650.23	3295.18
650.42	3262.41
650.61	3641.29
650.80	3360.72
650.99	3389.39
651.18	3477.45
651.36	3512.27
651.55	2979.79
651.74	3227.60
651.93	3219.41
652.12	3246.03
652.31	3114.96
652.49	3102.67
652.68	3200.98
652.87	3588.04
653.06	3258.32
653.25	3381.20
653.44	3274.70
653.62	3637.19
653.81	3098.58
654.00	3135.44
654.19	3454.92
654.38	3821.51
654.56	3178.45
654.75	3008.47
654.94	3405.77
655.13	3295.18
655.32	3086.29
655.51	3164.11
655.69	3110.86
655.88	3354.57
656.07	2942.93
656.26	3049.43
656.45	3014.61
656.63	3235.79
656.82	3053.52
657.01	3364.81
657.20	3090.38
657.38	3530.70
657.57	3090.38
657.76	2873.30
657.95	3385.29
658.14	3151.82
658.32	3162.06
658.51	2885.59
658.70	3291.09
658.89	3356.62
659.08	3074.00
659.26	3356.62
659.45	3160.02
659.64	3502.03
659.83	3098.58
660.01	3545.03
660.20	3327.95
660.39	3649.48
660.58	2772.95
660.76	3162.06
660.95	3006.42
661.14	3284.94
661.33	2959.31
661.51	3061.71
661.70	3203.02
661.89	3338.19
662.08	3145.68
662.26	2932.69
662.45	3096.53
662.64	3620.81
662.83	3080.14
663.01	2975.70
663.20	3151.82
663.39	3579.85
663.58	3104.72
663.76	3035.09
663.95	3377.10
664.14	3086.29
664.32	3209.17
664.51	2879.44
664.70	2985.94
664.89	3352.52
665.07	2949.08
665.26	3254.22
665.45	2996.18
665.64	3430.35
665.82	3071.95
666.01	3248.08
666.20	2957.27
666.38	3409.87
666.57	3389.39
666.76	5603.24
666.95	13170.49
667.13	20864.71
667.32	24872.58
667.51	28208.72
667.69	29386.30
667.88	24014.48
668.07	17645.30
668.25	14839.58
668.44	12767.04
668.63	11224.92
668.81	9830.25
669.00	8513.41
669.19	7726.99
669.38	6713.24
669.56	5810.09
669.75	4892.60
669.94	4423.61
670.12	3725.26
670.31	3385.29
670.50	3405.77
670.68	3508.17
670.87	3379.15
671.06	3055.57
671.24	3131.34
671.43	3667.91
671.62	3319.76
671.80	3049.43
671.99	3157.97
672.18	3364.81
672.36	3448.78
672.55	3157.97
672.74	3254.22
672.92	3227.60
673.11	3504.07
673.29	2944.98
673.48	3180.50
673.67	3315.66
673.85	3487.69
674.04	2973.65
674.23	3174.35
674.41	3604.42
674.60	3012.56
674.79	2881.49
674.97	2951.12
675.16	3518.41
675.34	3459.02
675.53	3006.42
675.72	3100.62
675.90	3614.66
676.09	3160.02
676.28	3237.84
676.46	2959.31
676.65	3407.82
676.83	3053.52
677.02	3078.10
677.21	3215.31
677.39	3284.94
677.58	3094.48
677.77	3080.14
677.95	3030.99
678.14	3182.54
678.32	3213.26
678.51	3074.00
678.70	3360.72
678.88	3143.63
679.07	3360.72
679.25	3082.19
679.44	3133.39
679.63	2926.55
679.81	3368.91
680.00	3344.33
680.18	3229.65
680.37	3602.38
680.55	3262.41
680.74	2936.79
680.93	2852.82
681.11	3311.57
681.30	3301.33
681.48	3053.52
681.67	3106.77
681.85	3344.33
682.04	3104.72
682.23	3235.79
682.41	3196.88
682.60	3282.89
682.78	3270.61
682.97	3000.27
683.15	3164.11
683.34	3354.57
683.53	3528.65
683.71	2904.02
683.90	3119.06
684.08	3618.76
684.27	3114.96
684.45	3221.45
684.64	3205.07
684.82	3309.52
685.01	3463.12
685.19	3041.23
685.38	3327.95
685.57	3327.95
685.75	3100.62
685.94	3008.47
686.12	3000.27
686.31	3168.21
686.49	3635.14
686.68	2858.96
686.86	3094.48
687.05	3223.50
687.23	3549.13
687.42	3028.95
687.60	2949.08
687.79	3534.79
687.97	3641.29
688.16	3170.26
688.34	3291.09
688.53	3008.47
688.71	3428.30
688.90	3387.34
689.08	3104.72
689.27	2959.31
689.45	3561.42
689.64	3237.84
689.82	3112.91
690.01	3389.39
690.19	3413.96
690.38	3102.67
690.56	3174.35
690.75	3033.04
690.93	3170.26
691.12	3074.00
691.30	3123.15
691.49	3151.82
691.67	3278.80
691.86	3477.45
692.04	3168.21
692.23	3190.74
692.41	3221.45
692.60	3426.25
692.78	3233.74
692.97	3217.36
693.15	3409.87
693.34	3336.14
693.52	3262.41
693.71	3188.69
693.89	3112.91
694.08	2938.84
694.26	3127.25
694.44	3459.02
694.63	3411.92
694.81	3057.62
695.00	3102.67
695.18	3573.71
695.37	3733.45
695.55	3213.26
695.74	3141.58
695.92	3147.73
696.10	3559.37
696.29	2942.93
696.47	3110.86
696.66	3125.20
696.84	3076.05
697.03	3133.39
697.21	3340.24
697.40	4747.19
697.58	3497.93
697.76	3114.96
697.95	3045.33
698.13	3035.09
698.32	3133.39
698.50	3086.29
698.68	3096.53
698.87	3424.20
699.05	3635.14
699.24	3096.53
699.42	3000.27
699.61	3354.57
699.79	3327.95
699.97	3131.34
700.16	2953.17
700.34	3039.19
700.53	3231.69
700.71	3375.05
700.89	3262.41
701.08	3203.02
701.26	3321.81
701.45	3489.74
701.63	3078.10
701.81	3162.06
702.00	3188.69
702.18	3200.98
702.37	3069.91
702.55	3557.32
702.73	3368.91
702.92	3123.15
703.10	3395.53
703.28	3594.19
703.47	3108.82
703.65	3344.33
703.84	3272.65
704.02	3203.02
704.20	3508.17
704.39	3049.43
704.57	3108.82
704.75	3385.29
704.94	3454.92
705.12	3235.79
705.30	3958.72
705.49	8914.81
705.67	17383.16
705.86	24116.88
706.04	27401.82
706.22	30219.83
706.41	29298.24
706.59	21761.72
706.77	16946.94
706.96	14898.97
707.14	13369.14
707.32	11417.43
707.51	9942.89
707.69	8095.62
707.87	6672.28
708.06	5349.29
708.24	4493.24
708.42	4050.88
708.61	4190.14
708.79	3291.09
708.97	3301.33
709.16	3358.67
709.34	3280.85
709.52	3162.06
709.71	3151.82
709.89	3354.57
710.07	3151.82
710.26	2998.23
710.44	3143.63
710.62	3481.55
710.80	3213.26
710.99	3143.63
711.17	3131.34
711.35	3157.97
711.54	3102.67
711.72	3307.47
711.90	3180.50
712.09	3346.38
712.27	3205.07
712.45	3246.03
712.63	3041.23
712.82	3280.85
713.00	3270.61
713.18	3289.04
713.37	3297.23
713.55	3524.55
713.73	3471.31
713.91	3114.96
714.10	3049.43
714.28	3209.17
714.46	3307.47
714.65	3180.50
714.83	3155.92
715.01	3254.22
715.19	3305.42
715.38	3010.51
715.56	3217.36
715.74	3254.22
715.92	2998.23
716.11	3452.88
716.29	2834.39
716.47	3284.94
716.65	3235.79
716.84	2947.03
717.02	3078.10
717.20	3014.61
717.38	3160.02
717.57	3327.95
717.75	3147.73
717.93	3168.21
718.11	3389.39
718.30	3035.09
718.48	3137.49
718.66	3569.61
718.84	3444.68
719.03	3030.99
719.21	3035.09
719.39	3581.90
719.57	3377.10
719.75	3225.55
719.94	3035.09
720.12	3246.03
720.30	3254.22
720.48	3141.58
720.67	3065.81
720.85	3071.95
721.03	3186.64
721.21	2983.89
721.39	3166.16
721.58	3420.11
721.76	3311.57
721.94	3110.86
722.12	3153.87
722.30	3512.27
722.49	3213.26
722.67	3071.95
722.85	3117.01
723.03	3045.33
723.21	3149.78
723.40	3143.63
723.58	3254.22
723.76	3393.48
723.94	3522.51
724.12	3170.26
724.30	3364.81
724.49	3442.64
724.67	3178.45
724.85	3233.74
725.03	2996.18
725.21	3389.39
725.40	3520.46
725.58	3051.47
725.76	3332.05
725.94	3332.05
726.12	3082.19
726.30	3123.15
726.49	3110.86
726.67	3123.15
726.85	3375.05
727.03	3985.35
727.21	5623.72
727.39	7264.15
727.57	7901.06
727.76	8621.95
727.94	8626.04
728.12	7489.42
728.30	6285.22
728.48	5613.48
728.66	5228.46
728.84	4865.97
729.03	4188.10
729.21	3831.75
729.39	3596.23
729.57	3438.54
729.75	3397.58
729.93	3366.86
730.11	3076.05
730.30	3248.08
730.48	3270.61
730.66	3176.40
730.84	3117.01
731.02	3293.13
731.20	3137.49
731.38	3139.54
731.56	2889.68
731.74	2983.89
731.93	3264.46
732.11	3252.17
732.29	3110.86
732.47	3401.68
732.65	3325.90
732.83	3323.85
733.01	3176.40
733.19	3162.06
733.37	3409.87
733.56	3051.47
733.74	2908.12
733.92	3565.51
734.10	3155.92
734.28	3235.79
734.46	2930.64
734.64	3270.61
734.82	3174.35
735.00	3106.77
735.18	3074.00
735.36	3276.75
735.54	3108.82
735.73	3164.11
735.91	3211.22
736.09	3565.51
736.27	3264.46
736.45	3164.11
736.63	2869.20
736.81	3239.89
736.99	3459.02
737.17	3327.95
737.35	3149.78
737.53	3330.00
737.71	3180.50
737.89	3205.07
738.07	3000.27
738.25	3178.45
738.43	2955.22
738.61	3174.35
738.80	2957.27
738.98	3043.28
739.16	3114.96
739.34	2992.08
739.52	3434.44
739.70	3225.55
739.88	3418.06
740.06	3266.51
740.24	2762.71
740.42	3528.65
740.60	2934.74
740.78	3100.62
740.96	2871.25
741.14	3180.50
741.32	3254.22
741.50	2885.59
741.68	3360.72
741.86	3497.93
742.04	3045.33
742.22	2961.36
742.40	3125.20
742.58	3442.64
742.76	3100.62
742.94	3295.18
743.12	2981.84
743.30	3270.61
743.48	3379.15
743.66	3033.04
743.84	3176.40
744.02	3217.36
744.20	3266.51
744.38	3018.71
744.56	3106.77
744.74	3672.01
744.92	3403.72
745.10	3250.13
745.28	3145.68
745.46	3538.89
745.64	3248.08
745.82	3172.30
746.00	2957.27
746.18	3364.81
746.36	3082.19
746.54	3080.14
746.72	3123.15
746.90	3100.62
747.08	3483.59
747.26	3088.34
747.44	3246.03
747.62	3428.30
747.80	3284.94
747.98	3243.98
748.15	3145.68
748.33	3639.24
748.51	3289.04
748.69	3200.98
748.87	2994.13
749.05	3299.28
749.23	3254.22
749.41	3053.52
749.59	3102.67
749.77	3491.79
749.95	3174.35
750.13	3039.19
750.31	3205.07
750.49	3209.17
750.67	3434.44
750.85	3172.30
751.03	3014.61
751.20	3751.88
751.38	3338.19
751.56	3090.38
751.74	3141.58
751.92	3176.40
752.10	3067.86
752.28	3248.08
752.46	3145.68
752.64	3209.17
752.82	3313.61
753.00	3114.96
753.18	3041.23
753.35	3207.12
753.53	3266.51
753.71	2998.23
753.89	3074.00
754.07	3315.66
754.25	3434.44
754.43	3143.63
754.61	2959.31
754.79	3373.00
754.97	3180.50
755.14	3305.42
755.32	3000.27
755.50	3334.09
755.68	3299.28
755.86	2996.18
756.04	3092.43
756.22	3041.23
756.40	3432.40
756.57	3360.72
756.75	3033.04
756.93	3493.83
757.11	3479.50
757.29	2969.55
757.47	3000.27
757.65	3016.66
757.82	2887.64
758.00	3049.43
758.18	3055.57
758.36	3119.06
758.54	3665.86
758.72	2953.17
758.90	3205.07
759.07	3379.15
759.25	3067.86
759.43	3213.26
759.61	2918.36
759.79	4542.39
759.97	3520.46
760.15	3004.37
760.32	3151.82
760.50	3268.56
760.68	3590.09
760.86	2899.92
761.04	3303.37
761.22	3502.03
761.39	3379.15
761.57	3209.17
761.75	3088.34
761.93	3432.40
762.11	3200.98
762.28	3147.73
762.46	3049.43
762.64	3479.50
762.82	2961.36
763.00	3008.47
763.18	3289.04
763.35	3069.91
763.53	3461.07
763.71	3084.24
763.89	3055.57
764.07	3340.24
764.24	3280.85
764.42	3239.89
764.60	3049.43
764.78	3377.10
764.96	3403.72
765.13	3256.27
765.31	2942.93
765.49	3377.10
765.67	3061.71
765.84	3069.91
766.02	2963.41
766.20	3045.33
766.38	3336.14
766.56	3182.54
766.73	3164.11
766.91	3209.17
767.09	3252.17
767.27	3157.97
767.44	3008.47
767.62	3387.34
767.80	3426.25
767.98	2994.13
768.15	3059.67
768.33	3420.11
768.51	3362.76
768.69	3278.80
768.87	3110.86
769.04	3289.04
769.22	3803.08
769.40	3235.79
769.58	3215.31
769.75	3381.20
769.93	3504.07
770.11	3106.77
770.28	2930.64
770.46	3403.72
770.64	3377.10
770.82	3121.10
770.99	2987.99
771.17	3327.95
771.35	3172.30
771.53	3114.96
771.70	2975.70
771.88	3358.67
772.06	3237.84
772.23	3102.67
772.41	3225.55
772.59	3301.33
772.77	3182.54
772.94	3117.01
773.12	3180.50
773.30	3139.54
773.47	3309.52
773.65	2983.89
773.83	3307.47
774.01	3280.85
774.18	2910.16
774.36	3121.10
774.54	3018.71
774.71	3280.85
774.89	2949.08
775.07	3010.51
775.24	3151.82
775.42	3151.82
775.60	3672.01
775.78	3055.57
775.95	2899.92
776.13	2967.51
776.31	2992.08
776.48	3233.74
776.66	3313.61
776.84	3182.54
777.01	3061.71
777.19	2992.08
777.37	3037.14
777.54	3463.12
777.72	3676.10
777.90	3192.78
778.07	2951.12
778.25	3977.16
778.43	3448.78
778.60	2963.41
778.78	3147.73
778.96	3647.43
779.13	3014.61
779.31	3180.50
779.49	3119.06
779.66	3336.14
779.84	3311.57
780.01	2992.08
780.19	3035.09
780.37	3608.52
780.54	3319.76
780.72	2918.36
780.90	3090.38
781.07	3213.26
781.25	3014.61
781.43	3246.03
781.60	3074.00
781.78	3444.68
781.95	3323.85
782.13	3092.43
782.31	3078.10
782.48	2998.23
782.66	3250.13
782.83	3286.99
783.01	3121.10
783.19	3422.16
783.36	3268.56
783.54	2983.89
783.72	3180.50
783.89	3205.07
784.07	3250.13
784.24	3278.80
784.42	3227.60
784.60	3364.81
784.77	3241.93
784.95	2885.59
785.12	3084.24
785.30	3332.05
785.47	3106.77
785.65	2955.22
785.83	3125.20
786.00	3129.30
786.18	3235.79
786.35	2998.23
786.53	3067.86
786.71	3479.50
786.88	3411.92
787.06	3205.07
787.23	3149.78
787.41	3020.75
787.58	3256.27
787.76	3090.38
787.94	3063.76
788.11	3274.70
788.29	2985.94
788.46	3012.56
788.64	2963.41
788.81	3176.40
788.99	3033.04
789.16	3049.43
789.34	3151.82
789.52	3104.72
789.69	3274.70
789.87	2912.21
790.04	3028.95
790.22	3278.80
790.39	3639.24
790.57	3033.04
790.74	2990.03
790.92	3551.18
791.09	2936.79
791.27	3162.06
791.44	3229.65
791.62	3229.65
791.79	3405.77
791.97	3151.82
792.15	3346.38
792.32	3385.29
792.50	3420.11
792.67	3307.47
792.85	3385.29
793.02	3325.90
793.20	3196.88
793.37	2967.51
793.55	3010.51
793.72	3033.04
793.90	3405.77
794.07	3000.27
794.25	3012.56
794.42	3315.66
794.60	3213.26
794.77	3217.36
794.95	3252.17
795.12	3499.98
795.30	3184.59
795.47	2844.63
795.65	3401.68
795.82	3395.53
796.00	3119.06
796.17	3063.76
796.34	3000.27
796.52	3315.66
796.69	3426.25
796.87	3155.92
797.04	3190.74
797.22	3428.30
797.39	3323.85
797.57	3289.04
797.74	3198.93
797.92	3301.33
798.09	3147.73
798.27	3397.58
798.44	3071.95
798.62	3129.30
798.79	3297.23
798.96	3303.37
799.14	3098.58
799.31	3798.98
799.49	3182.54
799.66	3086.29
799.84	3067.86
800.01	3018.71
800.19	3264.46
800.36	2811.86
800.53	3164.11
800.71	3352.52
800.88	3542.99
801.06	3016.66
801.23	2977.75
801.41	3213.26
801.58	3184.59
801.75	3024.85
801.93	3090.38
802.10	3450.83
802.28	3203.02
802.45	3133.39
802.63	3127.25
802.80	3602.38
802.97	3215.31
803.15	3092.43
803.32	3067.86
803.50	3065.81
803.67	3082.19
803.84	3033.04
804.02	3217.36
804.19	3196.88
804.37	2865.11
804.54	3002.32
804.71	3000.27
804.89	3231.69
805.06	3074.00
805.24	2983.89
805.41	2951.12
805.58	3071.95
805.76	3755.97
805.93	3010.51
806.10	3258.32
806.28	3416.01
806.45	3387.34
806.63	3241.93
806.80	3233.74
806.97	3381.20
807.15	3286.99
807.32	3233.74
807.49	3047.38
807.67	3082.19
807.84	3362.76
808.01	2942.93
808.19	3246.03
808.36	3725.26
808.54	3213.26
808.71	3045.33
808.88	3047.38
809.06	3508.17
809.23	3598.28
809.40	3112.91
809.58	3047.38
809.75	3217.36
809.92	2965.46
810.10	3366.86
810.27	2994.13
810.44	3280.85
810.62	3366.86
810.79	3016.66
810.96	3098.58
811.14	3221.45
811.31	3422.16
811.48	3221.45
811.66	3119.06
811.83	3379.15
812.00	3323.85
812.18	3258.32
812.35	3377.10
812.52	3133.39
812.69	3217.36
812.87	3053.52
813.04	3033.04
813.21	3250.13
813.39	3155.92
813.56	2994.13
813.73	3360.72
813.91	3037.14
814.08	3239.89
814.25	3043.28
814.42	2885.59
814.60	3147.73
814.77	3330.00
814.94	3086.29
815.12	3168.21
815.29	3592.14
815.46	3090.38
815.63	3141.58
815.81	3067.86
815.98	3190.74
816.15	3301.33
816.33	3168.21
816.50	3125.20
816.67	3305.42
816.84	3190.74
817.02	3000.27
817.19	3082.19
817.36	3317.71
817.53	3323.85
817.71	2969.55
817.88	3155.92
818.05	3119.06
818.22	3172.30
818.40	3182.54
818.57	3069.91
818.74	3344.33
818.91	3186.64
819.09	3258.32
819.26	3239.89
819.43	3131.34
819.60	3141.58
819.78	3293.13
819.95	3215.31
820.12	3080.14
820.29	3549.13
820.47	3325.90
820.64	3037.14
820.81	3059.67
820.98	3076.05
821.15	3176.40
821.33	3295.18
821.50	2961.36
821.67	3434.44
821.84	3047.38
822.02	3020.75
822.19	3405.77
822.36	3139.54
822.53	3037.14
822.70	2936.79
822.88	3205.07
823.05	3522.51
823.22	3262.41
823.39	3047.38
823.56	3196.88
823.74	3635.14
823.91	2887.64
824.08	3012.56
824.25	3059.67
824.42	3612.62
824.60	2869.20
824.77	3123.15
824.94	3207.12
825.11	3338.19
825.28	2967.51
825.45	3184.59
825.63	3229.65
825.80	3139.54
825.97	3227.60
826.14	3135.44
826.31	2959.31
826.48	3397.58
826.66	3123.15
826.83	3035.09
827.00	3139.54
827.17	3090.38
827.34	3084.24
827.51	2944.98
827.69	3274.70
827.86	2996.18
828.03	3168.21
828.20	3106.77
828.37	3151.82
828.54	3383.24
828.71	2973.65
828.89	3164.11
829.06	3229.65
829.23	3565.51
829.40	3090.38
829.57	2944.98
829.74	3442.64
829.91	3157.97
830.09	2977.75
830.26	3174.35
830.43	3561.42
830.60	3225.55
830.77	3198.93
830.94	3303.37
831.11	3377.10
831.28	3237.84
831.46	3254.22
831.63	3026.90
831.80	3411.92
831.97	3014.61
832.14	3155.92
832.31	3090.38
832.48	3286.99
832.65	3426.25
832.82	3219.41
832.99	3172.30
833.17	3074.00
833.34	3594.19
833.51	3043.28
833.68	2863.06
833.85	3444.68
834.02	3074.00
834.19	2983.89
834.36	3053.52
834.53	3352.52
834.70	3475.40
834.87	3090.38
835.04	2869.20
835.22	3104.72
835.39	3254.22
835.56	2893.78
835.73	2908.12
835.90	3479.50
836.07	3092.43
836.24	3127.25
836.41	2953.17
836.58	3082.19
836.75	3446.73
836.92	2955.22
837.09	2873.30
837.26	3473.36
837.43	3295.18
837.60	2967.51
837.77	2865.11
837.94	3487.69
838.12	3491.79
838.29	2807.77
838.46	2789.33
838.63	2979.79
838.80	3549.13
838.97	2996.18
839.14	2910.16
839.31	3413.96
839.48	3405.77
839.65	2953.17
839.82	3067.86
839.99	3241.93
840.16	3401.68
840.33	2848.72
840.50	3010.51
840.67	3194.83
840.84	2820.05
841.01	2869.20
841.18	2881.49
841.35	3180.50
841.52	3387.34
841.69	3270.61
841.86	3041.23
842.03	3246.03
842.20	3397.58
842.37	2934.74
842.54	2955.22
842.71	3301.33
842.88	3018.71
843.05	2936.79
843.22	2908.12
843.39	3467.21
843.56	3139.54
843.73	2912.21
843.90	2979.79
844.07	3223.50
844.24	3379.15
844.41	2985.94
844.58	3033.04
844.75	3336.14
844.92	3413.96
845.09	3055.57
845.26	2947.03
845.43	3395.53
845.60	3176.40
845.77	2996.18
845.94	3008.47
846.10	3448.78
846.27	2994.13
846.44	2750.42
846.61	2850.77
846.78	3373.00
846.95	3405.77
847.12	2818.00
847.29	2891.73
847.46	3102.67
847.63	3448.78
847.80	2856.92
847.97	2908.12
848.14	3778.50
848.31	3176.40
848.48	2723.80
848.65	2926.55
848.82	3065.81
848.98	3727.30
849.15	3045.33
849.32	3049.43
849.49	3448.78
849.66	3205.07
849.83	2899.92
850.00	2795.48
850.17	3434.44
850.34	3178.45
850.51	2928.60
850.68	3000.27
850.85	3725.26
851.01	3225.55
851.18	2877.40
851.35	2951.12
851.52	3340.24
851.69	3512.27
851.86	2897.88
852.03	2901.97
852.20	3411.92
852.37	3266.51
852.53	2772.95
852.70	2875.35
852.87	3301.33
853.04	3434.44
853.21	2883.54
853.38	3127.25
853.55	3491.79
853.72	3508.17
853.89	2838.48
854.05	2871.25
854.22	3217.36
854.39	3198.93
854.56	2887.64
854.73	3033.04
854.90	3047.38
855.07	3207.12
855.23	2856.92
855.40	2820.05
855.57	3225.55
855.74	2830.29
855.91	3131.34
856.08	2766.81
856.25	2994.13
856.41	3205.07
856.58	2850.77
856.75	2914.26
856.92	3045.33
857.09	3475.40
857.26	2688.98
857.42	3000.27
857.59	3389.39
857.76	3207.12
857.93	2832.34
858.10	2990.03
858.27	2977.75
858.43	3254.22
858.60	2912.21
858.77	2856.92
858.94	3160.02
859.11	3530.70
859.27	3076.05
859.44	2826.20
859.61	3649.48
859.78	3303.37
859.95	2871.25
860.12	2787.29
860.28	3768.26
860.45	3702.73
860.62	2848.72
860.79	3037.14
860.95	3211.22
861.12	3100.62
861.29	2861.01
861.46	2877.40
861.63	3241.93
861.79	3385.29
861.96	2723.80
862.13	2912.21
862.30	3592.14
862.47	3125.20
862.63	2789.33
862.80	3002.32
862.97	3440.59
863.14	3289.04
863.30	2934.74
863.47	2854.87
863.64	3602.38
863.81	3289.04
863.97	2742.23
864.14	2944.98
864.31	3217.36
864.48	3303.37
864.65	2889.68
864.81	2985.94
864.98	3424.20
865.15	3354.57
865.32	3033.04
865.48	3014.61
865.65	3592.14
865.82	3119.06
865.98	3000.27
866.15	3002.32
866.32	3268.56
866.49	3164.11
866.65	3080.14
866.82	2867.16
866.99	3192.78
867.16	3151.82
867.32	2881.49
867.49	2846.68
867.66	3254.22
867.83	3153.87
867.99	2895.83
868.16	3014.61
868.33	2994.13
868.49	3276.75
868.66	2920.40
868.83	3030.99
868.99	3291.09
869.16	3278.80
869.33	3063.76
869.50	2932.69
869.66	3286.99
869.83	3246.03
870.00	2815.96
870.16	3022.80
870.33	3256.27
870.50	3432.40
870.66	3028.95
870.83	3037.14
871.00	3151.82
871.17	3456.97
871.33	2963.41
871.50	2908.12
871.67	3274.70
871.83	3246.03
872.00	3059.67
872.17	3000.27
872.33	3657.67
872.50	3444.68
872.67	2881.49
872.83	2926.55
873.00	3334.09
873.17	3268.56
873.33	2916.31
873.50	2914.26
873.67	3123.15
873.83	3092.43
874.00	2981.84
874.16	3067.86
874.33	3276.75
874.50	3076.05
874.66	2901.97
874.83	2977.75
875.00	3430.35
875.16	3510.22
875.33	3014.61
875.50	2672.60
875.66	3143.63
875.83	3286.99
875.99	3030.99
876.16	2973.65
876.33	3020.75
876.49	3254.22
876.66	2928.60
876.83	2926.55
876.99	2889.68
877.16	3278.80
877.32	2815.96
877.49	3028.95
877.66	3409.87
877.82	3545.03
877.99	2985.94
878.15	3172.30
878.32	3325.90
878.49	3270.61
878.65	3028.95
878.82	3196.88
878.98	3082.19
879.15	3469.26
879.32	3026.90
879.48	3059.67
879.65	3250.13
879.81	3254.22
879.98	2918.36
880.15	3067.86
880.31	3317.71
880.48	3024.85
880.64	3053.52
880.81	3039.19
880.97	3583.95
881.14	3561.42
881.31	2889.68
881.47	3059.67
881.64	3188.69
881.80	2990.03
881.97	3098.58
882.13	2987.99
882.30	3059.67
882.47	3207.12
882.63	2901.97
882.80	2928.60
882.96	3209.17
883.13	3450.83
883.29	2912.21
883.46	2844.63
883.62	3686.34
883.79	3373.00
883.95	3053.52
884.12	2858.96
884.29	3516.36
884.45	3278.80
884.62	2973.65
884.78	2904.02
884.95	3602.38
885.11	3094.48
885.28	3024.85
885.44	2944.98
885.61	3332.05
885.77	3512.27
885.94	3057.62
886.10	2975.70
886.27	3239.89
886.43	3641.29
886.60	3106.77
886.76	3000.27
886.93	3117.01
887.09	3280.85
887.26	2787.29
887.42	3020.75
887.59	3504.07
887.75	3622.86
887.92	3198.93
888.08	3076.05
888.25	3690.44
888.41	3479.50
888.58	2996.18
888.74	2901.97
888.91	3131.34
>>>>>End Processed Spectral Data<<<<<
