SpectraSuite Data File
++++++++++++++++++++++++++++++++++++
Date: Fri May 06 08:14:13 CEST 2016
User: root
Dark Spectrum Present: No
Reference Spectrum Present: No
Number of Sampled Component Spectra: 1
Spectrometers: USB4C02835
Integration Time (usec): 100000 (USB4C02835)
Spectra Averaged: 1 (USB4C02835)
Boxcar Smoothing: 0 (USB4C02835)
Correct for Electrical Dark: No (USB4C02835)
Strobe/Lamp Enabled: No (USB4C02835)
Correct for Detector Non-linearity: No (USB4C02835)
Correct for Stray Light: No (USB4C02835)
Number of Pixels in Processed Spectrum: 3648
>>>>>Begin Processed Spectral Data<<<<<
177.47	2301.92
177.69	2301.92
177.91	2301.92
178.13	2256.86
178.36	2179.04
178.58	3018.71
178.80	3145.68
179.02	2926.55
179.24	3074.00
179.46	2742.23
179.68	2758.61
179.90	3180.50
180.13	3291.09
180.35	2670.55
180.57	2795.48
180.79	3381.20
181.01	3231.69
181.23	2832.34
181.45	3037.14
181.67	3407.82
181.90	3452.88
182.12	2924.50
182.34	2658.26
182.56	3407.82
182.78	3377.10
183.00	2754.52
183.22	2916.31
183.44	2951.12
183.66	3985.35
183.89	3033.04
184.11	2852.82
184.33	3411.92
184.55	3534.79
184.77	2848.72
184.99	2852.82
185.21	3221.45
185.43	3821.51
185.65	2912.21
185.87	2785.24
186.10	3725.26
186.32	3796.93
186.54	3026.90
186.76	3041.23
186.98	3581.90
187.20	3131.34
187.42	2920.40
187.64	2865.11
187.86	3366.86
188.08	3495.88
188.30	2787.29
188.52	2934.74
188.75	3583.95
188.97	3561.42
189.19	2832.34
189.41	2836.44
189.63	3479.50
189.85	3194.83
190.07	2715.61
190.29	2787.29
190.51	3391.44
190.73	2940.88
190.95	3092.43
191.17	2959.31
191.39	3061.71
191.61	3196.88
191.84	2908.12
192.06	2985.94
192.28	3035.09
192.50	3962.82
192.72	3014.61
192.94	2963.41
193.16	3502.03
193.38	3389.39
193.60	2897.88
193.82	3057.62
194.04	3528.65
194.26	3303.37
194.48	2897.88
194.70	2936.79
194.92	3250.13
195.14	3395.53
195.36	2863.06
195.58	2955.22
195.80	3196.88
196.02	3090.38
196.24	2873.30
196.46	2983.89
196.69	3190.74
196.91	3770.31
197.13	2922.45
197.35	2852.82
197.57	3567.56
197.79	3393.48
198.01	3010.51
198.23	2924.50
198.45	3336.14
198.67	3045.33
198.89	2729.94
199.11	2936.79
199.33	3174.35
199.55	2936.79
199.77	2852.82
199.99	2987.99
200.21	3155.92
200.43	3286.99
200.65	2678.74
200.87	2711.51
201.09	3358.67
201.31	3286.99
201.53	2885.59
201.75	2992.08
201.97	3327.95
202.19	3262.41
202.41	3033.04
202.63	3057.62
202.85	3397.58
203.07	3342.28
203.29	2928.60
203.51	2768.85
203.73	3104.72
203.95	3813.32
204.17	2854.87
204.39	2940.88
204.61	3266.51
204.83	3133.39
205.05	3012.56
205.27	2881.49
205.49	3717.06
205.71	3276.75
205.93	2711.51
206.15	2729.94
206.37	3379.15
206.59	3180.50
206.81	2750.42
207.03	2770.90
207.25	3114.96
207.47	3379.15
207.69	2885.59
207.91	3117.01
208.13	3631.05
208.34	3135.44
208.56	2848.72
208.78	2820.05
209.00	3225.55
209.22	3229.65
209.44	2877.40
209.66	2832.34
209.88	3291.09
210.10	3239.89
210.32	2799.57
210.54	2987.99
210.76	3235.79
210.98	3432.40
211.20	2752.47
211.42	3053.52
211.64	3528.65
211.86	3315.66
212.08	2936.79
212.30	2883.54
212.52	3200.98
212.74	3401.68
212.96	2967.51
213.17	2940.88
213.39	3362.76
213.61	3700.68
213.83	2873.30
214.05	2770.90
214.27	3442.64
214.49	3061.71
214.71	2875.35
214.93	2938.84
215.15	3327.95
215.37	3446.73
215.59	2785.24
215.81	2887.64
216.03	3571.66
216.24	3346.38
216.46	2795.48
216.68	2918.36
216.90	3430.35
217.12	3413.96
217.34	2877.40
217.56	3043.28
217.78	3577.80
218.00	3393.48
218.22	3000.27
218.44	2963.41
218.66	3299.28
218.87	3672.01
219.09	2891.73
219.31	2910.16
219.53	3332.05
219.75	3168.21
219.97	2959.31
220.19	2885.59
220.41	3264.46
220.63	3553.23
220.85	2908.12
221.06	2901.97
221.28	3510.22
221.50	3377.10
221.72	2852.82
221.94	2729.94
222.16	3330.00
222.38	3428.30
222.60	2846.68
222.82	2951.12
223.03	3508.17
223.25	3008.47
223.47	2807.77
223.69	3028.95
223.91	3381.20
224.13	3284.94
224.35	2738.13
224.57	3016.66
224.78	3358.67
225.00	3119.06
225.22	3037.14
225.44	2815.96
225.66	3487.69
225.88	3196.88
226.10	2920.40
226.32	2836.44
226.53	3542.99
226.75	3207.12
226.97	2959.31
227.19	2895.83
227.41	3102.67
227.63	3182.54
227.85	2789.33
228.06	2936.79
228.28	3246.03
228.50	3516.36
228.72	2729.94
228.94	2824.15
229.16	2822.10
229.37	3059.67
229.59	2815.96
229.81	3086.29
230.03	3209.17
230.25	2932.69
230.47	2693.08
230.69	2893.78
230.90	3422.16
231.12	3065.81
231.34	2996.18
231.56	2912.21
231.78	3133.39
232.00	3289.04
232.21	2975.70
232.43	2920.40
232.65	2914.26
232.87	3377.10
233.09	2674.65
233.30	2750.42
233.52	3497.93
233.74	3100.62
233.96	2850.77
234.18	3010.51
234.40	3319.76
234.61	3665.86
234.83	2789.33
235.05	2834.39
235.27	3774.41
235.49	3487.69
235.70	2635.74
235.92	2885.59
236.14	3381.20
236.36	3823.56
236.58	2713.56
236.79	2983.89
237.01	3237.84
237.23	3311.57
237.45	3074.00
237.67	2826.20
237.88	3416.01
238.10	3510.22
238.32	2826.20
238.54	2813.91
238.76	3360.72
238.97	3063.76
239.19	2764.76
239.41	2895.83
239.63	3583.95
239.85	3180.50
240.06	2926.55
240.28	2838.48
240.50	3465.16
240.72	3229.65
240.93	2691.03
241.15	2983.89
241.37	3229.65
241.59	3575.75
241.81	2756.57
242.02	2926.55
242.24	3399.63
242.46	3444.68
242.68	2695.13
242.89	2793.43
243.11	3508.17
243.33	3168.21
243.55	2850.77
243.76	2815.96
243.98	3284.94
244.20	3203.02
244.42	2867.16
244.64	2834.39
244.85	3051.47
245.07	3106.77
245.29	2869.20
245.51	2893.78
245.72	3336.14
245.94	3461.07
246.16	2865.11
246.38	2910.16
246.59	3219.41
246.81	3098.58
247.03	2783.19
247.24	2727.89
247.46	3178.45
247.68	3299.28
247.90	2752.47
248.11	2963.41
248.33	3499.98
248.55	3299.28
248.77	2940.88
248.98	2947.03
249.20	3694.54
249.42	3293.13
249.64	2815.96
249.85	2746.33
250.07	3205.07
250.29	3442.64
250.50	2938.84
250.72	2799.57
250.94	3338.19
251.16	3774.41
251.37	2904.02
251.59	2904.02
251.81	3305.42
252.02	3600.33
252.24	2734.04
252.46	2979.79
252.68	3112.91
252.89	3092.43
253.11	2680.79
253.33	2975.70
253.54	3502.03
253.76	3090.38
253.98	2807.77
254.20	2811.86
254.41	3106.77
254.63	3336.14
254.85	2740.18
255.06	3043.28
255.28	3338.19
255.50	3123.15
255.71	2791.38
255.93	2709.46
256.15	3336.14
256.36	3401.68
256.58	2725.85
256.80	2801.62
257.02	3323.85
257.23	3203.02
257.45	2981.84
257.67	2979.79
257.88	3155.92
258.10	3401.68
258.32	2848.72
258.53	2981.84
258.75	3719.11
258.97	3160.02
259.18	2770.90
259.40	2805.72
259.62	3614.66
259.83	3579.85
260.05	2854.87
260.27	3688.39
260.48	3487.69
260.70	3102.67
260.92	2877.40
261.13	2856.92
261.35	3352.52
261.57	3358.67
261.78	2697.17
262.00	2838.48
262.22	3358.67
262.43	3024.85
262.65	2850.77
262.86	2883.54
263.08	3778.50
263.30	3280.85
263.51	2768.85
263.73	2791.38
263.95	3649.48
264.16	3127.25
264.38	2762.71
264.60	2893.78
264.81	3252.17
265.03	3434.44
265.25	3246.03
265.46	2805.72
265.68	3524.55
265.89	3444.68
266.11	2756.57
266.33	2912.21
266.54	3489.74
266.76	3366.86
266.98	2957.27
267.19	3119.06
267.41	3483.59
267.62	3284.94
267.84	2697.17
268.06	2987.99
268.27	3332.05
268.49	3483.59
268.70	2918.36
268.92	2875.35
269.14	3123.15
269.35	2942.93
269.57	2971.60
269.79	2906.07
270.00	3276.75
270.22	3657.67
270.43	2648.02
270.65	2697.17
270.87	3352.52
271.08	3573.71
271.30	3004.37
271.51	2891.73
271.73	3454.92
271.95	3520.46
272.16	2762.71
272.38	3033.04
272.59	3200.98
272.81	3442.64
273.02	2742.23
273.24	2901.97
273.46	3485.64
273.67	3033.04
273.89	2787.29
274.10	2897.88
274.32	3508.17
274.54	3299.28
274.75	2961.36
274.97	2975.70
275.18	3405.77
275.40	3284.94
275.61	2981.84
275.83	3035.09
276.05	3110.86
276.26	3307.47
276.48	3049.43
276.69	3051.47
276.91	3114.96
277.12	3545.03
277.34	3074.00
277.55	3153.87
277.77	3321.81
277.99	3182.54
278.20	3049.43
278.42	2934.74
278.63	3057.62
278.85	3125.20
279.06	2877.40
279.28	3135.44
279.49	3413.96
279.71	3389.39
279.93	3074.00
280.14	3082.19
280.36	3168.21
280.57	3475.40
280.79	3069.91
281.00	2881.49
281.22	3104.72
281.43	3547.08
281.65	2766.81
281.86	2867.16
282.08	3424.20
282.29	3667.91
282.51	2869.20
282.73	2887.64
282.94	2930.64
283.16	3520.46
283.37	3112.91
283.59	2990.03
283.80	3368.91
284.02	3213.26
284.23	3016.66
284.45	3002.32
284.66	3155.92
284.88	3139.54
285.09	2858.96
285.31	3117.01
285.52	3348.43
285.74	3026.90
285.95	3207.12
286.17	3033.04
286.38	3575.75
286.60	3141.58
286.81	2949.08
287.03	2971.60
287.24	3209.17
287.46	3377.10
287.67	3157.97
287.89	3164.11
288.10	3338.19
288.32	3305.42
288.53	3086.29
288.75	3094.48
288.96	3432.40
289.18	3174.35
289.39	2953.17
289.61	3055.57
289.82	3786.69
290.04	3712.97
290.25	2904.02
290.47	3061.71
290.68	3246.03
290.90	3483.59
291.11	2832.34
291.33	3270.61
291.54	3114.96
291.76	3160.02
291.97	3182.54
292.18	3041.23
292.40	3133.39
292.61	3170.26
292.83	3325.90
293.04	2998.23
293.26	3352.52
293.47	3166.16
293.69	2908.12
293.90	2942.93
294.12	3497.93
294.33	3286.99
294.55	2963.41
294.76	3176.40
294.97	3590.09
295.19	3819.46
295.40	2918.36
295.62	3065.81
295.83	3403.72
296.05	3153.87
296.26	3143.63
296.48	2957.27
296.69	3180.50
296.90	3229.65
297.12	3151.82
297.33	3082.19
297.55	3229.65
297.76	3309.52
297.98	3008.47
298.19	3160.02
298.41	3311.57
298.62	3047.38
298.83	3180.50
299.05	3092.43
299.26	3205.07
299.48	3129.30
299.69	3041.23
299.90	3006.42
300.12	3059.67
300.33	3444.68
300.55	3041.23
300.76	2983.89
300.98	3133.39
301.19	3403.72
301.40	2967.51
301.62	3014.61
301.83	3377.10
302.05	3334.09
302.26	3022.80
302.47	3114.96
302.69	3078.10
302.90	3348.43
303.12	2885.59
303.33	3172.30
303.54	3649.48
303.76	3119.06
303.97	3026.90
304.19	3166.16
304.40	3135.44
304.61	3446.73
304.83	3026.90
305.04	3078.10
305.26	3485.64
305.47	3149.78
305.68	2979.79
305.90	2891.73
306.11	3502.03
306.33	3264.46
306.54	2838.48
306.75	2977.75
306.97	2910.16
307.18	3102.67
307.39	3002.32
307.61	3055.57
307.82	3200.98
308.04	3268.56
308.25	2914.26
308.46	3104.72
308.68	3239.89
308.89	3237.84
309.10	3106.77
309.32	3043.28
309.53	3254.22
309.74	3315.66
309.96	2916.31
310.17	3092.43
310.39	3280.85
310.60	3375.05
310.81	3041.23
311.03	2987.99
311.24	3424.20
311.45	3213.26
311.67	3200.98
311.88	3147.73
312.09	3303.37
312.31	3194.83
312.52	2975.70
312.73	3049.43
312.95	2977.75
313.16	3121.10
313.37	3176.40
313.59	3143.63
313.80	3438.54
314.01	3530.70
314.23	3002.32
314.44	2944.98
314.65	3014.61
314.87	3090.38
315.08	2987.99
315.29	3059.67
315.51	3108.82
315.72	3010.51
315.93	3041.23
316.15	3002.32
316.36	3190.74
316.57	3389.39
316.79	3022.80
317.00	2936.79
317.21	3418.06
317.43	3065.81
317.64	3028.95
317.85	2934.74
318.07	3155.92
318.28	3160.02
318.49	3057.62
318.70	3348.43
318.92	3368.91
319.13	3336.14
319.34	3241.93
319.56	2955.22
319.77	3383.24
319.98	3354.57
320.20	3274.70
320.41	3250.13
320.62	3401.68
320.83	3061.71
321.05	3239.89
321.26	3084.24
321.47	3330.00
321.69	3454.92
321.90	2916.31
322.11	2994.13
322.32	3332.05
322.54	3641.29
322.75	3123.15
322.96	3950.53
323.18	2992.08
323.39	2998.23
323.60	2893.78
323.81	2985.94
324.03	3133.39
324.24	3336.14
324.45	3090.38
324.66	2918.36
324.88	3495.88
325.09	3604.42
325.30	2959.31
325.52	2914.26
325.73	3297.23
325.94	3074.00
326.15	2848.72
326.37	2846.68
326.58	3477.45
326.79	3682.25
327.00	2871.25
327.22	3035.09
327.43	3194.83
327.64	3123.15
327.85	3088.34
328.07	3065.81
328.28	3594.19
328.49	3139.54
328.70	2967.51
328.92	2963.41
329.13	3217.36
329.34	3393.48
329.55	3217.36
329.76	3184.59
329.98	3168.21
330.19	3532.75
330.40	3098.58
330.61	3166.16
330.83	3489.74
331.04	3057.62
331.25	3051.47
331.46	3006.42
331.68	3069.91
331.89	3479.50
332.10	3057.62
332.31	2766.81
332.52	3266.51
332.74	3585.99
332.95	2801.62
333.16	2910.16
333.37	3434.44
333.58	3147.73
333.80	3004.37
334.01	2861.01
334.22	3286.99
334.43	3106.77
334.64	2934.74
334.86	2977.75
335.07	3141.58
335.28	3567.56
335.49	2861.01
335.70	3102.67
335.92	3481.55
336.13	3690.44
336.34	3069.91
336.55	3108.82
336.76	3438.54
336.98	2936.79
337.19	3026.90
337.40	3125.20
337.61	3803.08
337.82	3125.20
338.04	3092.43
338.25	2848.72
338.46	3309.52
338.67	3237.84
338.88	2934.74
339.09	2871.25
339.31	3221.45
339.52	2987.99
339.73	3008.47
339.94	3069.91
340.15	3450.83
340.36	3293.13
340.58	3063.76
340.79	2887.64
341.00	3475.40
341.21	3049.43
341.42	3221.45
341.63	3049.43
341.85	3475.40
342.06	3297.23
342.27	2928.60
342.48	3186.64
342.69	3041.23
342.90	3297.23
343.12	3471.31
343.33	2985.94
343.54	3438.54
343.75	3551.18
343.96	3049.43
344.17	2881.49
344.38	3254.22
344.60	3082.19
344.81	2887.64
345.02	2996.18
345.23	3508.17
345.44	3772.36
345.65	3074.00
345.86	3028.95
346.07	3291.09
346.29	3149.78
346.50	3129.30
346.71	3071.95
346.92	3618.76
347.13	3780.55
347.34	3039.19
347.55	2889.68
347.76	3381.20
347.98	3049.43
348.19	3082.19
348.40	3094.48
348.61	3194.83
348.82	3583.95
349.03	3096.53
349.24	2893.78
349.45	3577.80
349.66	2928.60
349.88	3039.19
350.09	2918.36
350.30	3512.27
350.51	3469.26
350.72	3192.78
350.93	3045.33
351.14	3168.21
351.35	3401.68
351.56	3024.85
351.77	3100.62
351.99	3389.39
352.20	3620.81
352.41	3131.34
352.62	2887.64
352.83	3196.88
353.04	3301.33
353.25	3051.47
353.46	3033.04
353.67	3477.45
353.88	2969.55
354.09	2981.84
354.30	3033.04
354.52	3424.20
354.73	3196.88
354.94	2942.93
355.15	2992.08
355.36	3635.14
355.57	3057.62
355.78	2955.22
355.99	2985.94
356.20	3295.18
356.41	3624.90
356.62	3141.58
356.83	3131.34
357.04	3594.19
357.25	3041.23
357.46	2944.98
357.68	2897.88
357.89	3104.72
358.10	3297.23
358.31	2975.70
358.52	2961.36
358.73	3047.38
358.94	3012.56
359.15	3049.43
359.36	2998.23
359.57	3282.89
359.78	3248.08
359.99	3192.78
360.20	2936.79
360.41	3291.09
360.62	3430.35
360.83	3061.71
361.04	3049.43
361.25	3278.80
361.46	3676.10
361.67	3084.24
361.88	3071.95
362.09	3481.55
362.30	3362.76
362.51	2930.64
362.72	3002.32
362.93	3477.45
363.14	3284.94
363.35	3192.78
363.56	2936.79
363.78	3526.60
363.99	3510.22
364.20	3024.85
364.41	3141.58
364.62	3655.62
364.83	3352.52
365.04	2975.70
365.25	3139.54
365.46	3614.66
365.67	3160.02
365.88	3162.06
366.09	2973.65
366.30	3184.59
366.51	3282.89
366.72	2891.73
366.93	2920.40
367.14	3389.39
367.35	3577.80
367.56	2951.12
367.77	3106.77
367.98	3323.85
368.18	3418.06
368.39	3180.50
368.60	2922.45
368.81	3442.64
369.02	3352.52
369.23	3000.27
369.44	2879.44
369.65	3149.78
369.86	3340.24
370.07	3078.10
370.28	2938.84
370.49	3309.52
370.70	3352.52
370.91	2938.84
371.12	2912.21
371.33	3522.51
371.54	3114.96
371.75	3069.91
371.96	2861.01
372.17	3301.33
372.38	3311.57
372.59	3037.14
372.80	2889.68
373.01	3237.84
373.22	3389.39
373.43	3018.71
373.64	2836.44
373.85	3508.17
374.06	3653.58
374.26	3121.10
374.47	3117.01
374.68	3608.52
374.89	3313.61
375.10	2875.35
375.31	3123.15
375.52	3286.99
375.73	3260.37
375.94	2875.35
376.15	3069.91
376.36	3149.78
376.57	3184.59
376.78	3045.33
376.99	3002.32
377.20	3506.12
377.40	3182.54
377.61	3346.38
377.82	2977.75
378.03	3624.90
378.24	3418.06
378.45	3135.44
378.66	3082.19
378.87	2969.55
379.08	2971.60
379.29	3006.42
379.50	3164.11
379.71	3252.17
379.91	3434.44
380.12	3061.71
380.33	3207.12
380.54	3186.64
380.75	3256.27
380.96	2965.46
381.17	3051.47
381.38	3235.79
381.59	3297.23
381.80	3104.72
382.00	3188.69
382.21	3268.56
382.42	3553.23
382.63	3379.15
382.84	3164.11
383.05	3418.06
383.26	3530.70
383.47	3186.64
383.68	3047.38
383.88	3452.88
384.09	3405.77
384.30	3205.07
384.51	3151.82
384.72	3205.07
384.93	2992.08
385.14	3117.01
385.35	3305.42
385.55	3045.33
385.76	3491.79
385.97	3041.23
386.18	2951.12
386.39	3237.84
386.60	3043.28
386.81	3008.47
387.02	2924.50
387.22	3043.28
387.43	3493.83
387.64	3131.34
387.85	3303.37
388.06	3319.76
388.27	4337.60
388.48	7765.90
388.68	12027.72
388.89	14958.36
389.10	16488.20
389.31	16123.66
389.52	13199.16
389.73	11272.02
389.93	10252.13
390.14	9310.07
390.35	8568.70
390.56	7905.16
390.77	6723.48
390.98	5064.63
391.18	4270.01
391.39	3829.70
391.60	3280.85
391.81	3215.31
392.02	3000.27
392.23	3764.17
392.43	3237.84
392.64	3090.38
392.85	3100.62
393.06	3602.38
393.27	3262.41
393.47	3016.66
393.68	3037.14
393.89	3147.73
394.10	3596.23
394.31	3069.91
394.52	2967.51
394.72	3166.16
394.93	3641.29
395.14	2959.31
395.35	3149.78
395.56	3137.49
395.76	3289.04
395.97	3045.33
396.18	3176.40
396.39	3289.04
396.60	3925.96
396.80	3426.25
397.01	3258.32
397.22	3497.93
397.43	3471.31
397.64	3033.04
397.84	3155.92
398.05	3588.04
398.26	3203.02
398.47	3178.45
398.67	3327.95
398.88	3340.24
399.09	3395.53
399.30	3082.19
399.51	3143.63
399.71	3162.06
399.92	3303.37
400.13	3080.14
400.34	3006.42
400.54	3356.62
400.75	3590.09
400.96	3221.45
401.17	3334.09
401.37	3379.15
401.58	3215.31
401.79	3002.32
402.00	3065.81
402.21	3706.82
402.41	3489.74
402.62	3362.76
402.83	3520.46
403.04	3774.41
403.24	4016.07
403.45	3237.84
403.66	3450.83
403.87	3467.21
404.07	3663.82
404.28	3276.75
404.49	3424.20
404.70	3368.91
404.90	3463.12
405.11	3094.48
405.32	3110.86
405.52	3188.69
405.73	3153.87
405.94	2971.60
406.15	3147.73
406.35	3448.78
406.56	3397.58
406.77	3084.24
406.98	3008.47
407.18	3123.15
407.39	3547.08
407.60	3123.15
407.80	3110.86
408.01	3129.30
408.22	3362.76
408.43	3000.27
408.63	3166.16
408.84	3430.35
409.05	3495.88
409.25	3039.19
409.46	2987.99
409.67	3139.54
409.88	3108.82
410.08	3061.71
410.29	2987.99
410.50	3479.50
410.70	3403.72
410.91	2934.74
411.12	3147.73
411.32	3231.69
411.53	3061.71
411.74	3076.05
411.95	3160.02
412.15	3379.15
412.36	3442.64
412.57	3155.92
412.77	3248.08
412.98	3246.03
413.19	3229.65
413.39	3096.53
413.60	3074.00
413.81	3491.79
414.01	3045.33
414.22	3055.57
414.43	3256.27
414.63	3237.84
414.84	3444.68
415.05	3108.82
415.25	2953.17
415.46	3442.64
415.67	3176.40
415.87	3049.43
416.08	2992.08
416.29	3203.02
416.49	3430.35
416.70	3123.15
416.91	3053.52
417.11	3205.07
417.32	3487.69
417.53	3137.49
417.73	3168.21
417.94	3307.47
418.15	3381.20
418.35	3149.78
418.56	3024.85
418.77	3782.60
418.97	3366.86
419.18	3119.06
419.38	2725.85
419.59	3246.03
419.80	3639.24
420.00	2942.93
420.21	3049.43
420.42	3604.42
420.62	3446.73
420.83	3053.52
421.04	3022.80
421.24	3280.85
421.45	3481.55
421.65	3071.95
421.86	3037.14
422.07	3549.13
422.27	3430.35
422.48	2951.12
422.69	2887.64
422.89	3233.74
423.10	3231.69
423.30	2983.89
423.51	3133.39
423.72	3416.01
423.92	3379.15
424.13	2842.58
424.33	3114.96
424.54	3407.82
424.75	3303.37
424.95	3286.99
425.16	2961.36
425.36	3235.79
425.57	3530.70
425.78	3256.27
425.98	3123.15
426.19	3196.88
426.39	3131.34
426.60	3119.06
426.81	3149.78
427.01	3385.29
427.22	3033.04
427.42	2889.68
427.63	2975.70
427.83	3516.36
428.04	3604.42
428.25	3061.71
428.45	3110.86
428.66	3583.95
428.86	3182.54
429.07	3166.16
429.28	3010.51
429.48	3280.85
429.69	3129.30
429.89	3180.50
430.10	2957.27
430.30	3438.54
430.51	3514.31
430.71	2971.60
430.92	3157.97
431.13	3086.29
431.33	3426.25
431.54	3063.76
431.74	3231.69
431.95	3700.68
432.15	3086.29
432.36	3057.62
432.56	3131.34
432.77	3723.21
432.98	3622.86
433.18	3098.58
433.39	2934.74
433.59	3254.22
433.80	3788.74
434.00	3254.22
434.21	3108.82
434.41	3145.68
434.62	3766.21
434.82	2953.17
435.03	2969.55
435.23	3377.10
435.44	3016.66
435.64	3045.33
435.85	3127.25
436.06	3463.12
436.26	3504.07
436.47	3010.51
436.67	2992.08
436.88	3336.14
437.08	3555.27
437.29	3184.59
437.49	3231.69
437.70	3540.94
437.90	3276.75
438.11	3203.02
438.31	3194.83
438.52	3518.41
438.72	3456.97
438.93	3393.48
439.13	3174.35
439.34	3454.92
439.54	3272.65
439.75	3190.74
439.95	3182.54
440.16	3182.54
440.36	3225.55
440.57	3082.19
440.77	3135.44
440.98	3272.65
441.18	3422.16
441.39	2977.75
441.59	2955.22
441.80	3784.65
442.00	3260.37
442.21	3172.30
442.41	2961.36
442.62	3383.24
442.82	3172.30
443.02	3090.38
443.23	3082.19
443.43	3215.31
443.64	3491.79
443.84	2912.21
444.05	3164.11
444.25	3332.05
444.46	3176.40
444.66	3067.86
444.87	3231.69
445.07	3049.43
445.28	3248.08
445.48	3176.40
445.69	3166.16
445.89	3870.66
446.09	3223.50
446.30	3368.91
446.50	3477.45
446.71	5058.48
446.91	6266.78
447.12	7219.09
447.32	7671.69
447.53	7618.44
447.73	6424.48
447.93	5552.04
448.14	5318.57
448.34	5521.32
448.55	4485.05
448.75	4433.85
448.96	4171.71
449.16	4020.16
449.36	3882.95
449.57	3325.90
449.77	3166.16
449.98	3188.69
450.18	3418.06
450.39	2985.94
450.59	3342.28
450.79	3344.33
451.00	3131.34
451.20	3307.47
451.41	3114.96
451.61	3284.94
451.81	3282.89
452.02	3047.38
452.22	3041.23
452.43	3184.59
452.63	3018.71
452.84	3176.40
453.04	2996.18
453.24	3344.33
453.45	3166.16
453.65	3014.61
453.86	3106.77
454.06	3352.52
454.26	3313.61
454.47	2979.79
454.67	3200.98
454.87	3336.14
455.08	3164.11
455.28	3188.69
455.49	3192.78
455.69	3117.01
455.89	3753.93
456.10	3139.54
456.30	3024.85
456.51	3389.39
456.71	3241.93
456.91	3221.45
457.12	3063.76
457.32	3315.66
457.52	3086.29
457.73	3227.60
457.93	3297.23
458.14	3176.40
458.34	2908.12
458.54	3065.81
458.75	3008.47
458.95	3506.12
459.15	3360.72
459.36	3084.24
459.56	3182.54
459.76	3792.84
459.97	3295.18
460.17	3119.06
460.37	3117.01
460.58	3317.71
460.78	3463.12
460.99	3039.19
461.19	3002.32
461.39	3196.88
461.60	3250.13
461.80	3106.77
462.00	2852.82
462.21	3303.37
462.41	3162.06
462.61	2818.00
462.82	2877.40
463.02	3315.66
463.22	3291.09
463.43	3080.14
463.63	2928.60
463.83	3534.79
464.04	3389.39
464.24	3022.80
464.44	3035.09
464.64	3336.14
464.85	3454.92
465.05	3100.62
465.25	3000.27
465.46	3168.21
465.66	3430.35
465.86	3172.30
466.07	3012.56
466.27	3186.64
466.47	3016.66
466.68	2922.45
466.88	3178.45
467.08	3330.00
467.29	3454.92
467.49	3026.90
467.69	3215.31
467.89	3321.81
468.10	3207.12
468.30	3200.98
468.50	3098.58
468.71	3487.69
468.91	2938.84
469.11	3168.21
469.31	3074.00
469.52	3010.51
469.72	3672.01
469.92	3370.96
470.13	3086.29
470.33	3213.26
470.53	3352.52
470.73	3540.94
470.94	3913.67
471.14	4138.94
471.34	4640.70
471.54	4368.32
471.75	4063.17
471.95	3921.86
472.15	3753.93
472.36	3696.58
472.56	3557.32
472.76	3846.09
472.96	3753.93
473.17	3381.20
473.37	3289.04
473.57	3299.28
473.77	3344.33
473.98	3209.17
474.18	2901.97
474.38	4059.07
474.58	3155.92
474.79	2944.98
474.99	3198.93
475.19	3575.75
475.39	3117.01
475.60	3178.45
475.80	3043.28
476.00	3332.05
476.20	3211.22
476.41	3143.63
476.61	3127.25
476.81	3600.33
477.01	3057.62
477.21	3276.75
477.42	3166.16
477.62	3067.86
477.82	3395.53
478.02	3022.80
478.23	3110.86
478.43	3157.97
478.63	3155.92
478.83	3057.62
479.03	3174.35
479.24	3563.47
479.44	3704.78
479.64	3006.42
479.84	2887.64
480.04	3067.86
480.25	3450.83
480.45	2985.94
480.65	3045.33
480.85	3606.47
481.06	3053.52
481.26	3117.01
481.46	3008.47
481.66	3344.33
481.86	3123.15
482.06	3217.36
482.27	3131.34
482.47	3196.88
482.67	3317.71
482.87	3028.95
483.07	3106.77
483.28	3028.95
483.48	3076.05
483.68	3045.33
483.88	2938.84
484.08	2865.11
484.29	3057.62
484.49	3090.38
484.69	2838.48
484.89	3577.80
485.09	3456.97
485.29	3110.86
485.50	3229.65
485.70	3274.70
485.90	3524.55
486.10	3196.88
486.30	3043.28
486.50	3467.21
486.71	3413.96
486.91	3014.61
487.11	3153.87
487.31	2965.46
487.51	3446.73
487.71	3018.71
487.91	3028.95
488.12	3114.96
488.32	2832.34
488.52	3057.62
488.72	2791.38
488.92	3284.94
489.12	3538.89
489.32	3155.92
489.53	3002.32
489.73	2951.12
489.93	3702.73
490.13	3020.75
490.33	2967.51
490.53	3297.23
490.73	3485.64
490.94	2899.92
491.14	3149.78
491.34	3370.96
491.54	3368.91
491.74	4059.07
491.94	4542.39
492.14	5185.46
492.34	5242.80
492.54	4820.92
492.75	4085.70
492.95	4327.36
493.15	4050.88
493.35	3762.12
493.55	3833.80
493.75	3647.43
493.95	3962.82
494.15	3385.29
494.35	3157.97
494.56	3256.27
494.76	3121.10
494.96	3213.26
495.16	2949.08
495.36	3286.99
495.56	3325.90
495.76	3160.02
495.96	3061.71
496.16	3065.81
496.36	3678.15
496.56	3035.09
496.77	3139.54
496.97	3248.08
497.17	3583.95
497.37	2877.40
497.57	3151.82
497.77	3293.13
497.97	3051.47
498.17	3090.38
498.37	3030.99
498.57	3424.20
498.77	3182.54
498.97	3332.05
499.17	3430.35
499.38	3235.79
499.58	3430.35
499.78	3215.31
499.98	3268.56
500.18	3266.51
500.38	3086.29
500.58	3182.54
500.78	3667.91
500.98	6195.11
501.18	8261.51
501.38	9715.56
501.58	10919.77
501.78	10870.62
501.98	9109.36
502.18	7542.67
502.38	6555.55
502.58	6477.73
502.78	5662.63
502.98	5416.88
503.18	5314.48
503.38	4847.54
503.59	4231.10
503.79	4112.32
503.99	3657.67
504.19	3766.21
504.39	3966.92
504.59	3676.10
504.79	3542.99
504.99	3942.34
505.19	3573.71
505.39	3293.13
505.59	3557.32
505.79	3682.25
505.99	3477.45
506.19	3086.29
506.39	3377.10
506.59	3157.97
506.79	3178.45
506.99	3200.98
507.19	3092.43
507.39	3373.00
507.59	2969.55
507.79	3082.19
507.99	2985.94
508.19	3321.81
508.39	3217.36
508.59	3037.14
508.79	3172.30
508.99	3690.44
509.19	3147.73
509.39	3137.49
509.59	2957.27
509.79	3098.58
509.99	3354.57
510.19	3213.26
510.39	3131.34
510.59	3340.24
510.79	3125.20
510.99	2918.36
511.19	3082.19
511.39	3629.00
511.59	3538.89
511.79	3223.50
511.99	3106.77
512.19	3631.05
512.38	3309.52
512.58	2977.75
512.78	3037.14
512.98	3588.04
513.18	3573.71
513.38	2981.84
513.58	3084.24
513.78	3219.41
513.98	3299.28
514.18	2971.60
514.38	3045.33
514.58	3286.99
514.78	3162.06
514.98	3033.04
515.18	3121.10
515.38	3059.67
515.58	3639.24
515.78	2998.23
515.98	3024.85
516.18	3389.39
516.38	3276.75
516.57	3051.47
516.77	2977.75
516.97	3459.02
517.17	3141.58
517.37	2842.58
517.57	3106.77
517.77	3303.37
517.97	3071.95
518.17	3131.34
518.37	2863.06
518.57	3121.10
518.77	3184.59
518.97	3094.48
519.16	3135.44
519.36	3456.97
519.56	3188.69
519.76	3028.95
519.96	3112.91
520.16	3618.76
520.36	3080.14
520.56	3200.98
520.76	2930.64
520.96	3180.50
521.16	3370.96
521.35	3239.89
521.55	3151.82
521.75	3336.14
521.95	3225.55
522.15	2998.23
522.35	2885.59
522.55	3164.11
522.75	3471.31
522.95	2916.31
523.14	2963.41
523.34	3246.03
523.54	3190.74
523.74	3213.26
523.94	3176.40
524.14	3030.99
524.34	3340.24
524.54	3239.89
524.73	3129.30
524.93	3456.97
525.13	3291.09
525.33	2994.13
525.53	3301.33
525.73	3456.97
525.93	3295.18
526.13	3194.83
526.32	2967.51
526.52	3585.99
526.72	3440.59
526.92	3227.60
527.12	2983.89
527.32	3055.57
527.52	3330.00
527.71	3076.05
527.91	3084.24
528.11	3157.97
528.31	3239.89
528.51	2977.75
528.71	3147.73
528.90	3461.07
529.10	3420.11
529.30	3086.29
529.50	2750.42
529.70	3289.04
529.90	3184.59
530.09	3057.62
530.29	2922.45
530.49	3209.17
530.69	3829.70
530.89	3254.22
531.09	3188.69
531.28	3078.10
531.48	3522.51
531.68	3057.62
531.88	3155.92
532.08	3495.88
532.28	3368.91
532.47	3198.93
532.67	3196.88
532.87	3237.84
533.07	3129.30
533.27	3131.34
533.46	3098.58
533.66	3266.51
533.86	3215.31
534.06	3196.88
534.26	3076.05
534.45	3174.35
534.65	3487.69
534.85	3198.93
535.05	3055.57
535.25	3530.70
535.44	3024.85
535.64	3100.62
535.84	3096.53
536.04	3090.38
536.24	3178.45
536.43	3102.67
536.63	2992.08
536.83	3198.93
537.03	3303.37
537.22	2895.83
537.42	2961.36
537.62	3319.76
537.82	3172.30
538.02	3266.51
538.21	3127.25
538.41	3878.85
538.61	3307.47
538.81	3110.86
539.00	3297.23
539.20	3000.27
539.40	3174.35
539.60	3108.82
539.79	3332.05
539.99	3311.57
540.19	3211.22
540.39	2973.65
540.58	3094.48
540.78	3450.83
540.98	3295.18
541.18	3276.75
541.37	3102.67
541.57	3280.85
541.77	3364.81
541.97	3061.71
542.16	2934.74
542.36	3143.63
542.56	3577.80
542.76	3248.08
542.95	3151.82
543.15	3373.00
543.35	3411.92
543.54	2930.64
543.74	3061.71
543.94	3567.56
544.14	3149.78
544.33	3178.45
544.53	3041.23
544.73	3231.69
544.93	3172.30
545.12	3108.82
545.32	3024.85
545.52	3160.02
545.71	3049.43
545.91	3125.20
546.11	3051.47
546.30	3155.92
546.50	3215.31
546.70	3133.39
546.90	3016.66
547.09	2918.36
547.29	3192.78
547.49	3182.54
547.68	3067.86
547.88	3157.97
548.08	3344.33
548.27	3346.38
548.47	3002.32
548.67	3157.97
548.87	3338.19
549.06	3063.76
549.26	2877.40
549.46	3291.09
549.65	3147.73
549.85	2996.18
550.05	3149.78
550.24	3035.09
550.44	3272.65
550.64	3059.67
550.83	3137.49
551.03	3467.21
551.23	3469.26
551.42	3131.34
551.62	3119.06
551.82	3180.50
552.01	3205.07
552.21	3409.87
552.41	3131.34
552.60	3557.32
552.80	3262.41
553.00	3059.67
553.19	3076.05
553.39	3557.32
553.59	3055.57
553.78	3192.78
553.98	3026.90
554.17	3047.38
554.37	3401.68
554.57	3123.15
554.76	2967.51
554.96	3102.67
555.16	3366.86
555.35	3043.28
555.55	3172.30
555.75	3336.14
555.94	3438.54
556.14	2832.34
556.33	3082.19
556.53	3280.85
556.73	3256.27
556.92	3053.52
557.12	3051.47
557.32	3708.87
557.51	3538.89
557.71	3088.34
557.90	3194.83
558.10	3502.03
558.30	3237.84
558.49	3125.20
558.69	3149.78
558.88	3377.10
559.08	3299.28
559.28	3039.19
559.47	3123.15
559.67	3428.30
559.86	3712.97
560.06	3114.96
560.26	3129.30
560.45	3393.48
560.65	3229.65
560.84	3344.33
561.04	3002.32
561.24	3366.86
561.43	3004.37
561.63	3280.85
561.82	3254.22
562.02	3403.72
562.22	3047.38
562.41	3049.43
562.61	2951.12
562.80	3004.37
563.00	3794.89
563.19	3160.02
563.39	3139.54
563.59	3360.72
563.78	3110.86
563.98	2803.67
564.17	3035.09
564.37	2994.13
564.56	3246.03
564.76	2963.41
564.96	3180.50
565.15	3395.53
565.35	3753.93
565.54	3123.15
565.74	3119.06
565.93	3403.72
566.13	3254.22
566.32	3137.49
566.52	3141.58
566.71	3311.57
566.91	3411.92
567.11	3127.25
567.30	2951.12
567.50	3420.11
567.69	3346.38
567.89	3069.91
568.08	2918.36
568.28	3274.70
568.47	3076.05
568.67	3125.20
568.86	3076.05
569.06	3387.34
569.25	3264.46
569.45	3069.91
569.64	3143.63
569.84	3194.83
570.04	3303.37
570.23	3117.01
570.43	3127.25
570.62	3299.28
570.82	3592.14
571.01	2901.97
571.21	2987.99
571.40	3065.81
571.60	3373.00
571.79	3203.02
571.99	3006.42
572.18	3098.58
572.38	3327.95
572.57	3190.74
572.77	3217.36
572.96	3930.05
573.16	3276.75
573.35	3092.43
573.55	3237.84
573.74	3444.68
573.94	3188.69
574.13	3000.27
574.33	3330.00
574.52	3461.07
574.71	3299.28
574.91	3174.35
575.10	2926.55
575.30	3192.78
575.49	3008.47
575.69	2955.22
575.88	3112.91
576.08	3219.41
576.27	3446.73
576.47	3002.32
576.66	3248.08
576.86	3592.14
577.05	3413.96
577.25	3180.50
577.44	3364.81
577.64	3164.11
577.83	3483.59
578.02	3121.10
578.22	3168.21
578.41	3643.34
578.61	3225.55
578.80	2938.84
579.00	3188.69
579.19	3276.75
579.39	3352.52
579.58	3246.03
579.77	3065.81
579.97	3432.40
580.16	3528.65
580.36	3205.07
580.55	3137.49
580.75	3422.16
580.94	3299.28
581.13	3319.76
581.33	3354.57
581.52	3200.98
581.72	3682.25
581.91	3145.68
582.11	3026.90
582.30	3504.07
582.49	3370.96
582.69	3420.11
582.88	3192.78
583.08	3299.28
583.27	3463.12
583.47	3223.50
583.66	3041.23
583.85	3133.39
584.05	3194.83
584.24	3229.65
584.44	3139.54
584.63	3461.07
584.82	3565.51
585.02	3352.52
585.21	3205.07
585.41	3352.52
585.60	3315.66
585.79	3340.24
585.99	3405.77
586.18	3293.13
586.37	4222.91
586.57	6379.42
586.76	18099.95
586.96	37670.34
587.15	50846.97
587.34	59757.68
587.54	63204.41
587.73	56405.16
587.93	40553.88
588.12	31440.42
588.31	25699.96
588.51	22761.12
588.70	20803.27
588.89	18376.42
589.09	15877.90
589.28	13702.96
589.47	10970.97
589.67	8236.93
589.86	6629.27
590.06	5134.26
590.25	4540.35
590.44	3958.72
590.64	3532.75
590.83	3485.64
591.02	3508.17
591.22	3125.20
591.41	3153.87
591.60	3151.82
591.80	3887.04
591.99	2957.27
592.18	3076.05
592.38	3434.44
592.57	3157.97
592.76	3061.71
592.96	3233.74
593.15	3180.50
593.34	3549.13
593.54	3061.71
593.73	3284.94
593.92	3395.53
594.12	3385.29
594.31	3100.62
594.50	3237.84
594.70	3317.71
594.89	3860.42
595.08	2936.79
595.28	3258.32
595.47	3911.62
595.66	3442.64
595.86	2940.88
596.05	2981.84
596.24	3327.95
596.43	3688.39
596.63	3155.92
596.82	3225.55
597.01	3379.15
597.21	3692.49
597.40	3092.43
597.59	3123.15
597.79	3286.99
597.98	3559.37
598.17	3094.48
598.36	3176.40
598.56	3493.83
598.75	3235.79
598.94	3127.25
599.14	3131.34
599.33	3262.41
599.52	3420.11
599.71	3098.58
599.91	3168.21
600.10	3319.76
600.29	3299.28
600.48	3162.06
600.68	3196.88
600.87	3286.99
601.06	3086.29
601.26	3235.79
601.45	3227.60
601.64	3192.78
601.83	3665.86
602.03	2975.70
602.22	2940.88
602.41	3569.61
602.60	3858.37
602.80	3123.15
602.99	3327.95
603.18	3178.45
603.37	3270.61
603.57	3074.00
603.76	3108.82
603.95	3540.94
604.14	3221.45
604.34	2936.79
604.53	3100.62
604.72	3434.44
604.91	3514.31
605.10	3057.62
605.30	2990.03
605.49	3745.73
605.68	3385.29
605.87	3057.62
606.07	3065.81
606.26	3264.46
606.45	3471.31
606.64	3061.71
606.84	3033.04
607.03	3241.93
607.22	3508.17
607.41	3209.17
607.60	3106.77
607.80	3534.79
607.99	3264.46
608.18	3149.78
608.37	3102.67
608.56	3184.59
608.76	3499.98
608.95	3241.93
609.14	3063.76
609.33	3456.97
609.52	3639.24
609.72	3196.88
609.91	3151.82
610.10	3413.96
610.29	3573.71
610.48	3215.31
610.68	3184.59
610.87	3256.27
611.06	3434.44
611.25	3045.33
611.44	3205.07
611.63	3121.10
611.83	3491.79
612.02	3000.27
612.21	3166.16
612.40	2887.64
612.59	3051.47
612.79	3012.56
612.98	3250.13
613.17	3573.71
613.36	3278.80
613.55	3207.12
613.74	3182.54
613.93	3336.14
614.13	3454.92
614.32	3334.09
614.51	3196.88
614.70	3278.80
614.89	3246.03
615.08	3209.17
615.28	3499.98
615.47	3078.10
615.66	3389.39
615.85	3090.38
616.04	3102.67
616.23	3282.89
616.42	3282.89
616.62	3178.45
616.81	3127.25
617.00	3233.74
617.19	3418.06
617.38	3131.34
617.57	3192.78
617.76	3477.45
617.95	3403.72
618.15	3209.17
618.34	3315.66
618.53	3047.38
618.72	3475.40
618.91	3188.69
619.10	3108.82
619.29	3291.09
619.48	3235.79
619.68	2957.27
619.87	3026.90
620.06	2955.22
620.25	3459.02
620.44	2992.08
620.63	3022.80
620.82	3321.81
621.01	3272.65
621.20	3094.48
621.39	3139.54
621.59	3387.34
621.78	3243.98
621.97	3098.58
622.16	3303.37
622.35	3401.68
622.54	3418.06
622.73	3178.45
622.92	2901.97
623.11	3438.54
623.30	3225.55
623.49	3250.13
623.68	2912.21
623.88	3635.14
624.07	3076.05
624.26	3061.71
624.45	3047.38
624.64	3246.03
624.83	3293.13
625.02	3000.27
625.21	3104.72
625.40	3243.98
625.59	3598.28
625.78	3162.06
625.97	3215.31
626.16	3598.28
626.35	3426.25
626.54	3061.71
626.74	3360.72
626.93	3151.82
627.12	3262.41
627.31	3225.55
627.50	3205.07
627.69	3432.40
627.88	3164.11
628.07	3026.90
628.26	2787.29
628.45	3184.59
628.64	3018.71
628.83	3020.75
629.02	2969.55
629.21	3420.11
629.40	3332.05
629.59	3024.85
629.78	3084.24
629.97	3319.76
630.16	3276.75
630.35	3045.33
630.54	3131.34
630.73	3160.02
630.92	3200.98
631.11	3065.81
631.30	3071.95
631.49	3465.16
631.68	3166.16
631.87	3188.69
632.06	2975.70
632.25	3829.70
632.44	3395.53
632.63	3172.30
632.82	3164.11
633.01	3178.45
633.20	3319.76
633.39	3047.38
633.58	2934.74
633.77	3428.30
633.96	3348.43
634.15	3246.03
634.34	3106.77
634.53	3330.00
634.72	3145.68
634.91	3037.14
635.10	3051.47
635.29	3489.74
635.48	3297.23
635.67	3020.75
635.86	2961.36
636.05	3606.47
636.24	3172.30
636.43	3121.10
636.62	3198.93
636.81	2811.86
637.00	3262.41
637.19	3041.23
637.38	3110.86
637.57	3280.85
637.76	3266.51
637.95	3241.93
638.14	3207.12
638.33	3332.05
638.52	3401.68
638.71	2977.75
638.89	2928.60
639.08	3862.47
639.27	3512.27
639.46	3286.99
639.65	3731.40
639.84	3841.99
640.03	4050.88
640.22	3712.97
640.41	3526.60
640.60	3385.29
640.79	3526.60
640.98	3348.43
641.17	3373.00
641.36	3524.55
641.55	3510.22
641.74	2996.18
641.92	3047.38
642.11	3123.15
642.30	3217.36
642.49	2953.17
642.68	3098.58
642.87	3342.28
643.06	3399.63
643.25	2987.99
643.44	2990.03
643.63	3227.60
643.82	3389.39
644.00	2961.36
644.19	3127.25
644.38	3086.29
644.57	3418.06
644.76	3106.77
644.95	3088.34
645.14	3313.61
645.33	3307.47
645.52	3147.73
645.71	2906.07
645.89	3084.24
646.08	3309.52
646.27	3096.53
646.46	3311.57
646.65	3024.85
646.84	3401.68
647.03	2996.18
647.22	3241.93
647.40	3307.47
647.59	3155.92
647.78	2930.64
647.97	3065.81
648.16	3086.29
648.35	3479.50
648.54	3227.60
648.73	3125.20
648.91	3428.30
649.10	3235.79
649.29	2983.89
649.48	3022.80
649.67	3401.68
649.86	3360.72
650.05	3184.59
650.23	3307.47
650.42	3164.11
650.61	3639.24
650.80	3311.57
650.99	3360.72
651.18	3479.50
651.36	3426.25
651.55	3045.33
651.74	3229.65
651.93	3151.82
652.12	3237.84
652.31	3172.30
652.49	3065.81
652.68	3243.98
652.87	3538.89
653.06	3221.45
653.25	3366.86
653.44	3303.37
653.62	3583.95
653.81	3141.58
654.00	3108.82
654.19	3479.50
654.38	3753.93
654.56	3250.13
654.75	3039.19
654.94	3502.03
655.13	3295.18
655.32	3098.58
655.51	3147.73
655.69	3143.63
655.88	3407.82
656.07	2971.60
656.26	3131.34
656.45	3051.47
656.63	3266.51
656.82	3071.95
657.01	3330.00
657.20	3086.29
657.38	3649.48
657.57	3053.52
657.76	2947.03
657.95	3450.83
658.14	3160.02
658.32	3229.65
658.51	2947.03
658.70	3424.20
658.89	3256.27
659.08	3086.29
659.26	3352.52
659.45	3096.53
659.64	3383.24
659.83	3112.91
660.01	3448.78
660.20	3368.91
660.39	3600.33
660.58	2768.85
660.76	3172.30
660.95	3030.99
661.14	3221.45
661.33	2899.92
661.51	3084.24
661.70	3147.73
661.89	3356.62
662.08	3106.77
662.26	2985.94
662.45	3053.52
662.64	3602.38
662.83	3108.82
663.01	2932.69
663.20	3190.74
663.39	3547.08
663.58	3160.02
663.76	3043.28
663.95	3387.34
664.14	3008.47
664.32	3141.58
664.51	3053.52
664.70	2979.79
664.89	3330.00
665.07	2953.17
665.26	3192.78
665.45	3000.27
665.64	3403.72
665.82	3125.20
666.01	3157.97
666.20	3020.75
666.38	3438.54
666.57	3463.12
666.76	5580.71
666.95	13002.55
667.13	20647.62
667.32	25206.40
667.51	27844.18
667.69	29161.03
667.88	24063.63
668.07	17452.79
668.25	14688.03
668.44	12894.01
668.63	11192.15
668.81	9783.15
669.00	8372.10
669.19	7880.58
669.38	6848.41
669.56	5732.26
669.75	5015.48
669.94	4450.24
670.12	3735.50
670.31	3438.54
670.50	3405.77
670.68	3516.36
670.87	3373.00
671.06	3123.15
671.24	3229.65
671.43	3610.57
671.62	3303.37
671.80	3059.67
671.99	3237.84
672.18	3307.47
672.36	3491.79
672.55	3203.02
672.74	3192.78
672.92	3196.88
673.11	3381.20
673.29	2934.74
673.48	3170.26
673.67	3272.65
673.85	3502.03
674.04	3057.62
674.23	3217.36
674.41	3598.28
674.60	3166.16
674.79	2979.79
674.97	2908.12
675.16	3479.50
675.34	3413.96
675.53	3020.75
675.72	3084.24
675.90	3696.58
676.09	3147.73
676.28	3192.78
676.46	3004.37
676.65	3420.11
676.83	3153.87
677.02	3057.62
677.21	3225.55
677.39	3286.99
677.58	3071.95
677.77	3160.02
677.95	3051.47
678.14	3270.61
678.32	3243.98
678.51	3078.10
678.70	3407.82
678.88	3151.82
679.07	3303.37
679.25	3074.00
679.44	3114.96
679.63	3037.14
679.81	3338.19
680.00	3325.90
680.18	3131.34
680.37	3602.38
680.55	3338.19
680.74	2936.79
680.93	2797.53
681.11	3270.61
681.30	3256.27
681.48	3106.77
681.67	3026.90
681.85	3336.14
682.04	3057.62
682.23	3229.65
682.41	3213.26
682.60	3248.08
682.78	3241.93
682.97	2975.70
683.15	3086.29
683.34	3317.71
683.53	3569.61
683.71	2910.16
683.90	3125.20
684.08	3575.75
684.27	3225.55
684.45	3155.92
684.64	3225.55
684.82	3336.14
685.01	3373.00
685.19	3092.43
685.38	3338.19
685.57	3237.84
685.75	3166.16
685.94	3074.00
686.12	2938.84
686.31	3139.54
686.49	3555.27
686.68	2848.72
686.86	3088.34
687.05	3233.74
687.23	3581.90
687.42	3108.82
687.60	2887.64
687.79	3434.44
687.97	3575.75
688.16	3100.62
688.34	3334.09
688.53	2936.79
688.71	3336.14
688.90	3434.44
689.08	3049.43
689.27	2959.31
689.45	3446.73
689.64	3223.50
689.82	3110.86
690.01	3358.67
690.19	3295.18
690.38	3067.86
690.56	3219.41
690.75	3049.43
690.93	3166.16
691.12	2967.51
691.30	3074.00
691.49	3135.44
691.67	3266.51
691.86	3381.20
692.04	3172.30
692.23	3133.39
692.41	3196.88
692.60	3497.93
692.78	3282.89
692.97	3299.28
693.15	3330.00
693.34	3258.32
693.52	3334.09
693.71	3233.74
693.89	3176.40
694.08	2957.27
694.26	3137.49
694.44	3485.64
694.63	3377.10
694.81	3051.47
695.00	3045.33
695.18	3510.22
695.37	3811.27
695.55	3209.17
695.74	3229.65
695.92	3117.01
696.10	3463.12
696.29	2920.40
696.47	3049.43
696.66	3022.80
696.84	3065.81
697.03	3151.82
697.21	3389.39
697.40	4712.38
697.58	3545.03
697.76	3114.96
697.95	3149.78
698.13	3037.14
698.32	3198.93
698.50	3084.24
698.68	3065.81
698.87	3317.71
699.05	3540.94
699.24	3057.62
699.42	3168.21
699.61	3200.98
699.79	3315.66
699.97	3106.77
700.16	2975.70
700.34	3022.80
700.53	3323.85
700.71	3321.81
700.89	3248.08
701.08	3196.88
701.26	3237.84
701.45	3516.36
701.63	3057.62
701.81	3164.11
702.00	3084.24
702.18	3213.26
702.37	3037.14
702.55	3596.23
702.73	3321.81
702.92	3168.21
703.10	3547.08
703.28	3450.83
703.47	3108.82
703.65	3323.85
703.84	3235.79
704.02	3252.17
704.20	3702.73
704.39	3069.91
704.57	3096.53
704.75	3497.93
704.94	3352.52
705.12	3274.70
705.30	3878.85
705.49	8681.34
705.67	16987.90
705.86	23791.25
706.04	27205.22
706.22	29881.91
706.41	28601.93
706.59	21456.57
706.77	16723.71
706.96	14401.32
707.14	13002.55
707.32	11284.31
707.51	9725.80
707.69	7989.13
707.87	6543.26
708.06	5302.19
708.24	4558.78
708.42	4200.38
708.61	4214.72
708.79	3340.24
708.97	3336.14
709.16	3381.20
709.34	3364.81
709.52	3162.06
709.71	3119.06
709.89	3418.06
710.07	3170.26
710.26	2992.08
710.44	3033.04
710.62	3469.26
710.80	3321.81
710.99	3184.59
711.17	3223.50
711.35	3143.63
711.54	3151.82
711.72	3280.85
711.90	3172.30
712.09	3405.77
712.27	3215.31
712.45	3274.70
712.63	3098.58
712.82	3264.46
713.00	3270.61
713.18	3258.32
713.37	3264.46
713.55	3420.11
713.73	3385.29
713.91	3127.25
714.10	3055.57
714.28	3151.82
714.46	3330.00
714.65	3229.65
714.83	3106.77
715.01	3286.99
715.19	3348.43
715.38	2949.08
715.56	3313.61
715.74	3125.20
715.92	3151.82
716.11	3389.39
716.29	2908.12
716.47	3260.37
716.65	3180.50
716.84	2928.60
717.02	3162.06
717.20	2975.70
717.38	3147.73
717.57	3209.17
717.75	3100.62
717.93	3184.59
718.11	3401.68
718.30	2916.31
718.48	3127.25
718.66	3547.08
718.84	3448.78
719.03	3041.23
719.21	2844.63
719.39	3618.76
719.57	3264.46
719.75	3170.26
719.94	2992.08
720.12	3227.60
720.30	3239.89
720.48	3139.54
720.67	3024.85
720.85	3200.98
721.03	3155.92
721.21	3014.61
721.39	3155.92
721.58	3397.58
721.76	3274.70
721.94	3149.78
722.12	3157.97
722.30	3598.28
722.49	3143.63
722.67	3108.82
722.85	3090.38
723.03	3043.28
723.21	3131.34
723.40	3080.14
723.58	3219.41
723.76	3459.02
723.94	3526.60
724.12	3186.64
724.30	3295.18
724.49	3450.83
724.67	3127.25
724.85	3254.22
725.03	2965.46
725.21	3465.16
725.40	3553.23
725.58	3133.39
725.76	3272.65
725.94	3418.06
726.12	3112.91
726.30	3110.86
726.49	3137.49
726.67	3157.97
726.85	3323.85
727.03	4044.74
727.21	5496.75
727.39	7176.08
727.57	7731.08
727.76	8411.01
727.94	8454.02
728.12	7352.21
728.30	6055.84
728.48	5642.15
728.66	5109.68
728.84	4728.76
729.03	4097.99
729.21	3747.78
729.39	3542.99
729.57	3356.62
729.75	3395.53
729.93	3397.58
730.11	3108.82
730.30	3190.74
730.48	3219.41
730.66	3125.20
730.84	3166.16
731.02	3286.99
731.20	3145.68
731.38	3141.58
731.56	3076.05
731.74	3057.62
731.93	3332.05
732.11	3207.12
732.29	3041.23
732.47	3418.06
732.65	3364.81
732.83	3327.95
733.01	3147.73
733.19	3106.77
733.37	3440.59
733.56	3078.10
733.74	3014.61
733.92	3618.76
734.10	3168.21
734.28	3157.97
734.46	2910.16
734.64	3207.12
734.82	3243.98
735.00	3092.43
735.18	3063.76
735.36	3266.51
735.54	3278.80
735.73	3123.15
735.91	3278.80
736.09	3579.85
736.27	3289.04
736.45	3172.30
736.63	2799.57
736.81	3211.22
736.99	3485.64
737.17	3270.61
737.35	3063.76
737.53	3321.81
737.71	3252.17
737.89	3297.23
738.07	3026.90
738.25	3123.15
738.43	2942.93
738.61	3061.71
738.80	2951.12
738.98	3076.05
739.16	3180.50
739.34	3035.09
739.52	3377.10
739.70	3291.09
739.88	3360.72
740.06	3227.60
740.24	2844.63
740.42	3504.07
740.60	2912.21
740.78	3157.97
740.96	2820.05
741.14	3209.17
741.32	3330.00
741.50	2934.74
741.68	3344.33
741.86	3467.21
742.04	3102.67
742.22	3043.28
742.40	3141.58
742.58	3467.21
742.76	3074.00
742.94	3293.13
743.12	2846.68
743.30	3239.89
743.48	3393.48
743.66	2983.89
743.84	3078.10
744.02	3291.09
744.20	3241.93
744.38	2975.70
744.56	3090.38
744.74	3733.45
744.92	3366.86
745.10	3325.90
745.28	3157.97
745.46	3616.71
745.64	3274.70
745.82	3168.21
746.00	3039.19
746.18	3387.34
746.36	3043.28
746.54	3139.54
746.72	3160.02
746.90	3092.43
747.08	3520.46
747.26	3100.62
747.44	3239.89
747.62	3444.68
747.80	3346.38
747.98	3200.98
748.15	3104.72
748.33	3674.06
748.51	3360.72
748.69	3219.41
748.87	3041.23
749.05	3153.87
749.23	3198.93
749.41	2987.99
749.59	3037.14
749.77	3540.94
749.95	3266.51
750.13	3069.91
750.31	3268.56
750.49	3241.93
750.67	3418.06
750.85	3192.78
751.03	3078.10
751.20	3725.26
751.38	3442.64
751.56	3135.44
751.74	3143.63
751.92	3203.02
752.10	3057.62
752.28	3323.85
752.46	2994.13
752.64	3221.45
752.82	3327.95
753.00	3213.26
753.18	3043.28
753.35	3170.26
753.53	3280.85
753.71	2942.93
753.89	3100.62
754.07	3252.17
754.25	3485.64
754.43	3221.45
754.61	2979.79
754.79	3387.34
754.97	3248.08
755.14	3270.61
755.32	3041.23
755.50	3291.09
755.68	3307.47
755.86	2994.13
756.04	2975.70
756.22	2932.69
756.40	3383.24
756.57	3264.46
756.75	2934.74
756.93	3483.59
757.11	3508.17
757.29	3030.99
757.47	2953.17
757.65	2983.89
757.82	2805.72
758.00	3018.71
758.18	3059.67
758.36	3117.01
758.54	3614.66
758.72	3012.56
758.90	3209.17
759.07	3368.91
759.25	3164.11
759.43	3129.30
759.61	2895.83
759.79	4435.90
759.97	3487.69
760.15	3012.56
760.32	3014.61
760.50	3338.19
760.68	3614.66
760.86	2908.12
761.04	3264.46
761.22	3403.72
761.39	3166.16
761.57	3227.60
761.75	2959.31
761.93	3446.73
762.11	3225.55
762.28	3180.50
762.46	2936.79
762.64	3411.92
762.82	3033.04
763.00	3053.52
763.18	3403.72
763.35	3086.29
763.53	3407.82
763.71	3082.19
763.89	3059.67
764.07	3315.66
764.24	3305.42
764.42	3168.21
764.60	3108.82
764.78	3319.76
764.96	3379.15
765.13	3229.65
765.31	3028.95
765.49	3428.30
765.67	3198.93
765.84	2977.75
766.02	3024.85
766.20	2951.12
766.38	3344.33
766.56	3186.64
766.73	3153.87
766.91	3274.70
767.09	3268.56
767.27	3188.69
767.44	2996.18
767.62	3407.82
767.80	3272.65
767.98	3028.95
768.15	3117.01
768.33	3413.96
768.51	3442.64
768.69	3239.89
768.87	3127.25
769.04	3327.95
769.22	3790.79
769.40	3274.70
769.58	3221.45
769.75	3352.52
769.93	3475.40
770.11	3082.19
770.28	2928.60
770.46	3411.92
770.64	3362.76
770.82	3041.23
770.99	3082.19
771.17	3477.45
771.35	3166.16
771.53	3098.58
771.70	2992.08
771.88	3397.58
772.06	3260.37
772.23	2985.94
772.41	3063.76
772.59	3205.07
772.77	3104.72
772.94	3151.82
773.12	3174.35
773.30	3184.59
773.47	3307.47
773.65	2981.84
773.83	3227.60
774.01	3235.79
774.18	2906.07
774.36	3110.86
774.54	3008.47
774.71	3358.67
774.89	3000.27
775.07	2910.16
775.24	3065.81
775.42	3172.30
775.60	3631.05
775.78	2985.94
775.95	2879.44
776.13	3006.42
776.31	2893.78
776.48	3250.13
776.66	3221.45
776.84	3196.88
777.01	3180.50
777.19	3008.47
777.37	3008.47
777.54	3379.15
777.72	3659.72
777.90	3229.65
778.07	3074.00
778.25	3930.05
778.43	3508.17
778.60	3049.43
778.78	3123.15
778.96	3542.99
779.13	3069.91
779.31	3192.78
779.49	3174.35
779.66	3332.05
779.84	3207.12
780.01	2990.03
780.19	2987.99
780.37	3483.59
780.54	3397.58
780.72	2932.69
780.90	3053.52
781.07	3168.21
781.25	3151.82
781.43	3340.24
781.60	3090.38
781.78	3516.36
781.95	3297.23
782.13	2992.08
782.31	3082.19
782.48	2869.20
782.66	3286.99
782.83	3323.85
783.01	3198.93
783.19	3471.31
783.36	3262.41
783.54	2983.89
783.72	3172.30
783.89	3205.07
784.07	3340.24
784.24	3260.37
784.42	3276.75
784.60	3338.19
784.77	3323.85
784.95	2901.97
785.12	3012.56
785.30	3340.24
785.47	3043.28
785.65	3043.28
785.83	3157.97
786.00	3221.45
786.18	3258.32
786.35	2977.75
786.53	3014.61
786.71	3565.51
786.88	3299.28
787.06	3155.92
787.23	3151.82
787.41	3078.10
787.58	3186.64
787.76	2940.88
787.94	3090.38
788.11	3305.42
788.29	3080.14
788.46	3094.48
788.64	2877.40
788.81	3145.68
788.99	3098.58
789.16	2981.84
789.34	3076.05
789.52	3168.21
789.69	3139.54
789.87	2953.17
790.04	3043.28
790.22	3319.76
790.39	3715.02
790.57	2940.88
790.74	2926.55
790.92	3475.40
791.09	2901.97
791.27	3106.77
791.44	3174.35
791.62	3293.13
791.79	3456.97
791.97	3170.26
792.15	3399.63
792.32	3323.85
792.50	3397.58
792.67	3262.41
792.85	3321.81
793.02	3334.09
793.20	3188.69
793.37	3041.23
793.55	3016.66
793.72	3155.92
793.90	3401.68
794.07	3000.27
794.25	3041.23
794.42	3293.13
794.60	3170.26
794.77	3162.06
794.95	3254.22
795.12	3454.92
795.30	3246.03
795.47	2916.31
795.65	3475.40
795.82	3321.81
796.00	3117.01
796.17	3084.24
796.34	3047.38
796.52	3293.13
796.69	3381.20
796.87	3205.07
797.04	3229.65
797.22	3456.97
797.39	3350.48
797.57	3276.75
797.74	3188.69
797.92	3319.76
798.09	3104.72
798.27	3286.99
798.44	3028.95
798.62	3121.10
798.79	3330.00
798.96	3207.12
799.14	3098.58
799.31	3778.50
799.49	3241.93
799.66	3094.48
799.84	3207.12
800.01	2963.41
800.19	3264.46
800.36	2908.12
800.53	3198.93
800.71	3319.76
800.88	3598.28
801.06	2996.18
801.23	3033.04
801.41	3180.50
801.58	3147.73
801.75	3117.01
801.93	3160.02
802.10	3379.15
802.28	3164.11
802.45	3102.67
802.63	3139.54
802.80	3553.23
802.97	3131.34
803.15	3078.10
803.32	3047.38
803.50	3057.62
803.67	3133.39
803.84	2940.88
804.02	3235.79
804.19	3223.50
804.37	2852.82
804.54	2940.88
804.71	3000.27
804.89	3266.51
805.06	3045.33
805.24	3014.61
805.41	2938.84
805.58	3129.30
805.76	3813.32
805.93	2996.18
806.10	3239.89
806.28	3450.83
806.45	3293.13
806.63	3270.61
806.80	3192.78
806.97	3299.28
807.15	3360.72
807.32	3162.06
807.49	3076.05
807.67	2987.99
807.84	3305.42
808.01	2910.16
808.19	3286.99
808.36	3762.12
808.54	3160.02
808.71	3069.91
808.88	2992.08
809.06	3502.03
809.23	3473.36
809.40	3182.54
809.58	3059.67
809.75	3250.13
809.92	3094.48
810.10	3243.98
810.27	3092.43
810.44	3278.80
810.62	3373.00
810.79	3074.00
810.96	3106.77
811.14	3147.73
811.31	3313.61
811.48	3237.84
811.66	3170.26
811.83	3442.64
812.00	3420.11
812.18	3209.17
812.35	3403.72
812.52	3131.34
812.69	3180.50
812.87	3049.43
813.04	2983.89
813.21	3147.73
813.39	3117.01
813.56	3059.67
813.73	3387.34
813.91	3014.61
814.08	3282.89
814.25	3069.91
814.42	2891.73
814.60	3133.39
814.77	3311.57
814.94	2983.89
815.12	3221.45
815.29	3594.19
815.46	3223.50
815.63	3157.97
815.81	3045.33
815.98	3205.07
816.15	3209.17
816.33	3200.98
816.50	3114.96
816.67	3192.78
816.84	3260.37
817.02	3014.61
817.19	2979.79
817.36	3338.19
817.53	3266.51
817.71	3033.04
817.88	3014.61
818.05	3213.26
818.22	3141.58
818.40	3379.15
818.57	3049.43
818.74	3233.74
818.91	3256.27
819.09	3276.75
819.26	3135.44
819.43	3090.38
819.60	3084.24
819.78	3301.33
819.95	3176.40
820.12	3129.30
820.29	3559.37
820.47	3405.77
820.64	3069.91
820.81	2971.60
820.98	3071.95
821.15	3117.01
821.33	3157.97
821.50	2990.03
821.67	3401.68
821.84	3125.20
822.02	3074.00
822.19	3426.25
822.36	3172.30
822.53	2965.46
822.70	2973.65
822.88	3168.21
823.05	3524.55
823.22	3176.40
823.39	3229.65
823.56	3301.33
823.74	3712.97
823.91	2914.26
824.08	2924.50
824.25	3039.19
824.42	3606.47
824.60	2930.64
824.77	3098.58
824.94	3215.31
825.11	3413.96
825.28	2938.84
825.45	3211.22
825.63	3289.04
825.80	3030.99
825.97	3155.92
826.14	3108.82
826.31	2996.18
826.48	3315.66
826.66	3045.33
826.83	3033.04
827.00	3196.88
827.17	3000.27
827.34	3119.06
827.51	2967.51
827.69	3233.74
827.86	2985.94
828.03	3114.96
828.20	3151.82
828.37	3121.10
828.54	3377.10
828.71	2981.84
828.89	3258.32
829.06	3274.70
829.23	3479.50
829.40	3069.91
829.57	3041.23
829.74	3440.59
829.91	3162.06
830.09	2987.99
830.26	3176.40
830.43	3688.39
830.60	3215.31
830.77	3147.73
830.94	3303.37
831.11	3438.54
831.28	3160.02
831.46	3270.61
831.63	3071.95
831.80	3438.54
831.97	3149.78
832.14	3055.57
832.31	3057.62
832.48	3325.90
832.65	3459.02
832.82	3196.88
832.99	3076.05
833.17	3008.47
833.34	3524.55
833.51	3012.56
833.68	2842.58
833.85	3469.26
834.02	3059.67
834.19	3117.01
834.36	3035.09
834.53	3258.32
834.70	3385.29
834.87	3114.96
835.04	2820.05
835.22	3086.29
835.39	3157.97
835.56	2852.82
835.73	2928.60
835.90	3448.78
836.07	3119.06
836.24	3024.85
836.41	2912.21
836.58	3051.47
836.75	3438.54
836.92	2934.74
837.09	2873.30
837.26	3420.11
837.43	3342.28
837.60	2944.98
837.77	2942.93
837.94	3416.01
838.12	3540.94
838.29	2832.34
838.46	2752.47
838.63	3026.90
838.80	3585.99
838.97	2944.98
839.14	2910.16
839.31	3327.95
839.48	3389.39
839.65	2881.49
839.82	3041.23
839.99	3352.52
840.16	3284.94
840.33	2891.73
840.50	2924.50
840.67	3090.38
840.84	2785.24
841.01	2899.92
841.18	2889.68
841.35	3243.98
841.52	3311.57
841.69	3129.30
841.86	2967.51
842.03	3272.65
842.20	3352.52
842.37	2926.55
842.54	3026.90
842.71	3190.74
842.88	3051.47
843.05	2979.79
843.22	2881.49
843.39	3354.57
843.56	3166.16
843.73	2918.36
843.90	3000.27
844.07	3250.13
844.24	3481.55
844.41	2990.03
844.58	2971.60
844.75	3299.28
844.92	3454.92
845.09	3012.56
845.26	2897.88
845.43	3459.02
845.60	3192.78
845.77	3065.81
845.94	2971.60
846.10	3420.11
846.27	2951.12
846.44	2783.19
846.61	2795.48
846.78	3284.94
846.95	3508.17
847.12	2895.83
847.29	3033.04
847.46	3139.54
847.63	3469.26
847.80	2877.40
847.97	2942.93
848.14	3710.92
848.31	3162.06
848.48	2791.38
848.65	2904.02
848.82	3127.25
848.98	3819.46
849.15	3012.56
849.32	3028.95
849.49	3373.00
849.66	3237.84
849.83	2906.07
850.00	2869.20
850.17	3397.58
850.34	3209.17
850.51	2854.87
850.68	2912.21
850.85	3676.10
851.01	3432.40
851.18	2871.25
851.35	2959.31
851.52	3368.91
851.69	3571.66
851.86	2906.07
852.03	2916.31
852.20	3434.44
852.37	3256.27
852.53	2805.72
852.70	2881.49
852.87	3344.33
853.04	3418.06
853.21	2873.30
853.38	3168.21
853.55	3512.27
853.72	3569.61
853.89	2895.83
854.05	2901.97
854.22	3215.31
854.39	3164.11
854.56	2873.30
854.73	3069.91
854.90	3063.76
855.07	3284.94
855.23	2809.81
855.40	2879.44
855.57	3229.65
855.74	2822.10
855.91	3125.20
856.08	2779.09
856.25	3012.56
856.41	3090.38
856.58	2942.93
856.75	2947.03
856.92	3008.47
857.09	3463.12
857.26	2754.52
857.42	2910.16
857.59	3407.82
857.76	3176.40
857.93	2803.67
858.10	3041.23
858.27	3110.86
858.43	3243.98
858.60	2912.21
858.77	2877.40
858.94	3168.21
859.11	3553.23
859.27	3049.43
859.44	2775.00
859.61	3702.73
859.78	3393.48
859.95	2944.98
860.12	2828.24
860.28	3743.69
860.45	3590.09
860.62	2801.62
860.79	3002.32
860.95	3213.26
861.12	3213.26
861.29	2850.77
861.46	2947.03
861.63	3184.59
861.79	3418.06
861.96	2850.77
862.13	2994.13
862.30	3522.51
862.47	3102.67
862.63	2865.11
862.80	3028.95
862.97	3473.36
863.14	3327.95
863.30	2977.75
863.47	2873.30
863.64	3565.51
863.81	3330.00
863.97	2865.11
864.14	2971.60
864.31	3188.69
864.48	3278.80
864.65	2879.44
864.81	3000.27
864.98	3393.48
865.15	3397.58
865.32	3012.56
865.48	2969.55
865.65	3573.71
865.82	3164.11
865.98	3012.56
866.15	2957.27
866.32	3246.03
866.49	3174.35
866.65	3043.28
866.82	3004.37
866.99	3250.13
867.16	3151.82
867.32	2916.31
867.49	2781.14
867.66	3250.13
867.83	3229.65
867.99	2818.00
868.16	2994.13
868.33	3112.91
868.49	3289.04
868.66	3000.27
868.83	3012.56
868.99	3243.98
869.16	3278.80
869.33	3117.01
869.50	3018.71
869.66	3268.56
869.83	3225.55
870.00	2904.02
870.16	3020.75
870.33	3162.06
870.50	3483.59
870.66	2967.51
870.83	2926.55
871.00	3209.17
871.17	3442.64
871.33	2928.60
871.50	2828.24
871.67	3291.09
871.83	3157.97
872.00	2998.23
872.17	2944.98
872.33	3729.35
872.50	3504.07
872.67	2906.07
872.83	2873.30
873.00	3315.66
873.17	3317.71
873.33	2947.03
873.50	3041.23
873.67	3035.09
873.83	3135.44
874.00	2920.40
874.16	3053.52
874.33	3219.41
874.50	3049.43
874.66	2934.74
874.83	2951.12
875.00	3483.59
875.16	3424.20
875.33	3037.14
875.50	2701.27
875.66	3145.68
875.83	3377.10
875.99	3035.09
876.16	3098.58
876.33	3096.53
876.49	3192.78
876.66	2951.12
876.83	2981.84
876.99	2990.03
877.16	3233.74
877.32	2871.25
877.49	3026.90
877.66	3342.28
877.82	3542.99
877.99	2967.51
878.15	3164.11
878.32	3219.41
878.49	3317.71
878.65	3065.81
878.82	3123.15
878.98	3123.15
879.15	3547.08
879.32	3135.44
879.48	3074.00
879.65	3182.54
879.81	3229.65
879.98	2934.74
880.15	2981.84
880.31	3395.53
880.48	3074.00
880.64	3108.82
880.81	3065.81
880.97	3540.94
881.14	3485.64
881.31	2863.06
881.47	3102.67
881.64	3147.73
881.80	2936.79
881.97	3080.14
882.13	2854.87
882.30	3076.05
882.47	3082.19
882.63	2957.27
882.80	2863.06
882.96	3190.74
883.13	3393.48
883.29	2955.22
883.46	2951.12
883.62	3743.69
883.79	3248.08
883.95	3082.19
884.12	2912.21
884.29	3508.17
884.45	3276.75
884.62	2947.03
884.78	2891.73
884.95	3596.23
885.11	3065.81
885.28	3041.23
885.44	3024.85
885.61	3409.87
885.77	3483.59
885.94	3098.58
886.10	3026.90
886.27	3313.61
886.43	3581.90
886.60	3123.15
886.76	2910.16
886.93	3008.47
887.09	3272.65
887.26	2742.23
887.42	2979.79
887.59	3403.72
887.75	3760.07
887.92	3110.86
888.08	3069.91
888.25	3581.90
888.41	3434.44
888.58	3006.42
888.74	2901.97
888.91	3016.66
>>>>>End Processed Spectral Data<<<<<
