SpectraSuite Data File
++++++++++++++++++++++++++++++++++++
Date: Fri May 06 08:14:39 CEST 2016
User: root
Dark Spectrum Present: No
Reference Spectrum Present: No
Number of Sampled Component Spectra: 1
Spectrometers: USB4C02835
Integration Time (usec): 100000 (USB4C02835)
Spectra Averaged: 1 (USB4C02835)
Boxcar Smoothing: 0 (USB4C02835)
Correct for Electrical Dark: No (USB4C02835)
Strobe/Lamp Enabled: No (USB4C02835)
Correct for Detector Non-linearity: No (USB4C02835)
Correct for Stray Light: No (USB4C02835)
Number of Pixels in Processed Spectrum: 3648
>>>>>Begin Processed Spectral Data<<<<<
177.47	2279.39
177.69	2279.39
177.91	2279.39
178.13	2275.29
178.36	2275.29
178.58	3020.75
178.80	3178.45
179.02	2985.94
179.24	3110.86
179.46	2838.48
179.68	2867.16
179.90	3180.50
180.13	3280.85
180.35	2717.65
180.57	2828.24
180.79	3377.10
181.01	3151.82
181.23	2844.63
181.45	3076.05
181.67	3381.20
181.90	3434.44
182.12	2938.84
182.34	2670.55
182.56	3424.20
182.78	3393.48
183.00	2852.82
183.22	2871.25
183.44	2877.40
183.66	3919.81
183.89	2992.08
184.11	2828.24
184.33	3418.06
184.55	3510.22
184.77	2852.82
184.99	2951.12
185.21	3196.88
185.43	3784.65
185.65	2897.88
185.87	2865.11
186.10	3819.46
186.32	3770.31
186.54	2967.51
186.76	2983.89
186.98	3438.54
187.20	3256.27
187.42	2889.68
187.64	2768.85
187.86	3366.86
188.08	3534.79
188.30	2768.85
188.52	2975.70
188.75	3614.66
188.97	3514.31
189.19	2858.96
189.41	2828.24
189.63	3413.96
189.85	3182.54
190.07	2684.89
190.29	2688.98
190.51	3401.68
190.73	3035.09
190.95	3000.27
191.17	2916.31
191.39	2961.36
191.61	3190.74
191.84	2875.35
192.06	2987.99
192.28	2969.55
192.50	3993.54
192.72	3074.00
192.94	2961.36
193.16	3477.45
193.38	3307.47
193.60	2805.72
193.82	2992.08
194.04	3508.17
194.26	3377.10
194.48	2887.64
194.70	2846.68
194.92	3147.73
195.14	3448.78
195.36	2785.24
195.58	2901.97
195.80	3114.96
196.02	3117.01
196.24	2826.20
196.46	2887.64
196.69	3211.22
196.91	3682.25
197.13	2858.96
197.35	2846.68
197.57	3555.27
197.79	3475.40
198.01	2893.78
198.23	2994.13
198.45	3448.78
198.67	2942.93
198.89	2725.85
199.11	2908.12
199.33	3162.06
199.55	2809.81
199.77	2824.15
199.99	2987.99
200.21	3184.59
200.43	3356.62
200.65	2680.79
200.87	2682.84
201.09	3286.99
201.31	3270.61
201.53	2856.92
201.75	2949.08
201.97	3354.57
202.19	3297.23
202.41	2932.69
202.63	3094.48
202.85	3401.68
203.07	3409.87
203.29	2949.08
203.51	2736.09
203.73	3063.76
203.95	3852.23
204.17	2877.40
204.39	3014.61
204.61	3280.85
204.83	3229.65
205.05	3053.52
205.27	2861.01
205.49	3731.40
205.71	3227.60
205.93	2736.09
206.15	2789.33
206.37	3309.52
206.59	3188.69
206.81	2699.22
207.03	2779.09
207.25	3069.91
207.47	3401.68
207.69	2807.77
207.91	3149.78
208.13	3639.24
208.34	3067.86
208.56	2811.86
208.78	2893.78
209.00	3194.83
209.22	3139.54
209.44	2875.35
209.66	2820.05
209.88	3362.76
210.10	3192.78
210.32	2772.95
210.54	2947.03
210.76	3137.49
210.98	3463.12
211.20	2742.23
211.42	2975.70
211.64	3575.75
211.86	3360.72
212.08	2881.49
212.30	2871.25
212.52	3233.74
212.74	3325.90
212.96	3012.56
213.17	2985.94
213.39	3454.92
213.61	3655.62
213.83	2854.87
214.05	2713.56
214.27	3497.93
214.49	2994.13
214.71	2783.19
214.93	2987.99
215.15	3209.17
215.37	3411.92
215.59	2787.29
215.81	2926.55
216.03	3577.80
216.24	3315.66
216.46	2787.29
216.68	2889.68
216.90	3475.40
217.12	3477.45
217.34	2818.00
217.56	2944.98
217.78	3596.23
218.00	3330.00
218.22	2951.12
218.44	2953.17
218.66	3350.48
218.87	3643.34
219.09	2871.25
219.31	2877.40
219.53	3332.05
219.75	3282.89
219.97	2924.50
220.19	2998.23
220.41	3198.93
220.63	3608.52
220.85	2904.02
221.06	2832.34
221.28	3553.23
221.50	3360.72
221.72	2908.12
221.94	2766.81
222.16	3295.18
222.38	3508.17
222.60	2877.40
222.82	2973.65
223.03	3438.54
223.25	3033.04
223.47	2770.90
223.69	3106.77
223.91	3311.57
224.13	3280.85
224.35	2672.60
224.57	3008.47
224.78	3368.91
225.00	3078.10
225.22	3045.33
225.44	2754.52
225.66	3454.92
225.88	3248.08
226.10	2987.99
226.32	2809.81
226.53	3651.53
226.75	3180.50
226.97	2996.18
227.19	2967.51
227.41	3074.00
227.63	3170.26
227.85	2715.61
228.06	2871.25
228.28	3243.98
228.50	3467.21
228.72	2660.31
228.94	2824.15
229.16	2920.40
229.37	3051.47
229.59	2764.76
229.81	3114.96
230.03	3221.45
230.25	2992.08
230.47	2815.96
230.69	2871.25
230.90	3450.83
231.12	3096.53
231.34	2953.17
231.56	2951.12
231.78	3125.20
232.00	3250.13
232.21	2942.93
232.43	2897.88
232.65	2873.30
232.87	3334.09
233.09	2719.70
233.30	2852.82
233.52	3512.27
233.74	3260.37
233.96	2744.28
234.18	2990.03
234.40	3293.13
234.61	3790.79
234.83	2758.61
235.05	2883.54
235.27	3887.04
235.49	3479.50
235.70	2723.80
235.92	2944.98
236.14	3422.16
236.36	3796.93
236.58	2758.61
236.79	3004.37
237.01	3278.80
237.23	3225.55
237.45	3069.91
237.67	2836.44
237.88	3366.86
238.10	3600.33
238.32	2783.19
238.54	2811.86
238.76	3303.37
238.97	3151.82
239.19	2713.56
239.41	2908.12
239.63	3559.37
239.85	3123.15
240.06	2879.44
240.28	2787.29
240.50	3489.74
240.72	3190.74
240.93	2717.65
241.15	3000.27
241.37	3301.33
241.59	3514.31
241.81	2799.57
242.02	2893.78
242.24	3311.57
242.46	3469.26
242.68	2744.28
242.89	2740.18
243.11	3368.91
243.33	3211.22
243.55	2910.16
243.76	2822.10
243.98	3170.26
244.20	3264.46
244.42	2879.44
244.64	2791.38
244.85	2969.55
245.07	3123.15
245.29	2824.15
245.51	2944.98
245.72	3319.76
245.94	3442.64
246.16	2840.53
246.38	2897.88
246.59	3123.15
246.81	3098.58
247.03	2787.29
247.24	2746.33
247.46	3188.69
247.68	3313.61
247.90	2813.91
248.11	2910.16
248.33	3430.35
248.55	3246.03
248.77	2906.07
248.98	2965.46
249.20	3610.57
249.42	3280.85
249.64	2797.53
249.85	2789.33
250.07	3160.02
250.29	3389.39
250.50	2973.65
250.72	2777.05
250.94	3379.15
251.16	3678.15
251.37	2844.63
251.59	2961.36
251.81	3381.20
252.02	3495.88
252.24	2762.71
252.46	2977.75
252.68	3098.58
252.89	3168.21
253.11	2731.99
253.33	3043.28
253.54	3567.56
253.76	3071.95
253.98	2850.77
254.20	2820.05
254.41	2930.64
254.63	3190.74
254.85	2717.65
255.06	2951.12
255.28	3366.86
255.50	3188.69
255.71	2869.20
255.93	2742.23
256.15	3264.46
256.36	3409.87
256.58	2742.23
256.80	2852.82
257.02	3160.02
257.23	3250.13
257.45	2901.97
257.67	2899.92
257.88	3196.88
258.10	3430.35
258.32	2783.19
258.53	2910.16
258.75	3532.75
258.97	3114.96
259.18	2807.77
259.40	2803.67
259.62	3557.32
259.83	3667.91
260.05	2877.40
260.27	3829.70
260.48	3377.10
260.70	3131.34
260.92	2721.75
261.13	2846.68
261.35	3268.56
261.57	3368.91
261.78	2803.67
262.00	2889.68
262.22	3420.11
262.43	3168.21
262.65	2826.20
262.86	2854.87
263.08	3811.27
263.30	3295.18
263.51	2684.89
263.73	2818.00
263.95	3616.71
264.16	3090.38
264.38	2750.42
264.60	2799.57
264.81	3274.70
265.03	3442.64
265.25	3319.76
265.46	2818.00
265.68	3553.23
265.89	3487.69
266.11	2695.13
266.33	2783.19
266.54	3536.84
266.76	3393.48
266.98	2965.46
267.19	3086.29
267.41	3545.03
267.62	3286.99
267.84	2664.41
268.06	3012.56
268.27	3370.96
268.49	3512.27
268.70	2938.84
268.92	2887.64
269.14	3102.67
269.35	2977.75
269.57	3018.71
269.79	2871.25
270.00	3231.69
270.22	3647.43
270.43	2635.74
270.65	2676.70
270.87	3272.65
271.08	3436.49
271.30	3059.67
271.51	2879.44
271.73	3499.98
271.95	3606.47
272.16	2801.62
272.38	3016.66
272.59	3205.07
272.81	3407.82
273.02	2846.68
273.24	2926.55
273.46	3477.45
273.67	3074.00
273.89	2731.99
274.10	2772.95
274.32	3483.59
274.54	3293.13
274.75	3024.85
274.97	2932.69
275.18	3405.77
275.40	3385.29
275.61	2854.87
275.83	3057.62
276.05	3039.19
276.26	3303.37
276.48	3043.28
276.69	2983.89
276.91	3065.81
277.12	3594.19
277.34	3055.57
277.55	3135.44
277.77	3291.09
277.99	3182.54
278.20	2934.74
278.42	2932.69
278.63	3168.21
278.85	3147.73
279.06	2975.70
279.28	3045.33
279.49	3598.28
279.71	3387.34
279.93	3063.76
280.14	3061.71
280.36	3127.25
280.57	3489.74
280.79	3049.43
281.00	2895.83
281.22	3102.67
281.43	3518.41
281.65	2799.57
281.86	2918.36
282.08	3385.29
282.29	3674.06
282.51	2809.81
282.73	2836.44
282.94	2996.18
283.16	3450.83
283.37	3067.86
283.59	2983.89
283.80	3373.00
284.02	3262.41
284.23	2981.84
284.45	3020.75
284.66	3125.20
284.88	3129.30
285.09	2949.08
285.31	3067.86
285.52	3442.64
285.74	2996.18
285.95	3076.05
286.17	3041.23
286.38	3395.53
286.60	3176.40
286.81	2934.74
287.03	2957.27
287.24	3215.31
287.46	3346.38
287.67	3196.88
287.89	3237.84
288.10	3291.09
288.32	3315.66
288.53	3229.65
288.75	3055.57
288.96	3354.57
289.18	3172.30
289.39	2961.36
289.61	3067.86
289.82	3663.82
290.04	3614.66
290.25	2856.92
290.47	3106.77
290.68	3280.85
290.90	3456.97
291.11	2861.01
291.33	3151.82
291.54	3108.82
291.76	3049.43
291.97	3117.01
292.18	3045.33
292.40	3243.98
292.61	3065.81
292.83	3250.13
293.04	2879.44
293.26	3311.57
293.47	3217.36
293.69	2979.79
293.90	2832.34
294.12	3547.08
294.33	3254.22
294.55	3104.72
294.76	3157.97
294.97	3557.32
295.19	3704.78
295.40	2916.31
295.62	3002.32
295.83	3381.20
296.05	3065.81
296.26	3164.11
296.48	2930.64
296.69	3336.14
296.90	3149.78
297.12	3086.29
297.33	3100.62
297.55	3272.65
297.76	3393.48
297.98	3030.99
298.19	3139.54
298.41	3280.85
298.62	3026.90
298.83	3149.78
299.05	3088.34
299.26	3239.89
299.48	3061.71
299.69	3018.71
299.90	2912.21
300.12	3125.20
300.33	3385.29
300.55	2996.18
300.76	3110.86
300.98	3053.52
301.19	3379.15
301.40	2951.12
301.62	2934.74
301.83	3387.34
302.05	3229.65
302.26	3004.37
302.47	3055.57
302.69	3088.34
302.90	3319.76
303.12	2873.30
303.33	3166.16
303.54	3659.72
303.76	3229.65
303.97	3000.27
304.19	3252.17
304.40	3008.47
304.61	3299.28
304.83	3110.86
305.04	3108.82
305.26	3428.30
305.47	3141.58
305.68	3004.37
305.90	2928.60
306.11	3553.23
306.33	3354.57
306.54	2779.09
306.75	3000.27
306.97	2983.89
307.18	3082.19
307.39	2963.41
307.61	3092.43
307.82	3338.19
308.04	3319.76
308.25	2899.92
308.46	3096.53
308.68	3274.70
308.89	3338.19
309.10	3143.63
309.32	3092.43
309.53	3268.56
309.74	3360.72
309.96	2955.22
310.17	3094.48
310.39	3164.11
310.60	3409.87
310.81	3117.01
311.03	2992.08
311.24	3352.52
311.45	3295.18
311.67	3229.65
311.88	3090.38
312.09	3080.14
312.31	3098.58
312.52	2883.54
312.73	3018.71
312.95	3041.23
313.16	3100.62
313.37	3190.74
313.59	3123.15
313.80	3381.20
314.01	3559.37
314.23	3053.52
314.44	2977.75
314.65	3069.91
314.87	3102.67
315.08	3018.71
315.29	2951.12
315.51	3098.58
315.72	3086.29
315.93	3035.09
316.15	3006.42
316.36	3139.54
316.57	3305.42
316.79	3080.14
317.00	2883.54
317.21	3426.25
317.43	3071.95
317.64	3043.28
317.85	2877.40
318.07	3139.54
318.28	3282.89
318.49	3045.33
318.70	3252.17
318.92	3340.24
319.13	3272.65
319.34	3178.45
319.56	2992.08
319.77	3479.50
319.98	3430.35
320.20	3323.85
320.41	3211.22
320.62	3416.01
320.83	3049.43
321.05	3231.69
321.26	3106.77
321.47	3286.99
321.69	3491.79
321.90	2869.20
322.11	2985.94
322.32	3327.95
322.54	3557.32
322.75	3065.81
322.96	4020.16
323.18	2965.46
323.39	2951.12
323.60	2869.20
323.81	3117.01
324.03	3125.20
324.24	3262.41
324.45	3043.28
324.66	2959.31
324.88	3524.55
325.09	3573.71
325.30	3002.32
325.52	2934.74
325.73	3291.09
325.94	3106.77
326.15	2875.35
326.37	2813.91
326.58	3432.40
326.79	3540.94
327.00	2797.53
327.22	3028.95
327.43	3125.20
327.64	3082.19
327.85	3131.34
328.07	3043.28
328.28	3704.78
328.49	3137.49
328.70	3008.47
328.92	2971.60
329.13	3272.65
329.34	3444.68
329.55	3264.46
329.76	3131.34
329.98	3284.94
330.19	3585.99
330.40	3102.67
330.61	3086.29
330.83	3459.02
331.04	3086.29
331.25	3051.47
331.46	3049.43
331.68	3069.91
331.89	3493.83
332.10	3016.66
332.31	2869.20
332.52	3352.52
332.74	3581.90
332.95	2791.38
333.16	3076.05
333.37	3440.59
333.58	3166.16
333.80	2983.89
334.01	2779.09
334.22	3155.92
334.43	3194.83
334.64	2938.84
334.86	2944.98
335.07	3092.43
335.28	3555.27
335.49	2881.49
335.70	3078.10
335.92	3590.09
336.13	3796.93
336.34	3123.15
336.55	2994.13
336.76	3348.43
336.98	2869.20
337.19	3024.85
337.40	3106.77
337.61	3784.65
337.82	3262.41
338.04	3104.72
338.25	2826.20
338.46	3248.08
338.67	3258.32
338.88	2906.07
339.09	2852.82
339.31	3135.44
339.52	3002.32
339.73	2944.98
339.94	3043.28
340.15	3440.59
340.36	3168.21
340.58	3106.77
340.79	2846.68
341.00	3424.20
341.21	3014.61
341.42	3286.99
341.63	3033.04
341.85	3506.12
342.06	3315.66
342.27	2863.06
342.48	3141.58
342.69	2973.65
342.90	3309.52
343.12	3389.39
343.33	2904.02
343.54	3530.70
343.75	3538.89
343.96	3151.82
344.17	3010.51
344.38	3256.27
344.60	3184.59
344.81	2987.99
345.02	2992.08
345.23	3475.40
345.44	3786.69
345.65	3125.20
345.86	3071.95
346.07	3307.47
346.29	3168.21
346.50	3086.29
346.71	3117.01
346.92	3499.98
347.13	3641.29
347.34	3114.96
347.55	2805.72
347.76	3393.48
347.98	2994.13
348.19	3061.71
348.40	3166.16
348.61	3176.40
348.82	3600.33
349.03	3045.33
349.24	2871.25
349.45	3676.10
349.66	2772.95
349.88	3051.47
350.09	2918.36
350.30	3563.47
350.51	3479.50
350.72	3225.55
350.93	2936.79
351.14	3264.46
351.35	3260.37
351.56	3016.66
351.77	3082.19
351.99	3381.20
352.20	3542.99
352.41	3039.19
352.62	2832.34
352.83	3264.46
353.04	3303.37
353.25	3026.90
353.46	3082.19
353.67	3622.86
353.88	2889.68
354.09	2957.27
354.30	3004.37
354.52	3399.63
354.73	3282.89
354.94	2918.36
355.15	3104.72
355.36	3721.16
355.57	3157.97
355.78	2949.08
355.99	3035.09
356.20	3190.74
356.41	3493.83
356.62	3088.34
356.83	3076.05
357.04	3600.33
357.25	3049.43
357.46	2942.93
357.68	2922.45
357.89	3117.01
358.10	3203.02
358.31	2936.79
358.52	2990.03
358.73	3006.42
358.94	3086.29
359.15	3078.10
359.36	2936.79
359.57	3327.95
359.78	3233.74
359.99	3225.55
360.20	2861.01
360.41	3252.17
360.62	3508.17
360.83	3119.06
361.04	3053.52
361.25	3315.66
361.46	3573.71
361.67	3166.16
361.88	3035.09
362.09	3491.79
362.30	3350.48
362.51	2940.88
362.72	2975.70
362.93	3450.83
363.14	3434.44
363.35	3114.96
363.56	2914.26
363.78	3479.50
363.99	3483.59
364.20	2955.22
364.41	3139.54
364.62	3608.52
364.83	3362.76
365.04	2996.18
365.25	3043.28
365.46	3663.82
365.67	3209.17
365.88	3157.97
366.09	2961.36
366.30	3254.22
366.51	3274.70
366.72	2863.06
366.93	2940.88
367.14	3403.72
367.35	3540.94
367.56	2992.08
367.77	3133.39
367.98	3444.68
368.18	3436.49
368.39	3157.97
368.60	2893.78
368.81	3401.68
369.02	3350.48
369.23	3004.37
369.44	2871.25
369.65	3229.65
369.86	3385.29
370.07	3192.78
370.28	2936.79
370.49	3395.53
370.70	3430.35
370.91	2947.03
371.12	2838.48
371.33	3446.73
371.54	3137.49
371.75	3164.11
371.96	2660.31
372.17	3246.03
372.38	3246.03
372.59	3010.51
372.80	2961.36
373.01	3233.74
373.22	3342.28
373.43	2985.94
373.64	2992.08
373.85	3528.65
374.06	3635.14
374.26	3092.43
374.47	3100.62
374.68	3561.42
374.89	3373.00
375.10	2969.55
375.31	3155.92
375.52	3258.32
375.73	3252.17
375.94	2826.20
376.15	3108.82
376.36	3080.14
376.57	3139.54
376.78	3043.28
376.99	3090.38
377.20	3454.92
377.40	3151.82
377.61	3280.85
377.82	2977.75
378.03	3536.84
378.24	3409.87
378.45	3106.77
378.66	3153.87
378.87	2959.31
379.08	2938.84
379.29	3090.38
379.50	3172.30
379.71	3278.80
379.91	3432.40
380.12	2963.41
380.33	3114.96
380.54	3362.76
380.75	3313.61
380.96	3028.95
381.17	3049.43
381.38	3256.27
381.59	3342.28
381.80	3045.33
382.00	3174.35
382.21	3344.33
382.42	3614.66
382.63	3379.15
382.84	3168.21
383.05	3442.64
383.26	3657.67
383.47	3172.30
383.68	2985.94
383.88	3416.01
384.09	3237.84
384.30	3276.75
384.51	3102.67
384.72	3200.98
384.93	3057.62
385.14	3045.33
385.35	3338.19
385.55	3000.27
385.76	3528.65
385.97	3047.38
386.18	2799.57
386.39	3016.66
386.60	3139.54
386.81	3033.04
387.02	2906.07
387.22	3016.66
387.43	3411.92
387.64	3069.91
387.85	3252.17
388.06	3270.61
388.27	4376.51
388.48	7743.37
388.68	12029.77
388.89	14812.96
389.10	16256.78
389.31	15970.06
389.52	12877.63
389.73	11083.61
389.93	10413.92
390.14	9062.26
390.35	8466.30
390.56	7950.21
390.77	6602.65
390.98	5027.76
391.18	4192.19
391.39	3940.29
391.60	3286.99
391.81	3276.75
392.02	3069.91
392.23	3811.27
392.43	3352.52
392.64	3112.91
392.85	3049.43
393.06	3645.38
393.27	3229.65
393.47	2934.74
393.68	2975.70
393.89	3160.02
394.10	3495.88
394.31	3069.91
394.52	2983.89
394.72	3151.82
394.93	3559.37
395.14	2959.31
395.35	3112.91
395.56	3155.92
395.76	3209.17
395.97	2967.51
396.18	3174.35
396.39	3395.53
396.60	3962.82
396.80	3459.02
397.01	3323.85
397.22	3409.87
397.43	3424.20
397.64	3035.09
397.84	3125.20
398.05	3688.39
398.26	3254.22
398.47	3149.78
398.67	3246.03
398.88	3278.80
399.09	3385.29
399.30	3041.23
399.51	3149.78
399.71	3117.01
399.92	3280.85
400.13	3176.40
400.34	3076.05
400.54	3323.85
400.75	3485.64
400.96	3278.80
401.17	3284.94
401.37	3315.66
401.58	3278.80
401.79	3024.85
402.00	3114.96
402.21	3766.21
402.41	3452.88
402.62	3465.16
402.83	3495.88
403.04	3753.93
403.24	4165.57
403.45	3225.55
403.66	3286.99
403.87	3487.69
404.07	3608.52
404.28	3340.24
404.49	3385.29
404.70	3434.44
404.90	3481.55
405.11	3020.75
405.32	3133.39
405.52	3205.07
405.73	3278.80
405.94	2998.23
406.15	2936.79
406.35	3364.81
406.56	3489.74
406.77	3069.91
406.98	3076.05
407.18	3123.15
407.39	3655.62
407.60	3110.86
407.80	3104.72
408.01	3129.30
408.22	3422.16
408.43	2932.69
408.63	3166.16
408.84	3506.12
409.05	3461.07
409.25	3024.85
409.46	3010.51
409.67	3198.93
409.88	3145.68
410.08	3051.47
410.29	2994.13
410.50	3493.83
410.70	3344.33
410.91	2906.07
411.12	3135.44
411.32	3223.50
411.53	3198.93
411.74	3078.10
411.95	3086.29
412.15	3340.24
412.36	3360.72
412.57	3164.11
412.77	3268.56
412.98	3303.37
413.19	3203.02
413.39	3125.20
413.60	3067.86
413.81	3545.03
414.01	3059.67
414.22	3061.71
414.43	3254.22
414.63	3162.06
414.84	3481.55
415.05	3028.95
415.25	2944.98
415.46	3409.87
415.67	3215.31
415.87	3061.71
416.08	2979.79
416.29	3237.84
416.49	3452.88
416.70	3074.00
416.91	3057.62
417.11	3221.45
417.32	3360.72
417.53	3114.96
417.73	3174.35
417.94	3319.76
418.15	3319.76
418.35	3059.67
418.56	3106.77
418.77	3774.41
418.97	3246.03
419.18	3203.02
419.38	2748.37
419.59	3332.05
419.80	3590.09
420.00	3000.27
420.21	3000.27
420.42	3510.22
420.62	3407.82
420.83	3030.99
421.04	2983.89
421.24	3215.31
421.45	3375.05
421.65	3114.96
421.86	2998.23
422.07	3438.54
422.27	3395.53
422.48	2916.31
422.69	2822.10
422.89	3237.84
423.10	3229.65
423.30	3041.23
423.51	3041.23
423.72	3407.82
423.92	3420.11
424.13	3016.66
424.33	3123.15
424.54	3506.12
424.75	3311.57
424.95	3295.18
425.16	2992.08
425.36	3188.69
425.57	3532.75
425.78	3178.45
425.98	3117.01
426.19	3221.45
426.39	3155.92
426.60	3137.49
426.81	3153.87
427.01	3364.81
427.22	3180.50
427.42	2914.26
427.63	2996.18
427.83	3536.84
428.04	3590.09
428.25	3164.11
428.45	3119.06
428.66	3547.08
428.86	3231.69
429.07	3106.77
429.28	3053.52
429.48	3278.80
429.69	3033.04
429.89	3102.67
430.10	2994.13
430.30	3373.00
430.51	3504.07
430.71	2955.22
430.92	3086.29
431.13	3168.21
431.33	3442.64
431.54	3084.24
431.74	3270.61
431.95	3674.06
432.15	3061.71
432.36	3135.44
432.56	3078.10
432.77	3710.92
432.98	3712.97
433.18	3106.77
433.39	2901.97
433.59	3233.74
433.80	3612.62
434.00	3207.12
434.21	3127.25
434.41	3119.06
434.62	3784.65
434.82	2918.36
435.03	2893.78
435.23	3366.86
435.44	2934.74
435.64	2994.13
435.85	3127.25
436.06	3467.21
436.26	3450.83
436.47	2994.13
436.67	3006.42
436.88	3149.78
437.08	3450.83
437.29	3196.88
437.49	3186.64
437.70	3567.56
437.90	3250.13
438.11	3225.55
438.31	3094.48
438.52	3499.98
438.72	3540.94
438.93	3401.68
439.13	3131.34
439.34	3452.88
439.54	3069.91
439.75	3194.83
439.95	3188.69
440.16	3157.97
440.36	3276.75
440.57	3014.61
440.77	3059.67
440.98	3262.41
441.18	3440.59
441.39	2979.79
441.59	2918.36
441.80	3760.07
442.00	3299.28
442.21	3168.21
442.41	2844.63
442.62	3506.12
442.82	3133.39
443.02	3063.76
443.23	3086.29
443.43	3143.63
443.64	3545.03
443.84	2916.31
444.05	3114.96
444.25	3373.00
444.46	3184.59
444.66	3080.14
444.87	3219.41
445.07	2977.75
445.28	3258.32
445.48	3315.66
445.69	3119.06
445.89	3874.76
446.09	3248.08
446.30	3352.52
446.50	3499.98
446.71	5064.63
446.91	6141.86
447.12	7214.99
447.32	7587.72
447.53	7581.58
447.73	6311.84
447.93	5595.05
448.14	5353.39
448.34	5431.21
448.55	4427.71
448.75	4446.14
448.96	4171.71
449.16	4136.90
449.36	3823.56
449.57	3405.77
449.77	3266.51
449.98	3184.59
450.18	3385.29
450.39	3041.23
450.59	3217.36
450.79	3370.96
451.00	3078.10
451.20	3274.70
451.41	3020.75
451.61	3409.87
451.81	3274.70
452.02	2987.99
452.22	3012.56
452.43	3188.69
452.63	3086.29
452.84	3092.43
453.04	3018.71
453.24	3305.42
453.45	3108.82
453.65	3057.62
453.86	3117.01
454.06	3297.23
454.26	3241.93
454.47	3016.66
454.67	3174.35
454.87	3291.09
455.08	3149.78
455.28	3131.34
455.49	3196.88
455.69	3078.10
455.89	3657.67
456.10	3200.98
456.30	2975.70
456.51	3348.43
456.71	3311.57
456.91	3264.46
457.12	3145.68
457.32	3346.38
457.52	3035.09
457.73	3227.60
457.93	3211.22
458.14	3151.82
458.34	2926.55
458.54	3018.71
458.75	2934.74
458.95	3479.50
459.15	3395.53
459.36	2992.08
459.56	3074.00
459.76	3729.35
459.97	3274.70
460.17	3039.19
460.37	3184.59
460.58	3272.65
460.78	3448.78
460.99	3002.32
461.19	3008.47
461.39	3172.30
461.60	3330.00
461.80	3086.29
462.00	3059.67
462.21	3305.42
462.41	3153.87
462.61	2953.17
462.82	2848.72
463.02	3428.30
463.22	3235.79
463.43	3108.82
463.63	2951.12
463.83	3526.60
464.04	3350.48
464.24	3008.47
464.44	3067.86
464.64	3325.90
464.85	3475.40
465.05	3006.42
465.25	3026.90
465.46	3037.14
465.66	3446.73
465.86	3098.58
466.07	3051.47
466.27	3231.69
466.47	2969.55
466.68	2947.03
466.88	3176.40
467.08	3413.96
467.29	3469.26
467.49	3061.71
467.69	3205.07
467.89	3450.83
468.10	3213.26
468.30	3071.95
468.50	3155.92
468.71	3403.72
468.91	2969.55
469.11	3223.50
469.31	3149.78
469.52	3051.47
469.72	3594.19
469.92	3323.85
470.13	3059.67
470.33	3289.04
470.53	3246.03
470.73	3497.93
470.94	3919.81
471.14	4071.36
471.34	4749.24
471.54	4356.03
471.75	4069.31
471.95	3809.22
472.15	3663.82
472.36	3776.45
472.56	3567.56
472.76	3930.05
472.96	3649.48
473.17	3360.72
473.37	3239.89
473.57	3286.99
473.77	3440.59
473.98	3125.20
474.18	2959.31
474.38	4091.84
474.58	3155.92
474.79	2981.84
474.99	3141.58
475.19	3491.79
475.39	3131.34
475.60	3133.39
475.80	3043.28
476.00	3299.28
476.20	3190.74
476.41	3100.62
476.61	3133.39
476.81	3479.50
477.01	3160.02
477.21	3307.47
477.42	3207.12
477.62	3178.45
477.82	3467.21
478.02	2967.51
478.23	3082.19
478.43	3098.58
478.63	3172.30
478.83	3106.77
479.03	3213.26
479.24	3588.04
479.44	3698.63
479.64	2996.18
479.84	2904.02
480.04	3094.48
480.25	3465.16
480.45	2990.03
480.65	2983.89
480.85	3647.43
481.06	3160.02
481.26	3127.25
481.46	3100.62
481.66	3413.96
481.86	2983.89
482.06	3264.46
482.27	3108.82
482.47	3227.60
482.67	3381.20
482.87	3100.62
483.07	3119.06
483.28	3106.77
483.48	3074.00
483.68	3076.05
483.88	2947.03
484.08	2895.83
484.29	3053.52
484.49	3123.15
484.69	2889.68
484.89	3565.51
485.09	3467.21
485.29	3080.14
485.50	3307.47
485.70	3084.24
485.90	3563.47
486.10	3188.69
486.30	3047.38
486.50	3526.60
486.71	3405.77
486.91	3125.20
487.11	3182.54
487.31	3020.75
487.51	3336.14
487.71	3024.85
487.91	2979.79
488.12	3186.64
488.32	2840.53
488.52	3043.28
488.72	2869.20
488.92	3262.41
489.12	3516.36
489.32	3229.65
489.53	3082.19
489.73	3055.57
489.93	3747.78
490.13	3049.43
490.33	2934.74
490.53	3381.20
490.73	3512.27
490.94	2955.22
491.14	3205.07
491.34	3387.34
491.54	3401.68
491.74	3977.16
491.94	4470.72
492.14	5203.89
492.34	5189.55
492.54	4802.49
492.75	4110.27
492.95	4356.03
493.15	3973.06
493.35	3792.84
493.55	3704.78
493.75	3745.73
493.95	3823.56
494.15	3291.09
494.35	3164.11
494.56	3182.54
494.76	3110.86
494.96	3305.42
495.16	2990.03
495.36	3301.33
495.56	3356.62
495.76	3123.15
495.96	3055.57
496.16	3125.20
496.36	3731.40
496.56	3043.28
496.77	3172.30
496.97	3293.13
497.17	3596.23
497.37	2889.68
497.57	3141.58
497.77	3221.45
497.97	3096.53
498.17	3135.44
498.37	3047.38
498.57	3403.72
498.77	3166.16
498.97	3196.88
499.17	3481.55
499.38	3258.32
499.58	3319.76
499.78	3221.45
499.98	3145.68
500.18	3198.93
500.38	3057.62
500.58	3221.45
500.78	3686.34
500.98	6086.56
501.18	8271.75
501.38	9682.80
501.58	10784.60
501.78	10942.30
501.98	9095.03
502.18	7479.18
502.38	6565.79
502.58	6303.65
502.78	5767.08
502.98	5550.00
503.18	5304.24
503.38	4904.89
503.59	4284.35
503.79	4126.66
503.99	3690.44
504.19	3907.52
504.39	3946.44
504.59	3608.52
504.79	3577.80
504.99	4063.17
505.19	3569.61
505.39	3284.94
505.59	3463.12
505.79	3790.79
505.99	3499.98
506.19	3182.54
506.39	3401.68
506.59	3160.02
506.79	3168.21
506.99	3325.90
507.19	3030.99
507.39	3395.53
507.59	2998.23
507.79	3049.43
507.99	3071.95
508.19	3321.81
508.39	3205.07
508.59	3098.58
508.79	3192.78
508.99	3635.14
509.19	3102.67
509.39	3166.16
509.59	2910.16
509.79	3137.49
509.99	3344.33
510.19	3133.39
510.39	3203.02
510.59	3278.80
510.79	3153.87
510.99	2858.96
511.19	3049.43
511.39	3651.53
511.59	3569.61
511.79	3198.93
511.99	3043.28
512.19	3782.60
512.38	3358.67
512.58	2955.22
512.78	2936.79
512.98	3549.13
513.18	3588.04
513.38	2930.64
513.58	3233.74
513.78	3262.41
513.98	3260.37
514.18	3063.76
514.38	3090.38
514.58	3381.20
514.78	3131.34
514.98	2975.70
515.18	3090.38
515.38	3059.67
515.58	3614.66
515.78	3039.19
515.98	3114.96
516.18	3381.20
516.38	3303.37
516.57	3012.56
516.77	3033.04
516.97	3375.05
517.17	3117.01
517.37	2815.96
517.57	3147.73
517.77	3241.93
517.97	3078.10
518.17	3123.15
518.37	2975.70
518.57	3147.73
518.77	3127.25
518.97	3084.24
519.16	3143.63
519.36	3463.12
519.56	3198.93
519.76	3033.04
519.96	3082.19
520.16	3612.62
520.36	3106.77
520.56	3151.82
520.76	3004.37
520.96	3190.74
521.16	3442.64
521.35	3178.45
521.55	3188.69
521.75	3237.84
521.95	3137.49
522.15	3035.09
522.35	2975.70
522.55	3151.82
522.75	3450.83
522.95	2985.94
523.14	2957.27
523.34	3209.17
523.54	3213.26
523.74	3186.64
523.94	3071.95
524.14	3051.47
524.34	3319.76
524.54	3332.05
524.73	3131.34
524.93	3483.59
525.13	3362.76
525.33	2965.46
525.53	3358.67
525.73	3418.06
525.93	3250.13
526.13	3057.62
526.32	2928.60
526.52	3508.17
526.72	3469.26
526.92	3016.66
527.12	3010.51
527.32	3028.95
527.52	3381.20
527.71	3155.92
527.91	3086.29
528.11	3121.10
528.31	3264.46
528.51	3030.99
528.71	3209.17
528.90	3366.86
529.10	3432.40
529.30	3110.86
529.50	2807.77
529.70	3336.14
529.90	3270.61
530.09	3000.27
530.29	2918.36
530.49	3200.98
530.69	3948.48
530.89	3276.75
531.09	3076.05
531.28	3061.71
531.48	3559.37
531.68	3086.29
531.88	3061.71
532.08	3405.77
532.28	3336.14
532.47	3180.50
532.67	3141.58
532.87	3393.48
533.07	3065.81
533.27	3059.67
533.46	3063.76
533.66	3354.57
533.86	3223.50
534.06	3184.59
534.26	3082.19
534.45	3213.26
534.65	3508.17
534.85	3176.40
535.05	3082.19
535.25	3516.36
535.44	2955.22
535.64	3133.39
535.84	3096.53
536.04	3198.93
536.24	3186.64
536.43	3043.28
536.63	3010.51
536.83	3278.80
537.03	3262.41
537.22	2895.83
537.42	2893.78
537.62	3286.99
537.82	3166.16
538.02	3198.93
538.21	3104.72
538.41	3774.41
538.61	3370.96
538.81	3147.73
539.00	3164.11
539.20	2934.74
539.40	3258.32
539.60	3041.23
539.79	3205.07
539.99	3293.13
540.19	3135.44
540.39	2940.88
540.58	3055.57
540.78	3504.07
540.98	3327.95
541.18	3188.69
541.37	3102.67
541.57	3237.84
541.77	3385.29
541.97	2926.55
542.16	2879.44
542.36	3225.55
542.56	3114.96
542.76	3254.22
542.95	3121.10
543.15	3356.62
543.35	3389.39
543.54	3026.90
543.74	3010.51
543.94	3524.55
544.14	3243.98
544.33	3147.73
544.53	3043.28
544.73	3151.82
544.93	3221.45
545.12	3114.96
545.32	3106.77
545.52	3180.50
545.71	3086.29
545.91	3092.43
546.11	2996.18
546.30	3082.19
546.50	3248.08
546.70	3082.19
546.90	3112.91
547.09	3008.47
547.29	3278.80
547.49	3180.50
547.68	3014.61
547.88	3086.29
548.08	3426.25
548.27	3413.96
548.47	3028.95
548.67	3143.63
548.87	3356.62
549.06	2985.94
549.26	2987.99
549.46	3370.96
549.65	3170.26
549.85	3094.48
550.05	3131.34
550.24	3045.33
550.44	3221.45
550.64	3153.87
550.83	3082.19
551.03	3565.51
551.23	3483.59
551.42	3123.15
551.62	3108.82
551.82	3295.18
552.01	3217.36
552.21	3368.91
552.41	3123.15
552.60	3516.36
552.80	3346.38
553.00	3082.19
553.19	3127.25
553.39	3606.47
553.59	3018.71
553.78	3192.78
553.98	3008.47
554.17	3112.91
554.37	3364.81
554.57	3164.11
554.76	2955.22
554.96	3205.07
555.16	3307.47
555.35	3186.64
555.55	3188.69
555.75	3262.41
555.94	3438.54
556.14	2881.49
556.33	3063.76
556.53	3282.89
556.73	3297.23
556.92	3041.23
557.12	2969.55
557.32	3725.26
557.51	3516.36
557.71	3172.30
557.90	3284.94
558.10	3483.59
558.30	3225.55
558.49	3063.76
558.69	3016.66
558.88	3479.50
559.08	3276.75
559.28	3160.02
559.47	3080.14
559.67	3397.58
559.86	3659.72
560.06	3024.85
560.26	3102.67
560.45	3411.92
560.65	3241.93
560.84	3309.52
561.04	2973.65
561.24	3381.20
561.43	2901.97
561.63	3289.04
561.82	3241.93
562.02	3319.76
562.22	3102.67
562.41	2959.31
562.61	3043.28
562.80	3022.80
563.00	3768.26
563.19	3108.82
563.39	3170.26
563.59	3456.97
563.78	3135.44
563.98	2820.05
564.17	3012.56
564.37	2936.79
564.56	3237.84
564.76	2938.84
564.96	3137.49
565.15	3364.81
565.35	3745.73
565.54	3096.53
565.74	3098.58
565.93	3411.92
566.13	3221.45
566.32	3098.58
566.52	3141.58
566.71	3334.09
566.91	3452.88
567.11	3162.06
567.30	2969.55
567.50	3364.81
567.69	3393.48
567.89	3035.09
568.08	3041.23
568.28	3311.57
568.47	2979.79
568.67	3061.71
568.86	3084.24
569.06	3413.96
569.25	3211.22
569.45	2949.08
569.64	3133.39
569.84	3155.92
570.04	3340.24
570.23	3002.32
570.43	3133.39
570.62	3297.23
570.82	3620.81
571.01	2979.79
571.21	3090.38
571.40	3047.38
571.60	3430.35
571.79	3139.54
571.99	3082.19
572.18	3063.76
572.38	3375.05
572.57	3162.06
572.77	3045.33
572.96	3852.23
573.16	3284.94
573.35	2979.79
573.55	3188.69
573.74	3401.68
573.94	3270.61
574.13	3049.43
574.33	3147.73
574.52	3575.75
574.71	3303.37
574.91	3155.92
575.10	2887.64
575.30	3243.98
575.49	3166.16
575.69	2971.60
575.88	3000.27
576.08	3246.03
576.27	3409.87
576.47	2951.12
576.66	3280.85
576.86	3579.85
577.05	3280.85
577.25	3174.35
577.44	3291.09
577.64	3155.92
577.83	3416.01
578.02	3061.71
578.22	3229.65
578.41	3657.67
578.61	3258.32
578.80	2899.92
579.00	3135.44
579.19	3225.55
579.39	3295.18
579.58	3174.35
579.77	3082.19
579.97	3495.88
580.16	3590.09
580.36	3309.52
580.55	3108.82
580.75	3344.33
580.94	3354.57
581.13	3274.70
581.33	3270.61
581.52	3303.37
581.72	3706.82
581.91	3168.21
582.11	3110.86
582.30	3448.78
582.49	3336.14
582.69	3303.37
582.88	3119.06
583.08	3442.64
583.27	3508.17
583.47	3205.07
583.66	3057.62
583.85	3094.48
584.05	3266.51
584.24	3203.02
584.44	3123.15
584.63	3522.51
584.82	3475.40
585.02	3426.25
585.21	3303.37
585.41	3434.44
585.60	3272.65
585.79	3305.42
585.99	3377.10
586.18	3358.67
586.37	4175.81
586.57	6281.12
586.76	17630.96
586.96	37336.52
587.15	50537.72
587.34	59343.99
587.54	63069.25
587.73	56564.90
587.93	41029.01
588.12	31231.52
588.31	25247.36
588.51	22691.49
588.70	20940.48
588.89	18562.79
589.09	16135.95
589.28	13870.89
589.47	10764.12
589.67	8185.73
589.86	6543.26
590.06	5064.63
590.25	4618.17
590.44	3821.51
590.64	3485.64
590.83	3600.33
591.02	3629.00
591.22	3104.72
591.41	3166.16
591.60	3315.66
591.80	3807.17
591.99	2912.21
592.18	3096.53
592.38	3450.83
592.57	3160.02
592.76	2998.23
592.96	3233.74
593.15	3266.51
593.34	3557.32
593.54	3119.06
593.73	3151.82
593.92	3411.92
594.12	3344.33
594.31	3106.77
594.50	3311.57
594.70	3352.52
594.89	3833.80
595.08	3065.81
595.28	3262.41
595.47	3954.63
595.66	3467.21
595.86	2955.22
596.05	2922.45
596.24	3184.59
596.43	3553.23
596.63	3166.16
596.82	3178.45
597.01	3389.39
597.21	3647.43
597.40	3139.54
597.59	3094.48
597.79	3301.33
597.98	3512.27
598.17	3092.43
598.36	3043.28
598.56	3430.35
598.75	3176.40
598.94	3166.16
599.14	3131.34
599.33	3151.82
599.52	3389.39
599.71	3155.92
599.91	3125.20
600.10	3330.00
600.29	3311.57
600.48	3166.16
600.68	3262.41
600.87	3418.06
601.06	2994.13
601.26	3180.50
601.45	3180.50
601.64	3289.04
601.83	3614.66
602.03	3000.27
602.22	3018.71
602.41	3602.38
602.60	3704.78
602.80	3139.54
602.99	3237.84
603.18	3168.21
603.37	3358.67
603.57	2971.60
603.76	3123.15
603.95	3487.69
604.14	3172.30
604.34	3037.14
604.53	3063.76
604.72	3250.13
604.91	3444.68
605.10	3117.01
605.30	2934.74
605.49	3721.16
605.68	3471.31
605.87	3131.34
606.07	3000.27
606.26	3299.28
606.45	3389.39
606.64	3127.25
606.84	2951.12
607.03	3305.42
607.22	3438.54
607.41	3205.07
607.60	3121.10
607.80	3463.12
607.99	3264.46
608.18	3127.25
608.37	3069.91
608.56	3168.21
608.76	3444.68
608.95	3254.22
609.14	3033.04
609.33	3581.90
609.52	3551.18
609.72	3274.70
609.91	3164.11
610.10	3258.32
610.29	3626.95
610.48	3225.55
610.68	3278.80
610.87	3262.41
611.06	3409.87
611.25	3074.00
611.44	3217.36
611.63	3114.96
611.83	3553.23
612.02	3000.27
612.21	3225.55
612.40	2897.88
612.59	3069.91
612.79	2928.60
612.98	3231.69
613.17	3549.13
613.36	3307.47
613.55	3215.31
613.74	3108.82
613.93	3352.52
614.13	3356.62
614.32	3323.85
614.51	3121.10
614.70	3330.00
614.89	3252.17
615.08	3157.97
615.28	3420.11
615.47	3180.50
615.66	3348.43
615.85	3078.10
616.04	3213.26
616.23	3274.70
616.42	3297.23
616.62	3153.87
616.81	3133.39
617.00	3217.36
617.19	3477.45
617.38	3084.24
617.57	3157.97
617.76	3413.96
617.95	3434.44
618.15	3252.17
618.34	3264.46
618.53	3061.71
618.72	3487.69
618.91	3153.87
619.10	3157.97
619.29	3258.32
619.48	3266.51
619.68	3010.51
619.87	3063.76
620.06	3047.38
620.25	3352.52
620.44	3030.99
620.63	3092.43
620.82	3348.43
621.01	3280.85
621.20	3145.68
621.39	3112.91
621.59	3299.28
621.78	3223.50
621.97	3160.02
622.16	3205.07
622.35	3403.72
622.54	3387.34
622.73	3157.97
622.92	2869.20
623.11	3473.36
623.30	3192.78
623.49	3082.19
623.68	2963.41
623.88	3600.33
624.07	3121.10
624.26	3010.51
624.45	3164.11
624.64	3295.18
624.83	3360.72
625.02	3016.66
625.21	3076.05
625.40	3194.83
625.59	3473.36
625.78	3143.63
625.97	3155.92
626.16	3534.79
626.35	3456.97
626.54	3196.88
626.74	3420.11
626.93	3246.03
627.12	3262.41
627.31	3174.35
627.50	3137.49
627.69	3436.49
627.88	3145.68
628.07	2987.99
628.26	2940.88
628.45	3164.11
628.64	3104.72
628.83	3051.47
629.02	2881.49
629.21	3411.92
629.40	3395.53
629.59	2953.17
629.78	3047.38
629.97	3217.36
630.16	3225.55
630.35	3051.47
630.54	3176.40
630.73	3180.50
630.92	3192.78
631.11	2996.18
631.30	3143.63
631.49	3440.59
631.68	3192.78
631.87	3164.11
632.06	3053.52
632.25	3801.03
632.44	3178.45
632.63	3057.62
632.82	3123.15
633.01	3217.36
633.20	3327.95
633.39	3080.14
633.58	2863.06
633.77	3377.10
633.96	3346.38
634.15	3225.55
634.34	3162.06
634.53	3307.47
634.72	3200.98
634.91	2904.02
635.10	3061.71
635.29	3518.41
635.48	3307.47
635.67	2928.60
635.86	2951.12
636.05	3545.03
636.24	3235.79
636.43	3049.43
636.62	3149.78
636.81	2789.33
637.00	3256.27
637.19	3002.32
637.38	3090.38
637.57	3207.12
637.76	3377.10
637.95	3241.93
638.14	3215.31
638.33	3332.05
638.52	3348.43
638.71	2987.99
638.89	2942.93
639.08	3772.36
639.27	3477.45
639.46	3239.89
639.65	3631.05
639.84	3813.32
640.03	4130.75
640.22	3598.28
640.41	3547.08
640.60	3397.58
640.79	3459.02
640.98	3286.99
641.17	3348.43
641.36	3610.57
641.55	3432.40
641.74	2914.26
641.92	3002.32
642.11	3121.10
642.30	3266.51
642.49	3022.80
642.68	3145.68
642.87	3332.05
643.06	3522.51
643.25	2889.68
643.44	2963.41
643.63	3162.06
643.82	3311.57
644.00	3074.00
644.19	3069.91
644.38	3108.82
644.57	3370.96
644.76	3096.53
644.95	3174.35
645.14	3362.76
645.33	3317.71
645.52	3192.78
645.71	2871.25
645.89	3055.57
646.08	3211.22
646.27	3053.52
646.46	3237.84
646.65	3030.99
646.84	3233.74
647.03	3008.47
647.22	3205.07
647.40	3282.89
647.59	3200.98
647.78	2822.10
647.97	3012.56
648.16	3102.67
648.35	3559.37
648.54	3289.04
648.73	3149.78
648.91	3471.31
649.10	3256.27
649.29	2963.41
649.48	3028.95
649.67	3430.35
649.86	3278.80
650.05	3121.10
650.23	3313.61
650.42	3153.87
650.61	3510.22
650.80	3350.48
650.99	3264.46
651.18	3567.56
651.36	3559.37
651.55	3026.90
651.74	3262.41
651.93	3200.98
652.12	3319.76
652.31	3106.77
652.49	3024.85
652.68	3221.45
652.87	3616.71
653.06	3196.88
653.25	3373.00
653.44	3327.95
653.62	3598.28
653.81	3092.43
654.00	3153.87
654.19	3350.48
654.38	3839.94
654.56	3164.11
654.75	2975.70
654.94	3540.94
655.13	3299.28
655.32	3076.05
655.51	3196.88
655.69	3200.98
655.88	3438.54
656.07	2889.68
656.26	3082.19
656.45	2975.70
656.63	3223.50
656.82	3092.43
657.01	3397.58
657.20	3067.86
657.38	3532.75
657.57	2992.08
657.76	2957.27
657.95	3375.05
658.14	3131.34
658.32	3219.41
658.51	2885.59
658.70	3336.14
658.89	3280.85
659.08	3123.15
659.26	3307.47
659.45	3108.82
659.64	3454.92
659.83	3074.00
660.01	3459.02
660.20	3321.81
660.39	3655.62
660.58	2795.48
660.76	3074.00
660.95	3014.61
661.14	3246.03
661.33	2834.39
661.51	3045.33
661.70	3147.73
661.89	3397.58
662.08	3053.52
662.26	2981.84
662.45	3020.75
662.64	3624.90
662.83	3188.69
663.01	2969.55
663.20	3192.78
663.39	3516.36
663.58	3053.52
663.76	3157.97
663.95	3405.77
664.14	3065.81
664.32	3104.72
664.51	2910.16
664.70	2947.03
664.89	3319.76
665.07	3018.71
665.26	3166.16
665.45	2949.08
665.64	3420.11
665.82	3059.67
666.01	3246.03
666.20	3002.32
666.38	3379.15
666.57	3379.15
666.76	5623.72
666.95	12912.44
667.13	20471.50
667.32	24741.51
667.51	28145.23
667.69	29249.09
667.88	23922.32
668.07	17491.70
668.25	14823.20
668.44	12930.87
668.63	11220.82
668.81	9652.08
669.00	8546.17
669.19	7782.28
669.38	6629.27
669.56	5668.78
669.75	4964.28
669.94	4368.32
670.12	3749.83
670.31	3360.72
670.50	3327.95
670.68	3520.46
670.87	3440.59
671.06	3092.43
671.24	3184.59
671.43	3682.25
671.62	3360.72
671.80	3125.20
671.99	3227.60
672.18	3246.03
672.36	3442.64
672.55	3207.12
672.74	3186.64
672.92	3227.60
673.11	3276.75
673.29	2922.45
673.48	3225.55
673.67	3262.41
673.85	3450.83
674.04	3008.47
674.23	3225.55
674.41	3594.19
674.60	3098.58
674.79	2910.16
674.97	3000.27
675.16	3354.57
675.34	3467.21
675.53	3012.56
675.72	3176.40
675.90	3706.82
676.09	3160.02
676.28	3172.30
676.46	2897.88
676.65	3430.35
676.83	3041.23
677.02	3117.01
677.21	3190.74
677.39	3348.43
677.58	3133.39
677.77	3018.71
677.95	2992.08
678.14	3237.84
678.32	3157.97
678.51	3082.19
678.70	3389.39
678.88	3205.07
679.07	3274.70
679.25	3022.80
679.44	3086.29
679.63	3065.81
679.81	3280.85
680.00	3354.57
680.18	3160.02
680.37	3590.09
680.55	3221.45
680.74	3018.71
680.93	2926.55
681.11	3332.05
681.30	3164.11
681.48	3166.16
681.67	3133.39
681.85	3301.33
682.04	3092.43
682.23	3246.03
682.41	3180.50
682.60	3145.68
682.78	3196.88
682.97	2983.89
683.15	3147.73
683.34	3307.47
683.53	3545.03
683.71	2910.16
683.90	3135.44
684.08	3635.14
684.27	3184.59
684.45	3133.39
684.64	3229.65
684.82	3213.26
685.01	3323.85
685.19	3074.00
685.38	3348.43
685.57	3330.00
685.75	3186.64
685.94	3067.86
686.12	2912.21
686.31	3219.41
686.49	3667.91
686.68	2826.20
686.86	3104.72
687.05	3223.50
687.23	3622.86
687.42	3102.67
687.60	2998.23
687.79	3483.59
687.97	3610.57
688.16	3213.26
688.34	3143.63
688.53	2906.07
688.71	3360.72
688.90	3397.58
689.08	3147.73
689.27	2918.36
689.45	3444.68
689.64	3188.69
689.82	3180.50
690.01	3362.76
690.19	3272.65
690.38	3170.26
690.56	3190.74
690.75	3080.14
690.93	3076.05
691.12	3080.14
691.30	3078.10
691.49	3051.47
691.67	3246.03
691.86	3368.91
692.04	3176.40
692.23	3162.06
692.41	3272.65
692.60	3483.59
692.78	3319.76
692.97	3254.22
693.15	3442.64
693.34	3366.86
693.52	3246.03
693.71	3151.82
693.89	3203.02
694.08	2934.74
694.26	3145.68
694.44	3426.25
694.63	3532.75
694.81	3035.09
695.00	2998.23
695.18	3516.36
695.37	3755.97
695.55	3196.88
695.74	3147.73
695.92	3094.48
696.10	3499.98
696.29	2891.73
696.47	3139.54
696.66	3016.66
696.84	3069.91
697.03	3143.63
697.21	3377.10
697.40	4751.29
697.58	3573.71
697.76	3018.71
697.95	3024.85
698.13	3020.75
698.32	3170.26
698.50	3057.62
698.68	3059.67
698.87	3395.53
699.05	3573.71
699.24	3055.57
699.42	3045.33
699.61	3354.57
699.79	3327.95
699.97	3143.63
700.16	2953.17
700.34	2977.75
700.53	3233.74
700.71	3303.37
700.89	3155.92
701.08	3203.02
701.26	3346.38
701.45	3428.30
701.63	3094.48
701.81	3092.43
702.00	3157.97
702.18	3268.56
702.37	3065.81
702.55	3569.61
702.73	3309.52
702.92	3139.54
703.10	3475.40
703.28	3401.68
703.47	3102.67
703.65	3305.42
703.84	3178.45
704.02	3174.35
704.20	3592.14
704.39	3024.85
704.57	3078.10
704.75	3479.50
704.94	3405.77
705.12	3311.57
705.30	3964.87
705.49	8497.02
705.67	16975.61
705.86	23518.87
706.04	26793.58
706.22	29775.42
706.41	28223.06
706.59	21331.64
706.77	16770.82
706.96	14399.27
707.14	12783.42
707.32	10987.35
707.51	9717.61
707.69	7939.97
707.87	6614.94
708.06	5244.85
708.24	4505.53
708.42	4036.55
708.61	4212.67
708.79	3213.26
708.97	3291.09
709.16	3395.53
709.34	3291.09
709.52	3123.15
709.71	3092.43
709.89	3274.70
710.07	3131.34
710.26	3055.57
710.44	3151.82
710.62	3516.36
710.80	3319.76
710.99	3190.74
711.17	3278.80
711.35	3131.34
711.54	3168.21
711.72	3338.19
711.90	3139.54
712.09	3403.72
712.27	3172.30
712.45	3219.41
712.63	3100.62
712.82	3223.50
713.00	3311.57
713.18	3282.89
713.37	3317.71
713.55	3461.07
713.73	3452.88
713.91	3114.96
714.10	3067.86
714.28	3219.41
714.46	3327.95
714.65	3254.22
714.83	3106.77
715.01	3319.76
715.19	3311.57
715.38	3033.04
715.56	3196.88
715.74	3196.88
715.92	3182.54
716.11	3409.87
716.29	2897.88
716.47	3284.94
716.65	3231.69
716.84	3016.66
717.02	3137.49
717.20	3008.47
717.38	3196.88
717.57	3248.08
717.75	3098.58
717.93	3121.10
718.11	3403.72
718.30	2992.08
718.48	3129.30
718.66	3528.65
718.84	3465.16
719.03	3084.24
719.21	2922.45
719.39	3698.63
719.57	3403.72
719.75	3190.74
719.94	3037.14
720.12	3098.58
720.30	3348.43
720.48	3160.02
720.67	3065.81
720.85	3084.24
721.03	3229.65
721.21	3090.38
721.39	3231.69
721.58	3403.72
721.76	3297.23
721.94	3157.97
722.12	3157.97
722.30	3588.04
722.49	3182.54
722.67	3135.44
722.85	3082.19
723.03	3026.90
723.21	3196.88
723.40	3102.67
723.58	3246.03
723.76	3356.62
723.94	3551.18
724.12	3108.82
724.30	3346.38
724.49	3567.56
724.67	3123.15
724.85	3133.39
725.03	2951.12
725.21	3407.82
725.40	3514.31
725.58	3106.77
725.76	3395.53
725.94	3448.78
726.12	3069.91
726.30	3080.14
726.49	3024.85
726.67	3160.02
726.85	3506.12
727.03	3956.68
727.21	5470.12
727.39	7282.58
727.57	7671.69
727.76	8120.20
727.94	8392.58
728.12	7219.09
728.30	6029.22
728.48	5484.46
728.66	5007.28
728.84	4698.04
729.03	4175.81
729.21	3876.80
729.39	3528.65
729.57	3422.16
729.75	3397.58
729.93	3409.87
730.11	3008.47
730.30	3153.87
730.48	3270.61
730.66	3123.15
730.84	3231.69
731.02	3377.10
731.20	3219.41
731.38	3106.77
731.56	2987.99
731.74	3008.47
731.93	3428.30
732.11	3172.30
732.29	3065.81
732.47	3407.82
732.65	3385.29
732.83	3327.95
733.01	3231.69
733.19	3151.82
733.37	3313.61
733.56	3037.14
733.74	3026.90
733.92	3565.51
734.10	3164.11
734.28	3243.98
734.46	2832.34
734.64	3272.65
734.82	3147.73
735.00	3047.38
735.18	3002.32
735.36	3323.85
735.54	3223.50
735.73	3043.28
735.91	3188.69
736.09	3561.42
736.27	3250.13
736.45	3151.82
736.63	2803.67
736.81	3188.69
736.99	3434.44
737.17	3278.80
737.35	3074.00
737.53	3297.23
737.71	3188.69
737.89	3268.56
738.07	3082.19
738.25	3106.77
738.43	2969.55
738.61	3055.57
738.80	2947.03
738.98	3022.80
739.16	3119.06
739.34	3014.61
739.52	3436.49
739.70	3182.54
739.88	3413.96
740.06	3303.37
740.24	2783.19
740.42	3479.50
740.60	2971.60
740.78	3026.90
740.96	2901.97
741.14	3121.10
741.32	3266.51
741.50	2951.12
741.68	3360.72
741.86	3485.64
742.04	3147.73
742.22	3006.42
742.40	3114.96
742.58	3426.25
742.76	3141.58
742.94	3272.65
743.12	2893.78
743.30	3198.93
743.48	3450.83
743.66	3006.42
743.84	3065.81
744.02	3239.89
744.20	3274.70
744.38	3002.32
744.56	3053.52
744.74	3530.70
744.92	3397.58
745.10	3307.47
745.28	3090.38
745.46	3583.95
745.64	3258.32
745.82	3184.59
746.00	3012.56
746.18	3393.48
746.36	3104.72
746.54	3141.58
746.72	3135.44
746.90	3035.09
747.08	3538.89
747.26	3114.96
747.44	3207.12
747.62	3399.63
747.80	3340.24
747.98	3276.75
748.15	3028.95
748.33	3581.90
748.51	3334.09
748.69	3131.34
748.87	3018.71
749.05	3284.94
749.23	3280.85
749.41	3145.68
749.59	3028.95
749.77	3405.77
749.95	3209.17
750.13	2998.23
750.31	3194.83
750.49	3248.08
750.67	3370.96
750.85	3178.45
751.03	3114.96
751.20	3585.99
751.38	3252.17
751.56	3127.25
751.74	3112.91
751.92	3182.54
752.10	3030.99
752.28	3262.41
752.46	3028.95
752.64	3241.93
752.82	3313.61
753.00	3125.20
753.18	3049.43
753.35	3256.27
753.53	3237.84
753.71	2957.27
753.89	3094.48
754.07	3297.23
754.25	3467.21
754.43	3133.39
754.61	2959.31
754.79	3368.91
754.97	3209.17
755.14	3248.08
755.32	2977.75
755.50	3327.95
755.68	3264.46
755.86	3010.51
756.04	3008.47
756.22	2889.68
756.40	3377.10
756.57	3282.89
756.75	3028.95
756.93	3532.75
757.11	3403.72
757.29	3002.32
757.47	2983.89
757.65	2914.26
757.82	2852.82
758.00	3008.47
758.18	3082.19
758.36	3080.14
758.54	3631.05
758.72	2926.55
758.90	3157.97
759.07	3373.00
759.25	3147.73
759.43	3121.10
759.61	2893.78
759.79	4454.33
759.97	3532.75
760.15	3151.82
760.32	3108.82
760.50	3344.33
760.68	3676.10
760.86	2897.88
761.04	3375.05
761.22	3413.96
761.39	3323.85
761.57	3205.07
761.75	3114.96
761.93	3477.45
762.11	3278.80
762.28	3084.24
762.46	2969.55
762.64	3557.32
762.82	2930.64
763.00	3104.72
763.18	3307.47
763.35	3000.27
763.53	3342.28
763.71	3184.59
763.89	2998.23
764.07	3209.17
764.24	3377.10
764.42	3217.36
764.60	3076.05
764.78	3465.16
764.96	3409.87
765.13	3274.70
765.31	2940.88
765.49	3399.63
765.67	3061.71
765.84	3037.14
766.02	3049.43
766.20	2998.23
766.38	3407.82
766.56	3219.41
766.73	3209.17
766.91	3291.09
767.09	3225.55
767.27	3180.50
767.44	2996.18
767.62	3405.77
767.80	3295.18
767.98	2994.13
768.15	3071.95
768.33	3469.26
768.51	3424.20
768.69	3231.69
768.87	3069.91
769.04	3268.56
769.22	3823.56
769.40	3225.55
769.58	3286.99
769.75	3352.52
769.93	3477.45
770.11	3110.86
770.28	3008.47
770.46	3395.53
770.64	3297.23
770.82	3043.28
770.99	2971.60
771.17	3403.72
771.35	3235.79
771.53	3114.96
771.70	3012.56
771.88	3370.96
772.06	3297.23
772.23	3012.56
772.41	3203.02
772.59	3209.17
772.77	3112.91
772.94	3176.40
773.12	3131.34
773.30	3155.92
773.47	3352.52
773.65	3012.56
773.83	3254.22
774.01	3286.99
774.18	2838.48
774.36	3153.87
774.54	2969.55
774.71	3307.47
774.89	2990.03
775.07	2934.74
775.24	3125.20
775.42	3133.39
775.60	3696.58
775.78	2975.70
775.95	2934.74
776.13	2965.46
776.31	2944.98
776.48	3256.27
776.66	3252.17
776.84	3172.30
777.01	3080.14
777.19	2893.78
777.37	2998.23
777.54	3393.48
777.72	3606.47
777.90	3131.34
778.07	3012.56
778.25	3885.00
778.43	3485.64
778.60	3065.81
778.78	3119.06
778.96	3491.79
779.13	3065.81
779.31	3114.96
779.49	3137.49
779.66	3252.17
779.84	3168.21
780.01	3014.61
780.19	3078.10
780.37	3538.89
780.54	3338.19
780.72	2912.21
780.90	3000.27
781.07	3200.98
781.25	3139.54
781.43	3256.27
781.60	3041.23
781.78	3428.30
781.95	3280.85
782.13	2969.55
782.31	2936.79
782.48	2944.98
782.66	3280.85
782.83	3350.48
783.01	3196.88
783.19	3483.59
783.36	3176.40
783.54	2936.79
783.72	3168.21
783.89	3213.26
784.07	3309.52
784.24	3227.60
784.42	3262.41
784.60	3266.51
784.77	3368.91
784.95	2838.48
785.12	3092.43
785.30	3317.71
785.47	3188.69
785.65	2961.36
785.83	3139.54
786.00	3155.92
786.18	3342.28
786.35	3047.38
786.53	2979.79
786.71	3438.54
786.88	3395.53
787.06	3192.78
787.23	3096.53
787.41	3076.05
787.58	3200.98
787.76	2969.55
787.94	3059.67
788.11	3405.77
788.29	3078.10
788.46	3078.10
788.64	2985.94
788.81	3256.27
788.99	3082.19
789.16	2969.55
789.34	3164.11
789.52	3121.10
789.69	3211.22
789.87	2881.49
790.04	2959.31
790.22	3311.57
790.39	3684.30
790.57	3000.27
790.74	2963.41
790.92	3471.31
791.09	2996.18
791.27	3143.63
791.44	3063.76
791.62	3207.12
791.79	3471.31
791.97	3215.31
792.15	3430.35
792.32	3422.16
792.50	3434.44
792.67	3203.02
792.85	3446.73
793.02	3315.66
793.20	3166.16
793.37	3008.47
793.55	2965.46
793.72	3074.00
793.90	3375.05
794.07	3037.14
794.25	3049.43
794.42	3282.89
794.60	3235.79
794.77	3174.35
794.95	3262.41
795.12	3430.35
795.30	3162.06
795.47	2850.77
795.65	3448.78
795.82	3319.76
796.00	3190.74
796.17	3219.41
796.34	2944.98
796.52	3254.22
796.69	3463.12
796.87	3205.07
797.04	3131.34
797.22	3493.83
797.39	3360.72
797.57	3223.50
797.74	3160.02
797.92	3379.15
798.09	3162.06
798.27	3342.28
798.44	3137.49
798.62	3104.72
798.79	3286.99
798.96	3225.55
799.14	3100.62
799.31	3755.97
799.49	3182.54
799.66	3043.28
799.84	3051.47
800.01	2985.94
800.19	3291.09
800.36	2836.44
800.53	3139.54
800.71	3278.80
800.88	3583.95
801.06	2983.89
801.23	3061.71
801.41	3172.30
801.58	3286.99
801.75	2992.08
801.93	3174.35
802.10	3327.95
802.28	3196.88
802.45	3147.73
802.63	3205.07
802.80	3555.27
802.97	3221.45
803.15	3143.63
803.32	3065.81
803.50	3153.87
803.67	3104.72
803.84	3026.90
804.02	3139.54
804.19	3256.27
804.37	2828.24
804.54	2834.39
804.71	3100.62
804.89	3205.07
805.06	3051.47
805.24	2987.99
805.41	2975.70
805.58	3129.30
805.76	3772.36
805.93	2975.70
806.10	3229.65
806.28	3409.87
806.45	3276.75
806.63	3162.06
806.80	3119.06
806.97	3311.57
807.15	3305.42
807.32	3176.40
807.49	3082.19
807.67	3096.53
807.84	3370.96
808.01	2865.11
808.19	3182.54
808.36	3657.67
808.54	3143.63
808.71	3039.19
808.88	3016.66
809.06	3510.22
809.23	3579.85
809.40	3155.92
809.58	3041.23
809.75	3291.09
809.92	3006.42
810.10	3364.81
810.27	3084.24
810.44	3321.81
810.62	3452.88
810.79	3125.20
810.96	3086.29
811.14	3123.15
811.31	3332.05
811.48	3241.93
811.66	3067.86
811.83	3485.64
812.00	3368.91
812.18	3151.82
812.35	3379.15
812.52	3239.89
812.69	3172.30
812.87	3018.71
813.04	3065.81
813.21	3176.40
813.39	3162.06
813.56	3020.75
813.73	3272.65
813.91	3035.09
814.08	3260.37
814.25	3090.38
814.42	2906.07
814.60	3282.89
814.77	3198.93
814.94	2967.51
815.12	3225.55
815.29	3622.86
815.46	3180.50
815.63	3151.82
815.81	3063.76
815.98	3151.82
816.15	3282.89
816.33	3258.32
816.50	3098.58
816.67	3198.93
816.84	3276.75
817.02	3008.47
817.19	3061.71
817.36	3348.43
817.53	3379.15
817.71	3022.80
817.88	3100.62
818.05	3266.51
818.22	3129.30
818.40	3243.98
818.57	3057.62
818.74	3379.15
818.91	3260.37
819.09	3235.79
819.26	3211.22
819.43	3188.69
819.60	3090.38
819.78	3221.45
819.95	3168.21
820.12	3090.38
820.29	3524.55
820.47	3274.70
820.64	3008.47
820.81	2983.89
820.98	3088.34
821.15	3069.91
821.33	3184.59
821.50	2994.13
821.67	3370.96
821.84	3047.38
822.02	3055.57
822.19	3502.03
822.36	3200.98
822.53	2940.88
822.70	2981.84
822.88	3164.11
823.05	3561.42
823.22	3096.53
823.39	3102.67
823.56	3305.42
823.74	3659.72
823.91	2944.98
824.08	2990.03
824.25	3045.33
824.42	3567.56
824.60	2926.55
824.77	3188.69
824.94	3221.45
825.11	3428.30
825.28	2906.07
825.45	3235.79
825.63	3256.27
825.80	3002.32
825.97	3205.07
826.14	3157.97
826.31	2936.79
826.48	3375.05
826.66	3063.76
826.83	2998.23
827.00	3209.17
827.17	3076.05
827.34	3127.25
827.51	3043.28
827.69	3274.70
827.86	2983.89
828.03	3110.86
828.20	3121.10
828.37	3133.39
828.54	3352.52
828.71	3014.61
828.89	3186.64
829.06	3338.19
829.23	3495.88
829.40	3057.62
829.57	3065.81
829.74	3368.91
829.91	3094.48
830.09	3022.80
830.26	3235.79
830.43	3622.86
830.60	3221.45
830.77	3225.55
830.94	3241.93
831.11	3434.44
831.28	3151.82
831.46	3229.65
831.63	3065.81
831.80	3416.01
831.97	3149.78
832.14	3086.29
832.31	3094.48
832.48	3297.23
832.65	3459.02
832.82	3254.22
832.99	3166.16
833.17	3024.85
833.34	3602.38
833.51	3092.43
833.68	2828.24
833.85	3469.26
834.02	2983.89
834.19	2987.99
834.36	3014.61
834.53	3303.37
834.70	3524.55
834.87	3006.42
835.04	2795.48
835.22	3067.86
835.39	3074.00
835.56	2877.40
835.73	2944.98
835.90	3508.17
836.07	3100.62
836.24	3082.19
836.41	2977.75
836.58	3166.16
836.75	3442.64
836.92	2947.03
837.09	2930.64
837.26	3368.91
837.43	3280.85
837.60	3018.71
837.77	2889.68
837.94	3373.00
838.12	3528.65
838.29	2850.77
838.46	2922.45
838.63	3043.28
838.80	3557.32
838.97	2922.45
839.14	2901.97
839.31	3237.84
839.48	3395.53
839.65	2914.26
839.82	2961.36
839.99	3299.28
840.16	3246.03
840.33	2795.48
840.50	2985.94
840.67	3139.54
840.84	2838.48
841.01	2752.47
841.18	2813.91
841.35	3250.13
841.52	3430.35
841.69	3289.04
841.86	2914.26
842.03	3239.89
842.20	3487.69
842.37	2916.31
842.54	2967.51
842.71	3248.08
842.88	3039.19
843.05	2975.70
843.22	2942.93
843.39	3373.00
843.56	3151.82
843.73	2818.00
843.90	2959.31
844.07	3280.85
844.24	3387.34
844.41	2938.84
844.58	2944.98
844.75	3200.98
844.92	3340.24
845.09	3012.56
845.26	2889.68
845.43	3436.49
845.60	3207.12
845.77	3078.10
845.94	2977.75
846.10	3422.16
846.27	2959.31
846.44	2838.48
846.61	2877.40
846.78	3409.87
846.95	3370.96
847.12	2887.64
847.29	2930.64
847.46	3184.59
847.63	3391.44
847.80	2826.20
847.97	2955.22
848.14	3655.62
848.31	3235.79
848.48	2783.19
848.65	2953.17
848.82	3127.25
848.98	3764.17
849.15	3067.86
849.32	3061.71
849.49	3459.02
849.66	3209.17
849.83	2940.88
850.00	2920.40
850.17	3418.06
850.34	3143.63
850.51	2815.96
850.68	2877.40
850.85	3692.49
851.01	3235.79
851.18	2861.01
851.35	2877.40
851.52	3364.81
851.69	3557.32
851.86	2875.35
852.03	2934.74
852.20	3411.92
852.37	3385.29
852.53	2772.95
852.70	2834.39
852.87	3280.85
853.04	3403.72
853.21	2938.84
853.38	3190.74
853.55	3534.79
853.72	3542.99
853.89	2807.77
854.05	2791.38
854.22	3237.84
854.39	3121.10
854.56	2844.63
854.73	2992.08
854.90	3071.95
855.07	3295.18
855.23	2811.86
855.40	2873.30
855.57	3147.73
855.74	2869.20
855.91	3053.52
856.08	2746.33
856.25	2975.70
856.41	3149.78
856.58	2893.78
856.75	2881.49
856.92	3053.52
857.09	3434.44
857.26	2705.37
857.42	2992.08
857.59	3362.76
857.76	3223.50
857.93	2897.88
858.10	2969.55
858.27	3065.81
858.43	3256.27
858.60	2942.93
858.77	2861.01
858.94	3102.67
859.11	3438.54
859.27	3037.14
859.44	2766.81
859.61	3590.09
859.78	3375.05
859.95	2881.49
860.12	2906.07
860.28	3813.32
860.45	3557.32
860.62	2871.25
860.79	3043.28
860.95	3123.15
861.12	3117.01
861.29	2846.68
861.46	2820.05
861.63	3188.69
861.79	3305.42
861.96	2762.71
862.13	2947.03
862.30	3540.94
862.47	3147.73
862.63	2801.62
862.80	3069.91
862.97	3450.83
863.14	3387.34
863.30	2975.70
863.47	2756.57
863.64	3608.52
863.81	3327.95
863.97	2754.52
864.14	2899.92
864.31	3215.31
864.48	3231.69
864.65	2920.40
864.81	3016.66
864.98	3379.15
865.15	3368.91
865.32	2891.73
865.48	3039.19
865.65	3581.90
865.82	3080.14
865.98	3037.14
866.15	2908.12
866.32	3211.22
866.49	3096.53
866.65	3057.62
866.82	3028.95
866.99	3246.03
867.16	3147.73
867.32	2897.88
867.49	2848.72
867.66	3225.55
867.83	3147.73
867.99	2818.00
868.16	2947.03
868.33	2985.94
868.49	3190.74
868.66	2856.92
868.83	3078.10
868.99	3315.66
869.16	3182.54
869.33	3135.44
869.50	3041.23
869.66	3282.89
869.83	3321.81
870.00	2824.15
870.16	3069.91
870.33	3250.13
870.50	3420.11
870.66	2971.60
870.83	2920.40
871.00	3198.93
871.17	3377.10
871.33	2908.12
871.50	2887.64
871.67	3219.41
871.83	3190.74
872.00	2924.50
872.17	2914.26
872.33	3649.48
872.50	3487.69
872.67	2961.36
872.83	2897.88
873.00	3346.38
873.17	3231.69
873.33	2930.64
873.50	3024.85
873.67	3086.29
873.83	3065.81
874.00	2922.45
874.16	3172.30
874.33	3278.80
874.50	2998.23
874.66	2842.58
874.83	3037.14
875.00	3469.26
875.16	3426.25
875.33	2996.18
875.50	2664.41
875.66	3180.50
875.83	3311.57
875.99	2998.23
876.16	3008.47
876.33	3162.06
876.49	3207.12
876.66	2901.97
876.83	2944.98
876.99	2969.55
877.16	3225.55
877.32	2846.68
877.49	2963.41
877.66	3344.33
877.82	3452.88
877.99	2979.79
878.15	3172.30
878.32	3360.72
878.49	3305.42
878.65	2961.36
878.82	3219.41
878.98	3098.58
879.15	3459.02
879.32	3059.67
879.48	3100.62
879.65	3174.35
879.81	3196.88
879.98	2953.17
880.15	2990.03
880.31	3352.52
880.48	3108.82
880.64	3033.04
880.81	3057.62
880.97	3555.27
881.14	3493.83
881.31	2934.74
881.47	3026.90
881.64	3155.92
881.80	2926.55
881.97	3080.14
882.13	2887.64
882.30	3055.57
882.47	3078.10
882.63	3000.27
882.80	2944.98
882.96	3211.22
883.13	3430.35
883.29	2881.49
883.46	2856.92
883.62	3655.62
883.79	3313.61
883.95	3106.77
884.12	2910.16
884.29	3422.16
884.45	3274.70
884.62	2959.31
884.78	2842.58
884.95	3575.75
885.11	3063.76
885.28	3035.09
885.44	2955.22
885.61	3450.83
885.77	3510.22
885.94	3002.32
886.10	2987.99
886.27	3315.66
886.43	3561.42
886.60	3102.67
886.76	2961.36
886.93	3094.48
887.09	3248.08
887.26	2815.96
887.42	2994.13
887.59	3409.87
887.75	3696.58
887.92	3180.50
888.08	2975.70
888.25	3717.06
888.41	3459.02
888.58	3012.56
888.74	2852.82
888.91	3131.34
>>>>>End Processed Spectral Data<<<<<
