SpectraSuite Data File
++++++++++++++++++++++++++++++++++++
Date: Fri May 06 08:14:37 CEST 2016
User: root
Dark Spectrum Present: No
Reference Spectrum Present: No
Number of Sampled Component Spectra: 1
Spectrometers: USB4C02835
Integration Time (usec): 100000 (USB4C02835)
Spectra Averaged: 1 (USB4C02835)
Boxcar Smoothing: 0 (USB4C02835)
Correct for Electrical Dark: No (USB4C02835)
Strobe/Lamp Enabled: No (USB4C02835)
Correct for Detector Non-linearity: No (USB4C02835)
Correct for Stray Light: No (USB4C02835)
Number of Pixels in Processed Spectrum: 3648
>>>>>Begin Processed Spectral Data<<<<<
177.47	2271.20
177.69	2271.20
177.91	2271.20
178.13	2240.48
178.36	2285.53
178.58	3024.85
178.80	3106.77
179.02	2979.79
179.24	3059.67
179.46	2799.57
179.68	2807.77
179.90	3243.98
180.13	3231.69
180.35	2656.22
180.57	2772.95
180.79	3487.69
181.01	3227.60
181.23	2922.45
181.45	3039.19
181.67	3446.73
181.90	3465.16
182.12	2881.49
182.34	2645.98
182.56	3430.35
182.78	3467.21
183.00	2764.76
183.22	2871.25
183.44	2891.73
183.66	3860.42
183.89	2930.64
184.11	2850.77
184.33	3366.86
184.55	3530.70
184.77	2828.24
184.99	2861.01
185.21	3203.02
185.43	3819.46
185.65	2869.20
185.87	2832.34
186.10	3737.54
186.32	3794.89
186.54	3010.51
186.76	2953.17
186.98	3491.79
187.20	3221.45
187.42	2942.93
187.64	2760.66
187.86	3319.76
188.08	3483.59
188.30	2772.95
188.52	2906.07
188.75	3555.27
188.97	3528.65
189.19	2912.21
189.41	2754.52
189.63	3366.86
189.85	3196.88
190.07	2721.75
190.29	2713.56
190.51	3325.90
190.73	3028.95
190.95	3078.10
191.17	2938.84
191.39	3010.51
191.61	3225.55
191.84	2897.88
192.06	3069.91
192.28	2938.84
192.50	3831.75
192.72	3084.24
192.94	2906.07
193.16	3510.22
193.38	3293.13
193.60	2830.29
193.82	3028.95
194.04	3428.30
194.26	3411.92
194.48	2977.75
194.70	2844.63
194.92	3160.02
195.14	3442.64
195.36	2865.11
195.58	2994.13
195.80	3221.45
196.02	3123.15
196.24	2824.15
196.46	2924.50
196.69	3151.82
196.91	3862.47
197.13	2871.25
197.35	2924.50
197.57	3712.97
197.79	3397.58
198.01	2918.36
198.23	2887.64
198.45	3315.66
198.67	3047.38
198.89	2666.46
199.11	2981.84
199.33	3065.81
199.55	2953.17
199.77	2815.96
199.99	3020.75
200.21	3155.92
200.43	3397.58
200.65	2731.99
200.87	2772.95
201.09	3340.24
201.31	3174.35
201.53	2897.88
201.75	2955.22
201.97	3360.72
202.19	3207.12
202.41	2897.88
202.63	3012.56
202.85	3354.57
203.07	3377.10
203.29	2936.79
203.51	2750.42
203.73	3192.78
203.95	3807.17
204.17	2889.68
204.39	3069.91
204.61	3317.71
204.83	3172.30
205.05	3039.19
205.27	2899.92
205.49	3782.60
205.71	3229.65
205.93	2721.75
206.15	2795.48
206.37	3383.24
206.59	3252.17
206.81	2752.47
207.03	2725.85
207.25	3123.15
207.47	3403.72
207.69	2908.12
207.91	3043.28
208.13	3585.99
208.34	3096.53
208.56	2813.91
208.78	2930.64
209.00	3235.79
209.22	3164.11
209.44	2863.06
209.66	2822.10
209.88	3309.52
210.10	3219.41
210.32	2861.01
210.54	3055.57
210.76	3184.59
210.98	3561.42
211.20	2766.81
211.42	2955.22
211.64	3432.40
211.86	3358.67
212.08	2961.36
212.30	2867.16
212.52	3260.37
212.74	3379.15
212.96	2918.36
213.17	2949.08
213.39	3483.59
213.61	3684.30
213.83	2762.71
214.05	2738.13
214.27	3499.98
214.49	3071.95
214.71	2895.83
214.93	2957.27
215.15	3383.24
215.37	3485.64
215.59	2725.85
215.81	2930.64
216.03	3499.98
216.24	3280.85
216.46	2895.83
216.68	2922.45
216.90	3481.55
217.12	3454.92
217.34	2852.82
217.56	3043.28
217.78	3545.03
218.00	3418.06
218.22	2961.36
218.44	2998.23
218.66	3301.33
218.87	3655.62
219.09	2908.12
219.31	2805.72
219.53	3356.62
219.75	3160.02
219.97	2881.49
220.19	2897.88
220.41	3215.31
220.63	3678.15
220.85	2877.40
221.06	2813.91
221.28	3571.66
221.50	3465.16
221.72	2877.40
221.94	2715.61
222.16	3254.22
222.38	3471.31
222.60	2789.33
222.82	2926.55
223.03	3442.64
223.25	3035.09
223.47	2861.01
223.69	3180.50
223.91	3395.53
224.13	3295.18
224.35	2748.37
224.57	3080.14
224.78	3284.94
225.00	3102.67
225.22	2889.68
225.44	2815.96
225.66	3375.05
225.88	3258.32
226.10	2987.99
226.32	2944.98
226.53	3549.13
226.75	3200.98
226.97	2908.12
227.19	2871.25
227.41	3082.19
227.63	3172.30
227.85	2746.33
228.06	2953.17
228.28	3336.14
228.50	3381.20
228.72	2693.08
228.94	2820.05
229.16	2998.23
229.37	3051.47
229.59	2799.57
229.81	3106.77
230.03	3237.84
230.25	3057.62
230.47	2772.95
230.69	2869.20
230.90	3526.60
231.12	3110.86
231.34	2926.55
231.56	2944.98
231.78	3114.96
232.00	3297.23
232.21	2914.26
232.43	2918.36
232.65	2852.82
232.87	3387.34
233.09	2772.95
233.30	2789.33
233.52	3502.03
233.74	3151.82
233.96	2777.05
234.18	3047.38
234.40	3274.70
234.61	3805.13
234.83	2746.33
235.05	2832.34
235.27	3823.56
235.49	3491.79
235.70	2717.65
235.92	2830.29
236.14	3379.15
236.36	3782.60
236.58	2719.70
236.79	2990.03
237.01	3276.75
237.23	3252.17
237.45	3117.01
237.67	2953.17
237.88	3272.65
238.10	3647.43
238.32	2744.28
238.54	2830.29
238.76	3147.73
238.97	3098.58
239.19	2797.53
239.41	2901.97
239.63	3522.51
239.85	3121.10
240.06	2844.63
240.28	2844.63
240.50	3497.93
240.72	3248.08
240.93	2828.24
241.15	2965.46
241.37	3280.85
241.59	3567.56
241.81	2834.39
242.02	2908.12
242.24	3307.47
242.46	3471.31
242.68	2678.74
242.89	2830.29
243.11	3440.59
243.33	3319.76
243.55	2856.92
243.76	2889.68
243.98	3098.58
244.20	3237.84
244.42	2930.64
244.64	2824.15
244.85	3020.75
245.07	3160.02
245.29	2852.82
245.51	2893.78
245.72	3340.24
245.94	3446.73
246.16	2760.66
246.38	2955.22
246.59	3129.30
246.81	3106.77
247.03	2861.01
247.24	2768.85
247.46	3250.13
247.68	3334.09
247.90	2809.81
248.11	2861.01
248.33	3450.83
248.55	3305.42
248.77	2840.53
248.98	2983.89
249.20	3622.86
249.42	3315.66
249.64	2897.88
249.85	2838.48
250.07	3192.78
250.29	3409.87
250.50	2926.55
250.72	2752.47
250.94	3356.62
251.16	3753.93
251.37	2822.10
251.59	2942.93
251.81	3373.00
252.02	3669.96
252.24	2850.77
252.46	3039.19
252.68	3119.06
252.89	3172.30
253.11	2697.17
253.33	3041.23
253.54	3626.95
253.76	3112.91
253.98	2848.72
254.20	2957.27
254.41	3037.14
254.63	3149.78
254.85	2807.77
255.06	2994.13
255.28	3358.67
255.50	3178.45
255.71	2904.02
255.93	2744.28
256.15	3121.10
256.36	3442.64
256.58	2738.13
256.80	2854.87
257.02	3282.89
257.23	3219.41
257.45	2942.93
257.67	2992.08
257.88	3213.26
258.10	3387.34
258.32	2953.17
258.53	2922.45
258.75	3559.37
258.97	3123.15
259.18	2742.23
259.40	2754.52
259.62	3694.54
259.83	3594.19
260.05	2922.45
260.27	3735.50
260.48	3542.99
260.70	3047.38
260.92	2815.96
261.13	2926.55
261.35	3344.33
261.57	3377.10
261.78	2766.81
262.00	2801.62
262.22	3377.10
262.43	3133.39
262.65	2918.36
262.86	2861.01
263.08	3790.79
263.30	3299.28
263.51	2750.42
263.73	2869.20
263.95	3616.71
264.16	3098.58
264.38	2713.56
264.60	2748.37
264.81	3237.84
265.03	3483.59
265.25	3327.95
265.46	2775.00
265.68	3465.16
265.89	3481.55
266.11	2725.85
266.33	2822.10
266.54	3495.88
266.76	3332.05
266.98	2926.55
267.19	3090.38
267.41	3495.88
267.62	3280.85
267.84	2717.65
268.06	2922.45
268.27	3368.91
268.49	3477.45
268.70	2942.93
268.92	2994.13
269.14	3043.28
269.35	3131.34
269.57	2928.60
269.79	2914.26
270.00	3086.29
270.22	3528.65
270.43	2787.29
270.65	2705.37
270.87	3237.84
271.08	3459.02
271.30	2897.88
271.51	2895.83
271.73	3391.44
271.95	3647.43
272.16	2787.29
272.38	2955.22
272.59	3272.65
272.81	3336.14
273.02	2836.44
273.24	2944.98
273.46	3585.99
273.67	3041.23
273.89	2691.03
274.10	2869.20
274.32	3467.21
274.54	3278.80
274.75	2969.55
274.97	2985.94
275.18	3475.40
275.40	3350.48
275.61	2883.54
275.83	2975.70
276.05	3008.47
276.26	3221.45
276.48	2938.84
276.69	3002.32
276.91	3205.07
277.12	3684.30
277.34	3051.47
277.55	3162.06
277.77	3282.89
277.99	3301.33
278.20	3006.42
278.42	2971.60
278.63	3164.11
278.85	3100.62
279.06	2922.45
279.28	3143.63
279.49	3456.97
279.71	3428.30
279.93	3057.62
280.14	3037.14
280.36	3110.86
280.57	3532.75
280.79	3086.29
281.00	2920.40
281.22	3127.25
281.43	3465.16
281.65	2811.86
281.86	2889.68
282.08	3409.87
282.29	3655.62
282.51	2830.29
282.73	2906.07
282.94	2926.55
283.16	3399.63
283.37	3131.34
283.59	2953.17
283.80	3350.48
284.02	3284.94
284.23	3018.71
284.45	3110.86
284.66	3129.30
284.88	3170.26
285.09	2879.44
285.31	3106.77
285.52	3352.52
285.74	2967.51
285.95	3108.82
286.17	3041.23
286.38	3506.12
286.60	3180.50
286.81	2914.26
287.03	3008.47
287.24	3239.89
287.46	3323.85
287.67	3108.82
287.89	3229.65
288.10	3258.32
288.32	3344.33
288.53	3139.54
288.75	3065.81
288.96	3409.87
289.18	3096.53
289.39	2930.64
289.61	3102.67
289.82	3686.34
290.04	3682.25
290.25	2922.45
290.47	3028.95
290.68	3268.56
290.90	3428.30
291.11	2787.29
291.33	3170.26
291.54	3110.86
291.76	3221.45
291.97	3147.73
292.18	3110.86
292.40	3155.92
292.61	3084.24
292.83	3280.85
293.04	3039.19
293.26	3332.05
293.47	3272.65
293.69	2971.60
293.90	2852.82
294.12	3530.70
294.33	3229.65
294.55	3078.10
294.76	3168.21
294.97	3616.71
295.19	3682.25
295.40	2975.70
295.62	3100.62
295.83	3463.12
296.05	3196.88
296.26	3278.80
296.48	3004.37
296.69	3254.22
296.90	3254.22
297.12	3131.34
297.33	3076.05
297.55	3266.51
297.76	3309.52
297.98	3055.57
298.19	3098.58
298.41	3319.76
298.62	3198.93
298.83	3139.54
299.05	3076.05
299.26	3184.59
299.48	3092.43
299.69	3061.71
299.90	2983.89
300.12	3112.91
300.33	3483.59
300.55	3057.62
300.76	3061.71
300.98	2961.36
301.19	3405.77
301.40	3057.62
301.62	2967.51
301.83	3319.76
302.05	3311.57
302.26	2938.84
302.47	3051.47
302.69	3024.85
302.90	3307.47
303.12	2791.38
303.33	3074.00
303.54	3702.73
303.76	3180.50
303.97	2912.21
304.19	3147.73
304.40	3112.91
304.61	3362.76
304.83	3135.44
305.04	3180.50
305.26	3430.35
305.47	3108.82
305.68	3008.47
305.90	2852.82
306.11	3534.79
306.33	3219.41
306.54	2873.30
306.75	3033.04
306.97	3018.71
307.18	3133.39
307.39	2994.13
307.61	3059.67
307.82	3229.65
308.04	3360.72
308.25	2777.05
308.46	3139.54
308.68	3276.75
308.89	3231.69
309.10	3106.77
309.32	3020.75
309.53	3190.74
309.74	3405.77
309.96	2928.60
310.17	3157.97
310.39	3217.36
310.60	3346.38
310.81	3022.80
311.03	2992.08
311.24	3370.96
311.45	3241.93
311.67	3315.66
311.88	3114.96
312.09	3133.39
312.31	3194.83
312.52	2891.73
312.73	2930.64
312.95	3069.91
313.16	3098.58
313.37	3198.93
313.59	3157.97
313.80	3401.68
314.01	3594.19
314.23	2996.18
314.44	2865.11
314.65	2987.99
314.87	3213.26
315.08	2983.89
315.29	2961.36
315.51	3121.10
315.72	3002.32
315.93	3016.66
316.15	3041.23
316.36	3147.73
316.57	3305.42
316.79	2951.12
317.00	3002.32
317.21	3442.64
317.43	3063.76
317.64	3039.19
317.85	2951.12
318.07	3049.43
318.28	3141.58
318.49	3102.67
318.70	3231.69
318.92	3336.14
319.13	3352.52
319.34	3088.34
319.56	3069.91
319.77	3385.29
319.98	3391.44
320.20	3293.13
320.41	3080.14
320.62	3379.15
320.83	3137.49
321.05	3254.22
321.26	3059.67
321.47	3307.47
321.69	3473.36
321.90	2881.49
322.11	2936.79
322.32	3346.38
322.54	3518.41
322.75	3100.62
322.96	4042.69
323.18	3055.57
323.39	2910.16
323.60	2869.20
323.81	3037.14
324.03	3084.24
324.24	3270.61
324.45	3133.39
324.66	2918.36
324.88	3526.60
325.09	3688.39
325.30	3033.04
325.52	2881.49
325.73	3346.38
325.94	3008.47
326.15	2924.50
326.37	2869.20
326.58	3504.07
326.79	3631.05
327.00	2985.94
327.22	2959.31
327.43	3186.64
327.64	3043.28
327.85	3106.77
328.07	3121.10
328.28	3622.86
328.49	3168.21
328.70	2985.94
328.92	3047.38
329.13	3278.80
329.34	3354.57
329.55	3223.50
329.76	3143.63
329.98	3237.84
330.19	3532.75
330.40	3055.57
330.61	3092.43
330.83	3473.36
331.04	3229.65
331.25	3065.81
331.46	3033.04
331.68	3057.62
331.89	3452.88
332.10	3012.56
332.31	2901.97
332.52	3203.02
332.74	3532.75
332.95	2809.81
333.16	2930.64
333.37	3430.35
333.58	3151.82
333.80	3008.47
334.01	2815.96
334.22	3225.55
334.43	3137.49
334.64	2957.27
334.86	2983.89
335.07	3063.76
335.28	3573.71
335.49	2844.63
335.70	2992.08
335.92	3493.83
336.13	3651.53
336.34	3088.34
336.55	2975.70
336.76	3342.28
336.98	2873.30
337.19	3057.62
337.40	3143.63
337.61	3885.00
337.82	3203.02
338.04	3051.47
338.25	2844.63
338.46	3219.41
338.67	3231.69
338.88	2940.88
339.09	2920.40
339.31	3200.98
339.52	3018.71
339.73	2887.64
339.94	3090.38
340.15	3399.63
340.36	3149.78
340.58	3024.85
340.79	2934.74
341.00	3424.20
341.21	3024.85
341.42	3215.31
341.63	3037.14
341.85	3469.26
342.06	3307.47
342.27	2938.84
342.48	3055.57
342.69	3018.71
342.90	3395.53
343.12	3317.71
343.33	2947.03
343.54	3504.07
343.75	3629.00
343.96	3137.49
344.17	2934.74
344.38	3227.60
344.60	3123.15
344.81	2930.64
345.02	3055.57
345.23	3452.88
345.44	3850.18
345.65	3069.91
345.86	3074.00
346.07	3336.14
346.29	3151.82
346.50	3117.01
346.71	3112.91
346.92	3542.99
347.13	3747.78
347.34	3061.71
347.55	2871.25
347.76	3416.01
347.98	2983.89
348.19	3059.67
348.40	3145.68
348.61	3172.30
348.82	3530.70
349.03	3112.91
349.24	2996.18
349.45	3735.50
349.66	2885.59
349.88	2979.79
350.09	2901.97
350.30	3669.96
350.51	3549.13
350.72	3200.98
350.93	3043.28
351.14	3207.12
351.35	3364.81
351.56	3022.80
351.77	3008.47
351.99	3356.62
352.20	3524.55
352.41	3051.47
352.62	2818.00
352.83	3334.09
353.04	3311.57
353.25	3078.10
353.46	3110.86
353.67	3534.79
353.88	2877.40
354.09	2883.54
354.30	3014.61
354.52	3381.20
354.73	3342.28
354.94	2969.55
355.15	3002.32
355.36	3743.69
355.57	3178.45
355.78	2940.88
355.99	2934.74
356.20	3284.94
356.41	3508.17
356.62	3092.43
356.83	3035.09
357.04	3569.61
357.25	3008.47
357.46	3012.56
357.68	2947.03
357.89	3090.38
358.10	3270.61
358.31	2912.21
358.52	2992.08
358.73	3082.19
358.94	2971.60
359.15	2969.55
359.36	3008.47
359.57	3301.33
359.78	3182.54
359.99	3108.82
360.20	2936.79
360.41	3276.75
360.62	3401.68
360.83	3084.24
361.04	3059.67
361.25	3317.71
361.46	3557.32
361.67	3121.10
361.88	2996.18
362.09	3495.88
362.30	3356.62
362.51	2881.49
362.72	3094.48
362.93	3459.02
363.14	3313.61
363.35	3123.15
363.56	2867.16
363.78	3555.27
363.99	3516.36
364.20	2926.55
364.41	3139.54
364.62	3606.47
364.83	3254.22
365.04	2977.75
365.25	3053.52
365.46	3764.17
365.67	3129.30
365.88	3082.19
366.09	2959.31
366.30	3235.79
366.51	3254.22
366.72	2922.45
366.93	2971.60
367.14	3278.80
367.35	3532.75
367.56	3033.04
367.77	3141.58
367.98	3254.22
368.18	3381.20
368.39	3137.49
368.60	2934.74
368.81	3481.55
369.02	3291.09
369.23	3063.76
369.44	2791.38
369.65	3229.65
369.86	3375.05
370.07	3133.39
370.28	2867.16
370.49	3397.58
370.70	3248.08
370.91	2912.21
371.12	2930.64
371.33	3434.44
371.54	3170.26
371.75	3135.44
371.96	2719.70
372.17	3276.75
372.38	3200.98
372.59	3030.99
372.80	2985.94
373.01	3268.56
373.22	3264.46
373.43	3028.95
373.64	2944.98
373.85	3454.92
374.06	3534.79
374.26	3188.69
374.47	3237.84
374.68	3557.32
374.89	3301.33
375.10	2944.98
375.31	3053.52
375.52	3291.09
375.73	3340.24
375.94	2818.00
376.15	3043.28
376.36	3076.05
376.57	3170.26
376.78	3033.04
376.99	3028.95
377.20	3590.09
377.40	3182.54
377.61	3223.50
377.82	2985.94
378.03	3510.22
378.24	3434.44
378.45	3121.10
378.66	3063.76
378.87	3026.90
379.08	3041.23
379.29	3026.90
379.50	3149.78
379.71	3295.18
379.91	3450.83
380.12	2975.70
380.33	3106.77
380.54	3276.75
380.75	3200.98
380.96	3037.14
381.17	2998.23
381.38	3196.88
381.59	3377.10
381.80	3022.80
382.00	3196.88
382.21	3270.61
382.42	3616.71
382.63	3381.20
382.84	3129.30
383.05	3506.12
383.26	3612.62
383.47	3098.58
383.68	2901.97
383.88	3422.16
384.09	3321.81
384.30	3209.17
384.51	3117.01
384.72	3243.98
384.93	3043.28
385.14	3119.06
385.35	3280.85
385.55	2934.74
385.76	3549.13
385.97	3047.38
386.18	2844.63
386.39	3166.16
386.60	3166.16
386.81	2990.03
387.02	2930.64
387.22	3057.62
387.43	3448.78
387.64	3037.14
387.85	3278.80
388.06	3338.19
388.27	4306.88
388.48	7643.02
388.68	11884.36
388.89	15187.74
389.10	16230.15
389.31	15920.91
389.52	13102.90
389.73	11220.82
389.93	10266.47
390.14	9166.71
390.35	8527.74
390.56	7911.30
390.77	6649.75
390.98	4997.04
391.18	4173.76
391.39	3934.15
391.60	3338.19
391.81	3266.51
392.02	3037.14
392.23	3696.58
392.43	3340.24
392.64	3203.02
392.85	3065.81
393.06	3637.19
393.27	3211.22
393.47	3057.62
393.68	3090.38
393.89	3248.08
394.10	3467.21
394.31	2983.89
394.52	2996.18
394.72	3110.86
394.93	3622.86
395.14	2865.11
395.35	3133.39
395.56	3121.10
395.76	3221.45
395.97	3026.90
396.18	3186.64
396.39	3293.13
396.60	3880.90
396.80	3438.54
397.01	3270.61
397.22	3450.83
397.43	3565.51
397.64	3049.43
397.84	3139.54
398.05	3684.30
398.26	3246.03
398.47	3114.96
398.67	3213.26
398.88	3274.70
399.09	3465.16
399.30	3024.85
399.51	3108.82
399.71	3145.68
399.92	3112.91
400.13	3125.20
400.34	3037.14
400.54	3254.22
400.75	3608.52
400.96	3196.88
401.17	3370.96
401.37	3420.11
401.58	3266.51
401.79	3035.09
402.00	3076.05
402.21	3805.13
402.41	3418.06
402.62	3422.16
402.83	3551.18
403.04	3782.60
403.24	4126.66
403.45	3231.69
403.66	3356.62
403.87	3577.80
404.07	3631.05
404.28	3321.81
404.49	3352.52
404.70	3385.29
404.90	3377.10
405.11	3080.14
405.32	3084.24
405.52	3205.07
405.73	3219.41
405.94	2914.26
406.15	3082.19
406.35	3456.97
406.56	3348.43
406.77	2992.08
406.98	3026.90
407.18	3119.06
407.39	3590.09
407.60	3086.29
407.80	3094.48
408.01	3160.02
408.22	3342.28
408.43	2971.60
408.63	3160.02
408.84	3373.00
409.05	3432.40
409.25	2967.51
409.46	3039.19
409.67	3295.18
409.88	3155.92
410.08	3049.43
410.29	3028.95
410.50	3416.01
410.70	3325.90
410.91	3000.27
411.12	3049.43
411.32	3286.99
411.53	3127.25
411.74	3071.95
411.95	3200.98
412.15	3313.61
412.36	3426.25
412.57	3192.78
412.77	3223.50
412.98	3200.98
413.19	3180.50
413.39	3174.35
413.60	3104.72
413.81	3565.51
414.01	3055.57
414.22	3123.15
414.43	3225.55
414.63	3286.99
414.84	3479.50
415.05	3106.77
415.25	2883.54
415.46	3413.96
415.67	3211.22
415.87	3135.44
416.08	3026.90
416.29	3168.21
416.49	3385.29
416.70	3141.58
416.91	3074.00
417.11	3223.50
417.32	3491.79
417.53	3233.74
417.73	3053.52
417.94	3256.27
418.15	3319.76
418.35	3117.01
418.56	3131.34
418.77	3803.08
418.97	3205.07
419.18	3069.91
419.38	2762.71
419.59	3319.76
419.80	3618.76
420.00	2961.36
420.21	3026.90
420.42	3545.03
420.62	3317.71
420.83	3090.38
421.04	2983.89
421.24	3332.05
421.45	3467.21
421.65	3030.99
421.86	3102.67
422.07	3452.88
422.27	3321.81
422.48	2934.74
422.69	2801.62
422.89	3342.28
423.10	3319.76
423.30	2951.12
423.51	3051.47
423.72	3383.24
423.92	3432.40
424.13	2895.83
424.33	3155.92
424.54	3424.20
424.75	3272.65
424.95	3276.75
425.16	2996.18
425.36	3295.18
425.57	3432.40
425.78	3164.11
425.98	3106.77
426.19	3229.65
426.39	3164.11
426.60	3084.24
426.81	3147.73
427.01	3286.99
427.22	3084.24
427.42	2938.84
427.63	2967.51
427.83	3456.97
428.04	3637.19
428.25	3151.82
428.45	3084.24
428.66	3504.07
428.86	3200.98
429.07	3149.78
429.28	3123.15
429.48	3315.66
429.69	3098.58
429.89	3178.45
430.10	2904.02
430.30	3330.00
430.51	3442.64
430.71	2940.88
430.92	3096.53
431.13	3125.20
431.33	3383.24
431.54	3098.58
431.74	3250.13
431.95	3692.49
432.15	3129.30
432.36	3004.37
432.56	3157.97
432.77	3700.68
432.98	3643.34
433.18	3110.86
433.39	2895.83
433.59	3346.38
433.80	3696.58
434.00	3239.89
434.21	2973.65
434.41	3164.11
434.62	3604.42
434.82	2959.31
435.03	2936.79
435.23	3356.62
435.44	2906.07
435.64	2983.89
435.85	3045.33
436.06	3475.40
436.26	3479.50
436.47	3024.85
436.67	3006.42
436.88	3184.59
437.08	3506.12
437.29	3114.96
437.49	3147.73
437.70	3567.56
437.90	3256.27
438.11	3276.75
438.31	3164.11
438.52	3573.71
438.72	3520.46
438.93	3393.48
439.13	3221.45
439.34	3442.64
439.54	3137.49
439.75	3286.99
439.95	3094.48
440.16	3151.82
440.36	3248.08
440.57	3082.19
440.77	3028.95
440.98	3291.09
441.18	3344.33
441.39	2932.69
441.59	2973.65
441.80	3729.35
442.00	3272.65
442.21	3190.74
442.41	2858.96
442.62	3471.31
442.82	3221.45
443.02	3082.19
443.23	3043.28
443.43	3231.69
443.64	3598.28
443.84	3008.47
444.05	3198.93
444.25	3229.65
444.46	3274.70
444.66	3033.04
444.87	3289.04
445.07	2977.75
445.28	3211.22
445.48	3239.89
445.69	3153.87
445.89	3891.14
446.09	3182.54
446.30	3311.57
446.50	3483.59
446.71	5081.01
446.91	6299.55
447.12	7133.08
447.32	7669.64
447.53	7710.60
447.73	6399.90
447.93	5586.86
448.14	5265.33
448.34	5459.88
448.55	4536.25
448.75	4540.35
448.96	4218.82
449.16	4120.51
449.36	3868.61
449.57	3381.20
449.77	3098.58
449.98	3227.60
450.18	3389.39
450.39	3022.80
450.59	3225.55
450.79	3313.61
451.00	3100.62
451.20	3262.41
451.41	3184.59
451.61	3315.66
451.81	3266.51
452.02	2957.27
452.22	3074.00
452.43	3155.92
452.63	3065.81
452.84	3143.63
453.04	3053.52
453.24	3305.42
453.45	3069.91
453.65	3080.14
453.86	3082.19
454.06	3311.57
454.26	3272.65
454.47	3018.71
454.67	3311.57
454.87	3364.81
455.08	3192.78
455.28	3192.78
455.49	3233.74
455.69	3092.43
455.89	3672.01
456.10	3172.30
456.30	2975.70
456.51	3342.28
456.71	3264.46
456.91	3235.79
457.12	3090.38
457.32	3350.48
457.52	3041.23
457.73	3262.41
457.93	3262.41
458.14	3094.48
458.34	2863.06
458.54	3141.58
458.75	3006.42
458.95	3407.82
459.15	3336.14
459.36	3123.15
459.56	3074.00
459.76	3798.98
459.97	3280.85
460.17	3076.05
460.37	3143.63
460.58	3139.54
460.78	3411.92
460.99	3125.20
461.19	3063.76
461.39	3170.26
461.60	3215.31
461.80	3082.19
462.00	2942.93
462.21	3364.81
462.41	3090.38
462.61	2973.65
462.82	2803.67
463.02	3375.05
463.22	3237.84
463.43	3182.54
463.63	3053.52
463.83	3583.95
464.04	3346.38
464.24	2990.03
464.44	2967.51
464.64	3319.76
464.85	3356.62
465.05	3160.02
465.25	3024.85
465.46	3117.01
465.66	3405.77
465.86	3231.69
466.07	3043.28
466.27	3229.65
466.47	2951.12
466.68	2877.40
466.88	3168.21
467.08	3428.30
467.29	3446.73
467.49	3071.95
467.69	3098.58
467.89	3366.86
468.10	3270.61
468.30	3129.30
468.50	3180.50
468.71	3422.16
468.91	2928.60
469.11	3213.26
469.31	3090.38
469.52	3125.20
469.72	3598.28
469.92	3291.09
470.13	3035.09
470.33	3237.84
470.53	3280.85
470.73	3448.78
470.94	3905.48
471.14	4095.94
471.34	4683.70
471.54	4370.37
471.75	4138.94
471.95	3805.13
472.15	3782.60
472.36	3690.44
472.56	3545.03
472.76	3774.41
472.96	3676.10
473.17	3395.53
473.37	3213.26
473.57	3180.50
473.77	3432.40
473.98	3160.02
474.18	2934.74
474.38	4036.55
474.58	3254.22
474.79	2928.60
474.99	3176.40
475.19	3508.17
475.39	3166.16
475.60	3110.86
475.80	3022.80
476.00	3385.29
476.20	3221.45
476.41	3069.91
476.61	3123.15
476.81	3631.05
477.01	3184.59
477.21	3393.48
477.42	3145.68
477.62	3133.39
477.82	3358.67
478.02	2983.89
478.23	3094.48
478.43	3133.39
478.63	3155.92
478.83	3061.71
479.03	3123.15
479.24	3631.05
479.44	3655.62
479.64	3018.71
479.84	2863.06
480.04	3133.39
480.25	3456.97
480.45	3024.85
480.65	3026.90
480.85	3551.18
481.06	3180.50
481.26	3178.45
481.46	3071.95
481.66	3395.53
481.86	3145.68
482.06	3295.18
482.27	3098.58
482.47	3155.92
482.67	3327.95
482.87	3074.00
483.07	3090.38
483.28	3184.59
483.48	3043.28
483.68	3049.43
483.88	2949.08
484.08	2887.64
484.29	3033.04
484.49	3162.06
484.69	2906.07
484.89	3538.89
485.09	3454.92
485.29	3033.04
485.50	3258.32
485.70	3182.54
485.90	3532.75
486.10	3147.73
486.30	3020.75
486.50	3508.17
486.71	3383.24
486.91	3084.24
487.11	3114.96
487.31	3049.43
487.51	3442.64
487.71	3024.85
487.91	3012.56
488.12	3076.05
488.32	2850.77
488.52	3033.04
488.72	2828.24
488.92	3266.51
489.12	3542.99
489.32	3194.83
489.53	3106.77
489.73	3022.80
489.93	3723.21
490.13	3039.19
490.33	2899.92
490.53	3321.81
490.73	3547.08
490.94	2881.49
491.14	3184.59
491.34	3467.21
491.54	3418.06
491.74	3966.92
491.94	4544.44
492.14	5091.25
492.34	5197.74
492.54	4796.34
492.75	4134.85
492.95	4413.37
493.15	4097.99
493.35	3829.70
493.55	3729.35
493.75	3731.40
493.95	3870.66
494.15	3344.33
494.35	3184.59
494.56	3289.04
494.76	3080.14
494.96	3217.36
495.16	2967.51
495.36	3241.93
495.56	3188.69
495.76	3067.86
495.96	3082.19
496.16	3135.44
496.36	3655.62
496.56	3024.85
496.77	3160.02
496.97	3325.90
497.17	3485.64
497.37	2914.26
497.57	3196.88
497.77	3356.62
497.97	3129.30
498.17	3078.10
498.37	3082.19
498.57	3450.83
498.77	3149.78
498.97	3178.45
499.17	3426.25
499.38	3260.37
499.58	3311.57
499.78	3344.33
499.98	3147.73
500.18	3286.99
500.38	3139.54
500.58	3270.61
500.78	3739.59
500.98	6240.16
501.18	8161.16
501.38	9662.32
501.58	10889.05
501.78	10807.13
501.98	9103.22
502.18	7479.18
502.38	6549.40
502.58	6391.71
502.78	5646.25
502.98	5445.55
503.18	5283.76
503.38	4919.22
503.59	4290.49
503.79	3917.76
503.99	3731.40
504.19	3868.61
504.39	3885.00
504.59	3653.58
504.79	3663.82
504.99	4089.79
505.19	3598.28
505.39	3291.09
505.59	3571.66
505.79	3704.78
505.99	3508.17
506.19	3063.76
506.39	3403.72
506.59	3178.45
506.79	3268.56
506.99	3340.24
507.19	2992.08
507.39	3352.52
507.59	2992.08
507.79	2949.08
507.99	3078.10
508.19	3356.62
508.39	3168.21
508.59	3117.01
508.79	3219.41
508.99	3649.48
509.19	3106.77
509.39	3135.44
509.59	2930.64
509.79	3123.15
509.99	3248.08
510.19	3190.74
510.39	3176.40
510.59	3274.70
510.79	3221.45
510.99	2908.12
511.19	2975.70
511.39	3639.24
511.59	3483.59
511.79	3254.22
511.99	3051.47
512.19	3676.10
512.38	3327.95
512.58	3047.38
512.78	2934.74
512.98	3481.55
513.18	3551.18
513.38	2936.79
513.58	3125.20
513.78	3217.36
513.98	3192.78
514.18	3098.58
514.38	3110.86
514.58	3307.47
514.78	3137.49
514.98	3000.27
515.18	3069.91
515.38	3049.43
515.58	3622.86
515.78	3014.61
515.98	3057.62
516.18	3436.49
516.38	3385.29
516.57	3026.90
516.77	2983.89
516.97	3454.92
517.17	3151.82
517.37	2854.87
517.57	3106.77
517.77	3299.28
517.97	3020.75
518.17	3084.24
518.37	2932.69
518.57	3139.54
518.77	3266.51
518.97	3104.72
519.16	3106.77
519.36	3393.48
519.56	3094.48
519.76	3024.85
519.96	3082.19
520.16	3649.48
520.36	2983.89
520.56	3354.57
520.76	3069.91
520.96	3323.85
521.16	3426.25
521.35	3299.28
521.55	3143.63
521.75	3237.84
521.95	3237.84
522.15	3074.00
522.35	2996.18
522.55	3157.97
522.75	3493.83
522.95	2955.22
523.14	2885.59
523.34	3260.37
523.54	3168.21
523.74	3094.48
523.94	3114.96
524.14	2971.60
524.34	3325.90
524.54	3254.22
524.73	3057.62
524.93	3422.16
525.13	3264.46
525.33	2885.59
525.53	3286.99
525.73	3471.31
525.93	3250.13
526.13	3082.19
526.32	2942.93
526.52	3542.99
526.72	3444.68
526.92	3008.47
527.12	3047.38
527.32	3000.27
527.52	3286.99
527.71	3084.24
527.91	3082.19
528.11	3198.93
528.31	3188.69
528.51	3106.77
528.71	3213.26
528.90	3434.44
529.10	3481.55
529.30	3153.87
529.50	2856.92
529.70	3334.09
529.90	3178.45
530.09	3020.75
530.29	2893.78
530.49	3147.73
530.69	3819.46
530.89	3198.93
531.09	3133.39
531.28	3190.74
531.48	3563.47
531.68	3071.95
531.88	3010.51
532.08	3426.25
532.28	3166.16
532.47	3241.93
532.67	3209.17
532.87	3465.16
533.07	3114.96
533.27	3074.00
533.46	3155.92
533.66	3325.90
533.86	3184.59
534.06	3067.86
534.26	2992.08
534.45	3258.32
534.65	3508.17
534.85	3200.98
535.05	2979.79
535.25	3477.45
535.44	2840.53
535.64	3123.15
535.84	3100.62
536.04	3137.49
536.24	3106.77
536.43	3006.42
536.63	3008.47
536.83	3323.85
537.03	3264.46
537.22	2830.29
537.42	2901.97
537.62	3319.76
537.82	3170.26
538.02	3237.84
538.21	3151.82
538.41	3882.95
538.61	3434.44
538.81	3151.82
539.00	3196.88
539.20	2955.22
539.40	3190.74
539.60	3071.95
539.79	3278.80
539.99	3241.93
540.19	3069.91
540.39	3026.90
540.58	3149.78
540.78	3549.13
540.98	3311.57
541.18	3266.51
541.37	3117.01
541.57	3295.18
541.77	3428.30
541.97	2979.79
542.16	2969.55
542.36	3264.46
542.56	3108.82
542.76	3246.03
542.95	3174.35
543.15	3479.50
543.35	3399.63
543.54	3041.23
543.74	3010.51
543.94	3516.36
544.14	3188.69
544.33	3225.55
544.53	3084.24
544.73	3227.60
544.93	3135.44
545.12	3055.57
545.32	3008.47
545.52	3186.64
545.71	3061.71
545.91	3016.66
546.11	3012.56
546.30	3168.21
546.50	3254.22
546.70	3090.38
546.90	3106.77
547.09	2885.59
547.29	3246.03
547.49	3162.06
547.68	3086.29
547.88	3139.54
548.08	3395.53
548.27	3413.96
548.47	3071.95
548.67	3121.10
548.87	3426.25
549.06	3024.85
549.26	2951.12
549.46	3350.48
549.65	3151.82
549.85	3082.19
550.05	3094.48
550.24	3045.33
550.44	3221.45
550.64	3119.06
550.83	3131.34
551.03	3547.08
551.23	3489.74
551.42	3114.96
551.62	3139.54
551.82	3262.41
552.01	3200.98
552.21	3387.34
552.41	3133.39
552.60	3571.66
552.80	3307.47
553.00	3127.25
553.19	3119.06
553.39	3629.00
553.59	3028.95
553.78	3225.55
553.98	2979.79
554.17	3092.43
554.37	3225.55
554.57	3147.73
554.76	2858.96
554.96	3178.45
555.16	3313.61
555.35	3153.87
555.55	3227.60
555.75	3246.03
555.94	3340.24
556.14	2934.74
556.33	3106.77
556.53	3272.65
556.73	3315.66
556.92	3061.71
557.12	3012.56
557.32	3690.44
557.51	3485.64
557.71	3092.43
557.90	3282.89
558.10	3571.66
558.30	3151.82
558.49	3110.86
558.69	3020.75
558.88	3387.34
559.08	3364.81
559.28	3069.91
559.47	3194.83
559.67	3387.34
559.86	3772.36
560.06	3020.75
560.26	3090.38
560.45	3368.91
560.65	3237.84
560.84	3362.76
561.04	2953.17
561.24	3461.07
561.43	3008.47
561.63	3323.85
561.82	3078.10
562.02	3366.86
562.22	3149.78
562.41	2981.84
562.61	2981.84
562.80	3084.24
563.00	3774.41
563.19	3123.15
563.39	3190.74
563.59	3352.52
563.78	3000.27
563.98	2781.14
564.17	3004.37
564.37	2965.46
564.56	3270.61
564.76	2949.08
564.96	3190.74
565.15	3411.92
565.35	3762.12
565.54	3145.68
565.74	3106.77
565.93	3432.40
566.13	3286.99
566.32	3149.78
566.52	3123.15
566.71	3278.80
566.91	3495.88
567.11	3219.41
567.30	2930.64
567.50	3295.18
567.69	3370.96
567.89	3014.61
568.08	2926.55
568.28	3225.55
568.47	2977.75
568.67	3063.76
568.86	2985.94
569.06	3442.64
569.25	3250.13
569.45	2830.29
569.64	3114.96
569.84	3227.60
570.04	3289.04
570.23	2979.79
570.43	3133.39
570.62	3313.61
570.82	3530.70
571.01	2904.02
571.21	2963.41
571.40	3102.67
571.60	3360.72
571.79	3119.06
571.99	3104.72
572.18	3067.86
572.38	3364.81
572.57	3129.30
572.77	3137.49
572.96	3790.79
573.16	3356.62
573.35	3049.43
573.55	3211.22
573.74	3405.77
573.94	3237.84
574.13	3078.10
574.33	3258.32
574.52	3508.17
574.71	3239.89
574.91	3153.87
575.10	2944.98
575.30	3090.38
575.49	3092.43
575.69	2987.99
575.88	3092.43
576.08	3164.11
576.27	3403.72
576.47	3057.62
576.66	3246.03
576.86	3604.42
577.05	3385.29
577.25	3078.10
577.44	3227.60
577.64	3188.69
577.83	3499.98
578.02	3014.61
578.22	3149.78
578.41	3610.57
578.61	3266.51
578.80	2891.73
579.00	3096.53
579.19	3289.04
579.39	3315.66
579.58	3184.59
579.77	3110.86
579.97	3459.02
580.16	3495.88
580.36	3305.42
580.55	3200.98
580.75	3327.95
580.94	3198.93
581.13	3266.51
581.33	3303.37
581.52	3289.04
581.72	3672.01
581.91	3207.12
582.11	3065.81
582.30	3528.65
582.49	3270.61
582.69	3375.05
582.88	3057.62
583.08	3403.72
583.27	3461.07
583.47	3225.55
583.66	3090.38
583.85	3143.63
584.05	3258.32
584.24	3135.44
584.44	3141.58
584.63	3508.17
584.82	3557.32
585.02	3358.67
585.21	3252.17
585.41	3409.87
585.60	3303.37
585.79	3317.71
585.99	3358.67
586.18	3303.37
586.37	4214.72
586.57	6301.60
586.76	17962.73
586.96	37189.06
587.15	50636.03
587.34	59329.65
587.54	63360.06
587.73	56470.69
587.93	40701.33
588.12	31245.86
588.31	25681.53
588.51	22521.51
588.70	21145.28
588.89	18368.23
589.09	15935.24
589.28	13598.51
589.47	10938.20
589.67	8226.69
589.86	6578.08
590.06	5058.48
590.25	4497.34
590.44	3899.33
590.64	3532.75
590.83	3590.09
591.02	3471.31
591.22	3112.91
591.41	3196.88
591.60	3264.46
591.80	3803.08
591.99	2951.12
592.18	3057.62
592.38	3399.63
592.57	3327.95
592.76	3078.10
592.96	3180.50
593.15	3237.84
593.34	3524.55
593.54	3098.58
593.73	3256.27
593.92	3313.61
594.12	3428.30
594.31	3119.06
594.50	3233.74
594.70	3424.20
594.89	3827.65
595.08	2942.93
595.28	3188.69
595.47	3977.16
595.66	3436.49
595.86	3028.95
596.05	3037.14
596.24	3280.85
596.43	3620.81
596.63	3192.78
596.82	3153.87
597.01	3352.52
597.21	3610.57
597.40	3065.81
597.59	3157.97
597.79	3270.61
597.98	3416.01
598.17	3147.73
598.36	3043.28
598.56	3477.45
598.75	3205.07
598.94	3241.93
599.14	3096.53
599.33	3160.02
599.52	3411.92
599.71	3119.06
599.91	3123.15
600.10	3438.54
600.29	3327.95
600.48	3137.49
600.68	3166.16
600.87	3373.00
601.06	3223.50
601.26	3164.11
601.45	3231.69
601.64	3311.57
601.83	3573.71
602.03	3063.76
602.22	2936.79
602.41	3542.99
602.60	3721.16
602.80	3180.50
602.99	3260.37
603.18	3172.30
603.37	3319.76
603.57	2977.75
603.76	3082.19
603.95	3506.12
604.14	3223.50
604.34	3033.04
604.53	3084.24
604.72	3262.41
604.91	3440.59
605.10	2983.89
605.30	2936.79
605.49	3686.34
605.68	3420.11
605.87	3074.00
606.07	2904.02
606.26	3299.28
606.45	3463.12
606.64	3149.78
606.84	2926.55
607.03	3303.37
607.22	3469.26
607.41	3133.39
607.60	3018.71
607.80	3440.59
607.99	3299.28
608.18	3127.25
608.37	3053.52
608.56	3164.11
608.76	3440.59
608.95	3211.22
609.14	3108.82
609.33	3463.12
609.52	3549.13
609.72	3235.79
609.91	3254.22
610.10	3235.79
610.29	3567.56
610.48	3252.17
610.68	3395.53
610.87	3205.07
611.06	3407.82
611.25	3102.67
611.44	3227.60
611.63	3256.27
611.83	3477.45
612.02	3004.37
612.21	3168.21
612.40	2949.08
612.59	3061.71
612.79	2994.13
612.98	3194.83
613.17	3637.19
613.36	3280.85
613.55	3205.07
613.74	3114.96
613.93	3387.34
614.13	3368.91
614.32	3368.91
614.51	3125.20
614.70	3309.52
614.89	3166.16
615.08	3188.69
615.28	3426.25
615.47	3030.99
615.66	3319.76
615.85	3141.58
616.04	3172.30
616.23	3311.57
616.42	3266.51
616.62	3117.01
616.81	3139.54
617.00	3305.42
617.19	3420.11
617.38	3033.04
617.57	3096.53
617.76	3379.15
617.95	3393.48
618.15	3250.13
618.34	3317.71
618.53	3041.23
618.72	3485.64
618.91	3243.98
619.10	3114.96
619.29	3231.69
619.48	3272.65
619.68	2928.60
619.87	3090.38
620.06	2967.51
620.25	3454.92
620.44	2979.79
620.63	3026.90
620.82	3297.23
621.01	3237.84
621.20	3162.06
621.39	3192.78
621.59	3385.29
621.78	3233.74
621.97	3051.47
622.16	3291.09
622.35	3354.57
622.54	3469.26
622.73	3098.58
622.92	2897.88
623.11	3510.22
623.30	3194.83
623.49	3196.88
623.68	2934.74
623.88	3594.19
624.07	3170.26
624.26	3000.27
624.45	3051.47
624.64	3297.23
624.83	3389.39
625.02	3057.62
625.21	3112.91
625.40	3342.28
625.59	3622.86
625.78	3151.82
625.97	3194.83
626.16	3575.75
626.35	3532.75
626.54	3131.34
626.74	3286.99
626.93	3254.22
627.12	3186.64
627.31	3149.78
627.50	3133.39
627.69	3504.07
627.88	3092.43
628.07	3033.04
628.26	2951.12
628.45	3180.50
628.64	3125.20
628.83	3104.72
629.02	2942.93
629.21	3411.92
629.40	3286.99
629.59	2957.27
629.78	3104.72
629.97	3311.57
630.16	3233.74
630.35	2985.94
630.54	3100.62
630.73	3248.08
630.92	3178.45
631.11	2971.60
631.30	3151.82
631.49	3438.54
631.68	3270.61
631.87	3131.34
632.06	3041.23
632.25	3725.26
632.44	3299.28
632.63	3178.45
632.82	3098.58
633.01	3213.26
633.20	3258.32
633.39	3074.00
633.58	2994.13
633.77	3317.71
633.96	3385.29
634.15	3205.07
634.34	3186.64
634.53	3399.63
634.72	3147.73
634.91	2940.88
635.10	3094.48
635.29	3432.40
635.48	3231.69
635.67	3018.71
635.86	2971.60
636.05	3573.71
636.24	3323.85
636.43	3112.91
636.62	3133.39
636.81	2795.48
637.00	3229.65
637.19	3069.91
637.38	3045.33
637.57	3131.34
637.76	3303.37
637.95	3246.03
638.14	3289.04
638.33	3280.85
638.52	3360.72
638.71	2977.75
638.89	3006.42
639.08	3766.21
639.27	3510.22
639.46	3342.28
639.65	3729.35
639.84	3780.55
640.03	4065.22
640.22	3532.75
640.41	3532.75
640.60	3356.62
640.79	3524.55
640.98	3254.22
641.17	3327.95
641.36	3524.55
641.55	3489.74
641.74	2973.65
641.92	2942.93
642.11	3209.17
642.30	3147.73
642.49	3033.04
642.68	2992.08
642.87	3368.91
643.06	3323.85
643.25	2848.72
643.44	3018.71
643.63	3180.50
643.82	3428.30
644.00	2985.94
644.19	3071.95
644.38	3119.06
644.57	3477.45
644.76	3082.19
644.95	3143.63
645.14	3352.52
645.33	3205.07
645.52	3147.73
645.71	2965.46
645.89	3065.81
646.08	3233.74
646.27	3076.05
646.46	3233.74
646.65	2975.70
646.84	3280.85
647.03	3014.61
647.22	3205.07
647.40	3360.72
647.59	3209.17
647.78	2856.92
647.97	3059.67
648.16	3065.81
648.35	3569.61
648.54	3332.05
648.73	3117.01
648.91	3373.00
649.10	3352.52
649.29	2959.31
649.48	3030.99
649.67	3387.34
649.86	3325.90
650.05	3035.09
650.23	3243.98
650.42	3198.93
650.61	3655.62
650.80	3323.85
650.99	3317.71
651.18	3446.73
651.36	3499.98
651.55	3061.71
651.74	3243.98
651.93	3282.89
652.12	3237.84
652.31	3123.15
652.49	2994.13
652.68	3200.98
652.87	3510.22
653.06	3196.88
653.25	3344.33
653.44	3190.74
653.62	3563.47
653.81	3155.92
654.00	3053.52
654.19	3393.48
654.38	3868.61
654.56	3190.74
654.75	2985.94
654.94	3440.59
655.13	3280.85
655.32	3035.09
655.51	3133.39
655.69	3209.17
655.88	3502.03
656.07	2914.26
656.26	3018.71
656.45	3067.86
656.63	3284.94
656.82	3112.91
657.01	3411.92
657.20	3094.48
657.38	3588.04
657.57	2961.36
657.76	2809.81
657.95	3383.24
658.14	3147.73
658.32	3149.78
658.51	2934.74
658.70	3338.19
658.89	3303.37
659.08	3166.16
659.26	3370.96
659.45	3196.88
659.64	3469.26
659.83	3069.91
660.01	3508.17
660.20	3239.89
660.39	3712.97
660.58	2746.33
660.76	3166.16
660.95	2975.70
661.14	3289.04
661.33	2887.64
661.51	3078.10
661.70	3272.65
661.89	3373.00
662.08	3092.43
662.26	2908.12
662.45	3094.48
662.64	3657.67
662.83	3121.10
663.01	2889.68
663.20	3139.54
663.39	3573.71
663.58	3071.95
663.76	3123.15
663.95	3422.16
664.14	3067.86
664.32	3131.34
664.51	3010.51
664.70	2957.27
664.89	3270.61
665.07	2936.79
665.26	3286.99
665.45	2936.79
665.64	3395.53
665.82	3090.38
666.01	3215.31
666.20	2918.36
666.38	3373.00
666.57	3491.79
666.76	5384.11
666.95	12861.24
667.13	20356.81
667.32	24995.46
667.51	28194.39
667.69	29027.91
667.88	24114.83
668.07	17329.91
668.25	14843.68
668.44	12832.57
668.63	11212.63
668.81	9922.41
669.00	8456.06
669.19	7743.37
669.38	6778.78
669.56	5666.73
669.75	4997.04
669.94	4460.48
670.12	3731.40
670.31	3323.85
670.50	3422.16
670.68	3549.13
670.87	3346.38
671.06	3037.14
671.24	3153.87
671.43	3667.91
671.62	3325.90
671.80	3078.10
671.99	3229.65
672.18	3327.95
672.36	3491.79
672.55	3223.50
672.74	3170.26
672.92	3295.18
673.11	3340.24
673.29	2889.68
673.48	3225.55
673.67	3213.26
673.85	3485.64
674.04	3074.00
674.23	3135.44
674.41	3626.95
674.60	3037.14
674.79	2844.63
674.97	2928.60
675.16	3481.55
675.34	3532.75
675.53	3057.62
675.72	3069.91
675.90	3741.64
676.09	3229.65
676.28	3135.44
676.46	2893.78
676.65	3420.11
676.83	3090.38
677.02	3129.30
677.21	3112.91
677.39	3391.44
677.58	3067.86
677.77	3035.09
677.95	3020.75
678.14	3170.26
678.32	3209.17
678.51	3053.52
678.70	3475.40
678.88	3153.87
679.07	3289.04
679.25	3096.53
679.44	3147.73
679.63	3026.90
679.81	3338.19
680.00	3379.15
680.18	3188.69
680.37	3610.57
680.55	3332.05
680.74	2887.64
680.93	2799.57
681.11	3295.18
681.30	3315.66
681.48	3065.81
681.67	3131.34
681.85	3225.55
682.04	3110.86
682.23	3266.51
682.41	3237.84
682.60	3164.11
682.78	3227.60
682.97	2973.65
683.15	3209.17
683.34	3313.61
683.53	3526.60
683.71	2877.40
683.90	3098.58
684.08	3614.66
684.27	3186.64
684.45	3141.58
684.64	3217.36
684.82	3278.80
685.01	3327.95
685.19	3112.91
685.38	3436.49
685.57	3248.08
685.75	3188.69
685.94	2996.18
686.12	2908.12
686.31	3209.17
686.49	3563.47
686.68	2846.68
686.86	3104.72
687.05	3176.40
687.23	3588.04
687.42	3094.48
687.60	2928.60
687.79	3454.92
687.97	3524.55
688.16	3270.61
688.34	3272.65
688.53	2957.27
688.71	3399.63
688.90	3389.39
689.08	3133.39
689.27	2914.26
689.45	3514.31
689.64	3200.98
689.82	3200.98
690.01	3368.91
690.19	3327.95
690.38	3119.06
690.56	3157.97
690.75	3037.14
690.93	3123.15
691.12	3024.85
691.30	3100.62
691.49	3209.17
691.67	3291.09
691.86	3426.25
692.04	3106.77
692.23	3211.22
692.41	3254.22
692.60	3440.59
692.78	3352.52
692.97	3297.23
693.15	3436.49
693.34	3327.95
693.52	3313.61
693.71	3180.50
693.89	3074.00
694.08	2881.49
694.26	3166.16
694.44	3440.59
694.63	3491.79
694.81	3051.47
695.00	3112.91
695.18	3444.68
695.37	3743.69
695.55	3190.74
695.74	3164.11
695.92	3000.27
696.10	3481.55
696.29	2928.60
696.47	3082.19
696.66	3026.90
696.84	3172.30
697.03	3104.72
697.21	3385.29
697.40	4640.70
697.58	3413.96
697.76	3119.06
697.95	3123.15
698.13	3096.53
698.32	3160.02
698.50	3051.47
698.68	3137.49
698.87	3315.66
699.05	3663.82
699.24	3098.58
699.42	2971.60
699.61	3350.48
699.79	3350.48
699.97	3100.62
700.16	2967.51
700.34	3006.42
700.53	3215.31
700.71	3291.09
700.89	3147.73
701.08	3149.78
701.26	3323.85
701.45	3450.83
701.63	3061.71
701.81	3184.59
702.00	3137.49
702.18	3090.38
702.37	3008.47
702.55	3581.90
702.73	3424.20
702.92	3121.10
703.10	3475.40
703.28	3450.83
703.47	3131.34
703.65	3338.19
703.84	3207.12
704.02	3172.30
704.20	3682.25
704.39	3041.23
704.57	3090.38
704.75	3489.74
704.94	3397.58
705.12	3295.18
705.30	3997.64
705.49	8652.67
705.67	16887.55
705.86	23459.48
706.04	26799.72
706.22	29756.99
706.41	28151.38
706.59	21403.32
706.77	16510.72
706.96	14372.64
707.14	13027.13
707.32	11114.33
707.51	9813.87
707.69	7937.93
707.87	6684.57
708.06	5308.34
708.24	4614.07
708.42	4087.75
708.61	4222.91
708.79	3260.37
708.97	3248.08
709.16	3399.63
709.34	3268.56
709.52	3215.31
709.71	3094.48
709.89	3436.49
710.07	3106.77
710.26	3008.47
710.44	3069.91
710.62	3536.84
710.80	3291.09
710.99	3166.16
711.17	3221.45
711.35	3221.45
711.54	3166.16
711.72	3274.70
711.90	3149.78
712.09	3352.52
712.27	3114.96
712.45	3229.65
712.63	3112.91
712.82	3315.66
713.00	3282.89
713.18	3268.56
713.37	3297.23
713.55	3459.02
713.73	3336.14
713.91	3139.54
714.10	3123.15
714.28	3289.04
714.46	3340.24
714.65	3196.88
714.83	3102.67
715.01	3286.99
715.19	3330.00
715.38	3033.04
715.56	3235.79
715.74	3114.96
715.92	3125.20
716.11	3336.14
716.29	2873.30
716.47	3282.89
716.65	3168.21
716.84	2942.93
717.02	3149.78
717.20	3037.14
717.38	3188.69
717.57	3092.43
717.75	3123.15
717.93	3264.46
718.11	3454.92
718.30	3069.91
718.48	3082.19
718.66	3512.27
718.84	3409.87
719.03	3057.62
719.21	3041.23
719.39	3663.82
719.57	3352.52
719.75	3137.49
719.94	3010.51
720.12	3178.45
720.30	3305.42
720.48	3141.58
720.67	3123.15
720.85	3045.33
721.03	3194.83
721.21	3071.95
721.39	3250.13
721.58	3405.77
721.76	3340.24
721.94	3129.30
722.12	3188.69
722.30	3522.51
722.49	3106.77
722.67	3131.34
722.85	3059.67
723.03	3043.28
723.21	3092.43
723.40	3139.54
723.58	3215.31
723.76	3504.07
723.94	3581.90
724.12	3110.86
724.30	3401.68
724.49	3463.12
724.67	3139.54
724.85	3174.35
725.03	3026.90
725.21	3315.66
725.40	3493.83
725.58	3135.44
725.76	3301.33
725.94	3340.24
726.12	3014.61
726.30	3207.12
726.49	3041.23
726.67	3317.71
726.85	3407.82
727.03	3919.81
727.21	5515.18
727.39	7200.66
727.57	7731.08
727.76	8306.56
727.94	8509.31
728.12	7159.70
728.30	5939.11
728.48	5435.31
728.66	5072.82
728.84	4888.50
729.03	4095.94
729.21	3954.63
729.39	3518.41
729.57	3424.20
729.75	3393.48
729.93	3413.96
730.11	3057.62
730.30	3221.45
730.48	3295.18
730.66	3090.38
730.84	3151.82
731.02	3270.61
731.20	3182.54
731.38	3147.73
731.56	2951.12
731.74	3041.23
731.93	3340.24
732.11	3139.54
732.29	3117.01
732.47	3356.62
732.65	3237.84
732.83	3282.89
733.01	3213.26
733.19	3153.87
733.37	3418.06
733.56	3139.54
733.74	2985.94
733.92	3641.29
734.10	3192.78
734.28	3284.94
734.46	2914.26
734.64	3278.80
734.82	3262.41
735.00	3086.29
735.18	3080.14
735.36	3286.99
735.54	3295.18
735.73	3022.80
735.91	3213.26
736.09	3585.99
736.27	3327.95
736.45	3203.02
736.63	2775.00
736.81	3254.22
736.99	3409.87
737.17	3346.38
737.35	3026.90
737.53	3284.94
737.71	3157.97
737.89	3282.89
738.07	3065.81
738.25	3026.90
738.43	3000.27
738.61	3008.47
738.80	2975.70
738.98	3108.82
739.16	3133.39
739.34	2975.70
739.52	3379.15
739.70	3246.03
739.88	3426.25
740.06	3168.21
740.24	2793.43
740.42	3528.65
740.60	2969.55
740.78	3051.47
740.96	2879.44
741.14	3168.21
741.32	3334.09
741.50	3002.32
741.68	3428.30
741.86	3508.17
742.04	3057.62
742.22	2930.64
742.40	3096.53
742.58	3391.44
742.76	3096.53
742.94	3272.65
743.12	2922.45
743.30	3344.33
743.48	3368.91
743.66	3002.32
743.84	3108.82
744.02	3155.92
744.20	3213.26
744.38	2987.99
744.56	3002.32
744.74	3639.24
744.92	3391.44
745.10	3293.13
745.28	3147.73
745.46	3557.32
745.64	3360.72
745.82	3137.49
746.00	2983.89
746.18	3330.00
746.36	3018.71
746.54	3153.87
746.72	3106.77
746.90	3114.96
747.08	3581.90
747.26	3090.38
747.44	3211.22
747.62	3489.74
747.80	3332.05
747.98	3153.87
748.15	3084.24
748.33	3672.01
748.51	3293.13
748.69	3239.89
748.87	2977.75
749.05	3254.22
749.23	3278.80
749.41	3024.85
749.59	3039.19
749.77	3426.25
749.95	3180.50
750.13	3076.05
750.31	3211.22
750.49	3239.89
750.67	3297.23
750.85	3286.99
751.03	3067.86
751.20	3706.82
751.38	3297.23
751.56	3069.91
751.74	3065.81
751.92	3270.61
752.10	3004.37
752.28	3293.13
752.46	3037.14
752.64	3237.84
752.82	3295.18
753.00	3188.69
753.18	3000.27
753.35	3198.93
753.53	3297.23
753.71	3024.85
753.89	3160.02
754.07	3264.46
754.25	3483.59
754.43	3186.64
754.61	2924.50
754.79	3362.76
754.97	3223.50
755.14	3221.45
755.32	2969.55
755.50	3330.00
755.68	3334.09
755.86	3022.80
756.04	3061.71
756.22	2832.34
756.40	3454.92
756.57	3323.85
756.75	3039.19
756.93	3436.49
757.11	3526.60
757.29	2912.21
757.47	3047.38
757.65	2940.88
757.82	2873.30
758.00	3016.66
758.18	3000.27
758.36	3139.54
758.54	3598.28
758.72	2963.41
758.90	3205.07
759.07	3385.29
759.25	3123.15
759.43	3090.38
759.61	2901.97
759.79	4491.20
759.97	3428.30
760.15	3135.44
760.32	3076.05
760.50	3362.76
760.68	3653.58
760.86	3004.37
761.04	3260.37
761.22	3446.73
761.39	3309.52
761.57	3194.83
761.75	3090.38
761.93	3418.06
762.11	3196.88
762.28	3237.84
762.46	2981.84
762.64	3493.83
762.82	3051.47
763.00	3061.71
763.18	3315.66
763.35	3090.38
763.53	3360.72
763.71	3151.82
763.89	3010.51
764.07	3264.46
764.24	3221.45
764.42	3151.82
764.60	3067.86
764.78	3352.52
764.96	3346.38
765.13	3248.08
765.31	3016.66
765.49	3381.20
765.67	3086.29
765.84	3053.52
766.02	3004.37
766.20	2908.12
766.38	3399.63
766.56	3170.26
766.73	3125.20
766.91	3205.07
767.09	3327.95
767.27	3211.22
767.44	3012.56
767.62	3295.18
767.80	3295.18
767.98	3018.71
768.15	3076.05
768.33	3377.10
768.51	3479.50
768.69	3207.12
768.87	3043.28
769.04	3272.65
769.22	3864.52
769.40	3360.72
769.58	3205.07
769.75	3327.95
769.93	3534.79
770.11	3172.30
770.28	2965.46
770.46	3413.96
770.64	3370.96
770.82	3106.77
770.99	3022.80
771.17	3332.05
771.35	3125.20
771.53	3094.48
771.70	2955.22
771.88	3370.96
772.06	3237.84
772.23	3071.95
772.41	3205.07
772.59	3221.45
772.77	3133.39
772.94	3067.86
773.12	3211.22
773.30	3215.31
773.47	3254.22
773.65	2936.79
773.83	3174.35
774.01	3227.60
774.18	2908.12
774.36	3086.29
774.54	2932.69
774.71	3303.37
774.89	3000.27
775.07	2963.41
775.24	3094.48
775.42	3127.25
775.60	3688.39
775.78	2942.93
775.95	2934.74
776.13	2961.36
776.31	2914.26
776.48	3213.26
776.66	3280.85
776.84	3119.06
777.01	3106.77
777.19	3026.90
777.37	2953.17
777.54	3459.02
777.72	3643.34
777.90	3135.44
778.07	3037.14
778.25	3928.00
778.43	3459.02
778.60	2985.94
778.78	3223.50
778.96	3528.65
779.13	3035.09
779.31	3106.77
779.49	3096.53
779.66	3311.57
779.84	3162.06
780.01	3067.86
780.19	3024.85
780.37	3522.51
780.54	3403.72
780.72	2871.25
780.90	3137.49
781.07	3303.37
781.25	3166.16
781.43	3272.65
781.60	3135.44
781.78	3475.40
781.95	3305.42
782.13	3028.95
782.31	3016.66
782.48	2934.74
782.66	3239.89
782.83	3403.72
783.01	3262.41
783.19	3456.97
783.36	3145.68
783.54	2969.55
783.72	3239.89
783.89	3143.63
784.07	3246.03
784.24	3221.45
784.42	3258.32
784.60	3246.03
784.77	3293.13
784.95	2820.05
785.12	3088.34
785.30	3373.00
785.47	3028.95
785.65	2926.55
785.83	3149.78
786.00	3229.65
786.18	3295.18
786.35	2992.08
786.53	2971.60
786.71	3497.93
786.88	3399.63
787.06	3223.50
787.23	3157.97
787.41	3014.61
787.58	3254.22
787.76	2967.51
787.94	3121.10
788.11	3336.14
788.29	3086.29
788.46	3127.25
788.64	2893.78
788.81	3227.60
788.99	3061.71
789.16	3110.86
789.34	3151.82
789.52	3188.69
789.69	3180.50
789.87	2869.20
790.04	3082.19
790.22	3248.08
790.39	3680.20
790.57	2998.23
790.74	3088.34
790.92	3448.78
791.09	2985.94
791.27	3137.49
791.44	3129.30
791.62	3192.78
791.79	3430.35
791.97	3110.86
792.15	3526.60
792.32	3358.67
792.50	3467.21
792.67	3246.03
792.85	3413.96
793.02	3258.32
793.20	3157.97
793.37	2904.02
793.55	2979.79
793.72	2987.99
793.90	3430.35
794.07	2985.94
794.25	3012.56
794.42	3305.42
794.60	3164.11
794.77	3088.34
794.95	3184.59
795.12	3391.44
795.30	3241.93
795.47	2865.11
795.65	3436.49
795.82	3393.48
796.00	3108.82
796.17	3135.44
796.34	2951.12
796.52	3356.62
796.69	3510.22
796.87	3225.55
797.04	3264.46
797.22	3512.27
797.39	3336.14
797.57	3256.27
797.74	3172.30
797.92	3246.03
798.09	3160.02
798.27	3416.01
798.44	3172.30
798.62	3221.45
798.79	3262.41
798.96	3221.45
799.14	3012.56
799.31	3848.13
799.49	3262.41
799.66	3041.23
799.84	3078.10
800.01	3067.86
800.19	3311.57
800.36	2893.78
800.53	3076.05
800.71	3407.82
800.88	3542.99
801.06	2951.12
801.23	3033.04
801.41	3192.78
801.58	3157.97
801.75	3065.81
801.93	3145.68
802.10	3479.50
802.28	3207.12
802.45	3112.91
802.63	3213.26
802.80	3524.55
802.97	3186.64
803.15	3166.16
803.32	3008.47
803.50	3170.26
803.67	3157.97
803.84	3014.61
804.02	3104.72
804.19	3225.55
804.37	2805.72
804.54	2930.64
804.71	2990.03
804.89	3223.50
805.06	3055.57
805.24	2908.12
805.41	2856.92
805.58	3166.16
805.76	3841.99
805.93	3096.53
806.10	3223.50
806.28	3440.59
806.45	3213.26
806.63	3188.69
806.80	3110.86
806.97	3327.95
807.15	3237.84
807.32	3192.78
807.49	3090.38
807.67	3033.04
807.84	3344.33
808.01	2871.25
808.19	3190.74
808.36	3772.36
808.54	3254.22
808.71	2924.50
808.88	3078.10
809.06	3538.89
809.23	3620.81
809.40	3104.72
809.58	3078.10
809.75	3192.78
809.92	3018.71
810.10	3397.58
810.27	3112.91
810.44	3194.83
810.62	3346.38
810.79	3076.05
810.96	3092.43
811.14	3061.71
811.31	3397.58
811.48	3280.85
811.66	3110.86
811.83	3450.83
812.00	3422.16
812.18	3108.82
812.35	3377.10
812.52	3176.40
812.69	3147.73
812.87	3033.04
813.04	3026.90
813.21	3264.46
813.39	3069.91
813.56	3059.67
813.73	3327.95
813.91	2926.55
814.08	3209.17
814.25	3057.62
814.42	2746.33
814.60	3211.22
814.77	3215.31
814.94	3004.37
815.12	3196.88
815.29	3553.23
815.46	3190.74
815.63	3112.91
815.81	3047.38
815.98	3176.40
816.15	3192.78
816.33	3264.46
816.50	3057.62
816.67	3270.61
816.84	3205.07
817.02	3012.56
817.19	3043.28
817.36	3282.89
817.53	3401.68
817.71	2969.55
817.88	3114.96
818.05	3223.50
818.22	3178.45
818.40	3311.57
818.57	3033.04
818.74	3342.28
818.91	3235.79
819.09	3227.60
819.26	3227.60
819.43	3086.29
819.60	3096.53
819.78	3237.84
819.95	3178.45
820.12	3071.95
820.29	3579.85
820.47	3291.09
820.64	2953.17
820.81	3020.75
820.98	3133.39
821.15	3049.43
821.33	3192.78
821.50	2957.27
821.67	3305.42
821.84	3012.56
822.02	3096.53
822.19	3416.01
822.36	3145.68
822.53	3057.62
822.70	2928.60
822.88	3143.63
823.05	3491.79
823.22	3174.35
823.39	3045.33
823.56	3207.12
823.74	3692.49
823.91	2981.84
824.08	2985.94
824.25	2965.46
824.42	3526.60
824.60	2951.12
824.77	3207.12
824.94	3254.22
825.11	3348.43
825.28	2922.45
825.45	3262.41
825.63	3280.85
825.80	3065.81
825.97	3131.34
826.14	3030.99
826.31	2947.03
826.48	3475.40
826.66	3047.38
826.83	3119.06
827.00	3205.07
827.17	3074.00
827.34	3037.14
827.51	2869.20
827.69	3221.45
827.86	2987.99
828.03	3082.19
828.20	3094.48
828.37	3155.92
828.54	3391.44
828.71	2975.70
828.89	3129.30
829.06	3354.57
829.23	3534.79
829.40	2975.70
829.57	3084.24
829.74	3364.81
829.91	3178.45
830.09	2983.89
830.26	3215.31
830.43	3522.51
830.60	3243.98
830.77	3162.06
830.94	3227.60
831.11	3393.48
831.28	3184.59
831.46	3200.98
831.63	3014.61
831.80	3432.40
831.97	3112.91
832.14	3145.68
832.31	3129.30
832.48	3301.33
832.65	3452.88
832.82	3243.98
832.99	3207.12
833.17	3065.81
833.34	3641.29
833.51	2987.99
833.68	2813.91
833.85	3424.20
834.02	3041.23
834.19	2944.98
834.36	3063.76
834.53	3297.23
834.70	3430.35
834.87	3053.52
835.04	2877.40
835.22	3008.47
835.39	3200.98
835.56	2934.74
835.73	2981.84
835.90	3364.81
836.07	3137.49
836.24	3053.52
836.41	2906.07
836.58	3082.19
836.75	3477.45
836.92	2924.50
837.09	2944.98
837.26	3459.02
837.43	3348.43
837.60	2975.70
837.77	2983.89
837.94	3346.38
838.12	3581.90
838.29	2826.20
838.46	2783.19
838.63	3065.81
838.80	3514.31
838.97	2971.60
839.14	2869.20
839.31	3262.41
839.48	3319.76
839.65	2881.49
839.82	2992.08
839.99	3346.38
840.16	3274.70
840.33	2846.68
840.50	2981.84
840.67	3061.71
840.84	2858.96
841.01	2832.34
841.18	2875.35
841.35	3252.17
841.52	3393.48
841.69	3174.35
841.86	2957.27
842.03	3256.27
842.20	3442.64
842.37	2910.16
842.54	3047.38
842.71	3231.69
842.88	2932.69
843.05	2987.99
843.22	2916.31
843.39	3327.95
843.56	3239.89
843.73	2924.50
843.90	2967.51
844.07	3280.85
844.24	3401.68
844.41	2934.74
844.58	2967.51
844.75	3295.18
844.92	3348.43
845.09	3008.47
845.26	2947.03
845.43	3387.34
845.60	3172.30
845.77	2983.89
845.94	3030.99
846.10	3561.42
846.27	2994.13
846.44	2824.15
846.61	2836.44
846.78	3395.53
846.95	3418.06
847.12	2949.08
847.29	2992.08
847.46	3071.95
847.63	3377.10
847.80	2869.20
847.97	3000.27
848.14	3602.38
848.31	3209.17
848.48	2801.62
848.65	2949.08
848.82	3065.81
848.98	3819.46
849.15	3016.66
849.32	3033.04
849.49	3491.79
849.66	3270.61
849.83	2908.12
850.00	2846.68
850.17	3446.73
850.34	3196.88
850.51	2805.72
850.68	2985.94
850.85	3649.48
851.01	3319.76
851.18	2897.88
851.35	2875.35
851.52	3262.41
851.69	3471.31
851.86	2795.48
852.03	2887.64
852.20	3424.20
852.37	3246.03
852.53	2861.01
852.70	2865.11
852.87	3321.81
853.04	3377.10
853.21	2828.24
853.38	3178.45
853.55	3534.79
853.72	3585.99
853.89	2865.11
854.05	2901.97
854.22	3280.85
854.39	3196.88
854.56	2889.68
854.73	3020.75
854.90	3088.34
855.07	3278.80
855.23	2815.96
855.40	2795.48
855.57	3295.18
855.74	2830.29
855.91	3008.47
856.08	2752.47
856.25	2957.27
856.41	3106.77
856.58	2891.73
856.75	3006.42
856.92	3100.62
857.09	3346.38
857.26	2731.99
857.42	3071.95
857.59	3362.76
857.76	3123.15
857.93	2953.17
858.10	2996.18
858.27	3061.71
858.43	3311.57
858.60	3014.61
858.77	2885.59
858.94	3125.20
859.11	3485.64
859.27	3030.99
859.44	2861.01
859.61	3663.82
859.78	3348.43
859.95	2928.60
860.12	2842.58
860.28	3780.55
860.45	3655.62
860.62	2861.01
860.79	3024.85
860.95	3145.68
861.12	3125.20
861.29	2746.33
861.46	2953.17
861.63	3180.50
861.79	3315.66
861.96	2746.33
862.13	2918.36
862.30	3485.64
862.47	3100.62
862.63	2764.76
862.80	2983.89
862.97	3477.45
863.14	3377.10
863.30	2957.27
863.47	2848.72
863.64	3590.09
863.81	3332.05
863.97	2846.68
864.14	2895.83
864.31	3141.58
864.48	3336.14
864.65	2889.68
864.81	3008.47
864.98	3387.34
865.15	3542.99
865.32	2965.46
865.48	2973.65
865.65	3590.09
865.82	3151.82
865.98	3004.37
866.15	3067.86
866.32	3225.55
866.49	3188.69
866.65	3051.47
866.82	2934.74
866.99	3250.13
867.16	3100.62
867.32	2861.01
867.49	2824.15
867.66	3258.32
867.83	3051.47
867.99	2930.64
868.16	2928.60
868.33	2983.89
868.49	3264.46
868.66	2836.44
868.83	2951.12
868.99	3217.36
869.16	3270.61
869.33	2975.70
869.50	3069.91
869.66	3272.65
869.83	3377.10
870.00	2828.24
870.16	3076.05
870.33	3280.85
870.50	3454.92
870.66	3012.56
870.83	2932.69
871.00	3321.81
871.17	3321.81
871.33	2967.51
871.50	2908.12
871.67	3200.98
871.83	3164.11
872.00	2942.93
872.17	2977.75
872.33	3684.30
872.50	3471.31
872.67	2891.73
872.83	2885.59
873.00	3317.71
873.17	3311.57
873.33	2908.12
873.50	2992.08
873.67	3135.44
873.83	3084.24
874.00	2947.03
874.16	3082.19
874.33	3229.65
874.50	2994.13
874.66	2846.68
874.83	2981.84
875.00	3463.12
875.16	3465.16
875.33	3035.09
875.50	2703.32
875.66	3127.25
875.83	3237.84
875.99	3024.85
876.16	2973.65
876.33	2992.08
876.49	3178.45
876.66	2897.88
876.83	2944.98
876.99	2949.08
877.16	3237.84
877.32	2961.36
877.49	3010.51
877.66	3311.57
877.82	3520.46
877.99	3033.04
878.15	3254.22
878.32	3272.65
878.49	3284.94
878.65	2865.11
878.82	3180.50
878.98	3092.43
879.15	3366.86
879.32	3069.91
879.48	3168.21
879.65	3213.26
879.81	3239.89
879.98	2908.12
880.15	3053.52
880.31	3348.43
880.48	3049.43
880.64	3006.42
880.81	3049.43
880.97	3624.90
881.14	3602.38
881.31	2930.64
881.47	3151.82
881.64	3188.69
881.80	2963.41
881.97	3059.67
882.13	2904.02
882.30	2971.60
882.47	3090.38
882.63	2910.16
882.80	2883.54
882.96	3194.83
883.13	3469.26
883.29	2955.22
883.46	2877.40
883.62	3741.64
883.79	3256.27
883.95	3172.30
884.12	2852.82
884.29	3526.60
884.45	3270.61
884.62	2992.08
884.78	2910.16
884.95	3569.61
885.11	3088.34
885.28	3049.43
885.44	2955.22
885.61	3387.34
885.77	3516.36
885.94	3092.43
886.10	2967.51
886.27	3241.93
886.43	3645.38
886.60	3117.01
886.76	2963.41
886.93	3063.76
887.09	3223.50
887.26	2793.43
887.42	3071.95
887.59	3452.88
887.75	3762.12
887.92	3133.39
888.08	3078.10
888.25	3667.91
888.41	3499.98
888.58	3057.62
888.74	2867.16
888.91	3166.16
>>>>>End Processed Spectral Data<<<<<
