SpectraSuite Data File
++++++++++++++++++++++++++++++++++++
Date: Fri May 06 08:13:47 CEST 2016
User: root
Dark Spectrum Present: No
Reference Spectrum Present: No
Number of Sampled Component Spectra: 1
Spectrometers: USB4C02835
Integration Time (usec): 100000 (USB4C02835)
Spectra Averaged: 1 (USB4C02835)
Boxcar Smoothing: 0 (USB4C02835)
Correct for Electrical Dark: No (USB4C02835)
Strobe/Lamp Enabled: No (USB4C02835)
Correct for Detector Non-linearity: No (USB4C02835)
Correct for Stray Light: No (USB4C02835)
Number of Pixels in Processed Spectrum: 3648
>>>>>Begin Processed Spectral Data<<<<<
177.47	2269.15
177.69	2269.15
177.91	2269.15
178.13	2252.77
178.36	2199.52
178.58	2969.55
178.80	3139.54
179.02	2953.17
179.24	3078.10
179.46	2775.00
179.68	2795.48
179.90	3229.65
180.13	3352.52
180.35	2727.89
180.57	2818.00
180.79	3459.02
181.01	3246.03
181.23	2844.63
181.45	3033.04
181.67	3428.30
181.90	3438.54
182.12	2947.03
182.34	2672.60
182.56	3497.93
182.78	3352.52
183.00	2861.01
183.22	2885.59
183.44	2955.22
183.66	3991.49
183.89	3041.23
184.11	2918.36
184.33	3356.62
184.55	3506.12
184.77	2803.67
184.99	2906.07
185.21	3209.17
185.43	3778.50
185.65	2877.40
185.87	2815.96
186.10	3825.61
186.32	3753.93
186.54	2932.69
186.76	2951.12
186.98	3461.07
187.20	3252.17
187.42	2885.59
187.64	2811.86
187.86	3399.63
188.08	3557.32
188.30	2770.90
188.52	2967.51
188.75	3598.28
188.97	3557.32
189.19	2891.73
189.41	2861.01
189.63	3377.10
189.85	3196.88
190.07	2785.24
190.29	2795.48
190.51	3385.29
190.73	3037.14
190.95	3018.71
191.17	2906.07
191.39	2975.70
191.61	3217.36
191.84	2809.81
192.06	3002.32
192.28	2973.65
192.50	3966.92
192.72	3010.51
192.94	2969.55
193.16	3508.17
193.38	3403.72
193.60	2865.11
193.82	3102.67
194.04	3469.26
194.26	3387.34
194.48	2848.72
194.70	2918.36
194.92	3250.13
195.14	3346.38
195.36	2824.15
195.58	2979.79
195.80	3223.50
196.02	3092.43
196.24	2805.72
196.46	2926.55
196.69	3172.30
196.91	3739.59
197.13	2942.93
197.35	2828.24
197.57	3655.62
197.79	3403.72
198.01	2901.97
198.23	2910.16
198.45	3368.91
198.67	3092.43
198.89	2711.51
199.11	2955.22
199.33	3114.96
199.55	2930.64
199.77	2846.68
199.99	3055.57
200.21	3225.55
200.43	3327.95
200.65	2713.56
200.87	2772.95
201.09	3295.18
201.31	3280.85
201.53	2924.50
201.75	2963.41
201.97	3413.96
202.19	3266.51
202.41	2932.69
202.63	2996.18
202.85	3330.00
203.07	3309.52
203.29	2975.70
203.51	2723.80
203.73	3114.96
203.95	3747.78
204.17	2885.59
204.39	2971.60
204.61	3295.18
204.83	3225.55
205.05	3049.43
205.27	2828.24
205.49	3885.00
205.71	3278.80
205.93	2779.09
206.15	2742.23
206.37	3360.72
206.59	3260.37
206.81	2752.47
207.03	2795.48
207.25	3059.67
207.47	3422.16
207.69	2918.36
207.91	3147.73
208.13	3641.29
208.34	3145.68
208.56	2848.72
208.78	2893.78
209.00	3149.78
209.22	3211.22
209.44	2901.97
209.66	2807.77
209.88	3327.95
210.10	3289.04
210.32	2877.40
210.54	2936.79
210.76	3168.21
210.98	3485.64
211.20	2738.13
211.42	2955.22
211.64	3545.03
211.86	3387.34
212.08	2942.93
212.30	2942.93
212.52	3213.26
212.74	3389.39
212.96	2961.36
213.17	2916.31
213.39	3436.49
213.61	3637.19
213.83	2803.67
214.05	2688.98
214.27	3475.40
214.49	3028.95
214.71	2815.96
214.93	2992.08
215.15	3229.65
215.37	3403.72
215.59	2777.05
215.81	2918.36
216.03	3575.75
216.24	3209.17
216.46	2861.01
216.68	2912.21
216.90	3430.35
217.12	3530.70
217.34	2895.83
217.56	3006.42
217.78	3585.99
218.00	3379.15
218.22	2965.46
218.44	2981.84
218.66	3252.17
218.87	3649.48
219.09	2959.31
219.31	2895.83
219.53	3297.23
219.75	3311.57
219.97	2936.79
220.19	2883.54
220.41	3366.86
220.63	3592.14
220.85	2951.12
221.06	2918.36
221.28	3538.89
221.50	3512.27
221.72	2828.24
221.94	2797.53
222.16	3381.20
222.38	3430.35
222.60	2879.44
222.82	2949.08
223.03	3411.92
223.25	3104.72
223.47	2795.48
223.69	3096.53
223.91	3428.30
224.13	3307.47
224.35	2721.75
224.57	3100.62
224.78	3448.78
225.00	3121.10
225.22	3000.27
225.44	2830.29
225.66	3401.68
225.88	3182.54
226.10	3016.66
226.32	2893.78
226.53	3616.71
226.75	3246.03
226.97	2895.83
227.19	2850.77
227.41	3133.39
227.63	3207.12
227.85	2666.46
228.06	2889.68
228.28	3319.76
228.50	3450.83
228.72	2705.37
228.94	2901.97
229.16	2940.88
229.37	3026.90
229.59	2754.52
229.81	3135.44
230.03	3190.74
230.25	3037.14
230.47	2766.81
230.69	2779.09
230.90	3522.51
231.12	3053.52
231.34	3002.32
231.56	2918.36
231.78	2990.03
232.00	3235.79
232.21	2867.16
232.43	2877.40
232.65	2910.16
232.87	3352.52
233.09	2619.35
233.30	2791.38
233.52	3561.42
233.74	3278.80
233.96	2752.47
234.18	3059.67
234.40	3280.85
234.61	3798.98
234.83	2863.06
235.05	2777.05
235.27	3885.00
235.49	3553.23
235.70	2746.33
235.92	2928.60
236.14	3393.48
236.36	3782.60
236.58	2738.13
236.79	3000.27
237.01	3289.04
237.23	3190.74
237.45	3082.19
237.67	2881.49
237.88	3366.86
238.10	3573.71
238.32	2764.76
238.54	2858.96
238.76	3276.75
238.97	3110.86
239.19	2793.43
239.41	2940.88
239.63	3485.64
239.85	3153.87
240.06	2850.77
240.28	2863.06
240.50	3493.83
240.72	3346.38
240.93	2740.18
241.15	2992.08
241.37	3262.41
241.59	3465.16
241.81	2768.85
242.02	2899.92
242.24	3309.52
242.46	3438.54
242.68	2723.80
242.89	2854.87
243.11	3491.79
243.33	3239.89
243.55	2889.68
243.76	2891.73
243.98	3170.26
244.20	3327.95
244.42	2834.39
244.64	2865.11
244.85	3051.47
245.07	3033.04
245.29	2772.95
245.51	2856.92
245.72	3356.62
245.94	3475.40
246.16	2809.81
246.38	2912.21
246.59	3194.83
246.81	3147.73
247.03	2809.81
247.24	2746.33
247.46	3254.22
247.68	3295.18
247.90	2813.91
248.11	2897.88
248.33	3409.87
248.55	3209.17
248.77	2922.45
248.98	3014.61
249.20	3583.95
249.42	3299.28
249.64	2828.24
249.85	2762.71
250.07	3215.31
250.29	3346.38
250.50	2901.97
250.72	2768.85
250.94	3381.20
251.16	3692.49
251.37	2791.38
251.59	2934.74
251.81	3354.57
252.02	3510.22
252.24	2762.71
252.46	3018.71
252.68	3215.31
252.89	3182.54
253.11	2713.56
253.33	2969.55
253.54	3598.28
253.76	3039.19
253.98	2875.35
254.20	2848.72
254.41	3051.47
254.63	3250.13
254.85	2815.96
255.06	3016.66
255.28	3352.52
255.50	3282.89
255.71	2791.38
255.93	2713.56
256.15	3248.08
256.36	3416.01
256.58	2729.94
256.80	2865.11
257.02	3268.56
257.23	3123.15
257.45	2910.16
257.67	3037.14
257.88	3172.30
258.10	3366.86
258.32	2815.96
258.53	2951.12
258.75	3565.51
258.97	3121.10
259.18	2779.09
259.40	2850.77
259.62	3594.19
259.83	3516.36
260.05	2883.54
260.27	3790.79
260.48	3508.17
260.70	3090.38
260.92	2756.57
261.13	2852.82
261.35	3387.34
261.57	3309.52
261.78	2719.70
262.00	2748.37
262.22	3395.53
262.43	3123.15
262.65	2926.55
262.86	2895.83
263.08	3821.51
263.30	3301.33
263.51	2686.94
263.73	2854.87
263.95	3639.24
264.16	3133.39
264.38	2781.14
264.60	2822.10
264.81	3264.46
265.03	3475.40
265.25	3364.81
265.46	2820.05
265.68	3559.37
265.89	3489.74
266.11	2791.38
266.33	2893.78
266.54	3565.51
266.76	3409.87
266.98	3067.86
267.19	3037.14
267.41	3499.98
267.62	3213.26
267.84	2672.60
268.06	2940.88
268.27	3282.89
268.49	3545.03
268.70	2914.26
268.92	2820.05
269.14	3145.68
269.35	3008.47
269.57	3014.61
269.79	2971.60
270.00	3149.78
270.22	3610.57
270.43	2688.98
270.65	2684.89
270.87	3340.24
271.08	3418.06
271.30	2981.84
271.51	2942.93
271.73	3393.48
271.95	3516.36
272.16	2746.33
272.38	2987.99
272.59	3262.41
272.81	3436.49
273.02	2770.90
273.24	2977.75
273.46	3575.75
273.67	3010.51
273.89	2770.90
274.10	2822.10
274.32	3567.56
274.54	3262.41
274.75	2940.88
274.97	2969.55
275.18	3428.30
275.40	3286.99
275.61	2951.12
275.83	3057.62
276.05	3119.06
276.26	3221.45
276.48	2967.51
276.69	3000.27
276.91	3137.49
277.12	3598.28
277.34	2996.18
277.55	3137.49
277.77	3246.03
277.99	3252.17
278.20	2938.84
278.42	2877.40
278.63	3166.16
278.85	3028.95
279.06	2926.55
279.28	3100.62
279.49	3573.71
279.71	3422.16
279.93	3051.47
280.14	3045.33
280.36	3043.28
280.57	3489.74
280.79	3069.91
281.00	2805.72
281.22	3143.63
281.43	3483.59
281.65	2836.44
281.86	2867.16
282.08	3442.64
282.29	3688.39
282.51	2867.16
282.73	2867.16
282.94	3063.76
283.16	3469.26
283.37	3149.78
283.59	3053.52
283.80	3342.28
284.02	3237.84
284.23	3033.04
284.45	3047.38
284.66	3065.81
284.88	3155.92
285.09	2861.01
285.31	3104.72
285.52	3305.42
285.74	2955.22
285.95	3227.60
286.17	3028.95
286.38	3526.60
286.60	3207.12
286.81	2963.41
287.03	3024.85
287.24	3307.47
287.46	3420.11
287.67	3176.40
287.89	3221.45
288.10	3246.03
288.32	3280.85
288.53	3063.76
288.75	3086.29
288.96	3391.44
289.18	3090.38
289.39	2879.44
289.61	3071.95
289.82	3731.40
290.04	3682.25
290.25	2897.88
290.47	3121.10
290.68	3241.93
290.90	3463.12
291.11	2781.14
291.33	3143.63
291.54	3157.97
291.76	3145.68
291.97	3096.53
292.18	3098.58
292.40	3155.92
292.61	3180.50
292.83	3338.19
293.04	3008.47
293.26	3303.37
293.47	3215.31
293.69	2869.20
293.90	2826.20
294.12	3594.19
294.33	3254.22
294.55	3018.71
294.76	3139.54
294.97	3495.88
295.19	3706.82
295.40	2983.89
295.62	3098.58
295.83	3434.44
296.05	3184.59
296.26	3176.40
296.48	3020.75
296.69	3229.65
296.90	3117.01
297.12	3078.10
297.33	3219.41
297.55	3344.33
297.76	3395.53
297.98	3071.95
298.19	3182.54
298.41	3229.65
298.62	3127.25
298.83	3157.97
299.05	3108.82
299.26	3209.17
299.48	3037.14
299.69	3096.53
299.90	3016.66
300.12	3147.73
300.33	3286.99
300.55	2987.99
300.76	3100.62
300.98	3082.19
301.19	3477.45
301.40	2951.12
301.62	3024.85
301.83	3422.16
302.05	3319.76
302.26	2916.31
302.47	3098.58
302.69	3020.75
302.90	3235.79
303.12	2822.10
303.33	3106.77
303.54	3635.14
303.76	3162.06
303.97	2922.45
304.19	3160.02
304.40	3051.47
304.61	3418.06
304.83	3127.25
305.04	3012.56
305.26	3411.92
305.47	3157.97
305.68	3082.19
305.90	2803.67
306.11	3528.65
306.33	3172.30
306.54	2877.40
306.75	2953.17
306.97	3037.14
307.18	2987.99
307.39	3045.33
307.61	3110.86
307.82	3196.88
308.04	3336.14
308.25	2871.25
308.46	3155.92
308.68	3278.80
308.89	3215.31
309.10	3110.86
309.32	2998.23
309.53	3303.37
309.74	3411.92
309.96	2926.55
310.17	3114.96
310.39	3139.54
310.60	3385.29
310.81	3088.34
311.03	2934.74
311.24	3424.20
311.45	3256.27
311.67	3284.94
311.88	3125.20
312.09	3256.27
312.31	3123.15
312.52	2930.64
312.73	2967.51
312.95	3018.71
313.16	3041.23
313.37	3239.89
313.59	3192.78
313.80	3551.18
314.01	3526.60
314.23	3037.14
314.44	2920.40
314.65	3028.95
314.87	3090.38
315.08	3018.71
315.29	2975.70
315.51	3086.29
315.72	2910.16
315.93	3098.58
316.15	3049.43
316.36	3166.16
316.57	3254.22
316.79	3010.51
317.00	2840.53
317.21	3411.92
317.43	3030.99
317.64	3076.05
317.85	2953.17
318.07	3155.92
318.28	3246.03
318.49	3090.38
318.70	3160.02
318.92	3286.99
319.13	3393.48
319.34	3176.40
319.56	3043.28
319.77	3418.06
319.98	3416.01
320.20	3299.28
320.41	3141.58
320.62	3430.35
320.83	3112.91
321.05	3188.69
321.26	3016.66
321.47	3284.94
321.69	3483.59
321.90	2908.12
322.11	2922.45
322.32	3395.53
322.54	3573.71
322.75	2965.46
322.96	4001.73
323.18	2996.18
323.39	2914.26
323.60	2887.64
323.81	3106.77
324.03	3227.60
324.24	3297.23
324.45	3174.35
324.66	2959.31
324.88	3450.83
325.09	3653.58
325.30	2914.26
325.52	2981.84
325.73	3397.58
325.94	3067.86
326.15	2869.20
326.37	2871.25
326.58	3489.74
326.79	3598.28
327.00	2924.50
327.22	3012.56
327.43	3266.51
327.64	3123.15
327.85	3055.57
328.07	3100.62
328.28	3518.41
328.49	3168.21
328.70	3041.23
328.92	3020.75
329.13	3354.57
329.34	3420.11
329.55	3227.60
329.76	3180.50
329.98	3045.33
330.19	3549.13
330.40	3114.96
330.61	3125.20
330.83	3461.07
331.04	3078.10
331.25	3086.29
331.46	3082.19
331.68	3086.29
331.89	3434.44
332.10	3035.09
332.31	2822.10
332.52	3327.95
332.74	3563.47
332.95	2797.53
333.16	2967.51
333.37	3407.82
333.58	3145.68
333.80	3139.54
334.01	2850.77
334.22	3254.22
334.43	3182.54
334.64	2949.08
334.86	3016.66
335.07	3053.52
335.28	3579.85
335.49	2848.72
335.70	3069.91
335.92	3606.47
336.13	3762.12
336.34	3141.58
336.55	3000.27
336.76	3342.28
336.98	2795.48
337.19	3049.43
337.40	3127.25
337.61	3819.46
337.82	3207.12
338.04	3086.29
338.25	2834.39
338.46	3196.88
338.67	3172.30
338.88	2887.64
339.09	2959.31
339.31	3166.16
339.52	3092.43
339.73	2906.07
339.94	3041.23
340.15	3434.44
340.36	3194.83
340.58	3041.23
340.79	2922.45
341.00	3368.91
341.21	3035.09
341.42	3217.36
341.63	3020.75
341.85	3444.68
342.06	3385.29
342.27	2951.12
342.48	3108.82
342.69	3000.27
342.90	3338.19
343.12	3340.24
343.33	2936.79
343.54	3465.16
343.75	3545.03
343.96	3164.11
344.17	3014.61
344.38	3299.28
344.60	3051.47
344.81	2992.08
345.02	2932.69
345.23	3538.89
345.44	3801.03
345.65	3121.10
345.86	3067.86
346.07	3420.11
346.29	3131.34
346.50	3172.30
346.71	3065.81
346.92	3565.51
347.13	3813.32
347.34	3076.05
347.55	2865.11
347.76	3276.75
347.98	2971.60
348.19	3004.37
348.40	3143.63
348.61	3223.50
348.82	3692.49
349.03	3088.34
349.24	2918.36
349.45	3635.14
349.66	2881.49
349.88	2936.79
350.09	2873.30
350.30	3467.21
350.51	3551.18
350.72	3157.97
350.93	2985.94
351.14	3108.82
351.35	3344.33
351.56	3063.76
351.77	3139.54
351.99	3325.90
352.20	3491.79
352.41	3104.72
352.62	2840.53
352.83	3295.18
353.04	3198.93
353.25	2963.41
353.46	3071.95
353.67	3489.74
353.88	2951.12
354.09	2918.36
354.30	3084.24
354.52	3422.16
354.73	3235.79
354.94	2938.84
355.15	3119.06
355.36	3553.23
355.57	3108.82
355.78	2904.02
355.99	3088.34
356.20	3225.55
356.41	3495.88
356.62	3110.86
356.83	3026.90
357.04	3551.18
357.25	3000.27
357.46	2969.55
357.68	2895.83
357.89	3065.81
358.10	3180.50
358.31	2963.41
358.52	2959.31
358.73	3137.49
358.94	3096.53
359.15	3033.04
359.36	2998.23
359.57	3276.75
359.78	3213.26
359.99	3227.60
360.20	2891.73
360.41	3235.79
360.62	3389.39
360.83	3002.32
361.04	3061.71
361.25	3354.57
361.46	3577.80
361.67	3102.67
361.88	3069.91
362.09	3438.54
362.30	3379.15
362.51	2953.17
362.72	3106.77
362.93	3418.06
363.14	3350.48
363.35	3002.32
363.56	2985.94
363.78	3549.13
363.99	3499.98
364.20	2998.23
364.41	3069.91
364.62	3647.43
364.83	3321.81
365.04	3043.28
365.25	3028.95
365.46	3708.87
365.67	3133.39
365.88	3166.16
366.09	2971.60
366.30	3162.06
366.51	3266.51
366.72	2901.97
366.93	3053.52
367.14	3313.61
367.35	3504.07
367.56	2940.88
367.77	3114.96
367.98	3188.69
368.18	3477.45
368.39	3121.10
368.60	2992.08
368.81	3477.45
369.02	3409.87
369.23	3047.38
369.44	2863.06
369.65	3229.65
369.86	3426.25
370.07	3100.62
370.28	2865.11
370.49	3397.58
370.70	3291.09
370.91	2858.96
371.12	2895.83
371.33	3491.79
371.54	3223.50
371.75	3074.00
371.96	2734.04
372.17	3243.98
372.38	3289.04
372.59	2979.79
372.80	3012.56
373.01	3264.46
373.22	3239.89
373.43	3010.51
373.64	2869.20
373.85	3471.31
374.06	3530.70
374.26	3172.30
374.47	3139.54
374.68	3616.71
374.89	3289.04
375.10	2879.44
375.31	3166.16
375.52	3305.42
375.73	3299.28
375.94	2887.64
376.15	3065.81
376.36	3147.73
376.57	3162.06
376.78	3020.75
376.99	3037.14
377.20	3530.70
377.40	3315.66
377.61	3274.70
377.82	3004.37
378.03	3504.07
378.24	3321.81
378.45	3149.78
378.66	3117.01
378.87	2889.68
379.08	2983.89
379.29	3030.99
379.50	3160.02
379.71	3299.28
379.91	3422.16
380.12	3014.61
380.33	3108.82
380.54	3307.47
380.75	3196.88
380.96	3035.09
381.17	3047.38
381.38	3225.55
381.59	3243.98
381.80	3133.39
382.00	3221.45
382.21	3317.71
382.42	3592.14
382.63	3403.72
382.84	3184.59
383.05	3442.64
383.26	3540.94
383.47	3080.14
383.68	2967.51
383.88	3413.96
384.09	3319.76
384.30	3233.74
384.51	3203.02
384.72	3170.26
384.93	3008.47
385.14	3059.67
385.35	3213.26
385.55	3002.32
385.76	3559.37
385.97	3006.42
386.18	2832.34
386.39	3198.93
386.60	3239.89
386.81	2987.99
387.02	2920.40
387.22	3035.09
387.43	3416.01
387.64	3117.01
387.85	3229.65
388.06	3282.89
388.27	4419.52
388.48	7657.36
388.68	11958.09
388.89	14999.32
389.10	16357.13
389.31	16027.40
389.52	12859.20
389.73	11179.86
389.93	10293.09
390.14	9279.35
390.35	8537.98
390.56	7808.90
390.77	6614.94
390.98	4968.37
391.18	4270.01
391.39	3868.61
391.60	3327.95
391.81	3313.61
392.02	2994.13
392.23	3743.69
392.43	3330.00
392.64	3166.16
392.85	3151.82
393.06	3557.32
393.27	3280.85
393.47	2932.69
393.68	3049.43
393.89	3219.41
394.10	3592.14
394.31	2936.79
394.52	2951.12
394.72	3155.92
394.93	3510.22
395.14	2938.84
395.35	3127.25
395.56	3141.58
395.76	3350.48
395.97	3024.85
396.18	3151.82
396.39	3303.37
396.60	3987.40
396.80	3401.68
397.01	3305.42
397.22	3454.92
397.43	3432.40
397.64	3018.71
397.84	3190.74
398.05	3657.67
398.26	3157.97
398.47	3182.54
398.67	3205.07
398.88	3373.00
399.09	3393.48
399.30	3024.85
399.51	3110.86
399.71	3104.72
399.92	3270.61
400.13	3129.30
400.34	3024.85
400.54	3307.47
400.75	3565.51
400.96	3258.32
401.17	3377.10
401.37	3344.33
401.58	3278.80
401.79	3051.47
402.00	3157.97
402.21	3796.93
402.41	3565.51
402.62	3348.43
402.83	3545.03
403.04	3694.54
403.24	4069.31
403.45	3227.60
403.66	3418.06
403.87	3454.92
404.07	3592.14
404.28	3315.66
404.49	3356.62
404.70	3434.44
404.90	3336.14
405.11	3049.43
405.32	3174.35
405.52	3133.39
405.73	3135.44
405.94	2942.93
406.15	3125.20
406.35	3364.81
406.56	3495.88
406.77	3002.32
406.98	3076.05
407.18	3162.06
407.39	3579.85
407.60	3104.72
407.80	3174.35
408.01	3094.48
408.22	3481.55
408.43	3018.71
408.63	3084.24
408.84	3499.98
409.05	3518.41
409.25	3014.61
409.46	3069.91
409.67	3217.36
409.88	3155.92
410.08	3094.48
410.29	3041.23
410.50	3438.54
410.70	3405.77
410.91	2940.88
411.12	3108.82
411.32	3264.46
411.53	3082.19
411.74	3000.27
411.95	3223.50
412.15	3321.81
412.36	3454.92
412.57	3250.13
412.77	3233.74
412.98	3180.50
413.19	3155.92
413.39	3143.63
413.60	3153.87
413.81	3608.52
414.01	3082.19
414.22	3049.43
414.43	3305.42
414.63	3149.78
414.84	3557.32
415.05	3035.09
415.25	2877.40
415.46	3483.59
415.67	3178.45
415.87	3051.47
416.08	3024.85
416.29	3227.60
416.49	3344.33
416.70	3112.91
416.91	3061.71
417.11	3145.68
417.32	3567.56
417.53	3147.73
417.73	3180.50
417.94	3340.24
418.15	3297.23
418.35	3127.25
418.56	3065.81
418.77	3719.11
418.97	3293.13
419.18	3143.63
419.38	2787.29
419.59	3260.37
419.80	3512.27
420.00	2934.74
420.21	3063.76
420.42	3555.27
420.62	3409.87
420.83	3071.95
421.04	3092.43
421.24	3250.13
421.45	3411.92
421.65	3000.27
421.86	3057.62
422.07	3616.71
422.27	3332.05
422.48	2963.41
422.69	2914.26
422.89	3164.11
423.10	3223.50
423.30	3004.37
423.51	3110.86
423.72	3438.54
423.92	3422.16
424.13	2930.64
424.33	3065.81
424.54	3442.64
424.75	3354.57
424.95	3323.85
425.16	2979.79
425.36	3254.22
425.57	3463.12
425.78	3215.31
425.98	3082.19
426.19	3264.46
426.39	3123.15
426.60	3125.20
426.81	3229.65
427.01	3465.16
427.22	3043.28
427.42	2836.44
427.63	2969.55
427.83	3467.21
428.04	3672.01
428.25	3106.77
428.45	3108.82
428.66	3526.60
428.86	3278.80
429.07	3063.76
429.28	3078.10
429.48	3274.70
429.69	3102.67
429.89	3082.19
430.10	2977.75
430.30	3430.35
430.51	3491.79
430.71	2983.89
430.92	3024.85
431.13	3184.59
431.33	3463.12
431.54	3166.16
431.74	3221.45
431.95	3745.73
432.15	3149.78
432.36	3033.04
432.56	3139.54
432.77	3747.78
432.98	3641.29
433.18	3176.40
433.39	2942.93
433.59	3268.56
433.80	3663.82
434.00	3297.23
434.21	3155.92
434.41	3090.38
434.62	3760.07
434.82	2922.45
435.03	2938.84
435.23	3399.63
435.44	3028.95
435.64	3028.95
435.85	3157.97
436.06	3440.59
436.26	3516.36
436.47	3012.56
436.67	3014.61
436.88	3248.08
437.08	3542.99
437.29	3162.06
437.49	3196.88
437.70	3604.42
437.90	3200.98
438.11	3264.46
438.31	3131.34
438.52	3604.42
438.72	3491.79
438.93	3373.00
439.13	3239.89
439.34	3413.96
439.54	3168.21
439.75	3231.69
439.95	3172.30
440.16	3094.48
440.36	3266.51
440.57	3082.19
440.77	3051.47
440.98	3297.23
441.18	3454.92
441.39	2914.26
441.59	2994.13
441.80	3751.88
442.00	3266.51
442.21	3231.69
442.41	2926.55
442.62	3424.20
442.82	3061.71
443.02	3100.62
443.23	3080.14
443.43	3203.02
443.64	3504.07
443.84	2949.08
444.05	3160.02
444.25	3303.37
444.46	3125.20
444.66	3080.14
444.87	3221.45
445.07	3033.04
445.28	3190.74
445.48	3330.00
445.69	3164.11
445.89	3753.93
446.09	3278.80
446.30	3370.96
446.50	3499.98
446.71	5060.53
446.91	6205.35
447.12	7034.77
447.32	7528.33
447.53	7657.36
447.73	6266.78
447.93	5447.60
448.14	5369.77
448.34	5384.11
448.55	4401.08
448.75	4392.89
448.96	4227.01
449.16	4134.85
449.36	3893.19
449.57	3323.85
449.77	3108.82
449.98	3155.92
450.18	3362.76
450.39	2963.41
450.59	3248.08
450.79	3295.18
451.00	3221.45
451.20	3342.28
451.41	3088.34
451.61	3346.38
451.81	3237.84
452.02	2963.41
452.22	3121.10
452.43	3160.02
452.63	3074.00
452.84	3117.01
453.04	3043.28
453.24	3332.05
453.45	3102.67
453.65	3063.76
453.86	3084.24
454.06	3342.28
454.26	3352.52
454.47	3035.09
454.67	3246.03
454.87	3420.11
455.08	3264.46
455.28	3262.41
455.49	3231.69
455.69	3090.38
455.89	3608.52
456.10	3110.86
456.30	2996.18
456.51	3416.01
456.71	3270.61
456.91	3207.12
457.12	3028.95
457.32	3420.11
457.52	3057.62
457.73	3264.46
457.93	3229.65
458.14	3241.93
458.34	2979.79
458.54	3155.92
458.75	2961.36
458.95	3495.88
459.15	3368.91
459.36	3176.40
459.56	3051.47
459.76	3702.73
459.97	3233.74
460.17	3033.04
460.37	3139.54
460.58	3303.37
460.78	3454.92
460.99	3098.58
461.19	3065.81
461.39	3256.27
461.60	3264.46
461.80	3211.22
462.00	2920.40
462.21	3233.74
462.41	3155.92
462.61	2961.36
462.82	2893.78
463.02	3438.54
463.22	3340.24
463.43	3145.68
463.63	3000.27
463.83	3577.80
464.04	3391.44
464.24	3041.23
464.44	2951.12
464.64	3370.96
464.85	3362.76
465.05	3096.53
465.25	3047.38
465.46	3149.78
465.66	3354.57
465.86	3194.83
466.07	3057.62
466.27	3254.22
466.47	3067.86
466.68	2926.55
466.88	3149.78
467.08	3487.69
467.29	3401.68
467.49	3078.10
467.69	3174.35
467.89	3397.58
468.10	3155.92
468.30	3166.16
468.50	3166.16
468.71	3407.82
468.91	2885.59
469.11	3229.65
469.31	3219.41
469.52	3094.48
469.72	3674.06
469.92	3303.37
470.13	3024.85
470.33	3319.76
470.53	3375.05
470.73	3575.75
470.94	3805.13
471.14	4116.42
471.34	4804.53
471.54	4411.32
471.75	4106.18
471.95	3792.84
472.15	3805.13
472.36	3798.98
472.56	3461.07
472.76	3876.80
472.96	3725.26
473.17	3409.87
473.37	3319.76
473.57	3280.85
473.77	3383.24
473.98	3188.69
474.18	2963.41
474.38	4003.78
474.58	3166.16
474.79	2981.84
474.99	3166.16
475.19	3569.61
475.39	3092.43
475.60	3112.91
475.80	3037.14
476.00	3282.89
476.20	3256.27
476.41	3137.49
476.61	3094.48
476.81	3532.75
477.01	3092.43
477.21	3336.14
477.42	3147.73
477.62	3112.91
477.82	3426.25
478.02	2985.94
478.23	3106.77
478.43	3037.14
478.63	3262.41
478.83	3024.85
479.03	3155.92
479.24	3614.66
479.44	3725.26
479.64	2975.70
479.84	2785.24
480.04	3131.34
480.25	3504.07
480.45	2985.94
480.65	2920.40
480.85	3604.42
481.06	3096.53
481.26	3137.49
481.46	3043.28
481.66	3332.05
481.86	3104.72
482.06	3223.50
482.27	3088.34
482.47	3160.02
482.67	3354.57
482.87	3063.76
483.07	3121.10
483.28	3135.44
483.48	3033.04
483.68	3030.99
483.88	2869.20
484.08	2873.30
484.29	3082.19
484.49	3114.96
484.69	2856.92
484.89	3512.27
485.09	3524.55
485.29	3063.76
485.50	3264.46
485.70	3213.26
485.90	3567.56
486.10	3278.80
486.30	3069.91
486.50	3499.98
486.71	3319.76
486.91	3127.25
487.11	3065.81
487.31	3047.38
487.51	3338.19
487.71	2949.08
487.91	2944.98
488.12	3098.58
488.32	2762.71
488.52	3033.04
488.72	2815.96
488.92	3319.76
489.12	3459.02
489.32	3215.31
489.53	3065.81
489.73	3051.47
489.93	3596.23
490.13	3074.00
490.33	2893.78
490.53	3231.69
490.73	3520.46
490.94	2824.15
491.14	3180.50
491.34	3393.48
491.54	3405.77
491.74	4016.07
491.94	4478.91
492.14	5083.06
492.34	5156.79
492.54	4734.90
492.75	4028.35
492.95	4325.31
493.15	4089.79
493.35	3870.66
493.55	3682.25
493.75	3690.44
493.95	3942.34
494.15	3352.52
494.35	3237.84
494.56	3168.21
494.76	3123.15
494.96	3213.26
495.16	3043.28
495.36	3311.57
495.56	3319.76
495.76	3049.43
495.96	3125.20
496.16	3141.58
496.36	3637.19
496.56	3045.33
496.77	3065.81
496.97	3289.04
497.17	3542.99
497.37	2826.20
497.57	3168.21
497.77	3246.03
497.97	3051.47
498.17	3028.95
498.37	2994.13
498.57	3354.57
498.77	3157.97
498.97	3182.54
499.17	3377.10
499.38	3098.58
499.58	3366.86
499.78	3221.45
499.98	3241.93
500.18	3188.69
500.38	3080.14
500.58	3264.46
500.78	3680.20
500.98	6143.91
501.18	8372.10
501.38	9850.73
501.58	10747.74
501.78	10911.58
501.98	8955.77
502.18	7495.57
502.38	6377.37
502.58	6485.92
502.78	5566.38
502.98	5451.69
503.18	5289.90
503.38	4911.03
503.59	4229.06
503.79	4083.65
503.99	3678.15
504.19	3934.15
504.39	3958.72
504.59	3696.58
504.79	3700.68
504.99	4001.73
505.19	3616.71
505.39	3342.28
505.59	3600.33
505.79	3805.13
505.99	3563.47
506.19	3227.60
506.39	3327.95
506.59	3317.71
506.79	3182.54
506.99	3301.33
507.19	2992.08
507.39	3309.52
507.59	2994.13
507.79	3035.09
507.99	3043.28
508.19	3311.57
508.39	3110.86
508.59	3057.62
508.79	3149.78
508.99	3622.86
509.19	3076.05
509.39	3100.62
509.59	2953.17
509.79	3123.15
509.99	3319.76
510.19	3221.45
510.39	3141.58
510.59	3274.70
510.79	3205.07
510.99	2942.93
511.19	3041.23
511.39	3569.61
511.59	3493.83
511.79	3215.31
511.99	3033.04
512.19	3735.50
512.38	3289.04
512.58	3008.47
512.78	3059.67
512.98	3481.55
513.18	3614.66
513.38	2926.55
513.58	3180.50
513.78	3166.16
513.98	3342.28
514.18	3114.96
514.38	2961.36
514.58	3375.05
514.78	3147.73
514.98	3051.47
515.18	3090.38
515.38	3014.61
515.58	3637.19
515.78	3078.10
515.98	3100.62
516.18	3356.62
516.38	3262.41
516.57	3074.00
516.77	3033.04
516.97	3389.39
517.17	3100.62
517.37	2838.48
517.57	3162.06
517.77	3243.98
517.97	3114.96
518.17	3117.01
518.37	2942.93
518.57	3123.15
518.77	3205.07
518.97	3131.34
519.16	3123.15
519.36	3516.36
519.56	3143.63
519.76	2969.55
519.96	3104.72
520.16	3581.90
520.36	2994.13
520.56	3239.89
520.76	3039.19
520.96	3188.69
521.16	3495.88
521.35	3342.28
521.55	3272.65
521.75	3307.47
521.95	3213.26
522.15	3043.28
522.35	2871.25
522.55	3190.74
522.75	3491.79
522.95	2963.41
523.14	2867.16
523.34	3309.52
523.54	3133.39
523.74	3246.03
523.94	3123.15
524.14	2994.13
524.34	3401.68
524.54	3266.51
524.73	3049.43
524.93	3499.98
525.13	3254.22
525.33	2934.74
525.53	3336.14
525.73	3391.44
525.93	3266.51
526.13	3012.56
526.32	2996.18
526.52	3395.53
526.72	3393.48
526.92	3147.73
527.12	2983.89
527.32	3049.43
527.52	3330.00
527.71	3033.04
527.91	3045.33
528.11	3205.07
528.31	3194.83
528.51	3067.86
528.71	3229.65
528.90	3459.02
529.10	3506.12
529.30	3053.52
529.50	2736.09
529.70	3391.44
529.90	3258.32
530.09	3053.52
530.29	2869.20
530.49	3176.40
530.69	3856.33
530.89	3221.45
531.09	3149.78
531.28	3166.16
531.48	3567.56
531.68	3057.62
531.88	3110.86
532.08	3448.78
532.28	3213.26
532.47	3129.30
532.67	3188.69
532.87	3387.34
533.07	3047.38
533.27	3096.53
533.46	3209.17
533.66	3262.41
533.86	3205.07
534.06	3155.92
534.26	2990.03
534.45	3211.22
534.65	3444.68
534.85	3252.17
535.05	2910.16
535.25	3366.86
535.44	2942.93
535.64	3143.63
535.84	3078.10
536.04	3164.11
536.24	3221.45
536.43	3033.04
536.63	3016.66
536.83	3297.23
537.03	3293.13
537.22	2854.87
537.42	2863.06
537.62	3278.80
537.82	3057.62
538.02	3225.55
538.21	3125.20
538.41	3895.24
538.61	3370.96
538.81	3063.76
539.00	3209.17
539.20	3041.23
539.40	3176.40
539.60	3000.27
539.79	3237.84
539.99	3362.76
540.19	3098.58
540.39	3131.34
540.58	3129.30
540.78	3483.59
540.98	3352.52
541.18	3282.89
541.37	3139.54
541.57	3407.82
541.77	3340.24
541.97	2951.12
542.16	2967.51
542.36	3133.39
542.56	3106.77
542.76	3270.61
542.95	3139.54
543.15	3334.09
543.35	3399.63
543.54	3008.47
543.74	3014.61
543.94	3577.80
544.14	3141.58
544.33	3166.16
544.53	3063.76
544.73	3258.32
544.93	3164.11
545.12	3076.05
545.32	3110.86
545.52	3203.02
545.71	2955.22
545.91	3074.00
546.11	2942.93
546.30	3125.20
546.50	3209.17
546.70	3157.97
546.90	3057.62
547.09	2969.55
547.29	3262.41
547.49	3170.26
547.68	3035.09
547.88	3123.15
548.08	3383.24
548.27	3309.52
548.47	3061.71
548.67	3217.36
548.87	3346.38
549.06	2975.70
549.26	3018.71
549.46	3325.90
549.65	3153.87
549.85	3127.25
550.05	2996.18
550.24	3004.37
550.44	3227.60
550.64	3082.19
550.83	3096.53
551.03	3497.93
551.23	3510.22
551.42	3231.69
551.62	3180.50
551.82	3219.41
552.01	3182.54
552.21	3393.48
552.41	3084.24
552.60	3590.09
552.80	3313.61
553.00	2996.18
553.19	3067.86
553.39	3622.86
553.59	3004.37
553.78	3186.64
553.98	3063.76
554.17	2959.31
554.37	3354.57
554.57	3176.40
554.76	2877.40
554.96	3172.30
555.16	3319.76
555.35	3141.58
555.55	3221.45
555.75	3352.52
555.94	3448.78
556.14	2844.63
556.33	3157.97
556.53	3268.56
556.73	3299.28
556.92	3094.48
557.12	3002.32
557.32	3585.99
557.51	3483.59
557.71	3119.06
557.90	3231.69
558.10	3575.75
558.30	3168.21
558.49	3051.47
558.69	3014.61
558.88	3434.44
559.08	3295.18
559.28	3088.34
559.47	3090.38
559.67	3344.33
559.86	3672.01
560.06	2969.55
560.26	3080.14
560.45	3516.36
560.65	3168.21
560.84	3356.62
561.04	3016.66
561.24	3377.10
561.43	3074.00
561.63	3385.29
561.82	3172.30
562.02	3405.77
562.22	3098.58
562.41	3065.81
562.61	3063.76
562.80	2998.23
563.00	3710.92
563.19	3127.25
563.39	3188.69
563.59	3299.28
563.78	2953.17
563.98	2818.00
564.17	3092.43
564.37	2930.64
564.56	3246.03
564.76	2947.03
564.96	3098.58
565.15	3317.71
565.35	3672.01
565.54	3049.43
565.74	3131.34
565.93	3409.87
566.13	3180.50
566.32	3086.29
566.52	3121.10
566.71	3200.98
566.91	3434.44
567.11	3334.09
567.30	3012.56
567.50	3344.33
567.69	3356.62
567.89	3041.23
568.08	3012.56
568.28	3266.51
568.47	3098.58
568.67	3078.10
568.86	3014.61
569.06	3491.79
569.25	3166.16
569.45	2926.55
569.64	3082.19
569.84	3268.56
570.04	3299.28
570.23	3037.14
570.43	3074.00
570.62	3336.14
570.82	3590.09
571.01	3020.75
571.21	3133.39
571.40	3166.16
571.60	3411.92
571.79	3186.64
571.99	3002.32
572.18	3024.85
572.38	3334.09
572.57	3106.77
572.77	3188.69
572.96	3817.41
573.16	3299.28
573.35	2994.13
573.55	3155.92
573.74	3405.77
573.94	3254.22
574.13	3069.91
574.33	3272.65
574.52	3395.53
574.71	3346.38
574.91	3155.92
575.10	2949.08
575.30	3172.30
575.49	3000.27
575.69	2963.41
575.88	2967.51
576.08	3227.60
576.27	3493.83
576.47	3002.32
576.66	3162.06
576.86	3565.51
577.05	3362.76
577.25	3188.69
577.44	3213.26
577.64	3135.44
577.83	3434.44
578.02	3094.48
578.22	3192.78
578.41	3712.97
578.61	3162.06
578.80	2906.07
579.00	3114.96
579.19	3180.50
579.39	3413.96
579.58	3182.54
579.77	3055.57
579.97	3522.51
580.16	3512.27
580.36	3235.79
580.55	3168.21
580.75	3360.72
580.94	3299.28
581.13	3231.69
581.33	3323.85
581.52	3209.17
581.72	3686.34
581.91	3221.45
582.11	3041.23
582.30	3450.83
582.49	3311.57
582.69	3426.25
582.88	3114.96
583.08	3422.16
583.27	3379.15
583.47	3227.60
583.66	3043.28
583.85	3106.77
584.05	3213.26
584.24	3223.50
584.44	3080.14
584.63	3442.64
584.82	3547.08
585.02	3366.86
585.21	3229.65
585.41	3354.57
585.60	3309.52
585.79	3317.71
585.99	3278.80
586.18	3338.19
586.37	4204.48
586.57	6246.30
586.76	17692.40
586.96	37080.52
587.15	49933.57
587.34	58619.01
587.54	62147.66
587.73	55604.40
587.93	40058.27
588.12	30928.42
588.31	25011.84
588.51	22281.90
588.70	20604.61
588.89	18441.96
589.09	15824.65
589.28	13569.84
589.47	10671.97
589.67	8095.62
589.86	6393.76
590.06	5056.43
590.25	4429.76
590.44	3831.75
590.64	3508.17
590.83	3571.66
591.02	3606.47
591.22	3098.58
591.41	3213.26
591.60	3289.04
591.80	3805.13
591.99	2906.07
592.18	3002.32
592.38	3481.55
592.57	3151.82
592.76	3106.77
592.96	3141.58
593.15	3198.93
593.34	3467.21
593.54	3108.82
593.73	3131.34
593.92	3442.64
594.12	3360.72
594.31	3102.67
594.50	3278.80
594.70	3418.06
594.89	3825.61
595.08	2992.08
595.28	3270.61
595.47	4001.73
595.66	3485.64
595.86	3016.66
596.05	2959.31
596.24	3205.07
596.43	3667.91
596.63	3133.39
596.82	3211.22
597.01	3301.33
597.21	3620.81
597.40	3041.23
597.59	3065.81
597.79	3243.98
597.98	3375.05
598.17	3164.11
598.36	3016.66
598.56	3428.30
598.75	3102.67
598.94	3176.40
599.14	3092.43
599.33	3160.02
599.52	3438.54
599.71	3117.01
599.91	3149.78
600.10	3416.01
600.29	3231.69
600.48	3106.77
600.68	3196.88
600.87	3336.14
601.06	3071.95
601.26	3176.40
601.45	3172.30
601.64	3186.64
601.83	3663.82
602.03	3000.27
602.22	2926.55
602.41	3465.16
602.60	3715.02
602.80	3174.35
602.99	3217.36
603.18	3176.40
603.37	3258.32
603.57	3074.00
603.76	3063.76
603.95	3598.28
604.14	3207.12
604.34	3041.23
604.53	3100.62
604.72	3246.03
604.91	3565.51
605.10	3078.10
605.30	2985.94
605.49	3696.58
605.68	3403.72
605.87	3108.82
606.07	3065.81
606.26	3383.24
606.45	3409.87
606.64	3030.99
606.84	2944.98
607.03	3219.41
607.22	3442.64
607.41	3114.96
607.60	3039.19
607.80	3499.98
607.99	3225.55
608.18	3018.71
608.37	3162.06
608.56	3082.19
608.76	3520.46
608.95	3250.13
609.14	3084.24
609.33	3573.71
609.52	3674.06
609.72	3172.30
609.91	3237.84
610.10	3354.57
610.29	3618.76
610.48	3213.26
610.68	3213.26
610.87	3274.70
611.06	3516.36
611.25	3151.82
611.44	3215.31
611.63	3182.54
611.83	3448.78
612.02	2973.65
612.21	3243.98
612.40	2947.03
612.59	3080.14
612.79	2996.18
612.98	3166.16
613.17	3639.24
613.36	3321.81
613.55	3254.22
613.74	3061.71
613.93	3375.05
614.13	3411.92
614.32	3364.81
614.51	3112.91
614.70	3305.42
614.89	3237.84
615.08	3239.89
615.28	3551.18
615.47	3004.37
615.66	3295.18
615.85	3209.17
616.04	3153.87
616.23	3364.81
616.42	3264.46
616.62	3084.24
616.81	3133.39
617.00	3264.46
617.19	3467.21
617.38	3055.57
617.57	3155.92
617.76	3409.87
617.95	3379.15
618.15	3256.27
618.34	3338.19
618.53	2977.75
618.72	3461.07
618.91	3205.07
619.10	3129.30
619.29	3340.24
619.48	3209.17
619.68	3012.56
619.87	3020.75
620.06	2930.64
620.25	3428.30
620.44	3053.52
620.63	3053.52
620.82	3252.17
621.01	3280.85
621.20	3123.15
621.39	3174.35
621.59	3420.11
621.78	3239.89
621.97	3000.27
622.16	3221.45
622.35	3340.24
622.54	3477.45
622.73	3147.73
622.92	2840.53
623.11	3479.50
623.30	3241.93
623.49	3231.69
623.68	2889.68
623.88	3514.31
624.07	3157.97
624.26	2971.60
624.45	3078.10
624.64	3246.03
624.83	3370.96
625.02	3112.91
625.21	3078.10
625.40	3330.00
625.59	3516.36
625.78	3172.30
625.97	3190.74
626.16	3585.99
626.35	3407.82
626.54	3076.05
626.74	3270.61
626.93	3291.09
627.12	3260.37
627.31	3149.78
627.50	3086.29
627.69	3502.03
627.88	3076.05
628.07	3000.27
628.26	2947.03
628.45	3112.91
628.64	3080.14
628.83	3037.14
629.02	2863.06
629.21	3409.87
629.40	3387.34
629.59	2906.07
629.78	3055.57
629.97	3272.65
630.16	3389.39
630.35	3012.56
630.54	3141.58
630.73	3186.64
630.92	3246.03
631.11	3030.99
631.30	3129.30
631.49	3493.83
631.68	3280.85
631.87	3053.52
632.06	2957.27
632.25	3776.45
632.44	3317.71
632.63	3135.44
632.82	3108.82
633.01	3225.55
633.20	3448.78
633.39	3170.26
633.58	2938.84
633.77	3336.14
633.96	3393.48
634.15	3221.45
634.34	3174.35
634.53	3395.53
634.72	3094.48
634.91	2928.60
635.10	3057.62
635.29	3563.47
635.48	3280.85
635.67	2963.41
635.86	2969.55
636.05	3583.95
636.24	3270.61
636.43	3082.19
636.62	3104.72
636.81	2858.96
637.00	3309.52
637.19	3057.62
637.38	3117.01
637.57	3272.65
637.76	3233.74
637.95	3211.22
638.14	3254.22
638.33	3297.23
638.52	3270.61
638.71	3002.32
638.89	2947.03
639.08	3790.79
639.27	3436.49
639.46	3366.86
639.65	3696.58
639.84	3887.04
640.03	4063.17
640.22	3659.72
640.41	3604.42
640.60	3459.02
640.79	3551.18
640.98	3319.76
641.17	3409.87
641.36	3459.02
641.55	3522.51
641.74	2951.12
641.92	3008.47
642.11	3143.63
642.30	3205.07
642.49	3041.23
642.68	3016.66
642.87	3348.43
643.06	3411.92
643.25	2922.45
643.44	2955.22
643.63	3225.55
643.82	3409.87
644.00	3014.61
644.19	3057.62
644.38	3043.28
644.57	3370.96
644.76	3065.81
644.95	3145.68
645.14	3364.81
645.33	3209.17
645.52	3151.82
645.71	2922.45
645.89	3137.49
646.08	3217.36
646.27	3030.99
646.46	3274.70
646.65	3000.27
646.84	3336.14
647.03	3024.85
647.22	3205.07
647.40	3301.33
647.59	3256.27
647.78	2867.16
647.97	3069.91
648.16	3090.38
648.35	3600.33
648.54	3311.57
648.73	3117.01
648.91	3456.97
649.10	3282.89
649.29	2949.08
649.48	2990.03
649.67	3375.05
649.86	3360.72
650.05	3092.43
650.23	3293.13
650.42	3274.70
650.61	3573.71
650.80	3381.20
650.99	3313.61
651.18	3459.02
651.36	3512.27
651.55	3002.32
651.74	3182.54
651.93	3182.54
652.12	3215.31
652.31	3114.96
652.49	3100.62
652.68	3221.45
652.87	3567.56
653.06	3194.83
653.25	3330.00
653.44	3229.65
653.62	3641.29
653.81	3129.30
654.00	3065.81
654.19	3454.92
654.38	3817.41
654.56	3176.40
654.75	3119.06
654.94	3432.40
655.13	3284.94
655.32	3096.53
655.51	3141.58
655.69	3125.20
655.88	3428.30
656.07	2881.49
656.26	3176.40
656.45	2981.84
656.63	3303.37
656.82	3026.90
657.01	3307.47
657.20	3153.87
657.38	3569.61
657.57	3049.43
657.76	2854.87
657.95	3481.55
658.14	3196.88
658.32	3237.84
658.51	2944.98
658.70	3315.66
658.89	3319.76
659.08	3110.86
659.26	3346.38
659.45	3143.63
659.64	3338.19
659.83	3133.39
660.01	3454.92
660.20	3370.96
660.39	3631.05
660.58	2824.15
660.76	3098.58
660.95	3014.61
661.14	3147.73
661.33	2799.57
661.51	3076.05
661.70	3198.93
661.89	3411.92
662.08	3139.54
662.26	2973.65
662.45	3114.96
662.64	3639.24
662.83	3178.45
663.01	2951.12
663.20	3184.59
663.39	3520.46
663.58	3092.43
663.76	3078.10
663.95	3401.68
664.14	3127.25
664.32	3086.29
664.51	2990.03
664.70	2936.79
664.89	3262.41
665.07	2920.40
665.26	3151.82
665.45	3045.33
665.64	3354.57
665.82	3084.24
666.01	3129.30
666.20	3057.62
666.38	3469.26
666.57	3426.25
666.76	5629.87
666.95	12707.65
667.13	20350.67
667.32	24612.49
667.51	27946.58
667.69	28698.19
667.88	24086.16
668.07	17321.72
668.25	14677.79
668.44	12748.61
668.63	10950.49
668.81	9654.12
669.00	8341.38
669.19	7692.17
669.38	6768.54
669.56	5734.31
669.75	4935.60
669.94	4327.36
670.12	3751.88
670.31	3405.77
670.50	3332.05
670.68	3467.21
670.87	3385.29
671.06	3022.80
671.24	3117.01
671.43	3553.23
671.62	3315.66
671.80	3160.02
671.99	3190.74
672.18	3289.04
672.36	3483.59
672.55	3196.88
672.74	3078.10
672.92	3192.78
673.11	3360.72
673.29	2885.59
673.48	3272.65
673.67	3291.09
673.85	3485.64
674.04	3030.99
674.23	3194.83
674.41	3635.14
674.60	3041.23
674.79	2895.83
674.97	2961.36
675.16	3422.16
675.34	3579.85
675.53	3082.19
675.72	3082.19
675.90	3688.39
676.09	3231.69
676.28	3207.12
676.46	2887.64
676.65	3356.62
676.83	3069.91
677.02	3026.90
677.21	3174.35
677.39	3397.58
677.58	3096.53
677.77	3043.28
677.95	3041.23
678.14	3190.74
678.32	3231.69
678.51	3149.78
678.70	3454.92
678.88	3203.02
679.07	3280.85
679.25	3071.95
679.44	3184.59
679.63	3028.95
679.81	3301.33
680.00	3360.72
680.18	3178.45
680.37	3563.47
680.55	3332.05
680.74	2938.84
680.93	2852.82
681.11	3393.48
681.30	3293.13
681.48	3010.51
681.67	3057.62
681.85	3293.13
682.04	3082.19
682.23	3266.51
682.41	3176.40
682.60	3237.84
682.78	3250.13
682.97	3035.09
683.15	3184.59
683.34	3354.57
683.53	3545.03
683.71	2906.07
683.90	3137.49
684.08	3518.41
684.27	3186.64
684.45	3110.86
684.64	3274.70
684.82	3297.23
685.01	3346.38
685.19	3059.67
685.38	3377.10
685.57	3313.61
685.75	3141.58
685.94	3000.27
686.12	3028.95
686.31	3186.64
686.49	3629.00
686.68	2852.82
686.86	3096.53
687.05	3256.27
687.23	3573.71
687.42	3174.35
687.60	2959.31
687.79	3495.88
687.97	3467.21
688.16	3160.02
688.34	3286.99
688.53	2942.93
688.71	3397.58
688.90	3360.72
689.08	3106.77
689.27	2934.74
689.45	3481.55
689.64	3241.93
689.82	3125.20
690.01	3278.80
690.19	3418.06
690.38	3131.34
690.56	3205.07
690.75	3157.97
690.93	3215.31
691.12	3067.86
691.30	3117.01
691.49	3137.49
691.67	3229.65
691.86	3391.44
692.04	3133.39
692.23	3155.92
692.41	3338.19
692.60	3452.88
692.78	3323.85
692.97	3266.51
693.15	3350.48
693.34	3264.46
693.52	3323.85
693.71	3203.02
693.89	3149.78
694.08	2920.40
694.26	3137.49
694.44	3526.60
694.63	3424.20
694.81	2955.22
695.00	3045.33
695.18	3481.55
695.37	3768.26
695.55	3219.41
695.74	3184.59
695.92	3090.38
696.10	3516.36
696.29	3024.85
696.47	3084.24
696.66	3055.57
696.84	3049.43
697.03	3200.98
697.21	3403.72
697.40	4650.94
697.58	3577.80
697.76	3012.56
697.95	3182.54
698.13	2957.27
698.32	3131.34
698.50	3033.04
698.68	3074.00
698.87	3303.37
699.05	3600.33
699.24	3102.67
699.42	2994.13
699.61	3264.46
699.79	3248.08
699.97	3186.64
700.16	2953.17
700.34	3137.49
700.53	3274.70
700.71	3360.72
700.89	3180.50
701.08	3270.61
701.26	3262.41
701.45	3420.11
701.63	3067.86
701.81	3147.73
702.00	3098.58
702.18	3237.84
702.37	3074.00
702.55	3553.23
702.73	3352.52
702.92	3176.40
703.10	3516.36
703.28	3512.27
703.47	3104.72
703.65	3377.10
703.84	3258.32
704.02	3190.74
704.20	3655.62
704.39	3069.91
704.57	3108.82
704.75	3551.18
704.94	3368.91
705.12	3233.74
705.30	4003.78
705.49	8787.83
705.67	17207.03
705.86	23953.04
706.04	27434.59
706.22	30107.19
706.41	29036.10
706.59	21749.43
706.77	16959.23
706.96	14493.47
707.14	13301.56
707.32	11335.51
707.51	9953.13
707.69	8238.98
707.87	6610.84
708.06	5253.04
708.24	4562.87
708.42	4085.70
708.61	4380.61
708.79	3272.65
708.97	3268.56
709.16	3438.54
709.34	3272.65
709.52	3162.06
709.71	3160.02
709.89	3379.15
710.07	3067.86
710.26	2914.26
710.44	3119.06
710.62	3520.46
710.80	3295.18
710.99	3190.74
711.17	3248.08
711.35	3110.86
711.54	3225.55
711.72	3278.80
711.90	3141.58
712.09	3395.53
712.27	3139.54
712.45	3243.98
712.63	3135.44
712.82	3258.32
713.00	3266.51
713.18	3289.04
713.37	3313.61
713.55	3407.82
713.73	3358.67
713.91	3174.35
714.10	3106.77
714.28	3323.85
714.46	3383.24
714.65	3184.59
714.83	3106.77
715.01	3231.69
715.19	3356.62
715.38	3092.43
715.56	3153.87
715.74	3051.47
715.92	3102.67
716.11	3473.36
716.29	2863.06
716.47	3274.70
716.65	3186.64
716.84	2983.89
717.02	3172.30
717.20	2959.31
717.38	3119.06
717.57	3301.33
717.75	3114.96
717.93	3186.64
718.11	3418.06
718.30	3010.51
718.48	3141.58
718.66	3442.64
718.84	3477.45
719.03	3088.34
719.21	2904.02
719.39	3629.00
719.57	3309.52
719.75	3164.11
719.94	2955.22
720.12	3254.22
720.30	3317.71
720.48	3221.45
720.67	3067.86
720.85	3108.82
721.03	3170.26
721.21	3014.61
721.39	3180.50
721.58	3469.26
721.76	3270.61
721.94	3092.43
722.12	3209.17
722.30	3563.47
722.49	3194.83
722.67	3084.24
722.85	3141.58
723.03	2965.46
723.21	3200.98
723.40	3121.10
723.58	3243.98
723.76	3438.54
723.94	3528.65
724.12	3168.21
724.30	3397.58
724.49	3459.02
724.67	3114.96
724.85	3149.78
725.03	3024.85
725.21	3420.11
725.40	3440.59
725.58	3035.09
725.76	3334.09
725.94	3405.77
726.12	3053.52
726.30	3155.92
726.49	2987.99
726.67	3211.22
726.85	3428.30
727.03	3979.20
727.21	5502.89
727.39	7339.92
727.57	7870.34
727.76	8386.43
727.94	8501.12
728.12	7395.22
728.30	6098.85
728.48	5672.87
728.66	5040.05
728.84	4859.83
729.03	4040.64
729.21	3844.04
729.39	3600.33
729.57	3469.26
729.75	3483.59
729.93	3356.62
730.11	2967.51
730.30	3241.93
730.48	3284.94
730.66	3184.59
730.84	3229.65
731.02	3317.71
731.20	3104.72
731.38	3168.21
731.56	2973.65
731.74	3014.61
731.93	3387.34
732.11	3182.54
732.29	3045.33
732.47	3360.72
732.65	3344.33
732.83	3233.74
733.01	3223.50
733.19	3160.02
733.37	3397.58
733.56	3123.15
733.74	3022.80
733.92	3614.66
734.10	3264.46
734.28	3286.99
734.46	2918.36
734.64	3176.40
734.82	3196.88
735.00	3182.54
735.18	3000.27
735.36	3289.04
735.54	3149.78
735.73	3129.30
735.91	3243.98
736.09	3641.29
736.27	3215.31
736.45	3174.35
736.63	2871.25
736.81	3297.23
736.99	3491.79
737.17	3266.51
737.35	3024.85
737.53	3295.18
737.71	3180.50
737.89	3334.09
738.07	3108.82
738.25	3084.24
738.43	3012.56
738.61	3174.35
738.80	2967.51
738.98	3166.16
739.16	3235.79
739.34	3045.33
739.52	3385.29
739.70	3157.97
739.88	3358.67
740.06	3293.13
740.24	2895.83
740.42	3502.03
740.60	2975.70
740.78	3024.85
740.96	2869.20
741.14	3223.50
741.32	3299.28
741.50	2918.36
741.68	3416.01
741.86	3487.69
742.04	3012.56
742.22	2992.08
742.40	3104.72
742.58	3430.35
742.76	3131.34
742.94	3307.47
743.12	2910.16
743.30	3313.61
743.48	3354.57
743.66	3020.75
743.84	3061.71
744.02	3254.22
744.20	3155.92
744.38	2979.79
744.56	3043.28
744.74	3635.14
744.92	3395.53
745.10	3264.46
745.28	3119.06
745.46	3532.75
745.64	3254.22
745.82	3131.34
746.00	3002.32
746.18	3342.28
746.36	3114.96
746.54	3108.82
746.72	3147.73
746.90	3125.20
747.08	3418.06
747.26	3137.49
747.44	3270.61
747.62	3393.48
747.80	3262.41
747.98	3231.69
748.15	3078.10
748.33	3635.14
748.51	3274.70
748.69	3184.59
748.87	2955.22
749.05	3237.84
749.23	3289.04
749.41	3055.57
749.59	3086.29
749.77	3389.39
749.95	3188.69
750.13	3049.43
750.31	3186.64
750.49	3217.36
750.67	3465.16
750.85	3223.50
751.03	3053.52
751.20	3624.90
751.38	3317.71
751.56	3172.30
751.74	3049.43
751.92	3260.37
752.10	3086.29
752.28	3256.27
752.46	3074.00
752.64	3297.23
752.82	3327.95
753.00	3203.02
753.18	3114.96
753.35	3205.07
753.53	3282.89
753.71	3057.62
753.89	3135.44
754.07	3297.23
754.25	3542.99
754.43	3176.40
754.61	2936.79
754.79	3352.52
754.97	3180.50
755.14	3276.75
755.32	3043.28
755.50	3219.41
755.68	3272.65
755.86	2975.70
756.04	3094.48
756.22	2983.89
756.40	3428.30
756.57	3313.61
756.75	3020.75
756.93	3506.12
757.11	3532.75
757.29	2975.70
757.47	3010.51
757.65	2967.51
757.82	2822.10
758.00	2963.41
758.18	2996.18
758.36	3039.19
758.54	3674.06
758.72	2955.22
758.90	3227.60
759.07	3327.95
759.25	3065.81
759.43	3129.30
759.61	2934.74
759.79	4554.68
759.97	3438.54
760.15	3112.91
760.32	3035.09
760.50	3313.61
760.68	3575.75
760.86	2967.51
761.04	3233.74
761.22	3461.07
761.39	3233.74
761.57	3137.49
761.75	3151.82
761.93	3330.00
762.11	3229.65
762.28	3186.64
762.46	2979.79
762.64	3487.69
762.82	3026.90
763.00	3014.61
763.18	3270.61
763.35	2990.03
763.53	3434.44
763.71	3131.34
763.89	3119.06
764.07	3248.08
764.24	3286.99
764.42	3217.36
764.60	3149.78
764.78	3338.19
764.96	3467.21
765.13	3254.22
765.31	2963.41
765.49	3434.44
765.67	3043.28
765.84	2965.46
766.02	3041.23
766.20	2947.03
766.38	3350.48
766.56	3186.64
766.73	3225.55
766.91	3305.42
767.09	3299.28
767.27	3090.38
767.44	2942.93
767.62	3379.15
767.80	3272.65
767.98	2992.08
768.15	3071.95
768.33	3401.68
768.51	3442.64
768.69	3229.65
768.87	3055.57
769.04	3399.63
769.22	3868.61
769.40	3246.03
769.58	3250.13
769.75	3291.09
769.93	3571.66
770.11	3080.14
770.28	2983.89
770.46	3377.10
770.64	3344.33
770.82	3108.82
770.99	2996.18
771.17	3381.20
771.35	3194.83
771.53	3037.14
771.70	3110.86
771.88	3420.11
772.06	3317.71
772.23	3069.91
772.41	3155.92
772.59	3192.78
772.77	3106.77
772.94	3094.48
773.12	3090.38
773.30	3180.50
773.47	3317.71
773.65	3002.32
773.83	3260.37
774.01	3223.50
774.18	2883.54
774.36	3086.29
774.54	3012.56
774.71	3344.33
774.89	2985.94
775.07	2904.02
775.24	3008.47
775.42	3114.96
775.60	3635.14
775.78	3035.09
775.95	2940.88
776.13	2910.16
776.31	2947.03
776.48	3291.09
776.66	3291.09
776.84	3180.50
777.01	3078.10
777.19	2985.94
777.37	3123.15
777.54	3373.00
777.72	3641.29
777.90	3170.26
778.07	3057.62
778.25	3831.75
778.43	3483.59
778.60	3035.09
778.78	3166.16
778.96	3536.84
779.13	3049.43
779.31	3160.02
779.49	3178.45
779.66	3254.22
779.84	3262.41
780.01	3039.19
780.19	2987.99
780.37	3504.07
780.54	3379.15
780.72	2914.26
780.90	3059.67
781.07	3229.65
781.25	3086.29
781.43	3233.74
781.60	3047.38
781.78	3528.65
781.95	3303.37
782.13	3065.81
782.31	3119.06
782.48	2949.08
782.66	3327.95
782.83	3264.46
783.01	3262.41
783.19	3389.39
783.36	3190.74
783.54	3024.85
783.72	3147.73
783.89	3239.89
784.07	3381.20
784.24	3215.31
784.42	3160.02
784.60	3350.48
784.77	3311.57
784.95	2787.29
785.12	2961.36
785.30	3334.09
785.47	3088.34
785.65	3000.27
785.83	3057.62
786.00	3213.26
786.18	3291.09
786.35	3002.32
786.53	3028.95
786.71	3446.73
786.88	3342.28
787.06	3254.22
787.23	3076.05
787.41	3033.04
787.58	3145.68
787.76	2961.36
787.94	3090.38
788.11	3336.14
788.29	3014.61
788.46	3184.59
788.64	2887.64
788.81	3176.40
788.99	2936.79
789.16	3020.75
789.34	3094.48
789.52	3157.97
789.69	3160.02
789.87	2811.86
790.04	3096.53
790.22	3262.41
790.39	3631.05
790.57	2934.74
790.74	3004.37
790.92	3418.06
791.09	2926.55
791.27	3203.02
791.44	3243.98
791.62	3184.59
791.79	3516.36
791.97	3250.13
792.15	3395.53
792.32	3426.25
792.50	3475.40
792.67	3256.27
792.85	3323.85
793.02	3270.61
793.20	3221.45
793.37	2910.16
793.55	3047.38
793.72	3065.81
793.90	3354.57
794.07	3020.75
794.25	3026.90
794.42	3231.69
794.60	3260.37
794.77	3164.11
794.95	3231.69
795.12	3467.21
795.30	3217.36
795.47	2795.48
795.65	3495.88
795.82	3368.91
796.00	3024.85
796.17	3162.06
796.34	2965.46
796.52	3303.37
796.69	3438.54
796.87	3176.40
797.04	3217.36
797.22	3442.64
797.39	3342.28
797.57	3289.04
797.74	3235.79
797.92	3317.71
798.09	3147.73
798.27	3377.10
798.44	3112.91
798.62	3166.16
798.79	3229.65
798.96	3200.98
799.14	3096.53
799.31	3798.98
799.49	3213.26
799.66	3043.28
799.84	3088.34
800.01	3008.47
800.19	3348.43
800.36	2875.35
800.53	3141.58
800.71	3373.00
800.88	3549.13
801.06	2979.79
801.23	3022.80
801.41	3233.74
801.58	3182.54
801.75	3098.58
801.93	3141.58
802.10	3436.49
802.28	3168.21
802.45	3147.73
802.63	3137.49
802.80	3600.33
802.97	3196.88
803.15	3139.54
803.32	3057.62
803.50	3090.38
803.67	3139.54
803.84	3045.33
804.02	3090.38
804.19	3196.88
804.37	2906.07
804.54	3002.32
804.71	3106.77
804.89	3250.13
805.06	3065.81
805.24	2985.94
805.41	2942.93
805.58	3063.76
805.76	3665.86
805.93	3012.56
806.10	3143.63
806.28	3358.67
806.45	3336.14
806.63	3260.37
806.80	3162.06
806.97	3332.05
807.15	3344.33
807.32	3194.83
807.49	3139.54
807.67	2973.65
807.84	3311.57
808.01	2844.63
808.19	3260.37
808.36	3715.02
808.54	3182.54
808.71	3047.38
808.88	3041.23
809.06	3499.98
809.23	3524.55
809.40	3035.09
809.58	3078.10
809.75	3303.37
809.92	3071.95
810.10	3370.96
810.27	3055.57
810.44	3348.43
810.62	3409.87
810.79	3057.62
810.96	3047.38
811.14	3254.22
811.31	3338.19
811.48	3198.93
811.66	3135.44
811.83	3520.46
812.00	3305.42
812.18	3233.74
812.35	3358.67
812.52	3207.12
812.69	3100.62
812.87	3037.14
813.04	3000.27
813.21	3188.69
813.39	3133.39
813.56	3012.56
813.73	3352.52
813.91	2998.23
814.08	3207.12
814.25	3041.23
814.42	2887.64
814.60	3260.37
814.77	3280.85
814.94	3096.53
815.12	3153.87
815.29	3532.75
815.46	3166.16
815.63	3110.86
815.81	3026.90
815.98	3160.02
816.15	3221.45
816.33	3114.96
816.50	3071.95
816.67	3270.61
816.84	3239.89
817.02	3037.14
817.19	3041.23
817.36	3377.10
817.53	3295.18
817.71	2953.17
817.88	3143.63
818.05	3301.33
818.22	3276.75
818.40	3299.28
818.57	3039.19
818.74	3332.05
818.91	3225.55
819.09	3225.55
819.26	3164.11
819.43	3049.43
819.60	3092.43
819.78	3250.13
819.95	3074.00
820.12	3059.67
820.29	3524.55
820.47	3323.85
820.64	3057.62
820.81	3010.51
820.98	3086.29
821.15	3035.09
821.33	3229.65
821.50	2920.40
821.67	3471.31
821.84	3010.51
822.02	3123.15
822.19	3532.75
822.36	3209.17
822.53	3041.23
822.70	2918.36
822.88	3129.30
823.05	3534.79
823.22	3207.12
823.39	3160.02
823.56	3196.88
823.74	3639.24
823.91	2934.74
824.08	2904.02
824.25	2971.60
824.42	3553.23
824.60	2897.88
824.77	3164.11
824.94	3278.80
825.11	3407.82
825.28	2979.79
825.45	3207.12
825.63	3186.64
825.80	3170.26
825.97	3076.05
826.14	3102.67
826.31	2983.89
826.48	3321.81
826.66	3008.47
826.83	2967.51
827.00	3203.02
827.17	3172.30
827.34	3147.73
827.51	2975.70
827.69	3266.51
827.86	2959.31
828.03	3108.82
828.20	3063.76
828.37	3110.86
828.54	3338.19
828.71	2963.41
828.89	3190.74
829.06	3248.08
829.23	3596.23
829.40	3133.39
829.57	3049.43
829.74	3440.59
829.91	3127.25
830.09	3086.29
830.26	3203.02
830.43	3631.05
830.60	3221.45
830.77	3170.26
830.94	3303.37
831.11	3446.73
831.28	3168.21
831.46	3321.81
831.63	2985.94
831.80	3459.02
831.97	3061.71
832.14	3182.54
832.31	3145.68
832.48	3286.99
832.65	3418.06
832.82	3178.45
832.99	3125.20
833.17	3092.43
833.34	3567.56
833.51	3000.27
833.68	2930.64
833.85	3395.53
834.02	3092.43
834.19	2928.60
834.36	3018.71
834.53	3348.43
834.70	3405.77
834.87	3170.26
835.04	2795.48
835.22	3057.62
835.39	3231.69
835.56	2899.92
835.73	2897.88
835.90	3448.78
836.07	3086.29
836.24	3090.38
836.41	2834.39
836.58	3127.25
836.75	3432.40
836.92	2897.88
837.09	2926.55
837.26	3520.46
837.43	3301.33
837.60	3016.66
837.77	2965.46
837.94	3395.53
838.12	3559.37
838.29	2834.39
838.46	2856.92
838.63	3010.51
838.80	3559.37
838.97	3000.27
839.14	2904.02
839.31	3336.14
839.48	3272.65
839.65	2942.93
839.82	3051.47
839.99	3336.14
840.16	3254.22
840.33	2815.96
840.50	2930.64
840.67	3145.68
840.84	2852.82
841.01	2848.72
841.18	2871.25
841.35	3145.68
841.52	3444.68
841.69	3233.74
841.86	2969.55
842.03	3278.80
842.20	3350.48
842.37	2865.11
842.54	2967.51
842.71	3282.89
842.88	2973.65
843.05	2990.03
843.22	2883.54
843.39	3362.76
843.56	3237.84
843.73	2904.02
843.90	2930.64
844.07	3246.03
844.24	3428.30
844.41	2947.03
844.58	2897.88
844.75	3262.41
844.92	3344.33
845.09	2998.23
845.26	2852.82
845.43	3434.44
845.60	3200.98
845.77	3000.27
845.94	3041.23
846.10	3510.22
846.27	2867.16
846.44	2858.96
846.61	2820.05
846.78	3395.53
846.95	3536.84
847.12	2940.88
847.29	2990.03
847.46	3108.82
847.63	3483.59
847.80	2834.39
847.97	2883.54
848.14	3641.29
848.31	3266.51
848.48	2768.85
848.65	2895.83
848.82	3186.64
848.98	3774.41
849.15	3078.10
849.32	3016.66
849.49	3487.69
849.66	3284.94
849.83	2918.36
850.00	2891.73
850.17	3397.58
850.34	3151.82
850.51	2877.40
850.68	2951.12
850.85	3723.21
851.01	3409.87
851.18	2850.77
851.35	2951.12
851.52	3334.09
851.69	3561.42
851.86	2809.81
852.03	2842.58
852.20	3366.86
852.37	3250.13
852.53	2781.14
852.70	2822.10
852.87	3317.71
853.04	3381.20
853.21	2895.83
853.38	3256.27
853.55	3518.41
853.72	3436.49
853.89	2820.05
854.05	2850.77
854.22	3239.89
854.39	3127.25
854.56	2844.63
854.73	3096.53
854.90	3074.00
855.07	3262.41
855.23	2895.83
855.40	2826.20
855.57	3213.26
855.74	2838.48
855.91	3090.38
856.08	2754.52
856.25	3110.86
856.41	3133.39
856.58	2883.54
856.75	2975.70
856.92	2953.17
857.09	3504.07
857.26	2697.17
857.42	2959.31
857.59	3350.48
857.76	3139.54
857.93	2961.36
858.10	3006.42
858.27	2985.94
858.43	3307.47
858.60	2914.26
858.77	2746.33
858.94	3151.82
859.11	3557.32
859.27	3000.27
859.44	2832.34
859.61	3723.21
859.78	3387.34
859.95	3016.66
860.12	2906.07
860.28	3776.45
860.45	3588.04
860.62	2904.02
860.79	2996.18
860.95	3155.92
861.12	3100.62
861.29	2828.24
861.46	2863.06
861.63	3321.81
861.79	3360.72
861.96	2873.30
862.13	2953.17
862.30	3583.95
862.47	3211.22
862.63	2713.56
862.80	2965.46
862.97	3442.64
863.14	3385.29
863.30	2953.17
863.47	2885.59
863.64	3565.51
863.81	3262.41
863.97	2740.18
864.14	2953.17
864.31	3286.99
864.48	3291.09
864.65	2879.44
864.81	3045.33
864.98	3344.33
865.15	3440.59
865.32	2975.70
865.48	3041.23
865.65	3551.18
865.82	3098.58
865.98	3010.51
866.15	2922.45
866.32	3192.78
866.49	3192.78
866.65	3078.10
866.82	2861.01
866.99	3205.07
867.16	3172.30
867.32	2893.78
867.49	2801.62
867.66	3207.12
867.83	3164.11
867.99	2840.53
868.16	2930.64
868.33	3065.81
868.49	3256.27
868.66	2936.79
868.83	3086.29
868.99	3241.93
869.16	3278.80
869.33	3063.76
869.50	2975.70
869.66	3293.13
869.83	3198.93
870.00	2803.67
870.16	3033.04
870.33	3264.46
870.50	3444.68
870.66	3047.38
870.83	2926.55
871.00	3213.26
871.17	3366.86
871.33	2969.55
871.50	2908.12
871.67	3205.07
871.83	3223.50
872.00	3043.28
872.17	2930.64
872.33	3508.17
872.50	3461.07
872.67	2869.20
872.83	2912.21
873.00	3350.48
873.17	3272.65
873.33	2924.50
873.50	2992.08
873.67	3127.25
873.83	3082.19
874.00	2893.78
874.16	3074.00
874.33	3254.22
874.50	3043.28
874.66	2838.48
874.83	3096.53
875.00	3510.22
875.16	3454.92
875.33	2949.08
875.50	2781.14
875.66	3151.82
875.83	3291.09
875.99	2998.23
876.16	3014.61
876.33	2985.94
876.49	3200.98
876.66	3004.37
876.83	3026.90
876.99	2949.08
877.16	3297.23
877.32	2830.29
877.49	2996.18
877.66	3330.00
877.82	3491.79
877.99	2969.55
878.15	3184.59
878.32	3327.95
878.49	3295.18
878.65	3000.27
878.82	3149.78
878.98	3114.96
879.15	3467.21
879.32	3088.34
879.48	3071.95
879.65	3246.03
879.81	3250.13
879.98	3041.23
880.15	3051.47
880.31	3360.72
880.48	3067.86
880.64	3000.27
880.81	3074.00
880.97	3567.56
881.14	3534.79
881.31	2867.16
881.47	3045.33
881.64	3184.59
881.80	2904.02
881.97	3129.30
882.13	2908.12
882.30	3037.14
882.47	3086.29
882.63	2854.87
882.80	2842.58
882.96	3182.54
883.13	3444.68
883.29	2863.06
883.46	2893.78
883.62	3624.90
883.79	3194.83
883.95	3090.38
884.12	2856.92
884.29	3344.33
884.45	3237.84
884.62	2893.78
884.78	2918.36
884.95	3561.42
885.11	3082.19
885.28	3018.71
885.44	2998.23
885.61	3397.58
885.77	3446.73
885.94	3094.48
886.10	2936.79
886.27	3350.48
886.43	3657.67
886.60	3123.15
886.76	2947.03
886.93	3086.29
887.09	3305.42
887.26	2836.44
887.42	3028.95
887.59	3436.49
887.75	3626.95
887.92	3168.21
888.08	3033.04
888.25	3610.57
888.41	3469.26
888.58	3024.85
888.74	2918.36
888.91	3133.39
>>>>>End Processed Spectral Data<<<<<
