SpectraSuite Data File
++++++++++++++++++++++++++++++++++++
Date: Fri May 06 08:14:41 CEST 2016
User: root
Dark Spectrum Present: No
Reference Spectrum Present: No
Number of Sampled Component Spectra: 1
Spectrometers: USB4C02835
Integration Time (usec): 100000 (USB4C02835)
Spectra Averaged: 1 (USB4C02835)
Boxcar Smoothing: 0 (USB4C02835)
Correct for Electrical Dark: No (USB4C02835)
Strobe/Lamp Enabled: No (USB4C02835)
Correct for Detector Non-linearity: No (USB4C02835)
Correct for Stray Light: No (USB4C02835)
Number of Pixels in Processed Spectrum: 3648
>>>>>Begin Processed Spectral Data<<<<<
177.47	2267.10
177.69	2267.10
177.91	2267.10
178.13	2248.67
178.36	2252.77
178.58	3037.14
178.80	3178.45
179.02	3006.42
179.24	3133.39
179.46	2740.18
179.68	2836.44
179.90	3200.98
180.13	3344.33
180.35	2664.41
180.57	2715.61
180.79	3430.35
181.01	3276.75
181.23	2875.35
181.45	2963.41
181.67	3338.19
181.90	3442.64
182.12	2996.18
182.34	2650.07
182.56	3420.11
182.78	3342.28
183.00	2852.82
183.22	2904.02
183.44	2930.64
183.66	3905.48
183.89	3000.27
184.11	2926.55
184.33	3409.87
184.55	3518.41
184.77	2861.01
184.99	2914.26
185.21	3082.19
185.43	3792.84
185.65	2924.50
185.87	2775.00
186.10	3839.94
186.32	3792.84
186.54	3000.27
186.76	2963.41
186.98	3442.64
187.20	3268.56
187.42	2875.35
187.64	2775.00
187.86	3379.15
188.08	3434.44
188.30	2762.71
188.52	2891.73
188.75	3547.08
188.97	3526.60
189.19	2760.66
189.41	2908.12
189.63	3428.30
189.85	3237.84
190.07	2752.47
190.29	2639.83
190.51	3381.20
190.73	2975.70
190.95	3020.75
191.17	2820.05
191.39	2953.17
191.61	3213.26
191.84	2906.07
192.06	3041.23
192.28	2936.79
192.50	3868.61
192.72	3039.19
192.94	3010.51
193.16	3540.94
193.38	3450.83
193.60	2752.47
193.82	3008.47
194.04	3502.03
194.26	3305.42
194.48	2920.40
194.70	2856.92
194.92	3231.69
195.14	3436.49
195.36	2844.63
195.58	2856.92
195.80	3239.89
196.02	3108.82
196.24	2811.86
196.46	2961.36
196.69	3164.11
196.91	3809.22
197.13	2820.05
197.35	2908.12
197.57	3508.17
197.79	3358.67
198.01	2930.64
198.23	2934.74
198.45	3317.71
198.67	3061.71
198.89	2754.52
199.11	2987.99
199.33	3217.36
199.55	2922.45
199.77	2791.38
199.99	3024.85
200.21	3157.97
200.43	3383.24
200.65	2727.89
200.87	2668.50
201.09	3215.31
201.31	3295.18
201.53	2850.77
201.75	3000.27
201.97	3315.66
202.19	3239.89
202.41	2971.60
202.63	3026.90
202.85	3387.34
203.07	3413.96
203.29	2926.55
203.51	2748.37
203.73	3121.10
203.95	3852.23
204.17	2889.68
204.39	3039.19
204.61	3170.26
204.83	3176.40
205.05	3051.47
205.27	2953.17
205.49	3706.82
205.71	3258.32
205.93	2725.85
206.15	2815.96
206.37	3319.76
206.59	3241.93
206.81	2707.41
207.03	2803.67
207.25	3172.30
207.47	3422.16
207.69	2914.26
207.91	3125.20
208.13	3690.44
208.34	3155.92
208.56	2770.90
208.78	2838.48
209.00	3121.10
209.22	3207.12
209.44	2934.74
209.66	2811.86
209.88	3266.51
210.10	3270.61
210.32	2828.24
210.54	2908.12
210.76	3248.08
210.98	3508.17
211.20	2711.51
211.42	2955.22
211.64	3555.27
211.86	3467.21
212.08	2861.01
212.30	2869.20
212.52	3305.42
212.74	3395.53
212.96	2992.08
213.17	2987.99
213.39	3475.40
213.61	3551.18
213.83	2854.87
214.05	2748.37
214.27	3540.94
214.49	3100.62
214.71	2813.91
214.93	3016.66
215.15	3219.41
215.37	3469.26
215.59	2707.41
215.81	2967.51
216.03	3585.99
216.24	3192.78
216.46	2899.92
216.68	2940.88
216.90	3444.68
217.12	3452.88
217.34	2770.90
217.56	3024.85
217.78	3631.05
218.00	3356.62
218.22	3020.75
218.44	2975.70
218.66	3301.33
218.87	3653.58
219.09	2959.31
219.31	2848.72
219.53	3313.61
219.75	3198.93
219.97	2951.12
220.19	2951.12
220.41	3190.74
220.63	3565.51
220.85	2828.24
221.06	2828.24
221.28	3620.81
221.50	3391.44
221.72	2912.21
221.94	2762.71
222.16	3276.75
222.38	3393.48
222.60	2832.34
222.82	2922.45
223.03	3573.71
223.25	3084.24
223.47	2832.34
223.69	3176.40
223.91	3364.81
224.13	3338.19
224.35	2787.29
224.57	3106.77
224.78	3416.01
225.00	3170.26
225.22	3008.47
225.44	2731.99
225.66	3434.44
225.88	3278.80
226.10	2930.64
226.32	2873.30
226.53	3506.12
226.75	3223.50
226.97	2998.23
227.19	2959.31
227.41	3200.98
227.63	3149.78
227.85	2672.60
228.06	2912.21
228.28	3311.57
228.50	3475.40
228.72	2717.65
228.94	2795.48
229.16	2967.51
229.37	3035.09
229.59	2840.53
229.81	3164.11
230.03	3186.64
230.25	3049.43
230.47	2750.42
230.69	2785.24
230.90	3436.49
231.12	3147.73
231.34	3016.66
231.56	2940.88
231.78	3018.71
232.00	3348.43
232.21	2926.55
232.43	2838.48
232.65	2820.05
232.87	3360.72
233.09	2754.52
233.30	2824.15
233.52	3518.41
233.74	3209.17
233.96	2797.53
234.18	3057.62
234.40	3241.93
234.61	3760.07
234.83	2742.23
235.05	2813.91
235.27	3823.56
235.49	3512.27
235.70	2756.57
235.92	2895.83
236.14	3311.57
236.36	3794.89
236.58	2731.99
236.79	2865.11
237.01	3297.23
237.23	3188.69
237.45	3008.47
237.67	2938.84
237.88	3297.23
238.10	3663.82
238.32	2713.56
238.54	2805.72
238.76	3299.28
238.97	3028.95
239.19	2807.77
239.41	2934.74
239.63	3479.50
239.85	3243.98
240.06	2934.74
240.28	2906.07
240.50	3499.98
240.72	3325.90
240.93	2791.38
241.15	2940.88
241.37	3223.50
241.59	3510.22
241.81	2934.74
242.02	3016.66
242.24	3416.01
242.46	3487.69
242.68	2729.94
242.89	2797.53
243.11	3446.73
243.33	3291.09
243.55	2887.64
243.76	2877.40
243.98	3106.77
244.20	3246.03
244.42	2813.91
244.64	2820.05
244.85	3033.04
245.07	3069.91
245.29	2881.49
245.51	2899.92
245.72	3373.00
245.94	3547.08
246.16	2803.67
246.38	2959.31
246.59	3143.63
246.81	3053.52
247.03	2818.00
247.24	2785.24
247.46	3160.02
247.68	3286.99
247.90	2764.76
248.11	2856.92
248.33	3479.50
248.55	3209.17
248.77	2852.82
248.98	3010.51
249.20	3559.37
249.42	3340.24
249.64	2828.24
249.85	2832.34
250.07	3172.30
250.29	3364.81
250.50	2865.11
250.72	2801.62
250.94	3313.61
251.16	3762.12
251.37	2797.53
251.59	2953.17
251.81	3403.72
252.02	3510.22
252.24	2680.79
252.46	2994.13
252.68	3213.26
252.89	3155.92
253.11	2658.26
253.33	3035.09
253.54	3581.90
253.76	3090.38
253.98	2822.10
254.20	2844.63
254.41	3020.75
254.63	3211.22
254.85	2719.70
255.06	2967.51
255.28	3366.86
255.50	3145.68
255.71	2809.81
255.93	2748.37
256.15	3221.45
256.36	3354.57
256.58	2768.85
256.80	2729.94
257.02	3289.04
257.23	3205.07
257.45	2883.54
257.67	3004.37
257.88	3139.54
258.10	3319.76
258.32	2822.10
258.53	3002.32
258.75	3641.29
258.97	3037.14
259.18	2727.89
259.40	2834.39
259.62	3616.71
259.83	3565.51
260.05	2861.01
260.27	3798.98
260.48	3483.59
260.70	3137.49
260.92	2756.57
261.13	2936.79
261.35	3409.87
261.57	3321.81
261.78	2742.23
262.00	2828.24
262.22	3405.77
262.43	3164.11
262.65	2887.64
262.86	2928.60
263.08	3844.04
263.30	3258.32
263.51	2705.37
263.73	2820.05
263.95	3557.32
264.16	3110.86
264.38	2686.94
264.60	2781.14
264.81	3231.69
265.03	3407.82
265.25	3278.80
265.46	2818.00
265.68	3635.14
265.89	3477.45
266.11	2705.37
266.33	2865.11
266.54	3477.45
266.76	3444.68
266.98	2963.41
267.19	3133.39
267.41	3510.22
267.62	3231.69
267.84	2637.78
268.06	2934.74
268.27	3229.65
268.49	3577.80
268.70	2930.64
268.92	2813.91
269.14	3086.29
269.35	3035.09
269.57	3016.66
269.79	2889.68
270.00	3178.45
270.22	3680.20
270.43	2785.24
270.65	2705.37
270.87	3334.09
271.08	3409.87
271.30	3010.51
271.51	2867.16
271.73	3405.77
271.95	3602.38
272.16	2822.10
272.38	3024.85
272.59	3213.26
272.81	3409.87
273.02	2807.77
273.24	2934.74
273.46	3532.75
273.67	3088.34
273.89	2746.33
274.10	2838.48
274.32	3477.45
274.54	3282.89
274.75	2992.08
274.97	2908.12
275.18	3401.68
275.40	3352.52
275.61	2953.17
275.83	2975.70
276.05	3088.34
276.26	3270.61
276.48	2967.51
276.69	3016.66
276.91	3143.63
277.12	3575.75
277.34	2994.13
277.55	3164.11
277.77	3266.51
277.99	3151.82
278.20	2959.31
278.42	2873.30
278.63	3131.34
278.85	3094.48
279.06	2949.08
279.28	3006.42
279.49	3549.13
279.71	3360.72
279.93	3074.00
280.14	3024.85
280.36	3180.50
280.57	3450.83
280.79	2965.46
281.00	2854.87
281.22	3174.35
281.43	3510.22
281.65	2754.52
281.86	2920.40
282.08	3321.81
282.29	3657.67
282.51	2887.64
282.73	2895.83
282.94	3008.47
283.16	3434.44
283.37	3131.34
283.59	3047.38
283.80	3356.62
284.02	3262.41
284.23	3026.90
284.45	3076.05
284.66	3098.58
284.88	3137.49
285.09	2992.08
285.31	3057.62
285.52	3286.99
285.74	3006.42
285.95	3190.74
286.17	3016.66
286.38	3528.65
286.60	3162.06
286.81	3022.80
287.03	2836.44
287.24	3186.64
287.46	3387.34
287.67	3127.25
287.89	3252.17
288.10	3295.18
288.32	3254.22
288.53	3141.58
288.75	3094.48
288.96	3409.87
289.18	3133.39
289.39	2916.31
289.61	3076.05
289.82	3725.26
290.04	3583.95
290.25	2811.86
290.47	3057.62
290.68	3213.26
290.90	3401.68
291.11	2826.20
291.33	3108.82
291.54	3123.15
291.76	3157.97
291.97	3086.29
292.18	3092.43
292.40	3139.54
292.61	3114.96
292.83	3346.38
293.04	3016.66
293.26	3336.14
293.47	3258.32
293.69	2891.73
293.90	2877.40
294.12	3573.71
294.33	3258.32
294.55	3037.14
294.76	3205.07
294.97	3598.28
295.19	3612.62
295.40	2969.55
295.62	3010.51
295.83	3454.92
296.05	3131.34
296.26	3266.51
296.48	2990.03
296.69	3248.08
296.90	3237.84
297.12	3092.43
297.33	3080.14
297.55	3289.04
297.76	3409.87
297.98	3082.19
298.19	3160.02
298.41	3243.98
298.62	3125.20
298.83	3151.82
299.05	3049.43
299.26	3221.45
299.48	3086.29
299.69	3047.38
299.90	3008.47
300.12	3069.91
300.33	3336.14
300.55	3033.04
300.76	3045.33
300.98	3018.71
301.19	3368.91
301.40	3022.80
301.62	3004.37
301.83	3370.96
302.05	3297.23
302.26	2951.12
302.47	3065.81
302.69	3047.38
302.90	3205.07
303.12	2881.49
303.33	3112.91
303.54	3659.72
303.76	3178.45
303.97	2965.46
304.19	3266.51
304.40	3157.97
304.61	3381.20
304.83	3143.63
305.04	3110.86
305.26	3428.30
305.47	3147.73
305.68	2992.08
305.90	2899.92
306.11	3499.98
306.33	3264.46
306.54	2863.06
306.75	3033.04
306.97	2936.79
307.18	3069.91
307.39	3012.56
307.61	3033.04
307.82	3262.41
308.04	3340.24
308.25	2830.29
308.46	3117.01
308.68	3289.04
308.89	3184.59
309.10	3090.38
309.32	3047.38
309.53	3235.79
309.74	3416.01
309.96	2895.83
310.17	3112.91
310.39	3178.45
310.60	3438.54
310.81	3067.86
311.03	2887.64
311.24	3368.91
311.45	3268.56
311.67	3373.00
311.88	3178.45
312.09	3241.93
312.31	3190.74
312.52	2961.36
312.73	2936.79
312.95	2965.46
313.16	3033.04
313.37	3192.78
313.59	3155.92
313.80	3434.44
314.01	3594.19
314.23	3006.42
314.44	3037.14
314.65	3100.62
314.87	3151.82
315.08	3010.51
315.29	2994.13
315.51	3086.29
315.72	2951.12
315.93	3002.32
316.15	3010.51
316.36	3155.92
316.57	3291.09
316.79	3014.61
317.00	2936.79
317.21	3395.53
317.43	3149.78
317.64	3016.66
317.85	2869.20
318.07	3125.20
318.28	3164.11
318.49	3155.92
318.70	3284.94
318.92	3368.91
319.13	3315.66
319.34	3180.50
319.56	3104.72
319.77	3434.44
319.98	3383.24
320.20	3325.90
320.41	3219.41
320.62	3409.87
320.83	3100.62
321.05	3227.60
321.26	3094.48
321.47	3309.52
321.69	3538.89
321.90	2922.45
322.11	2879.44
322.32	3278.80
322.54	3608.52
322.75	3008.47
322.96	3966.92
323.18	3000.27
323.39	2871.25
323.60	2932.69
323.81	3149.78
324.03	3162.06
324.24	3250.13
324.45	3067.86
324.66	2920.40
324.88	3581.90
325.09	3631.05
325.30	3012.56
325.52	2899.92
325.73	3315.66
325.94	3147.73
326.15	2891.73
326.37	2799.57
326.58	3430.35
326.79	3553.23
327.00	2883.54
327.22	2953.17
327.43	3176.40
327.64	3102.67
327.85	3057.62
328.07	3008.47
328.28	3725.26
328.49	3114.96
328.70	3006.42
328.92	3035.09
329.13	3233.74
329.34	3418.06
329.55	3256.27
329.76	3149.78
329.98	3211.22
330.19	3530.70
330.40	3014.61
330.61	3069.91
330.83	3520.46
331.04	3074.00
331.25	3063.76
331.46	3065.81
331.68	3094.48
331.89	3489.74
332.10	3100.62
332.31	2842.58
332.52	3241.93
332.74	3479.50
332.95	2949.08
333.16	3033.04
333.37	3456.97
333.58	3139.54
333.80	3076.05
334.01	2742.23
334.22	3243.98
334.43	3127.25
334.64	2873.30
334.86	2967.51
335.07	3061.71
335.28	3557.32
335.49	2875.35
335.70	2985.94
335.92	3473.36
336.13	3733.45
336.34	3090.38
336.55	2926.55
336.76	3266.51
336.98	2897.88
337.19	3000.27
337.40	3096.53
337.61	3872.71
337.82	3291.09
338.04	3145.68
338.25	2873.30
338.46	3237.84
338.67	3129.30
338.88	2910.16
339.09	2856.92
339.31	3174.35
339.52	3096.53
339.73	2949.08
339.94	2994.13
340.15	3448.78
340.36	3190.74
340.58	3088.34
340.79	2904.02
341.00	3301.33
341.21	3084.24
341.42	3221.45
341.63	3074.00
341.85	3510.22
342.06	3352.52
342.27	2942.93
342.48	3162.06
342.69	2992.08
342.90	3395.53
343.12	3348.43
343.33	2918.36
343.54	3504.07
343.75	3497.93
343.96	3141.58
344.17	2942.93
344.38	3305.42
344.60	3074.00
344.81	2924.50
345.02	2979.79
345.23	3504.07
345.44	3829.70
345.65	3102.67
345.86	3106.77
346.07	3319.76
346.29	3143.63
346.50	3143.63
346.71	3090.38
346.92	3604.42
347.13	3801.03
347.34	3076.05
347.55	2918.36
347.76	3340.24
347.98	2928.60
348.19	3071.95
348.40	3219.41
348.61	3170.26
348.82	3610.57
349.03	3094.48
349.24	2985.94
349.45	3682.25
349.66	2863.06
349.88	2959.31
350.09	2881.49
350.30	3504.07
350.51	3524.55
350.72	3147.73
350.93	3002.32
351.14	3186.64
351.35	3289.04
351.56	3074.00
351.77	3008.47
351.99	3305.42
352.20	3528.65
352.41	3157.97
352.62	2869.20
352.83	3293.13
353.04	3256.27
353.25	3028.95
353.46	3065.81
353.67	3565.51
353.88	2965.46
354.09	2840.53
354.30	2983.89
354.52	3362.76
354.73	3231.69
354.94	2955.22
355.15	2969.55
355.36	3745.73
355.57	3160.02
355.78	2971.60
355.99	3033.04
356.20	3149.78
356.41	3504.07
356.62	3133.39
356.83	3004.37
357.04	3489.74
357.25	2947.03
357.46	3059.67
357.68	2928.60
357.89	3108.82
358.10	3231.69
358.31	2961.36
358.52	3047.38
358.73	3059.67
358.94	3106.77
359.15	3039.19
359.36	3033.04
359.57	3340.24
359.78	3295.18
359.99	3174.35
360.20	2871.25
360.41	3217.36
360.62	3325.90
360.83	3047.38
361.04	2998.23
361.25	3391.44
361.46	3467.21
361.67	3155.92
361.88	3043.28
362.09	3405.77
362.30	3366.86
362.51	2963.41
362.72	3061.71
362.93	3373.00
363.14	3442.64
363.35	3182.54
363.56	2910.16
363.78	3551.18
363.99	3420.11
364.20	3002.32
364.41	2967.51
364.62	3637.19
364.83	3434.44
365.04	3016.66
365.25	3065.81
365.46	3614.66
365.67	3084.24
365.88	3198.93
366.09	2922.45
366.30	3157.97
366.51	3264.46
366.72	2893.78
366.93	2961.36
367.14	3243.98
367.35	3483.59
367.56	2891.73
367.77	3080.14
367.98	3317.71
368.18	3434.44
368.39	3147.73
368.60	2987.99
368.81	3424.20
369.02	3219.41
369.23	2987.99
369.44	2861.01
369.65	3289.04
369.86	3401.68
370.07	3164.11
370.28	2893.78
370.49	3330.00
370.70	3375.05
370.91	2955.22
371.12	2879.44
371.33	3504.07
371.54	3164.11
371.75	3102.67
371.96	2762.71
372.17	3297.23
372.38	3311.57
372.59	3033.04
372.80	2947.03
373.01	3194.83
373.22	3262.41
373.43	2992.08
373.64	2914.26
373.85	3532.75
374.06	3508.17
374.26	3264.46
374.47	3213.26
374.68	3622.86
374.89	3360.72
375.10	2971.60
375.31	3125.20
375.52	3215.31
375.73	3346.38
375.94	2791.38
376.15	3051.47
376.36	3131.34
376.57	3190.74
376.78	3110.86
376.99	3033.04
377.20	3502.03
377.40	3160.02
377.61	3254.22
377.82	2922.45
378.03	3502.03
378.24	3393.48
378.45	3092.43
378.66	3090.38
378.87	2967.51
379.08	3055.57
379.29	3055.57
379.50	3110.86
379.71	3303.37
379.91	3336.14
380.12	3016.66
380.33	3098.58
380.54	3282.89
380.75	3186.64
380.96	2949.08
381.17	3024.85
381.38	3196.88
381.59	3266.51
381.80	2985.94
382.00	3157.97
382.21	3340.24
382.42	3618.76
382.63	3375.05
382.84	3155.92
383.05	3477.45
383.26	3512.27
383.47	3145.68
383.68	2987.99
383.88	3381.20
384.09	3315.66
384.30	3354.57
384.51	3114.96
384.72	3237.84
384.93	2998.23
385.14	3098.58
385.35	3321.81
385.55	2934.74
385.76	3577.80
385.97	2959.31
386.18	2799.57
386.39	3092.43
386.60	3090.38
386.81	3061.71
387.02	2930.64
387.22	3006.42
387.43	3459.02
387.64	3069.91
387.85	3252.17
388.06	3319.76
388.27	4315.07
388.48	7759.75
388.68	11933.51
388.89	14858.01
389.10	16236.30
389.31	15867.66
389.52	12975.93
389.73	11200.34
389.93	10332.00
390.14	9135.99
390.35	8392.58
390.56	8073.09
390.77	6680.47
390.98	4900.79
391.18	4179.90
391.39	3862.47
391.60	3350.48
391.81	3403.72
392.02	3084.24
392.23	3733.45
392.43	3348.43
392.64	3041.23
392.85	3139.54
393.06	3590.09
393.27	3239.89
393.47	3000.27
393.68	3112.91
393.89	3188.69
394.10	3547.08
394.31	3028.95
394.52	2994.13
394.72	3098.58
394.93	3524.55
395.14	2877.40
395.35	3127.25
395.56	3192.78
395.76	3211.22
395.97	3012.56
396.18	3168.21
396.39	3311.57
396.60	3989.44
396.80	3446.73
397.01	3303.37
397.22	3426.25
397.43	3452.88
397.64	3041.23
397.84	3117.01
398.05	3745.73
398.26	3233.74
398.47	3145.68
398.67	3205.07
398.88	3305.42
399.09	3463.12
399.30	2990.03
399.51	3035.09
399.71	3123.15
399.92	3301.33
400.13	3061.71
400.34	3065.81
400.54	3336.14
400.75	3526.60
400.96	3215.31
401.17	3317.71
401.37	3485.64
401.58	3282.89
401.79	2971.60
402.00	3174.35
402.21	3817.41
402.41	3489.74
402.62	3360.72
402.83	3516.36
403.04	3729.35
403.24	4077.51
403.45	3188.69
403.66	3360.72
403.87	3536.84
404.07	3594.19
404.28	3395.53
404.49	3336.14
404.70	3348.43
404.90	3477.45
405.11	3041.23
405.32	3059.67
405.52	3172.30
405.73	3082.19
405.94	2996.18
406.15	3092.43
406.35	3385.29
406.56	3391.44
406.77	3035.09
406.98	3076.05
407.18	3125.20
407.39	3606.47
407.60	3080.14
407.80	3155.92
408.01	3186.64
408.22	3418.06
408.43	2959.31
408.63	3141.58
408.84	3491.79
409.05	3479.50
409.25	3045.33
409.46	3112.91
409.67	3180.50
409.88	3131.34
410.08	3086.29
410.29	3057.62
410.50	3428.30
410.70	3397.58
410.91	2975.70
411.12	3084.24
411.32	3266.51
411.53	3248.08
411.74	3098.58
411.95	3131.34
412.15	3321.81
412.36	3444.68
412.57	3196.88
412.77	3178.45
412.98	3256.27
413.19	3131.34
413.39	3078.10
413.60	3090.38
413.81	3583.95
414.01	3090.38
414.22	3043.28
414.43	3200.98
414.63	3241.93
414.84	3395.53
415.05	3055.57
415.25	2881.49
415.46	3309.52
415.67	3131.34
415.87	3086.29
416.08	3067.86
416.29	3246.03
416.49	3436.49
416.70	3141.58
416.91	3061.71
417.11	3211.22
417.32	3534.79
417.53	3071.95
417.73	3141.58
417.94	3239.89
418.15	3323.85
418.35	3129.30
418.56	3114.96
418.77	3729.35
418.97	3262.41
419.18	3143.63
419.38	2803.67
419.59	3332.05
419.80	3590.09
420.00	2848.72
420.21	3141.58
420.42	3522.51
420.62	3334.09
420.83	3022.80
421.04	2987.99
421.24	3168.21
421.45	3385.29
421.65	3094.48
421.86	3069.91
422.07	3485.64
422.27	3325.90
422.48	2924.50
422.69	2791.38
422.89	3239.89
423.10	3262.41
423.30	2961.36
423.51	3098.58
423.72	3379.15
423.92	3366.86
424.13	2889.68
424.33	3096.53
424.54	3463.12
424.75	3338.19
424.95	3227.60
425.16	2975.70
425.36	3207.12
425.57	3491.79
425.78	3207.12
425.98	3157.97
426.19	3256.27
426.39	3114.96
426.60	3221.45
426.81	3147.73
427.01	3352.52
427.22	3094.48
427.42	2834.39
427.63	2959.31
427.83	3483.59
428.04	3594.19
428.25	3125.20
428.45	3176.40
428.66	3493.83
428.86	3250.13
429.07	3069.91
429.28	3137.49
429.48	3309.52
429.69	3096.53
429.89	3172.30
430.10	2957.27
430.30	3405.77
430.51	3438.54
430.71	2955.22
430.92	3074.00
431.13	3225.55
431.33	3387.34
431.54	3172.30
431.74	3237.84
431.95	3735.50
432.15	3098.58
432.36	3098.58
432.56	3096.53
432.77	3715.02
432.98	3635.14
433.18	3117.01
433.39	2879.44
433.59	3258.32
433.80	3692.49
434.00	3166.16
434.21	3147.73
434.41	3147.73
434.62	3762.12
434.82	2887.64
435.03	3053.52
435.23	3389.39
435.44	2975.70
435.64	3028.95
435.85	3182.54
436.06	3375.05
436.26	3495.88
436.47	3071.95
436.67	2953.17
436.88	3270.61
437.08	3512.27
437.29	3205.07
437.49	3188.69
437.70	3471.31
437.90	3327.95
438.11	3246.03
438.31	3131.34
438.52	3575.75
438.72	3489.74
438.93	3377.10
439.13	3219.41
439.34	3438.54
439.54	3166.16
439.75	3207.12
439.95	3196.88
440.16	3125.20
440.36	3229.65
440.57	3024.85
440.77	3102.67
440.98	3307.47
441.18	3469.26
441.39	2924.50
441.59	2916.31
441.80	3717.06
442.00	3266.51
442.21	3127.25
442.41	2906.07
442.62	3530.70
442.82	3143.63
443.02	2981.84
443.23	2967.51
443.43	3213.26
443.64	3590.09
443.84	2908.12
444.05	3164.11
444.25	3315.66
444.46	3164.11
444.66	3028.95
444.87	3282.89
445.07	2961.36
445.28	3272.65
445.48	3254.22
445.69	3143.63
445.89	3846.09
446.09	3280.85
446.30	3381.20
446.50	3364.81
446.71	5083.06
446.91	6305.70
447.12	7047.06
447.32	7571.34
447.53	7616.40
447.73	6338.46
447.93	5588.91
448.14	5330.86
448.34	5386.16
448.55	4523.96
448.75	4409.28
448.96	4196.29
449.16	4134.85
449.36	3807.17
449.57	3348.43
449.77	3192.78
449.98	3295.18
450.18	3428.30
450.39	3010.51
450.59	3319.76
450.79	3344.33
451.00	3121.10
451.20	3250.13
451.41	3061.71
451.61	3297.23
451.81	3219.41
452.02	3002.32
452.22	3061.71
452.43	3217.36
452.63	3143.63
452.84	3074.00
453.04	2953.17
453.24	3295.18
453.45	3121.10
453.65	3051.47
453.86	3045.33
454.06	3319.76
454.26	3213.26
454.47	3008.47
454.67	3239.89
454.87	3395.53
455.08	3221.45
455.28	3155.92
455.49	3209.17
455.69	3102.67
455.89	3790.79
456.10	3219.41
456.30	2992.08
456.51	3493.83
456.71	3309.52
456.91	3139.54
457.12	2979.79
457.32	3436.49
457.52	3033.04
457.73	3303.37
457.93	3270.61
458.14	3153.87
458.34	2924.50
458.54	3098.58
458.75	3033.04
458.95	3528.65
459.15	3362.76
459.36	3123.15
459.56	3010.51
459.76	3819.46
459.97	3258.32
460.17	3080.14
460.37	3088.34
460.58	3321.81
460.78	3471.31
460.99	3092.43
461.19	3104.72
461.39	3188.69
461.60	3246.03
461.80	3155.92
462.00	2963.41
462.21	3256.27
462.41	3160.02
462.61	2877.40
462.82	2922.45
463.02	3348.43
463.22	3301.33
463.43	3131.34
463.63	2936.79
463.83	3512.27
464.04	3352.52
464.24	3092.43
464.44	3020.75
464.64	3313.61
464.85	3368.91
465.05	3076.05
465.25	2922.45
465.46	3188.69
465.66	3418.06
465.86	3160.02
466.07	3074.00
466.27	3268.56
466.47	2926.55
466.68	2897.88
466.88	3129.30
467.08	3440.59
467.29	3491.79
467.49	3096.53
467.69	3153.87
467.89	3442.64
468.10	3157.97
468.30	3012.56
468.50	3221.45
468.71	3303.37
468.91	3033.04
469.11	3297.23
469.31	3166.16
469.52	3160.02
469.72	3649.48
469.92	3336.14
470.13	3092.43
470.33	3235.79
470.53	3332.05
470.73	3499.98
470.94	3819.46
471.14	4032.45
471.34	4622.27
471.54	4368.32
471.75	4034.50
471.95	3848.13
472.15	3782.60
472.36	3700.68
472.56	3553.23
472.76	3895.24
472.96	3717.06
473.17	3334.09
473.37	3229.65
473.57	3307.47
473.77	3424.20
473.98	3162.06
474.18	2947.03
474.38	4001.73
474.58	3227.60
474.79	2942.93
474.99	3205.07
475.19	3540.94
475.39	3096.53
475.60	3176.40
475.80	2983.89
476.00	3278.80
476.20	3305.42
476.41	3125.20
476.61	3053.52
476.81	3618.76
477.01	3002.32
477.21	3327.95
477.42	3117.01
477.62	3133.39
477.82	3418.06
478.02	2969.55
478.23	3127.25
478.43	3053.52
478.63	3141.58
478.83	3086.29
479.03	3065.81
479.24	3629.00
479.44	3704.78
479.64	2953.17
479.84	2906.07
480.04	3106.77
480.25	3442.64
480.45	3043.28
480.65	3002.32
480.85	3657.67
481.06	3135.44
481.26	3170.26
481.46	2987.99
481.66	3381.20
481.86	3127.25
482.06	3274.70
482.27	3096.53
482.47	3211.22
482.67	3360.72
482.87	3117.01
483.07	3016.66
483.28	3176.40
483.48	3106.77
483.68	3076.05
483.88	2965.46
484.08	2869.20
484.29	2983.89
484.49	3164.11
484.69	2926.55
484.89	3557.32
485.09	3530.70
485.29	3117.01
485.50	3225.55
485.70	3194.83
485.90	3569.61
486.10	3164.11
486.30	3082.19
486.50	3471.31
486.71	3358.67
486.91	3106.77
487.11	3114.96
487.31	3104.72
487.51	3395.53
487.71	3057.62
487.91	3000.27
488.12	3123.15
488.32	2867.16
488.52	3051.47
488.72	2795.48
488.92	3397.58
489.12	3502.03
489.32	3209.17
489.53	3030.99
489.73	3004.37
489.93	3672.01
490.13	3047.38
490.33	2893.78
490.53	3377.10
490.73	3471.31
490.94	2881.49
491.14	3117.01
491.34	3436.49
491.54	3426.25
491.74	3973.06
491.94	4528.06
492.14	5093.30
492.34	5214.13
492.54	4769.72
492.75	4132.80
492.95	4239.30
493.15	4040.64
493.35	3854.28
493.55	3690.44
493.75	3637.19
493.95	3891.14
494.15	3286.99
494.35	3190.74
494.56	3295.18
494.76	3119.06
494.96	3241.93
495.16	2975.70
495.36	3264.46
495.56	3262.41
495.76	3074.00
495.96	3008.47
496.16	3098.58
496.36	3680.20
496.56	3033.04
496.77	3205.07
496.97	3250.13
497.17	3534.79
497.37	2912.21
497.57	3188.69
497.77	3205.07
497.97	3037.14
498.17	3067.86
498.37	3016.66
498.57	3411.92
498.77	3254.22
498.97	3123.15
499.17	3399.63
499.38	3299.28
499.58	3393.48
499.78	3276.75
499.98	3248.08
500.18	3207.12
500.38	3082.19
500.58	3241.93
500.78	3669.96
500.98	6143.91
501.18	8163.20
501.38	9957.22
501.58	10821.47
501.78	10819.42
501.98	8941.43
502.18	7493.52
502.38	6471.58
502.58	6418.33
502.78	5674.92
502.98	5474.22
503.18	5294.00
503.38	4892.60
503.59	4245.44
503.79	4009.92
503.99	3678.15
504.19	3872.71
504.39	3856.33
504.59	3672.01
504.79	3657.67
504.99	4044.74
505.19	3581.90
505.39	3389.39
505.59	3495.88
505.79	3762.12
505.99	3540.94
506.19	3110.86
506.39	3413.96
506.59	3135.44
506.79	3190.74
506.99	3254.22
507.19	3033.04
507.39	3340.24
507.59	3119.06
507.79	3002.32
507.99	3037.14
508.19	3260.37
508.39	3080.14
508.59	3135.44
508.79	3127.25
508.99	3608.52
509.19	3051.47
509.39	3145.68
509.59	3000.27
509.79	3096.53
509.99	3401.68
510.19	3278.80
510.39	3166.16
510.59	3268.56
510.79	3231.69
510.99	2893.78
511.19	2942.93
511.39	3590.09
511.59	3536.84
511.79	3143.63
511.99	3043.28
512.19	3686.34
512.38	3180.50
512.58	3074.00
512.78	3086.29
512.98	3581.90
513.18	3639.24
513.38	2969.55
513.58	3123.15
513.78	3258.32
513.98	3160.02
514.18	3160.02
514.38	2985.94
514.58	3313.61
514.78	3110.86
514.98	2910.16
515.18	3065.81
515.38	3071.95
515.58	3690.44
515.78	2971.60
515.98	3074.00
516.18	3401.68
516.38	3379.15
516.57	3028.95
516.77	3045.33
516.97	3409.87
517.17	3145.68
517.37	2889.68
517.57	3088.34
517.77	3325.90
517.97	3129.30
518.17	3123.15
518.37	2949.08
518.57	3147.73
518.77	3209.17
518.97	3106.77
519.16	3094.48
519.36	3370.96
519.56	3180.50
519.76	2992.08
519.96	2994.13
520.16	3538.89
520.36	3086.29
520.56	3217.36
520.76	2971.60
520.96	3239.89
521.16	3534.79
521.35	3241.93
521.55	3221.45
521.75	3233.74
521.95	3264.46
522.15	3059.67
522.35	3004.37
522.55	3123.15
522.75	3399.63
522.95	2969.55
523.14	2934.74
523.34	3303.37
523.54	3170.26
523.74	3200.98
523.94	3094.48
524.14	3004.37
524.34	3364.81
524.54	3221.45
524.73	3094.48
524.93	3358.67
525.13	3264.46
525.33	2967.51
525.53	3301.33
525.73	3401.68
525.93	3276.75
526.13	3207.12
526.32	2957.27
526.52	3471.31
526.72	3395.53
526.92	3055.57
527.12	2953.17
527.32	3010.51
527.52	3385.29
527.71	3123.15
527.91	3084.24
528.11	3188.69
528.31	3295.18
528.51	2983.89
528.71	3225.55
528.90	3405.77
529.10	3524.55
529.30	3131.34
529.50	2797.53
529.70	3336.14
529.90	3231.69
530.09	3057.62
530.29	2852.82
530.49	3067.86
530.69	3868.61
530.89	3149.78
531.09	3137.49
531.28	3196.88
531.48	3463.12
531.68	3041.23
531.88	3133.39
532.08	3395.53
532.28	3147.73
532.47	3198.93
532.67	3196.88
532.87	3409.87
533.07	3010.51
533.27	3125.20
533.46	3131.34
533.66	3366.86
533.86	3213.26
534.06	3141.58
534.26	3135.44
534.45	3248.08
534.65	3411.92
534.85	3121.10
535.05	2996.18
535.25	3485.64
535.44	2930.64
535.64	3139.54
535.84	3139.54
536.04	3176.40
536.24	3174.35
536.43	3067.86
536.63	3018.71
536.83	3227.60
537.03	3256.27
537.22	2854.87
537.42	2830.29
537.62	3403.72
537.82	3086.29
538.02	3239.89
538.21	3135.44
538.41	3755.97
538.61	3420.11
538.81	3057.62
539.00	3196.88
539.20	2959.31
539.40	3225.55
539.60	3030.99
539.79	3192.78
539.99	3266.51
540.19	3094.48
540.39	2963.41
540.58	3139.54
540.78	3524.55
540.98	3196.88
541.18	3233.74
541.37	3117.01
541.57	3274.70
541.77	3346.38
541.97	3039.19
542.16	2961.36
542.36	3246.03
542.56	3018.71
542.76	3229.65
542.95	3114.96
543.15	3432.40
543.35	3401.68
543.54	2998.23
543.74	3045.33
543.94	3553.23
544.14	3127.25
544.33	3188.69
544.53	3045.33
544.73	3231.69
544.93	3205.07
545.12	3127.25
545.32	3090.38
545.52	3235.79
545.71	3059.67
545.91	3106.77
546.11	3004.37
546.30	3078.10
546.50	3262.41
546.70	3131.34
546.90	3123.15
547.09	2930.64
547.29	3241.93
547.49	3219.41
547.68	3084.24
547.88	3172.30
548.08	3446.73
548.27	3391.44
548.47	3020.75
548.67	3192.78
548.87	3385.29
549.06	2996.18
549.26	3016.66
549.46	3313.61
549.65	3170.26
549.85	3110.86
550.05	3078.10
550.24	3016.66
550.44	3184.59
550.64	3160.02
550.83	3211.22
551.03	3571.66
551.23	3483.59
551.42	3168.21
551.62	3184.59
551.82	3256.27
552.01	3303.37
552.21	3393.48
552.41	3088.34
552.60	3602.38
552.80	3246.03
553.00	3008.47
553.19	3098.58
553.39	3565.51
553.59	3028.95
553.78	3229.65
553.98	3065.81
554.17	3063.76
554.37	3321.81
554.57	3133.39
554.76	2942.93
554.96	3151.82
555.16	3303.37
555.35	3133.39
555.55	3213.26
555.75	3350.48
555.94	3332.05
556.14	2887.64
556.33	3071.95
556.53	3239.89
556.73	3209.17
556.92	3053.52
557.12	2955.22
557.32	3637.19
557.51	3542.99
557.71	3053.52
557.90	3307.47
558.10	3588.04
558.30	3217.36
558.49	3057.62
558.69	3067.86
558.88	3434.44
559.08	3291.09
559.28	3078.10
559.47	3096.53
559.67	3409.87
559.86	3755.97
560.06	2983.89
560.26	3080.14
560.45	3332.05
560.65	3239.89
560.84	3393.48
561.04	2959.31
561.24	3446.73
561.43	2983.89
561.63	3303.37
561.82	3160.02
562.02	3409.87
562.22	3100.62
562.41	3000.27
562.61	3104.72
562.80	3096.53
563.00	3737.54
563.19	3129.30
563.39	3131.34
563.59	3330.00
563.78	3112.91
563.98	2844.63
564.17	3010.51
564.37	2959.31
564.56	3237.84
564.76	2871.25
564.96	3231.69
565.15	3389.39
565.35	3719.11
565.54	3131.34
565.74	3125.20
565.93	3325.90
566.13	3250.13
566.32	3153.87
566.52	3127.25
566.71	3270.61
566.91	3432.40
567.11	3243.98
567.30	3041.23
567.50	3405.77
567.69	3403.72
567.89	3028.95
568.08	3008.47
568.28	3291.09
568.47	3063.76
568.67	3057.62
568.86	3071.95
569.06	3430.35
569.25	3225.55
569.45	3002.32
569.64	3026.90
569.84	3274.70
570.04	3284.94
570.23	3043.28
570.43	3172.30
570.62	3278.80
570.82	3569.61
571.01	2942.93
571.21	3026.90
571.40	3076.05
571.60	3436.49
571.79	3151.82
571.99	3096.53
572.18	3024.85
572.38	3356.62
572.57	3100.62
572.77	3098.58
572.96	3825.61
573.16	3248.08
573.35	3049.43
573.55	3192.78
573.74	3370.96
573.94	3143.63
574.13	3022.80
574.33	3272.65
574.52	3485.64
574.71	3323.85
574.91	3164.11
575.10	2953.17
575.30	3172.30
575.49	3123.15
575.69	2924.50
575.88	3059.67
576.08	3164.11
576.27	3405.77
576.47	3006.42
576.66	3252.17
576.86	3512.27
577.05	3289.04
577.25	3104.72
577.44	3317.71
577.64	3141.58
577.83	3430.35
578.02	3030.99
578.22	3207.12
578.41	3594.19
578.61	3237.84
578.80	2922.45
579.00	3112.91
579.19	3330.00
579.39	3346.38
579.58	3241.93
579.77	3067.86
579.97	3553.23
580.16	3463.12
580.36	3241.93
580.55	3174.35
580.75	3346.38
580.94	3270.61
581.13	3311.57
581.33	3362.76
581.52	3295.18
581.72	3596.23
581.91	3225.55
582.11	3035.09
582.30	3352.52
582.49	3389.39
582.69	3387.34
582.88	3114.96
583.08	3364.81
583.27	3436.49
583.47	3207.12
583.66	3082.19
583.85	3112.91
584.05	3192.78
584.24	3235.79
584.44	3108.82
584.63	3405.77
584.82	3633.10
585.02	3291.09
585.21	3256.27
585.41	3348.43
585.60	3268.56
585.79	3305.42
585.99	3409.87
586.18	3334.09
586.37	4321.21
586.57	6227.87
586.76	17389.30
586.96	37238.22
587.15	50910.46
587.34	59114.62
587.54	63214.65
587.73	56464.55
587.93	40924.56
588.12	31227.43
588.31	25603.71
588.51	22550.18
588.70	21061.31
588.89	18300.65
589.09	15783.70
589.28	13727.53
589.47	10839.90
589.67	8431.49
589.86	6465.44
590.06	5099.44
590.25	4429.76
590.44	3872.71
590.64	3461.07
590.83	3647.43
591.02	3512.27
591.22	3098.58
591.41	3172.30
591.60	3172.30
591.80	3796.93
591.99	2891.73
592.18	3092.43
592.38	3385.29
592.57	3114.96
592.76	3114.96
592.96	3188.69
593.15	3180.50
593.34	3524.55
593.54	3102.67
593.73	3286.99
593.92	3426.25
594.12	3393.48
594.31	3100.62
594.50	3346.38
594.70	3389.39
594.89	3846.09
595.08	2990.03
595.28	3213.26
595.47	3934.15
595.66	3459.02
595.86	3008.47
596.05	3041.23
596.24	3317.71
596.43	3688.39
596.63	3129.30
596.82	3239.89
597.01	3340.24
597.21	3622.86
597.40	3074.00
597.59	3117.01
597.79	3149.78
597.98	3375.05
598.17	3129.30
598.36	3092.43
598.56	3452.88
598.75	3246.03
598.94	3217.36
599.14	3106.77
599.33	3131.34
599.52	3405.77
599.71	3137.49
599.91	3061.71
600.10	3434.44
600.29	3260.37
600.48	3164.11
600.68	3207.12
600.87	3373.00
601.06	3147.73
601.26	3217.36
601.45	3190.74
601.64	3172.30
601.83	3524.55
602.03	3020.75
602.22	2969.55
602.41	3567.56
602.60	3717.06
602.80	3157.97
602.99	3291.09
603.18	3305.42
603.37	3346.38
603.57	2996.18
603.76	3055.57
603.95	3528.65
604.14	3168.21
604.34	2961.36
604.53	3026.90
604.72	3350.48
604.91	3508.17
605.10	3112.91
605.30	2944.98
605.49	3723.21
605.68	3387.34
605.87	3057.62
606.07	3074.00
606.26	3215.31
606.45	3375.05
606.64	3135.44
606.84	2940.88
607.03	3295.18
607.22	3536.84
607.41	3086.29
607.60	3063.76
607.80	3446.73
607.99	3133.39
608.18	3106.77
608.37	3131.34
608.56	3176.40
608.76	3442.64
608.95	3250.13
609.14	3106.77
609.33	3463.12
609.52	3530.70
609.72	3260.37
609.91	3164.11
610.10	3270.61
610.29	3569.61
610.48	3170.26
610.68	3196.88
610.87	3299.28
611.06	3428.30
611.25	3030.99
611.44	3246.03
611.63	3231.69
611.83	3495.88
612.02	2983.89
612.21	3174.35
612.40	2930.64
612.59	3016.66
612.79	2987.99
612.98	3176.40
613.17	3598.28
613.36	3270.61
613.55	3213.26
613.74	3049.43
613.93	3373.00
614.13	3461.07
614.32	3323.85
614.51	3160.02
614.70	3219.41
614.89	3223.50
615.08	3188.69
615.28	3442.64
615.47	3098.58
615.66	3430.35
615.85	3164.11
616.04	3106.77
616.23	3325.90
616.42	3330.00
616.62	3074.00
616.81	3061.71
617.00	3291.09
617.19	3397.58
617.38	3078.10
617.57	3155.92
617.76	3477.45
617.95	3418.06
618.15	3166.16
618.34	3258.32
618.53	3018.71
618.72	3481.55
618.91	3190.74
619.10	3100.62
619.29	3268.56
619.48	3246.03
619.68	2920.40
619.87	3059.67
620.06	2963.41
620.25	3438.54
620.44	2977.75
620.63	3082.19
620.82	3348.43
621.01	3268.56
621.20	3096.53
621.39	3235.79
621.59	3426.25
621.78	3321.81
621.97	3051.47
622.16	3221.45
622.35	3317.71
622.54	3444.68
622.73	3184.59
622.92	2897.88
623.11	3495.88
623.30	3246.03
623.49	3225.55
623.68	2918.36
623.88	3504.07
624.07	3160.02
624.26	2979.79
624.45	3049.43
624.64	3252.17
624.83	3346.38
625.02	3043.28
625.21	3127.25
625.40	3125.20
625.59	3456.97
625.78	3153.87
625.97	3178.45
626.16	3481.55
626.35	3440.59
626.54	3108.82
626.74	3303.37
626.93	3190.74
627.12	3313.61
627.31	3160.02
627.50	3125.20
627.69	3481.55
627.88	3180.50
628.07	3082.19
628.26	2844.63
628.45	3143.63
628.64	3080.14
628.83	3024.85
629.02	3016.66
629.21	3379.15
629.40	3350.48
629.59	3041.23
629.78	3057.62
629.97	3258.32
630.16	3227.60
630.35	3082.19
630.54	3151.82
630.73	3135.44
630.92	3282.89
631.11	3012.56
631.30	3143.63
631.49	3436.49
631.68	3264.46
631.87	3069.91
632.06	3086.29
632.25	3764.17
632.44	3268.56
632.63	3205.07
632.82	3108.82
633.01	3106.77
633.20	3426.25
633.39	3082.19
633.58	2934.74
633.77	3379.15
633.96	3364.81
634.15	3227.60
634.34	3260.37
634.53	3373.00
634.72	3196.88
634.91	2924.50
635.10	3137.49
635.29	3395.53
635.48	3256.27
635.67	2979.79
635.86	2996.18
636.05	3540.94
636.24	3348.43
636.43	3110.86
636.62	3119.06
636.81	2807.77
637.00	3303.37
637.19	3008.47
637.38	3057.62
637.57	3274.70
637.76	3315.66
637.95	3360.72
638.14	3274.70
638.33	3381.20
638.52	3278.80
638.71	3037.14
638.89	2985.94
639.08	3876.80
639.27	3491.79
639.46	3403.72
639.65	3655.62
639.84	3829.70
640.03	4016.07
640.22	3665.86
640.41	3608.52
640.60	3401.68
640.79	3575.75
640.98	3297.23
641.17	3266.51
641.36	3516.36
641.55	3489.74
641.74	2947.03
641.92	2990.03
642.11	3188.69
642.30	3200.98
642.49	2953.17
642.68	3078.10
642.87	3348.43
643.06	3313.61
643.25	2897.88
643.44	2961.36
643.63	3286.99
643.82	3416.01
644.00	3030.99
644.19	3086.29
644.38	3190.74
644.57	3393.48
644.76	3006.42
644.95	3123.15
645.14	3291.09
645.33	3295.18
645.52	3145.68
645.71	2942.93
645.89	3098.58
646.08	3223.50
646.27	3137.49
646.46	3272.65
646.65	2996.18
646.84	3387.34
647.03	2961.36
647.22	3268.56
647.40	3309.52
647.59	3219.41
647.78	2838.48
647.97	3084.24
648.16	3033.04
648.35	3495.88
648.54	3311.57
648.73	3145.68
648.91	3467.21
649.10	3241.93
649.29	2983.89
649.48	2979.79
649.67	3313.61
649.86	3319.76
650.05	3131.34
650.23	3340.24
650.42	3149.78
650.61	3643.34
650.80	3352.52
650.99	3395.53
651.18	3471.31
651.36	3456.97
651.55	3008.47
651.74	3176.40
651.93	3184.59
652.12	3327.95
652.31	3162.06
652.49	3074.00
652.68	3188.69
652.87	3581.90
653.06	3190.74
653.25	3368.91
653.44	3243.98
653.62	3643.34
653.81	3137.49
654.00	3067.86
654.19	3452.88
654.38	3790.79
654.56	3182.54
654.75	3008.47
654.94	3493.83
655.13	3305.42
655.32	2994.13
655.51	3164.11
655.69	3213.26
655.88	3405.77
656.07	2887.64
656.26	3108.82
656.45	3049.43
656.63	3284.94
656.82	3020.75
657.01	3332.05
657.20	3137.49
657.38	3588.04
657.57	3049.43
657.76	2936.79
657.95	3368.91
658.14	3250.13
658.32	3252.17
658.51	2889.68
658.70	3325.90
658.89	3280.85
659.08	3135.44
659.26	3270.61
659.45	3121.10
659.64	3346.38
659.83	3076.05
660.01	3463.12
660.20	3338.19
660.39	3561.42
660.58	2783.19
660.76	3149.78
660.95	3002.32
661.14	3200.98
661.33	2914.26
661.51	3067.86
661.70	3248.08
661.89	3364.81
662.08	3137.49
662.26	2871.25
662.45	3141.58
662.64	3694.54
662.83	3088.34
663.01	3016.66
663.20	3147.73
663.39	3491.79
663.58	3067.86
663.76	3012.56
663.95	3420.11
664.14	3108.82
664.32	3203.02
664.51	2985.94
664.70	2947.03
664.89	3286.99
665.07	2932.69
665.26	3209.17
665.45	3047.38
665.64	3471.31
665.82	3035.09
666.01	3219.41
666.20	3030.99
666.38	3405.77
666.57	3424.20
666.76	5515.18
666.95	12822.33
667.13	20526.79
667.32	24950.40
667.51	28008.02
667.69	28845.64
667.88	24133.26
668.07	17395.45
668.25	14946.08
668.44	12599.10
668.63	11163.48
668.81	9723.76
669.00	8466.30
669.19	7597.96
669.38	6684.57
669.56	5748.65
669.75	4847.54
669.94	4429.76
670.12	3741.64
670.31	3434.44
670.50	3323.85
670.68	3454.92
670.87	3379.15
671.06	2987.99
671.24	3106.77
671.43	3594.19
671.62	3293.13
671.80	3074.00
671.99	3223.50
672.18	3385.29
672.36	3409.87
672.55	3182.54
672.74	3141.58
672.92	3155.92
673.11	3401.68
673.29	2979.79
673.48	3280.85
673.67	3295.18
673.85	3506.12
674.04	2969.55
674.23	3172.30
674.41	3688.39
674.60	3010.51
674.79	2844.63
674.97	2908.12
675.16	3407.82
675.34	3481.55
675.53	3131.34
675.72	3196.88
675.90	3669.96
676.09	3205.07
676.28	3157.97
676.46	2887.64
676.65	3368.91
676.83	3059.67
677.02	3155.92
677.21	3108.82
677.39	3373.00
677.58	3033.04
677.77	3039.19
677.95	3004.37
678.14	3282.89
678.32	3272.65
678.51	3090.38
678.70	3483.59
678.88	3176.40
679.07	3262.41
679.25	3061.71
679.44	3045.33
679.63	3004.37
679.81	3278.80
680.00	3334.09
680.18	3153.87
680.37	3520.46
680.55	3338.19
680.74	2871.25
680.93	2824.15
681.11	3362.76
681.30	3209.17
681.48	3080.14
681.67	3026.90
681.85	3336.14
682.04	3092.43
682.23	3164.11
682.41	3239.89
682.60	3174.35
682.78	3180.50
682.97	3000.27
683.15	3047.38
683.34	3313.61
683.53	3573.71
683.71	2883.54
683.90	3078.10
684.08	3571.66
684.27	3094.48
684.45	3133.39
684.64	3235.79
684.82	3227.60
685.01	3311.57
685.19	3092.43
685.38	3360.72
685.57	3237.84
685.75	3117.01
685.94	2983.89
686.12	2959.31
686.31	3196.88
686.49	3631.05
686.68	2836.44
686.86	3067.86
687.05	3217.36
687.23	3590.09
687.42	3071.95
687.60	2936.79
687.79	3485.64
687.97	3569.61
688.16	3145.68
688.34	3327.95
688.53	2924.50
688.71	3286.99
688.90	3395.53
689.08	3090.38
689.27	2979.79
689.45	3358.67
689.64	3229.65
689.82	3176.40
690.01	3434.44
690.19	3336.14
690.38	3053.52
690.56	3172.30
690.75	3166.16
690.93	3184.59
691.12	2990.03
691.30	3098.58
691.49	3164.11
691.67	3250.13
691.86	3375.05
692.04	3143.63
692.23	3219.41
692.41	3307.47
692.60	3413.96
692.78	3215.31
692.97	3309.52
693.15	3389.39
693.34	3338.19
693.52	3254.22
693.71	3235.79
693.89	3182.54
694.08	2871.25
694.26	3168.21
694.44	3456.97
694.63	3364.81
694.81	3049.43
695.00	3125.20
695.18	3526.60
695.37	3805.13
695.55	3147.73
695.74	3196.88
695.92	3090.38
696.10	3430.35
696.29	2969.55
696.47	3041.23
696.66	3043.28
696.84	3090.38
697.03	3039.19
697.21	3327.95
697.40	4642.75
697.58	3495.88
697.76	3049.43
697.95	3071.95
698.13	3098.58
698.32	3182.54
698.50	3106.77
698.68	3041.23
698.87	3422.16
699.05	3635.14
699.24	3131.34
699.42	3035.09
699.61	3327.95
699.79	3280.85
699.97	3155.92
700.16	2977.75
700.34	2957.27
700.53	3434.44
700.71	3325.90
700.89	3239.89
701.08	3157.97
701.26	3262.41
701.45	3459.02
701.63	3100.62
701.81	3065.81
702.00	3090.38
702.18	3229.65
702.37	3045.33
702.55	3571.66
702.73	3401.68
702.92	3053.52
703.10	3459.02
703.28	3442.64
703.47	3110.86
703.65	3342.28
703.84	3286.99
704.02	3241.93
704.20	3624.90
704.39	3004.37
704.57	3098.58
704.75	3352.52
704.94	3301.33
705.12	3248.08
705.30	4083.65
705.49	8585.08
705.67	16654.08
705.86	23512.73
706.04	26625.64
706.22	29476.41
706.41	28120.66
706.59	21116.61
706.77	16512.77
706.96	14282.53
707.14	13057.85
707.32	10983.26
707.51	9760.62
707.69	8017.80
707.87	6580.12
708.06	5294.00
708.24	4507.58
708.42	4089.79
708.61	4163.52
708.79	3223.50
708.97	3205.07
709.16	3489.74
709.34	3352.52
709.52	3157.97
709.71	3088.34
709.89	3313.61
710.07	3004.37
710.26	2928.60
710.44	3078.10
710.62	3448.78
710.80	3336.14
710.99	3272.65
711.17	3280.85
711.35	3205.07
711.54	3096.53
711.72	3180.50
711.90	3221.45
712.09	3321.81
712.27	3151.82
712.45	3248.08
712.63	3067.86
712.82	3301.33
713.00	3157.97
713.18	3209.17
713.37	3313.61
713.55	3418.06
713.73	3461.07
713.91	3194.83
714.10	3082.19
714.28	3276.75
714.46	3348.43
714.65	3133.39
714.83	3143.63
715.01	3205.07
715.19	3299.28
715.38	3018.71
715.56	3237.84
715.74	3043.28
715.92	3057.62
716.11	3407.82
716.29	2891.73
716.47	3246.03
716.65	3215.31
716.84	2983.89
717.02	3141.58
717.20	3010.51
717.38	3207.12
717.57	3194.83
717.75	3143.63
717.93	3272.65
718.11	3411.92
718.30	3028.95
718.48	3180.50
718.66	3485.64
718.84	3467.21
719.03	3135.44
719.21	2889.68
719.39	3594.19
719.57	3467.21
719.75	3270.61
719.94	3069.91
720.12	3160.02
720.30	3266.51
720.48	3155.92
720.67	3088.34
720.85	3102.67
721.03	3190.74
721.21	3061.71
721.39	3262.41
721.58	3370.96
721.76	3295.18
721.94	3102.67
722.12	3219.41
722.30	3653.58
722.49	3153.87
722.67	3082.19
722.85	3121.10
723.03	2975.70
723.21	3082.19
723.40	3100.62
723.58	3254.22
723.76	3430.35
723.94	3573.71
724.12	3174.35
724.30	3321.81
724.49	3407.82
724.67	3076.05
724.85	3227.60
725.03	3022.80
725.21	3420.11
725.40	3461.07
725.58	3114.96
725.76	3289.04
725.94	3330.00
726.12	3037.14
726.30	3162.06
726.49	3108.82
726.67	3086.29
726.85	3356.62
727.03	3952.58
727.21	5515.18
727.39	7096.21
727.57	7694.22
727.76	8284.03
727.94	8267.65
728.12	7190.42
728.30	5799.85
728.48	5537.71
728.66	5013.43
728.84	4839.35
729.03	4065.22
729.21	3790.79
729.39	3536.84
729.57	3411.92
729.75	3397.58
729.93	3330.00
730.11	3100.62
730.30	3246.03
730.48	3168.21
730.66	3084.24
730.84	3235.79
731.02	3272.65
731.20	3137.49
731.38	3151.82
731.56	2932.69
731.74	3030.99
731.93	3352.52
732.11	3270.61
732.29	3043.28
732.47	3524.55
732.65	3311.57
732.83	3293.13
733.01	3174.35
733.19	3196.88
733.37	3401.68
733.56	3051.47
733.74	2983.89
733.92	3583.95
734.10	3246.03
734.28	3225.55
734.46	2889.68
734.64	3157.97
734.82	3164.11
735.00	3108.82
735.18	3082.19
735.36	3334.09
735.54	3196.88
735.73	3053.52
735.91	3192.78
736.09	3600.33
736.27	3299.28
736.45	3129.30
736.63	2996.18
736.81	3172.30
736.99	3428.30
737.17	3295.18
737.35	3018.71
737.53	3364.81
737.71	3180.50
737.89	3299.28
738.07	3135.44
738.25	3151.82
738.43	3016.66
738.61	3139.54
738.80	2985.94
738.98	3045.33
739.16	3117.01
739.34	3049.43
739.52	3317.71
739.70	3303.37
739.88	3434.44
740.06	3246.03
740.24	2844.63
740.42	3440.59
740.60	2942.93
740.78	3026.90
740.96	2883.54
741.14	3241.93
741.32	3364.81
741.50	2887.64
741.68	3364.81
741.86	3563.47
742.04	3094.48
742.22	2977.75
742.40	3033.04
742.58	3358.67
742.76	3035.09
742.94	3258.32
743.12	2959.31
743.30	3229.65
743.48	3370.96
743.66	3008.47
743.84	3084.24
744.02	3164.11
744.20	3299.28
744.38	2934.74
744.56	3114.96
744.74	3602.38
744.92	3344.33
745.10	3246.03
745.28	3196.88
745.46	3542.99
745.64	3180.50
745.82	3172.30
746.00	3014.61
746.18	3254.22
746.36	3078.10
746.54	3172.30
746.72	3117.01
746.90	3057.62
747.08	3538.89
747.26	3061.71
747.44	3213.26
747.62	3432.40
747.80	3346.38
747.98	3160.02
748.15	3071.95
748.33	3573.71
748.51	3368.91
748.69	3153.87
748.87	2996.18
749.05	3127.25
749.23	3272.65
749.41	3049.43
749.59	3055.57
749.77	3504.07
749.95	3188.69
750.13	2951.12
750.31	3164.11
750.49	3239.89
750.67	3336.14
750.85	3207.12
751.03	3100.62
751.20	3686.34
751.38	3278.80
751.56	3108.82
751.74	3108.82
751.92	3219.41
752.10	2996.18
752.28	3231.69
752.46	3008.47
752.64	3315.66
752.82	3377.10
753.00	3215.31
753.18	2998.23
753.35	3188.69
753.53	3293.13
753.71	3014.61
753.89	3164.11
754.07	3352.52
754.25	3432.40
754.43	3149.78
754.61	3061.71
754.79	3358.67
754.97	3235.79
755.14	3266.51
755.32	3053.52
755.50	3225.55
755.68	3385.29
755.86	2994.13
756.04	3071.95
756.22	2959.31
756.40	3479.50
756.57	3284.94
756.75	3037.14
756.93	3495.88
757.11	3409.87
757.29	2961.36
757.47	3026.90
757.65	3010.51
757.82	2865.11
758.00	3065.81
758.18	3022.80
758.36	3135.44
758.54	3524.55
758.72	2953.17
758.90	3184.59
759.07	3307.47
759.25	3035.09
759.43	3080.14
759.61	2961.36
759.79	4526.01
759.97	3403.72
760.15	3102.67
760.32	3010.51
760.50	3340.24
760.68	3575.75
760.86	2918.36
761.04	3307.47
761.22	3336.14
761.39	3256.27
761.57	3274.70
761.75	3084.24
761.93	3420.11
762.11	3270.61
762.28	3211.22
762.46	2975.70
762.64	3401.68
762.82	3024.85
763.00	3069.91
763.18	3188.69
763.35	3074.00
763.53	3407.82
763.71	3157.97
763.89	3055.57
764.07	3325.90
764.24	3332.05
764.42	3219.41
764.60	3078.10
764.78	3346.38
764.96	3405.77
765.13	3270.61
765.31	3049.43
765.49	3330.00
765.67	3094.48
765.84	3094.48
766.02	3016.66
766.20	3039.19
766.38	3330.00
766.56	3211.22
766.73	3139.54
766.91	3229.65
767.09	3270.61
767.27	3172.30
767.44	3012.56
767.62	3354.57
767.80	3291.09
767.98	3024.85
768.15	3069.91
768.33	3368.91
768.51	3411.92
768.69	3125.20
768.87	3014.61
769.04	3262.41
769.22	3753.93
769.40	3188.69
769.58	3243.98
769.75	3309.52
769.93	3493.83
770.11	3112.91
770.28	2969.55
770.46	3450.83
770.64	3205.07
770.82	3090.38
770.99	3043.28
771.17	3379.15
771.35	3157.97
771.53	3078.10
771.70	3053.52
771.88	3364.81
772.06	3192.78
772.23	3010.51
772.41	3155.92
772.59	3289.04
772.77	3129.30
772.94	3141.58
773.12	3213.26
773.30	3297.23
773.47	3221.45
773.65	2979.79
773.83	3207.12
774.01	3147.73
774.18	2863.06
774.36	3026.90
774.54	2928.60
774.71	3327.95
774.89	2951.12
775.07	3004.37
775.24	3080.14
775.42	3229.65
775.60	3651.53
775.78	3069.91
775.95	2940.88
776.13	2969.55
776.31	3024.85
776.48	3303.37
776.66	3246.03
776.84	3260.37
777.01	3092.43
777.19	3061.71
777.37	3065.81
777.54	3377.10
777.72	3647.43
777.90	3196.88
778.07	3026.90
778.25	3968.96
778.43	3483.59
778.60	2998.23
778.78	3139.54
778.96	3532.75
779.13	3004.37
779.31	3157.97
779.49	3141.58
779.66	3299.28
779.84	3182.54
780.01	3141.58
780.19	3004.37
780.37	3540.94
780.54	3387.34
780.72	2879.44
780.90	3127.25
781.07	3215.31
781.25	3174.35
781.43	3243.98
781.60	3106.77
781.78	3502.03
781.95	3291.09
782.13	3020.75
782.31	3088.34
782.48	3035.09
782.66	3149.78
782.83	3325.90
783.01	3176.40
783.19	3553.23
783.36	3256.27
783.54	3139.54
783.72	3180.50
783.89	3051.47
784.07	3237.84
784.24	3166.16
784.42	3215.31
784.60	3295.18
784.77	3377.10
784.95	2914.26
785.12	3033.04
785.30	3332.05
785.47	3098.58
785.65	2926.55
785.83	3135.44
786.00	3237.84
786.18	3348.43
786.35	3006.42
786.53	3061.71
786.71	3438.54
786.88	3354.57
787.06	3239.89
787.23	3205.07
787.41	3035.09
787.58	3246.03
787.76	3020.75
787.94	3071.95
788.11	3391.44
788.29	3074.00
788.46	3074.00
788.64	2922.45
788.81	3194.83
788.99	3141.58
789.16	3033.04
789.34	3092.43
789.52	3153.87
789.69	3215.31
789.87	2893.78
790.04	2987.99
790.22	3268.56
790.39	3698.63
790.57	3063.76
790.74	2977.75
790.92	3508.17
791.09	2969.55
791.27	3114.96
791.44	3145.68
791.62	3180.50
791.79	3461.07
791.97	3098.58
792.15	3401.68
792.32	3438.54
792.50	3463.12
792.67	3190.74
792.85	3393.48
793.02	3403.72
793.20	3139.54
793.37	2951.12
793.55	2987.99
793.72	2973.65
793.90	3377.10
794.07	3076.05
794.25	2973.65
794.42	3291.09
794.60	3190.74
794.77	3166.16
794.95	3229.65
795.12	3358.67
795.30	3270.61
795.47	2873.30
795.65	3418.06
795.82	3368.91
796.00	3086.29
796.17	3196.88
796.34	2983.89
796.52	3397.58
796.69	3409.87
796.87	3184.59
797.04	3160.02
797.22	3522.51
797.39	3262.41
797.57	3153.87
797.74	3145.68
797.92	3327.95
798.09	3131.34
798.27	3342.28
798.44	3061.71
798.62	3074.00
798.79	3237.84
798.96	3186.64
799.14	3090.38
799.31	3819.46
799.49	3180.50
799.66	3037.14
799.84	3127.25
800.01	2973.65
800.19	3344.33
800.36	2856.92
800.53	3106.77
800.71	3346.38
800.88	3604.42
801.06	2932.69
801.23	2967.51
801.41	3186.64
801.58	3123.15
801.75	3059.67
801.93	3164.11
802.10	3397.58
802.28	3270.61
802.45	3139.54
802.63	3141.58
802.80	3561.42
802.97	3235.79
803.15	3143.63
803.32	3055.57
803.50	3106.77
803.67	3088.34
803.84	3045.33
804.02	3209.17
804.19	3110.86
804.37	2815.96
804.54	2918.36
804.71	3063.76
804.89	3332.05
805.06	3069.91
805.24	3006.42
805.41	2963.41
805.58	3196.88
805.76	3751.88
805.93	3096.53
806.10	3256.27
806.28	3383.24
806.45	3344.33
806.63	3295.18
806.80	3233.74
806.97	3354.57
807.15	3272.65
807.32	3176.40
807.49	3049.43
807.67	3024.85
807.84	3301.33
808.01	2926.55
808.19	3239.89
808.36	3696.58
808.54	3172.30
808.71	3026.90
808.88	3006.42
809.06	3532.75
809.23	3565.51
809.40	3084.24
809.58	3108.82
809.75	3323.85
809.92	3024.85
810.10	3311.57
810.27	3096.53
810.44	3383.24
810.62	3436.49
810.79	3110.86
810.96	3020.75
811.14	3174.35
811.31	3426.25
811.48	3186.64
811.66	3117.01
811.83	3409.87
812.00	3377.10
812.18	3166.16
812.35	3430.35
812.52	3170.26
812.69	3065.81
812.87	3114.96
813.04	3082.19
813.21	3209.17
813.39	3096.53
813.56	2942.93
813.73	3327.95
813.91	3000.27
814.08	3362.76
814.25	3088.34
814.42	2938.84
814.60	3188.69
814.77	3315.66
814.94	3037.14
815.12	3215.31
815.29	3555.27
815.46	3190.74
815.63	3106.77
815.81	2975.70
815.98	3225.55
816.15	3213.26
816.33	3139.54
816.50	3133.39
816.67	3223.50
816.84	3223.50
817.02	2953.17
817.19	3069.91
817.36	3313.61
817.53	3280.85
817.71	3035.09
817.88	3092.43
818.05	3307.47
818.22	3166.16
818.40	3260.37
818.57	3061.71
818.74	3313.61
818.91	3270.61
819.09	3313.61
819.26	3209.17
819.43	3135.44
819.60	3114.96
819.78	3262.41
819.95	3151.82
820.12	3026.90
820.29	3563.47
820.47	3342.28
820.64	3008.47
820.81	3004.37
820.98	3155.92
821.15	3049.43
821.33	3235.79
821.50	2959.31
821.67	3393.48
821.84	3082.19
822.02	3092.43
822.19	3399.63
822.36	3149.78
822.53	3002.32
822.70	3000.27
822.88	3246.03
823.05	3450.83
823.22	3139.54
823.39	3092.43
823.56	3289.04
823.74	3688.39
823.91	2910.16
824.08	3002.32
824.25	3016.66
824.42	3598.28
824.60	2961.36
824.77	3151.82
824.94	3282.89
825.11	3346.38
825.28	2975.70
825.45	3133.39
825.63	3223.50
825.80	3102.67
825.97	3178.45
826.14	3106.77
826.31	2947.03
826.48	3373.00
826.66	3033.04
826.83	3028.95
827.00	3246.03
827.17	3084.24
827.34	3180.50
827.51	2996.18
827.69	3227.60
827.86	2942.93
828.03	3082.19
828.20	3137.49
828.37	3125.20
828.54	3360.72
828.71	2934.74
828.89	3207.12
829.06	3325.90
829.23	3569.61
829.40	3053.52
829.57	3018.71
829.74	3424.20
829.91	3098.58
830.09	3022.80
830.26	3198.93
830.43	3479.50
830.60	3188.69
830.77	3149.78
830.94	3252.17
831.11	3450.83
831.28	3160.02
831.46	3209.17
831.63	3028.95
831.80	3502.03
831.97	3133.39
832.14	3074.00
832.31	3074.00
832.48	3192.78
832.65	3463.12
832.82	3233.74
832.99	3221.45
833.17	3051.47
833.34	3559.37
833.51	3045.33
833.68	2926.55
833.85	3446.73
834.02	3026.90
834.19	3002.32
834.36	3053.52
834.53	3282.89
834.70	3467.21
834.87	3057.62
835.04	2889.68
835.22	3162.06
835.39	3166.16
835.56	2836.44
835.73	2938.84
835.90	3528.65
836.07	3051.47
836.24	3131.34
836.41	2961.36
836.58	3180.50
836.75	3446.73
836.92	2944.98
837.09	2820.05
837.26	3454.92
837.43	3305.42
837.60	2916.31
837.77	3014.61
837.94	3522.51
838.12	3524.55
838.29	2889.68
838.46	2861.01
838.63	2942.93
838.80	3553.23
838.97	3012.56
839.14	2891.73
839.31	3280.85
839.48	3420.11
839.65	2990.03
839.82	3018.71
839.99	3330.00
840.16	3184.59
840.33	2822.10
840.50	2887.64
840.67	3182.54
840.84	2846.68
841.01	2858.96
841.18	2893.78
841.35	3207.12
841.52	3436.49
841.69	3209.17
841.86	2955.22
842.03	3157.97
842.20	3323.85
842.37	2949.08
842.54	2973.65
842.71	3286.99
842.88	3041.23
843.05	2912.21
843.22	2881.49
843.39	3389.39
843.56	3051.47
843.73	2846.68
843.90	2992.08
844.07	3227.60
844.24	3434.44
844.41	2973.65
844.58	2926.55
844.75	3297.23
844.92	3278.80
845.09	2858.96
845.26	2877.40
845.43	3465.16
845.60	3198.93
845.77	2998.23
845.94	2987.99
846.10	3411.92
846.27	3016.66
846.44	2762.71
846.61	2787.29
846.78	3448.78
846.95	3528.65
847.12	2893.78
847.29	2936.79
847.46	3100.62
847.63	3389.39
847.80	2850.77
847.97	2908.12
848.14	3708.87
848.31	3184.59
848.48	2818.00
848.65	2891.73
848.82	3110.86
848.98	3809.22
849.15	3000.27
849.32	3110.86
849.49	3479.50
849.66	3252.17
849.83	2922.45
850.00	2822.10
850.17	3385.29
850.34	3198.93
850.51	2848.72
850.68	2899.92
850.85	3729.35
851.01	3340.24
851.18	2863.06
851.35	2959.31
851.52	3196.88
851.69	3567.56
851.86	2867.16
852.03	2848.72
852.20	3360.72
852.37	3239.89
852.53	2785.24
852.70	2842.58
852.87	3280.85
853.04	3434.44
853.21	2836.44
853.38	3203.02
853.55	3485.64
853.72	3491.79
853.89	2791.38
854.05	2910.16
854.22	3164.11
854.39	3250.13
854.56	2863.06
854.73	3082.19
854.90	3098.58
855.07	3207.12
855.23	2838.48
855.40	2885.59
855.57	3272.65
855.74	2863.06
855.91	3174.35
856.08	2820.05
856.25	2906.07
856.41	3196.88
856.58	2889.68
856.75	2904.02
856.92	3026.90
857.09	3446.73
857.26	2779.09
857.42	2979.79
857.59	3381.20
857.76	3168.21
857.93	2975.70
858.10	2992.08
858.27	3028.95
858.43	3311.57
858.60	2897.88
858.77	2793.43
858.94	3168.21
859.11	3485.64
859.27	2990.03
859.44	2840.53
859.61	3725.26
859.78	3430.35
859.95	2963.41
860.12	2908.12
860.28	3766.21
860.45	3555.27
860.62	2901.97
860.79	3086.29
860.95	3180.50
861.12	3096.53
861.29	2807.77
861.46	2924.50
861.63	3205.07
861.79	3332.05
861.96	2795.48
862.13	2961.36
862.30	3477.45
862.47	3086.29
862.63	2820.05
862.80	3026.90
862.97	3495.88
863.14	3315.66
863.30	2965.46
863.47	2830.29
863.64	3577.80
863.81	3278.80
863.97	2797.53
864.14	2959.31
864.31	3147.73
864.48	3315.66
864.65	2899.92
864.81	3065.81
864.98	3420.11
865.15	3442.64
865.32	2990.03
865.48	3039.19
865.65	3569.61
865.82	3231.69
865.98	3022.80
866.15	2934.74
866.32	3164.11
866.49	3215.31
866.65	3041.23
866.82	2901.97
866.99	3235.79
867.16	3139.54
867.32	2924.50
867.49	2801.62
867.66	3133.39
867.83	3194.83
867.99	2836.44
868.16	2910.16
868.33	3057.62
868.49	3207.12
868.66	2936.79
868.83	3151.82
868.99	3256.27
869.16	3327.95
869.33	3164.11
869.50	3061.71
869.66	3233.74
869.83	3221.45
870.00	2873.30
870.16	3018.71
870.33	3203.02
870.50	3448.78
870.66	2990.03
870.83	2992.08
871.00	3252.17
871.17	3411.92
871.33	2926.55
871.50	2887.64
871.67	3250.13
871.83	3092.43
872.00	3043.28
872.17	2893.78
872.33	3608.52
872.50	3477.45
872.67	2848.72
872.83	2924.50
873.00	3370.96
873.17	3262.41
873.33	2963.41
873.50	3000.27
873.67	3080.14
873.83	3108.82
874.00	2940.88
874.16	3043.28
874.33	3291.09
874.50	3026.90
874.66	2889.68
874.83	3041.23
875.00	3383.24
875.16	3442.64
875.33	3012.56
875.50	2652.12
875.66	3168.21
875.83	3264.46
875.99	2992.08
876.16	2981.84
876.33	2990.03
876.49	3196.88
876.66	3020.75
876.83	2996.18
876.99	2998.23
877.16	3176.40
877.32	2854.87
877.49	2940.88
877.66	3272.65
877.82	3485.64
877.99	2953.17
878.15	3237.84
878.32	3350.48
878.49	3301.33
878.65	2983.89
878.82	3246.03
878.98	3117.01
879.15	3565.51
879.32	3047.38
879.48	3141.58
879.65	3172.30
879.81	3266.51
879.98	2957.27
880.15	2934.74
880.31	3327.95
880.48	3082.19
880.64	3055.57
880.81	3104.72
880.97	3569.61
881.14	3442.64
881.31	2877.40
881.47	3063.76
881.64	3317.71
881.80	2961.36
881.97	3090.38
882.13	2938.84
882.30	2942.93
882.47	3016.66
882.63	2908.12
882.80	2803.67
882.96	3219.41
883.13	3401.68
883.29	2891.73
883.46	2865.11
883.62	3678.15
883.79	3207.12
883.95	3117.01
884.12	2852.82
884.29	3379.15
884.45	3229.65
884.62	2942.93
884.78	2914.26
884.95	3565.51
885.11	3094.48
885.28	3082.19
885.44	3014.61
885.61	3401.68
885.77	3510.22
885.94	3090.38
886.10	3012.56
886.27	3327.95
886.43	3631.05
886.60	3143.63
886.76	2961.36
886.93	3055.57
887.09	3260.37
887.26	2787.29
887.42	3057.62
887.59	3540.94
887.75	3684.30
887.92	3196.88
888.08	3035.09
888.25	3672.01
888.41	3518.41
888.58	3000.27
888.74	2861.01
888.91	3135.44
>>>>>End Processed Spectral Data<<<<<
