SpectraSuite Data File
++++++++++++++++++++++++++++++++++++
Date: Fri May 06 08:14:33 CEST 2016
User: root
Dark Spectrum Present: No
Reference Spectrum Present: No
Number of Sampled Component Spectra: 1
Spectrometers: USB4C02835
Integration Time (usec): 100000 (USB4C02835)
Spectra Averaged: 1 (USB4C02835)
Boxcar Smoothing: 0 (USB4C02835)
Correct for Electrical Dark: No (USB4C02835)
Strobe/Lamp Enabled: No (USB4C02835)
Correct for Detector Non-linearity: No (USB4C02835)
Correct for Stray Light: No (USB4C02835)
Number of Pixels in Processed Spectrum: 3648
>>>>>Begin Processed Spectral Data<<<<<
177.47	2314.20
177.69	2314.20
177.91	2314.20
178.13	2334.68
178.36	2287.58
178.58	3035.09
178.80	3092.43
179.02	3018.71
179.24	3127.25
179.46	2764.76
179.68	2897.88
179.90	3213.26
180.13	3246.03
180.35	2648.02
180.57	2820.05
180.79	3463.12
181.01	3250.13
181.23	2840.53
181.45	3067.86
181.67	3489.74
181.90	3432.40
182.12	2928.60
182.34	2693.08
182.56	3442.64
182.78	3379.15
183.00	2809.81
183.22	2826.20
183.44	2951.12
183.66	3899.33
183.89	2977.75
184.11	2842.58
184.33	3440.59
184.55	3528.65
184.77	2830.29
184.99	2797.53
185.21	3198.93
185.43	3790.79
185.65	2914.26
185.87	2834.39
186.10	3819.46
186.32	3792.84
186.54	2971.60
186.76	2992.08
186.98	3461.07
187.20	3192.78
187.42	2944.98
187.64	2811.86
187.86	3397.58
188.08	3481.55
188.30	2758.61
188.52	2871.25
188.75	3614.66
188.97	3624.90
189.19	2787.29
189.41	2844.63
189.63	3301.33
189.85	3147.73
190.07	2756.57
190.29	2803.67
190.51	3340.24
190.73	3074.00
190.95	3004.37
191.17	2805.72
191.39	2992.08
191.61	3182.54
191.84	2815.96
192.06	3014.61
192.28	2932.69
192.50	3962.82
192.72	3067.86
192.94	3006.42
193.16	3569.61
193.38	3315.66
193.60	2791.38
193.82	3012.56
194.04	3526.60
194.26	3391.44
194.48	2873.30
194.70	2811.86
194.92	3235.79
195.14	3413.96
195.36	2832.34
195.58	2975.70
195.80	3254.22
196.02	3133.39
196.24	2850.77
196.46	3030.99
196.69	3164.11
196.91	3760.07
197.13	2887.64
197.35	2889.68
197.57	3581.90
197.79	3401.68
198.01	2955.22
198.23	2844.63
198.45	3336.14
198.67	3012.56
198.89	2725.85
199.11	2953.17
199.33	3147.73
199.55	2838.48
199.77	2815.96
199.99	2994.13
200.21	3186.64
200.43	3215.31
200.65	2840.53
200.87	2721.75
201.09	3352.52
201.31	3246.03
201.53	2828.24
201.75	2963.41
201.97	3368.91
202.19	3254.22
202.41	2955.22
202.63	3057.62
202.85	3405.77
203.07	3342.28
203.29	3018.71
203.51	2779.09
203.73	3112.91
203.95	3864.52
204.17	2750.42
204.39	2938.84
204.61	3252.17
204.83	3168.21
205.05	3020.75
205.27	2865.11
205.49	3692.49
205.71	3246.03
205.93	2754.52
206.15	2742.23
206.37	3350.48
206.59	3239.89
206.81	2721.75
207.03	2785.24
207.25	3168.21
207.47	3436.49
207.69	2865.11
207.91	3151.82
208.13	3571.66
208.34	3168.21
208.56	2885.59
208.78	2971.60
209.00	3192.78
209.22	3237.84
209.44	2926.55
209.66	2895.83
209.88	3274.70
210.10	3200.98
210.32	2754.52
210.54	2959.31
210.76	3246.03
210.98	3526.60
211.20	2686.94
211.42	2994.13
211.64	3532.75
211.86	3346.38
212.08	2881.49
212.30	2897.88
212.52	3280.85
212.74	3387.34
212.96	3033.04
213.17	2965.46
213.39	3452.88
213.61	3612.62
213.83	2895.83
214.05	2762.71
214.27	3504.07
214.49	3082.19
214.71	2899.92
214.93	2959.31
215.15	3243.98
215.37	3422.16
215.59	2721.75
215.81	2852.82
216.03	3536.84
216.24	3237.84
216.46	2889.68
216.68	2940.88
216.90	3407.82
217.12	3479.50
217.34	2795.48
217.56	3028.95
217.78	3583.95
218.00	3373.00
218.22	2916.31
218.44	3018.71
218.66	3303.37
218.87	3672.01
219.09	2871.25
219.31	2861.01
219.53	3299.28
219.75	3172.30
219.97	2811.86
220.19	2969.55
220.41	3205.07
220.63	3661.77
220.85	2908.12
221.06	2910.16
221.28	3618.76
221.50	3379.15
221.72	2850.77
221.94	2717.65
222.16	3356.62
222.38	3428.30
222.60	2781.14
222.82	2932.69
223.03	3536.84
223.25	3104.72
223.47	2885.59
223.69	3067.86
223.91	3346.38
224.13	3274.70
224.35	2785.24
224.57	3106.77
224.78	3434.44
225.00	3033.04
225.22	2994.13
225.44	2791.38
225.66	3444.68
225.88	3166.16
226.10	3022.80
226.32	2803.67
226.53	3614.66
226.75	3160.02
226.97	2977.75
227.19	2871.25
227.41	3098.58
227.63	3239.89
227.85	2643.93
228.06	2918.36
228.28	3360.72
228.50	3479.50
228.72	2734.04
228.94	2858.96
229.16	2904.02
229.37	3022.80
229.59	2729.94
229.81	3141.58
230.03	3215.31
230.25	3053.52
230.47	2693.08
230.69	2818.00
230.90	3350.48
231.12	3131.34
231.34	2951.12
231.56	2930.64
231.78	3061.71
232.00	3233.74
232.21	2844.63
232.43	2908.12
232.65	2906.07
232.87	3286.99
233.09	2670.55
233.30	2803.67
233.52	3538.89
233.74	3221.45
233.96	2865.11
234.18	3014.61
234.40	3178.45
234.61	3784.65
234.83	2807.77
235.05	2881.49
235.27	3831.75
235.49	3483.59
235.70	2777.05
235.92	2828.24
236.14	3332.05
236.36	3805.13
236.58	2783.19
236.79	2987.99
237.01	3262.41
237.23	3194.83
237.45	3084.24
237.67	2885.59
237.88	3348.43
238.10	3547.08
238.32	2781.14
238.54	2846.68
238.76	3280.85
238.97	3071.95
239.19	2795.48
239.41	2861.01
239.63	3610.57
239.85	3217.36
240.06	2830.29
240.28	2820.05
240.50	3405.77
240.72	3323.85
240.93	2762.71
241.15	3024.85
241.37	3278.80
241.59	3538.89
241.81	2858.96
242.02	2959.31
242.24	3340.24
242.46	3334.09
242.68	2705.37
242.89	2826.20
243.11	3401.68
243.33	3325.90
243.55	2856.92
243.76	2867.16
243.98	3143.63
244.20	3270.61
244.42	2936.79
244.64	2910.16
244.85	2918.36
245.07	3162.06
245.29	2822.10
245.51	2901.97
245.72	3280.85
245.94	3452.88
246.16	2822.10
246.38	2793.43
246.59	3135.44
246.81	3125.20
247.03	2752.47
247.24	2672.60
247.46	3164.11
247.68	3370.96
247.90	2775.00
248.11	2869.20
248.33	3387.34
248.55	3248.08
248.77	2965.46
248.98	2977.75
249.20	3581.90
249.42	3305.42
249.64	2893.78
249.85	2803.67
250.07	3239.89
250.29	3420.11
250.50	2940.88
250.72	2729.94
250.94	3409.87
251.16	3803.08
251.37	2799.57
251.59	2944.98
251.81	3264.46
252.02	3581.90
252.24	2775.00
252.46	3006.42
252.68	3063.76
252.89	3119.06
253.11	2615.26
253.33	3049.43
253.54	3631.05
253.76	3012.56
253.98	2838.48
254.20	2865.11
254.41	3000.27
254.63	3254.22
254.85	2746.33
255.06	3018.71
255.28	3411.92
255.50	3200.98
255.71	2838.48
255.93	2709.46
256.15	3334.09
256.36	3299.28
256.58	2723.80
256.80	2762.71
257.02	3250.13
257.23	3225.55
257.45	2918.36
257.67	2940.88
257.88	3119.06
258.10	3368.91
258.32	2918.36
258.53	2942.93
258.75	3631.05
258.97	3207.12
259.18	2795.48
259.40	2789.33
259.62	3680.20
259.83	3565.51
260.05	2873.30
260.27	3778.50
260.48	3504.07
260.70	3053.52
260.92	2758.61
261.13	2861.01
261.35	3401.68
261.57	3348.43
261.78	2797.53
262.00	2809.81
262.22	3393.48
262.43	3125.20
262.65	2840.53
262.86	2848.72
263.08	3844.04
263.30	3387.34
263.51	2674.65
263.73	2832.34
263.95	3502.03
264.16	3084.24
264.38	2709.46
264.60	2805.72
264.81	3327.95
265.03	3504.07
265.25	3264.46
265.46	2799.57
265.68	3469.26
265.89	3465.16
266.11	2760.66
266.33	2805.72
266.54	3481.55
266.76	3358.67
266.98	2949.08
267.19	3008.47
267.41	3512.27
267.62	3205.07
267.84	2662.36
268.06	2856.92
268.27	3258.32
268.49	3577.80
268.70	2846.68
268.92	2889.68
269.14	3145.68
269.35	3100.62
269.57	3008.47
269.79	2891.73
270.00	3131.34
270.22	3606.47
270.43	2803.67
270.65	2705.37
270.87	3319.76
271.08	3442.64
271.30	2967.51
271.51	2883.54
271.73	3418.06
271.95	3540.94
272.16	2893.78
272.38	3008.47
272.59	3252.17
272.81	3506.12
273.02	2801.62
273.24	2889.68
273.46	3524.55
273.67	3010.51
273.89	2797.53
274.10	2895.83
274.32	3422.16
274.54	3291.09
274.75	2957.27
274.97	2977.75
275.18	3418.06
275.40	3385.29
275.61	2942.93
275.83	2973.65
276.05	3106.77
276.26	3303.37
276.48	2938.84
276.69	3069.91
276.91	3227.60
277.12	3536.84
277.34	3008.47
277.55	3059.67
277.77	3276.75
277.99	3190.74
278.20	3045.33
278.42	2936.79
278.63	3125.20
278.85	3049.43
279.06	3008.47
279.28	3147.73
279.49	3524.55
279.71	3436.49
279.93	3110.86
280.14	3102.67
280.36	3157.97
280.57	3590.09
280.79	3078.10
281.00	2879.44
281.22	3235.79
281.43	3516.36
281.65	2787.29
281.86	2877.40
282.08	3362.76
282.29	3655.62
282.51	2910.16
282.73	2818.00
282.94	2969.55
283.16	3377.10
283.37	3141.58
283.59	3071.95
283.80	3434.44
284.02	3252.17
284.23	2987.99
284.45	3049.43
284.66	3055.57
284.88	3186.64
285.09	2934.74
285.31	3063.76
285.52	3327.95
285.74	2996.18
285.95	3172.30
286.17	3000.27
286.38	3573.71
286.60	3188.69
286.81	2942.93
287.03	2877.40
287.24	3254.22
287.46	3399.63
287.67	3166.16
287.89	3270.61
288.10	3272.65
288.32	3264.46
288.53	3180.50
288.75	3106.77
288.96	3393.48
289.18	3205.07
289.39	2887.64
289.61	3123.15
289.82	3712.97
290.04	3721.16
290.25	2858.96
290.47	3143.63
290.68	3280.85
290.90	3502.03
291.11	2793.43
291.33	3180.50
291.54	3114.96
291.76	3135.44
291.97	3133.39
292.18	3112.91
292.40	3114.96
292.61	3135.44
292.83	3254.22
293.04	2998.23
293.26	3278.80
293.47	3258.32
293.69	2869.20
293.90	2901.97
294.12	3504.07
294.33	3274.70
294.55	3055.57
294.76	3203.02
294.97	3585.99
295.19	3770.31
295.40	3061.71
295.62	3045.33
295.83	3463.12
296.05	3055.57
296.26	3219.41
296.48	2944.98
296.69	3254.22
296.90	3213.26
297.12	3143.63
297.33	3074.00
297.55	3272.65
297.76	3438.54
297.98	3133.39
298.19	3139.54
298.41	3256.27
298.62	3114.96
298.83	3135.44
299.05	3061.71
299.26	3119.06
299.48	3123.15
299.69	3106.77
299.90	3049.43
300.12	3123.15
300.33	3420.11
300.55	3041.23
300.76	3018.71
300.98	3090.38
301.19	3426.25
301.40	2918.36
301.62	2971.60
301.83	3348.43
302.05	3221.45
302.26	2942.93
302.47	2996.18
302.69	2992.08
302.90	3286.99
303.12	2795.48
303.33	3151.82
303.54	3704.78
303.76	3237.84
303.97	2940.88
304.19	3176.40
304.40	3026.90
304.61	3360.72
304.83	3137.49
305.04	3045.33
305.26	3393.48
305.47	3112.91
305.68	3002.32
305.90	2824.15
306.11	3485.64
306.33	3182.54
306.54	2818.00
306.75	2992.08
306.97	2975.70
307.18	3100.62
307.39	3004.37
307.61	2998.23
307.82	3106.77
308.04	3424.20
308.25	2869.20
308.46	3157.97
308.68	3317.71
308.89	3293.13
309.10	3106.77
309.32	2996.18
309.53	3270.61
309.74	3397.58
309.96	2912.21
310.17	3090.38
310.39	3135.44
310.60	3364.81
310.81	3065.81
311.03	2899.92
311.24	3393.48
311.45	3264.46
311.67	3203.02
311.88	3084.24
312.09	3176.40
312.31	3174.35
312.52	2928.60
312.73	2953.17
312.95	3041.23
313.16	3012.56
313.37	3213.26
313.59	3157.97
313.80	3413.96
314.01	3542.99
314.23	2934.74
314.44	2910.16
314.65	3057.62
314.87	2981.84
315.08	2918.36
315.29	3024.85
315.51	3149.78
315.72	3065.81
315.93	3016.66
316.15	2983.89
316.36	3090.38
316.57	3311.57
316.79	2979.79
317.00	2955.22
317.21	3469.26
317.43	3082.19
317.64	2981.84
317.85	2922.45
318.07	3125.20
318.28	3200.98
318.49	3086.29
318.70	3166.16
318.92	3375.05
319.13	3323.85
319.34	3235.79
319.56	3008.47
319.77	3403.72
319.98	3424.20
320.20	3266.51
320.41	3135.44
320.62	3383.24
320.83	3016.66
321.05	3198.93
321.26	3061.71
321.47	3266.51
321.69	3461.07
321.90	2889.68
322.11	2994.13
322.32	3434.44
322.54	3551.18
322.75	3078.10
322.96	3952.58
323.18	3008.47
323.39	2938.84
323.60	2887.64
323.81	3043.28
324.03	3149.78
324.24	3274.70
324.45	3180.50
324.66	2947.03
324.88	3469.26
325.09	3661.77
325.30	2944.98
325.52	2910.16
325.73	3315.66
325.94	3049.43
326.15	2848.72
326.37	2928.60
326.58	3463.12
326.79	3655.62
327.00	2901.97
327.22	2928.60
327.43	3252.17
327.64	3012.56
327.85	3108.82
328.07	3030.99
328.28	3635.14
328.49	3096.53
328.70	3010.51
328.92	3049.43
329.13	3274.70
329.34	3325.90
329.55	3196.88
329.76	3160.02
329.98	3221.45
330.19	3540.94
330.40	3139.54
330.61	3203.02
330.83	3409.87
331.04	3051.47
331.25	3143.63
331.46	3016.66
331.68	3028.95
331.89	3487.69
332.10	3049.43
332.31	2815.96
332.52	3237.84
332.74	3571.66
332.95	2838.48
333.16	2951.12
333.37	3473.36
333.58	3076.05
333.80	3016.66
334.01	2811.86
334.22	3278.80
334.43	3094.48
334.64	2926.55
334.86	2981.84
335.07	3131.34
335.28	3606.47
335.49	2854.87
335.70	3024.85
335.92	3585.99
336.13	3649.48
336.34	3078.10
336.55	3006.42
336.76	3352.52
336.98	2920.40
337.19	3000.27
337.40	3182.54
337.61	3903.43
337.82	3194.83
338.04	3219.41
338.25	2824.15
338.46	3268.56
338.67	3293.13
338.88	2899.92
339.09	2883.54
339.31	3190.74
339.52	3045.33
339.73	2942.93
339.94	3098.58
340.15	3467.21
340.36	3135.44
340.58	3065.81
340.79	2910.16
341.00	3481.55
341.21	3049.43
341.42	3209.17
341.63	2981.84
341.85	3403.72
342.06	3297.23
342.27	2936.79
342.48	3203.02
342.69	2953.17
342.90	3487.69
343.12	3416.01
343.33	2861.01
343.54	3448.78
343.75	3635.14
343.96	3108.82
344.17	2875.35
344.38	3207.12
344.60	3061.71
344.81	2959.31
345.02	2959.31
345.23	3522.51
345.44	3839.94
345.65	3166.16
345.86	3153.87
346.07	3362.76
346.29	3147.73
346.50	3203.02
346.71	3061.71
346.92	3581.90
347.13	3741.64
347.34	3168.21
347.55	2811.86
347.76	3356.62
347.98	2992.08
348.19	3053.52
348.40	3229.65
348.61	3196.88
348.82	3549.13
349.03	3020.75
349.24	2938.84
349.45	3753.93
349.66	2904.02
349.88	2994.13
350.09	2926.55
350.30	3520.46
350.51	3585.99
350.72	3282.89
350.93	2977.75
351.14	3139.54
351.35	3319.76
351.56	3041.23
351.77	3086.29
351.99	3438.54
352.20	3540.94
352.41	3137.49
352.62	2863.06
352.83	3162.06
353.04	3280.85
353.25	2955.22
353.46	3039.19
353.67	3545.03
353.88	2924.50
354.09	2910.16
354.30	3065.81
354.52	3434.44
354.73	3188.69
354.94	2973.65
355.15	3123.15
355.36	3753.93
355.57	3215.31
355.78	2908.12
355.99	2875.35
356.20	3194.83
356.41	3475.40
356.62	3069.91
356.83	3084.24
357.04	3614.66
357.25	2938.84
357.46	2944.98
357.68	2861.01
357.89	3071.95
358.10	3215.31
358.31	2992.08
358.52	3051.47
358.73	3092.43
358.94	3139.54
359.15	2920.40
359.36	3049.43
359.57	3282.89
359.78	3272.65
359.99	3254.22
360.20	2895.83
360.41	3286.99
360.62	3403.72
360.83	3098.58
361.04	3039.19
361.25	3352.52
361.46	3493.83
361.67	3145.68
361.88	3004.37
362.09	3540.94
362.30	3330.00
362.51	2811.86
362.72	3135.44
362.93	3403.72
363.14	3278.80
363.35	3184.59
363.56	2928.60
363.78	3557.32
363.99	3448.78
364.20	2969.55
364.41	3065.81
364.62	3618.76
364.83	3368.91
365.04	3004.37
365.25	3010.51
365.46	3669.96
365.67	3180.50
365.88	3121.10
366.09	2994.13
366.30	3321.81
366.51	3270.61
366.72	2889.68
366.93	2934.74
367.14	3319.76
367.35	3532.75
367.56	2901.97
367.77	3176.40
367.98	3368.91
368.18	3413.96
368.39	3127.25
368.60	2947.03
368.81	3424.20
369.02	3352.52
369.23	3035.09
369.44	2836.44
369.65	3241.93
369.86	3375.05
370.07	3180.50
370.28	2940.88
370.49	3385.29
370.70	3389.39
370.91	2865.11
371.12	2807.77
371.33	3489.74
371.54	3237.84
371.75	3190.74
371.96	2772.95
372.17	3332.05
372.38	3207.12
372.59	3043.28
372.80	2987.99
373.01	3229.65
373.22	3229.65
373.43	3033.04
373.64	2904.02
373.85	3565.51
374.06	3606.47
374.26	3198.93
374.47	3133.39
374.68	3563.47
374.89	3332.05
375.10	2951.12
375.31	3153.87
375.52	3168.21
375.73	3254.22
375.94	2844.63
376.15	3069.91
376.36	3086.29
376.57	3119.06
376.78	3055.57
376.99	3086.29
377.20	3592.14
377.40	3196.88
377.61	3239.89
377.82	2983.89
378.03	3598.28
378.24	3311.57
378.45	3053.52
378.66	3112.91
378.87	2994.13
379.08	3018.71
379.29	2953.17
379.50	3190.74
379.71	3241.93
379.91	3362.76
380.12	3014.61
380.33	3082.19
380.54	3338.19
380.75	3303.37
380.96	3061.71
381.17	3051.47
381.38	3233.74
381.59	3205.07
381.80	3149.78
382.00	3215.31
382.21	3358.67
382.42	3565.51
382.63	3352.52
382.84	3135.44
383.05	3393.48
383.26	3569.61
383.47	3098.58
383.68	2963.41
383.88	3403.72
384.09	3319.76
384.30	3200.98
384.51	3114.96
384.72	3205.07
384.93	3049.43
385.14	3166.16
385.35	3368.91
385.55	2926.55
385.76	3508.17
385.97	3014.61
386.18	2834.39
386.39	3098.58
386.60	3086.29
386.81	3028.95
387.02	2889.68
387.22	3018.71
387.43	3397.58
387.64	3035.09
387.85	3225.55
388.06	3217.36
388.27	4349.89
388.48	7757.71
388.68	12015.43
388.89	14851.87
389.10	16299.78
389.31	16019.21
389.52	13125.43
389.73	11110.23
389.93	10241.89
390.14	9129.84
390.35	8361.86
390.56	8083.33
390.77	6483.87
390.98	4939.70
391.18	4265.92
391.39	3966.92
391.60	3282.89
391.81	3272.65
392.02	3018.71
392.23	3794.89
392.43	3289.04
392.64	3139.54
392.85	3188.69
393.06	3612.62
393.27	3250.13
393.47	2990.03
393.68	3059.67
393.89	3106.77
394.10	3450.83
394.31	3061.71
394.52	2893.78
394.72	3078.10
394.93	3520.46
395.14	2934.74
395.35	3190.74
395.56	3166.16
395.76	3258.32
395.97	3037.14
396.18	3131.34
396.39	3315.66
396.60	3833.80
396.80	3403.72
397.01	3221.45
397.22	3442.64
397.43	3479.50
397.64	3114.96
397.84	3135.44
398.05	3741.64
398.26	3246.03
398.47	3200.98
398.67	3227.60
398.88	3282.89
399.09	3438.54
399.30	3004.37
399.51	3108.82
399.71	3092.43
399.92	3209.17
400.13	3143.63
400.34	3010.51
400.54	3311.57
400.75	3598.28
400.96	3180.50
401.17	3354.57
401.37	3420.11
401.58	3321.81
401.79	3026.90
402.00	3139.54
402.21	3794.89
402.41	3454.92
402.62	3317.71
402.83	3489.74
403.04	3694.54
403.24	4120.51
403.45	3235.79
403.66	3291.09
403.87	3571.66
404.07	3631.05
404.28	3330.00
404.49	3301.33
404.70	3395.53
404.90	3528.65
405.11	3065.81
405.32	3117.01
405.52	3184.59
405.73	3196.88
405.94	3012.56
406.15	3135.44
406.35	3354.57
406.56	3499.98
406.77	3086.29
406.98	3041.23
407.18	3092.43
407.39	3538.89
407.60	3096.53
407.80	3114.96
408.01	3129.30
408.22	3413.96
408.43	2992.08
408.63	3190.74
408.84	3364.81
409.05	3524.55
409.25	2967.51
409.46	3125.20
409.67	3198.93
409.88	3225.55
410.08	3090.38
410.29	3028.95
410.50	3520.46
410.70	3346.38
410.91	2912.21
411.12	3090.38
411.32	3241.93
411.53	3071.95
411.74	3127.25
411.95	3135.44
412.15	3241.93
412.36	3442.64
412.57	3278.80
412.77	3239.89
412.98	3250.13
413.19	3143.63
413.39	3147.73
413.60	3117.01
413.81	3608.52
414.01	3041.23
414.22	3065.81
414.43	3188.69
414.63	3131.34
414.84	3491.79
415.05	3078.10
415.25	2869.20
415.46	3422.16
415.67	3096.53
415.87	3149.78
416.08	3024.85
416.29	3252.17
416.49	3452.88
416.70	3065.81
416.91	3069.91
417.11	3256.27
417.32	3551.18
417.53	3192.78
417.73	3143.63
417.94	3213.26
418.15	3350.48
418.35	3016.66
418.56	3063.76
418.77	3774.41
418.97	3313.61
419.18	3174.35
419.38	2795.48
419.59	3362.76
419.80	3616.71
420.00	2920.40
420.21	3076.05
420.42	3526.60
420.62	3344.33
420.83	3049.43
421.04	3076.05
421.24	3209.17
421.45	3450.83
421.65	3033.04
421.86	3088.34
422.07	3448.78
422.27	3422.16
422.48	2877.40
422.69	2889.68
422.89	3289.04
423.10	3137.49
423.30	3110.86
423.51	3090.38
423.72	3303.37
423.92	3487.69
424.13	2881.49
424.33	3151.82
424.54	3452.88
424.75	3313.61
424.95	3305.42
425.16	3074.00
425.36	3270.61
425.57	3518.41
425.78	3221.45
425.98	3176.40
426.19	3321.81
426.39	3166.16
426.60	3188.69
426.81	3278.80
427.01	3315.66
427.22	3129.30
427.42	2922.45
427.63	2951.12
427.83	3530.70
428.04	3674.06
428.25	3078.10
428.45	3141.58
428.66	3493.83
428.86	3301.33
429.07	3117.01
429.28	3123.15
429.48	3301.33
429.69	3088.34
429.89	3196.88
430.10	3035.09
430.30	3385.29
430.51	3504.07
430.71	2942.93
430.92	3123.15
431.13	3170.26
431.33	3370.96
431.54	3117.01
431.74	3317.71
431.95	3770.31
432.15	3106.77
432.36	3022.80
432.56	3172.30
432.77	3657.67
432.98	3620.81
433.18	3104.72
433.39	3004.37
433.59	3272.65
433.80	3616.71
434.00	3217.36
434.21	3069.91
434.41	3198.93
434.62	3782.60
434.82	2869.20
435.03	2932.69
435.23	3311.57
435.44	2869.20
435.64	2994.13
435.85	3110.86
436.06	3426.25
436.26	3442.64
436.47	3049.43
436.67	2910.16
436.88	3229.65
437.08	3448.78
437.29	3180.50
437.49	3151.82
437.70	3495.88
437.90	3284.94
438.11	3256.27
438.31	3110.86
438.52	3592.14
438.72	3516.36
438.93	3385.29
439.13	3182.54
439.34	3485.64
439.54	3160.02
439.75	3117.01
439.95	3180.50
440.16	3100.62
440.36	3188.69
440.57	3045.33
440.77	3020.75
440.98	3360.72
441.18	3338.19
441.39	2983.89
441.59	2967.51
441.80	3674.06
442.00	3258.32
442.21	3160.02
442.41	2875.35
442.62	3622.86
442.82	3168.21
443.02	2987.99
443.23	3047.38
443.43	3178.45
443.64	3495.88
443.84	2963.41
444.05	3164.11
444.25	3395.53
444.46	3219.41
444.66	3008.47
444.87	3332.05
445.07	2918.36
445.28	3274.70
445.48	3297.23
445.69	3137.49
445.89	3794.89
446.09	3274.70
446.30	3395.53
446.50	3436.49
446.71	5175.22
446.91	6438.81
447.12	7102.36
447.32	7659.40
447.53	7610.25
447.73	6363.04
447.93	5463.98
448.14	5371.82
448.34	5504.94
448.55	4483.00
448.75	4442.04
448.96	4161.47
449.16	4073.41
449.36	3930.05
449.57	3309.52
449.77	3117.01
449.98	3200.98
450.18	3348.43
450.39	2998.23
450.59	3268.56
450.79	3270.61
451.00	3106.77
451.20	3252.17
451.41	3016.66
451.61	3334.09
451.81	3264.46
452.02	2981.84
452.22	2969.55
452.43	3200.98
452.63	3059.67
452.84	3065.81
453.04	3051.47
453.24	3272.65
453.45	3139.54
453.65	3028.95
453.86	3057.62
454.06	3286.99
454.26	3299.28
454.47	3018.71
454.67	3313.61
454.87	3350.48
455.08	3286.99
455.28	3108.82
455.49	3270.61
455.69	3043.28
455.89	3676.10
456.10	3127.25
456.30	3174.35
456.51	3471.31
456.71	3295.18
456.91	3176.40
457.12	3035.09
457.32	3411.92
457.52	3094.48
457.73	3223.50
457.93	3215.31
458.14	3213.26
458.34	2949.08
458.54	3080.14
458.75	3020.75
458.95	3526.60
459.15	3319.76
459.36	3147.73
459.56	3018.71
459.76	3835.85
459.97	3319.76
460.17	3125.20
460.37	3074.00
460.58	3307.47
460.78	3469.26
460.99	3065.81
461.19	3117.01
461.39	3147.73
461.60	3305.42
461.80	3094.48
462.00	2953.17
462.21	3258.32
462.41	3131.34
462.61	2965.46
462.82	2830.29
463.02	3399.63
463.22	3274.70
463.43	3047.38
463.63	2893.78
463.83	3530.70
464.04	3411.92
464.24	3082.19
464.44	3041.23
464.64	3346.38
464.85	3358.67
465.05	3026.90
465.25	3020.75
465.46	3139.54
465.66	3413.96
465.86	3082.19
466.07	2981.84
466.27	3252.17
466.47	2871.25
466.68	2852.82
466.88	3059.67
467.08	3508.17
467.29	3493.83
467.49	3090.38
467.69	3151.82
467.89	3399.63
468.10	3243.98
468.30	3147.73
468.50	3219.41
468.71	3444.68
468.91	2932.69
469.11	3194.83
469.31	3104.72
469.52	3080.14
469.72	3663.82
469.92	3299.28
470.13	3071.95
470.33	3223.50
470.53	3286.99
470.73	3526.60
470.94	3887.04
471.14	4016.07
471.34	4706.23
471.54	4351.93
471.75	3985.35
471.95	3823.56
472.15	3760.07
472.36	3803.08
472.56	3559.37
472.76	3782.60
472.96	3643.34
473.17	3327.95
473.37	3276.75
473.57	3258.32
473.77	3370.96
473.98	3209.17
474.18	2998.23
474.38	4061.12
474.58	3108.82
474.79	2971.60
474.99	3137.49
475.19	3487.69
475.39	3049.43
475.60	3147.73
475.80	3016.66
476.00	3391.44
476.20	3237.84
476.41	3184.59
476.61	3065.81
476.81	3524.55
477.01	3045.33
477.21	3321.81
477.42	3147.73
477.62	3106.77
477.82	3360.72
478.02	2985.94
478.23	3100.62
478.43	3063.76
478.63	3221.45
478.83	3059.67
479.03	3147.73
479.24	3508.17
479.44	3723.21
479.64	3059.67
479.84	2836.44
480.04	3147.73
480.25	3508.17
480.45	2904.02
480.65	2904.02
480.85	3590.09
481.06	3188.69
481.26	3100.62
481.46	3057.62
481.66	3252.17
481.86	3051.47
482.06	3207.12
482.27	3123.15
482.47	3196.88
482.67	3344.33
482.87	3082.19
483.07	3117.01
483.28	3151.82
483.48	3049.43
483.68	3071.95
483.88	3004.37
484.08	2977.75
484.29	3028.95
484.49	3108.82
484.69	2803.67
484.89	3491.79
485.09	3469.26
485.29	3098.58
485.50	3237.84
485.70	3241.93
485.90	3542.99
486.10	3213.26
486.30	2961.36
486.50	3583.95
486.71	3336.14
486.91	3076.05
487.11	3157.97
487.31	3018.71
487.51	3340.24
487.71	2971.60
487.91	2992.08
488.12	2947.03
488.32	2869.20
488.52	3006.42
488.72	2844.63
488.92	3297.23
489.12	3416.01
489.32	3151.82
489.53	3016.66
489.73	3035.09
489.93	3622.86
490.13	3086.29
490.33	2961.36
490.53	3401.68
490.73	3448.78
490.94	2869.20
491.14	3256.27
491.34	3440.59
491.54	3397.58
491.74	4001.73
491.94	4519.87
492.14	5132.21
492.34	5169.07
492.54	4777.91
492.75	4167.62
492.95	4372.41
493.15	4075.46
493.35	3825.61
493.55	3729.35
493.75	3700.68
493.95	3913.67
494.15	3325.90
494.35	3164.11
494.56	3211.22
494.76	3203.02
494.96	3243.98
495.16	3037.14
495.36	3459.02
495.56	3334.09
495.76	3155.92
495.96	3049.43
496.16	3127.25
496.36	3696.58
496.56	3022.80
496.77	3131.34
496.97	3268.56
497.17	3594.19
497.37	2889.68
497.57	3182.54
497.77	3311.57
497.97	3018.71
498.17	3160.02
498.37	3033.04
498.57	3379.15
498.77	3282.89
498.97	3221.45
499.17	3356.62
499.38	3211.22
499.58	3340.24
499.78	3223.50
499.98	3217.36
500.18	3215.31
500.38	3057.62
500.58	3264.46
500.78	3712.97
500.98	6158.24
501.18	8073.09
501.38	9842.54
501.58	10807.13
501.78	10938.20
501.98	9000.82
502.18	7622.54
502.38	6551.45
502.58	6367.13
502.78	5668.78
502.98	5396.40
503.18	5332.91
503.38	4990.90
503.59	4204.48
503.79	4005.83
503.99	3700.68
504.19	3856.33
504.39	3919.81
504.59	3698.63
504.79	3616.71
504.99	4014.02
505.19	3583.95
505.39	3360.72
505.59	3514.31
505.79	3764.17
505.99	3502.03
506.19	3168.21
506.39	3428.30
506.59	3248.08
506.79	3213.26
506.99	3350.48
507.19	2969.55
507.39	3264.46
507.59	3061.71
507.79	3043.28
507.99	3080.14
508.19	3289.04
508.39	3166.16
508.59	3119.06
508.79	3147.73
508.99	3719.11
509.19	3221.45
509.39	3137.49
509.59	3028.95
509.79	3141.58
509.99	3379.15
510.19	3207.12
510.39	3166.16
510.59	3258.32
510.79	3223.50
510.99	2998.23
511.19	2934.74
511.39	3594.19
511.59	3545.03
511.79	3252.17
511.99	3049.43
512.19	3596.23
512.38	3278.80
512.58	2998.23
512.78	3028.95
512.98	3624.90
513.18	3563.47
513.38	3012.56
513.58	3200.98
513.78	3270.61
513.98	3229.65
514.18	3045.33
514.38	3057.62
514.58	3262.41
514.78	3149.78
514.98	2971.60
515.18	3094.48
515.38	3067.86
515.58	3622.86
515.78	3074.00
515.98	3139.54
516.18	3434.44
516.38	3356.62
516.57	3065.81
516.77	3026.90
516.97	3424.20
517.17	3108.82
517.37	2818.00
517.57	3172.30
517.77	3211.22
517.97	3221.45
518.17	3133.39
518.37	2953.17
518.57	3080.14
518.77	3256.27
518.97	3125.20
519.16	3063.76
519.36	3524.55
519.56	3108.82
519.76	3024.85
519.96	3139.54
520.16	3553.23
520.36	3071.95
520.56	3160.02
520.76	2994.13
520.96	3213.26
521.16	3461.07
521.35	3200.98
521.55	3139.54
521.75	3307.47
521.95	3170.26
522.15	3024.85
522.35	2877.40
522.55	3147.73
522.75	3389.39
522.95	3020.75
523.14	2885.59
523.34	3233.74
523.54	3182.54
523.74	3221.45
523.94	3143.63
524.14	2914.26
524.34	3350.48
524.54	3266.51
524.73	3076.05
524.93	3452.88
525.13	3233.74
525.33	2889.68
525.53	3313.61
525.73	3364.81
525.93	3293.13
526.13	3028.95
526.32	3016.66
526.52	3491.79
526.72	3463.12
526.92	3041.23
527.12	2949.08
527.32	3012.56
527.52	3327.95
527.71	3045.33
527.91	3041.23
528.11	3223.50
528.31	3297.23
528.51	3088.34
528.71	3162.06
528.90	3270.61
529.10	3559.37
529.30	3057.62
529.50	2697.17
529.70	3264.46
529.90	3174.35
530.09	3074.00
530.29	2975.70
530.49	3110.86
530.69	3856.33
530.89	3172.30
531.09	3153.87
531.28	3248.08
531.48	3602.38
531.68	3037.14
531.88	3094.48
532.08	3434.44
532.28	3268.56
532.47	3162.06
532.67	3192.78
532.87	3352.52
533.07	3121.10
533.27	3057.62
533.46	3098.58
533.66	3282.89
533.86	3237.84
534.06	3094.48
534.26	3065.81
534.45	3211.22
534.65	3514.31
534.85	3135.44
535.05	3030.99
535.25	3518.41
535.44	2955.22
535.64	3139.54
535.84	3078.10
536.04	3162.06
536.24	3207.12
536.43	3055.57
536.63	3063.76
536.83	3246.03
537.03	3205.07
537.22	2877.40
537.42	2795.48
537.62	3366.86
537.82	3110.86
538.02	3256.27
538.21	3155.92
538.41	3813.32
538.61	3432.40
538.81	3141.58
539.00	3155.92
539.20	2934.74
539.40	3207.12
539.60	2998.23
539.79	3278.80
539.99	3221.45
540.19	3098.58
540.39	3028.95
540.58	3110.86
540.78	3561.42
540.98	3305.42
541.18	3215.31
541.37	3057.62
541.57	3256.27
541.77	3454.92
541.97	2973.65
542.16	2975.70
542.36	3229.65
542.56	3141.58
542.76	3157.97
542.95	3172.30
543.15	3346.38
543.35	3409.87
543.54	3026.90
543.74	3016.66
543.94	3561.42
544.14	3190.74
544.33	3180.50
544.53	3096.53
544.73	3276.75
544.93	3149.78
545.12	3020.75
545.32	3117.01
545.52	3213.26
545.71	3043.28
545.91	3063.76
546.11	3008.47
546.30	3133.39
546.50	3264.46
546.70	3149.78
546.90	3053.52
547.09	2963.41
547.29	3217.36
547.49	3119.06
547.68	3000.27
547.88	3067.86
548.08	3434.44
548.27	3319.76
548.47	3016.66
548.67	3110.86
548.87	3325.90
549.06	3059.67
549.26	3018.71
549.46	3340.24
549.65	3117.01
549.85	3043.28
550.05	3051.47
550.24	3004.37
550.44	3327.95
550.64	3131.34
550.83	3160.02
551.03	3577.80
551.23	3403.72
551.42	3020.75
551.62	3059.67
551.82	3272.65
552.01	3172.30
552.21	3338.19
552.41	3145.68
552.60	3497.93
552.80	3241.93
553.00	3006.42
553.19	3086.29
553.39	3680.20
553.59	3080.14
553.78	3188.69
553.98	3018.71
554.17	2994.13
554.37	3291.09
554.57	3063.76
554.76	2944.98
554.96	3160.02
555.16	3317.71
555.35	3100.62
555.55	3225.55
555.75	3303.37
555.94	3426.25
556.14	2883.54
556.33	3037.14
556.53	3225.55
556.73	3336.14
556.92	3057.62
557.12	3039.19
557.32	3690.44
557.51	3485.64
557.71	3051.47
557.90	3170.26
558.10	3477.45
558.30	3180.50
558.49	3141.58
558.69	3108.82
558.88	3448.78
559.08	3387.34
559.28	3123.15
559.47	3084.24
559.67	3354.57
559.86	3729.35
560.06	3024.85
560.26	3106.77
560.45	3379.15
560.65	3172.30
560.84	3370.96
561.04	2967.51
561.24	3418.06
561.43	3004.37
561.63	3268.56
561.82	3180.50
562.02	3510.22
562.22	3112.91
562.41	2965.46
562.61	3035.09
562.80	3018.71
563.00	3766.21
563.19	3164.11
563.39	3166.16
563.59	3395.53
563.78	3121.10
563.98	2875.35
564.17	3084.24
564.37	2887.64
564.56	3192.78
564.76	2949.08
564.96	3209.17
565.15	3393.48
565.35	3745.73
565.54	3239.89
565.74	3137.49
565.93	3409.87
566.13	3270.61
566.32	3153.87
566.52	3166.16
566.71	3336.14
566.91	3385.29
567.11	3260.37
567.30	2895.83
567.50	3307.47
567.69	3438.54
567.89	3061.71
568.08	2979.79
568.28	3317.71
568.47	3033.04
568.67	3057.62
568.86	3002.32
569.06	3467.21
569.25	3192.78
569.45	3000.27
569.64	3100.62
569.84	3219.41
570.04	3370.96
570.23	3067.86
570.43	3119.06
570.62	3160.02
570.82	3622.86
571.01	2895.83
571.21	3010.51
571.40	3131.34
571.60	3381.20
571.79	3135.44
571.99	3016.66
572.18	3061.71
572.38	3375.05
572.57	3131.34
572.77	3092.43
572.96	3809.22
573.16	3248.08
573.35	3037.14
573.55	3227.60
573.74	3483.59
573.94	3289.04
574.13	3086.29
574.33	3217.36
574.52	3456.97
574.71	3299.28
574.91	3123.15
575.10	2955.22
575.30	3143.63
575.49	3123.15
575.69	3033.04
575.88	3041.23
576.08	3250.13
576.27	3387.34
576.47	2992.08
576.66	3219.41
576.86	3518.41
577.05	3364.81
577.25	3106.77
577.44	3286.99
577.64	3121.10
577.83	3461.07
578.02	3024.85
578.22	3254.22
578.41	3614.66
578.61	3229.65
578.80	2951.12
579.00	3131.34
579.19	3295.18
579.39	3338.19
579.58	3190.74
579.77	3061.71
579.97	3594.19
580.16	3547.08
580.36	3209.17
580.55	3155.92
580.75	3303.37
580.94	3268.56
581.13	3229.65
581.33	3280.85
581.52	3243.98
581.72	3655.62
581.91	3196.88
582.11	2985.94
582.30	3401.68
582.49	3321.81
582.69	3407.82
582.88	3143.63
583.08	3360.72
583.27	3502.03
583.47	3276.75
583.66	3086.29
583.85	3092.43
584.05	3274.70
584.24	3248.08
584.44	3119.06
584.63	3456.97
584.82	3512.27
585.02	3278.80
585.21	3149.78
585.41	3413.96
585.60	3256.27
585.79	3243.98
585.99	3403.72
586.18	3299.28
586.37	4227.01
586.57	6262.69
586.76	17471.22
586.96	37262.79
587.15	50478.33
587.34	58856.57
587.54	63358.01
587.73	56067.24
587.93	40650.13
588.12	31143.46
588.31	25407.10
588.51	22679.21
588.70	20819.65
588.89	18491.11
589.09	15845.13
589.28	13799.21
589.47	10919.77
589.67	8288.13
589.86	6393.76
590.06	5015.48
590.25	4519.87
590.44	3844.04
590.64	3534.79
590.83	3450.83
591.02	3588.04
591.22	3059.67
591.41	3215.31
591.60	3270.61
591.80	3747.78
591.99	2910.16
592.18	3057.62
592.38	3553.23
592.57	3139.54
592.76	3061.71
592.96	3135.44
593.15	3270.61
593.34	3502.03
593.54	3006.42
593.73	3246.03
593.92	3311.57
594.12	3340.24
594.31	3123.15
594.50	3282.89
594.70	3413.96
594.89	3895.24
595.08	2899.92
595.28	3258.32
595.47	3860.42
595.66	3532.75
595.86	2959.31
596.05	2926.55
596.24	3297.23
596.43	3672.01
596.63	3182.54
596.82	3243.98
597.01	3354.57
597.21	3624.90
597.40	3141.58
597.59	3092.43
597.79	3250.13
597.98	3473.36
598.17	3166.16
598.36	3145.68
598.56	3553.23
598.75	3182.54
598.94	3188.69
599.14	3184.59
599.33	3164.11
599.52	3491.79
599.71	3180.50
599.91	3063.76
600.10	3346.38
600.29	3289.04
600.48	3215.31
600.68	3229.65
600.87	3360.72
601.06	3086.29
601.26	3309.52
601.45	3233.74
601.64	3278.80
601.83	3573.71
602.03	2895.83
602.22	2893.78
602.41	3428.30
602.60	3841.99
602.80	3160.02
602.99	3309.52
603.18	3127.25
603.37	3295.18
603.57	2994.13
603.76	3108.82
603.95	3391.44
604.14	3180.50
604.34	2957.27
604.53	3006.42
604.72	3393.48
604.91	3350.48
605.10	3088.34
605.30	2906.07
605.49	3665.86
605.68	3444.68
605.87	3018.71
606.07	3010.51
606.26	3323.85
606.45	3356.62
606.64	3088.34
606.84	2957.27
607.03	3151.82
607.22	3448.78
607.41	3188.69
607.60	3117.01
607.80	3430.35
607.99	3282.89
608.18	3076.05
608.37	3114.96
608.56	3123.15
608.76	3520.46
608.95	3198.93
609.14	3053.52
609.33	3534.79
609.52	3545.03
609.72	3180.50
609.91	3166.16
610.10	3334.09
610.29	3530.70
610.48	3217.36
610.68	3131.34
610.87	3243.98
611.06	3389.39
611.25	3098.58
611.44	3235.79
611.63	3176.40
611.83	3606.47
612.02	2930.64
612.21	3239.89
612.40	2940.88
612.59	3096.53
612.79	3014.61
612.98	3133.39
613.17	3612.62
613.36	3266.51
613.55	3266.51
613.74	3198.93
613.93	3379.15
614.13	3377.10
614.32	3352.52
614.51	3155.92
614.70	3299.28
614.89	3258.32
615.08	3174.35
615.28	3428.30
615.47	3106.77
615.66	3356.62
615.85	3155.92
616.04	3100.62
616.23	3282.89
616.42	3364.81
616.62	3030.99
616.81	3104.72
617.00	3301.33
617.19	3373.00
617.38	3102.67
617.57	3104.72
617.76	3463.12
617.95	3477.45
618.15	3168.21
618.34	3317.71
618.53	3010.51
618.72	3510.22
618.91	3170.26
619.10	3133.39
619.29	3309.52
619.48	3272.65
619.68	2961.36
619.87	3086.29
620.06	2987.99
620.25	3383.24
620.44	3010.51
620.63	3065.81
620.82	3291.09
621.01	3293.13
621.20	3067.86
621.39	3168.21
621.59	3399.63
621.78	3311.57
621.97	3094.48
622.16	3213.26
622.35	3352.52
622.54	3463.12
622.73	3231.69
622.92	2901.97
623.11	3561.42
623.30	3188.69
623.49	3143.63
623.68	2953.17
623.88	3510.22
624.07	3188.69
624.26	2983.89
624.45	3074.00
624.64	3114.96
624.83	3289.04
625.02	2953.17
625.21	3110.86
625.40	3422.16
625.59	3565.51
625.78	3139.54
625.97	3198.93
626.16	3549.13
626.35	3571.66
626.54	3088.34
626.74	3356.62
626.93	3213.26
627.12	3188.69
627.31	3198.93
627.50	3114.96
627.69	3459.02
627.88	3153.87
628.07	3008.47
628.26	2885.59
628.45	3112.91
628.64	3139.54
628.83	3061.71
629.02	2944.98
629.21	3456.97
629.40	3352.52
629.59	2961.36
629.78	3086.29
629.97	3280.85
630.16	3311.57
630.35	3076.05
630.54	3180.50
630.73	3180.50
630.92	3317.71
631.11	2963.41
631.30	3088.34
631.49	3450.83
631.68	3280.85
631.87	3043.28
632.06	2983.89
632.25	3813.32
632.44	3282.89
632.63	3112.91
632.82	3112.91
633.01	3213.26
633.20	3344.33
633.39	3012.56
633.58	2930.64
633.77	3354.57
633.96	3393.48
634.15	3239.89
634.34	3127.25
634.53	3432.40
634.72	3096.53
634.91	2928.60
635.10	3137.49
635.29	3485.64
635.48	3319.76
635.67	2992.08
635.86	2940.88
636.05	3622.86
636.24	3362.76
636.43	3090.38
636.62	3203.02
636.81	2785.24
637.00	3229.65
637.19	3084.24
637.38	3094.48
637.57	3237.84
637.76	3205.07
637.95	3278.80
638.14	3196.88
638.33	3358.67
638.52	3311.57
638.71	2983.89
638.89	2998.23
639.08	3807.17
639.27	3618.76
639.46	3422.16
639.65	3604.42
639.84	3934.15
640.03	3975.11
640.22	3702.73
640.41	3575.75
640.60	3481.55
640.79	3532.75
640.98	3278.80
641.17	3336.14
641.36	3508.17
641.55	3491.79
641.74	2953.17
641.92	2953.17
642.11	3149.78
642.30	3231.69
642.49	2959.31
642.68	3078.10
642.87	3346.38
643.06	3416.01
643.25	2889.68
643.44	2994.13
643.63	3239.89
643.82	3452.88
644.00	3043.28
644.19	3092.43
644.38	3051.47
644.57	3442.64
644.76	3157.97
644.95	3065.81
645.14	3272.65
645.33	3262.41
645.52	3157.97
645.71	2895.83
645.89	3157.97
646.08	3229.65
646.27	3063.76
646.46	3246.03
646.65	3024.85
646.84	3258.32
647.03	2981.84
647.22	3239.89
647.40	3295.18
647.59	3233.74
647.78	2811.86
647.97	3039.19
648.16	3112.91
648.35	3502.03
648.54	3330.00
648.73	3076.05
648.91	3389.39
649.10	3241.93
649.29	3010.51
649.48	3057.62
649.67	3403.72
649.86	3338.19
650.05	3098.58
650.23	3299.28
650.42	3184.59
650.61	3637.19
650.80	3325.90
650.99	3469.26
651.18	3532.75
651.36	3559.37
651.55	3000.27
651.74	3319.76
651.93	3241.93
652.12	3282.89
652.31	3127.25
652.49	3141.58
652.68	3178.45
652.87	3583.95
653.06	3112.91
653.25	3338.19
653.44	3297.23
653.62	3618.76
653.81	3117.01
654.00	3057.62
654.19	3332.05
654.38	3909.57
654.56	3129.30
654.75	3033.04
654.94	3397.58
655.13	3338.19
655.32	3004.37
655.51	3133.39
655.69	3102.67
655.88	3409.87
656.07	2967.51
656.26	3067.86
656.45	2992.08
656.63	3268.56
656.82	3035.09
657.01	3352.52
657.20	3112.91
657.38	3467.21
657.57	3037.14
657.76	2973.65
657.95	3407.82
658.14	3198.93
658.32	3160.02
658.51	2877.40
658.70	3250.13
658.89	3375.05
659.08	3139.54
659.26	3319.76
659.45	3119.06
659.64	3381.20
659.83	3065.81
660.01	3448.78
660.20	3311.57
660.39	3612.62
660.58	2758.61
660.76	3112.91
660.95	3004.37
661.14	3303.37
661.33	2895.83
661.51	3133.39
661.70	3149.78
661.89	3325.90
662.08	3074.00
662.26	2861.01
662.45	3094.48
662.64	3575.75
662.83	3168.21
663.01	2963.41
663.20	3117.01
663.39	3616.71
663.58	3102.67
663.76	3006.42
663.95	3381.20
664.14	3098.58
664.32	3114.96
664.51	2930.64
664.70	2949.08
664.89	3348.43
665.07	2930.64
665.26	3203.02
665.45	2975.70
665.64	3385.29
665.82	2983.89
666.01	3209.17
666.20	3080.14
666.38	3499.98
666.57	3444.68
666.76	5513.13
666.95	12959.55
667.13	20528.84
667.32	24893.06
667.51	28145.23
667.69	28747.34
667.88	24061.58
668.07	17458.93
668.25	14728.99
668.44	12773.18
668.63	11011.93
668.81	9717.61
669.00	8413.06
669.19	7901.06
669.38	6647.71
669.56	5822.38
669.75	4945.84
669.94	4421.56
670.12	3815.37
670.31	3456.97
670.50	3358.67
670.68	3508.17
670.87	3344.33
671.06	3074.00
671.24	3213.26
671.43	3532.75
671.62	3383.24
671.80	3039.19
671.99	3286.99
672.18	3391.44
672.36	3461.07
672.55	3211.22
672.74	3211.22
672.92	3213.26
673.11	3467.21
673.29	2967.51
673.48	3254.22
673.67	3178.45
673.85	3499.98
674.04	3016.66
674.23	3213.26
674.41	3725.26
674.60	3041.23
674.79	2879.44
674.97	2926.55
675.16	3389.39
675.34	3448.78
675.53	3080.14
675.72	3051.47
675.90	3618.76
676.09	3215.31
676.28	3145.68
676.46	2904.02
676.65	3313.61
676.83	3123.15
677.02	3121.10
677.21	3221.45
677.39	3358.67
677.58	3164.11
677.77	3047.38
677.95	2967.51
678.14	3241.93
678.32	3250.13
678.51	3094.48
678.70	3442.64
678.88	3188.69
679.07	3252.17
679.25	3004.37
679.44	3100.62
679.63	3018.71
679.81	3356.62
680.00	3321.81
680.18	3131.34
680.37	3612.62
680.55	3264.46
680.74	2938.84
680.93	2840.53
681.11	3352.52
681.30	3291.09
681.48	3069.91
681.67	3067.86
681.85	3305.42
682.04	3074.00
682.23	3223.50
682.41	3149.78
682.60	3286.99
682.78	3284.94
682.97	2979.79
683.15	3106.77
683.34	3293.13
683.53	3510.22
683.71	2926.55
683.90	3127.25
684.08	3680.20
684.27	3190.74
684.45	3078.10
684.64	3270.61
684.82	3278.80
685.01	3442.64
685.19	3090.38
685.38	3428.30
685.57	3239.89
685.75	3178.45
685.94	3069.91
686.12	3039.19
686.31	3157.97
686.49	3643.34
686.68	2901.97
686.86	3030.99
687.05	3192.78
687.23	3583.95
687.42	3106.77
687.60	2895.83
687.79	3471.31
687.97	3581.90
688.16	3231.69
688.34	3334.09
688.53	2912.21
688.71	3364.81
688.90	3532.75
689.08	3147.73
689.27	2936.79
689.45	3395.53
689.64	3178.45
689.82	3157.97
690.01	3348.43
690.19	3354.57
690.38	3227.60
690.56	3213.26
690.75	3000.27
690.93	3172.30
691.12	3078.10
691.30	3067.86
691.49	3137.49
691.67	3239.89
691.86	3495.88
692.04	3164.11
692.23	3149.78
692.41	3209.17
692.60	3373.00
692.78	3295.18
692.97	3278.80
693.15	3471.31
693.34	3266.51
693.52	3330.00
693.71	3160.02
693.89	3149.78
694.08	2906.07
694.26	3155.92
694.44	3405.77
694.63	3364.81
694.81	3041.23
695.00	3059.67
695.18	3424.20
695.37	3776.45
695.55	3147.73
695.74	3131.34
695.92	3084.24
696.10	3545.03
696.29	2975.70
696.47	3020.75
696.66	3055.57
696.84	3102.67
697.03	3160.02
697.21	3368.91
697.40	4663.22
697.58	3545.03
697.76	3041.23
697.95	3127.25
698.13	3090.38
698.32	3137.49
698.50	3106.77
698.68	3108.82
698.87	3340.24
699.05	3553.23
699.24	3028.95
699.42	3071.95
699.61	3325.90
699.79	3293.13
699.97	3121.10
700.16	2977.75
700.34	3008.47
700.53	3254.22
700.71	3356.62
700.89	3164.11
701.08	3157.97
701.26	3231.69
701.45	3422.16
701.63	3024.85
701.81	3153.87
702.00	3112.91
702.18	3276.75
702.37	3033.04
702.55	3551.18
702.73	3387.34
702.92	3114.96
703.10	3440.59
703.28	3420.11
703.47	3096.53
703.65	3334.09
703.84	3180.50
704.02	3223.50
704.20	3581.90
704.39	3084.24
704.57	3057.62
704.75	3495.88
704.94	3395.53
705.12	3303.37
705.30	3930.05
705.49	8667.00
705.67	17051.39
705.86	23471.77
706.04	26601.07
706.22	29517.37
706.41	28632.65
706.59	21173.95
706.77	16328.45
706.96	14165.80
707.14	13102.90
707.32	11089.75
707.51	9877.35
707.69	7993.22
707.87	6571.93
708.06	5257.14
708.24	4622.27
708.42	4163.52
708.61	4255.68
708.79	3295.18
708.97	3286.99
709.16	3383.24
709.34	3323.85
709.52	3098.58
709.71	3084.24
709.89	3338.19
710.07	3139.54
710.26	2985.94
710.44	3166.16
710.62	3473.36
710.80	3319.76
710.99	3252.17
711.17	3237.84
711.35	3133.39
711.54	3160.02
711.72	3303.37
711.90	3264.46
712.09	3432.40
712.27	3125.20
712.45	3229.65
712.63	3010.51
712.82	3336.14
713.00	3270.61
713.18	3221.45
713.37	3278.80
713.55	3475.40
713.73	3389.39
713.91	3135.44
714.10	3110.86
714.28	3180.50
714.46	3295.18
714.65	3221.45
714.83	3145.68
715.01	3280.85
715.19	3215.31
715.38	3065.81
715.56	3135.44
715.74	3233.74
715.92	3074.00
716.11	3350.48
716.29	2926.55
716.47	3293.13
716.65	3233.74
716.84	2940.88
717.02	3209.17
717.20	2967.51
717.38	3217.36
717.57	3153.87
717.75	3119.06
717.93	3102.67
718.11	3381.20
718.30	2979.79
718.48	3067.86
718.66	3551.18
718.84	3499.98
719.03	3141.58
719.21	2983.89
719.39	3606.47
719.57	3442.64
719.75	3194.83
719.94	3057.62
720.12	3186.64
720.30	3272.65
720.48	3198.93
720.67	3047.38
720.85	3086.29
721.03	3147.73
721.21	3020.75
721.39	3176.40
721.58	3424.20
721.76	3295.18
721.94	3143.63
722.12	3243.98
722.30	3622.86
722.49	3162.06
722.67	3131.34
722.85	3106.77
723.03	2990.03
723.21	3129.30
723.40	3096.53
723.58	3157.97
723.76	3383.24
723.94	3499.98
724.12	3221.45
724.30	3418.06
724.49	3495.88
724.67	3063.76
724.85	3254.22
725.03	2969.55
725.21	3483.59
725.40	3522.51
725.58	3051.47
725.76	3291.09
725.94	3370.96
726.12	3082.19
726.30	3141.58
726.49	3074.00
726.67	3246.03
726.85	3475.40
727.03	3860.42
727.21	5506.99
727.39	7133.08
727.57	7823.24
727.76	8195.97
727.94	8464.25
728.12	7301.01
728.30	5971.88
728.48	5607.34
728.66	4972.47
728.84	4822.97
729.03	4190.14
729.21	3733.45
729.39	3635.14
729.57	3426.25
729.75	3471.31
729.93	3387.34
730.11	3035.09
730.30	3121.10
730.48	3213.26
730.66	3135.44
730.84	3278.80
731.02	3278.80
731.20	3205.07
731.38	3188.69
731.56	2959.31
731.74	3051.47
731.93	3297.23
732.11	3223.50
732.29	3076.05
732.47	3428.30
732.65	3233.74
732.83	3313.61
733.01	3196.88
733.19	3117.01
733.37	3397.58
733.56	3117.01
733.74	3069.91
733.92	3641.29
734.10	3246.03
734.28	3258.32
734.46	2949.08
734.64	3311.57
734.82	3168.21
735.00	3053.52
735.18	3065.81
735.36	3338.19
735.54	3213.26
735.73	3182.54
735.91	3178.45
736.09	3579.85
736.27	3239.89
736.45	3184.59
736.63	2815.96
736.81	3192.78
736.99	3436.49
737.17	3389.39
737.35	3051.47
737.53	3416.01
737.71	3256.27
737.89	3227.60
738.07	3086.29
738.25	3117.01
738.43	3014.61
738.61	3104.72
738.80	2871.25
738.98	3074.00
739.16	3076.05
739.34	2899.92
739.52	3418.06
739.70	3268.56
739.88	3403.72
740.06	3180.50
740.24	2832.34
740.42	3426.25
740.60	2930.64
740.78	3057.62
740.96	2869.20
741.14	3153.87
741.32	3262.41
741.50	2947.03
741.68	3368.91
741.86	3598.28
742.04	3039.19
742.22	2961.36
742.40	3010.51
742.58	3366.86
742.76	3194.83
742.94	3289.04
743.12	2924.50
743.30	3278.80
743.48	3405.77
743.66	3045.33
743.84	3061.71
744.02	3223.50
744.20	3276.75
744.38	3016.66
744.56	3014.61
744.74	3592.14
744.92	3375.05
745.10	3346.38
745.28	3160.02
745.46	3618.76
745.64	3209.17
745.82	3155.92
746.00	3094.48
746.18	3286.99
746.36	3065.81
746.54	3133.39
746.72	3119.06
746.90	3086.29
747.08	3442.64
747.26	3051.47
747.44	3297.23
747.62	3395.53
747.80	3231.69
747.98	3196.88
748.15	3033.04
748.33	3641.29
748.51	3246.03
748.69	3200.98
748.87	3037.14
749.05	3207.12
749.23	3213.26
749.41	3133.39
749.59	3043.28
749.77	3479.50
749.95	3188.69
750.13	3110.86
750.31	3198.93
750.49	3276.75
750.67	3397.58
750.85	3200.98
751.03	3041.23
751.20	3727.30
751.38	3360.72
751.56	3114.96
751.74	3112.91
751.92	3243.98
752.10	3047.38
752.28	3200.98
752.46	3084.24
752.64	3248.08
752.82	3278.80
753.00	3213.26
753.18	3043.28
753.35	3219.41
753.53	3278.80
753.71	3012.56
753.89	3117.01
754.07	3325.90
754.25	3573.71
754.43	3172.30
754.61	2938.84
754.79	3295.18
754.97	3215.31
755.14	3270.61
755.32	2994.13
755.50	3270.61
755.68	3309.52
755.86	2985.94
756.04	2961.36
756.22	2947.03
756.40	3416.01
756.57	3332.05
756.75	3088.34
756.93	3432.40
757.11	3467.21
757.29	2953.17
757.47	3117.01
757.65	2971.60
757.82	2840.53
758.00	3119.06
758.18	3084.24
758.36	3110.86
758.54	3569.61
758.72	2926.55
758.90	3272.65
759.07	3344.33
759.25	3086.29
759.43	3186.64
759.61	2883.54
759.79	4607.93
759.97	3461.07
760.15	3096.53
760.32	3053.52
760.50	3411.92
760.68	3598.28
760.86	2967.51
761.04	3387.34
761.22	3428.30
761.39	3325.90
761.57	3188.69
761.75	3121.10
761.93	3528.65
762.11	3278.80
762.28	3225.55
762.46	2963.41
762.64	3426.25
762.82	2957.27
763.00	3028.95
763.18	3348.43
763.35	3071.95
763.53	3454.92
763.71	3131.34
763.89	3055.57
764.07	3268.56
764.24	3258.32
764.42	3098.58
764.60	3166.16
764.78	3379.15
764.96	3416.01
765.13	3239.89
765.31	2961.36
765.49	3477.45
765.67	2977.75
765.84	3016.66
766.02	2967.51
766.20	2975.70
766.38	3348.43
766.56	3133.39
766.73	3176.40
766.91	3229.65
767.09	3309.52
767.27	3172.30
767.44	2961.36
767.62	3387.34
767.80	3368.91
767.98	3061.71
768.15	3045.33
768.33	3459.02
768.51	3379.15
768.69	3221.45
768.87	3151.82
769.04	3317.71
769.22	3833.80
769.40	3248.08
769.58	3282.89
769.75	3291.09
769.93	3549.13
770.11	3057.62
770.28	2987.99
770.46	3409.87
770.64	3319.76
770.82	3102.67
770.99	2938.84
771.17	3391.44
771.35	3221.45
771.53	3121.10
771.70	3008.47
771.88	3413.96
772.06	3303.37
772.23	3033.04
772.41	3084.24
772.59	3221.45
772.77	3098.58
772.94	3160.02
773.12	3078.10
773.30	3196.88
773.47	3373.00
773.65	2959.31
773.83	3254.22
774.01	3309.52
774.18	2813.91
774.36	3049.43
774.54	2953.17
774.71	3278.80
774.89	2994.13
775.07	2967.51
775.24	3033.04
775.42	3176.40
775.60	3690.44
775.78	2973.65
775.95	2908.12
776.13	2992.08
776.31	2938.84
776.48	3297.23
776.66	3315.66
776.84	3168.21
777.01	3131.34
777.19	3022.80
777.37	3051.47
777.54	3418.06
777.72	3690.44
777.90	3188.69
778.07	3041.23
778.25	3893.19
778.43	3450.83
778.60	3000.27
778.78	3114.96
778.96	3557.32
779.13	3049.43
779.31	3088.34
779.49	3129.30
779.66	3305.42
779.84	3164.11
780.01	3057.62
780.19	3059.67
780.37	3557.32
780.54	3405.77
780.72	2885.59
780.90	3074.00
781.07	3235.79
781.25	3139.54
781.43	3250.13
781.60	2969.55
781.78	3428.30
781.95	3336.14
782.13	3026.90
782.31	3090.38
782.48	2928.60
782.66	3246.03
782.83	3385.29
783.01	3209.17
783.19	3499.98
783.36	3190.74
783.54	3016.66
783.72	3131.34
783.89	3125.20
784.07	3284.94
784.24	3221.45
784.42	3252.17
784.60	3297.23
784.77	3319.76
784.95	2828.24
785.12	3041.23
785.30	3338.19
785.47	3139.54
785.65	3006.42
785.83	3147.73
786.00	3086.29
786.18	3256.27
786.35	3057.62
786.53	3024.85
786.71	3473.36
786.88	3375.05
787.06	3217.36
787.23	3106.77
787.41	3008.47
787.58	3264.46
787.76	2994.13
787.94	3108.82
788.11	3360.72
788.29	2992.08
788.46	3143.63
788.64	2924.50
788.81	3223.50
788.99	3065.81
789.16	3028.95
789.34	3129.30
789.52	3215.31
789.69	3076.05
789.87	2863.06
790.04	3028.95
790.22	3307.47
790.39	3715.02
790.57	2918.36
790.74	3016.66
790.92	3368.91
791.09	3020.75
791.27	3110.86
791.44	3184.59
791.62	3207.12
791.79	3401.68
791.97	3180.50
792.15	3432.40
792.32	3491.79
792.50	3358.67
792.67	3319.76
792.85	3356.62
793.02	3303.37
793.20	3268.56
793.37	2926.55
793.55	2975.70
793.72	3102.67
793.90	3471.31
794.07	3041.23
794.25	2951.12
794.42	3354.57
794.60	3157.97
794.77	3164.11
794.95	3254.22
795.12	3459.02
795.30	3297.23
795.47	2848.72
795.65	3368.91
795.82	3346.38
796.00	3094.48
796.17	3211.22
796.34	2936.79
796.52	3307.47
796.69	3401.68
796.87	3227.60
797.04	3164.11
797.22	3510.22
797.39	3366.86
797.57	3276.75
797.74	3254.22
797.92	3327.95
798.09	3117.01
798.27	3362.76
798.44	3094.48
798.62	3121.10
798.79	3256.27
798.96	3241.93
799.14	3080.14
799.31	3782.60
799.49	3207.12
799.66	3162.06
799.84	3082.19
800.01	2992.08
800.19	3321.81
800.36	2889.68
800.53	3151.82
800.71	3358.67
800.88	3524.55
801.06	3026.90
801.23	2990.03
801.41	3194.83
801.58	3123.15
801.75	3051.47
801.93	3110.86
802.10	3426.25
802.28	3200.98
802.45	3125.20
802.63	3160.02
802.80	3545.03
802.97	3135.44
803.15	3092.43
803.32	3076.05
803.50	3102.67
803.67	3145.68
803.84	3000.27
804.02	3241.93
804.19	3250.13
804.37	2891.73
804.54	2899.92
804.71	3043.28
804.89	3248.08
805.06	3186.64
805.24	3084.24
805.41	2977.75
805.58	3200.98
805.76	3827.65
805.93	3096.53
806.10	3233.74
806.28	3352.52
806.45	3364.81
806.63	3248.08
806.80	3153.87
806.97	3295.18
807.15	3303.37
807.32	3174.35
807.49	3108.82
807.67	2965.46
807.84	3321.81
808.01	2932.69
808.19	3237.84
808.36	3678.15
808.54	3127.25
808.71	3033.04
808.88	3110.86
809.06	3512.27
809.23	3510.22
809.40	3069.91
809.58	3069.91
809.75	3239.89
809.92	3035.09
810.10	3323.85
810.27	3088.34
810.44	3393.48
810.62	3358.67
810.79	3069.91
810.96	3055.57
811.14	3117.01
811.31	3430.35
811.48	3272.65
811.66	3117.01
811.83	3524.55
812.00	3282.89
812.18	3143.63
812.35	3442.64
812.52	3176.40
812.69	3131.34
812.87	3096.53
813.04	3041.23
813.21	3340.24
813.39	3114.96
813.56	2967.51
813.73	3385.29
813.91	3041.23
814.08	3221.45
814.25	3176.40
814.42	2924.50
814.60	3227.60
814.77	3289.04
814.94	3129.30
815.12	3143.63
815.29	3715.02
815.46	3151.82
815.63	3071.95
815.81	3117.01
815.98	3229.65
816.15	3149.78
816.33	3262.41
816.50	3125.20
816.67	3252.17
816.84	3196.88
817.02	2895.83
817.19	3069.91
817.36	3340.24
817.53	3307.47
817.71	3002.32
817.88	3104.72
818.05	3237.84
818.22	3104.72
818.40	3196.88
818.57	3008.47
818.74	3262.41
818.91	3213.26
819.09	3286.99
819.26	3207.12
819.43	3151.82
819.60	3069.91
819.78	3282.89
819.95	3180.50
820.12	3065.81
820.29	3540.94
820.47	3293.13
820.64	2983.89
820.81	3092.43
820.98	3057.62
821.15	3057.62
821.33	3229.65
821.50	2934.74
821.67	3397.58
821.84	3026.90
822.02	3108.82
822.19	3383.24
822.36	3286.99
822.53	3020.75
822.70	2971.60
822.88	3254.22
823.05	3524.55
823.22	3215.31
823.39	3106.77
823.56	3254.22
823.74	3698.63
823.91	2959.31
824.08	2992.08
824.25	3045.33
824.42	3567.56
824.60	2979.79
824.77	3178.45
824.94	3246.03
825.11	3426.25
825.28	2953.17
825.45	3211.22
825.63	3403.72
825.80	3016.66
825.97	3198.93
826.14	3184.59
826.31	3000.27
826.48	3416.01
826.66	3006.42
826.83	3098.58
827.00	3190.74
827.17	3057.62
827.34	3190.74
827.51	3016.66
827.69	3205.07
827.86	2920.40
828.03	3133.39
828.20	3102.67
828.37	3184.59
828.54	3338.19
828.71	3006.42
828.89	3168.21
829.06	3286.99
829.23	3583.95
829.40	3022.80
829.57	3063.76
829.74	3424.20
829.91	3110.86
830.09	3055.57
830.26	3225.55
830.43	3581.90
830.60	3135.44
830.77	3131.34
830.94	3262.41
831.11	3368.91
831.28	3250.13
831.46	3164.11
831.63	3051.47
831.80	3383.24
831.97	3117.01
832.14	3119.06
832.31	3041.23
832.48	3250.13
832.65	3413.96
832.82	3284.94
832.99	3229.65
833.17	3076.05
833.34	3581.90
833.51	3002.32
833.68	2828.24
833.85	3536.84
834.02	3051.47
834.19	3000.27
834.36	3035.09
834.53	3303.37
834.70	3446.73
834.87	3127.25
835.04	2766.81
835.22	3047.38
835.39	3233.74
835.56	2828.24
835.73	2918.36
835.90	3401.68
836.07	3030.99
836.24	3053.52
836.41	2924.50
836.58	3119.06
836.75	3485.64
836.92	2947.03
837.09	2824.15
837.26	3379.15
837.43	3278.80
837.60	3037.14
837.77	2871.25
837.94	3403.72
838.12	3483.59
838.29	2844.63
838.46	2834.39
838.63	3065.81
838.80	3524.55
838.97	3016.66
839.14	2820.05
839.31	3237.84
839.48	3393.48
839.65	2897.88
839.82	3000.27
839.99	3297.23
840.16	3311.57
840.33	2879.44
840.50	2947.03
840.67	3141.58
840.84	2838.48
841.01	2934.74
841.18	2936.79
841.35	3239.89
841.52	3373.00
841.69	3254.22
841.86	2990.03
842.03	3176.40
842.20	3356.62
842.37	2899.92
842.54	3016.66
842.71	3223.50
842.88	2975.70
843.05	2944.98
843.22	2924.50
843.39	3364.81
843.56	3133.39
843.73	2779.09
843.90	3016.66
844.07	3256.27
844.24	3504.07
844.41	2955.22
844.58	2928.60
844.75	3319.76
844.92	3284.94
845.09	2959.31
845.26	2949.08
845.43	3420.11
845.60	3139.54
845.77	2971.60
845.94	2998.23
846.10	3420.11
846.27	3030.99
846.44	2826.20
846.61	2770.90
846.78	3411.92
846.95	3426.25
847.12	2865.11
847.29	2926.55
847.46	3000.27
847.63	3450.83
847.80	2863.06
847.97	2916.31
848.14	3749.83
848.31	3198.93
848.48	2797.53
848.65	2877.40
848.82	3155.92
848.98	3876.80
849.15	3078.10
849.32	3051.47
849.49	3483.59
849.66	3295.18
849.83	2938.84
850.00	2822.10
850.17	3446.73
850.34	3162.06
850.51	2797.53
850.68	2914.26
850.85	3805.13
851.01	3352.52
851.18	2811.86
851.35	2961.36
851.52	3338.19
851.69	3538.89
851.86	2887.64
852.03	2901.97
852.20	3395.53
852.37	3274.70
852.53	2826.20
852.70	2871.25
852.87	3297.23
853.04	3411.92
853.21	2908.12
853.38	3135.44
853.55	3538.89
853.72	3459.02
853.89	2820.05
854.05	2815.96
854.22	3217.36
854.39	3127.25
854.56	2912.21
854.73	3108.82
854.90	3084.24
855.07	3282.89
855.23	2895.83
855.40	2885.59
855.57	3123.15
855.74	2770.90
855.91	3061.71
856.08	2736.09
856.25	3049.43
856.41	3131.34
856.58	2973.65
856.75	3024.85
856.92	3063.76
857.09	3413.96
857.26	2770.90
857.42	2992.08
857.59	3420.11
857.76	3225.55
857.93	2963.41
858.10	2965.46
858.27	3071.95
858.43	3223.50
858.60	2951.12
858.77	2813.91
858.94	3123.15
859.11	3471.31
859.27	2987.99
859.44	2852.82
859.61	3659.72
859.78	3375.05
859.95	2983.89
860.12	2885.59
860.28	3659.72
860.45	3663.82
860.62	2871.25
860.79	3033.04
860.95	3168.21
861.12	3049.43
861.29	2799.57
861.46	2885.59
861.63	3297.23
861.79	3194.83
861.96	2752.47
862.13	2883.54
862.30	3504.07
862.47	3176.40
862.63	2840.53
862.80	2979.79
862.97	3506.12
863.14	3325.90
863.30	2934.74
863.47	2824.15
863.64	3583.95
863.81	3293.13
863.97	2750.42
864.14	2904.02
864.31	3102.67
864.48	3338.19
864.65	2953.17
864.81	2992.08
864.98	3354.57
865.15	3432.40
865.32	2992.08
865.48	2975.70
865.65	3606.47
865.82	3100.62
865.98	3024.85
866.15	2926.55
866.32	3166.16
866.49	3203.02
866.65	3078.10
866.82	2967.51
866.99	3262.41
867.16	3147.73
867.32	2893.78
867.49	2781.14
867.66	3215.31
867.83	3104.72
867.99	2850.77
868.16	2897.88
868.33	3041.23
868.49	3254.22
868.66	2944.98
868.83	3022.80
868.99	3241.93
869.16	3311.57
869.33	3090.38
869.50	3065.81
869.66	3250.13
869.83	3250.13
870.00	2869.20
870.16	3065.81
870.33	3270.61
870.50	3438.54
870.66	2967.51
870.83	2975.70
871.00	3172.30
871.17	3350.48
871.33	3018.71
871.50	2877.40
871.67	3205.07
871.83	3028.95
872.00	2985.94
872.17	2893.78
872.33	3622.86
872.50	3495.88
872.67	2934.74
872.83	2908.12
873.00	3248.08
873.17	3248.08
873.33	2967.51
873.50	2938.84
873.67	3174.35
873.83	3082.19
874.00	2854.87
874.16	3059.67
874.33	3305.42
874.50	3033.04
874.66	2846.68
874.83	2990.03
875.00	3428.30
875.16	3504.07
875.33	3082.19
875.50	2701.27
875.66	3200.98
875.83	3246.03
875.99	2938.84
876.16	3014.61
876.33	3028.95
876.49	3239.89
876.66	2990.03
876.83	3033.04
876.99	3026.90
877.16	3248.08
877.32	2883.54
877.49	3016.66
877.66	3344.33
877.82	3444.68
877.99	2967.51
878.15	3262.41
878.32	3213.26
878.49	3387.34
878.65	3016.66
878.82	3192.78
878.98	3256.27
879.15	3450.83
879.32	3137.49
879.48	3094.48
879.65	3227.60
879.81	3268.56
879.98	3051.47
880.15	3045.33
880.31	3418.06
880.48	3059.67
880.64	2996.18
880.81	3065.81
880.97	3614.66
881.14	3534.79
881.31	2940.88
881.47	3133.39
881.64	3160.02
881.80	2967.51
881.97	3162.06
882.13	2942.93
882.30	3030.99
882.47	3176.40
882.63	2918.36
882.80	2899.92
882.96	3143.63
883.13	3502.03
883.29	2947.03
883.46	2832.34
883.62	3688.39
883.79	3198.93
883.95	3016.66
884.12	2918.36
884.29	3463.12
884.45	3190.74
884.62	2908.12
884.78	2916.31
884.95	3608.52
885.11	3078.10
885.28	3059.67
885.44	2992.08
885.61	3354.57
885.77	3510.22
885.94	3018.71
886.10	3086.29
886.27	3362.76
886.43	3588.04
886.60	3092.43
886.76	2930.64
886.93	3147.73
887.09	3239.89
887.26	2856.92
887.42	3000.27
887.59	3452.88
887.75	3682.25
887.92	3155.92
888.08	3067.86
888.25	3727.30
888.41	3444.68
888.58	3018.71
888.74	2844.63
888.91	3135.44
>>>>>End Processed Spectral Data<<<<<
