SpectraSuite Data File
++++++++++++++++++++++++++++++++++++
Date: Fri May 06 08:14:07 CEST 2016
User: root
Dark Spectrum Present: No
Reference Spectrum Present: No
Number of Sampled Component Spectra: 1
Spectrometers: USB4C02835
Integration Time (usec): 100000 (USB4C02835)
Spectra Averaged: 1 (USB4C02835)
Boxcar Smoothing: 0 (USB4C02835)
Correct for Electrical Dark: No (USB4C02835)
Strobe/Lamp Enabled: No (USB4C02835)
Correct for Detector Non-linearity: No (USB4C02835)
Correct for Stray Light: No (USB4C02835)
Number of Pixels in Processed Spectrum: 3648
>>>>>Begin Processed Spectral Data<<<<<
177.47	2246.62
177.69	2246.62
177.91	2246.62
178.13	2322.40
178.36	2291.68
178.58	3082.19
178.80	3139.54
179.02	2938.84
179.24	3114.96
179.46	2766.81
179.68	2834.39
179.90	3217.36
180.13	3315.66
180.35	2746.33
180.57	2815.96
180.79	3418.06
181.01	3153.87
181.23	2895.83
181.45	2961.36
181.67	3430.35
181.90	3434.44
182.12	2910.16
182.34	2762.71
182.56	3377.10
182.78	3356.62
183.00	2795.48
183.22	2795.48
183.44	2922.45
183.66	3848.13
183.89	2998.23
184.11	2873.30
184.33	3393.48
184.55	3594.19
184.77	2840.53
184.99	2891.73
185.21	3184.59
185.43	3784.65
185.65	2875.35
185.87	2822.10
186.10	3796.93
186.32	3733.45
186.54	2994.13
186.76	2979.79
186.98	3465.16
187.20	3286.99
187.42	2883.54
187.64	2768.85
187.86	3311.57
188.08	3465.16
188.30	2760.66
188.52	2881.49
188.75	3577.80
188.97	3559.37
189.19	2871.25
189.41	2772.95
189.63	3340.24
189.85	3293.13
190.07	2754.52
190.29	2717.65
190.51	3403.72
190.73	3028.95
190.95	3051.47
191.17	2863.06
191.39	3078.10
191.61	3160.02
191.84	2787.29
192.06	2998.23
192.28	2944.98
192.50	3919.81
192.72	3014.61
192.94	2926.55
193.16	3512.27
193.38	3420.11
193.60	2764.76
193.82	3065.81
194.04	3504.07
194.26	3375.05
194.48	2852.82
194.70	2813.91
194.92	3297.23
195.14	3483.59
195.36	2805.72
195.58	2963.41
195.80	3291.09
196.02	3141.58
196.24	2803.67
196.46	2934.74
196.69	3198.93
196.91	3753.93
197.13	2820.05
197.35	2938.84
197.57	3598.28
197.79	3436.49
198.01	3006.42
198.23	2910.16
198.45	3391.44
198.67	3035.09
198.89	2711.51
199.11	3000.27
199.33	3176.40
199.55	2828.24
199.77	2803.67
199.99	2934.74
200.21	3192.78
200.43	3336.14
200.65	2764.76
200.87	2746.33
201.09	3252.17
201.31	3241.93
201.53	2985.94
201.75	2949.08
201.97	3325.90
202.19	3354.57
202.41	2897.88
202.63	2969.55
202.85	3436.49
203.07	3344.33
203.29	2957.27
203.51	2779.09
203.73	3147.73
203.95	3803.08
204.17	2838.48
204.39	2985.94
204.61	3286.99
204.83	3223.50
205.05	3049.43
205.27	2887.64
205.49	3725.26
205.71	3260.37
205.93	2697.17
206.15	2783.19
206.37	3350.48
206.59	3155.92
206.81	2775.00
207.03	2762.71
207.25	3168.21
207.47	3440.59
207.69	2844.63
207.91	3149.78
208.13	3575.75
208.34	3147.73
208.56	2865.11
208.78	2895.83
209.00	3221.45
209.22	3213.26
209.44	2871.25
209.66	2789.33
209.88	3356.62
210.10	3278.80
210.32	2826.20
210.54	2979.79
210.76	3282.89
210.98	3540.94
211.20	2807.77
211.42	3004.37
211.64	3549.13
211.86	3317.71
212.08	2918.36
212.30	2895.83
212.52	3219.41
212.74	3360.72
212.96	3008.47
213.17	2844.63
213.39	3471.31
213.61	3667.91
213.83	2811.86
214.05	2701.27
214.27	3497.93
214.49	2955.22
214.71	2832.34
214.93	2994.13
215.15	3250.13
215.37	3499.98
215.59	2742.23
215.81	2961.36
216.03	3504.07
216.24	3278.80
216.46	2889.68
216.68	2942.93
216.90	3411.92
217.12	3540.94
217.34	2775.00
217.56	3010.51
217.78	3581.90
218.00	3442.64
218.22	2983.89
218.44	3022.80
218.66	3340.24
218.87	3712.97
219.09	2873.30
219.31	2865.11
219.53	3334.09
219.75	3209.17
219.97	2967.51
220.19	2893.78
220.41	3336.14
220.63	3526.60
220.85	2803.67
221.06	2887.64
221.28	3502.03
221.50	3461.07
221.72	2822.10
221.94	2795.48
222.16	3272.65
222.38	3471.31
222.60	2818.00
222.82	2908.12
223.03	3444.68
223.25	3039.19
223.47	2805.72
223.69	3160.02
223.91	3434.44
224.13	3241.93
224.35	2752.47
224.57	2983.89
224.78	3538.89
225.00	3002.32
225.22	2975.70
225.44	2746.33
225.66	3516.36
225.88	3217.36
226.10	2944.98
226.32	2875.35
226.53	3606.47
226.75	3284.94
226.97	2979.79
227.19	2879.44
227.41	3090.38
227.63	3133.39
227.85	2680.79
228.06	2840.53
228.28	3342.28
228.50	3479.50
228.72	2713.56
228.94	2844.63
229.16	2940.88
229.37	3035.09
229.59	2820.05
229.81	3037.14
230.03	3180.50
230.25	3053.52
230.47	2674.65
230.69	2832.34
230.90	3459.02
231.12	3155.92
231.34	2901.97
231.56	2953.17
231.78	3041.23
232.00	3237.84
232.21	2840.53
232.43	2873.30
232.65	2850.77
232.87	3358.67
233.09	2701.27
233.30	2758.61
233.52	3520.46
233.74	3209.17
233.96	2822.10
234.18	3043.28
234.40	3258.32
234.61	3770.31
234.83	2781.14
235.05	2865.11
235.27	3817.41
235.49	3452.88
235.70	2820.05
235.92	2951.12
236.14	3428.30
236.36	3719.11
236.58	2705.37
236.79	2932.69
237.01	3270.61
237.23	3231.69
237.45	3049.43
237.67	2985.94
237.88	3407.82
238.10	3626.95
238.32	2840.53
238.54	2856.92
238.76	3356.62
238.97	3078.10
239.19	2750.42
239.41	2901.97
239.63	3459.02
239.85	3112.91
240.06	2887.64
240.28	2856.92
240.50	3495.88
240.72	3254.22
240.93	2758.61
241.15	3088.34
241.37	3182.54
241.59	3639.24
241.81	2838.48
242.02	2881.49
242.24	3315.66
242.46	3428.30
242.68	2635.74
242.89	2875.35
243.11	3532.75
243.33	3235.79
243.55	2897.88
243.76	2887.64
243.98	3114.96
244.20	3278.80
244.42	2863.06
244.64	2738.13
244.85	3010.51
245.07	3082.19
245.29	2930.64
245.51	2934.74
245.72	3395.53
245.94	3540.94
246.16	2854.87
246.38	2920.40
246.59	3100.62
246.81	3090.38
247.03	2764.76
247.24	2721.75
247.46	3188.69
247.68	3280.85
247.90	2766.81
248.11	2824.15
248.33	3448.78
248.55	3252.17
248.77	2959.31
248.98	2951.12
249.20	3612.62
249.42	3319.76
249.64	2846.68
249.85	2805.72
250.07	3162.06
250.29	3467.21
250.50	3012.56
250.72	2748.37
250.94	3387.34
251.16	3717.06
251.37	2775.00
251.59	2977.75
251.81	3377.10
252.02	3551.18
252.24	2744.28
252.46	3035.09
252.68	3174.35
252.89	3278.80
253.11	2668.50
253.33	3106.77
253.54	3618.76
253.76	3092.43
253.98	2893.78
254.20	2820.05
254.41	3030.99
254.63	3198.93
254.85	2789.33
255.06	2975.70
255.28	3381.20
255.50	3301.33
255.71	2779.09
255.93	2717.65
256.15	3373.00
256.36	3461.07
256.58	2713.56
256.80	2805.72
257.02	3274.70
257.23	3106.77
257.45	2934.74
257.67	3045.33
257.88	3172.30
258.10	3385.29
258.32	2871.25
258.53	2877.40
258.75	3721.16
258.97	3121.10
259.18	2721.75
259.40	2785.24
259.62	3657.67
259.83	3528.65
260.05	2830.29
260.27	3856.33
260.48	3463.12
260.70	3059.67
260.92	2699.22
261.13	2901.97
261.35	3393.48
261.57	3352.52
261.78	2762.71
262.00	2752.47
262.22	3438.54
262.43	3082.19
262.65	2869.20
262.86	2944.98
263.08	3772.36
263.30	3256.27
263.51	2709.46
263.73	2791.38
263.95	3631.05
264.16	3065.81
264.38	2707.41
264.60	2744.28
264.81	3266.51
265.03	3549.13
265.25	3297.23
265.46	2813.91
265.68	3577.80
265.89	3360.72
266.11	2729.94
266.33	2869.20
266.54	3434.44
266.76	3352.52
266.98	2967.51
267.19	3067.86
267.41	3444.68
267.62	3190.74
267.84	2731.99
268.06	2901.97
268.27	3418.06
268.49	3463.12
268.70	2920.40
268.92	2885.59
269.14	3078.10
269.35	3069.91
269.57	3002.32
269.79	2893.78
270.00	3198.93
270.22	3618.76
270.43	2764.76
270.65	2713.56
270.87	3350.48
271.08	3379.15
271.30	3045.33
271.51	2799.57
271.73	3430.35
271.95	3553.23
272.16	2762.71
272.38	3002.32
272.59	3139.54
272.81	3348.43
273.02	2820.05
273.24	2871.25
273.46	3614.66
273.67	3024.85
273.89	2717.65
274.10	2836.44
274.32	3559.37
274.54	3358.67
274.75	2924.50
274.97	3020.75
275.18	3416.01
275.40	3385.29
275.61	2832.34
275.83	2955.22
276.05	3069.91
276.26	3266.51
276.48	2955.22
276.69	3065.81
276.91	3108.82
277.12	3534.79
277.34	3071.95
277.55	3147.73
277.77	3307.47
277.99	3215.31
278.20	3008.47
278.42	2832.34
278.63	3092.43
278.85	3065.81
279.06	2922.45
279.28	3024.85
279.49	3461.07
279.71	3420.11
279.93	3039.19
280.14	3006.42
280.36	3117.01
280.57	3495.88
280.79	3106.77
281.00	2897.88
281.22	3174.35
281.43	3499.98
281.65	2754.52
281.86	2881.49
282.08	3375.05
282.29	3653.58
282.51	2869.20
282.73	2928.60
282.94	2971.60
283.16	3461.07
283.37	3061.71
283.59	2996.18
283.80	3303.37
284.02	3227.60
284.23	3051.47
284.45	3030.99
284.66	3096.53
284.88	3157.97
285.09	2832.34
285.31	3018.71
285.52	3391.44
285.74	2959.31
285.95	3164.11
286.17	2985.94
286.38	3504.07
286.60	3217.36
286.81	2912.21
287.03	2985.94
287.24	3420.11
287.46	3327.95
287.67	3147.73
287.89	3215.31
288.10	3313.61
288.32	3258.32
288.53	3129.30
288.75	2981.84
288.96	3450.83
289.18	3133.39
289.39	2963.41
289.61	3030.99
289.82	3680.20
290.04	3676.10
290.25	2828.24
290.47	3102.67
290.68	3258.32
290.90	3487.69
291.11	2811.86
291.33	3119.06
291.54	3090.38
291.76	3143.63
291.97	3102.67
292.18	3084.24
292.40	3227.60
292.61	3168.21
292.83	3334.09
293.04	3002.32
293.26	3270.61
293.47	3270.61
293.69	2879.44
293.90	2867.16
294.12	3573.71
294.33	3336.14
294.55	2971.60
294.76	3250.13
294.97	3626.95
295.19	3645.38
295.40	2940.88
295.62	3090.38
295.83	3499.98
296.05	3139.54
296.26	3295.18
296.48	2951.12
296.69	3241.93
296.90	3188.69
297.12	3137.49
297.33	3127.25
297.55	3256.27
297.76	3477.45
297.98	3155.92
298.19	3258.32
298.41	3221.45
298.62	3168.21
298.83	3196.88
299.05	2983.89
299.26	3176.40
299.48	3174.35
299.69	3123.15
299.90	3061.71
300.12	3082.19
300.33	3387.34
300.55	2938.84
300.76	3024.85
300.98	2963.41
301.19	3387.34
301.40	3059.67
301.62	2990.03
301.83	3385.29
302.05	3278.80
302.26	3012.56
302.47	3151.82
302.69	3045.33
302.90	3278.80
303.12	2762.71
303.33	3125.20
303.54	3684.30
303.76	3221.45
303.97	2971.60
304.19	3117.01
304.40	3127.25
304.61	3356.62
304.83	3080.14
305.04	3127.25
305.26	3487.69
305.47	3172.30
305.68	2994.13
305.90	2869.20
306.11	3530.70
306.33	3229.65
306.54	2795.48
306.75	2926.55
306.97	3020.75
307.18	3049.43
307.39	2992.08
307.61	3065.81
307.82	3233.74
308.04	3368.91
308.25	2863.06
308.46	3123.15
308.68	3264.46
308.89	3207.12
309.10	3117.01
309.32	3108.82
309.53	3327.95
309.74	3352.52
309.96	2865.11
310.17	3117.01
310.39	3196.88
310.60	3440.59
310.81	2899.92
311.03	2957.27
311.24	3444.68
311.45	3272.65
311.67	3340.24
311.88	3160.02
312.09	3164.11
312.31	3149.78
312.52	2953.17
312.73	2949.08
312.95	2973.65
313.16	3141.58
313.37	3178.45
313.59	3147.73
313.80	3434.44
314.01	3571.66
314.23	3022.80
314.44	2992.08
314.65	3080.14
314.87	3121.10
315.08	3051.47
315.29	3080.14
315.51	3065.81
315.72	3006.42
315.93	3057.62
316.15	2996.18
316.36	3207.12
316.57	3295.18
316.79	2987.99
317.00	3000.27
317.21	3385.29
317.43	3131.34
317.64	3078.10
317.85	2912.21
318.07	3188.69
318.28	3246.03
318.49	3074.00
318.70	3221.45
318.92	3342.28
319.13	3368.91
319.34	3250.13
319.56	2992.08
319.77	3461.07
319.98	3499.98
320.20	3262.41
320.41	3172.30
320.62	3350.48
320.83	3067.86
321.05	3190.74
321.26	3067.86
321.47	3286.99
321.69	3553.23
321.90	2910.16
322.11	2985.94
322.32	3170.26
322.54	3538.89
322.75	3002.32
322.96	3946.44
323.18	2959.31
323.39	2828.24
323.60	2926.55
323.81	3200.98
324.03	3094.48
324.24	3282.89
324.45	3043.28
324.66	2983.89
324.88	3479.50
325.09	3487.69
325.30	3000.27
325.52	2967.51
325.73	3319.76
325.94	3114.96
326.15	2822.10
326.37	2844.63
326.58	3418.06
326.79	3641.29
327.00	2926.55
327.22	3035.09
327.43	3227.60
327.64	2990.03
327.85	3155.92
328.07	3006.42
328.28	3678.15
328.49	3117.01
328.70	2992.08
328.92	2924.50
329.13	3188.69
329.34	3389.39
329.55	3235.79
329.76	3147.73
329.98	3266.51
330.19	3524.55
330.40	3069.91
330.61	3102.67
330.83	3497.93
331.04	3102.67
331.25	3057.62
331.46	3049.43
331.68	3082.19
331.89	3442.64
332.10	3012.56
332.31	2836.44
332.52	3280.85
332.74	3467.21
332.95	2822.10
333.16	3051.47
333.37	3450.83
333.58	3069.91
333.80	3102.67
334.01	2826.20
334.22	3286.99
334.43	3233.74
334.64	2938.84
334.86	2930.64
335.07	3041.23
335.28	3602.38
335.49	2889.68
335.70	3078.10
335.92	3598.28
336.13	3696.58
336.34	3086.29
336.55	2977.75
336.76	3364.81
336.98	2914.26
337.19	3030.99
337.40	3088.34
337.61	3786.69
337.82	3286.99
338.04	3055.57
338.25	2828.24
338.46	3262.41
338.67	3301.33
338.88	2901.97
339.09	2887.64
339.31	3266.51
339.52	3065.81
339.73	2985.94
339.94	3041.23
340.15	3426.25
340.36	3246.03
340.58	3041.23
340.79	2912.21
341.00	3430.35
341.21	3037.14
341.42	3252.17
341.63	2912.21
341.85	3461.07
342.06	3344.33
342.27	3028.95
342.48	3155.92
342.69	3030.99
342.90	3373.00
343.12	3428.30
343.33	2922.45
343.54	3430.35
343.75	3682.25
343.96	3084.24
344.17	2914.26
344.38	3203.02
344.60	3082.19
344.81	2906.07
345.02	2969.55
345.23	3549.13
345.44	3786.69
345.65	3086.29
345.86	3041.23
346.07	3340.24
346.29	3184.59
346.50	3164.11
346.71	3065.81
346.92	3516.36
347.13	3723.21
347.34	3190.74
347.55	2865.11
347.76	3452.88
347.98	3055.57
348.19	3090.38
348.40	3198.93
348.61	3127.25
348.82	3653.58
349.03	3035.09
349.24	2883.54
349.45	3624.90
349.66	2912.21
349.88	2947.03
350.09	2942.93
350.30	3602.38
350.51	3526.60
350.72	3207.12
350.93	2981.84
351.14	3207.12
351.35	3370.96
351.56	3012.56
351.77	3016.66
351.99	3352.52
352.20	3573.71
352.41	3131.34
352.62	2838.48
352.83	3256.27
353.04	3235.79
353.25	2990.03
353.46	2985.94
353.67	3481.55
353.88	2908.12
354.09	2996.18
354.30	3016.66
354.52	3366.86
354.73	3256.27
354.94	2992.08
355.15	3102.67
355.36	3639.24
355.57	3209.17
355.78	2985.94
355.99	3055.57
356.20	3188.69
356.41	3504.07
356.62	3162.06
356.83	3035.09
357.04	3575.75
357.25	2942.93
357.46	2977.75
357.68	2885.59
357.89	3098.58
358.10	3399.63
358.31	3024.85
358.52	2977.75
358.73	3076.05
358.94	3076.05
359.15	3026.90
359.36	3010.51
359.57	3336.14
359.78	3291.09
359.99	3168.21
360.20	2889.68
360.41	3235.79
360.62	3459.02
360.83	3026.90
361.04	3061.71
361.25	3332.05
361.46	3594.19
361.67	3110.86
361.88	3024.85
362.09	3456.97
362.30	3323.85
362.51	2947.03
362.72	3067.86
362.93	3438.54
363.14	3409.87
363.35	3098.58
363.56	2971.60
363.78	3581.90
363.99	3557.32
364.20	3030.99
364.41	3033.04
364.62	3602.38
364.83	3297.23
365.04	3004.37
365.25	3012.56
365.46	3686.34
365.67	3149.78
365.88	3155.92
366.09	2940.88
366.30	3162.06
366.51	3286.99
366.72	2973.65
366.93	2975.70
367.14	3309.52
367.35	3491.79
367.56	2979.79
367.77	3217.36
367.98	3239.89
368.18	3401.68
368.39	3119.06
368.60	2899.92
368.81	3426.25
369.02	3344.33
369.23	3006.42
369.44	2883.54
369.65	3121.10
369.86	3418.06
370.07	3057.62
370.28	2861.01
370.49	3368.91
370.70	3360.72
370.91	2961.36
371.12	2793.43
371.33	3440.59
371.54	3067.86
371.75	3080.14
371.96	2738.13
372.17	3377.10
372.38	3262.41
372.59	2983.89
372.80	2926.55
373.01	3219.41
373.22	3336.14
373.43	2992.08
373.64	2918.36
373.85	3448.78
374.06	3612.62
374.26	3147.73
374.47	3131.34
374.68	3661.77
374.89	3401.68
375.10	2940.88
375.31	3127.25
375.52	3266.51
375.73	3256.27
375.94	2871.25
376.15	3106.77
376.36	3065.81
376.57	3168.21
376.78	3008.47
376.99	3069.91
377.20	3518.41
377.40	3188.69
377.61	3284.94
377.82	3045.33
378.03	3557.32
378.24	3446.73
378.45	3104.72
378.66	3024.85
378.87	2926.55
379.08	3026.90
379.29	3047.38
379.50	3155.92
379.71	3327.95
379.91	3391.44
380.12	3033.04
380.33	3084.24
380.54	3229.65
380.75	3209.17
380.96	3033.04
381.17	3086.29
381.38	3291.09
381.59	3360.72
381.80	3059.67
382.00	3192.78
382.21	3330.00
382.42	3559.37
382.63	3459.02
382.84	3209.17
383.05	3438.54
383.26	3522.51
383.47	3205.07
383.68	3014.61
383.88	3350.48
384.09	3399.63
384.30	3215.31
384.51	3110.86
384.72	3186.64
384.93	3026.90
385.14	3137.49
385.35	3254.22
385.55	3043.28
385.76	3522.51
385.97	2963.41
386.18	2873.30
386.39	3071.95
386.60	3157.97
386.81	2992.08
387.02	2938.84
387.22	3026.90
387.43	3381.20
387.64	3160.02
387.85	3237.84
388.06	3360.72
388.27	4386.75
388.48	7862.15
388.68	11974.47
388.89	15138.58
389.10	16451.33
389.31	16283.40
389.52	12994.36
389.73	11198.29
389.93	10276.71
390.14	9179.00
390.35	8660.86
390.56	7948.17
390.77	6541.21
390.98	4976.56
391.18	4179.90
391.39	3930.05
391.60	3325.90
391.81	3299.28
392.02	3041.23
392.23	3676.10
392.43	3338.19
392.64	3241.93
392.85	3166.16
393.06	3557.32
393.27	3266.51
393.47	2983.89
393.68	3090.38
393.89	3223.50
394.10	3536.84
394.31	3080.14
394.52	2944.98
394.72	3131.34
394.93	3512.27
395.14	2940.88
395.35	3051.47
395.56	3170.26
395.76	3256.27
395.97	2996.18
396.18	3213.26
396.39	3241.93
396.60	3954.63
396.80	3418.06
397.01	3338.19
397.22	3502.03
397.43	3506.12
397.64	3041.23
397.84	3160.02
398.05	3692.49
398.26	3262.41
398.47	3149.78
398.67	3196.88
398.88	3256.27
399.09	3459.02
399.30	3016.66
399.51	3098.58
399.71	3102.67
399.92	3237.84
400.13	3121.10
400.34	2947.03
400.54	3293.13
400.75	3551.18
400.96	3182.54
401.17	3327.95
401.37	3356.62
401.58	3299.28
401.79	2983.89
402.00	3110.86
402.21	3782.60
402.41	3563.47
402.62	3434.44
402.83	3477.45
403.04	3741.64
403.24	4093.89
403.45	3293.13
403.66	3323.85
403.87	3561.42
404.07	3667.91
404.28	3321.81
404.49	3422.16
404.70	3463.12
404.90	3459.02
405.11	3008.47
405.32	3155.92
405.52	3205.07
405.73	3221.45
405.94	2938.84
406.15	3086.29
406.35	3362.76
406.56	3426.25
406.77	3090.38
406.98	3000.27
407.18	3108.82
407.39	3598.28
407.60	3082.19
407.80	3084.24
408.01	3186.64
408.22	3354.57
408.43	2959.31
408.63	3164.11
408.84	3442.64
409.05	3416.01
409.25	2936.79
409.46	3082.19
409.67	3221.45
409.88	3110.86
410.08	3045.33
410.29	3022.80
410.50	3520.46
410.70	3354.57
410.91	2918.36
411.12	3121.10
411.32	3389.39
411.53	3074.00
411.74	3010.51
411.95	3098.58
412.15	3289.04
412.36	3483.59
412.57	3250.13
412.77	3303.37
412.98	3250.13
413.19	3200.98
413.39	3133.39
413.60	3024.85
413.81	3633.10
414.01	3000.27
414.22	3028.95
414.43	3178.45
414.63	3207.12
414.84	3391.44
415.05	3018.71
415.25	2875.35
415.46	3487.69
415.67	3164.11
415.87	3051.47
416.08	3123.15
416.29	3170.26
416.49	3397.58
416.70	3141.58
416.91	3008.47
417.11	3215.31
417.32	3504.07
417.53	3096.53
417.73	3033.04
417.94	3233.74
418.15	3315.66
418.35	3041.23
418.56	3157.97
418.77	3782.60
418.97	3274.70
419.18	3147.73
419.38	2801.62
419.59	3254.22
419.80	3581.90
420.00	2942.93
420.21	3106.77
420.42	3553.23
420.62	3334.09
420.83	3016.66
421.04	3041.23
421.24	3276.75
421.45	3432.40
421.65	3117.01
421.86	3076.05
422.07	3485.64
422.27	3389.39
422.48	2963.41
422.69	2920.40
422.89	3229.65
423.10	3219.41
423.30	3082.19
423.51	3149.78
423.72	3315.66
423.92	3436.49
424.13	2947.03
424.33	3022.80
424.54	3450.83
424.75	3321.81
424.95	3307.47
425.16	3028.95
425.36	3299.28
425.57	3405.77
425.78	3147.73
425.98	3184.59
426.19	3262.41
426.39	3069.91
426.60	3139.54
426.81	3133.39
427.01	3297.23
427.22	3078.10
427.42	2824.15
427.63	2985.94
427.83	3381.20
428.04	3594.19
428.25	3051.47
428.45	3170.26
428.66	3551.18
428.86	3286.99
429.07	3129.30
429.28	3096.53
429.48	3164.11
429.69	3164.11
429.89	3141.58
430.10	2942.93
430.30	3373.00
430.51	3512.27
430.71	2965.46
430.92	3119.06
431.13	3110.86
431.33	3327.95
431.54	3117.01
431.74	3295.18
431.95	3786.69
432.15	3078.10
432.36	2951.12
432.56	3149.78
432.77	3747.78
432.98	3667.91
433.18	3125.20
433.39	2924.50
433.59	3321.81
433.80	3805.13
434.00	3190.74
434.21	3135.44
434.41	3074.00
434.62	3764.17
434.82	2906.07
435.03	3018.71
435.23	3495.88
435.44	2987.99
435.64	2992.08
435.85	3090.38
436.06	3467.21
436.26	3495.88
436.47	3045.33
436.67	3000.27
436.88	3227.60
437.08	3534.79
437.29	3270.61
437.49	3246.03
437.70	3495.88
437.90	3252.17
438.11	3299.28
438.31	3168.21
438.52	3629.00
438.72	3516.36
438.93	3454.92
439.13	3217.36
439.34	3590.09
439.54	3213.26
439.75	3141.58
439.95	3164.11
440.16	3117.01
440.36	3223.50
440.57	2990.03
440.77	3065.81
440.98	3231.69
441.18	3413.96
441.39	2947.03
441.59	3020.75
441.80	3678.15
442.00	3344.33
442.21	3076.05
442.41	2910.16
442.62	3420.11
442.82	3055.57
443.02	3008.47
443.23	3065.81
443.43	3231.69
443.64	3549.13
443.84	3010.51
444.05	3241.93
444.25	3385.29
444.46	3170.26
444.66	3035.09
444.87	3289.04
445.07	2996.18
445.28	3200.98
445.48	3174.35
445.69	3039.19
445.89	3833.80
446.09	3207.12
446.30	3299.28
446.50	3434.44
446.71	5132.21
446.91	6287.26
447.12	7153.55
447.32	7536.52
447.53	7557.00
447.73	6459.29
447.93	5443.50
448.14	5330.86
448.34	5439.40
448.55	4523.96
448.75	4536.25
448.96	4278.21
449.16	4102.08
449.36	3911.62
449.57	3397.58
449.77	3074.00
449.98	3203.02
450.18	3321.81
450.39	2994.13
450.59	3235.79
450.79	3194.83
451.00	3149.78
451.20	3284.94
451.41	3088.34
451.61	3358.67
451.81	3278.80
452.02	3000.27
452.22	3086.29
452.43	3168.21
452.63	3108.82
452.84	3143.63
453.04	3024.85
453.24	3354.57
453.45	3160.02
453.65	3125.20
453.86	3084.24
454.06	3397.58
454.26	3307.47
454.47	2961.36
454.67	3196.88
454.87	3346.38
455.08	3215.31
455.28	3180.50
455.49	3184.59
455.69	3098.58
455.89	3749.83
456.10	3225.55
456.30	2994.13
456.51	3418.06
456.71	3336.14
456.91	3221.45
457.12	3049.43
457.32	3407.82
457.52	3043.28
457.73	3211.22
457.93	3227.60
458.14	3209.17
458.34	2873.30
458.54	3084.24
458.75	3074.00
458.95	3438.54
459.15	3401.68
459.36	3139.54
459.56	3030.99
459.76	3794.89
459.97	3389.39
460.17	3100.62
460.37	3123.15
460.58	3348.43
460.78	3409.87
460.99	3047.38
461.19	2992.08
461.39	3153.87
461.60	3282.89
461.80	3043.28
462.00	2947.03
462.21	3280.85
462.41	3096.53
462.61	2928.60
462.82	2893.78
463.02	3325.90
463.22	3274.70
463.43	3147.73
463.63	2959.31
463.83	3506.12
464.04	3358.67
464.24	3065.81
464.44	2979.79
464.64	3280.85
464.85	3467.21
465.05	3082.19
465.25	3033.04
465.46	3174.35
465.66	3381.20
465.86	3045.33
466.07	2996.18
466.27	3221.45
466.47	3033.04
466.68	2906.07
466.88	3139.54
467.08	3387.34
467.29	3493.83
467.49	3084.24
467.69	3129.30
467.89	3393.48
468.10	3239.89
468.30	3088.34
468.50	3098.58
468.71	3432.40
468.91	2906.07
469.11	3248.08
469.31	3139.54
469.52	3098.58
469.72	3629.00
469.92	3286.99
470.13	3071.95
470.33	3387.34
470.53	3297.23
470.73	3452.88
470.94	3940.29
471.14	4130.75
471.34	4794.29
471.54	4378.56
471.75	4050.88
471.95	3794.89
472.15	3741.64
472.36	3768.26
472.56	3538.89
472.76	3917.76
472.96	3690.44
473.17	3401.68
473.37	3241.93
473.57	3295.18
473.77	3354.57
473.98	3170.26
474.18	2998.23
474.38	4057.03
474.58	3160.02
474.79	2969.55
474.99	3137.49
475.19	3569.61
475.39	3176.40
475.60	3139.54
475.80	3018.71
476.00	3299.28
476.20	3217.36
476.41	3157.97
476.61	3088.34
476.81	3678.15
477.01	3172.30
477.21	3379.15
477.42	3213.26
477.62	3112.91
477.82	3379.15
478.02	3037.14
478.23	3074.00
478.43	3057.62
478.63	3278.80
478.83	3033.04
479.03	3211.22
479.24	3665.86
479.44	3690.44
479.64	3053.52
479.84	2883.54
480.04	3110.86
480.25	3438.54
480.45	3000.27
480.65	3022.80
480.85	3575.75
481.06	3114.96
481.26	3166.16
481.46	3037.14
481.66	3350.48
481.86	3106.77
482.06	3264.46
482.27	3131.34
482.47	3227.60
482.67	3315.66
482.87	3117.01
483.07	3106.77
483.28	3182.54
483.48	3045.33
483.68	3067.86
483.88	2924.50
484.08	2901.97
484.29	2979.79
484.49	3168.21
484.69	2858.96
484.89	3590.09
485.09	3567.56
485.29	3168.21
485.50	3278.80
485.70	3188.69
485.90	3581.90
486.10	3151.82
486.30	3049.43
486.50	3442.64
486.71	3405.77
486.91	3164.11
487.11	3129.30
487.31	2951.12
487.51	3426.25
487.71	2987.99
487.91	2996.18
488.12	3104.72
488.32	2832.34
488.52	3057.62
488.72	2740.18
488.92	3344.33
489.12	3538.89
489.32	3211.22
489.53	3065.81
489.73	3010.51
489.93	3647.43
490.13	3053.52
490.33	2934.74
490.53	3276.75
490.73	3524.55
490.94	2904.02
491.14	3168.21
491.34	3352.52
491.54	3483.59
491.74	3956.68
491.94	4599.74
492.14	5113.78
492.34	5158.83
492.54	4741.05
492.75	4120.51
492.95	4366.27
493.15	3968.96
493.35	3850.18
493.55	3796.93
493.75	3698.63
493.95	3876.80
494.15	3348.43
494.35	3180.50
494.56	3211.22
494.76	3200.98
494.96	3135.44
495.16	3051.47
495.36	3266.51
495.56	3284.94
495.76	3162.06
495.96	2975.70
496.16	3174.35
496.36	3651.53
496.56	3055.57
496.77	3117.01
496.97	3340.24
497.17	3649.48
497.37	2865.11
497.57	3147.73
497.77	3401.68
497.97	3014.61
498.17	3096.53
498.37	3018.71
498.57	3370.96
498.77	3157.97
498.97	3180.50
499.17	3491.79
499.38	3237.84
499.58	3459.02
499.78	3248.08
499.98	3211.22
500.18	3221.45
500.38	3114.96
500.58	3291.09
500.78	3659.72
500.98	6141.86
501.18	8169.35
501.38	9774.95
501.58	10798.94
501.78	10823.51
501.98	8953.72
502.18	7516.05
502.38	6606.75
502.58	6524.83
502.78	5742.50
502.98	5386.16
503.18	5093.30
503.38	4995.00
503.59	4329.41
503.79	4069.31
503.99	3758.02
504.19	3831.75
504.39	3864.52
504.59	3710.92
504.79	3545.03
504.99	3985.35
505.19	3549.13
505.39	3319.76
505.59	3567.56
505.79	3694.54
505.99	3461.07
506.19	3096.53
506.39	3381.20
506.59	3166.16
506.79	3192.78
506.99	3315.66
507.19	3000.27
507.39	3383.24
507.59	3061.71
507.79	3059.67
507.99	3092.43
508.19	3284.94
508.39	3237.84
508.59	2979.79
508.79	3139.54
508.99	3731.40
509.19	3166.16
509.39	3137.49
509.59	2985.94
509.79	3215.31
509.99	3362.76
510.19	3200.98
510.39	3252.17
510.59	3319.76
510.79	3223.50
510.99	2942.93
511.19	3037.14
511.39	3626.95
511.59	3504.07
511.79	3164.11
511.99	3012.56
512.19	3706.82
512.38	3299.28
512.58	2998.23
512.78	2979.79
512.98	3594.19
513.18	3540.94
513.38	2920.40
513.58	3149.78
513.78	3127.25
513.98	3239.89
514.18	3065.81
514.38	3078.10
514.58	3239.89
514.78	3205.07
514.98	2926.55
515.18	3127.25
515.38	3049.43
515.58	3639.24
515.78	2985.94
515.98	3082.19
516.18	3350.48
516.38	3344.33
516.57	3028.95
516.77	3049.43
516.97	3393.48
517.17	3186.64
517.37	2877.40
517.57	3071.95
517.77	3315.66
517.97	3123.15
518.17	3121.10
518.37	2963.41
518.57	3160.02
518.77	3176.40
518.97	3088.34
519.16	3131.34
519.36	3502.03
519.56	3137.49
519.76	2996.18
519.96	3139.54
520.16	3536.84
520.36	3014.61
520.56	3200.98
520.76	2942.93
520.96	3190.74
521.16	3416.01
521.35	3235.79
521.55	3145.68
521.75	3295.18
521.95	3133.39
522.15	2944.98
522.35	2947.03
522.55	3168.21
522.75	3422.16
522.95	2957.27
523.14	2904.02
523.34	3254.22
523.54	3149.78
523.74	3078.10
523.94	3094.48
524.14	3004.37
524.34	3338.19
524.54	3252.17
524.73	3067.86
524.93	3377.10
525.13	3270.61
525.33	2996.18
525.53	3291.09
525.73	3444.68
525.93	3319.76
526.13	3045.33
526.32	2936.79
526.52	3530.70
526.72	3440.59
526.92	3076.05
527.12	2936.79
527.32	3033.04
527.52	3330.00
527.71	3147.73
527.91	3055.57
528.11	3192.78
528.31	3153.87
528.51	3067.86
528.71	3254.22
528.90	3409.87
529.10	3364.81
529.30	3092.43
529.50	2844.63
529.70	3332.05
529.90	3149.78
530.09	3086.29
530.29	2951.12
530.49	3172.30
530.69	3747.78
530.89	3170.26
531.09	3221.45
531.28	3286.99
531.48	3567.56
531.68	3082.19
531.88	3117.01
532.08	3530.70
532.28	3133.39
532.47	3155.92
532.67	3176.40
532.87	3309.52
533.07	3088.34
533.27	3117.01
533.46	3133.39
533.66	3381.20
533.86	3209.17
534.06	3117.01
534.26	3039.19
534.45	3237.84
534.65	3565.51
534.85	3262.41
535.05	3000.27
535.25	3491.79
535.44	2879.44
535.64	3164.11
535.84	3098.58
536.04	3223.50
536.24	3135.44
536.43	3000.27
536.63	2994.13
536.83	3213.26
537.03	3291.09
537.22	2887.64
537.42	2897.88
537.62	3418.06
537.82	3024.85
538.02	3262.41
538.21	3110.86
538.41	3893.19
538.61	3395.53
538.81	3188.69
539.00	3123.15
539.20	2981.84
539.40	3151.82
539.60	2975.70
539.79	3286.99
539.99	3274.70
540.19	3129.30
540.39	3065.81
540.58	3117.01
540.78	3516.36
540.98	3266.51
541.18	3250.13
541.37	3065.81
541.57	3336.14
541.77	3344.33
541.97	2957.27
542.16	2934.74
542.36	3205.07
542.56	3114.96
542.76	3176.40
542.95	3186.64
543.15	3446.73
543.35	3373.00
543.54	2928.60
543.74	3037.14
543.94	3594.19
544.14	3207.12
544.33	3215.31
544.53	3096.53
544.73	3200.98
544.93	3280.85
545.12	3082.19
545.32	2983.89
545.52	3305.42
545.71	3067.86
545.91	3012.56
546.11	3092.43
546.30	3141.58
546.50	3250.13
546.70	3088.34
546.90	3119.06
547.09	2918.36
547.29	3270.61
547.49	3219.41
547.68	3074.00
547.88	3112.91
548.08	3397.58
548.27	3395.53
548.47	3065.81
548.67	3215.31
548.87	3436.49
549.06	3045.33
549.26	3088.34
549.46	3295.18
549.65	3082.19
549.85	3121.10
550.05	3092.43
550.24	3041.23
550.44	3307.47
550.64	3076.05
550.83	3121.10
551.03	3475.40
551.23	3379.15
551.42	3123.15
551.62	3125.20
551.82	3264.46
552.01	3264.46
552.21	3358.67
552.41	3131.34
552.60	3534.79
552.80	3229.65
553.00	2996.18
553.19	3114.96
553.39	3581.90
553.59	3035.09
553.78	3223.50
553.98	2992.08
554.17	3024.85
554.37	3403.72
554.57	3114.96
554.76	2928.60
554.96	3250.13
555.16	3217.36
555.35	3207.12
555.55	3246.03
555.75	3330.00
555.94	3432.40
556.14	2863.06
556.33	3151.82
556.53	3301.33
556.73	3241.93
556.92	3110.86
557.12	3090.38
557.32	3706.82
557.51	3467.21
557.71	3069.91
557.90	3295.18
558.10	3567.56
558.30	3205.07
558.49	3114.96
558.69	2936.79
558.88	3459.02
559.08	3368.91
559.28	3080.14
559.47	2983.89
559.67	3456.97
559.86	3626.95
560.06	3082.19
560.26	3059.67
560.45	3399.63
560.65	3270.61
560.84	3368.91
561.04	2992.08
561.24	3344.33
561.43	3063.76
561.63	3237.84
561.82	3178.45
562.02	3354.57
562.22	3078.10
562.41	3043.28
562.61	3110.86
562.80	3078.10
563.00	3753.93
563.19	3108.82
563.39	3170.26
563.59	3383.24
563.78	2973.65
563.98	2856.92
564.17	3024.85
564.37	2983.89
564.56	3262.41
564.76	2877.40
564.96	3108.82
565.15	3368.91
565.35	3839.94
565.54	3086.29
565.74	3117.01
565.93	3356.62
566.13	3248.08
566.32	3178.45
566.52	3149.78
566.71	3289.04
566.91	3387.34
567.11	3268.56
567.30	2969.55
567.50	3291.09
567.69	3360.72
567.89	3078.10
568.08	2951.12
568.28	3373.00
568.47	2977.75
568.67	3071.95
568.86	3049.43
569.06	3416.01
569.25	3149.78
569.45	2942.93
569.64	3078.10
569.84	3198.93
570.04	3332.05
570.23	3018.71
570.43	3084.24
570.62	3334.09
570.82	3598.28
571.01	2934.74
571.21	3008.47
571.40	3110.86
571.60	3391.44
571.79	3117.01
571.99	3133.39
572.18	3082.19
572.38	3276.75
572.57	3186.64
572.77	3149.78
572.96	3829.70
573.16	3327.95
573.35	3119.06
573.55	3192.78
573.74	3504.07
573.94	3272.65
574.13	3051.47
574.33	3289.04
574.52	3440.59
574.71	3266.51
574.91	3125.20
575.10	2908.12
575.30	3123.15
575.49	3182.54
575.69	2938.84
575.88	3022.80
576.08	3194.83
576.27	3491.79
576.47	3018.71
576.66	3227.60
576.86	3495.88
577.05	3344.33
577.25	3139.54
577.44	3237.84
577.64	3162.06
577.83	3461.07
578.02	3074.00
578.22	3260.37
578.41	3581.90
578.61	3151.82
578.80	2942.93
579.00	3041.23
579.19	3262.41
579.39	3338.19
579.58	3205.07
579.77	3110.86
579.97	3542.99
580.16	3522.51
580.36	3233.74
580.55	3088.34
580.75	3393.48
580.94	3256.27
581.13	3246.03
581.33	3352.52
581.52	3198.93
581.72	3606.47
581.91	3246.03
582.11	3082.19
582.30	3524.55
582.49	3266.51
582.69	3383.24
582.88	3123.15
583.08	3323.85
583.27	3469.26
583.47	3186.64
583.66	3084.24
583.85	3086.29
584.05	3229.65
584.24	3262.41
584.44	3149.78
584.63	3479.50
584.82	3547.08
585.02	3379.15
585.21	3231.69
585.41	3397.58
585.60	3303.37
585.79	3403.72
585.99	3459.02
586.18	3258.32
586.37	4261.82
586.57	6442.91
586.76	17891.06
586.96	37674.43
587.15	50453.76
587.34	59133.05
587.54	63394.87
587.73	56638.62
587.93	40658.32
588.12	31350.31
588.31	25501.31
588.51	22963.87
588.70	20948.67
588.89	18790.11
589.09	15814.41
589.28	13805.36
589.47	10811.23
589.67	8208.26
589.86	6397.85
590.06	5009.33
590.25	4544.44
590.44	3817.41
590.64	3567.56
590.83	3540.94
591.02	3614.66
591.22	3149.78
591.41	3196.88
591.60	3237.84
591.80	3801.03
591.99	2983.89
592.18	3123.15
592.38	3370.96
592.57	3229.65
592.76	3084.24
592.96	3190.74
593.15	3252.17
593.34	3557.32
593.54	3020.75
593.73	3190.74
593.92	3409.87
594.12	3450.83
594.31	3090.38
594.50	3352.52
594.70	3442.64
594.89	3942.34
595.08	3053.52
595.28	3160.02
595.47	3981.25
595.66	3409.87
595.86	3039.19
596.05	2955.22
596.24	3248.08
596.43	3686.34
596.63	3266.51
596.82	3293.13
597.01	3340.24
597.21	3569.61
597.40	3067.86
597.59	3098.58
597.79	3231.69
597.98	3434.44
598.17	3106.77
598.36	3065.81
598.56	3459.02
598.75	3153.87
598.94	3272.65
599.14	3192.78
599.33	3188.69
599.52	3491.79
599.71	3221.45
599.91	3065.81
600.10	3424.20
600.29	3330.00
600.48	3166.16
600.68	3235.79
600.87	3340.24
601.06	3071.95
601.26	3239.89
601.45	3172.30
601.64	3233.74
601.83	3594.19
602.03	3074.00
602.22	2920.40
602.41	3565.51
602.60	3717.06
602.80	3254.22
602.99	3196.88
603.18	3151.82
603.37	3295.18
603.57	2959.31
603.76	3143.63
603.95	3534.79
604.14	3170.26
604.34	2963.41
604.53	3057.62
604.72	3293.13
604.91	3395.53
605.10	3057.62
605.30	3008.47
605.49	3727.30
605.68	3475.40
605.87	3168.21
606.07	3016.66
606.26	3280.85
606.45	3522.51
606.64	3094.48
606.84	3016.66
607.03	3239.89
607.22	3467.21
607.41	3110.86
607.60	2994.13
607.80	3479.50
607.99	3254.22
608.18	3065.81
608.37	3129.30
608.56	3162.06
608.76	3475.40
608.95	3237.84
609.14	3069.91
609.33	3518.41
609.52	3561.42
609.72	3225.55
609.91	3239.89
610.10	3389.39
610.29	3565.51
610.48	3186.64
610.68	3264.46
610.87	3321.81
611.06	3430.35
611.25	3051.47
611.44	3254.22
611.63	3237.84
611.83	3567.56
612.02	3059.67
612.21	3207.12
612.40	2955.22
612.59	3063.76
612.79	2975.70
612.98	3125.20
613.17	3653.58
613.36	3295.18
613.55	3211.22
613.74	3098.58
613.93	3319.76
614.13	3459.02
614.32	3403.72
614.51	3172.30
614.70	3303.37
614.89	3176.40
615.08	3145.68
615.28	3403.72
615.47	3123.15
615.66	3362.76
615.85	3168.21
616.04	3135.44
616.23	3379.15
616.42	3221.45
616.62	3098.58
616.81	3121.10
617.00	3352.52
617.19	3334.09
617.38	3049.43
617.57	3166.16
617.76	3506.12
617.95	3418.06
618.15	3260.37
618.34	3344.33
618.53	3063.76
618.72	3604.42
618.91	3225.55
619.10	3192.78
619.29	3303.37
619.48	3307.47
619.68	2983.89
619.87	3063.76
620.06	2961.36
620.25	3440.59
620.44	3069.91
620.63	2994.13
620.82	3352.52
621.01	3280.85
621.20	3082.19
621.39	3102.67
621.59	3266.51
621.78	3180.50
621.97	3123.15
622.16	3188.69
622.35	3375.05
622.54	3405.77
622.73	3133.39
622.92	2854.87
623.11	3592.14
623.30	3256.27
623.49	3200.98
623.68	2942.93
623.88	3526.60
624.07	3151.82
624.26	3024.85
624.45	3010.51
624.64	3237.84
624.83	3393.48
625.02	3061.71
625.21	3082.19
625.40	3252.17
625.59	3590.09
625.78	3112.91
625.97	3188.69
626.16	3643.34
626.35	3522.51
626.54	3074.00
626.74	3291.09
626.93	3258.32
627.12	3225.55
627.31	3114.96
627.50	3114.96
627.69	3440.59
627.88	3133.39
628.07	2985.94
628.26	2908.12
628.45	3155.92
628.64	3086.29
628.83	3157.97
629.02	2975.70
629.21	3368.91
629.40	3305.42
629.59	2928.60
629.78	2953.17
629.97	3344.33
630.16	3307.47
630.35	3055.57
630.54	3127.25
630.73	3131.34
630.92	3211.22
631.11	3018.71
631.30	3078.10
631.49	3370.96
631.68	3286.99
631.87	3147.73
632.06	3000.27
632.25	3825.61
632.44	3262.41
632.63	3164.11
632.82	3096.53
633.01	3168.21
633.20	3299.28
633.39	3104.72
633.58	2951.12
633.77	3368.91
633.96	3379.15
634.15	3123.15
634.34	3207.12
634.53	3356.62
634.72	3141.58
634.91	2957.27
635.10	3141.58
635.29	3407.82
635.48	3264.46
635.67	3028.95
635.86	2930.64
636.05	3653.58
636.24	3268.56
636.43	3084.24
636.62	3121.10
636.81	2797.53
637.00	3311.57
637.19	3057.62
637.38	3084.24
637.57	3192.78
637.76	3373.00
637.95	3274.70
638.14	3315.66
638.33	3379.15
638.52	3305.42
638.71	2899.92
638.89	3057.62
639.08	3819.46
639.27	3491.79
639.46	3495.88
639.65	3612.62
639.84	3917.76
640.03	4083.65
640.22	3629.00
640.41	3491.79
640.60	3487.69
640.79	3504.07
640.98	3317.71
641.17	3338.19
641.36	3473.36
641.55	3530.70
641.74	2977.75
641.92	2975.70
642.11	3147.73
642.30	3241.93
642.49	3002.32
642.68	3014.61
642.87	3344.33
643.06	3391.44
643.25	2897.88
643.44	2936.79
643.63	3237.84
643.82	3407.82
644.00	3008.47
644.19	3108.82
644.38	3137.49
644.57	3444.68
644.76	3162.06
644.95	3098.58
645.14	3340.24
645.33	3205.07
645.52	3200.98
645.71	2942.93
645.89	3071.95
646.08	3315.66
646.27	3135.44
646.46	3368.91
646.65	2951.12
646.84	3350.48
647.03	3037.14
647.22	3215.31
647.40	3348.43
647.59	3231.69
647.78	2822.10
647.97	2992.08
648.16	3065.81
648.35	3540.94
648.54	3305.42
648.73	3106.77
648.91	3360.72
649.10	3305.42
649.29	2987.99
649.48	3012.56
649.67	3368.91
649.86	3330.00
650.05	3074.00
650.23	3315.66
650.42	3192.78
650.61	3637.19
650.80	3403.72
650.99	3356.62
651.18	3514.31
651.36	3471.31
651.55	3049.43
651.74	3227.60
651.93	3252.17
652.12	3239.89
652.31	3098.58
652.49	3149.78
652.68	3174.35
652.87	3528.65
653.06	3252.17
653.25	3364.81
653.44	3315.66
653.62	3590.09
653.81	3155.92
654.00	3133.39
654.19	3459.02
654.38	3907.52
654.56	3119.06
654.75	2979.79
654.94	3463.12
655.13	3315.66
655.32	3037.14
655.51	3135.44
655.69	3198.93
655.88	3346.38
656.07	2936.79
656.26	3104.72
656.45	3018.71
656.63	3237.84
656.82	2975.70
657.01	3424.20
657.20	3143.63
657.38	3448.78
657.57	3074.00
657.76	2926.55
657.95	3463.12
658.14	3184.59
658.32	3172.30
658.51	2951.12
658.70	3354.57
658.89	3383.24
659.08	3172.30
659.26	3319.76
659.45	3188.69
659.64	3448.78
659.83	3090.38
660.01	3411.92
660.20	3362.76
660.39	3526.60
660.58	2758.61
660.76	3119.06
660.95	3000.27
661.14	3256.27
661.33	2940.88
661.51	3074.00
661.70	3080.14
661.89	3377.10
662.08	3049.43
662.26	2949.08
662.45	3043.28
662.64	3502.03
662.83	3016.66
663.01	2979.79
663.20	3225.55
663.39	3545.03
663.58	3092.43
663.76	3086.29
663.95	3506.12
664.14	3071.95
664.32	3141.58
664.51	2953.17
664.70	2940.88
664.89	3289.04
665.07	2897.88
665.26	3286.99
665.45	3037.14
665.64	3428.30
665.82	3014.61
666.01	3194.83
666.20	3020.75
666.38	3469.26
666.57	3424.20
666.76	5617.58
666.95	12945.21
667.13	20821.70
667.32	24729.22
667.51	28245.58
667.69	29445.69
667.88	24139.41
668.07	17503.99
668.25	14651.17
668.44	12851.00
668.63	11339.60
668.81	9811.82
669.00	8456.06
669.19	7798.66
669.38	6825.88
669.56	5681.07
669.75	5003.19
669.94	4411.32
670.12	3792.84
670.31	3440.59
670.50	3346.38
670.68	3467.21
670.87	3346.38
671.06	3092.43
671.24	3223.50
671.43	3676.10
671.62	3373.00
671.80	3069.91
671.99	3164.11
672.18	3373.00
672.36	3401.68
672.55	3186.64
672.74	3215.31
672.92	3188.69
673.11	3381.20
673.29	2942.93
673.48	3254.22
673.67	3250.13
673.85	3481.55
674.04	3004.37
674.23	3184.59
674.41	3727.30
674.60	3024.85
674.79	2967.51
674.97	2914.26
675.16	3463.12
675.34	3401.68
675.53	3039.19
675.72	3139.54
675.90	3655.62
676.09	3239.89
676.28	3180.50
676.46	2930.64
676.65	3465.16
676.83	3149.78
677.02	3106.77
677.21	3139.54
677.39	3395.53
677.58	3176.40
677.77	3049.43
677.95	3047.38
678.14	3264.46
678.32	3174.35
678.51	3149.78
678.70	3434.44
678.88	3147.73
679.07	3336.14
679.25	3100.62
679.44	3135.44
679.63	3008.47
679.81	3254.22
680.00	3325.90
680.18	3166.16
680.37	3678.15
680.55	3381.20
680.74	2942.93
680.93	2805.72
681.11	3276.75
681.30	3211.22
681.48	3100.62
681.67	3180.50
681.85	3254.22
682.04	3188.69
682.23	3213.26
682.41	3184.59
682.60	3219.41
682.78	3243.98
682.97	3035.09
683.15	3164.11
683.34	3336.14
683.53	3577.80
683.71	2955.22
683.90	3119.06
684.08	3643.34
684.27	3164.11
684.45	3119.06
684.64	3352.52
684.82	3291.09
685.01	3370.96
685.19	3131.34
685.38	3450.83
685.57	3282.89
685.75	3106.77
685.94	3010.51
686.12	3016.66
686.31	3252.17
686.49	3596.23
686.68	2809.81
686.86	3104.72
687.05	3215.31
687.23	3579.85
687.42	3090.38
687.60	2906.07
687.79	3479.50
687.97	3606.47
688.16	3157.97
688.34	3297.23
688.53	2926.55
688.71	3381.20
688.90	3309.52
689.08	3180.50
689.27	2977.75
689.45	3461.07
689.64	3231.69
689.82	3221.45
690.01	3342.28
690.19	3342.28
690.38	3155.92
690.56	3215.31
690.75	3071.95
690.93	3131.34
691.12	3098.58
691.30	3151.82
691.49	3123.15
691.67	3272.65
691.86	3471.31
692.04	3082.19
692.23	3139.54
692.41	3291.09
692.60	3416.01
692.78	3301.33
692.97	3219.41
693.15	3405.77
693.34	3301.33
693.52	3282.89
693.71	3194.83
693.89	3100.62
694.08	2918.36
694.26	3137.49
694.44	3387.34
694.63	3420.11
694.81	3018.71
695.00	3078.10
695.18	3569.61
695.37	3860.42
695.55	3205.07
695.74	3157.97
695.92	3061.71
696.10	3592.14
696.29	2977.75
696.47	3082.19
696.66	3094.48
696.84	3074.00
697.03	3160.02
697.21	3438.54
697.40	4646.84
697.58	3469.26
697.76	3104.72
697.95	3123.15
698.13	3035.09
698.32	3119.06
698.50	3141.58
698.68	3147.73
698.87	3373.00
699.05	3606.47
699.24	3086.29
699.42	3135.44
699.61	3313.61
699.79	3332.05
699.97	3100.62
700.16	2914.26
700.34	3018.71
700.53	3325.90
700.71	3381.20
700.89	3246.03
701.08	3192.78
701.26	3227.60
701.45	3434.44
701.63	3020.75
701.81	3110.86
702.00	3090.38
702.18	3147.73
702.37	3106.77
702.55	3553.23
702.73	3272.65
702.92	3104.72
703.10	3450.83
703.28	3481.55
703.47	3151.82
703.65	3379.15
703.84	3280.85
704.02	3176.40
704.20	3532.75
704.39	3016.66
704.57	3123.15
704.75	3483.59
704.94	3377.10
705.12	3248.08
705.30	4097.99
705.49	8746.87
705.67	17221.37
705.86	23934.61
706.04	27008.61
706.22	30502.45
706.41	28905.03
706.59	21610.17
706.77	16865.02
706.96	14739.23
707.14	13137.72
707.32	11251.54
707.51	9740.14
707.69	8114.05
707.87	6621.08
708.06	5347.25
708.24	4556.73
708.42	4065.22
708.61	4245.44
708.79	3276.75
708.97	3336.14
709.16	3418.06
709.34	3330.00
709.52	3164.11
709.71	3131.34
709.89	3377.10
710.07	3082.19
710.26	3012.56
710.44	3086.29
710.62	3397.58
710.80	3319.76
710.99	3186.64
711.17	3164.11
711.35	3149.78
711.54	3176.40
711.72	3264.46
711.90	3190.74
712.09	3407.82
712.27	3221.45
712.45	3237.84
712.63	3041.23
712.82	3325.90
713.00	3334.09
713.18	3213.26
713.37	3223.50
713.55	3487.69
713.73	3332.05
713.91	3190.74
714.10	3102.67
714.28	3272.65
714.46	3321.81
714.65	3192.78
714.83	3205.07
715.01	3250.13
715.19	3315.66
715.38	3053.52
715.56	3246.03
715.74	3086.29
715.92	3153.87
716.11	3315.66
716.29	2887.64
716.47	3209.17
716.65	3213.26
716.84	2942.93
717.02	3203.02
717.20	3057.62
717.38	3155.92
717.57	3182.54
717.75	3155.92
717.93	3200.98
718.11	3379.15
718.30	2928.60
718.48	3065.81
718.66	3561.42
718.84	3549.13
719.03	3045.33
719.21	2944.98
719.39	3592.14
719.57	3418.06
719.75	3182.54
719.94	3016.66
720.12	3180.50
720.30	3311.57
720.48	3174.35
720.67	3080.14
720.85	3026.90
721.03	3219.41
721.21	3022.80
721.39	3219.41
721.58	3385.29
721.76	3254.22
721.94	3125.20
722.12	3190.74
722.30	3522.51
722.49	3184.59
722.67	3080.14
722.85	3108.82
723.03	2985.94
723.21	3182.54
723.40	3139.54
723.58	3336.14
723.76	3360.72
723.94	3499.98
724.12	3112.91
724.30	3291.09
724.49	3426.25
724.67	3168.21
724.85	3182.54
725.03	2951.12
725.21	3434.44
725.40	3573.71
725.58	3084.24
725.76	3330.00
725.94	3334.09
726.12	3084.24
726.30	3174.35
726.49	3012.56
726.67	3172.30
726.85	3508.17
727.03	4016.07
727.21	5504.94
727.39	7268.24
727.57	7866.25
727.76	8306.56
727.94	8548.22
728.12	7341.97
728.30	5947.30
728.48	5560.24
728.66	5232.56
728.84	4745.14
729.03	4210.62
729.21	3885.00
729.39	3506.12
729.57	3350.48
729.75	3467.21
729.93	3383.24
730.11	3086.29
730.30	3162.06
730.48	3270.61
730.66	3196.88
730.84	3168.21
731.02	3286.99
731.20	3213.26
731.38	3086.29
731.56	3082.19
731.74	2975.70
731.93	3403.72
732.11	3127.25
732.29	3026.90
732.47	3291.09
732.65	3270.61
732.83	3262.41
733.01	3239.89
733.19	3149.78
733.37	3325.90
733.56	3110.86
733.74	2961.36
733.92	3538.89
734.10	3221.45
734.28	3272.65
734.46	2906.07
734.64	3262.41
734.82	3221.45
735.00	3092.43
735.18	3057.62
735.36	3266.51
735.54	3200.98
735.73	3125.20
735.91	3237.84
736.09	3569.61
736.27	3315.66
736.45	3180.50
736.63	2914.26
736.81	3213.26
736.99	3493.83
737.17	3360.72
737.35	3061.71
737.53	3307.47
737.71	3278.80
737.89	3278.80
738.07	3074.00
738.25	3131.34
738.43	2865.11
738.61	3178.45
738.80	2949.08
738.98	3119.06
739.16	3192.78
739.34	3065.81
739.52	3405.77
739.70	3215.31
739.88	3446.73
740.06	3239.89
740.24	2861.01
740.42	3428.30
740.60	2971.60
740.78	3076.05
740.96	2895.83
741.14	3256.27
741.32	3307.47
741.50	2912.21
741.68	3282.89
741.86	3518.41
742.04	3086.29
742.22	3049.43
742.40	3047.38
742.58	3409.87
742.76	3094.48
742.94	3332.05
743.12	2949.08
743.30	3286.99
743.48	3356.62
743.66	3035.09
743.84	3119.06
744.02	3205.07
744.20	3219.41
744.38	3065.81
744.56	2981.84
744.74	3600.33
744.92	3444.68
745.10	3375.05
745.28	3106.77
745.46	3641.29
745.64	3184.59
745.82	3203.02
746.00	3102.67
746.18	3332.05
746.36	3098.58
746.54	3162.06
746.72	3106.77
746.90	3000.27
747.08	3510.22
747.26	3133.39
747.44	3227.60
747.62	3422.16
747.80	3354.57
747.98	3078.10
748.15	3108.82
748.33	3659.72
748.51	3262.41
748.69	3174.35
748.87	3039.19
749.05	3200.98
749.23	3303.37
749.41	3020.75
749.59	3074.00
749.77	3465.16
749.95	3235.79
750.13	2949.08
750.31	3200.98
750.49	3209.17
750.67	3465.16
750.85	3188.69
751.03	3045.33
751.20	3655.62
751.38	3321.81
751.56	3094.48
751.74	3074.00
751.92	3297.23
752.10	3024.85
752.28	3299.28
752.46	3016.66
752.64	3233.74
752.82	3301.33
753.00	3270.61
753.18	3114.96
753.35	3157.97
753.53	3291.09
753.71	2985.94
753.89	3157.97
754.07	3430.35
754.25	3471.31
754.43	3153.87
754.61	3084.24
754.79	3397.58
754.97	3160.02
755.14	3297.23
755.32	2953.17
755.50	3311.57
755.68	3327.95
755.86	3000.27
756.04	2992.08
756.22	2908.12
756.40	3475.40
756.57	3364.81
756.75	3008.47
756.93	3475.40
757.11	3459.02
757.29	2955.22
757.47	3024.85
757.65	3022.80
757.82	2830.29
758.00	2967.51
758.18	3000.27
758.36	3096.53
758.54	3499.98
758.72	2957.27
758.90	3233.74
759.07	3299.28
759.25	3047.38
759.43	3135.44
759.61	2983.89
759.79	4460.48
759.97	3440.59
760.15	3114.96
760.32	3024.85
760.50	3303.37
760.68	3618.76
760.86	2975.70
761.04	3321.81
761.22	3416.01
761.39	3303.37
761.57	3327.95
761.75	3133.39
761.93	3356.62
762.11	3182.54
762.28	3243.98
762.46	3012.56
762.64	3524.55
762.82	3033.04
763.00	3039.19
763.18	3254.22
763.35	3092.43
763.53	3346.38
763.71	3125.20
763.89	3153.87
764.07	3272.65
764.24	3248.08
764.42	3203.02
764.60	3123.15
764.78	3411.92
764.96	3450.83
765.13	3344.33
765.31	2940.88
765.49	3469.26
765.67	3014.61
765.84	3057.62
766.02	2971.60
766.20	2983.89
766.38	3352.52
766.56	3221.45
766.73	3227.60
766.91	3203.02
767.09	3155.92
767.27	3121.10
767.44	3033.04
767.62	3397.58
767.80	3282.89
767.98	2947.03
768.15	3102.67
768.33	3436.49
768.51	3430.35
768.69	3215.31
768.87	3049.43
769.04	3311.57
769.22	3708.87
769.40	3243.98
769.58	3205.07
769.75	3303.37
769.93	3510.22
770.11	3129.30
770.28	2973.65
770.46	3422.16
770.64	3323.85
770.82	3104.72
770.99	3108.82
771.17	3368.91
771.35	3215.31
771.53	3135.44
771.70	3121.10
771.88	3409.87
772.06	3254.22
772.23	3074.00
772.41	3172.30
772.59	3215.31
772.77	3117.01
772.94	3200.98
773.12	3078.10
773.30	3170.26
773.47	3344.33
773.65	3028.95
773.83	3278.80
774.01	3286.99
774.18	2934.74
774.36	3139.54
774.54	3004.37
774.71	3352.52
774.89	2926.55
775.07	2951.12
775.24	3106.77
775.42	3082.19
775.60	3637.19
775.78	3000.27
775.95	2967.51
776.13	2951.12
776.31	2971.60
776.48	3194.83
776.66	3317.71
776.84	3172.30
777.01	3055.57
777.19	3047.38
777.37	2983.89
777.54	3409.87
777.72	3579.85
777.90	3246.03
778.07	3020.75
778.25	4003.78
778.43	3444.68
778.60	3065.81
778.78	3198.93
778.96	3534.79
779.13	3078.10
779.31	3190.74
779.49	3190.74
779.66	3239.89
779.84	3262.41
780.01	3071.95
780.19	3000.27
780.37	3489.74
780.54	3358.67
780.72	2951.12
780.90	3094.48
781.07	3262.41
781.25	3133.39
781.43	3209.17
781.60	3059.67
781.78	3467.21
781.95	3246.03
782.13	3067.86
782.31	3106.77
782.48	2965.46
782.66	3233.74
782.83	3317.71
783.01	3143.63
783.19	3405.77
783.36	3133.39
783.54	3000.27
783.72	3166.16
783.89	3172.30
784.07	3307.47
784.24	3194.83
784.42	3225.55
784.60	3358.67
784.77	3434.44
784.95	2861.01
785.12	3014.61
785.30	3295.18
785.47	3119.06
785.65	2963.41
785.83	3026.90
786.00	3151.82
786.18	3315.66
786.35	2979.79
786.53	3047.38
786.71	3446.73
786.88	3317.71
787.06	3182.54
787.23	3106.77
787.41	3016.66
787.58	3227.60
787.76	3059.67
787.94	3098.58
788.11	3389.39
788.29	3106.77
788.46	3135.44
788.64	2852.82
788.81	3149.78
788.99	3012.56
789.16	3082.19
789.34	3123.15
789.52	3205.07
789.69	3114.96
789.87	2895.83
790.04	3016.66
790.22	3282.89
790.39	3706.82
790.57	2926.55
790.74	2934.74
790.92	3532.75
791.09	2992.08
791.27	3174.35
791.44	3166.16
791.62	3135.44
791.79	3442.64
791.97	3178.45
792.15	3401.68
792.32	3289.04
792.50	3452.88
792.67	3327.95
792.85	3354.57
793.02	3266.51
793.20	3184.59
793.37	2932.69
793.55	2979.79
793.72	3055.57
793.90	3364.81
794.07	3090.38
794.25	3018.71
794.42	3323.85
794.60	3317.71
794.77	3151.82
794.95	3205.07
795.12	3379.15
795.30	3260.37
795.47	2824.15
795.65	3409.87
795.82	3307.47
796.00	3121.10
796.17	3188.69
796.34	2969.55
796.52	3452.88
796.69	3389.39
796.87	3106.77
797.04	3198.93
797.22	3426.25
797.39	3327.95
797.57	3231.69
797.74	3067.86
797.92	3307.47
798.09	3141.58
798.27	3364.81
798.44	3053.52
798.62	3151.82
798.79	3305.42
798.96	3215.31
799.14	3033.04
799.31	3882.95
799.49	3254.22
799.66	3051.47
799.84	3041.23
800.01	3041.23
800.19	3286.99
800.36	2858.96
800.53	3106.77
800.71	3334.09
800.88	3596.23
801.06	2975.70
801.23	3047.38
801.41	3205.07
801.58	3221.45
801.75	3055.57
801.93	3153.87
802.10	3346.38
802.28	3272.65
802.45	3184.59
802.63	3162.06
802.80	3547.08
802.97	3221.45
803.15	3106.77
803.32	3055.57
803.50	3076.05
803.67	3155.92
803.84	3049.43
804.02	3133.39
804.19	3246.03
804.37	2727.89
804.54	3012.56
804.71	3106.77
804.89	3307.47
805.06	3119.06
805.24	2994.13
805.41	2846.68
805.58	3090.38
805.76	3665.86
805.93	3026.90
806.10	3205.07
806.28	3293.13
806.45	3231.69
806.63	3227.60
806.80	3143.63
806.97	3332.05
807.15	3254.22
807.32	3217.36
807.49	3098.58
807.67	3026.90
807.84	3346.38
808.01	2852.82
808.19	3260.37
808.36	3686.34
808.54	3131.34
808.71	2971.60
808.88	3090.38
809.06	3530.70
809.23	3622.86
809.40	3020.75
809.58	3080.14
809.75	3246.03
809.92	2994.13
810.10	3354.57
810.27	3067.86
810.44	3258.32
810.62	3487.69
810.79	3067.86
810.96	3157.97
811.14	3155.92
811.31	3405.77
811.48	3258.32
811.66	3155.92
811.83	3581.90
812.00	3299.28
812.18	3125.20
812.35	3377.10
812.52	3213.26
812.69	3192.78
812.87	3037.14
813.04	3063.76
813.21	3198.93
813.39	3160.02
813.56	2951.12
813.73	3323.85
813.91	3037.14
814.08	3276.75
814.25	3084.24
814.42	2912.21
814.60	3254.22
814.77	3278.80
814.94	3047.38
815.12	3145.68
815.29	3635.14
815.46	3166.16
815.63	3176.40
815.81	3069.91
815.98	3162.06
816.15	3207.12
816.33	3190.74
816.50	3010.51
816.67	3297.23
816.84	3213.26
817.02	3043.28
817.19	3033.04
817.36	3348.43
817.53	3426.25
817.71	2987.99
817.88	3149.78
818.05	3280.85
818.22	3145.68
818.40	3239.89
818.57	3082.19
818.74	3235.79
818.91	3207.12
819.09	3274.70
819.26	3223.50
819.43	3110.86
819.60	3104.72
819.78	3248.08
819.95	3168.21
820.12	3061.71
820.29	3530.70
820.47	3270.61
820.64	2992.08
820.81	3018.71
820.98	3053.52
821.15	3080.14
821.33	3162.06
821.50	3020.75
821.67	3364.81
821.84	2979.79
822.02	3059.67
822.19	3487.69
822.36	3172.30
822.53	3026.90
822.70	2975.70
822.88	3155.92
823.05	3479.50
823.22	3200.98
823.39	3098.58
823.56	3262.41
823.74	3653.58
823.91	2957.27
824.08	3014.61
824.25	3049.43
824.42	3602.38
824.60	2926.55
824.77	3176.40
824.94	3151.82
825.11	3344.33
825.28	2944.98
825.45	3282.89
825.63	3438.54
825.80	3135.44
825.97	3229.65
826.14	3147.73
826.31	2953.17
826.48	3315.66
826.66	3086.29
826.83	3016.66
827.00	3250.13
827.17	3016.66
827.34	3063.76
827.51	3008.47
827.69	3188.69
827.86	2977.75
828.03	3086.29
828.20	3207.12
828.37	3049.43
828.54	3336.14
828.71	2971.60
828.89	3188.69
829.06	3274.70
829.23	3510.22
829.40	3026.90
829.57	3071.95
829.74	3344.33
829.91	3123.15
830.09	2977.75
830.26	3235.79
830.43	3633.10
830.60	3229.65
830.77	3266.51
830.94	3321.81
831.11	3362.76
831.28	3145.68
831.46	3211.22
831.63	3002.32
831.80	3456.97
831.97	3096.53
832.14	3086.29
832.31	3119.06
832.48	3368.91
832.65	3409.87
832.82	3176.40
832.99	3164.11
833.17	3000.27
833.34	3588.04
833.51	3045.33
833.68	2803.67
833.85	3487.69
834.02	3117.01
834.19	3053.52
834.36	3114.96
834.53	3297.23
834.70	3516.36
834.87	3033.04
835.04	2922.45
835.22	3141.58
835.39	3194.83
835.56	2885.59
835.73	2985.94
835.90	3436.49
836.07	3192.78
836.24	3129.30
836.41	2887.64
836.58	3125.20
836.75	3549.13
836.92	2977.75
837.09	2834.39
837.26	3411.92
837.43	3338.19
837.60	2977.75
837.77	2930.64
837.94	3385.29
838.12	3604.42
838.29	2852.82
838.46	2766.81
838.63	3045.33
838.80	3573.71
838.97	3020.75
839.14	2906.07
839.31	3373.00
839.48	3442.64
839.65	2883.54
839.82	3033.04
839.99	3280.85
840.16	3237.84
840.33	2893.78
840.50	2944.98
840.67	3057.62
840.84	2830.29
841.01	2799.57
841.18	2875.35
841.35	3246.03
841.52	3454.92
841.69	3182.54
841.86	2967.51
842.03	3229.65
842.20	3461.07
842.37	2901.97
842.54	3065.81
842.71	3340.24
842.88	3076.05
843.05	2881.49
843.22	2953.17
843.39	3401.68
843.56	3151.82
843.73	2957.27
843.90	3006.42
844.07	3352.52
844.24	3446.73
844.41	2992.08
844.58	2875.35
844.75	3266.51
844.92	3393.48
845.09	2983.89
845.26	2895.83
845.43	3438.54
845.60	3248.08
845.77	3024.85
845.94	3082.19
846.10	3446.73
846.27	3020.75
846.44	2805.72
846.61	2813.91
846.78	3368.91
846.95	3491.79
847.12	2828.24
847.29	2977.75
847.46	3117.01
847.63	3370.96
847.80	2838.48
847.97	2881.49
848.14	3749.83
848.31	3200.98
848.48	2779.09
848.65	2947.03
848.82	3151.82
848.98	3870.66
849.15	3045.33
849.32	3133.39
849.49	3469.26
849.66	3250.13
849.83	2963.41
850.00	2885.59
850.17	3524.55
850.34	3182.54
850.51	2877.40
850.68	2967.51
850.85	3706.82
851.01	3368.91
851.18	2889.68
851.35	3016.66
851.52	3340.24
851.69	3508.17
851.86	2861.01
852.03	2893.78
852.20	3403.72
852.37	3303.37
852.53	2746.33
852.70	2961.36
852.87	3239.89
853.04	3454.92
853.21	2947.03
853.38	3190.74
853.55	3581.90
853.72	3567.56
853.89	2875.35
854.05	2863.06
854.22	3313.61
854.39	3139.54
854.56	2840.53
854.73	3108.82
854.90	3102.67
855.07	3237.84
855.23	2844.63
855.40	2877.40
855.57	3205.07
855.74	2844.63
855.91	3086.29
856.08	2709.46
856.25	3076.05
856.41	3123.15
856.58	3014.61
856.75	2901.97
856.92	2936.79
857.09	3475.40
857.26	2740.18
857.42	3000.27
857.59	3475.40
857.76	3133.39
857.93	2848.72
858.10	2963.41
858.27	3004.37
858.43	3205.07
858.60	2977.75
858.77	2756.57
858.94	3151.82
859.11	3491.79
859.27	3018.71
859.44	2840.53
859.61	3633.10
859.78	3342.28
859.95	2985.94
860.12	2877.40
860.28	3694.54
860.45	3590.09
860.62	2908.12
860.79	3000.27
860.95	3176.40
861.12	3143.63
861.29	2772.95
861.46	2906.07
861.63	3305.42
861.79	3323.85
861.96	2809.81
862.13	2893.78
862.30	3450.83
862.47	3149.78
862.63	2799.57
862.80	2918.36
862.97	3481.55
863.14	3407.82
863.30	2934.74
863.47	2848.72
863.64	3571.66
863.81	3344.33
863.97	2777.05
864.14	2897.88
864.31	3164.11
864.48	3395.53
864.65	2959.31
864.81	3037.14
864.98	3434.44
865.15	3411.92
865.32	3012.56
865.48	2992.08
865.65	3565.51
865.82	3151.82
865.98	3053.52
866.15	2932.69
866.32	3233.74
866.49	3147.73
866.65	3114.96
866.82	2983.89
866.99	3342.28
867.16	3080.14
867.32	2891.73
867.49	2820.05
867.66	3213.26
867.83	3174.35
867.99	2820.05
868.16	2944.98
868.33	3033.04
868.49	3260.37
868.66	2877.40
868.83	3016.66
868.99	3235.79
869.16	3239.89
869.33	3110.86
869.50	2975.70
869.66	3330.00
869.83	3262.41
870.00	2803.67
870.16	3033.04
870.33	3229.65
870.50	3428.30
870.66	3026.90
870.83	2981.84
871.00	3250.13
871.17	3272.65
871.33	2938.84
871.50	2877.40
871.67	3190.74
871.83	3188.69
872.00	3049.43
872.17	2928.60
872.33	3682.25
872.50	3471.31
872.67	2910.16
872.83	2926.55
873.00	3344.33
873.17	3215.31
873.33	2926.55
873.50	2953.17
873.67	3065.81
873.83	3110.86
874.00	2893.78
874.16	3061.71
874.33	3243.98
874.50	2922.45
874.66	2881.49
874.83	3106.77
875.00	3510.22
875.16	3467.21
875.33	3014.61
875.50	2701.27
875.66	3180.50
875.83	3338.19
875.99	3020.75
876.16	3037.14
876.33	3051.47
876.49	3196.88
876.66	2953.17
876.83	3000.27
876.99	2998.23
877.16	3223.50
877.32	2914.26
877.49	3000.27
877.66	3358.67
877.82	3565.51
877.99	3012.56
878.15	3223.50
878.32	3262.41
878.49	3284.94
878.65	2992.08
878.82	3182.54
878.98	3096.53
879.15	3555.27
879.32	3131.34
879.48	3082.19
879.65	3309.52
879.81	3117.01
879.98	2975.70
880.15	3035.09
880.31	3491.79
880.48	3082.19
880.64	3037.14
880.81	3065.81
880.97	3565.51
881.14	3524.55
881.31	2895.83
881.47	3065.81
881.64	3135.44
881.80	2983.89
881.97	3086.29
882.13	2971.60
882.30	2985.94
882.47	3133.39
882.63	2910.16
882.80	2928.60
882.96	3157.97
883.13	3452.88
883.29	2906.07
883.46	2916.31
883.62	3747.78
883.79	3246.03
883.95	3065.81
884.12	2912.21
884.29	3461.07
884.45	3266.51
884.62	2961.36
884.78	2910.16
884.95	3532.75
885.11	3004.37
885.28	2994.13
885.44	2947.03
885.61	3411.92
885.77	3542.99
885.94	3041.23
886.10	3030.99
886.27	3289.04
886.43	3624.90
886.60	3094.48
886.76	2901.97
886.93	3006.42
887.09	3276.75
887.26	2717.65
887.42	3110.86
887.59	3467.21
887.75	3704.78
887.92	3188.69
888.08	3010.51
888.25	3643.34
888.41	3504.07
888.58	3043.28
888.74	2869.20
888.91	3164.11
>>>>>End Processed Spectral Data<<<<<
