SpectraSuite Data File
++++++++++++++++++++++++++++++++++++
Date: Fri May 06 08:14:08 CEST 2016
User: root
Dark Spectrum Present: No
Reference Spectrum Present: No
Number of Sampled Component Spectra: 1
Spectrometers: USB4C02835
Integration Time (usec): 100000 (USB4C02835)
Spectra Averaged: 1 (USB4C02835)
Boxcar Smoothing: 0 (USB4C02835)
Correct for Electrical Dark: No (USB4C02835)
Strobe/Lamp Enabled: No (USB4C02835)
Correct for Detector Non-linearity: No (USB4C02835)
Correct for Stray Light: No (USB4C02835)
Number of Pixels in Processed Spectrum: 3648
>>>>>Begin Processed Spectral Data<<<<<
177.47	2303.96
177.69	2303.96
177.91	2303.96
178.13	2240.48
178.36	2283.49
178.58	3033.04
178.80	3082.19
179.02	3000.27
179.24	3074.00
179.46	2766.81
179.68	2840.53
179.90	3297.23
180.13	3297.23
180.35	2643.93
180.57	2813.91
180.79	3413.96
181.01	3297.23
181.23	2912.21
181.45	2949.08
181.67	3395.53
181.90	3469.26
182.12	2936.79
182.34	2742.23
182.56	3362.76
182.78	3336.14
183.00	2871.25
183.22	2910.16
183.44	2961.36
183.66	3841.99
183.89	2920.40
184.11	2809.81
184.33	3456.97
184.55	3524.55
184.77	2787.29
184.99	2875.35
185.21	3198.93
185.43	3747.78
185.65	2928.60
185.87	2850.77
186.10	3778.50
186.32	3792.84
186.54	2998.23
186.76	2947.03
186.98	3440.59
187.20	3260.37
187.42	2967.51
187.64	2863.06
187.86	3373.00
188.08	3473.36
188.30	2748.37
188.52	2893.78
188.75	3545.03
188.97	3520.46
189.19	2844.63
189.41	2861.01
189.63	3387.34
189.85	3176.40
190.07	2795.48
190.29	2775.00
190.51	3286.99
190.73	3092.43
190.95	3035.09
191.17	2934.74
191.39	2934.74
191.61	3139.54
191.84	2815.96
192.06	3010.51
192.28	3018.71
192.50	3907.52
192.72	3035.09
192.94	2895.83
193.16	3538.89
193.38	3401.68
193.60	2760.66
193.82	3026.90
194.04	3424.20
194.26	3368.91
194.48	2922.45
194.70	2856.92
194.92	3274.70
195.14	3440.59
195.36	2840.53
195.58	2918.36
195.80	3276.75
196.02	3153.87
196.24	2830.29
196.46	2967.51
196.69	3190.74
196.91	3778.50
197.13	2951.12
197.35	2891.73
197.57	3672.01
197.79	3389.39
198.01	2895.83
198.23	2863.06
198.45	3332.05
198.67	3135.44
198.89	2768.85
199.11	2981.84
199.33	3155.92
199.55	2891.73
199.77	2762.71
199.99	3065.81
200.21	3225.55
200.43	3286.99
200.65	2693.08
200.87	2719.70
201.09	3282.89
201.31	3256.27
201.53	2840.53
201.75	2895.83
201.97	3395.53
202.19	3332.05
202.41	2918.36
202.63	2936.79
202.85	3405.77
203.07	3336.14
203.29	2959.31
203.51	2793.43
203.73	3233.74
203.95	3952.58
204.17	2910.16
204.39	3026.90
204.61	3307.47
204.83	3166.16
205.05	3018.71
205.27	2844.63
205.49	3657.67
205.71	3256.27
205.93	2666.46
206.15	2764.76
206.37	3262.41
206.59	3235.79
206.81	2734.04
207.03	2697.17
207.25	3166.16
207.47	3434.44
207.69	2863.06
207.91	3076.05
208.13	3663.82
208.34	3149.78
208.56	2791.38
208.78	2910.16
209.00	3186.64
209.22	3241.93
209.44	2893.78
209.66	2803.67
209.88	3276.75
210.10	3207.12
210.32	2875.35
210.54	2957.27
210.76	3291.09
210.98	3495.88
211.20	2713.56
211.42	2967.51
211.64	3504.07
211.86	3379.15
212.08	2867.16
212.30	2904.02
212.52	3241.93
212.74	3364.81
212.96	2942.93
213.17	2914.26
213.39	3360.72
213.61	3633.10
213.83	2822.10
214.05	2805.72
214.27	3479.50
214.49	3096.53
214.71	2856.92
214.93	2887.64
215.15	3311.57
215.37	3364.81
215.59	2693.08
215.81	2854.87
216.03	3573.71
216.24	3364.81
216.46	2887.64
216.68	2967.51
216.90	3450.83
217.12	3467.21
217.34	2906.07
217.56	3076.05
217.78	3594.19
218.00	3434.44
218.22	2875.35
218.44	3026.90
218.66	3321.81
218.87	3655.62
219.09	2922.45
219.31	2871.25
219.53	3483.59
219.75	3166.16
219.97	2932.69
220.19	2891.73
220.41	3338.19
220.63	3524.55
220.85	2865.11
221.06	2938.84
221.28	3577.80
221.50	3364.81
221.72	2828.24
221.94	2740.18
222.16	3270.61
222.38	3430.35
222.60	2795.48
222.82	2887.64
223.03	3508.17
223.25	3010.51
223.47	2848.72
223.69	3047.38
223.91	3479.50
224.13	3289.04
224.35	2746.33
224.57	3004.37
224.78	3342.28
225.00	3067.86
225.22	2906.07
225.44	2731.99
225.66	3422.16
225.88	3293.13
226.10	2959.31
226.32	2871.25
226.53	3583.95
226.75	3196.88
226.97	2975.70
227.19	2832.34
227.41	3172.30
227.63	3190.74
227.85	2699.22
228.06	2949.08
228.28	3268.56
228.50	3479.50
228.72	2680.79
228.94	2869.20
229.16	2928.60
229.37	3094.48
229.59	2764.76
229.81	3141.58
230.03	3286.99
230.25	3026.90
230.47	2658.26
230.69	2842.58
230.90	3473.36
231.12	3057.62
231.34	3000.27
231.56	2916.31
231.78	3043.28
232.00	3262.41
232.21	2934.74
232.43	2914.26
232.65	2770.90
232.87	3379.15
233.09	2731.99
233.30	2846.68
233.52	3516.36
233.74	3225.55
233.96	2863.06
234.18	3094.48
234.40	3286.99
234.61	3833.80
234.83	2740.18
235.05	2861.01
235.27	3911.62
235.49	3487.69
235.70	2760.66
235.92	2918.36
236.14	3442.64
236.36	3798.98
236.58	2746.33
236.79	2936.79
237.01	3221.45
237.23	3286.99
237.45	3063.76
237.67	2881.49
237.88	3463.12
238.10	3657.67
238.32	2742.23
238.54	2717.65
238.76	3252.17
238.97	3082.19
239.19	2762.71
239.41	2926.55
239.63	3489.74
239.85	3184.59
240.06	2938.84
240.28	2916.31
240.50	3491.79
240.72	3309.52
240.93	2766.81
241.15	3010.51
241.37	3295.18
241.59	3499.98
241.81	2826.20
242.02	3078.10
242.24	3366.86
242.46	3432.40
242.68	2666.46
242.89	2775.00
243.11	3422.16
243.33	3256.27
243.55	2901.97
243.76	2875.35
243.98	3166.16
244.20	3286.99
244.42	2822.10
244.64	2871.25
244.85	3045.33
245.07	3100.62
245.29	2832.34
245.51	2893.78
245.72	3274.70
245.94	3473.36
246.16	2840.53
246.38	2869.20
246.59	3112.91
246.81	3157.97
247.03	2713.56
247.24	2740.18
247.46	3160.02
247.68	3258.32
247.90	2836.44
248.11	2881.49
248.33	3459.02
248.55	3332.05
248.77	2893.78
248.98	2961.36
249.20	3626.95
249.42	3346.38
249.64	2865.11
249.85	2815.96
250.07	3178.45
250.29	3446.73
250.50	2961.36
250.72	2815.96
250.94	3379.15
251.16	3657.67
251.37	2840.53
251.59	2863.06
251.81	3395.53
252.02	3590.09
252.24	2772.95
252.46	2947.03
252.68	3074.00
252.89	3123.15
253.11	2705.37
253.33	2932.69
253.54	3575.75
253.76	3012.56
253.98	2762.71
254.20	2848.72
254.41	3020.75
254.63	3252.17
254.85	2729.94
255.06	2983.89
255.28	3334.09
255.50	3231.69
255.71	2826.20
255.93	2750.42
256.15	3330.00
256.36	3373.00
256.58	2711.51
256.80	2803.67
257.02	3256.27
257.23	3233.74
257.45	2813.91
257.67	3059.67
257.88	3155.92
258.10	3358.67
258.32	2957.27
258.53	2967.51
258.75	3567.56
258.97	3155.92
259.18	2865.11
259.40	2789.33
259.62	3547.08
259.83	3592.14
260.05	2893.78
260.27	3796.93
260.48	3444.68
260.70	3119.06
260.92	2832.34
261.13	2916.31
261.35	3389.39
261.57	3377.10
261.78	2721.75
262.00	2797.53
262.22	3444.68
262.43	3043.28
262.65	2947.03
262.86	2885.59
263.08	3852.23
263.30	3250.13
263.51	2682.84
263.73	2861.01
263.95	3594.19
264.16	3133.39
264.38	2738.13
264.60	2770.90
264.81	3270.61
265.03	3483.59
265.25	3416.01
265.46	2828.24
265.68	3549.13
265.89	3403.72
266.11	2811.86
266.33	2828.24
266.54	3559.37
266.76	3346.38
266.98	2899.92
267.19	3028.95
267.41	3485.64
267.62	3231.69
267.84	2635.74
268.06	2975.70
268.27	3209.17
268.49	3504.07
268.70	2912.21
268.92	2879.44
269.14	3063.76
269.35	3010.51
269.57	3010.51
269.79	2944.98
270.00	3207.12
270.22	3641.29
270.43	2715.61
270.65	2691.03
270.87	3321.81
271.08	3456.97
271.30	2963.41
271.51	2854.87
271.73	3356.62
271.95	3551.18
272.16	2793.43
272.38	2994.13
272.59	3123.15
272.81	3434.44
273.02	2863.06
273.24	2934.74
273.46	3545.03
273.67	2977.75
273.89	2748.37
274.10	2830.29
274.32	3581.90
274.54	3336.14
274.75	2852.82
274.97	2951.12
275.18	3344.33
275.40	3321.81
275.61	2881.49
275.83	3026.90
276.05	3125.20
276.26	3317.71
276.48	2965.46
276.69	3037.14
276.91	3119.06
277.12	3633.10
277.34	3045.33
277.55	3035.09
277.77	3370.96
277.99	3229.65
278.20	3084.24
278.42	2848.72
278.63	3063.76
278.85	3067.86
279.06	3053.52
279.28	3035.09
279.49	3512.27
279.71	3463.12
279.93	3000.27
280.14	3022.80
280.36	3168.21
280.57	3567.56
280.79	3024.85
281.00	2901.97
281.22	3141.58
281.43	3491.79
281.65	2844.63
281.86	2910.16
282.08	3391.44
282.29	3633.10
282.51	2885.59
282.73	2895.83
282.94	2936.79
283.16	3377.10
283.37	3082.19
283.59	3086.29
283.80	3409.87
284.02	3246.03
284.23	3033.04
284.45	3012.56
284.66	3067.86
284.88	3108.82
285.09	2865.11
285.31	2971.60
285.52	3307.47
285.74	2971.60
285.95	3143.63
286.17	3002.32
286.38	3426.25
286.60	3098.58
286.81	2904.02
287.03	2858.96
287.24	3315.66
287.46	3446.73
287.67	3090.38
287.89	3268.56
288.10	3186.64
288.32	3280.85
288.53	3104.72
288.75	3049.43
288.96	3373.00
289.18	3182.54
289.39	2920.40
289.61	3047.38
289.82	3700.68
290.04	3647.43
290.25	2924.50
290.47	3063.76
290.68	3278.80
290.90	3469.26
291.11	2789.33
291.33	3143.63
291.54	3112.91
291.76	3119.06
291.97	3174.35
292.18	3043.28
292.40	3168.21
292.61	3205.07
292.83	3303.37
293.04	2992.08
293.26	3256.27
293.47	3209.17
293.69	2949.08
293.90	2918.36
294.12	3489.74
294.33	3235.79
294.55	3092.43
294.76	3223.50
294.97	3643.34
295.19	3655.62
295.40	3000.27
295.62	3030.99
295.83	3446.73
296.05	3114.96
296.26	3211.22
296.48	2990.03
296.69	3332.05
296.90	3190.74
297.12	3117.01
297.33	3123.15
297.55	3405.77
297.76	3471.31
297.98	3100.62
298.19	3192.78
298.41	3297.23
298.62	3063.76
298.83	3229.65
299.05	3071.95
299.26	3139.54
299.48	3106.77
299.69	3033.04
299.90	2994.13
300.12	3145.68
300.33	3395.53
300.55	3053.52
300.76	3004.37
300.98	3010.51
301.19	3426.25
301.40	2983.89
301.62	3022.80
301.83	3401.68
302.05	3274.70
302.26	2975.70
302.47	2996.18
302.69	2979.79
302.90	3256.27
303.12	2877.40
303.33	3143.63
303.54	3696.58
303.76	3248.08
303.97	2926.55
304.19	3133.39
304.40	3022.80
304.61	3373.00
304.83	3110.86
305.04	3084.24
305.26	3397.58
305.47	3248.08
305.68	3018.71
305.90	2848.72
306.11	3483.59
306.33	3254.22
306.54	2852.82
306.75	2951.12
306.97	3065.81
307.18	3020.75
307.39	3049.43
307.61	3110.86
307.82	3198.93
308.04	3403.72
308.25	2867.16
308.46	3137.49
308.68	3317.71
308.89	3250.13
309.10	3106.77
309.32	3006.42
309.53	3348.43
309.74	3411.92
309.96	2889.68
310.17	3039.19
310.39	3205.07
310.60	3332.05
310.81	3055.57
311.03	2926.55
311.24	3420.11
311.45	3270.61
311.67	3280.85
311.88	3108.82
312.09	3188.69
312.31	3151.82
312.52	2873.30
312.73	2987.99
312.95	3055.57
313.16	3133.39
313.37	3137.49
313.59	3250.13
313.80	3438.54
314.01	3602.38
314.23	3026.90
314.44	2938.84
314.65	3043.28
314.87	3090.38
315.08	2983.89
315.29	2944.98
315.51	3112.91
315.72	3035.09
315.93	3051.47
316.15	3098.58
316.36	3182.54
316.57	3264.46
316.79	2944.98
317.00	2983.89
317.21	3303.37
317.43	3168.21
317.64	3082.19
317.85	2924.50
318.07	3059.67
318.28	3143.63
318.49	3074.00
318.70	3225.55
318.92	3405.77
319.13	3340.24
319.34	3213.26
319.56	3063.76
319.77	3346.38
319.98	3426.25
320.20	3307.47
320.41	3149.78
320.62	3440.59
320.83	3016.66
321.05	3217.36
321.26	3059.67
321.47	3299.28
321.69	3428.30
321.90	2861.01
322.11	2981.84
322.32	3332.05
322.54	3624.90
322.75	3016.66
322.96	4069.31
323.18	3074.00
323.39	2928.60
323.60	2824.15
323.81	3014.61
324.03	3207.12
324.24	3274.70
324.45	3176.40
324.66	2944.98
324.88	3485.64
325.09	3661.77
325.30	2996.18
325.52	2951.12
325.73	3344.33
325.94	3065.81
326.15	2922.45
326.37	2869.20
326.58	3446.73
326.79	3592.14
327.00	2996.18
327.22	2979.79
327.43	3205.07
327.64	3028.95
327.85	3135.44
328.07	3041.23
328.28	3702.73
328.49	3151.82
328.70	3049.43
328.92	3008.47
329.13	3221.45
329.34	3370.96
329.55	3237.84
329.76	3133.39
329.98	3149.78
330.19	3516.36
330.40	3145.68
330.61	3188.69
330.83	3510.22
331.04	3131.34
331.25	3121.10
331.46	3051.47
331.68	3110.86
331.89	3504.07
332.10	3053.52
332.31	2934.74
332.52	3274.70
332.74	3581.90
332.95	2863.06
333.16	3037.14
333.37	3483.59
333.58	3084.24
333.80	2985.94
334.01	2791.38
334.22	3237.84
334.43	3172.30
334.64	2858.96
334.86	2897.88
335.07	3104.72
335.28	3571.66
335.49	2930.64
335.70	3071.95
335.92	3620.81
336.13	3669.96
336.34	3037.14
336.55	2992.08
336.76	3373.00
336.98	2869.20
337.19	2992.08
337.40	3139.54
337.61	3729.35
337.82	3200.98
338.04	3043.28
338.25	2824.15
338.46	3303.37
338.67	3246.03
338.88	2887.64
339.09	2844.63
339.31	3172.30
339.52	3028.95
339.73	2926.55
339.94	3049.43
340.15	3485.64
340.36	3170.26
340.58	3125.20
340.79	2887.64
341.00	3393.48
341.21	3016.66
341.42	3219.41
341.63	2912.21
341.85	3463.12
342.06	3348.43
342.27	2992.08
342.48	3217.36
342.69	3043.28
342.90	3379.15
343.12	3368.91
343.33	2897.88
343.54	3557.32
343.75	3645.38
343.96	3088.34
344.17	2850.77
344.38	3307.47
344.60	3123.15
344.81	2947.03
345.02	2949.08
345.23	3489.74
345.44	3723.21
345.65	3067.86
345.86	3049.43
346.07	3352.52
346.29	3160.02
346.50	3135.44
346.71	3090.38
346.92	3549.13
347.13	3739.59
347.34	3084.24
347.55	2832.34
347.76	3502.03
347.98	2944.98
348.19	3055.57
348.40	3139.54
348.61	3076.05
348.82	3647.43
349.03	3033.04
349.24	2967.51
349.45	3608.52
349.66	2969.55
349.88	2897.88
350.09	2942.93
350.30	3520.46
350.51	3557.32
350.72	3188.69
350.93	2897.88
351.14	3166.16
351.35	3327.95
351.56	3063.76
351.77	3110.86
351.99	3387.34
352.20	3604.42
352.41	3033.04
352.62	2893.78
352.83	3286.99
353.04	3291.09
353.25	3016.66
353.46	3055.57
353.67	3461.07
353.88	2987.99
354.09	2899.92
354.30	3000.27
354.52	3459.02
354.73	3291.09
354.94	2895.83
355.15	3110.86
355.36	3653.58
355.57	3114.96
355.78	2883.54
355.99	2928.60
356.20	3149.78
356.41	3534.79
356.62	3082.19
356.83	3047.38
357.04	3532.75
357.25	3020.75
357.46	2928.60
357.68	2934.74
357.89	3086.29
358.10	3262.41
358.31	3041.23
358.52	3049.43
358.73	3028.95
358.94	3106.77
359.15	3014.61
359.36	3030.99
359.57	3291.09
359.78	3188.69
359.99	3198.93
360.20	2830.29
360.41	3205.07
360.62	3411.92
360.83	3059.67
361.04	3047.38
361.25	3368.91
361.46	3669.96
361.67	3080.14
361.88	3033.04
362.09	3434.44
362.30	3444.68
362.51	2885.59
362.72	3143.63
362.93	3475.40
363.14	3413.96
363.35	3106.77
363.56	2918.36
363.78	3409.87
363.99	3475.40
364.20	3053.52
364.41	3049.43
364.62	3674.06
364.83	3352.52
365.04	3074.00
365.25	2983.89
365.46	3610.57
365.67	3160.02
365.88	3284.94
366.09	2985.94
366.30	3196.88
366.51	3286.99
366.72	2920.40
366.93	3033.04
367.14	3274.70
367.35	3542.99
367.56	2926.55
367.77	3086.29
367.98	3323.85
368.18	3325.90
368.39	3119.06
368.60	2924.50
368.81	3422.16
369.02	3280.85
369.23	3051.47
369.44	2854.87
369.65	3246.03
369.86	3428.30
370.07	3157.97
370.28	2926.55
370.49	3377.10
370.70	3295.18
370.91	2961.36
371.12	2895.83
371.33	3489.74
371.54	3196.88
371.75	3094.48
371.96	2736.09
372.17	3319.76
372.38	3235.79
372.59	2977.75
372.80	2916.31
373.01	3213.26
373.22	3319.76
373.43	2981.84
373.64	2922.45
373.85	3588.04
374.06	3631.05
374.26	3143.63
374.47	3088.34
374.68	3557.32
374.89	3407.82
375.10	3010.51
375.31	3141.58
375.52	3387.34
375.73	3307.47
375.94	2858.96
376.15	3143.63
376.36	3110.86
376.57	3106.77
376.78	3041.23
376.99	3000.27
377.20	3594.19
377.40	3192.78
377.61	3368.91
377.82	2975.70
378.03	3563.47
378.24	3420.11
378.45	3143.63
378.66	3061.71
378.87	2940.88
379.08	2987.99
379.29	2998.23
379.50	3131.34
379.71	3176.40
379.91	3344.33
380.12	2969.55
380.33	3084.24
380.54	3266.51
380.75	3213.26
380.96	2965.46
381.17	3057.62
381.38	3278.80
381.59	3323.85
381.80	3080.14
382.00	3223.50
382.21	3233.74
382.42	3575.75
382.63	3422.16
382.84	3153.87
383.05	3485.64
383.26	3536.84
383.47	3176.40
383.68	2944.98
383.88	3426.25
384.09	3262.41
384.30	3258.32
384.51	3096.53
384.72	3213.26
384.93	2977.75
385.14	3182.54
385.35	3295.18
385.55	3033.04
385.76	3545.03
385.97	3096.53
386.18	2889.68
386.39	3155.92
386.60	3190.74
386.81	3053.52
387.02	2961.36
387.22	2971.60
387.43	3387.34
387.64	3117.01
387.85	3305.42
388.06	3313.61
388.27	4413.37
388.48	7712.65
388.68	12140.36
388.89	15243.03
389.10	16557.83
389.31	16297.74
389.52	12869.44
389.73	11188.05
389.93	10260.32
390.14	9359.22
390.35	8537.98
390.56	7958.41
390.77	6621.08
390.98	4962.23
391.18	4245.44
391.39	3921.86
391.60	3364.81
391.81	3266.51
392.02	3026.90
392.23	3811.27
392.43	3297.23
392.64	3106.77
392.85	3133.39
393.06	3555.27
393.27	3332.05
393.47	2967.51
393.68	3096.53
393.89	3168.21
394.10	3495.88
394.31	3028.95
394.52	2930.64
394.72	3117.01
394.93	3583.95
395.14	2934.74
395.35	3174.35
395.56	3153.87
395.76	3153.87
395.97	3039.19
396.18	3155.92
396.39	3237.84
396.60	3893.19
396.80	3375.05
397.01	3246.03
397.22	3428.30
397.43	3532.75
397.64	2951.12
397.84	3088.34
398.05	3674.06
398.26	3160.02
398.47	3168.21
398.67	3305.42
398.88	3196.88
399.09	3436.49
399.30	2895.83
399.51	3160.02
399.71	3053.52
399.92	3174.35
400.13	3133.39
400.34	3010.51
400.54	3252.17
400.75	3545.03
400.96	3200.98
401.17	3350.48
401.37	3411.92
401.58	3282.89
401.79	3057.62
402.00	3139.54
402.21	3770.31
402.41	3467.21
402.62	3422.16
402.83	3514.31
403.04	3715.02
403.24	4050.88
403.45	3264.46
403.66	3405.77
403.87	3506.12
404.07	3645.38
404.28	3325.90
404.49	3424.20
404.70	3405.77
404.90	3438.54
405.11	3028.95
405.32	3209.17
405.52	3155.92
405.73	3217.36
405.94	2961.36
406.15	3104.72
406.35	3377.10
406.56	3454.92
406.77	3045.33
406.98	3043.28
407.18	3157.97
407.39	3573.71
407.60	3047.38
407.80	3102.67
408.01	3135.44
408.22	3428.30
408.43	2848.72
408.63	3133.39
408.84	3518.41
409.05	3493.83
409.25	3037.14
409.46	3053.52
409.67	3205.07
409.88	3114.96
410.08	3100.62
410.29	3043.28
410.50	3475.40
410.70	3299.28
410.91	2961.36
411.12	3074.00
411.32	3250.13
411.53	3157.97
411.74	3098.58
411.95	3114.96
412.15	3252.17
412.36	3448.78
412.57	3217.36
412.77	3207.12
412.98	3229.65
413.19	3229.65
413.39	3141.58
413.60	3094.48
413.81	3542.99
414.01	3020.75
414.22	3039.19
414.43	3188.69
414.63	3264.46
414.84	3534.79
415.05	3078.10
415.25	2879.44
415.46	3471.31
415.67	3198.93
415.87	3067.86
416.08	3024.85
416.29	3256.27
416.49	3291.09
416.70	3162.06
416.91	3092.43
417.11	3200.98
417.32	3485.64
417.53	3184.59
417.73	3125.20
417.94	3227.60
418.15	3344.33
418.35	3108.82
418.56	3002.32
418.77	3766.21
418.97	3278.80
419.18	3162.06
419.38	2762.71
419.59	3284.94
419.80	3569.61
420.00	2973.65
420.21	3020.75
420.42	3510.22
420.62	3366.86
420.83	2985.94
421.04	2977.75
421.24	3225.55
421.45	3399.63
421.65	3098.58
421.86	3024.85
422.07	3522.51
422.27	3364.81
422.48	3067.86
422.69	2877.40
422.89	3231.69
423.10	3227.60
423.30	3026.90
423.51	3114.96
423.72	3438.54
423.92	3436.49
424.13	2865.11
424.33	3086.29
424.54	3397.58
424.75	3278.80
424.95	3266.51
425.16	3037.14
425.36	3246.03
425.57	3508.17
425.78	3182.54
425.98	3188.69
426.19	3350.48
426.39	3098.58
426.60	3098.58
426.81	3131.34
427.01	3452.88
427.22	3149.78
427.42	2914.26
427.63	2975.70
427.83	3469.26
428.04	3575.75
428.25	3127.25
428.45	3164.11
428.66	3493.83
428.86	3256.27
429.07	3076.05
429.28	3076.05
429.48	3301.33
429.69	3166.16
429.89	3074.00
430.10	2908.12
430.30	3465.16
430.51	3524.55
430.71	3018.71
430.92	3102.67
431.13	3262.41
431.33	3346.38
431.54	3096.53
431.74	3266.51
431.95	3721.16
432.15	3133.39
432.36	3098.58
432.56	3047.38
432.77	3678.15
432.98	3690.44
433.18	3102.67
433.39	2918.36
433.59	3209.17
433.80	3692.49
434.00	3223.50
434.21	3168.21
434.41	3125.20
434.62	3620.81
434.82	2998.23
435.03	2998.23
435.23	3383.24
435.44	2987.99
435.64	3024.85
435.85	3092.43
436.06	3422.16
436.26	3477.45
436.47	3045.33
436.67	2949.08
436.88	3229.65
437.08	3534.79
437.29	3117.01
437.49	3282.89
437.70	3485.64
437.90	3241.93
438.11	3299.28
438.31	3119.06
438.52	3604.42
438.72	3418.06
438.93	3454.92
439.13	3196.88
439.34	3442.64
439.54	3170.26
439.75	3194.83
439.95	3162.06
440.16	3137.49
440.36	3286.99
440.57	3082.19
440.77	3024.85
440.98	3305.42
441.18	3379.15
441.39	2955.22
441.59	2883.54
441.80	3690.44
442.00	3301.33
442.21	3241.93
442.41	2889.68
442.62	3524.55
442.82	3123.15
443.02	3000.27
443.23	3026.90
443.43	3200.98
443.64	3502.03
443.84	2912.21
444.05	3184.59
444.25	3327.95
444.46	3211.22
444.66	3084.24
444.87	3315.66
445.07	3020.75
445.28	3147.73
445.48	3280.85
445.69	3139.54
445.89	3823.56
446.09	3225.55
446.30	3364.81
446.50	3420.11
446.71	5140.40
446.91	6528.92
447.12	7131.03
447.32	7737.23
447.53	7710.60
447.73	6395.81
447.93	5584.81
448.14	5343.15
448.34	5535.66
448.55	4532.15
448.75	4460.48
448.96	4198.34
449.16	4093.89
449.36	3962.82
449.57	3307.47
449.77	3162.06
449.98	3225.55
450.18	3409.87
450.39	2963.41
450.59	3272.65
450.79	3231.69
451.00	3106.77
451.20	3295.18
451.41	3014.61
451.61	3413.96
451.81	3229.65
452.02	2957.27
452.22	3074.00
452.43	3198.93
452.63	3172.30
452.84	3039.19
453.04	2963.41
453.24	3342.28
453.45	3100.62
453.65	3006.42
453.86	3112.91
454.06	3336.14
454.26	3338.19
454.47	2963.41
454.67	3262.41
454.87	3303.37
455.08	3260.37
455.28	3121.10
455.49	3213.26
455.69	3069.91
455.89	3755.97
456.10	3057.62
456.30	3018.71
456.51	3397.58
456.71	3286.99
456.91	3237.84
457.12	3051.47
457.32	3360.72
457.52	3065.81
457.73	3258.32
457.93	3246.03
458.14	3151.82
458.34	2944.98
458.54	3135.44
458.75	3067.86
458.95	3459.02
459.15	3448.78
459.36	3153.87
459.56	3045.33
459.76	3835.85
459.97	3256.27
460.17	3094.48
460.37	3119.06
460.58	3338.19
460.78	3444.68
460.99	3098.58
461.19	3024.85
461.39	3178.45
461.60	3178.45
461.80	3162.06
462.00	2926.55
462.21	3211.22
462.41	3127.25
462.61	2955.22
462.82	2922.45
463.02	3319.76
463.22	3264.46
463.43	3090.38
463.63	2963.41
463.83	3538.89
464.04	3379.15
464.24	3049.43
464.44	3067.86
464.64	3401.68
464.85	3442.64
465.05	3067.86
465.25	2957.27
465.46	3164.11
465.66	3454.92
465.86	3039.19
466.07	3080.14
466.27	3198.93
466.47	3082.19
466.68	2865.11
466.88	3170.26
467.08	3407.82
467.29	3477.45
467.49	3102.67
467.69	3180.50
467.89	3407.82
468.10	3233.74
468.30	3110.86
468.50	3143.63
468.71	3352.52
468.91	2985.94
469.11	3256.27
469.31	3155.92
469.52	3059.67
469.72	3653.58
469.92	3338.19
470.13	3067.86
470.33	3155.92
470.53	3381.20
470.73	3467.21
470.94	3921.86
471.14	4145.09
471.34	4700.09
471.54	4278.21
471.75	4007.87
471.95	3919.81
472.15	3751.88
472.36	3784.65
472.56	3467.21
472.76	3839.94
472.96	3690.44
473.17	3407.82
473.37	3215.31
473.57	3332.05
473.77	3469.26
473.98	3254.22
474.18	3035.09
474.38	3985.35
474.58	3209.17
474.79	2944.98
474.99	3188.69
475.19	3444.68
475.39	3110.86
475.60	3180.50
475.80	2975.70
476.00	3299.28
476.20	3256.27
476.41	3117.01
476.61	3045.33
476.81	3559.37
477.01	3141.58
477.21	3340.24
477.42	3133.39
477.62	3080.14
477.82	3475.40
478.02	3037.14
478.23	3137.49
478.43	3080.14
478.63	3151.82
478.83	3149.78
479.03	3170.26
479.24	3581.90
479.44	3696.58
479.64	2992.08
479.84	2914.26
480.04	3149.78
480.25	3499.98
480.45	2996.18
480.65	3026.90
480.85	3563.47
481.06	3135.44
481.26	3131.34
481.46	3041.23
481.66	3354.57
481.86	3076.05
482.06	3256.27
482.27	3074.00
482.47	3221.45
482.67	3362.76
482.87	3133.39
483.07	3121.10
483.28	3162.06
483.48	3117.01
483.68	2998.23
483.88	2901.97
484.08	2838.48
484.29	3024.85
484.49	3092.43
484.69	2877.40
484.89	3622.86
485.09	3469.26
485.29	3037.14
485.50	3248.08
485.70	3133.39
485.90	3540.94
486.10	3155.92
486.30	2971.60
486.50	3481.55
486.71	3338.19
486.91	3090.38
487.11	3131.34
487.31	3084.24
487.51	3473.36
487.71	3041.23
487.91	2936.79
488.12	3049.43
488.32	2822.10
488.52	3065.81
488.72	2895.83
488.92	3354.57
489.12	3469.26
489.32	3223.50
489.53	3069.91
489.73	2961.36
489.93	3645.38
490.13	2994.13
490.33	2910.16
490.53	3336.14
490.73	3499.98
490.94	2844.63
491.14	3207.12
491.34	3385.29
491.54	3383.24
491.74	4059.07
491.94	4589.50
492.14	5074.87
492.34	5263.28
492.54	4913.08
492.75	4165.57
492.95	4302.78
493.15	4122.56
493.35	3839.94
493.55	3786.69
493.75	3721.16
493.95	3911.62
494.15	3258.32
494.35	3192.78
494.56	3332.05
494.76	3153.87
494.96	3231.69
495.16	2987.99
495.36	3307.47
495.56	3364.81
495.76	3082.19
495.96	3119.06
496.16	3119.06
496.36	3743.69
496.56	3063.76
496.77	3182.54
496.97	3243.98
497.17	3510.22
497.37	2877.40
497.57	3149.78
497.77	3301.33
497.97	3037.14
498.17	3043.28
498.37	2994.13
498.57	3381.20
498.77	3211.22
498.97	3264.46
499.17	3348.43
499.38	3225.55
499.58	3454.92
499.78	3305.42
499.98	3289.04
500.18	3246.03
500.38	3082.19
500.58	3272.65
500.78	3622.86
500.98	6006.69
501.18	8136.58
501.38	9756.52
501.58	10864.47
501.78	10678.11
501.98	9230.20
502.18	7552.91
502.38	6649.75
502.58	6393.76
502.78	5640.11
502.98	5400.49
503.18	5240.75
503.38	4833.21
503.59	4206.53
503.79	4188.10
503.99	3653.58
504.19	3895.24
504.39	3944.39
504.59	3669.96
504.79	3672.01
504.99	3993.54
505.19	3614.66
505.39	3319.76
505.59	3579.85
505.79	3704.78
505.99	3569.61
506.19	3143.63
506.39	3346.38
506.59	3139.54
506.79	3301.33
506.99	3291.09
507.19	2987.99
507.39	3313.61
507.59	3059.67
507.79	3049.43
507.99	3067.86
508.19	3358.67
508.39	3221.45
508.59	3047.38
508.79	3147.73
508.99	3706.82
509.19	3217.36
509.39	3147.73
509.59	3014.61
509.79	3162.06
509.99	3368.91
510.19	3164.11
510.39	3264.46
510.59	3332.05
510.79	3233.74
510.99	2873.30
511.19	3051.47
511.39	3692.49
511.59	3571.66
511.79	3235.79
511.99	3049.43
512.19	3633.10
512.38	3295.18
512.58	3004.37
512.78	2998.23
512.98	3461.07
513.18	3526.60
513.38	2990.03
513.58	3160.02
513.78	3270.61
513.98	3190.74
514.18	3043.28
514.38	3084.24
514.58	3342.28
514.78	3123.15
514.98	2992.08
515.18	3055.57
515.38	3090.38
515.58	3579.85
515.78	3002.32
515.98	3112.91
516.18	3413.96
516.38	3209.17
516.57	3033.04
516.77	3010.51
516.97	3438.54
517.17	3114.96
517.37	2936.79
517.57	3098.58
517.77	3170.26
517.97	3157.97
518.17	3166.16
518.37	2897.88
518.57	3061.71
518.77	3196.88
518.97	3049.43
519.16	3002.32
519.36	3532.75
519.56	3135.44
519.76	3045.33
519.96	3039.19
520.16	3479.50
520.36	3172.30
520.56	3229.65
520.76	3000.27
520.96	3172.30
521.16	3463.12
521.35	3295.18
521.55	3172.30
521.75	3293.13
521.95	3155.92
522.15	2963.41
522.35	2942.93
522.55	3055.57
522.75	3549.13
522.95	3014.61
523.14	2967.51
523.34	3289.04
523.54	3166.16
523.74	3217.36
523.94	3117.01
524.14	2992.08
524.34	3428.30
524.54	3336.14
524.73	3092.43
524.93	3473.36
525.13	3327.95
525.33	2963.41
525.53	3262.41
525.73	3493.83
525.93	3246.03
526.13	3084.24
526.32	2942.93
526.52	3405.77
526.72	3542.99
526.92	3090.38
527.12	2918.36
527.32	2961.36
527.52	3370.96
527.71	3012.56
527.91	3074.00
528.11	3270.61
528.31	3225.55
528.51	3026.90
528.71	3231.69
528.90	3409.87
529.10	3565.51
529.30	3198.93
529.50	2803.67
529.70	3293.13
529.90	3133.39
530.09	3108.82
530.29	2940.88
530.49	3200.98
530.69	3944.39
530.89	3196.88
531.09	3192.78
531.28	3147.73
531.48	3440.59
531.68	3037.14
531.88	3078.10
532.08	3325.90
532.28	3166.16
532.47	3067.86
532.67	3143.63
532.87	3428.30
533.07	3059.67
533.27	3149.78
533.46	3145.68
533.66	3413.96
533.86	3268.56
534.06	3164.11
534.26	3043.28
534.45	3291.09
534.65	3401.68
534.85	3170.26
535.05	2967.51
535.25	3368.91
535.44	2930.64
535.64	3209.17
535.84	3162.06
536.04	3178.45
536.24	3243.98
536.43	3006.42
536.63	3094.48
536.83	3270.61
537.03	3227.60
537.22	2904.02
537.42	2895.83
537.62	3325.90
537.82	3078.10
538.02	3262.41
538.21	3135.44
538.41	3827.65
538.61	3307.47
538.81	3076.05
539.00	3254.22
539.20	3041.23
539.40	3258.32
539.60	3024.85
539.79	3198.93
539.99	3229.65
540.19	3119.06
540.39	3090.38
540.58	3092.43
540.78	3489.74
540.98	3293.13
541.18	3295.18
541.37	3155.92
541.57	3330.00
541.77	3293.13
541.97	2965.46
542.16	2897.88
542.36	3217.36
542.56	3164.11
542.76	3219.41
542.95	3180.50
543.15	3399.63
543.35	3418.06
543.54	3035.09
543.74	2983.89
543.94	3588.04
544.14	3082.19
544.33	3215.31
544.53	3069.91
544.73	3184.59
544.93	3172.30
545.12	3059.67
545.32	3041.23
545.52	3131.34
545.71	3096.53
545.91	3020.75
546.11	2965.46
546.30	3135.44
546.50	3223.50
546.70	3215.31
546.90	3010.51
547.09	2969.55
547.29	3270.61
547.49	3147.73
547.68	3049.43
547.88	3117.01
548.08	3338.19
548.27	3344.33
548.47	3102.67
548.67	3108.82
548.87	3375.05
549.06	3010.51
549.26	2983.89
549.46	3432.40
549.65	3162.06
549.85	3086.29
550.05	3131.34
550.24	3020.75
550.44	3237.84
550.64	3114.96
550.83	3147.73
551.03	3575.75
551.23	3526.60
551.42	3129.30
551.62	3143.63
551.82	3221.45
552.01	3262.41
552.21	3459.02
552.41	3125.20
552.60	3577.80
552.80	3342.28
553.00	3024.85
553.19	3086.29
553.39	3704.78
553.59	3049.43
553.78	3112.91
553.98	2963.41
554.17	2957.27
554.37	3416.01
554.57	3041.23
554.76	2899.92
554.96	3137.49
555.16	3260.37
555.35	3108.82
555.55	3364.81
555.75	3344.33
555.94	3461.07
556.14	2899.92
556.33	3035.09
556.53	3186.64
556.73	3178.45
556.92	3137.49
557.12	3041.23
557.32	3672.01
557.51	3606.47
557.71	3139.54
557.90	3295.18
558.10	3637.19
558.30	3223.50
558.49	3067.86
558.69	2983.89
558.88	3426.25
559.08	3278.80
559.28	3071.95
559.47	3108.82
559.67	3428.30
559.86	3674.06
560.06	3035.09
560.26	3131.34
560.45	3377.10
560.65	3160.02
560.84	3336.14
561.04	3012.56
561.24	3401.68
561.43	3065.81
561.63	3278.80
561.82	3180.50
562.02	3461.07
562.22	3078.10
562.41	3010.51
562.61	2998.23
562.80	3028.95
563.00	3803.08
563.19	3098.58
563.39	3166.16
563.59	3444.68
563.78	3102.67
563.98	2809.81
564.17	3028.95
564.37	2844.63
564.56	3291.09
564.76	2951.12
564.96	3119.06
565.15	3262.41
565.35	3770.31
565.54	3088.34
565.74	2998.23
565.93	3399.63
566.13	3305.42
566.32	3121.10
566.52	3192.78
566.71	3254.22
566.91	3405.77
567.11	3176.40
567.30	2961.36
567.50	3399.63
567.69	3301.33
567.89	3035.09
568.08	3039.19
568.28	3358.67
568.47	3084.24
568.67	3119.06
568.86	3051.47
569.06	3399.63
569.25	3155.92
569.45	2949.08
569.64	3039.19
569.84	3200.98
570.04	3323.85
570.23	3022.80
570.43	3108.82
570.62	3364.81
570.82	3579.85
571.01	2887.64
571.21	3035.09
571.40	3137.49
571.60	3405.77
571.79	3137.49
571.99	3041.23
572.18	3123.15
572.38	3350.48
572.57	3200.98
572.77	3094.48
572.96	3848.13
573.16	3254.22
573.35	3016.66
573.55	3289.04
573.74	3366.86
573.94	3286.99
574.13	3030.99
574.33	3155.92
574.52	3481.55
574.71	3270.61
574.91	3090.38
575.10	2910.16
575.30	3172.30
575.49	3010.51
575.69	3014.61
575.88	3016.66
576.08	3188.69
576.27	3461.07
576.47	3102.67
576.66	3205.07
576.86	3528.65
577.05	3344.33
577.25	3123.15
577.44	3270.61
577.64	3123.15
577.83	3467.21
578.02	3074.00
578.22	3205.07
578.41	3717.06
578.61	3213.26
578.80	2936.79
579.00	3094.48
579.19	3293.13
579.39	3385.29
579.58	3149.78
579.77	3043.28
579.97	3557.32
580.16	3454.92
580.36	3192.78
580.55	3057.62
580.75	3422.16
580.94	3246.03
581.13	3299.28
581.33	3368.91
581.52	3229.65
581.72	3663.82
581.91	3182.54
582.11	3074.00
582.30	3481.55
582.49	3377.10
582.69	3424.20
582.88	3117.01
583.08	3360.72
583.27	3499.98
583.47	3196.88
583.66	3063.76
583.85	3076.05
584.05	3311.57
584.24	3145.68
584.44	3082.19
584.63	3467.21
584.82	3620.81
585.02	3346.38
585.21	3180.50
585.41	3370.96
585.60	3319.76
585.79	3344.33
585.99	3442.64
586.18	3233.74
586.37	4247.49
586.57	6272.93
586.76	17958.64
586.96	37701.06
587.15	50830.58
587.34	60060.78
587.54	63456.31
587.73	56878.24
587.93	40740.24
588.12	31241.76
588.31	25548.41
588.51	22675.11
588.70	21128.89
588.89	18613.99
589.09	15650.58
589.28	13629.23
589.47	10930.01
589.67	8198.02
589.86	6502.30
590.06	5095.35
590.25	4550.59
590.44	3874.76
590.64	3528.65
590.83	3567.56
591.02	3450.83
591.22	3172.30
591.41	3188.69
591.60	3307.47
591.80	3852.23
591.99	2934.74
592.18	3114.96
592.38	3497.93
592.57	3094.48
592.76	3051.47
592.96	3106.77
593.15	3209.17
593.34	3524.55
593.54	3035.09
593.73	3209.17
593.92	3489.74
594.12	3381.20
594.31	3213.26
594.50	3272.65
594.70	3311.57
594.89	3882.95
595.08	2955.22
595.28	3194.83
595.47	3928.00
595.66	3432.40
595.86	3030.99
596.05	2951.12
596.24	3233.74
596.43	3602.38
596.63	3168.21
596.82	3207.12
597.01	3373.00
597.21	3606.47
597.40	3090.38
597.59	3119.06
597.79	3246.03
597.98	3444.68
598.17	3098.58
598.36	3069.91
598.56	3401.68
598.75	3184.59
598.94	3149.78
599.14	3145.68
599.33	3123.15
599.52	3487.69
599.71	3248.08
599.91	3131.34
600.10	3377.10
600.29	3311.57
600.48	3108.82
600.68	3137.49
600.87	3299.28
601.06	3155.92
601.26	3172.30
601.45	3246.03
601.64	3223.50
601.83	3622.86
602.03	2990.03
602.22	3051.47
602.41	3516.36
602.60	3772.36
602.80	3176.40
602.99	3174.35
603.18	3205.07
603.37	3356.62
603.57	3002.32
603.76	3106.77
603.95	3545.03
604.14	3207.12
604.34	2893.78
604.53	3012.56
604.72	3348.43
604.91	3477.45
605.10	3092.43
605.30	2979.79
605.49	3690.44
605.68	3450.83
605.87	3078.10
606.07	3002.32
606.26	3373.00
606.45	3436.49
606.64	3119.06
606.84	3000.27
607.03	3319.76
607.22	3545.03
607.41	3164.11
607.60	3006.42
607.80	3532.75
607.99	3231.69
608.18	3096.53
608.37	3157.97
608.56	3153.87
608.76	3442.64
608.95	3209.17
609.14	3096.53
609.33	3524.55
609.52	3610.57
609.72	3225.55
609.91	3213.26
610.10	3373.00
610.29	3565.51
610.48	3209.17
610.68	3172.30
610.87	3262.41
611.06	3446.73
611.25	3084.24
611.44	3282.89
611.63	3217.36
611.83	3549.13
612.02	2965.46
612.21	3246.03
612.40	2926.55
612.59	3071.95
612.79	2983.89
612.98	3123.15
613.17	3569.61
613.36	3221.45
613.55	3276.75
613.74	3051.47
613.93	3385.29
614.13	3403.72
614.32	3334.09
614.51	3194.83
614.70	3348.43
614.89	3229.65
615.08	3213.26
615.28	3418.06
615.47	3084.24
615.66	3409.87
615.85	3168.21
616.04	3135.44
616.23	3334.09
616.42	3311.57
616.62	3069.91
616.81	3200.98
617.00	3286.99
617.19	3405.77
617.38	3119.06
617.57	3192.78
617.76	3461.07
617.95	3432.40
618.15	3227.60
618.34	3311.57
618.53	2981.84
618.72	3499.98
618.91	3235.79
619.10	3164.11
619.29	3207.12
619.48	3360.72
619.68	2975.70
619.87	3061.71
620.06	2998.23
620.25	3375.05
620.44	2893.78
620.63	2959.31
620.82	3413.96
621.01	3305.42
621.20	3112.91
621.39	3219.41
621.59	3356.62
621.78	3276.75
621.97	3119.06
622.16	3243.98
622.35	3362.76
622.54	3405.77
622.73	3192.78
622.92	2815.96
623.11	3456.97
623.30	3250.13
623.49	3280.85
623.68	2994.13
623.88	3555.27
624.07	3141.58
624.26	2940.88
624.45	3071.95
624.64	3192.78
624.83	3387.34
625.02	3010.51
625.21	3119.06
625.40	3413.96
625.59	3614.66
625.78	3125.20
625.97	3188.69
626.16	3510.22
626.35	3547.08
626.54	3133.39
626.74	3243.98
626.93	3223.50
627.12	3237.84
627.31	3059.67
627.50	3129.30
627.69	3420.11
627.88	3082.19
628.07	2998.23
628.26	2828.24
628.45	3162.06
628.64	3057.62
628.83	3102.67
629.02	2918.36
629.21	3375.05
629.40	3299.28
629.59	2959.31
629.78	2985.94
629.97	3332.05
630.16	3235.79
630.35	3057.62
630.54	3178.45
630.73	3153.87
630.92	3203.02
631.11	3024.85
631.30	3098.58
631.49	3465.16
631.68	3213.26
631.87	3166.16
632.06	2977.75
632.25	3782.60
632.44	3338.19
632.63	3127.25
632.82	3112.91
633.01	3098.58
633.20	3387.34
633.39	3108.82
633.58	2914.26
633.77	3299.28
633.96	3495.88
634.15	3250.13
634.34	3205.07
634.53	3442.64
634.72	3112.91
634.91	2932.69
635.10	3051.47
635.29	3495.88
635.48	3313.61
635.67	3043.28
635.86	2910.16
636.05	3602.38
636.24	3246.03
636.43	3037.14
636.62	3149.78
636.81	2828.24
637.00	3280.85
637.19	3026.90
637.38	3125.20
637.57	3221.45
637.76	3237.84
637.95	3307.47
638.14	3272.65
638.33	3375.05
638.52	3274.70
638.71	2975.70
638.89	2934.74
639.08	3907.52
639.27	3461.07
639.46	3360.72
639.65	3841.99
639.84	3975.11
640.03	4065.22
640.22	3694.54
640.41	3559.37
640.60	3459.02
640.79	3575.75
640.98	3334.09
641.17	3321.81
641.36	3518.41
641.55	3465.16
641.74	2947.03
641.92	2979.79
642.11	3143.63
642.30	3200.98
642.49	3049.43
642.68	2979.79
642.87	3327.95
643.06	3291.09
643.25	2967.51
643.44	2938.84
643.63	3200.98
643.82	3395.53
644.00	2934.74
644.19	3108.82
644.38	3096.53
644.57	3459.02
644.76	3133.39
644.95	3182.54
645.14	3344.33
645.33	3229.65
645.52	3112.91
645.71	2897.88
645.89	3082.19
646.08	3151.82
646.27	3123.15
646.46	3309.52
646.65	3024.85
646.84	3336.14
647.03	2996.18
647.22	3223.50
647.40	3325.90
647.59	3209.17
647.78	2795.48
647.97	3133.39
648.16	3045.33
648.35	3569.61
648.54	3389.39
648.73	3108.82
648.91	3436.49
649.10	3225.55
649.29	3074.00
649.48	2959.31
649.67	3368.91
649.86	3395.53
650.05	3127.25
650.23	3227.60
650.42	3307.47
650.61	3700.68
650.80	3301.33
650.99	3379.15
651.18	3616.71
651.36	3493.83
651.55	3041.23
651.74	3266.51
651.93	3229.65
652.12	3213.26
652.31	3139.54
652.49	3129.30
652.68	3215.31
652.87	3622.86
653.06	3164.11
653.25	3327.95
653.44	3219.41
653.62	3678.15
653.81	3131.34
654.00	3117.01
654.19	3368.91
654.38	3762.12
654.56	3149.78
654.75	3045.33
654.94	3454.92
655.13	3360.72
655.32	3076.05
655.51	3160.02
655.69	3139.54
655.88	3479.50
656.07	2934.74
656.26	3149.78
656.45	2977.75
656.63	3266.51
656.82	2998.23
657.01	3321.81
657.20	3180.50
657.38	3647.43
657.57	3010.51
657.76	2807.77
657.95	3444.68
658.14	3176.40
658.32	3246.03
658.51	2992.08
658.70	3368.91
658.89	3321.81
659.08	3147.73
659.26	3289.04
659.45	3104.72
659.64	3362.76
659.83	3092.43
660.01	3381.20
660.20	3262.41
660.39	3594.19
660.58	2764.76
660.76	3139.54
660.95	3037.14
661.14	3295.18
661.33	2918.36
661.51	3069.91
661.70	3172.30
661.89	3321.81
662.08	3172.30
662.26	2973.65
662.45	3184.59
662.64	3559.37
662.83	3186.64
663.01	2918.36
663.20	3147.73
663.39	3499.98
663.58	3143.63
663.76	2985.94
663.95	3430.35
664.14	3069.91
664.32	3143.63
664.51	2949.08
664.70	2877.40
664.89	3323.85
665.07	2897.88
665.26	3262.41
665.45	2979.79
665.64	3438.54
665.82	3069.91
666.01	3121.10
666.20	2910.16
666.38	3411.92
666.57	3366.86
666.76	5541.80
666.95	12943.16
667.13	20795.07
667.32	25177.73
667.51	28249.68
667.69	29107.78
667.88	24135.31
668.07	17479.41
668.25	15073.05
668.44	12805.95
668.63	11292.50
668.81	9731.95
669.00	8482.69
669.19	7636.88
669.38	6809.50
669.56	5652.39
669.75	4945.84
669.94	4399.04
670.12	3780.55
670.31	3454.92
670.50	3319.76
670.68	3516.36
670.87	3332.05
671.06	3082.19
671.24	3241.93
671.43	3573.71
671.62	3313.61
671.80	3039.19
671.99	3207.12
672.18	3377.10
672.36	3442.64
672.55	3276.75
672.74	3164.11
672.92	3153.87
673.11	3379.15
673.29	2942.93
673.48	3311.57
673.67	3192.78
673.85	3405.77
674.04	2979.79
674.23	3229.65
674.41	3729.35
674.60	3028.95
674.79	2942.93
674.97	2936.79
675.16	3420.11
675.34	3426.25
675.53	3080.14
675.72	3123.15
675.90	3659.72
676.09	3205.07
676.28	3143.63
676.46	3008.47
676.65	3491.79
676.83	3098.58
677.02	3114.96
677.21	3131.34
677.39	3309.52
677.58	3076.05
677.77	3147.73
677.95	2983.89
678.14	3151.82
678.32	3219.41
678.51	3053.52
678.70	3428.30
678.88	3217.36
679.07	3258.32
679.25	3121.10
679.44	3133.39
679.63	3051.47
679.81	3319.76
680.00	3311.57
680.18	3123.15
680.37	3653.58
680.55	3299.28
680.74	2973.65
680.93	2799.57
681.11	3301.33
681.30	3258.32
681.48	3104.72
681.67	3133.39
681.85	3278.80
682.04	3045.33
682.23	3221.45
682.41	3278.80
682.60	3198.93
682.78	3166.16
682.97	3004.37
683.15	3133.39
683.34	3411.92
683.53	3526.60
683.71	2951.12
683.90	3172.30
684.08	3639.24
684.27	3299.28
684.45	3223.50
684.64	3196.88
684.82	3282.89
685.01	3399.63
685.19	3061.71
685.38	3463.12
685.57	3270.61
685.75	3098.58
685.94	2985.94
686.12	3039.19
686.31	3174.35
686.49	3504.07
686.68	2885.59
686.86	3076.05
687.05	3190.74
687.23	3594.19
687.42	3024.85
687.60	2910.16
687.79	3557.32
687.97	3516.36
688.16	3196.88
688.34	3350.48
688.53	2957.27
688.71	3409.87
688.90	3407.82
689.08	3053.52
689.27	2932.69
689.45	3485.64
689.64	3274.70
689.82	3153.87
690.01	3383.24
690.19	3352.52
690.38	3131.34
690.56	3172.30
690.75	3100.62
690.93	3155.92
691.12	2990.03
691.30	3123.15
691.49	3196.88
691.67	3207.12
691.86	3381.20
692.04	3096.53
692.23	3166.16
692.41	3321.81
692.60	3416.01
692.78	3291.09
692.97	3344.33
693.15	3381.20
693.34	3309.52
693.52	3313.61
693.71	3198.93
693.89	3160.02
694.08	2910.16
694.26	3145.68
694.44	3479.50
694.63	3319.76
694.81	3045.33
695.00	3092.43
695.18	3557.32
695.37	3770.31
695.55	3149.78
695.74	3096.53
695.92	3084.24
696.10	3499.98
696.29	3041.23
696.47	3024.85
696.66	3114.96
696.84	3149.78
697.03	3174.35
697.21	3344.33
697.40	4698.04
697.58	3559.37
697.76	3086.29
697.95	3114.96
698.13	3067.86
698.32	3102.67
698.50	3053.52
698.68	3188.69
698.87	3340.24
699.05	3520.46
699.24	3053.52
699.42	3051.47
699.61	3332.05
699.79	3270.61
699.97	3172.30
700.16	2928.60
700.34	3049.43
700.53	3278.80
700.71	3323.85
700.89	3186.64
701.08	3188.69
701.26	3260.37
701.45	3428.30
701.63	3053.52
701.81	3196.88
702.00	3108.82
702.18	3225.55
702.37	3049.43
702.55	3585.99
702.73	3354.57
702.92	3135.44
703.10	3461.07
703.28	3442.64
703.47	3035.09
703.65	3332.05
703.84	3227.60
704.02	3211.22
704.20	3559.37
704.39	3166.16
704.57	3045.33
704.75	3481.55
704.94	3389.39
705.12	3348.43
705.30	4032.45
705.49	8683.39
705.67	17155.83
705.86	23699.09
706.04	26973.80
706.22	30584.37
706.41	28909.13
706.59	21731.00
706.77	16779.01
706.96	14610.21
707.14	13223.73
707.32	11415.38
707.51	9899.88
707.69	8132.48
707.87	6696.86
708.06	5367.73
708.24	4593.59
708.42	4118.47
708.61	4231.10
708.79	3182.54
708.97	3246.03
709.16	3418.06
709.34	3297.23
709.52	3147.73
709.71	3203.02
709.89	3434.44
710.07	3194.83
710.26	2996.18
710.44	3063.76
710.62	3454.92
710.80	3258.32
710.99	3182.54
711.17	3241.93
711.35	3088.34
711.54	3131.34
711.72	3354.57
711.90	3180.50
712.09	3364.81
712.27	3153.87
712.45	3221.45
712.63	3086.29
712.82	3262.41
713.00	3264.46
713.18	3278.80
713.37	3243.98
713.55	3409.87
713.73	3389.39
713.91	3196.88
714.10	3182.54
714.28	3268.56
714.46	3344.33
714.65	3262.41
714.83	3250.13
715.01	3313.61
715.19	3225.55
715.38	3067.86
715.56	3188.69
715.74	3164.11
715.92	3088.34
716.11	3385.29
716.29	2906.07
716.47	3268.56
716.65	3256.27
716.84	2979.79
717.02	3141.58
717.20	2981.84
717.38	3151.82
717.57	3229.65
717.75	3100.62
717.93	3155.92
718.11	3448.78
718.30	2957.27
718.48	3076.05
718.66	3514.31
718.84	3524.55
719.03	3123.15
719.21	2967.51
719.39	3663.82
719.57	3317.71
719.75	3127.25
719.94	3057.62
720.12	3219.41
720.30	3272.65
720.48	3149.78
720.67	3078.10
720.85	3086.29
721.03	3207.12
721.21	3129.30
721.39	3196.88
721.58	3360.72
721.76	3321.81
721.94	3043.28
722.12	3223.50
722.30	3553.23
722.49	3172.30
722.67	3051.47
722.85	3139.54
723.03	2944.98
723.21	3080.14
723.40	3102.67
723.58	3282.89
723.76	3407.82
723.94	3538.89
724.12	3110.86
724.30	3319.76
724.49	3495.88
724.67	3094.48
724.85	3168.21
725.03	2932.69
725.21	3360.72
725.40	3555.27
725.58	3135.44
725.76	3280.85
725.94	3424.20
726.12	2992.08
726.30	3190.74
726.49	2969.55
726.67	3162.06
726.85	3512.27
727.03	3944.39
727.21	5509.04
727.39	7227.28
727.57	7847.82
727.76	8437.63
727.94	8509.31
728.12	7249.81
728.30	5963.68
728.48	5441.45
728.66	5220.27
728.84	4792.25
729.03	4169.66
729.21	3837.89
729.39	3585.99
729.57	3403.72
729.75	3377.10
729.93	3364.81
730.11	3051.47
730.30	3180.50
730.48	3213.26
730.66	3153.87
730.84	3123.15
731.02	3270.61
731.20	3147.73
731.38	3147.73
731.56	2990.03
731.74	3000.27
731.93	3370.96
732.11	3157.97
732.29	3016.66
732.47	3391.44
732.65	3346.38
732.83	3354.57
733.01	3162.06
733.19	3164.11
733.37	3385.29
733.56	3121.10
733.74	2959.31
733.92	3532.75
734.10	3198.93
734.28	3229.65
734.46	2889.68
734.64	3223.50
734.82	3184.59
735.00	3059.67
735.18	3069.91
735.36	3286.99
735.54	3301.33
735.73	3086.29
735.91	3256.27
736.09	3610.57
736.27	3385.29
736.45	3203.02
736.63	2754.52
736.81	3192.78
736.99	3444.68
737.17	3284.94
737.35	2979.79
737.53	3280.85
737.71	3237.84
737.89	3319.76
738.07	3074.00
738.25	3059.67
738.43	2967.51
738.61	3143.63
738.80	2904.02
738.98	3143.63
739.16	3143.63
739.34	2987.99
739.52	3393.48
739.70	3133.39
739.88	3409.87
740.06	3174.35
740.24	2820.05
740.42	3522.51
740.60	2889.68
740.78	2967.51
740.96	2815.96
741.14	3184.59
741.32	3276.75
741.50	2883.54
741.68	3313.61
741.86	3629.00
742.04	3016.66
742.22	3012.56
742.40	3114.96
742.58	3473.36
742.76	3174.35
742.94	3291.09
743.12	2934.74
743.30	3307.47
743.48	3399.63
743.66	3088.34
743.84	3114.96
744.02	3223.50
744.20	3223.50
744.38	2955.22
744.56	3153.87
744.74	3598.28
744.92	3426.25
745.10	3317.71
745.28	3164.11
745.46	3542.99
745.64	3196.88
745.82	3145.68
746.00	3061.71
746.18	3336.14
746.36	3082.19
746.54	3137.49
746.72	3188.69
746.90	3131.34
747.08	3532.75
747.26	3147.73
747.44	3233.74
747.62	3469.26
747.80	3291.09
747.98	3168.21
748.15	3094.48
748.33	3585.99
748.51	3268.56
748.69	3221.45
748.87	3030.99
749.05	3227.60
749.23	3229.65
749.41	3088.34
749.59	3119.06
749.77	3471.31
749.95	3135.44
750.13	3067.86
750.31	3286.99
750.49	3293.13
750.67	3508.17
750.85	3174.35
751.03	3004.37
751.20	3655.62
751.38	3307.47
751.56	3114.96
751.74	3059.67
751.92	3137.49
752.10	3086.29
752.28	3229.65
752.46	3076.05
752.64	3260.37
752.82	3364.81
753.00	3205.07
753.18	3020.75
753.35	3192.78
753.53	3217.36
753.71	3051.47
753.89	3104.72
754.07	3370.96
754.25	3520.46
754.43	3143.63
754.61	3016.66
754.79	3370.96
754.97	3123.15
755.14	3268.56
755.32	3065.81
755.50	3239.89
755.68	3334.09
755.86	3008.47
756.04	3014.61
756.22	2955.22
756.40	3426.25
756.57	3344.33
756.75	3037.14
756.93	3508.17
757.11	3397.58
757.29	2920.40
757.47	2990.03
757.65	2998.23
757.82	2910.16
758.00	3004.37
758.18	2992.08
758.36	3143.63
758.54	3545.03
758.72	2944.98
758.90	3176.40
759.07	3354.57
759.25	3125.20
759.43	3137.49
759.61	2983.89
759.79	4460.48
759.97	3528.65
760.15	3125.20
760.32	3055.57
760.50	3381.20
760.68	3573.71
760.86	2985.94
761.04	3274.70
761.22	3385.29
761.39	3336.14
761.57	3262.41
761.75	3110.86
761.93	3383.24
762.11	3192.78
762.28	3237.84
762.46	3053.52
762.64	3573.71
762.82	3139.54
763.00	3086.29
763.18	3370.96
763.35	2951.12
763.53	3344.33
763.71	3254.22
763.89	3000.27
764.07	3268.56
764.24	3129.30
764.42	3227.60
764.60	3094.48
764.78	3346.38
764.96	3387.34
765.13	3295.18
765.31	2953.17
765.49	3381.20
765.67	3039.19
765.84	3016.66
766.02	3047.38
766.20	2940.88
766.38	3272.65
766.56	3203.02
766.73	3102.67
766.91	3272.65
767.09	3270.61
767.27	3137.49
767.44	3010.51
767.62	3323.85
767.80	3252.17
767.98	3002.32
768.15	3127.25
768.33	3467.21
768.51	3364.81
768.69	3229.65
768.87	3033.04
769.04	3405.77
769.22	3798.98
769.40	3221.45
769.58	3178.45
769.75	3368.91
769.93	3522.51
770.11	3172.30
770.28	2961.36
770.46	3393.48
770.64	3340.24
770.82	3080.14
770.99	2967.51
771.17	3434.44
771.35	3133.39
771.53	3125.20
771.70	3119.06
771.88	3446.73
772.06	3129.30
772.23	3026.90
772.41	3106.77
772.59	3139.54
772.77	3170.26
772.94	3092.43
773.12	3137.49
773.30	3143.63
773.47	3297.23
773.65	3002.32
773.83	3254.22
774.01	3229.65
774.18	2822.10
774.36	3119.06
774.54	3014.61
774.71	3334.09
774.89	3004.37
775.07	2953.17
775.24	3104.72
775.42	3162.06
775.60	3592.14
775.78	3002.32
775.95	2877.40
776.13	3014.61
776.31	2977.75
776.48	3229.65
776.66	3354.57
776.84	3200.98
777.01	3074.00
777.19	2926.55
777.37	3020.75
777.54	3327.95
777.72	3631.05
777.90	3188.69
778.07	3037.14
778.25	3887.04
778.43	3516.36
778.60	3112.91
778.78	3192.78
778.96	3518.41
779.13	3053.52
779.31	3106.77
779.49	3102.67
779.66	3264.46
779.84	3235.79
780.01	3059.67
780.19	2992.08
780.37	3467.21
780.54	3475.40
780.72	2912.21
780.90	3061.71
781.07	3143.63
781.25	3133.39
781.43	3260.37
781.60	3096.53
781.78	3508.17
781.95	3282.89
782.13	3018.71
782.31	3053.52
782.48	2897.88
782.66	3198.93
782.83	3377.10
783.01	3149.78
783.19	3463.12
783.36	3182.54
783.54	2895.83
783.72	3135.44
783.89	3137.49
784.07	3278.80
784.24	3252.17
784.42	3264.46
784.60	3313.61
784.77	3327.95
784.95	2818.00
785.12	3086.29
785.30	3330.00
785.47	3020.75
785.65	2951.12
785.83	3117.01
786.00	3229.65
786.18	3243.98
786.35	3067.86
786.53	3018.71
786.71	3483.59
786.88	3370.96
787.06	3096.53
787.23	3119.06
787.41	3006.42
787.58	3221.45
787.76	2977.75
787.94	3080.14
788.11	3352.52
788.29	3086.29
788.46	3098.58
788.64	2918.36
788.81	3237.84
788.99	3063.76
789.16	3024.85
789.34	3108.82
789.52	3168.21
789.69	3139.54
789.87	2848.72
790.04	3002.32
790.22	3276.75
790.39	3743.69
790.57	2990.03
790.74	2967.51
790.92	3532.75
791.09	2938.84
791.27	3194.83
791.44	3213.26
791.62	3188.69
791.79	3377.10
791.97	3131.34
792.15	3434.44
792.32	3420.11
792.50	3424.20
792.67	3262.41
792.85	3330.00
793.02	3305.42
793.20	3170.26
793.37	2942.93
793.55	2967.51
793.72	2992.08
793.90	3407.82
794.07	3080.14
794.25	3033.04
794.42	3303.37
794.60	3256.27
794.77	3168.21
794.95	3295.18
795.12	3422.16
795.30	3205.07
795.47	2914.26
795.65	3434.44
795.82	3327.95
796.00	3125.20
796.17	3125.20
796.34	3028.95
796.52	3305.42
796.69	3461.07
796.87	3170.26
797.04	3264.46
797.22	3491.79
797.39	3289.04
797.57	3198.93
797.74	3123.15
797.92	3330.00
798.09	3151.82
798.27	3420.11
798.44	3051.47
798.62	3106.77
798.79	3250.13
798.96	3174.35
799.14	3131.34
799.31	3837.89
799.49	3207.12
799.66	3096.53
799.84	3090.38
800.01	2979.79
800.19	3352.52
800.36	2918.36
800.53	3139.54
800.71	3442.64
800.88	3588.04
801.06	2983.89
801.23	2977.75
801.41	3135.44
801.58	3200.98
801.75	3088.34
801.93	3059.67
802.10	3407.82
802.28	3209.17
802.45	3209.17
802.63	3176.40
802.80	3526.60
802.97	3188.69
803.15	3127.25
803.32	3131.34
803.50	3106.77
803.67	3127.25
803.84	2934.74
804.02	3147.73
804.19	3229.65
804.37	2895.83
804.54	2856.92
804.71	3061.71
804.89	3282.89
805.06	3102.67
805.24	3049.43
805.41	2893.78
805.58	3074.00
805.76	3749.83
805.93	3133.39
806.10	3254.22
806.28	3442.64
806.45	3332.05
806.63	3176.40
806.80	3119.06
806.97	3338.19
807.15	3235.79
807.32	3215.31
807.49	3016.66
807.67	3018.71
807.84	3313.61
808.01	2861.01
808.19	3293.13
808.36	3637.19
808.54	3217.36
808.71	3127.25
808.88	3069.91
809.06	3454.92
809.23	3573.71
809.40	3149.78
809.58	3069.91
809.75	3303.37
809.92	3057.62
810.10	3387.34
810.27	3078.10
810.44	3381.20
810.62	3436.49
810.79	3067.86
810.96	3155.92
811.14	3082.19
811.31	3395.53
811.48	3291.09
811.66	3172.30
811.83	3446.73
812.00	3344.33
812.18	3137.49
812.35	3385.29
812.52	3205.07
812.69	3182.54
812.87	3078.10
813.04	3086.29
813.21	3276.75
813.39	3086.29
813.56	3002.32
813.73	3336.14
813.91	2977.75
814.08	3280.85
814.25	3127.25
814.42	2957.27
814.60	3205.07
814.77	3256.27
814.94	3020.75
815.12	3190.74
815.29	3557.32
815.46	3131.34
815.63	3145.68
815.81	2969.55
815.98	3215.31
816.15	3256.27
816.33	3223.50
816.50	3131.34
816.67	3344.33
816.84	3221.45
817.02	2963.41
817.19	3053.52
817.36	3315.66
817.53	3383.24
817.71	3057.62
817.88	3069.91
818.05	3250.13
818.22	3213.26
818.40	3256.27
818.57	3100.62
818.74	3264.46
818.91	3237.84
819.09	3200.98
819.26	3215.31
819.43	3139.54
819.60	3143.63
819.78	3215.31
819.95	3188.69
820.12	3045.33
820.29	3504.07
820.47	3358.67
820.64	2996.18
820.81	3059.67
820.98	3174.35
821.15	3018.71
821.33	3176.40
821.50	2951.12
821.67	3385.29
821.84	3018.71
822.02	3041.23
822.19	3424.20
822.36	3143.63
822.53	2975.70
822.70	2895.83
822.88	3248.08
823.05	3540.94
823.22	3250.13
823.39	3135.44
823.56	3221.45
823.74	3682.25
823.91	2975.70
824.08	2992.08
824.25	3008.47
824.42	3536.84
824.60	2951.12
824.77	3198.93
824.94	3135.44
825.11	3327.95
825.28	2955.22
825.45	3170.26
825.63	3289.04
825.80	3125.20
825.97	3237.84
826.14	3137.49
826.31	3010.51
826.48	3426.25
826.66	3041.23
826.83	3024.85
827.00	3217.36
827.17	3102.67
827.34	3078.10
827.51	3004.37
827.69	3157.97
827.86	2967.51
828.03	3203.02
828.20	3106.77
828.37	3110.86
828.54	3299.28
828.71	2942.93
828.89	3178.45
829.06	3313.61
829.23	3483.59
829.40	3014.61
829.57	3041.23
829.74	3409.87
829.91	3188.69
830.09	2977.75
830.26	3192.78
830.43	3608.52
830.60	3254.22
830.77	3186.64
830.94	3223.50
831.11	3340.24
831.28	3139.54
831.46	3223.50
831.63	3100.62
831.80	3467.21
831.97	3084.24
832.14	3096.53
832.31	3043.28
832.48	3379.15
832.65	3475.40
832.82	3147.73
832.99	3076.05
833.17	2981.84
833.34	3553.23
833.51	3028.95
833.68	2813.91
833.85	3422.16
834.02	3114.96
834.19	2981.84
834.36	3049.43
834.53	3215.31
834.70	3403.72
834.87	3004.37
835.04	2770.90
835.22	3117.01
835.39	3221.45
835.56	2938.84
835.73	2942.93
835.90	3502.03
836.07	3074.00
836.24	3012.56
836.41	2861.01
836.58	3145.68
836.75	3504.07
836.92	2947.03
837.09	2807.77
837.26	3362.76
837.43	3426.25
837.60	3016.66
837.77	2955.22
837.94	3569.61
838.12	3467.21
838.29	2858.96
838.46	2822.10
838.63	3010.51
838.80	3618.76
838.97	2934.74
839.14	2850.77
839.31	3282.89
839.48	3344.33
839.65	2940.88
839.82	3028.95
839.99	3348.43
840.16	3270.61
840.33	2881.49
840.50	3041.23
840.67	3174.35
840.84	2799.57
841.01	2820.05
841.18	2916.31
841.35	3225.55
841.52	3401.68
841.69	3209.17
841.86	2944.98
842.03	3246.03
842.20	3461.07
842.37	2928.60
842.54	2981.84
842.71	3307.47
842.88	2969.55
843.05	2930.64
843.22	2906.07
843.39	3461.07
843.56	3082.19
843.73	2971.60
843.90	2920.40
844.07	3295.18
844.24	3364.81
844.41	2973.65
844.58	2955.22
844.75	3268.56
844.92	3262.41
845.09	2998.23
845.26	2916.31
845.43	3399.63
845.60	3203.02
845.77	3059.67
845.94	2996.18
846.10	3456.97
846.27	3004.37
846.44	2723.80
846.61	2791.38
846.78	3391.44
846.95	3364.81
847.12	2914.26
847.29	2938.84
847.46	3121.10
847.63	3428.30
847.80	2858.96
847.97	2867.16
848.14	3698.63
848.31	3203.02
848.48	2748.37
848.65	2863.06
848.82	3106.77
848.98	3823.56
849.15	2981.84
849.32	3037.14
849.49	3499.98
849.66	3272.65
849.83	2875.35
850.00	2895.83
850.17	3475.40
850.34	3135.44
850.51	2869.20
850.68	2967.51
850.85	3762.12
851.01	3346.38
851.18	2838.48
851.35	2942.93
851.52	3393.48
851.69	3590.09
851.86	2889.68
852.03	2871.25
852.20	3522.51
852.37	3221.45
852.53	2789.33
852.70	2910.16
852.87	3330.00
853.04	3411.92
853.21	2908.12
853.38	3203.02
853.55	3522.51
853.72	3495.88
853.89	2844.63
854.05	2901.97
854.22	3213.26
854.39	3061.71
854.56	2883.54
854.73	3117.01
854.90	3172.30
855.07	3248.08
855.23	2830.29
855.40	2793.43
855.57	3209.17
855.74	2787.29
855.91	3123.15
856.08	2736.09
856.25	3069.91
856.41	3110.86
856.58	2842.58
856.75	2998.23
856.92	3096.53
857.09	3475.40
857.26	2701.27
857.42	3053.52
857.59	3432.40
857.76	3258.32
857.93	2848.72
858.10	3008.47
858.27	3084.24
858.43	3336.14
858.60	3024.85
858.77	2865.11
858.94	3184.59
859.11	3520.46
859.27	2990.03
859.44	2904.02
859.61	3731.40
859.78	3338.19
859.95	2881.49
860.12	2861.01
860.28	3657.67
860.45	3721.16
860.62	2803.67
860.79	3053.52
860.95	3213.26
861.12	3174.35
861.29	2772.95
861.46	2906.07
861.63	3299.28
861.79	3338.19
861.96	2787.29
862.13	2887.64
862.30	3538.89
862.47	3184.59
862.63	2820.05
862.80	2971.60
862.97	3395.53
863.14	3401.68
863.30	2965.46
863.47	2891.73
863.64	3542.99
863.81	3254.22
863.97	2822.10
864.14	2873.30
864.31	3235.79
864.48	3303.37
864.65	2852.82
864.81	3049.43
864.98	3344.33
865.15	3426.25
865.32	3004.37
865.48	3008.47
865.65	3633.10
865.82	3133.39
865.98	2987.99
866.15	2951.12
866.32	3178.45
866.49	3190.74
866.65	3139.54
866.82	2951.12
866.99	3256.27
867.16	3133.39
867.32	2955.22
867.49	2809.81
867.66	3223.50
867.83	3145.68
867.99	2867.16
868.16	2891.73
868.33	3112.91
868.49	3190.74
868.66	2914.26
868.83	3049.43
868.99	3368.91
869.16	3313.61
869.33	3090.38
869.50	2981.84
869.66	3254.22
869.83	3149.78
870.00	2895.83
870.16	3108.82
870.33	3237.84
870.50	3430.35
870.66	2994.13
870.83	2856.92
871.00	3237.84
871.17	3452.88
871.33	3002.32
871.50	2908.12
871.67	3346.38
871.83	3059.67
872.00	2983.89
872.17	2914.26
872.33	3643.34
872.50	3467.21
872.67	2957.27
872.83	2881.49
873.00	3334.09
873.17	3317.71
873.33	2961.36
873.50	2893.78
873.67	3098.58
873.83	3117.01
874.00	2938.84
874.16	3170.26
874.33	3180.50
874.50	3043.28
874.66	2867.16
874.83	3082.19
875.00	3424.20
875.16	3510.22
875.33	2971.60
875.50	2652.12
875.66	3246.03
875.83	3295.18
875.99	2955.22
876.16	3080.14
876.33	2975.70
876.49	3217.36
876.66	2961.36
876.83	2992.08
876.99	2957.27
877.16	3209.17
877.32	2832.34
877.49	2969.55
877.66	3352.52
877.82	3592.14
877.99	2904.02
878.15	3190.74
878.32	3309.52
878.49	3231.69
878.65	2936.79
878.82	3180.50
878.98	3135.44
879.15	3516.36
879.32	3082.19
879.48	3137.49
879.65	3295.18
879.81	3315.66
879.98	2994.13
880.15	2969.55
880.31	3481.55
880.48	3002.32
880.64	3020.75
880.81	3045.33
880.97	3573.71
881.14	3483.59
881.31	2846.68
881.47	3149.78
881.64	3164.11
881.80	2947.03
881.97	3090.38
882.13	2879.44
882.30	2959.31
882.47	3157.97
882.63	2969.55
882.80	2899.92
882.96	3162.06
883.13	3506.12
883.29	2928.60
883.46	2818.00
883.62	3733.45
883.79	3250.13
883.95	3096.53
884.12	2861.01
884.29	3489.74
884.45	3270.61
884.62	2975.70
884.78	2926.55
884.95	3483.59
885.11	3074.00
885.28	3033.04
885.44	2936.79
885.61	3305.42
885.77	3491.79
885.94	3074.00
886.10	3035.09
886.27	3317.71
886.43	3551.18
886.60	3133.39
886.76	2992.08
886.93	3139.54
887.09	3346.38
887.26	2869.20
887.42	3033.04
887.59	3475.40
887.75	3686.34
887.92	3157.97
888.08	3067.86
888.25	3717.06
888.41	3426.25
888.58	3006.42
888.74	2869.20
888.91	3237.84
>>>>>End Processed Spectral Data<<<<<
