SpectraSuite Data File
++++++++++++++++++++++++++++++++++++
Date: Fri May 06 08:14:18 CEST 2016
User: root
Dark Spectrum Present: No
Reference Spectrum Present: No
Number of Sampled Component Spectra: 1
Spectrometers: USB4C02835
Integration Time (usec): 100000 (USB4C02835)
Spectra Averaged: 1 (USB4C02835)
Boxcar Smoothing: 0 (USB4C02835)
Correct for Electrical Dark: No (USB4C02835)
Strobe/Lamp Enabled: No (USB4C02835)
Correct for Detector Non-linearity: No (USB4C02835)
Correct for Stray Light: No (USB4C02835)
Number of Pixels in Processed Spectrum: 3648
>>>>>Begin Processed Spectral Data<<<<<
177.47	2271.20
177.69	2271.20
177.91	2271.20
178.13	2160.61
178.36	2301.92
178.58	3117.01
178.80	3229.65
179.02	2983.89
179.24	3057.62
179.46	2791.38
179.68	2858.96
179.90	3174.35
180.13	3286.99
180.35	2672.60
180.57	2770.90
180.79	3418.06
181.01	3239.89
181.23	2924.50
181.45	2994.13
181.67	3346.38
181.90	3444.68
182.12	2963.41
182.34	2768.85
182.56	3348.43
182.78	3268.56
183.00	2734.04
183.22	2861.01
183.44	2987.99
183.66	3835.85
183.89	3078.10
184.11	2899.92
184.33	3403.72
184.55	3516.36
184.77	2805.72
184.99	2918.36
185.21	3172.30
185.43	3776.45
185.65	2895.83
185.87	2865.11
186.10	3778.50
186.32	3786.69
186.54	3074.00
186.76	3069.91
186.98	3571.66
187.20	3276.75
187.42	2836.44
187.64	2846.68
187.86	3379.15
188.08	3444.68
188.30	2779.09
188.52	2953.17
188.75	3606.47
188.97	3512.27
189.19	2838.48
189.41	2793.43
189.63	3418.06
189.85	3209.17
190.07	2731.99
190.29	2729.94
190.51	3352.52
190.73	2949.08
190.95	3108.82
191.17	2854.87
191.39	2967.51
191.61	3241.93
191.84	2944.98
192.06	2998.23
192.28	2934.74
192.50	3905.48
192.72	3006.42
192.94	2932.69
193.16	3452.88
193.38	3438.54
193.60	2836.44
193.82	3043.28
194.04	3479.50
194.26	3352.52
194.48	2916.31
194.70	2883.54
194.92	3246.03
195.14	3459.02
195.36	2824.15
195.58	2992.08
195.80	3225.55
196.02	3061.71
196.24	2820.05
196.46	2932.69
196.69	3045.33
196.91	3749.83
197.13	2959.31
197.35	2920.40
197.57	3614.66
197.79	3325.90
198.01	2977.75
198.23	2861.01
198.45	3426.25
198.67	3053.52
198.89	2746.33
199.11	3012.56
199.33	3151.82
199.55	2895.83
199.77	2830.29
199.99	3059.67
200.21	3166.16
200.43	3463.12
200.65	2793.43
200.87	2748.37
201.09	3317.71
201.31	3162.06
201.53	2951.12
201.75	2910.16
201.97	3401.68
202.19	3194.83
202.41	2955.22
202.63	2953.17
202.85	3385.29
203.07	3395.53
203.29	2940.88
203.51	2789.33
203.73	3108.82
203.95	3872.71
204.17	2818.00
204.39	3043.28
204.61	3332.05
204.83	3200.98
205.05	3028.95
205.27	2854.87
205.49	3700.68
205.71	3297.23
205.93	2744.28
206.15	2789.33
206.37	3330.00
206.59	3237.84
206.81	2703.32
207.03	2768.85
207.25	3194.83
207.47	3422.16
207.69	2822.10
207.91	3119.06
208.13	3559.37
208.34	3184.59
208.56	2811.86
208.78	2881.49
209.00	3174.35
209.22	3278.80
209.44	2885.59
209.66	2803.67
209.88	3362.76
210.10	3246.03
210.32	2836.44
210.54	2983.89
210.76	3246.03
210.98	3542.99
211.20	2754.52
211.42	3016.66
211.64	3526.60
211.86	3385.29
212.08	2940.88
212.30	2856.92
212.52	3157.97
212.74	3319.76
212.96	2959.31
213.17	2908.12
213.39	3473.36
213.61	3665.86
213.83	2951.12
214.05	2781.14
214.27	3481.55
214.49	3086.29
214.71	2861.01
214.93	3006.42
215.15	3289.04
215.37	3547.08
215.59	2738.13
215.81	2985.94
216.03	3616.71
216.24	3270.61
216.46	2850.77
216.68	2901.97
216.90	3401.68
217.12	3383.24
217.34	2889.68
217.56	3014.61
217.78	3588.04
218.00	3389.39
218.22	3008.47
218.44	2985.94
218.66	3295.18
218.87	3622.86
219.09	2887.64
219.31	2861.01
219.53	3385.29
219.75	3262.41
219.97	2932.69
220.19	2947.03
220.41	3239.89
220.63	3545.03
220.85	2928.60
221.06	2953.17
221.28	3530.70
221.50	3461.07
221.72	2797.53
221.94	2762.71
222.16	3354.57
222.38	3430.35
222.60	2895.83
222.82	2981.84
223.03	3459.02
223.25	3084.24
223.47	2832.34
223.69	3086.29
223.91	3485.64
224.13	3248.08
224.35	2748.37
224.57	3098.58
224.78	3481.55
225.00	3162.06
225.22	2971.60
225.44	2764.76
225.66	3444.68
225.88	3289.04
226.10	3033.04
226.32	2908.12
226.53	3651.53
226.75	3119.06
226.97	2914.26
227.19	2910.16
227.41	3108.82
227.63	3225.55
227.85	2707.41
228.06	2930.64
228.28	3313.61
228.50	3581.90
228.72	2738.13
228.94	2869.20
229.16	2926.55
229.37	3092.43
229.59	2734.04
229.81	3108.82
230.03	3192.78
230.25	3041.23
230.47	2734.04
230.69	2807.77
230.90	3557.32
231.12	3090.38
231.34	2914.26
231.56	2897.88
231.78	3065.81
232.00	3297.23
232.21	2861.01
232.43	2901.97
232.65	2861.01
232.87	3338.19
233.09	2725.85
233.30	2811.86
233.52	3639.24
233.74	3239.89
233.96	2779.09
234.18	3065.81
234.40	3272.65
234.61	3760.07
234.83	2777.05
235.05	2826.20
235.27	3844.04
235.49	3606.47
235.70	2731.99
235.92	2863.06
236.14	3426.25
236.36	3788.74
236.58	2777.05
236.79	2994.13
237.01	3256.27
237.23	3237.84
237.45	3164.11
237.67	3022.80
237.88	3289.04
238.10	3631.05
238.32	2803.67
238.54	2813.91
238.76	3282.89
238.97	3125.20
239.19	2838.48
239.41	2881.49
239.63	3518.41
239.85	3221.45
240.06	2852.82
240.28	2826.20
240.50	3528.65
240.72	3258.32
240.93	2754.52
241.15	3106.77
241.37	3278.80
241.59	3491.79
241.81	2830.29
242.02	3041.23
242.24	3323.85
242.46	3434.44
242.68	2664.41
242.89	2795.48
243.11	3467.21
243.33	3327.95
243.55	2867.16
243.76	2840.53
243.98	3139.54
244.20	3321.81
244.42	2846.68
244.64	2822.10
244.85	2987.99
245.07	2996.18
245.29	2807.77
245.51	2885.59
245.72	3346.38
245.94	3448.78
246.16	2793.43
246.38	2922.45
246.59	3194.83
246.81	3119.06
247.03	2813.91
247.24	2721.75
247.46	3182.54
247.68	3344.33
247.90	2740.18
248.11	2799.57
248.33	3471.31
248.55	3330.00
248.77	2959.31
248.98	2955.22
249.20	3561.42
249.42	3325.90
249.64	2883.54
249.85	2838.48
250.07	3207.12
250.29	3391.44
250.50	2947.03
250.72	2836.44
250.94	3405.77
251.16	3665.86
251.37	2783.19
251.59	2926.55
251.81	3407.82
252.02	3567.56
252.24	2729.94
252.46	3051.47
252.68	3168.21
252.89	3131.34
253.11	2686.94
253.33	3039.19
253.54	3661.77
253.76	3086.29
253.98	2881.49
254.20	2820.05
254.41	2965.46
254.63	3239.89
254.85	2783.19
255.06	3022.80
255.28	3332.05
255.50	3164.11
255.71	2815.96
255.93	2719.70
256.15	3338.19
256.36	3370.96
256.58	2754.52
256.80	2738.13
257.02	3278.80
257.23	3219.41
257.45	2918.36
257.67	2975.70
257.88	3196.88
258.10	3354.57
258.32	2891.73
258.53	2949.08
258.75	3606.47
258.97	3209.17
259.18	2813.91
259.40	2781.14
259.62	3596.23
259.83	3581.90
260.05	2904.02
260.27	3819.46
260.48	3506.12
260.70	3051.47
260.92	2779.09
261.13	2901.97
261.35	3297.23
261.57	3315.66
261.78	2811.86
262.00	2807.77
262.22	3499.98
262.43	3037.14
262.65	2856.92
262.86	2887.64
263.08	3760.07
263.30	3262.41
263.51	2754.52
263.73	2822.10
263.95	3651.53
264.16	3020.75
264.38	2736.09
264.60	2881.49
264.81	3231.69
265.03	3532.75
265.25	3250.13
265.46	2836.44
265.68	3602.38
265.89	3364.81
266.11	2770.90
266.33	2889.68
266.54	3565.51
266.76	3344.33
266.98	2922.45
267.19	2992.08
267.41	3516.36
267.62	3192.78
267.84	2756.57
268.06	3000.27
268.27	3334.09
268.49	3499.98
268.70	2889.68
268.92	2930.64
269.14	3065.81
269.35	2951.12
269.57	2985.94
269.79	2942.93
270.00	3110.86
270.22	3594.19
270.43	2746.33
270.65	2785.24
270.87	3286.99
271.08	3483.59
271.30	2869.20
271.51	2885.59
271.73	3366.86
271.95	3614.66
272.16	2791.38
272.38	3024.85
272.59	3286.99
272.81	3467.21
273.02	2836.44
273.24	2877.40
273.46	3487.69
273.67	3067.86
273.89	2811.86
274.10	2885.59
274.32	3428.30
274.54	3317.71
274.75	2977.75
274.97	3065.81
275.18	3426.25
275.40	3428.30
275.61	2887.64
275.83	3043.28
276.05	2987.99
276.26	3278.80
276.48	2914.26
276.69	2942.93
276.91	3176.40
277.12	3540.94
277.34	2996.18
277.55	3112.91
277.77	3164.11
277.99	3147.73
278.20	3041.23
278.42	2881.49
278.63	3131.34
278.85	3121.10
279.06	2850.77
279.28	3041.23
279.49	3479.50
279.71	3409.87
279.93	3028.95
280.14	3030.99
280.36	3188.69
280.57	3446.73
280.79	3053.52
281.00	2873.30
281.22	3211.22
281.43	3549.13
281.65	2824.15
281.86	2879.44
282.08	3338.19
282.29	3678.15
282.51	2844.63
282.73	2875.35
282.94	2947.03
283.16	3450.83
283.37	3074.00
283.59	3049.43
283.80	3397.58
284.02	3274.70
284.23	3020.75
284.45	2996.18
284.66	3092.43
284.88	3112.91
285.09	2871.25
285.31	3065.81
285.52	3360.72
285.74	2897.88
285.95	3178.45
286.17	3088.34
286.38	3551.18
286.60	3178.45
286.81	2975.70
287.03	2977.75
287.24	3311.57
287.46	3403.72
287.67	3090.38
287.89	3246.03
288.10	3286.99
288.32	3303.37
288.53	3135.44
288.75	3057.62
288.96	3416.01
289.18	3110.86
289.39	2934.74
289.61	3053.52
289.82	3741.64
290.04	3708.87
290.25	2879.44
290.47	3090.38
290.68	3205.07
290.90	3440.59
291.11	2758.61
291.33	3221.45
291.54	3104.72
291.76	3198.93
291.97	3143.63
292.18	3026.90
292.40	3098.58
292.61	3094.48
292.83	3299.28
293.04	2987.99
293.26	3366.86
293.47	3217.36
293.69	2918.36
293.90	2959.31
294.12	3608.52
294.33	3258.32
294.55	3045.33
294.76	3192.78
294.97	3567.56
295.19	3749.83
295.40	2953.17
295.62	3100.62
295.83	3485.64
296.05	3131.34
296.26	3278.80
296.48	2953.17
296.69	3221.45
296.90	3315.66
297.12	3190.74
297.33	3192.78
297.55	3256.27
297.76	3315.66
297.98	3094.48
298.19	3190.74
298.41	3280.85
298.62	3090.38
298.83	3139.54
299.05	3117.01
299.26	3092.43
299.48	3125.20
299.69	3090.38
299.90	3014.61
300.12	3080.14
300.33	3450.83
300.55	3057.62
300.76	3094.48
300.98	3090.38
301.19	3465.16
301.40	3002.32
301.62	3002.32
301.83	3379.15
302.05	3264.46
302.26	3000.27
302.47	3067.86
302.69	3069.91
302.90	3155.92
303.12	2873.30
303.33	3176.40
303.54	3684.30
303.76	3237.84
303.97	2942.93
304.19	3182.54
304.40	3037.14
304.61	3325.90
304.83	3112.91
305.04	3055.57
305.26	3360.72
305.47	3143.63
305.68	3018.71
305.90	2869.20
306.11	3569.61
306.33	3200.98
306.54	2863.06
306.75	2961.36
306.97	3065.81
307.18	3084.24
307.39	3008.47
307.61	3110.86
307.82	3147.73
308.04	3256.27
308.25	2914.26
308.46	3178.45
308.68	3274.70
308.89	3207.12
309.10	3078.10
309.32	2979.79
309.53	3223.50
309.74	3420.11
309.96	2930.64
310.17	3125.20
310.39	3162.06
310.60	3413.96
310.81	3063.76
311.03	2901.97
311.24	3438.54
311.45	3321.81
311.67	3262.41
311.88	3164.11
312.09	3151.82
312.31	3141.58
312.52	2926.55
312.73	2920.40
312.95	3049.43
313.16	3119.06
313.37	3145.68
313.59	3215.31
313.80	3446.73
314.01	3565.51
314.23	2975.70
314.44	2910.16
314.65	2994.13
314.87	3117.01
315.08	2951.12
315.29	2994.13
315.51	3110.86
315.72	2930.64
315.93	3055.57
316.15	3016.66
316.36	3231.69
316.57	3377.10
316.79	3039.19
317.00	2942.93
317.21	3426.25
317.43	3168.21
317.64	3004.37
317.85	3020.75
318.07	3090.38
318.28	3176.40
318.49	3110.86
318.70	3213.26
318.92	3299.28
319.13	3366.86
319.34	3174.35
319.56	3041.23
319.77	3313.61
319.98	3426.25
320.20	3262.41
320.41	3248.08
320.62	3381.20
320.83	3147.73
321.05	3227.60
321.26	2971.60
321.47	3268.56
321.69	3510.22
321.90	2955.22
322.11	2885.59
322.32	3334.09
322.54	3633.10
322.75	3057.62
322.96	4143.04
323.18	3020.75
323.39	2893.78
323.60	2879.44
323.81	3078.10
324.03	3258.32
324.24	3227.60
324.45	3160.02
324.66	2996.18
324.88	3452.88
325.09	3651.53
325.30	2990.03
325.52	2934.74
325.73	3364.81
325.94	3057.62
326.15	2881.49
326.37	2820.05
326.58	3393.48
326.79	3571.66
327.00	2971.60
327.22	2977.75
327.43	3336.14
327.64	3008.47
327.85	3082.19
328.07	2996.18
328.28	3723.21
328.49	3117.01
328.70	2971.60
328.92	2912.21
329.13	3184.59
329.34	3340.24
329.55	3198.93
329.76	3123.15
329.98	3172.30
330.19	3516.36
330.40	3119.06
330.61	3166.16
330.83	3418.06
331.04	3020.75
331.25	3094.48
331.46	3035.09
331.68	3008.47
331.89	3518.41
332.10	2973.65
332.31	2820.05
332.52	3274.70
332.74	3485.64
332.95	2834.39
333.16	3037.14
333.37	3397.58
333.58	3186.64
333.80	3041.23
334.01	2840.53
334.22	3233.74
334.43	3198.93
334.64	3016.66
334.86	2938.84
335.07	3102.67
335.28	3631.05
335.49	2883.54
335.70	3080.14
335.92	3436.49
336.13	3803.08
336.34	3065.81
336.55	2969.55
336.76	3366.86
336.98	2904.02
337.19	3037.14
337.40	2985.94
337.61	3712.97
337.82	3180.50
338.04	3080.14
338.25	2904.02
338.46	3235.79
338.67	3354.57
338.88	2891.73
339.09	2854.87
339.31	3227.60
339.52	3024.85
339.73	2963.41
339.94	3012.56
340.15	3491.79
340.36	3223.50
340.58	3076.05
340.79	2957.27
341.00	3426.25
341.21	3059.67
341.42	3258.32
341.63	2951.12
341.85	3430.35
342.06	3360.72
342.27	3018.71
342.48	3205.07
342.69	3059.67
342.90	3319.76
343.12	3278.80
343.33	2961.36
343.54	3467.21
343.75	3526.60
343.96	3082.19
344.17	2867.16
344.38	3241.93
344.60	3086.29
344.81	2904.02
345.02	2961.36
345.23	3534.79
345.44	3786.69
345.65	3051.47
345.86	3030.99
346.07	3274.70
346.29	3155.92
346.50	3194.83
346.71	3057.62
346.92	3489.74
347.13	3719.11
347.34	3074.00
347.55	2871.25
347.76	3383.24
347.98	3026.90
348.19	3026.90
348.40	3229.65
348.61	3192.78
348.82	3672.01
349.03	3006.42
349.24	2887.64
349.45	3667.91
349.66	2863.06
349.88	2998.23
350.09	2904.02
350.30	3532.75
350.51	3518.41
350.72	3217.36
350.93	2998.23
351.14	3129.30
351.35	3356.62
351.56	2992.08
351.77	3127.25
351.99	3311.57
352.20	3526.60
352.41	3178.45
352.62	2783.19
352.83	3270.61
353.04	3323.85
353.25	3033.04
353.46	2955.22
353.67	3477.45
353.88	2965.46
354.09	2934.74
354.30	3051.47
354.52	3483.59
354.73	3254.22
354.94	2944.98
355.15	3067.86
355.36	3661.77
355.57	3143.63
355.78	2965.46
355.99	2985.94
356.20	3221.45
356.41	3553.23
356.62	3125.20
356.83	3026.90
357.04	3473.36
357.25	2967.51
357.46	2983.89
357.68	2893.78
357.89	3012.56
358.10	3291.09
358.31	2906.07
358.52	3078.10
358.73	3100.62
358.94	3041.23
359.15	2965.46
359.36	2985.94
359.57	3303.37
359.78	3254.22
359.99	3166.16
360.20	2871.25
360.41	3229.65
360.62	3411.92
360.83	3112.91
361.04	3045.33
361.25	3356.62
361.46	3594.19
361.67	3100.62
361.88	3014.61
362.09	3542.99
362.30	3319.76
362.51	2955.22
362.72	3049.43
362.93	3475.40
363.14	3317.71
363.35	3123.15
363.56	2979.79
363.78	3563.47
363.99	3471.31
364.20	2942.93
364.41	3051.47
364.62	3700.68
364.83	3383.24
365.04	3020.75
365.25	3069.91
365.46	3598.28
365.67	3127.25
365.88	3184.59
366.09	2985.94
366.30	3239.89
366.51	3370.96
366.72	2901.97
366.93	2961.36
367.14	3295.18
367.35	3522.51
367.56	2975.70
367.77	3094.48
367.98	3338.19
368.18	3327.95
368.39	3160.02
368.60	2975.70
368.81	3487.69
369.02	3420.11
369.23	3094.48
369.44	2789.33
369.65	3219.41
369.86	3387.34
370.07	3061.71
370.28	2883.54
370.49	3344.33
370.70	3280.85
370.91	2930.64
371.12	2930.64
371.33	3545.03
371.54	3143.63
371.75	3176.40
371.96	2764.76
372.17	3237.84
372.38	3272.65
372.59	2932.69
372.80	2942.93
373.01	3239.89
373.22	3274.70
373.43	2957.27
373.64	2879.44
373.85	3622.86
374.06	3547.08
374.26	3203.02
374.47	3106.77
374.68	3639.24
374.89	3321.81
375.10	2906.07
375.31	3131.34
375.52	3286.99
375.73	3250.13
375.94	2918.36
376.15	3067.86
376.36	3133.39
376.57	3178.45
376.78	3071.95
376.99	2994.13
377.20	3598.28
377.40	3180.50
377.61	3313.61
377.82	2981.84
378.03	3606.47
378.24	3426.25
378.45	3082.19
378.66	3098.58
378.87	2908.12
379.08	3041.23
379.29	3026.90
379.50	3110.86
379.71	3278.80
379.91	3434.44
380.12	2973.65
380.33	3078.10
380.54	3373.00
380.75	3342.28
380.96	2979.79
381.17	3074.00
381.38	3221.45
381.59	3262.41
381.80	3080.14
382.00	3231.69
382.21	3332.05
382.42	3549.13
382.63	3375.05
382.84	3168.21
383.05	3436.49
383.26	3549.13
383.47	3178.45
383.68	3000.27
383.88	3426.25
384.09	3254.22
384.30	3280.85
384.51	3172.30
384.72	3260.37
384.93	3004.37
385.14	3106.77
385.35	3297.23
385.55	2961.36
385.76	3590.09
385.97	3100.62
386.18	2846.68
386.39	3106.77
386.60	3121.10
386.81	3012.56
387.02	2979.79
387.22	3078.10
387.43	3360.72
387.64	3114.96
387.85	3188.69
388.06	3303.37
388.27	4292.54
388.48	7700.36
388.68	11990.86
388.89	15050.52
389.10	16428.81
389.31	16119.56
389.52	12975.93
389.73	11329.36
389.93	10332.00
390.14	9256.82
390.35	8490.88
390.56	7749.51
390.77	6623.13
390.98	4956.08
391.18	4100.03
391.39	3952.58
391.60	3383.24
391.81	3278.80
392.02	3082.19
392.23	3809.22
392.43	3270.61
392.64	3139.54
392.85	3139.54
393.06	3655.62
393.27	3266.51
393.47	2961.36
393.68	3067.86
393.89	3147.73
394.10	3508.17
394.31	2944.98
394.52	2973.65
394.72	3080.14
394.93	3506.12
395.14	2912.21
395.35	3094.48
395.56	3215.31
395.76	3264.46
395.97	3002.32
396.18	3162.06
396.39	3352.52
396.60	3979.20
396.80	3411.92
397.01	3297.23
397.22	3495.88
397.43	3512.27
397.64	2990.03
397.84	3147.73
398.05	3635.14
398.26	3221.45
398.47	3026.90
398.67	3321.81
398.88	3282.89
399.09	3485.64
399.30	2985.94
399.51	3057.62
399.71	3112.91
399.92	3209.17
400.13	3164.11
400.34	3059.67
400.54	3334.09
400.75	3590.09
400.96	3203.02
401.17	3346.38
401.37	3430.35
401.58	3305.42
401.79	3014.61
402.00	3155.92
402.21	3725.26
402.41	3452.88
402.62	3340.24
402.83	3510.22
403.04	3717.06
403.24	4016.07
403.45	3162.06
403.66	3405.77
403.87	3618.76
404.07	3739.59
404.28	3332.05
404.49	3354.57
404.70	3397.58
404.90	3508.17
405.11	3123.15
405.32	3196.88
405.52	3155.92
405.73	3172.30
405.94	2889.68
406.15	3088.34
406.35	3461.07
406.56	3493.83
406.77	3125.20
406.98	3035.09
407.18	3219.41
407.39	3487.69
407.60	3133.39
407.80	3074.00
408.01	3186.64
408.22	3442.64
408.43	2947.03
408.63	3155.92
408.84	3444.68
409.05	3411.92
409.25	2854.87
409.46	3047.38
409.67	3164.11
409.88	3164.11
410.08	3047.38
410.29	2990.03
410.50	3469.26
410.70	3416.01
410.91	2983.89
411.12	3186.64
411.32	3299.28
411.53	3059.67
411.74	3074.00
411.95	3098.58
412.15	3373.00
412.36	3450.83
412.57	3178.45
412.77	3235.79
412.98	3264.46
413.19	3239.89
413.39	3117.01
413.60	3164.11
413.81	3551.18
414.01	3041.23
414.22	3131.34
414.43	3340.24
414.63	3172.30
414.84	3422.16
415.05	3094.48
415.25	2906.07
415.46	3405.77
415.67	3162.06
415.87	3096.53
416.08	3014.61
416.29	3276.75
416.49	3430.35
416.70	3071.95
416.91	3076.05
417.11	3192.78
417.32	3489.74
417.53	3141.58
417.73	3188.69
417.94	3241.93
418.15	3391.44
418.35	3135.44
418.56	3078.10
418.77	3723.21
418.97	3428.30
419.18	3157.97
419.38	2760.66
419.59	3157.97
419.80	3530.70
420.00	2893.78
420.21	3043.28
420.42	3577.80
420.62	3397.58
420.83	2961.36
421.04	2996.18
421.24	3305.42
421.45	3452.88
421.65	3049.43
421.86	3102.67
422.07	3442.64
422.27	3413.96
422.48	2967.51
422.69	2928.60
422.89	3321.81
423.10	3270.61
423.30	2996.18
423.51	3114.96
423.72	3346.38
423.92	3465.16
424.13	2932.69
424.33	3098.58
424.54	3489.74
424.75	3323.85
424.95	3272.65
425.16	2975.70
425.36	3270.61
425.57	3454.92
425.78	3207.12
425.98	3114.96
426.19	3307.47
426.39	3098.58
426.60	3147.73
426.81	3188.69
427.01	3332.05
427.22	3123.15
427.42	2908.12
427.63	2918.36
427.83	3536.84
428.04	3583.95
428.25	3112.91
428.45	3151.82
428.66	3495.88
428.86	3248.08
429.07	3057.62
429.28	2983.89
429.48	3137.49
429.69	3063.76
429.89	3162.06
430.10	2938.84
430.30	3377.10
430.51	3571.66
430.71	3018.71
430.92	3088.34
431.13	3182.54
431.33	3395.53
431.54	3143.63
431.74	3278.80
431.95	3727.30
432.15	3114.96
432.36	3008.47
432.56	3155.92
432.77	3704.78
432.98	3743.69
433.18	3106.77
433.39	2889.68
433.59	3233.74
433.80	3708.87
434.00	3225.55
434.21	3125.20
434.41	3164.11
434.62	3839.94
434.82	2887.64
435.03	3012.56
435.23	3301.33
435.44	2932.69
435.64	2936.79
435.85	3141.58
436.06	3399.63
436.26	3522.51
436.47	3004.37
436.67	2994.13
436.88	3164.11
437.08	3565.51
437.29	3219.41
437.49	3229.65
437.70	3483.59
437.90	3286.99
438.11	3239.89
438.31	3164.11
438.52	3559.37
438.72	3538.89
438.93	3295.18
439.13	3166.16
439.34	3481.55
439.54	3256.27
439.75	3160.02
439.95	3143.63
440.16	3123.15
440.36	3330.00
440.57	2971.60
440.77	3192.78
440.98	3250.13
441.18	3401.68
441.39	2934.74
441.59	2963.41
441.80	3762.12
442.00	3270.61
442.21	3121.10
442.41	2961.36
442.62	3428.30
442.82	3135.44
443.02	3094.48
443.23	3086.29
443.43	3221.45
443.64	3536.84
443.84	2922.45
444.05	3117.01
444.25	3346.38
444.46	3176.40
444.66	3002.32
444.87	3340.24
445.07	2963.41
445.28	3221.45
445.48	3250.13
445.69	3160.02
445.89	3844.04
446.09	3225.55
446.30	3385.29
446.50	3504.07
446.71	4986.80
446.91	6260.64
447.12	7135.12
447.32	7538.57
447.53	7661.45
447.73	6508.44
447.93	5531.56
448.14	5273.52
448.34	5412.78
448.55	4544.44
448.75	4323.26
448.96	4171.71
449.16	4020.16
449.36	3790.79
449.57	3356.62
449.77	3106.77
449.98	3145.68
450.18	3405.77
450.39	2994.13
450.59	3235.79
450.79	3270.61
451.00	3084.24
451.20	3307.47
451.41	3035.09
451.61	3366.86
451.81	3258.32
452.02	2983.89
452.22	3071.95
452.43	3227.60
452.63	3125.20
452.84	3125.20
453.04	2934.74
453.24	3336.14
453.45	3135.44
453.65	3164.11
453.86	3053.52
454.06	3305.42
454.26	3295.18
454.47	2990.03
454.67	3213.26
454.87	3336.14
455.08	3215.31
455.28	3170.26
455.49	3254.22
455.69	3160.02
455.89	3755.97
456.10	3174.35
456.30	3006.42
456.51	3432.40
456.71	3387.34
456.91	3194.83
457.12	3069.91
457.32	3344.33
457.52	3051.47
457.73	3274.70
457.93	3252.17
458.14	3180.50
458.34	2934.74
458.54	3102.67
458.75	3035.09
458.95	3463.12
459.15	3399.63
459.36	3135.44
459.56	3055.57
459.76	3745.73
459.97	3354.57
460.17	3065.81
460.37	3160.02
460.58	3219.41
460.78	3420.11
460.99	3106.77
461.19	3018.71
461.39	3188.69
461.60	3114.96
461.80	3053.52
462.00	2936.79
462.21	3280.85
462.41	3014.61
462.61	2957.27
462.82	2893.78
463.02	3397.58
463.22	3311.57
463.43	3133.39
463.63	2957.27
463.83	3532.75
464.04	3358.67
464.24	3051.47
464.44	3057.62
464.64	3237.84
464.85	3409.87
465.05	3059.67
465.25	2971.60
465.46	3205.07
465.66	3368.91
465.86	3145.68
466.07	2981.84
466.27	3207.12
466.47	3002.32
466.68	2861.01
466.88	3235.79
467.08	3418.06
467.29	3381.20
467.49	3125.20
467.69	3270.61
467.89	3395.53
468.10	3229.65
468.30	3114.96
468.50	3196.88
468.71	3475.40
468.91	2963.41
469.11	3250.13
469.31	3129.30
469.52	3137.49
469.72	3657.67
469.92	3332.05
470.13	3067.86
470.33	3332.05
470.53	3307.47
470.73	3463.12
470.94	3938.24
471.14	4057.03
471.34	4714.42
471.54	4335.55
471.75	4032.45
471.95	3792.84
472.15	3753.93
472.36	3731.40
472.56	3596.23
472.76	3870.66
472.96	3649.48
473.17	3411.92
473.37	3270.61
473.57	3246.03
473.77	3368.91
473.98	3192.78
474.18	3035.09
474.38	3885.00
474.58	3164.11
474.79	2992.08
474.99	3254.22
475.19	3475.40
475.39	3168.21
475.60	3078.10
475.80	3016.66
476.00	3381.20
476.20	3237.84
476.41	3061.71
476.61	3117.01
476.81	3620.81
477.01	3127.25
477.21	3377.10
477.42	3155.92
477.62	3172.30
477.82	3467.21
478.02	3028.95
478.23	3051.47
478.43	3149.78
478.63	3274.70
478.83	3121.10
479.03	3162.06
479.24	3491.79
479.44	3669.96
479.64	3063.76
479.84	2832.34
480.04	3219.41
480.25	3479.50
480.45	2985.94
480.65	2975.70
480.85	3604.42
481.06	3229.65
481.26	3119.06
481.46	3092.43
481.66	3336.14
481.86	3205.07
482.06	3166.16
482.27	3112.91
482.47	3209.17
482.67	3334.09
482.87	3030.99
483.07	3108.82
483.28	3282.89
483.48	3063.76
483.68	3039.19
483.88	2944.98
484.08	2836.44
484.29	2994.13
484.49	3149.78
484.69	2856.92
484.89	3620.81
485.09	3512.27
485.29	3057.62
485.50	3248.08
485.70	3104.72
485.90	3493.83
486.10	3176.40
486.30	3014.61
486.50	3596.23
486.71	3332.05
486.91	3096.53
487.11	3100.62
487.31	3030.99
487.51	3381.20
487.71	3000.27
487.91	3012.56
488.12	3104.72
488.32	2848.72
488.52	3022.80
488.72	2752.47
488.92	3297.23
489.12	3475.40
489.32	3262.41
489.53	3098.58
489.73	3051.47
489.93	3661.77
490.13	3090.38
490.33	2926.55
490.53	3340.24
490.73	3499.98
490.94	2910.16
491.14	3137.49
491.34	3526.60
491.54	3520.46
491.74	3991.49
491.94	4444.09
492.14	5126.07
492.34	5181.36
492.54	4736.95
492.75	4136.90
492.95	4329.41
493.15	3921.86
493.35	3850.18
493.55	3727.30
493.75	3772.36
493.95	3878.85
494.15	3356.62
494.35	3229.65
494.56	3252.17
494.76	3194.83
494.96	3196.88
495.16	2955.22
495.36	3344.33
495.56	3346.38
495.76	3008.47
495.96	3053.52
496.16	3145.68
496.36	3674.06
496.56	3018.71
496.77	3170.26
496.97	3323.85
497.17	3561.42
497.37	2873.30
497.57	3239.89
497.77	3348.43
497.97	3106.77
498.17	3135.44
498.37	3074.00
498.57	3418.06
498.77	3223.50
498.97	3270.61
499.17	3434.44
499.38	3268.56
499.58	3358.67
499.78	3151.82
499.98	3186.64
500.18	3147.73
500.38	3100.62
500.58	3241.93
500.78	3639.24
500.98	5994.40
501.18	8134.53
501.38	9799.53
501.58	10835.80
501.78	10729.31
501.98	9086.84
502.18	7470.99
502.38	6387.61
502.58	6485.92
502.78	5619.63
502.98	5408.69
503.18	5300.14
503.38	4888.50
503.59	4235.20
503.79	4011.97
503.99	3688.39
504.19	3876.80
504.39	3876.80
504.59	3747.78
504.79	3618.76
504.99	3917.76
505.19	3549.13
505.39	3338.19
505.59	3487.69
505.79	3760.07
505.99	3446.73
506.19	3129.30
506.39	3338.19
506.59	3262.41
506.79	3289.04
506.99	3205.07
507.19	3049.43
507.39	3350.48
507.59	3028.95
507.79	3024.85
507.99	3049.43
508.19	3258.32
508.39	3196.88
508.59	3078.10
508.79	3096.53
508.99	3721.16
509.19	3082.19
509.39	3100.62
509.59	2994.13
509.79	3196.88
509.99	3332.05
510.19	3229.65
510.39	3215.31
510.59	3309.52
510.79	3213.26
510.99	2856.92
511.19	2996.18
511.39	3712.97
511.59	3502.03
511.79	3166.16
511.99	3057.62
512.19	3616.71
512.38	3293.13
512.58	3002.32
512.78	3002.32
512.98	3510.22
513.18	3565.51
513.38	3024.85
513.58	3100.62
513.78	3264.46
513.98	3272.65
514.18	3082.19
514.38	3074.00
514.58	3319.76
514.78	3123.15
514.98	2889.68
515.18	3076.05
515.38	3024.85
515.58	3655.62
515.78	3069.91
515.98	3098.58
516.18	3373.00
516.38	3231.69
516.57	3045.33
516.77	3018.71
516.97	3393.48
517.17	3117.01
517.37	2811.86
517.57	3135.44
517.77	3332.05
517.97	3192.78
518.17	3200.98
518.37	2924.50
518.57	3160.02
518.77	3188.69
518.97	3094.48
519.16	3129.30
519.36	3561.42
519.56	3117.01
519.76	2906.07
519.96	3076.05
520.16	3573.71
520.36	3026.90
520.56	3278.80
520.76	2983.89
520.96	3233.74
521.16	3483.59
521.35	3336.14
521.55	3117.01
521.75	3235.79
521.95	3178.45
522.15	2947.03
522.35	2963.41
522.55	3139.54
522.75	3401.68
522.95	2983.89
523.14	2858.96
523.34	3268.56
523.54	3123.15
523.74	3119.06
523.94	3127.25
524.14	2934.74
524.34	3413.96
524.54	3227.60
524.73	3030.99
524.93	3473.36
525.13	3315.66
525.33	2932.69
525.53	3305.42
525.73	3526.60
525.93	3354.57
526.13	3022.80
526.32	2975.70
526.52	3504.07
526.72	3469.26
526.92	3055.57
527.12	2928.60
527.32	3024.85
527.52	3252.17
527.71	3114.96
527.91	3143.63
528.11	3205.07
528.31	3338.19
528.51	3047.38
528.71	3188.69
528.90	3467.21
529.10	3459.02
529.30	3127.25
529.50	2813.91
529.70	3319.76
529.90	3246.03
530.09	3131.34
530.29	2942.93
530.49	3213.26
530.69	3870.66
530.89	3172.30
531.09	3196.88
531.28	3266.51
531.48	3516.36
531.68	3076.05
531.88	3088.34
532.08	3413.96
532.28	3254.22
532.47	3143.63
532.67	3080.14
532.87	3397.58
533.07	3059.67
533.27	3172.30
533.46	3114.96
533.66	3327.95
533.86	3252.17
534.06	3155.92
534.26	3020.75
534.45	3223.50
534.65	3479.50
534.85	3143.63
535.05	3037.14
535.25	3502.03
535.44	2998.23
535.64	3184.59
535.84	3117.01
536.04	3205.07
536.24	3252.17
536.43	2977.75
536.63	3030.99
536.83	3319.76
537.03	3231.69
537.22	2883.54
537.42	2854.87
537.62	3243.98
537.82	3112.91
538.02	3229.65
538.21	3141.58
538.41	3866.56
538.61	3385.29
538.81	3217.36
539.00	3286.99
539.20	3026.90
539.40	3133.39
539.60	3004.37
539.79	3270.61
539.99	3311.57
540.19	3100.62
540.39	2985.94
540.58	3071.95
540.78	3393.48
540.98	3305.42
541.18	3291.09
541.37	3076.05
541.57	3239.89
541.77	3282.89
541.97	2926.55
542.16	2883.54
542.36	3258.32
542.56	3131.34
542.76	3321.81
542.95	3076.05
543.15	3413.96
543.35	3381.20
543.54	2992.08
543.74	2912.21
543.94	3573.71
544.14	3102.67
544.33	3192.78
544.53	3057.62
544.73	3260.37
544.93	3170.26
545.12	3098.58
545.32	3123.15
545.52	3223.50
545.71	3080.14
545.91	3112.91
546.11	2969.55
546.30	3155.92
546.50	3198.93
546.70	3164.11
546.90	3069.91
547.09	2906.07
547.29	3319.76
547.49	3190.74
547.68	3078.10
547.88	3112.91
548.08	3311.57
548.27	3336.14
548.47	3090.38
548.67	3147.73
548.87	3284.94
549.06	2983.89
549.26	2979.79
549.46	3317.71
549.65	3229.65
549.85	3114.96
550.05	3141.58
550.24	2985.94
550.44	3241.93
550.64	3160.02
550.83	3147.73
551.03	3579.85
551.23	3459.02
551.42	3074.00
551.62	3157.97
551.82	3274.70
552.01	3262.41
552.21	3360.72
552.41	3178.45
552.60	3528.65
552.80	3282.89
553.00	2987.99
553.19	3033.04
553.39	3606.47
553.59	3049.43
553.78	3213.26
553.98	3071.95
554.17	3065.81
554.37	3366.86
554.57	3147.73
554.76	2951.12
554.96	3190.74
555.16	3248.08
555.35	3080.14
555.55	3375.05
555.75	3420.11
555.94	3461.07
556.14	2901.97
556.33	3131.34
556.53	3227.60
556.73	3301.33
556.92	3041.23
557.12	3033.04
557.32	3686.34
557.51	3618.76
557.71	3125.20
557.90	3256.27
558.10	3561.42
558.30	3266.51
558.49	3110.86
558.69	3049.43
558.88	3446.73
559.08	3266.51
559.28	3018.71
559.47	3069.91
559.67	3418.06
559.86	3571.66
560.06	3033.04
560.26	3110.86
560.45	3401.68
560.65	3225.55
560.84	3315.66
561.04	3098.58
561.24	3428.30
561.43	3041.23
561.63	3319.76
561.82	3149.78
562.02	3366.86
562.22	3057.62
562.41	2975.70
562.61	3061.71
562.80	3108.82
563.00	3839.94
563.19	3141.58
563.39	3178.45
563.59	3409.87
563.78	3133.39
563.98	2889.68
564.17	3067.86
564.37	2875.35
564.56	3262.41
564.76	2983.89
564.96	3209.17
565.15	3280.85
565.35	3772.36
565.54	3090.38
565.74	3147.73
565.93	3338.19
566.13	3323.85
566.32	3112.91
566.52	3184.59
566.71	3252.17
566.91	3452.88
567.11	3151.82
567.30	2951.12
567.50	3327.95
567.69	3307.47
567.89	3033.04
568.08	2955.22
568.28	3303.37
568.47	3135.44
568.67	3096.53
568.86	3069.91
569.06	3336.14
569.25	3137.49
569.45	2936.79
569.64	3157.97
569.84	3258.32
570.04	3364.81
570.23	3102.67
570.43	3188.69
570.62	3256.27
570.82	3553.23
571.01	2963.41
571.21	3053.52
571.40	3084.24
571.60	3438.54
571.79	3198.93
571.99	3096.53
572.18	3114.96
572.38	3348.43
572.57	3155.92
572.77	3108.82
572.96	3788.74
573.16	3280.85
573.35	3002.32
573.55	3231.69
573.74	3239.89
573.94	3133.39
574.13	3123.15
574.33	3203.02
574.52	3485.64
574.71	3254.22
574.91	3162.06
575.10	2924.50
575.30	3198.93
575.49	3147.73
575.69	3053.52
575.88	3043.28
576.08	3221.45
576.27	3520.46
576.47	3104.72
576.66	3270.61
576.86	3559.37
577.05	3422.16
577.25	3133.39
577.44	3207.12
577.64	3180.50
577.83	3508.17
578.02	3037.14
578.22	3239.89
578.41	3629.00
578.61	3250.13
578.80	2916.31
579.00	3127.25
579.19	3266.51
579.39	3356.62
579.58	3160.02
579.77	3133.39
579.97	3575.75
580.16	3512.27
580.36	3315.66
580.55	3129.30
580.75	3385.29
580.94	3221.45
581.13	3254.22
581.33	3313.61
581.52	3266.51
581.72	3665.86
581.91	3131.34
582.11	2961.36
582.30	3530.70
582.49	3289.04
582.69	3405.77
582.88	3059.67
583.08	3344.33
583.27	3387.34
583.47	3246.03
583.66	3059.67
583.85	3119.06
584.05	3344.33
584.24	3258.32
584.44	3084.24
584.63	3528.65
584.82	3540.94
585.02	3338.19
585.21	3217.36
585.41	3309.52
585.60	3348.43
585.79	3262.41
585.99	3381.20
586.18	3332.05
586.37	4265.92
586.57	6412.19
586.76	17712.88
586.96	37172.68
587.15	50328.83
587.34	59092.09
587.54	63042.62
587.73	56292.52
587.93	40449.43
588.12	31225.38
588.31	25339.52
588.51	22662.82
588.70	20772.55
588.89	18413.29
589.09	15742.74
589.28	13621.04
589.47	10743.64
589.67	8195.97
589.86	6481.82
590.06	5109.68
590.25	4579.26
590.44	3735.50
590.64	3528.65
590.83	3590.09
591.02	3522.51
591.22	3078.10
591.41	3133.39
591.60	3207.12
591.80	3803.08
591.99	2922.45
592.18	3090.38
592.38	3491.79
592.57	3198.93
592.76	3063.76
592.96	3213.26
593.15	3348.43
593.34	3510.22
593.54	2998.23
593.73	3278.80
593.92	3442.64
594.12	3368.91
594.31	3160.02
594.50	3266.51
594.70	3436.49
594.89	3839.94
595.08	3057.62
595.28	3241.93
595.47	3794.89
595.66	3497.93
595.86	3074.00
596.05	2926.55
596.24	3258.32
596.43	3663.82
596.63	3164.11
596.82	3258.32
597.01	3493.83
597.21	3659.72
597.40	3127.25
597.59	3155.92
597.79	3332.05
597.98	3420.11
598.17	3112.91
598.36	3092.43
598.56	3495.88
598.75	3168.21
598.94	3151.82
599.14	3147.73
599.33	3231.69
599.52	3502.03
599.71	3100.62
599.91	3139.54
600.10	3434.44
600.29	3327.95
600.48	3141.58
600.68	3207.12
600.87	3401.68
601.06	3205.07
601.26	3196.88
601.45	3246.03
601.64	3196.88
601.83	3528.65
602.03	2951.12
602.22	2967.51
602.41	3446.73
602.60	3704.78
602.80	3135.44
602.99	3307.47
603.18	3274.70
603.37	3327.95
603.57	2992.08
603.76	3123.15
603.95	3495.88
604.14	3207.12
604.34	3010.51
604.53	3100.62
604.72	3348.43
604.91	3432.40
605.10	3067.86
605.30	2932.69
605.49	3696.58
605.68	3401.68
605.87	3069.91
606.07	3016.66
606.26	3346.38
606.45	3405.77
606.64	3090.38
606.84	3012.56
607.03	3264.46
607.22	3409.87
607.41	3106.77
607.60	3061.71
607.80	3401.68
607.99	3327.95
608.18	3053.52
608.37	3041.23
608.56	3217.36
608.76	3532.75
608.95	3284.94
609.14	3049.43
609.33	3499.98
609.52	3618.76
609.72	3166.16
609.91	3243.98
610.10	3387.34
610.29	3614.66
610.48	3192.78
610.68	3227.60
610.87	3270.61
611.06	3420.11
611.25	3117.01
611.44	3190.74
611.63	3231.69
611.83	3596.23
612.02	3041.23
612.21	3266.51
612.40	2936.79
612.59	3028.95
612.79	2955.22
612.98	3074.00
613.17	3610.57
613.36	3313.61
613.55	3237.84
613.74	3137.49
613.93	3299.28
614.13	3463.12
614.32	3407.82
614.51	3178.45
614.70	3280.85
614.89	3270.61
615.08	3233.74
615.28	3481.55
615.47	3018.71
615.66	3428.30
615.85	3131.34
616.04	3305.42
616.23	3303.37
616.42	3340.24
616.62	3149.78
616.81	3069.91
617.00	3327.95
617.19	3332.05
617.38	3020.75
617.57	3174.35
617.76	3352.52
617.95	3401.68
618.15	3147.73
618.34	3334.09
618.53	3090.38
618.72	3440.59
618.91	3217.36
619.10	3153.87
619.29	3321.81
619.48	3274.70
619.68	3030.99
619.87	3104.72
620.06	3071.95
620.25	3377.10
620.44	3024.85
620.63	3037.14
620.82	3327.95
621.01	3297.23
621.20	3098.58
621.39	3149.78
621.59	3364.81
621.78	3203.02
621.97	3061.71
622.16	3196.88
622.35	3266.51
622.54	3332.05
622.73	3096.53
622.92	2865.11
623.11	3489.74
623.30	3170.26
623.49	3233.74
623.68	2942.93
623.88	3542.99
624.07	3100.62
624.26	2975.70
624.45	3080.14
624.64	3262.41
624.83	3368.91
625.02	3039.19
625.21	3028.95
625.40	3145.68
625.59	3565.51
625.78	3090.38
625.97	3190.74
626.16	3555.27
626.35	3471.31
626.54	3102.67
626.74	3221.45
626.93	3248.08
627.12	3266.51
627.31	3110.86
627.50	3172.30
627.69	3483.59
627.88	3100.62
628.07	3049.43
628.26	2942.93
628.45	3143.63
628.64	3127.25
628.83	3026.90
629.02	2971.60
629.21	3366.86
629.40	3348.43
629.59	3026.90
629.78	2975.70
629.97	3299.28
630.16	3297.23
630.35	3065.81
630.54	3233.74
630.73	3188.69
630.92	3307.47
631.11	2990.03
631.30	3213.26
631.49	3407.82
631.68	3160.02
631.87	3151.82
632.06	2957.27
632.25	3712.97
632.44	3227.60
632.63	3104.72
632.82	3102.67
633.01	3133.39
633.20	3430.35
633.39	3119.06
633.58	2910.16
633.77	3364.81
633.96	3446.73
634.15	3250.13
634.34	3188.69
634.53	3350.48
634.72	3174.35
634.91	2926.55
635.10	3114.96
635.29	3420.11
635.48	3327.95
635.67	2951.12
635.86	2897.88
636.05	3565.51
636.24	3276.75
636.43	3090.38
636.62	3209.17
636.81	2818.00
637.00	3327.95
637.19	3088.34
637.38	3100.62
637.57	3157.97
637.76	3256.27
637.95	3311.57
638.14	3209.17
638.33	3344.33
638.52	3364.81
638.71	2985.94
638.89	3008.47
639.08	3778.50
639.27	3430.35
639.46	3338.19
639.65	3706.82
639.84	3897.28
640.03	3999.68
640.22	3606.47
640.41	3606.47
640.60	3385.29
640.79	3502.03
640.98	3362.76
641.17	3299.28
641.36	3530.70
641.55	3510.22
641.74	2987.99
641.92	3024.85
642.11	3104.72
642.30	3305.42
642.49	2957.27
642.68	3030.99
642.87	3418.06
643.06	3362.76
643.25	2967.51
643.44	2961.36
643.63	3262.41
643.82	3473.36
644.00	2994.13
644.19	3117.01
644.38	3016.66
644.57	3450.83
644.76	3078.10
644.95	3100.62
645.14	3344.33
645.33	3205.07
645.52	3176.40
645.71	2926.55
645.89	3006.42
646.08	3274.70
646.27	3098.58
646.46	3258.32
646.65	2953.17
646.84	3360.72
647.03	3041.23
647.22	3231.69
647.40	3393.48
647.59	3203.02
647.78	2822.10
647.97	3069.91
648.16	3012.56
648.35	3510.22
648.54	3325.90
648.73	3184.59
648.91	3366.86
649.10	3231.69
649.29	3037.14
649.48	3051.47
649.67	3393.48
649.86	3317.71
650.05	3112.91
650.23	3280.85
650.42	3110.86
650.61	3547.08
650.80	3295.18
650.99	3358.67
651.18	3432.40
651.36	3569.61
651.55	3024.85
651.74	3186.64
651.93	3096.53
652.12	3278.80
652.31	3106.77
652.49	3135.44
652.68	3256.27
652.87	3575.75
653.06	3178.45
653.25	3348.43
653.44	3325.90
653.62	3629.00
653.81	3084.24
654.00	3039.19
654.19	3545.03
654.38	3813.32
654.56	3172.30
654.75	3047.38
654.94	3456.97
655.13	3295.18
655.32	3084.24
655.51	3221.45
655.69	3227.60
655.88	3411.92
656.07	2969.55
656.26	3164.11
656.45	2990.03
656.63	3299.28
656.82	3082.19
657.01	3217.36
657.20	3188.69
657.38	3536.84
657.57	2990.03
657.76	2901.97
657.95	3499.98
658.14	3149.78
658.32	3223.50
658.51	3022.80
658.70	3262.41
658.89	3395.53
659.08	3145.68
659.26	3330.00
659.45	3090.38
659.64	3385.29
659.83	3026.90
660.01	3465.16
660.20	3254.22
660.39	3579.85
660.58	2783.19
660.76	3100.62
660.95	3008.47
661.14	3198.93
661.33	2858.96
661.51	3106.77
661.70	3184.59
661.89	3430.35
662.08	3164.11
662.26	2883.54
662.45	2967.51
662.64	3717.06
662.83	3166.16
663.01	2979.79
663.20	3160.02
663.39	3581.90
663.58	3125.20
663.76	3008.47
663.95	3389.39
664.14	3067.86
664.32	3030.99
664.51	2934.74
664.70	2922.45
664.89	3291.09
665.07	2936.79
665.26	3190.74
665.45	3086.29
665.64	3393.48
665.82	3149.78
666.01	3270.61
666.20	3047.38
666.38	3518.41
666.57	3352.52
666.76	5562.28
666.95	13068.09
667.13	20444.87
667.32	24970.88
667.51	28071.51
667.69	28905.03
667.88	24336.01
668.07	17446.65
668.25	14923.55
668.44	12873.53
668.63	11013.98
668.81	9721.71
669.00	8417.15
669.19	7759.75
669.38	6649.75
669.56	5631.91
669.75	4919.22
669.94	4356.03
670.12	3753.93
670.31	3426.25
670.50	3360.72
670.68	3499.98
670.87	3276.75
671.06	3014.61
671.24	3246.03
671.43	3565.51
671.62	3336.14
671.80	3129.30
671.99	3205.07
672.18	3370.96
672.36	3477.45
672.55	3123.15
672.74	3248.08
672.92	3264.46
673.11	3342.28
673.29	2977.75
673.48	3207.12
673.67	3258.32
673.85	3444.68
674.04	2975.70
674.23	3114.96
674.41	3667.91
674.60	3012.56
674.79	2889.68
674.97	2906.07
675.16	3450.83
675.34	3499.98
675.53	3119.06
675.72	3164.11
675.90	3588.04
676.09	3166.16
676.28	3190.74
676.46	2963.41
676.65	3430.35
676.83	3170.26
677.02	3149.78
677.21	3172.30
677.39	3352.52
677.58	3008.47
677.77	2955.22
677.95	2979.79
678.14	3225.55
678.32	3196.88
678.51	3133.39
678.70	3370.96
678.88	3198.93
679.07	3297.23
679.25	3110.86
679.44	3057.62
679.63	2996.18
679.81	3368.91
680.00	3262.41
680.18	3127.25
680.37	3596.23
680.55	3248.08
680.74	2932.69
680.93	2785.24
681.11	3416.01
681.30	3237.84
681.48	3080.14
681.67	3057.62
681.85	3370.96
682.04	3078.10
682.23	3237.84
682.41	3315.66
682.60	3248.08
682.78	3149.78
682.97	3004.37
683.15	3174.35
683.34	3315.66
683.53	3622.86
683.71	2934.74
683.90	3137.49
684.08	3643.34
684.27	3151.82
684.45	3129.30
684.64	3229.65
684.82	3336.14
685.01	3303.37
685.19	3016.66
685.38	3413.96
685.57	3225.55
685.75	3110.86
685.94	3010.51
686.12	2957.27
686.31	3139.54
686.49	3590.09
686.68	2934.74
686.86	3045.33
687.05	3227.60
687.23	3594.19
687.42	3092.43
687.60	2942.93
687.79	3508.17
687.97	3571.66
688.16	3155.92
688.34	3295.18
688.53	3063.76
688.71	3377.10
688.90	3354.57
689.08	3131.34
689.27	2912.21
689.45	3418.06
689.64	3182.54
689.82	3151.82
690.01	3301.33
690.19	3311.57
690.38	3274.70
690.56	3164.11
690.75	3059.67
690.93	3243.98
691.12	3053.52
691.30	3149.78
691.49	3137.49
691.67	3315.66
691.86	3491.79
692.04	3065.81
692.23	3219.41
692.41	3338.19
692.60	3377.10
692.78	3262.41
692.97	3264.46
693.15	3516.36
693.34	3311.57
693.52	3342.28
693.71	3135.44
693.89	3164.11
694.08	2983.89
694.26	3186.64
694.44	3420.11
694.63	3375.05
694.81	3014.61
695.00	3114.96
695.18	3536.84
695.37	3794.89
695.55	3209.17
695.74	3133.39
695.92	3098.58
696.10	3536.84
696.29	3049.43
696.47	3002.32
696.66	3041.23
696.84	3121.10
697.03	3143.63
697.21	3377.10
697.40	4739.00
697.58	3530.70
697.76	3112.91
697.95	3059.67
698.13	3016.66
698.32	3286.99
698.50	3117.01
698.68	3117.01
698.87	3334.09
699.05	3565.51
699.24	3084.24
699.42	3065.81
699.61	3295.18
699.79	3237.84
699.97	3194.83
700.16	2897.88
700.34	2969.55
700.53	3223.50
700.71	3305.42
700.89	3233.74
701.08	3213.26
701.26	3325.90
701.45	3450.83
701.63	3082.19
701.81	3229.65
702.00	3071.95
702.18	3174.35
702.37	3096.53
702.55	3583.95
702.73	3352.52
702.92	3080.14
703.10	3446.73
703.28	3444.68
703.47	3123.15
703.65	3405.77
703.84	3311.57
704.02	3164.11
704.20	3606.47
704.39	3033.04
704.57	3192.78
704.75	3502.03
704.94	3416.01
705.12	3295.18
705.30	4155.33
705.49	8673.15
705.67	16975.61
705.86	23758.49
706.04	26775.14
706.22	29892.15
706.41	28399.18
706.59	21274.30
706.77	16697.09
706.96	14346.02
707.14	13139.77
707.32	11186.01
707.51	9740.14
707.69	7993.22
707.87	6567.84
708.06	5248.94
708.24	4515.77
708.42	4128.70
708.61	4247.49
708.79	3276.75
708.97	3360.72
709.16	3299.28
709.34	3332.05
709.52	3090.38
709.71	3108.82
709.89	3436.49
710.07	3147.73
710.26	3141.58
710.44	3133.39
710.62	3448.78
710.80	3325.90
710.99	3198.93
711.17	3207.12
711.35	3221.45
711.54	3157.97
711.72	3270.61
711.90	3096.53
712.09	3401.68
712.27	3151.82
712.45	3200.98
712.63	3131.34
712.82	3313.61
713.00	3289.04
713.18	3162.06
713.37	3327.95
713.55	3467.21
713.73	3393.48
713.91	3186.64
714.10	3008.47
714.28	3217.36
714.46	3344.33
714.65	3209.17
714.83	3192.78
715.01	3381.20
715.19	3264.46
715.38	3000.27
715.56	3248.08
715.74	3112.91
715.92	3194.83
716.11	3450.83
716.29	2709.46
716.47	3305.42
716.65	3227.60
716.84	2861.01
717.02	3106.77
717.20	3002.32
717.38	3157.97
717.57	3215.31
717.75	3110.86
717.93	3221.45
718.11	3368.91
718.30	2961.36
718.48	3106.77
718.66	3499.98
718.84	3454.92
719.03	3082.19
719.21	2891.73
719.39	3626.95
719.57	3446.73
719.75	3209.17
719.94	3082.19
720.12	3217.36
720.30	3284.94
720.48	3178.45
720.67	3055.57
720.85	3090.38
721.03	3117.01
721.21	3067.86
721.39	3182.54
721.58	3428.30
721.76	3297.23
721.94	3153.87
722.12	3207.12
722.30	3581.90
722.49	3258.32
722.67	3149.78
722.85	3131.34
723.03	3022.80
723.21	3141.58
723.40	3129.30
723.58	3270.61
723.76	3405.77
723.94	3524.55
724.12	3176.40
724.30	3323.85
724.49	3534.79
724.67	3061.71
724.85	3186.64
725.03	2961.36
725.21	3418.06
725.40	3487.69
725.58	3049.43
725.76	3303.37
725.94	3291.09
726.12	3108.82
726.30	3147.73
726.49	3078.10
726.67	3188.69
726.85	3469.26
727.03	4020.16
727.21	5572.52
727.39	7061.40
727.57	7645.07
727.76	8460.16
727.94	8572.80
728.12	7301.01
728.30	6010.79
728.48	5541.80
728.66	5121.97
728.84	4765.62
729.03	4188.10
729.21	3841.99
729.39	3602.38
729.57	3391.44
729.75	3469.26
729.93	3428.30
730.11	3114.96
730.30	3192.78
730.48	3327.95
730.66	3223.50
730.84	3221.45
731.02	3286.99
731.20	3203.02
731.38	3151.82
731.56	3020.75
731.74	3069.91
731.93	3332.05
732.11	3260.37
732.29	3084.24
732.47	3430.35
732.65	3360.72
732.83	3264.46
733.01	3164.11
733.19	3127.25
733.37	3373.00
733.56	3123.15
733.74	2977.75
733.92	3555.27
734.10	3192.78
734.28	3246.03
734.46	2895.83
734.64	3192.78
734.82	3229.65
735.00	3059.67
735.18	3067.86
735.36	3246.03
735.54	3233.74
735.73	3162.06
735.91	3155.92
736.09	3637.19
736.27	3303.37
736.45	3164.11
736.63	2865.11
736.81	3137.49
736.99	3551.18
737.17	3336.14
737.35	3055.57
737.53	3250.13
737.71	3248.08
737.89	3262.41
738.07	3092.43
738.25	3172.30
738.43	2940.88
738.61	3108.82
738.80	2983.89
738.98	2949.08
739.16	3200.98
739.34	3086.29
739.52	3469.26
739.70	3221.45
739.88	3379.15
740.06	3219.41
740.24	2785.24
740.42	3518.41
740.60	2971.60
740.78	3039.19
740.96	2856.92
741.14	3082.19
741.32	3295.18
741.50	2893.78
741.68	3405.77
741.86	3569.61
742.04	3092.43
742.22	3053.52
742.40	3078.10
742.58	3403.72
742.76	3153.87
742.94	3270.61
743.12	2916.31
743.30	3200.98
743.48	3403.72
743.66	3074.00
743.84	3129.30
744.02	3203.02
744.20	3209.17
744.38	3008.47
744.56	3028.95
744.74	3678.15
744.92	3375.05
745.10	3254.22
745.28	3254.22
745.46	3606.47
745.64	3229.65
745.82	3141.58
746.00	3024.85
746.18	3411.92
746.36	3057.62
746.54	3178.45
746.72	3108.82
746.90	3082.19
747.08	3534.79
747.26	3090.38
747.44	3229.65
747.62	3426.25
747.80	3360.72
747.98	3123.15
748.15	3123.15
748.33	3635.14
748.51	3272.65
748.69	3174.35
748.87	2967.51
749.05	3207.12
749.23	3262.41
749.41	3018.71
749.59	3039.19
749.77	3512.27
749.95	3178.45
750.13	2944.98
750.31	3280.85
750.49	3237.84
750.67	3459.02
750.85	3192.78
751.03	3133.39
751.20	3635.14
751.38	3377.10
751.56	3112.91
751.74	3071.95
751.92	3192.78
752.10	3024.85
752.28	3256.27
752.46	3082.19
752.64	3231.69
752.82	3327.95
753.00	3215.31
753.18	3069.91
753.35	3297.23
753.53	3323.85
753.71	3037.14
753.89	3121.10
754.07	3317.71
754.25	3536.84
754.43	3192.78
754.61	2967.51
754.79	3334.09
754.97	3133.39
755.14	3174.35
755.32	3008.47
755.50	3225.55
755.68	3309.52
755.86	3033.04
756.04	3030.99
756.22	2891.73
756.40	3481.55
756.57	3332.05
756.75	3030.99
756.93	3434.44
757.11	3411.92
757.29	2987.99
757.47	2992.08
757.65	2944.98
757.82	2885.59
758.00	2957.27
758.18	3035.09
758.36	3086.29
758.54	3712.97
758.72	2920.40
758.90	3270.61
759.07	3342.28
759.25	3004.37
759.43	3182.54
759.61	2969.55
759.79	4466.62
759.97	3403.72
760.15	3102.67
760.32	3041.23
760.50	3354.57
760.68	3606.47
760.86	2914.26
761.04	3299.28
761.22	3422.16
761.39	3325.90
761.57	3145.68
761.75	3114.96
761.93	3393.48
762.11	3203.02
762.28	3248.08
762.46	3014.61
762.64	3485.64
762.82	2965.46
763.00	2983.89
763.18	3317.71
763.35	3028.95
763.53	3377.10
763.71	3213.26
763.89	3051.47
764.07	3340.24
764.24	3280.85
764.42	3164.11
764.60	3092.43
764.78	3284.94
764.96	3477.45
765.13	3295.18
765.31	2969.55
765.49	3403.72
765.67	3149.78
765.84	3033.04
766.02	3002.32
766.20	2947.03
766.38	3315.66
766.56	3266.51
766.73	3231.69
766.91	3254.22
767.09	3323.85
767.27	3131.34
767.44	2953.17
767.62	3420.11
767.80	3264.46
767.98	3016.66
768.15	3104.72
768.33	3438.54
768.51	3418.06
768.69	3221.45
768.87	3059.67
769.04	3332.05
769.22	3790.79
769.40	3227.60
769.58	3250.13
769.75	3428.30
769.93	3504.07
770.11	3108.82
770.28	2951.12
770.46	3432.40
770.64	3227.60
770.82	3045.33
770.99	3014.61
771.17	3332.05
771.35	3200.98
771.53	3166.16
771.70	3035.09
771.88	3377.10
772.06	3291.09
772.23	3065.81
772.41	3141.58
772.59	3205.07
772.77	3035.09
772.94	3053.52
773.12	3129.30
773.30	3217.36
773.47	3356.62
773.65	2981.84
773.83	3198.93
774.01	3280.85
774.18	2934.74
774.36	3082.19
774.54	3012.56
774.71	3325.90
774.89	3010.51
775.07	2920.40
775.24	3074.00
775.42	3135.44
775.60	3678.15
775.78	3006.42
775.95	2906.07
776.13	2928.60
776.31	2971.60
776.48	3272.65
776.66	3297.23
776.84	3166.16
777.01	3125.20
777.19	2951.12
777.37	3078.10
777.54	3446.73
777.72	3700.68
777.90	3153.87
778.07	3037.14
778.25	3946.44
778.43	3469.26
778.60	3008.47
778.78	3168.21
778.96	3581.90
779.13	3039.19
779.31	3221.45
779.49	3119.06
779.66	3385.29
779.84	3162.06
780.01	2996.18
780.19	2985.94
780.37	3407.82
780.54	3407.82
780.72	2918.36
780.90	3082.19
781.07	3209.17
781.25	3151.82
781.43	3231.69
781.60	3051.47
781.78	3459.02
781.95	3229.65
782.13	3123.15
782.31	3078.10
782.48	2889.68
782.66	3223.50
782.83	3319.76
783.01	3207.12
783.19	3499.98
783.36	3157.97
783.54	2985.94
783.72	3237.84
783.89	3110.86
784.07	3254.22
784.24	3196.88
784.42	3209.17
784.60	3395.53
784.77	3317.71
784.95	2818.00
785.12	3065.81
785.30	3246.03
785.47	3074.00
785.65	2949.08
785.83	3065.81
786.00	3248.08
786.18	3313.61
786.35	3041.23
786.53	3010.51
786.71	3526.60
786.88	3311.57
787.06	3209.17
787.23	3151.82
787.41	3043.28
787.58	3260.37
787.76	2967.51
787.94	3076.05
788.11	3373.00
788.29	3053.52
788.46	3145.68
788.64	2949.08
788.81	3166.16
788.99	3074.00
789.16	3041.23
789.34	3098.58
789.52	3164.11
789.69	3243.98
789.87	2842.58
790.04	3014.61
790.22	3256.27
790.39	3606.47
790.57	3041.23
790.74	2940.88
790.92	3450.83
791.09	3006.42
791.27	3215.31
791.44	3141.58
791.62	3217.36
791.79	3393.48
791.97	3164.11
792.15	3377.10
792.32	3272.65
792.50	3368.91
792.67	3258.32
792.85	3362.76
793.02	3305.42
793.20	3203.02
793.37	2953.17
793.55	3047.38
793.72	3074.00
793.90	3448.78
794.07	3069.91
794.25	3012.56
794.42	3299.28
794.60	3198.93
794.77	3114.96
794.95	3141.58
795.12	3405.77
795.30	3248.08
795.47	2848.72
795.65	3416.01
795.82	3356.62
796.00	3076.05
796.17	3157.97
796.34	2963.41
796.52	3368.91
796.69	3450.83
796.87	3205.07
797.04	3188.69
797.22	3512.27
797.39	3262.41
797.57	3248.08
797.74	3119.06
797.92	3286.99
798.09	3141.58
798.27	3375.05
798.44	3061.71
798.62	3151.82
798.79	3370.96
798.96	3217.36
799.14	3059.67
799.31	3833.80
799.49	3231.69
799.66	3123.15
799.84	3129.30
800.01	2967.51
800.19	3332.05
800.36	2846.68
800.53	3129.30
800.71	3286.99
800.88	3579.85
801.06	3076.05
801.23	3074.00
801.41	3209.17
801.58	3213.26
801.75	2987.99
801.93	3147.73
802.10	3461.07
802.28	3196.88
802.45	3108.82
802.63	3213.26
802.80	3553.23
802.97	3133.39
803.15	3135.44
803.32	3082.19
803.50	3207.12
803.67	3094.48
803.84	3137.49
804.02	3094.48
804.19	3184.59
804.37	2846.68
804.54	2922.45
804.71	3041.23
804.89	3289.04
805.06	3157.97
805.24	3057.62
805.41	2961.36
805.58	3219.41
805.76	3848.13
805.93	3086.29
806.10	3100.62
806.28	3358.67
806.45	3250.13
806.63	3155.92
806.80	3139.54
806.97	3295.18
807.15	3295.18
807.32	3145.68
807.49	3096.53
807.67	3045.33
807.84	3327.95
808.01	2971.60
808.19	3246.03
808.36	3749.83
808.54	3225.55
808.71	3080.14
808.88	3065.81
809.06	3506.12
809.23	3536.84
809.40	3094.48
809.58	3082.19
809.75	3286.99
809.92	3123.15
810.10	3342.28
810.27	2992.08
810.44	3299.28
810.62	3403.72
810.79	3168.21
810.96	3125.20
811.14	3151.82
811.31	3248.08
811.48	3278.80
811.66	3196.88
811.83	3452.88
812.00	3440.59
812.18	3280.85
812.35	3491.79
812.52	3164.11
812.69	3243.98
812.87	3076.05
813.04	2985.94
813.21	3164.11
813.39	3123.15
813.56	2973.65
813.73	3297.23
813.91	2926.55
814.08	3194.83
814.25	3110.86
814.42	2770.90
814.60	3182.54
814.77	3317.71
814.94	3057.62
815.12	3114.96
815.29	3567.56
815.46	3129.30
815.63	3098.58
815.81	3053.52
815.98	3176.40
816.15	3223.50
816.33	3143.63
816.50	3114.96
816.67	3229.65
816.84	3225.55
817.02	2951.12
817.19	3024.85
817.36	3305.42
817.53	3264.46
817.71	2918.36
817.88	3018.71
818.05	3237.84
818.22	3186.64
818.40	3225.55
818.57	3053.52
818.74	3315.66
818.91	3311.57
819.09	3286.99
819.26	3243.98
819.43	3084.24
819.60	3164.11
819.78	3149.78
819.95	3094.48
820.12	3100.62
820.29	3528.65
820.47	3405.77
820.64	3041.23
820.81	3024.85
820.98	3098.58
821.15	3069.91
821.33	3180.50
821.50	3051.47
821.67	3266.51
821.84	3096.53
822.02	3112.91
822.19	3442.64
822.36	3194.83
822.53	3051.47
822.70	2987.99
822.88	3239.89
823.05	3661.77
823.22	3221.45
823.39	3139.54
823.56	3227.60
823.74	3698.63
823.91	2924.50
824.08	2983.89
824.25	3033.04
824.42	3553.23
824.60	2947.03
824.77	3184.59
824.94	3176.40
825.11	3397.58
825.28	2947.03
825.45	3280.85
825.63	3262.41
825.80	2994.13
825.97	3190.74
826.14	3205.07
826.31	2942.93
826.48	3309.52
826.66	3012.56
826.83	2959.31
827.00	3123.15
827.17	3082.19
827.34	3024.85
827.51	2957.27
827.69	3213.26
827.86	2983.89
828.03	3061.71
828.20	3121.10
828.37	3049.43
828.54	3379.15
828.71	3057.62
828.89	3286.99
829.06	3407.82
829.23	3592.14
829.40	3074.00
829.57	3086.29
829.74	3471.31
829.91	3125.20
830.09	2957.27
830.26	3160.02
830.43	3559.37
830.60	3182.54
830.77	3221.45
830.94	3246.03
831.11	3385.29
831.28	3131.34
831.46	3264.46
831.63	3053.52
831.80	3512.27
831.97	3065.81
832.14	3114.96
832.31	3106.77
832.48	3258.32
832.65	3436.49
832.82	3217.36
832.99	3086.29
833.17	3082.19
833.34	3598.28
833.51	3067.86
833.68	2834.39
833.85	3471.31
834.02	3108.82
834.19	3037.14
834.36	3076.05
834.53	3336.14
834.70	3461.07
834.87	3049.43
835.04	2852.82
835.22	3059.67
835.39	3233.74
835.56	2887.64
835.73	2930.64
835.90	3475.40
836.07	3102.67
836.24	3033.04
836.41	2947.03
836.58	3065.81
836.75	3483.59
836.92	2867.16
837.09	2873.30
837.26	3399.63
837.43	3305.42
837.60	2985.94
837.77	2916.31
837.94	3395.53
838.12	3563.47
838.29	2873.30
838.46	2791.38
838.63	3002.32
838.80	3581.90
838.97	3008.47
839.14	2908.12
839.31	3336.14
839.48	3377.10
839.65	2873.30
839.82	3108.82
839.99	3250.13
840.16	3299.28
840.33	2834.39
840.50	3014.61
840.67	3127.25
840.84	2848.72
841.01	2893.78
841.18	2906.07
841.35	3133.39
841.52	3360.72
841.69	3256.27
841.86	3010.51
842.03	3248.08
842.20	3485.64
842.37	2883.54
842.54	2975.70
842.71	3313.61
842.88	2893.78
843.05	2938.84
843.22	2906.07
843.39	3463.12
843.56	3147.73
843.73	2856.92
843.90	2934.74
844.07	3266.51
844.24	3393.48
844.41	2969.55
844.58	2944.98
844.75	3307.47
844.92	3360.72
845.09	3004.37
845.26	2922.45
845.43	3385.29
845.60	3209.17
845.77	3008.47
845.94	3008.47
846.10	3465.16
846.27	2918.36
846.44	2850.77
846.61	2748.37
846.78	3383.24
846.95	3338.19
847.12	2930.64
847.29	2940.88
847.46	3053.52
847.63	3477.45
847.80	2801.62
847.97	2869.20
848.14	3729.35
848.31	3180.50
848.48	2770.90
848.65	2942.93
848.82	3151.82
848.98	3801.03
849.15	3035.09
849.32	3041.23
849.49	3485.64
849.66	3293.13
849.83	2861.01
850.00	2893.78
850.17	3452.88
850.34	3094.48
850.51	2852.82
850.68	2893.78
850.85	3667.91
851.01	3313.61
851.18	2863.06
851.35	3018.71
851.52	3352.52
851.69	3502.03
851.86	2856.92
852.03	2922.45
852.20	3325.90
852.37	3293.13
852.53	2844.63
852.70	2858.96
852.87	3313.61
853.04	3373.00
853.21	3000.27
853.38	3180.50
853.55	3549.13
853.72	3551.18
853.89	2824.15
854.05	2899.92
854.22	3237.84
854.39	3162.06
854.56	2875.35
854.73	3078.10
854.90	3069.91
855.07	3225.55
855.23	2803.67
855.40	2844.63
855.57	3170.26
855.74	2815.96
855.91	3114.96
856.08	2781.14
856.25	2977.75
856.41	3117.01
856.58	2893.78
856.75	2932.69
856.92	3110.86
857.09	3559.37
857.26	2738.13
857.42	2932.69
857.59	3448.78
857.76	3225.55
857.93	2809.81
858.10	2944.98
858.27	3080.14
858.43	3229.65
858.60	2942.93
858.77	2881.49
858.94	3172.30
859.11	3471.31
859.27	2957.27
859.44	2856.92
859.61	3717.06
859.78	3368.91
859.95	2916.31
860.12	2803.67
860.28	3733.45
860.45	3661.77
860.62	2867.16
860.79	3016.66
860.95	3233.74
861.12	3123.15
861.29	2764.76
861.46	2836.44
861.63	3258.32
861.79	3246.03
861.96	2854.87
862.13	2936.79
862.30	3483.59
862.47	3078.10
862.63	2824.15
862.80	2908.12
862.97	3590.09
863.14	3350.48
863.30	2918.36
863.47	2793.43
863.64	3569.61
863.81	3221.45
863.97	2697.17
864.14	2963.41
864.31	3223.50
864.48	3217.36
864.65	2938.84
864.81	2975.70
864.98	3352.52
865.15	3405.77
865.32	3000.27
865.48	3082.19
865.65	3585.99
865.82	3143.63
865.98	2942.93
866.15	2961.36
866.32	3209.17
866.49	3149.78
866.65	3071.95
866.82	2977.75
866.99	3172.30
867.16	3162.06
867.32	2912.21
867.49	2865.11
867.66	3203.02
867.83	3110.86
867.99	2877.40
868.16	2944.98
868.33	3041.23
868.49	3209.17
868.66	2914.26
868.83	3067.86
868.99	3282.89
869.16	3239.89
869.33	3071.95
869.50	2985.94
869.66	3350.48
869.83	3231.69
870.00	2772.95
870.16	2979.79
870.33	3262.41
870.50	3385.29
870.66	2975.70
870.83	2922.45
871.00	3205.07
871.17	3327.95
871.33	2920.40
871.50	2836.44
871.67	3348.43
871.83	2967.51
872.00	3047.38
872.17	2865.11
872.33	3602.38
872.50	3401.68
872.67	2904.02
872.83	2887.64
873.00	3370.96
873.17	3266.51
873.33	2918.36
873.50	2987.99
873.67	3139.54
873.83	3123.15
874.00	2869.20
874.16	3104.72
874.33	3209.17
874.50	3024.85
874.66	2852.82
874.83	3061.71
875.00	3479.50
875.16	3520.46
875.33	3055.57
875.50	2721.75
875.66	3149.78
875.83	3319.76
875.99	2983.89
876.16	3090.38
876.33	3104.72
876.49	3307.47
876.66	2928.60
876.83	3028.95
876.99	2844.63
877.16	3291.09
877.32	2791.38
877.49	3004.37
877.66	3389.39
877.82	3514.31
877.99	3004.37
878.15	3205.07
878.32	3317.71
878.49	3334.09
878.65	2938.84
878.82	3211.22
878.98	3184.59
879.15	3499.98
879.32	3055.57
879.48	3147.73
879.65	3258.32
879.81	3229.65
879.98	3049.43
880.15	2985.94
880.31	3370.96
880.48	3143.63
880.64	3018.71
880.81	3018.71
880.97	3606.47
881.14	3551.18
881.31	2832.34
881.47	3119.06
881.64	3233.74
881.80	2936.79
881.97	3114.96
882.13	2889.68
882.30	3024.85
882.47	3117.01
882.63	2852.82
882.80	2871.25
882.96	3164.11
883.13	3497.93
883.29	2885.59
883.46	2920.40
883.62	3760.07
883.79	3258.32
883.95	3100.62
884.12	2887.64
884.29	3524.55
884.45	3264.46
884.62	2973.65
884.78	2893.78
884.95	3604.42
885.11	3129.30
885.28	3016.66
885.44	2969.55
885.61	3428.30
885.77	3567.56
885.94	3092.43
886.10	3039.19
886.27	3278.80
886.43	3602.38
886.60	3141.58
886.76	2887.64
886.93	3143.63
887.09	3280.85
887.26	2854.87
887.42	3016.66
887.59	3393.48
887.75	3643.34
887.92	3145.68
888.08	3084.24
888.25	3725.26
888.41	3420.11
888.58	3020.75
888.74	2815.96
888.91	3137.49
>>>>>End Processed Spectral Data<<<<<
