SpectraSuite Data File
++++++++++++++++++++++++++++++++++++
Date: Fri May 06 08:14:25 CEST 2016
User: root
Dark Spectrum Present: No
Reference Spectrum Present: No
Number of Sampled Component Spectra: 1
Spectrometers: USB4C02835
Integration Time (usec): 100000 (USB4C02835)
Spectra Averaged: 1 (USB4C02835)
Boxcar Smoothing: 0 (USB4C02835)
Correct for Electrical Dark: No (USB4C02835)
Strobe/Lamp Enabled: No (USB4C02835)
Correct for Detector Non-linearity: No (USB4C02835)
Correct for Stray Light: No (USB4C02835)
Number of Pixels in Processed Spectrum: 3648
>>>>>Begin Processed Spectral Data<<<<<
177.47	2242.53
177.69	2242.53
177.91	2242.53
178.13	2265.05
178.36	2254.81
178.58	2975.70
178.80	3129.30
179.02	2959.31
179.24	3043.28
179.46	2787.29
179.68	2824.15
179.90	3301.33
180.13	3354.57
180.35	2627.54
180.57	2760.66
180.79	3368.91
181.01	3239.89
181.23	2865.11
181.45	2959.31
181.67	3512.27
181.90	3450.83
182.12	2848.72
182.34	2715.61
182.56	3438.54
182.78	3436.49
183.00	2805.72
183.22	2904.02
183.44	2928.60
183.66	3895.24
183.89	3018.71
184.11	2854.87
184.33	3450.83
184.55	3553.23
184.77	2797.53
184.99	2865.11
185.21	3203.02
185.43	3753.93
185.65	2869.20
185.87	2813.91
186.10	3803.08
186.32	3753.93
186.54	2930.64
186.76	2965.46
186.98	3444.68
187.20	3231.69
187.42	2926.55
187.64	2809.81
187.86	3317.71
188.08	3446.73
188.30	2787.29
188.52	2987.99
188.75	3596.23
188.97	3409.87
189.19	2809.81
189.41	2807.77
189.63	3373.00
189.85	3223.50
190.07	2750.42
190.29	2639.83
190.51	3454.92
190.73	2977.75
190.95	3049.43
191.17	2922.45
191.39	2918.36
191.61	3239.89
191.84	2865.11
192.06	3020.75
192.28	3010.51
192.50	3915.72
192.72	3049.43
192.94	2936.79
193.16	3399.63
193.38	3370.96
193.60	2764.76
193.82	3096.53
194.04	3450.83
194.26	3348.43
194.48	2936.79
194.70	2893.78
194.92	3139.54
195.14	3426.25
195.36	2910.16
195.58	2953.17
195.80	3264.46
196.02	3065.81
196.24	2820.05
196.46	3010.51
196.69	3211.22
196.91	3811.27
197.13	2940.88
197.35	2799.57
197.57	3649.48
197.79	3428.30
198.01	2918.36
198.23	2889.68
198.45	3407.82
198.67	3004.37
198.89	2711.51
199.11	2889.68
199.33	3157.97
199.55	2873.30
199.77	2820.05
199.99	3033.04
200.21	3203.02
200.43	3274.70
200.65	2779.09
200.87	2738.13
201.09	3268.56
201.31	3203.02
201.53	2959.31
201.75	3035.09
201.97	3309.52
202.19	3280.85
202.41	2983.89
202.63	3076.05
202.85	3362.76
203.07	3368.91
203.29	2959.31
203.51	2746.33
203.73	3168.21
203.95	3815.37
204.17	2852.82
204.39	2985.94
204.61	3280.85
204.83	3209.17
205.05	3022.80
205.27	2822.10
205.49	3823.56
205.71	3274.70
205.93	2688.98
206.15	2807.77
206.37	3321.81
206.59	3221.45
206.81	2693.08
207.03	2803.67
207.25	3121.10
207.47	3385.29
207.69	2879.44
207.91	3057.62
208.13	3645.38
208.34	3262.41
208.56	2856.92
208.78	2914.26
209.00	3217.36
209.22	3188.69
209.44	2889.68
209.66	2881.49
209.88	3325.90
210.10	3233.74
210.32	2869.20
210.54	2934.74
210.76	3250.13
210.98	3491.79
211.20	2676.70
211.42	2893.78
211.64	3633.10
211.86	3424.20
212.08	2951.12
212.30	2910.16
212.52	3233.74
212.74	3426.25
212.96	2977.75
213.17	2940.88
213.39	3340.24
213.61	3725.26
213.83	2787.29
214.05	2688.98
214.27	3491.79
214.49	3057.62
214.71	2772.95
214.93	2961.36
215.15	3325.90
215.37	3450.83
215.59	2717.65
215.81	2926.55
216.03	3581.90
216.24	3252.17
216.46	2885.59
216.68	2926.55
216.90	3557.32
217.12	3452.88
217.34	2721.75
217.56	3082.19
217.78	3504.07
218.00	3377.10
218.22	2889.68
218.44	2949.08
218.66	3317.71
218.87	3581.90
219.09	2881.49
219.31	2830.29
219.53	3336.14
219.75	3225.55
219.97	2977.75
220.19	2908.12
220.41	3323.85
220.63	3614.66
220.85	2895.83
221.06	2969.55
221.28	3540.94
221.50	3504.07
221.72	2854.87
221.94	2807.77
222.16	3422.16
222.38	3467.21
222.60	2789.33
222.82	2858.96
223.03	3545.03
223.25	3063.76
223.47	2867.16
223.69	3096.53
223.91	3368.91
224.13	3295.18
224.35	2721.75
224.57	3024.85
224.78	3467.21
225.00	3069.91
225.22	3024.85
225.44	2752.47
225.66	3395.53
225.88	3280.85
226.10	2947.03
226.32	2863.06
226.53	3596.23
226.75	3235.79
226.97	2975.70
227.19	2916.31
227.41	3104.72
227.63	3151.82
227.85	2662.36
228.06	2893.78
228.28	3364.81
228.50	3547.08
228.72	2641.88
228.94	2867.16
229.16	2918.36
229.37	3012.56
229.59	2762.71
229.81	3055.57
230.03	3262.41
230.25	3100.62
230.47	2721.75
230.69	2852.82
230.90	3430.35
231.12	3114.96
231.34	3008.47
231.56	2932.69
231.78	3016.66
232.00	3262.41
232.21	2877.40
232.43	2877.40
232.65	2842.58
232.87	3301.33
233.09	2664.41
233.30	2797.53
233.52	3440.59
233.74	3307.47
233.96	2768.85
234.18	3139.54
234.40	3301.33
234.61	3753.93
234.83	2738.13
235.05	2832.34
235.27	3821.51
235.49	3528.65
235.70	2740.18
235.92	2871.25
236.14	3448.78
236.36	3747.78
236.58	2701.27
236.79	2961.36
237.01	3344.33
237.23	3256.27
237.45	3084.24
237.67	2852.82
237.88	3336.14
238.10	3641.29
238.32	2756.57
238.54	2885.59
238.76	3209.17
238.97	3151.82
239.19	2805.72
239.41	2942.93
239.63	3526.60
239.85	3164.11
240.06	2828.24
240.28	2828.24
240.50	3440.59
240.72	3270.61
240.93	2662.36
241.15	2969.55
241.37	3293.13
241.59	3530.70
241.81	2881.49
242.02	2869.20
242.24	3340.24
242.46	3403.72
242.68	2770.90
242.89	2787.29
243.11	3465.16
243.33	3280.85
243.55	2875.35
243.76	2801.62
243.98	3094.48
244.20	3205.07
244.42	2838.48
244.64	2764.76
244.85	2942.93
245.07	3110.86
245.29	2840.53
245.51	2863.06
245.72	3479.50
245.94	3553.23
246.16	2785.24
246.38	2844.63
246.59	3135.44
246.81	3164.11
247.03	2721.75
247.24	2664.41
247.46	3168.21
247.68	3272.65
247.90	2826.20
248.11	2881.49
248.33	3422.16
248.55	3278.80
248.77	2942.93
248.98	3018.71
249.20	3575.75
249.42	3319.76
249.64	2869.20
249.85	2863.06
250.07	3174.35
250.29	3342.28
250.50	2924.50
250.72	2789.33
250.94	3354.57
251.16	3803.08
251.37	2813.91
251.59	2955.22
251.81	3366.86
252.02	3526.60
252.24	2793.43
252.46	2979.79
252.68	3149.78
252.89	3094.48
253.11	2717.65
253.33	2992.08
253.54	3561.42
253.76	3096.53
253.98	2785.24
254.20	2877.40
254.41	3047.38
254.63	3256.27
254.85	2766.81
255.06	3033.04
255.28	3424.20
255.50	3239.89
255.71	2787.29
255.93	2738.13
256.15	3262.41
256.36	3368.91
256.58	2715.61
256.80	2799.57
257.02	3274.70
257.23	3123.15
257.45	2936.79
257.67	2963.41
257.88	3190.74
258.10	3391.44
258.32	2883.54
258.53	2910.16
258.75	3585.99
258.97	3168.21
259.18	2781.14
259.40	2826.20
259.62	3635.14
259.83	3504.07
260.05	2850.77
260.27	3684.30
260.48	3553.23
260.70	3092.43
260.92	2738.13
261.13	2942.93
261.35	3366.86
261.57	3405.77
261.78	2764.76
262.00	2815.96
262.22	3373.00
262.43	3078.10
262.65	2924.50
262.86	2885.59
263.08	3768.26
263.30	3241.93
263.51	2711.51
263.73	2805.72
263.95	3680.20
264.16	3065.81
264.38	2760.66
264.60	2740.18
264.81	3323.85
265.03	3438.54
265.25	3237.84
265.46	2795.48
265.68	3436.49
265.89	3534.79
266.11	2791.38
266.33	2805.72
266.54	3528.65
266.76	3348.43
266.98	2934.74
267.19	3030.99
267.41	3434.44
267.62	3319.76
267.84	2731.99
268.06	2994.13
268.27	3293.13
268.49	3518.41
268.70	2854.87
268.92	2881.49
269.14	3123.15
269.35	2983.89
269.57	2977.75
269.79	2922.45
270.00	3219.41
270.22	3614.66
270.43	2705.37
270.65	2709.46
270.87	3340.24
271.08	3424.20
271.30	2971.60
271.51	2836.44
271.73	3399.63
271.95	3530.70
272.16	2811.86
272.38	3020.75
272.59	3282.89
272.81	3348.43
273.02	2838.48
273.24	2936.79
273.46	3563.47
273.67	3145.68
273.89	2791.38
274.10	2838.48
274.32	3495.88
274.54	3213.26
274.75	2959.31
274.97	2975.70
275.18	3391.44
275.40	3360.72
275.61	2901.97
275.83	3028.95
276.05	3043.28
276.26	3291.09
276.48	2992.08
276.69	2994.13
276.91	3213.26
277.12	3538.89
277.34	3051.47
277.55	3067.86
277.77	3354.57
277.99	3145.68
278.20	2996.18
278.42	2875.35
278.63	3200.98
278.85	3082.19
279.06	2967.51
279.28	3045.33
279.49	3483.59
279.71	3389.39
279.93	3024.85
280.14	3098.58
280.36	3135.44
280.57	3526.60
280.79	3102.67
281.00	2955.22
281.22	3139.54
281.43	3532.75
281.65	2791.38
281.86	2979.79
282.08	3450.83
282.29	3637.19
282.51	2828.24
282.73	2944.98
282.94	2953.17
283.16	3432.40
283.37	3155.92
283.59	3024.85
283.80	3368.91
284.02	3299.28
284.23	3102.67
284.45	3010.51
284.66	3061.71
284.88	3096.53
285.09	2871.25
285.31	3033.04
285.52	3362.76
285.74	3014.61
285.95	3153.87
286.17	3053.52
286.38	3493.83
286.60	3172.30
286.81	2953.17
287.03	2920.40
287.24	3278.80
287.46	3430.35
287.67	3149.78
287.89	3207.12
288.10	3299.28
288.32	3262.41
288.53	3123.15
288.75	3082.19
288.96	3360.72
289.18	3123.15
289.39	2895.83
289.61	3041.23
289.82	3698.63
290.04	3672.01
290.25	2836.44
290.47	3090.38
290.68	3289.04
290.90	3446.73
291.11	2805.72
291.33	3131.34
291.54	3108.82
291.76	3237.84
291.97	3141.58
292.18	3082.19
292.40	3123.15
292.61	3170.26
292.83	3219.41
293.04	3061.71
293.26	3239.89
293.47	3278.80
293.69	2938.84
293.90	2932.69
294.12	3651.53
294.33	3284.94
294.55	3045.33
294.76	3127.25
294.97	3504.07
295.19	3723.21
295.40	3010.51
295.62	3041.23
295.83	3436.49
296.05	3174.35
296.26	3276.75
296.48	3033.04
296.69	3250.13
296.90	3235.79
297.12	3205.07
297.33	3164.11
297.55	3325.90
297.76	3321.81
297.98	3059.67
298.19	3131.34
298.41	3321.81
298.62	3162.06
298.83	3194.83
299.05	3053.52
299.26	3200.98
299.48	3057.62
299.69	3067.86
299.90	3020.75
300.12	3119.06
300.33	3434.44
300.55	2961.36
300.76	3145.68
300.98	3135.44
301.19	3344.33
301.40	2983.89
301.62	2967.51
301.83	3434.44
302.05	3231.69
302.26	3051.47
302.47	3028.95
302.69	2998.23
302.90	3200.98
303.12	2848.72
303.33	3059.67
303.54	3690.44
303.76	3162.06
303.97	2951.12
304.19	3239.89
304.40	3069.91
304.61	3303.37
304.83	3067.86
305.04	3041.23
305.26	3469.26
305.47	3155.92
305.68	3033.04
305.90	2916.31
306.11	3542.99
306.33	3250.13
306.54	2850.77
306.75	3012.56
306.97	2932.69
307.18	3084.24
307.39	3055.57
307.61	3100.62
307.82	3229.65
308.04	3350.48
308.25	2869.20
308.46	3145.68
308.68	3272.65
308.89	3217.36
309.10	3108.82
309.32	3024.85
309.53	3299.28
309.74	3307.47
309.96	2863.06
310.17	3074.00
310.39	3104.72
310.60	3436.49
310.81	3039.19
311.03	2955.22
311.24	3442.64
311.45	3243.98
311.67	3241.93
311.88	3078.10
312.09	3153.87
312.31	3106.77
312.52	2897.88
312.73	2947.03
312.95	2975.70
313.16	3153.87
313.37	3200.98
313.59	3065.81
313.80	3471.31
314.01	3633.10
314.23	2920.40
314.44	2828.24
314.65	2961.36
314.87	3076.05
315.08	3035.09
315.29	2969.55
315.51	3063.76
315.72	3016.66
315.93	3127.25
316.15	3035.09
316.36	3264.46
316.57	3334.09
316.79	2977.75
317.00	2899.92
317.21	3409.87
317.43	3092.43
317.64	2953.17
317.85	2904.02
318.07	3033.04
318.28	3153.87
318.49	3076.05
318.70	3254.22
318.92	3413.96
319.13	3364.81
319.34	3182.54
319.56	3020.75
319.77	3373.00
319.98	3399.63
320.20	3241.93
320.41	3166.16
320.62	3274.70
320.83	3033.04
321.05	3188.69
321.26	3010.51
321.47	3286.99
321.69	3459.02
321.90	2910.16
322.11	2955.22
322.32	3241.93
322.54	3616.71
322.75	3022.80
322.96	4057.03
323.18	2983.89
323.39	2959.31
323.60	2920.40
323.81	3057.62
324.03	3149.78
324.24	3321.81
324.45	3149.78
324.66	2920.40
324.88	3518.41
325.09	3559.37
325.30	3014.61
325.52	2895.83
325.73	3387.34
325.94	3094.48
326.15	2832.34
326.37	2869.20
326.58	3430.35
326.79	3561.42
327.00	2887.64
327.22	2963.41
327.43	3207.12
327.64	3143.63
327.85	3139.54
328.07	3067.86
328.28	3659.72
328.49	3200.98
328.70	3004.37
328.92	2926.55
329.13	3264.46
329.34	3387.34
329.55	3241.93
329.76	3108.82
329.98	3209.17
330.19	3424.20
330.40	2975.70
330.61	3106.77
330.83	3448.78
331.04	3063.76
331.25	3084.24
331.46	3026.90
331.68	3014.61
331.89	3448.78
332.10	3088.34
332.31	2920.40
332.52	3221.45
332.74	3487.69
332.95	2836.44
333.16	2957.27
333.37	3487.69
333.58	3149.78
333.80	3067.86
334.01	2781.14
334.22	3213.26
334.43	3133.39
334.64	2942.93
334.86	2973.65
335.07	3037.14
335.28	3540.94
335.49	2869.20
335.70	3069.91
335.92	3502.03
336.13	3704.78
336.34	2998.23
336.55	2963.41
336.76	3358.67
336.98	2895.83
337.19	3067.86
337.40	3057.62
337.61	3864.52
337.82	3276.75
338.04	3123.15
338.25	2813.91
338.46	3239.89
338.67	3221.45
338.88	2926.55
339.09	2918.36
339.31	3162.06
339.52	3014.61
339.73	2920.40
339.94	3002.32
340.15	3422.16
340.36	3174.35
340.58	3020.75
340.79	2985.94
341.00	3520.46
341.21	3033.04
341.42	3268.56
341.63	2994.13
341.85	3495.88
342.06	3340.24
342.27	2916.31
342.48	3188.69
342.69	3030.99
342.90	3403.72
343.12	3352.52
343.33	2920.40
343.54	3489.74
343.75	3629.00
343.96	3151.82
344.17	2918.36
344.38	3192.78
344.60	3067.86
344.81	2904.02
345.02	2990.03
345.23	3512.27
345.44	3729.35
345.65	3043.28
345.86	3117.01
346.07	3309.52
346.29	3127.25
346.50	3141.58
346.71	2996.18
346.92	3536.84
347.13	3764.17
347.34	3170.26
347.55	2871.25
347.76	3364.81
347.98	2934.74
348.19	3084.24
348.40	3162.06
348.61	3217.36
348.82	3526.60
349.03	3037.14
349.24	2920.40
349.45	3682.25
349.66	2924.50
349.88	2955.22
350.09	2920.40
350.30	3491.79
350.51	3538.89
350.72	3192.78
350.93	2996.18
351.14	3071.95
351.35	3334.09
351.56	3016.66
351.77	3084.24
351.99	3370.96
352.20	3542.99
352.41	3088.34
352.62	2836.44
352.83	3289.04
353.04	3270.61
353.25	2942.93
353.46	3051.47
353.67	3491.79
353.88	2861.01
354.09	2998.23
354.30	3049.43
354.52	3352.52
354.73	3239.89
354.94	2938.84
355.15	3024.85
355.36	3710.92
355.57	3172.30
355.78	2906.07
355.99	3020.75
356.20	3239.89
356.41	3528.65
356.62	3033.04
356.83	3039.19
357.04	3565.51
357.25	2901.97
357.46	3012.56
357.68	2885.59
357.89	3090.38
358.10	3321.81
358.31	2932.69
358.52	3049.43
358.73	3082.19
358.94	3022.80
359.15	2959.31
359.36	3057.62
359.57	3330.00
359.78	3223.50
359.99	3200.98
360.20	2904.02
360.41	3243.98
360.62	3317.71
360.83	3047.38
361.04	3084.24
361.25	3344.33
361.46	3631.05
361.67	3114.96
361.88	2996.18
362.09	3450.83
362.30	3272.65
362.51	2928.60
362.72	3094.48
362.93	3448.78
363.14	3393.48
363.35	3209.17
363.56	2897.88
363.78	3540.94
363.99	3516.36
364.20	3004.37
364.41	3074.00
364.62	3725.26
364.83	3385.29
365.04	2975.70
365.25	3020.75
365.46	3708.87
365.67	3100.62
365.88	3221.45
366.09	2942.93
366.30	3221.45
366.51	3377.10
366.72	2916.31
366.93	2967.51
367.14	3272.65
367.35	3532.75
367.56	2973.65
367.77	3168.21
367.98	3327.95
368.18	3389.39
368.39	3155.92
368.60	2885.59
368.81	3434.44
369.02	3373.00
369.23	3090.38
369.44	2801.62
369.65	3209.17
369.86	3360.72
370.07	3164.11
370.28	2863.06
370.49	3282.89
370.70	3286.99
370.91	2959.31
371.12	2852.82
371.33	3411.92
371.54	3065.81
371.75	3129.30
371.96	2779.09
372.17	3375.05
372.38	3223.50
372.59	3043.28
372.80	2983.89
373.01	3215.31
373.22	3360.72
373.43	3018.71
373.64	2959.31
373.85	3594.19
374.06	3622.86
374.26	3260.37
374.47	3059.67
374.68	3629.00
374.89	3409.87
375.10	2869.20
375.31	3065.81
375.52	3317.71
375.73	3217.36
375.94	2877.40
376.15	3069.91
376.36	3184.59
376.57	3264.46
376.78	3037.14
376.99	3067.86
377.20	3545.03
377.40	3174.35
377.61	3246.03
377.82	3037.14
378.03	3608.52
378.24	3416.01
378.45	3139.54
378.66	3033.04
378.87	2918.36
379.08	3026.90
379.29	2961.36
379.50	3160.02
379.71	3213.26
379.91	3280.85
380.12	2975.70
380.33	3106.77
380.54	3295.18
380.75	3321.81
380.96	2973.65
381.17	3076.05
381.38	3262.41
381.59	3274.70
381.80	3074.00
382.00	3147.73
382.21	3352.52
382.42	3575.75
382.63	3373.00
382.84	3133.39
383.05	3399.63
383.26	3499.98
383.47	3151.82
383.68	2961.36
383.88	3397.58
384.09	3258.32
384.30	3264.46
384.51	3164.11
384.72	3246.03
384.93	2981.84
385.14	3125.20
385.35	3246.03
385.55	3030.99
385.76	3442.64
385.97	3030.99
386.18	2918.36
386.39	3198.93
386.60	3133.39
386.81	2953.17
387.02	2885.59
387.22	3069.91
387.43	3401.68
387.64	3123.15
387.85	3278.80
388.06	3311.57
388.27	4376.51
388.48	7690.12
388.68	11949.90
388.89	14880.54
389.10	16387.85
389.31	16074.51
389.52	12808.00
389.73	11083.61
389.93	10415.97
390.14	9187.19
390.35	8624.00
390.56	7894.92
390.77	6580.12
390.98	4960.18
391.18	4265.92
391.39	3930.05
391.60	3350.48
391.81	3252.17
392.02	3043.28
392.23	3792.84
392.43	3250.13
392.64	3182.54
392.85	3090.38
393.06	3561.42
393.27	3235.79
393.47	3035.09
393.68	3037.14
393.89	3174.35
394.10	3450.83
394.31	2992.08
394.52	2967.51
394.72	3198.93
394.93	3561.42
395.14	2883.54
395.35	3151.82
395.56	3172.30
395.76	3289.04
395.97	3012.56
396.18	3129.30
396.39	3268.56
396.60	3954.63
396.80	3383.24
397.01	3274.70
397.22	3534.79
397.43	3524.55
397.64	3094.48
397.84	3188.69
398.05	3674.06
398.26	3237.84
398.47	3127.25
398.67	3198.93
398.88	3315.66
399.09	3409.87
399.30	3035.09
399.51	3082.19
399.71	3139.54
399.92	3254.22
400.13	3106.77
400.34	2975.70
400.54	3270.61
400.75	3549.13
400.96	3250.13
401.17	3368.91
401.37	3385.29
401.58	3192.78
401.79	2998.23
402.00	3149.78
402.21	3786.69
402.41	3497.93
402.62	3401.68
402.83	3502.03
403.04	3690.44
403.24	4054.98
403.45	3108.82
403.66	3356.62
403.87	3469.26
404.07	3624.90
404.28	3297.23
404.49	3297.23
404.70	3321.81
404.90	3385.29
405.11	3074.00
405.32	3098.58
405.52	3176.40
405.73	3172.30
405.94	2961.36
406.15	3117.01
406.35	3407.82
406.56	3522.51
406.77	3074.00
406.98	3080.14
407.18	3246.03
407.39	3604.42
407.60	3080.14
407.80	3149.78
408.01	3094.48
408.22	3409.87
408.43	2914.26
408.63	3149.78
408.84	3450.83
409.05	3428.30
409.25	2934.74
409.46	2998.23
409.67	3176.40
409.88	3217.36
410.08	3135.44
410.29	3049.43
410.50	3477.45
410.70	3381.20
410.91	2865.11
411.12	3135.44
411.32	3274.70
411.53	3057.62
411.74	3041.23
411.95	3094.48
412.15	3360.72
412.36	3352.52
412.57	3211.22
412.77	3278.80
412.98	3348.43
413.19	3149.78
413.39	3190.74
413.60	3080.14
413.81	3522.51
414.01	3106.77
414.22	3084.24
414.43	3264.46
414.63	3143.63
414.84	3485.64
415.05	3098.58
415.25	2942.93
415.46	3428.30
415.67	3241.93
415.87	3133.39
416.08	3057.62
416.29	3286.99
416.49	3368.91
416.70	3125.20
416.91	2994.13
417.11	3217.36
417.32	3473.36
417.53	3143.63
417.73	3135.44
417.94	3254.22
418.15	3276.75
418.35	3063.76
418.56	3024.85
418.77	3733.45
418.97	3286.99
419.18	3143.63
419.38	2783.19
419.59	3254.22
419.80	3540.94
420.00	2979.79
420.21	3065.81
420.42	3567.56
420.62	3373.00
420.83	3084.24
421.04	3026.90
421.24	3327.95
421.45	3475.40
421.65	3067.86
421.86	3041.23
422.07	3391.44
422.27	3397.58
422.48	2924.50
422.69	2885.59
422.89	3262.41
423.10	3291.09
423.30	2996.18
423.51	3125.20
423.72	3332.05
423.92	3411.92
424.13	2938.84
424.33	3190.74
424.54	3499.98
424.75	3278.80
424.95	3219.41
425.16	2963.41
425.36	3227.60
425.57	3463.12
425.78	3172.30
425.98	3127.25
426.19	3213.26
426.39	3033.04
426.60	3157.97
426.81	3160.02
427.01	3364.81
427.22	3133.39
427.42	2918.36
427.63	3039.19
427.83	3461.07
428.04	3577.80
428.25	3162.06
428.45	3217.36
428.66	3452.88
428.86	3213.26
429.07	3112.91
429.28	3090.38
429.48	3239.89
429.69	3106.77
429.89	3063.76
430.10	2971.60
430.30	3332.05
430.51	3561.42
430.71	2953.17
430.92	3065.81
431.13	3176.40
431.33	3475.40
431.54	3088.34
431.74	3278.80
431.95	3717.06
432.15	3067.86
432.36	3065.81
432.56	3090.38
432.77	3778.50
432.98	3594.19
433.18	3090.38
433.39	2959.31
433.59	3276.75
433.80	3688.39
434.00	3379.15
434.21	3112.91
434.41	3088.34
434.62	3737.54
434.82	2951.12
435.03	2947.03
435.23	3348.43
435.44	2961.36
435.64	3020.75
435.85	3114.96
436.06	3438.54
436.26	3430.35
436.47	3061.71
436.67	3037.14
436.88	3205.07
437.08	3446.73
437.29	3178.45
437.49	3157.97
437.70	3528.65
437.90	3268.56
438.11	3241.93
438.31	3123.15
438.52	3477.45
438.72	3499.98
438.93	3362.76
439.13	3162.06
439.34	3409.87
439.54	3297.23
439.75	3147.73
439.95	3157.97
440.16	3192.78
440.36	3221.45
440.57	3082.19
440.77	3024.85
440.98	3262.41
441.18	3411.92
441.39	2987.99
441.59	2944.98
441.80	3647.43
442.00	3278.80
442.21	3123.15
442.41	2875.35
442.62	3495.88
442.82	3157.97
443.02	3018.71
443.23	3121.10
443.43	3241.93
443.64	3608.52
443.84	2979.79
444.05	3129.30
444.25	3270.61
444.46	3243.98
444.66	2977.75
444.87	3270.61
445.07	3055.57
445.28	3168.21
445.48	3170.26
445.69	3192.78
445.89	3864.52
446.09	3211.22
446.30	3309.52
446.50	3532.75
446.71	4966.32
446.91	6213.54
447.12	7126.93
447.32	7575.44
447.53	7514.00
447.73	6305.70
447.93	5468.08
448.14	5279.66
448.34	5492.65
448.55	4390.84
448.75	4464.57
448.96	4147.14
449.16	4118.47
449.36	3985.35
449.57	3346.38
449.77	3174.35
449.98	3227.60
450.18	3403.72
450.39	2967.51
450.59	3258.32
450.79	3252.17
451.00	3174.35
451.20	3286.99
451.41	3063.76
451.61	3452.88
451.81	3225.55
452.02	3030.99
452.22	3069.91
452.43	3186.64
452.63	3092.43
452.84	3129.30
453.04	3047.38
453.24	3317.71
453.45	3094.48
453.65	3069.91
453.86	3110.86
454.06	3327.95
454.26	3289.04
454.47	2985.94
454.67	3274.70
454.87	3334.09
455.08	3237.84
455.28	3233.74
455.49	3176.40
455.69	3225.55
455.89	3676.10
456.10	3190.74
456.30	3026.90
456.51	3379.15
456.71	3442.64
456.91	3200.98
457.12	3188.69
457.32	3368.91
457.52	3094.48
457.73	3205.07
457.93	3203.02
458.14	3157.97
458.34	2904.02
458.54	3051.47
458.75	3065.81
458.95	3512.27
459.15	3450.83
459.36	3188.69
459.56	3051.47
459.76	3725.26
459.97	3182.54
460.17	3139.54
460.37	3121.10
460.58	3217.36
460.78	3375.05
460.99	3088.34
461.19	3037.14
461.39	3235.79
461.60	3241.93
461.80	3090.38
462.00	2906.07
462.21	3358.67
462.41	3129.30
462.61	2885.59
462.82	2848.72
463.02	3375.05
463.22	3311.57
463.43	3164.11
463.63	3008.47
463.83	3583.95
464.04	3358.67
464.24	3092.43
464.44	3057.62
464.64	3354.57
464.85	3483.59
465.05	3065.81
465.25	2947.03
465.46	3139.54
465.66	3405.77
465.86	3135.44
466.07	2987.99
466.27	3198.93
466.47	2934.74
466.68	2906.07
466.88	3231.69
467.08	3399.63
467.29	3485.64
467.49	3080.14
467.69	3219.41
467.89	3430.35
468.10	3258.32
468.30	3168.21
468.50	3110.86
468.71	3344.33
468.91	2965.46
469.11	3274.70
469.31	3166.16
469.52	3192.78
469.72	3682.25
469.92	3233.74
470.13	3098.58
470.33	3256.27
470.53	3411.92
470.73	3471.31
470.94	3915.72
471.14	4122.56
471.34	4771.77
471.54	4247.49
471.75	3958.72
471.95	3788.74
472.15	3743.69
472.36	3772.36
472.56	3551.18
472.76	3866.56
472.96	3768.26
473.17	3430.35
473.37	3231.69
473.57	3213.26
473.77	3442.64
473.98	3168.21
474.18	3004.37
474.38	3985.35
474.58	3149.78
474.79	2906.07
474.99	3160.02
475.19	3592.14
475.39	3102.67
475.60	3143.63
475.80	2977.75
476.00	3362.76
476.20	3207.12
476.41	3133.39
476.61	3166.16
476.81	3588.04
477.01	3135.44
477.21	3438.54
477.42	3176.40
477.62	3162.06
477.82	3481.55
478.02	2959.31
478.23	3117.01
478.43	3084.24
478.63	3129.30
478.83	3049.43
479.03	3123.15
479.24	3575.75
479.44	3737.54
479.64	2983.89
479.84	2830.29
480.04	3127.25
480.25	3495.88
480.45	2953.17
480.65	3000.27
480.85	3663.82
481.06	3190.74
481.26	3233.74
481.46	3049.43
481.66	3469.26
481.86	3127.25
482.06	3252.17
482.27	3108.82
482.47	3200.98
482.67	3379.15
482.87	3010.51
483.07	3078.10
483.28	3297.23
483.48	3043.28
483.68	2961.36
483.88	2934.74
484.08	2938.84
484.29	3049.43
484.49	3170.26
484.69	2922.45
484.89	3651.53
485.09	3434.44
485.29	3057.62
485.50	3250.13
485.70	3184.59
485.90	3604.42
486.10	3266.51
486.30	3039.19
486.50	3538.89
486.71	3293.13
486.91	3151.82
487.11	3219.41
487.31	3053.52
487.51	3336.14
487.71	2953.17
487.91	2992.08
488.12	3209.17
488.32	2815.96
488.52	3024.85
488.72	2789.33
488.92	3297.23
489.12	3463.12
489.32	3178.45
489.53	3028.95
489.73	3047.38
489.93	3688.39
490.13	3061.71
490.33	2990.03
490.53	3258.32
490.73	3430.35
490.94	2834.39
491.14	3145.68
491.34	3430.35
491.54	3563.47
491.74	4024.26
491.94	4442.04
492.14	5103.54
492.34	5121.97
492.54	4712.38
492.75	4157.38
492.95	4302.78
493.15	4122.56
493.35	3811.27
493.55	3755.97
493.75	3737.54
493.95	3778.50
494.15	3358.67
494.35	3254.22
494.56	3272.65
494.76	3137.49
494.96	3213.26
495.16	2983.89
495.36	3315.66
495.56	3311.57
495.76	3147.73
495.96	3133.39
496.16	3061.71
496.36	3717.06
496.56	2990.03
496.77	3174.35
496.97	3344.33
497.17	3549.13
497.37	2844.63
497.57	3139.54
497.77	3395.53
497.97	3074.00
498.17	3098.58
498.37	3061.71
498.57	3393.48
498.77	3153.87
498.97	3188.69
499.17	3426.25
499.38	3168.21
499.58	3395.53
499.78	3276.75
499.98	3262.41
500.18	3188.69
500.38	3129.30
500.58	3248.08
500.78	3676.10
500.98	6086.56
501.18	8175.49
501.38	9752.43
501.58	10635.10
501.78	10792.80
501.98	9156.47
502.18	7679.88
502.38	6492.06
502.58	6360.99
502.78	5566.38
502.98	5384.11
503.18	5156.79
503.38	4966.32
503.59	4110.27
503.79	4075.46
503.99	3721.16
504.19	3831.75
504.39	3942.34
504.59	3614.66
504.79	3663.82
504.99	4050.88
505.19	3598.28
505.39	3321.81
505.59	3555.27
505.79	3659.72
505.99	3524.55
506.19	3086.29
506.39	3360.72
506.59	3225.55
506.79	3270.61
506.99	3319.76
507.19	2977.75
507.39	3370.96
507.59	2992.08
507.79	3069.91
507.99	3057.62
508.19	3262.41
508.39	3178.45
508.59	3041.23
508.79	3241.93
508.99	3710.92
509.19	3090.38
509.39	3125.20
509.59	2983.89
509.79	3129.30
509.99	3321.81
510.19	3254.22
510.39	3227.60
510.59	3262.41
510.79	3117.01
510.99	2920.40
511.19	3008.47
511.39	3559.37
511.59	3592.14
511.79	3256.27
511.99	2987.99
512.19	3735.50
512.38	3323.85
512.58	2944.98
512.78	3059.67
512.98	3573.71
513.18	3723.21
513.38	3035.09
513.58	3143.63
513.78	3229.65
513.98	3203.02
514.18	3067.86
514.38	3033.04
514.58	3211.22
514.78	3102.67
514.98	2990.03
515.18	3065.81
515.38	3090.38
515.58	3614.66
515.78	3045.33
515.98	3086.29
516.18	3327.95
516.38	3198.93
516.57	3039.19
516.77	3119.06
516.97	3346.38
517.17	3211.22
517.37	2883.54
517.57	3020.75
517.77	3200.98
517.97	3153.87
518.17	3123.15
518.37	2967.51
518.57	3141.58
518.77	3194.83
518.97	3055.57
519.16	3071.95
519.36	3477.45
519.56	3155.92
519.76	2981.84
519.96	3123.15
520.16	3536.84
520.36	3110.86
520.56	3157.97
520.76	3039.19
520.96	3241.93
521.16	3547.08
521.35	3272.65
521.55	3215.31
521.75	3305.42
521.95	3094.48
522.15	3074.00
522.35	2953.17
522.55	3117.01
522.75	3440.59
522.95	2926.55
523.14	2885.59
523.34	3155.92
523.54	3092.43
523.74	3178.45
523.94	3123.15
524.14	2959.31
524.34	3381.20
524.54	3270.61
524.73	3020.75
524.93	3395.53
525.13	3295.18
525.33	2914.26
525.53	3307.47
525.73	3416.01
525.93	3311.57
526.13	3104.72
526.32	3002.32
526.52	3553.23
526.72	3352.52
526.92	3092.43
527.12	2959.31
527.32	3035.09
527.52	3395.53
527.71	3051.47
527.91	3133.39
528.11	3196.88
528.31	3293.13
528.51	3149.78
528.71	3164.11
528.90	3420.11
529.10	3479.50
529.30	3041.23
529.50	2809.81
529.70	3332.05
529.90	3155.92
530.09	3106.77
530.29	2947.03
530.49	3127.25
530.69	3915.72
530.89	3182.54
531.09	3196.88
531.28	3254.22
531.48	3475.40
531.68	2975.70
531.88	3074.00
532.08	3463.12
532.28	3348.43
532.47	3076.05
532.67	3119.06
532.87	3327.95
533.07	3090.38
533.27	3080.14
533.46	3080.14
533.66	3352.52
533.86	3229.65
534.06	3090.38
534.26	2983.89
534.45	3239.89
534.65	3495.88
534.85	3160.02
535.05	2987.99
535.25	3446.73
535.44	3033.04
535.64	3102.67
535.84	3104.72
536.04	3227.60
536.24	3221.45
536.43	2926.55
536.63	2973.65
536.83	3129.30
537.03	3258.32
537.22	2922.45
537.42	2861.01
537.62	3239.89
537.82	3129.30
538.02	3151.82
538.21	3117.01
538.41	3815.37
538.61	3342.28
538.81	3125.20
539.00	3211.22
539.20	2983.89
539.40	3268.56
539.60	3030.99
539.79	3258.32
539.99	3307.47
540.19	3035.09
540.39	3024.85
540.58	3141.58
540.78	3356.62
540.98	3307.47
541.18	3301.33
541.37	3088.34
541.57	3336.14
541.77	3344.33
541.97	2973.65
542.16	2863.06
542.36	3106.77
542.56	3057.62
542.76	3286.99
542.95	3168.21
543.15	3377.10
543.35	3395.53
543.54	2996.18
543.74	2998.23
543.94	3588.04
544.14	3176.40
544.33	3180.50
544.53	3014.61
544.73	3282.89
544.93	3258.32
545.12	3012.56
545.32	3082.19
545.52	3205.07
545.71	3033.04
545.91	3018.71
546.11	3024.85
546.30	3133.39
546.50	3278.80
546.70	3092.43
546.90	3057.62
547.09	2928.60
547.29	3231.69
547.49	3254.22
547.68	2975.70
547.88	3131.34
548.08	3440.59
548.27	3360.72
548.47	3061.71
548.67	3123.15
548.87	3297.23
549.06	3057.62
549.26	2953.17
549.46	3301.33
549.65	3092.43
549.85	3092.43
550.05	3014.61
550.24	3086.29
550.44	3286.99
550.64	3170.26
550.83	3182.54
551.03	3598.28
551.23	3438.54
551.42	3139.54
551.62	3225.55
551.82	3223.50
552.01	3243.98
552.21	3389.39
552.41	3155.92
552.60	3512.27
552.80	3309.52
553.00	3051.47
553.19	3121.10
553.39	3672.01
553.59	3035.09
553.78	3164.11
553.98	3100.62
554.17	3041.23
554.37	3368.91
554.57	3071.95
554.76	2938.84
554.96	3215.31
555.16	3258.32
555.35	3125.20
555.55	3262.41
555.75	3330.00
555.94	3420.11
556.14	2893.78
556.33	3092.43
556.53	3141.58
556.73	3254.22
556.92	3082.19
557.12	3045.33
557.32	3721.16
557.51	3575.75
557.71	3104.72
557.90	3270.61
558.10	3530.70
558.30	3184.59
558.49	3045.33
558.69	3092.43
558.88	3387.34
559.08	3332.05
559.28	2981.84
559.47	3082.19
559.67	3389.39
559.86	3678.15
560.06	3030.99
560.26	3037.14
560.45	3385.29
560.65	3278.80
560.84	3409.87
561.04	2926.55
561.24	3379.15
561.43	3071.95
561.63	3309.52
561.82	3166.16
562.02	3403.72
562.22	3137.49
562.41	2963.41
562.61	3053.52
562.80	3063.76
563.00	3768.26
563.19	3164.11
563.39	3174.35
563.59	3440.59
563.78	3033.04
563.98	2875.35
564.17	3090.38
564.37	3035.09
564.56	3274.70
564.76	2916.31
564.96	3235.79
565.15	3313.61
565.35	3702.73
565.54	3069.91
565.74	3049.43
565.93	3418.06
566.13	3211.22
566.32	3143.63
566.52	3225.55
566.71	3266.51
566.91	3450.83
567.11	3225.55
567.30	2983.89
567.50	3350.48
567.69	3338.19
567.89	3071.95
568.08	3033.04
568.28	3348.43
568.47	3055.57
568.67	3076.05
568.86	3049.43
569.06	3438.54
569.25	3180.50
569.45	2936.79
569.64	3074.00
569.84	3248.08
570.04	3262.41
570.23	3098.58
570.43	3131.34
570.62	3340.24
570.82	3534.79
571.01	2987.99
571.21	2992.08
571.40	3123.15
571.60	3360.72
571.79	3211.22
571.99	3086.29
572.18	3045.33
572.38	3336.14
572.57	3084.24
572.77	3106.77
572.96	3864.52
573.16	3291.09
573.35	3090.38
573.55	3258.32
573.74	3219.41
573.94	3114.96
574.13	3127.25
574.33	3145.68
574.52	3508.17
574.71	3213.26
574.91	3168.21
575.10	2895.83
575.30	3233.74
575.49	3055.57
575.69	2914.26
575.88	3102.67
576.08	3225.55
576.27	3456.97
576.47	3012.56
576.66	3229.65
576.86	3604.42
577.05	3272.65
577.25	3121.10
577.44	3229.65
577.64	3149.78
577.83	3536.84
578.02	3100.62
578.22	3264.46
578.41	3616.71
578.61	3225.55
578.80	2863.06
579.00	3053.52
579.19	3305.42
579.39	3352.52
579.58	3137.49
579.77	3043.28
579.97	3618.76
580.16	3407.82
580.36	3258.32
580.55	3176.40
580.75	3420.11
580.94	3266.51
581.13	3264.46
581.33	3270.61
581.52	3241.93
581.72	3678.15
581.91	3198.93
582.11	3047.38
582.30	3518.41
582.49	3362.76
582.69	3393.48
582.88	3080.14
583.08	3305.42
583.27	3452.88
583.47	3198.93
583.66	3033.04
583.85	3061.71
584.05	3168.21
584.24	3164.11
584.44	3082.19
584.63	3524.55
584.82	3510.22
585.02	3330.00
585.21	3268.56
585.41	3426.25
585.60	3282.89
585.79	3309.52
585.99	3430.35
586.18	3377.10
586.37	4255.68
586.57	6336.42
586.76	17819.38
586.96	36988.36
587.15	50556.16
587.34	58838.14
587.54	62907.46
587.73	55956.65
587.93	40615.32
588.12	30717.48
588.31	25290.37
588.51	22535.85
588.70	20709.06
588.89	18489.06
589.09	15933.20
589.28	13512.50
589.47	10694.49
589.67	8050.57
589.86	6492.06
590.06	4982.71
590.25	4401.08
590.44	3819.46
590.64	3524.55
590.83	3542.99
591.02	3536.84
591.22	3024.85
591.41	3196.88
591.60	3362.76
591.80	3815.37
591.99	2981.84
592.18	3057.62
592.38	3440.59
592.57	3149.78
592.76	3094.48
592.96	3213.26
593.15	3268.56
593.34	3581.90
593.54	3137.49
593.73	3233.74
593.92	3373.00
594.12	3370.96
594.31	3131.34
594.50	3284.94
594.70	3469.26
594.89	3844.04
595.08	2940.88
595.28	3149.78
595.47	3975.11
595.66	3436.49
595.86	3000.27
596.05	2983.89
596.24	3241.93
596.43	3712.97
596.63	3176.40
596.82	3264.46
597.01	3409.87
597.21	3647.43
597.40	3069.91
597.59	3071.95
597.79	3311.57
597.98	3385.29
598.17	3151.82
598.36	3192.78
598.56	3391.44
598.75	3215.31
598.94	3084.24
599.14	3123.15
599.33	3200.98
599.52	3424.20
599.71	3094.48
599.91	3041.23
600.10	3411.92
600.29	3356.62
600.48	3205.07
600.68	3205.07
600.87	3352.52
601.06	3168.21
601.26	3182.54
601.45	3219.41
601.64	3270.61
601.83	3565.51
602.03	2992.08
602.22	3000.27
602.41	3495.88
602.60	3815.37
602.80	3129.30
602.99	3321.81
603.18	3196.88
603.37	3327.95
603.57	2985.94
603.76	3141.58
603.95	3499.98
604.14	3266.51
604.34	3090.38
604.53	3035.09
604.72	3256.27
604.91	3389.39
605.10	3098.58
605.30	2983.89
605.49	3717.06
605.68	3401.68
605.87	3125.20
606.07	2990.03
606.26	3286.99
606.45	3448.78
606.64	3153.87
606.84	2985.94
607.03	3276.75
607.22	3413.96
607.41	3090.38
607.60	3047.38
607.80	3434.44
607.99	3307.47
608.18	3082.19
608.37	3127.25
608.56	3172.30
608.76	3483.59
608.95	3254.22
609.14	3143.63
609.33	3600.33
609.52	3651.53
609.72	3266.51
609.91	3262.41
610.10	3373.00
610.29	3575.75
610.48	3264.46
610.68	3190.74
610.87	3278.80
611.06	3444.68
611.25	3045.33
611.44	3192.78
611.63	3205.07
611.83	3629.00
612.02	2983.89
612.21	3229.65
612.40	2910.16
612.59	3166.16
612.79	3030.99
612.98	3098.58
613.17	3655.62
613.36	3327.95
613.55	3198.93
613.74	3108.82
613.93	3350.48
614.13	3418.06
614.32	3280.85
614.51	3209.17
614.70	3307.47
614.89	3235.79
615.08	3272.65
615.28	3475.40
615.47	3129.30
615.66	3422.16
615.85	3119.06
616.04	3215.31
616.23	3313.61
616.42	3256.27
616.62	3135.44
616.81	3094.48
617.00	3370.96
617.19	3403.72
617.38	3180.50
617.57	3162.06
617.76	3493.83
617.95	3475.40
618.15	3215.31
618.34	3317.71
618.53	2940.88
618.72	3526.60
618.91	3160.02
619.10	3231.69
619.29	3340.24
619.48	3241.93
619.68	2985.94
619.87	3065.81
620.06	3000.27
620.25	3356.62
620.44	3082.19
620.63	3166.16
620.82	3344.33
621.01	3262.41
621.20	3110.86
621.39	3198.93
621.59	3342.28
621.78	3209.17
621.97	3090.38
622.16	3252.17
622.35	3348.43
622.54	3473.36
622.73	3071.95
622.92	2895.83
623.11	3463.12
623.30	3186.64
623.49	3170.26
623.68	2928.60
623.88	3565.51
624.07	3110.86
624.26	2973.65
624.45	3004.37
624.64	3200.98
624.83	3346.38
625.02	3092.43
625.21	3147.73
625.40	3354.57
625.59	3626.95
625.78	3098.58
625.97	3166.16
626.16	3563.47
626.35	3450.83
626.54	3082.19
626.74	3293.13
626.93	3205.07
627.12	3233.74
627.31	3096.53
627.50	3041.23
627.69	3442.64
627.88	3104.72
628.07	3047.38
628.26	2908.12
628.45	3084.24
628.64	3135.44
628.83	3045.33
629.02	2940.88
629.21	3377.10
629.40	3354.57
629.59	2908.12
629.78	3004.37
629.97	3217.36
630.16	3317.71
630.35	3033.04
630.54	3174.35
630.73	3184.59
630.92	3256.27
631.11	2992.08
631.30	3102.67
631.49	3514.31
631.68	3223.50
631.87	3098.58
632.06	3008.47
632.25	3774.41
632.44	3411.92
632.63	3106.77
632.82	3147.73
633.01	3112.91
633.20	3330.00
633.39	3123.15
633.58	2875.35
633.77	3366.86
633.96	3350.48
634.15	3198.93
634.34	3149.78
634.53	3375.05
634.72	3217.36
634.91	2922.45
635.10	3123.15
635.29	3373.00
635.48	3334.09
635.67	2992.08
635.86	2922.45
636.05	3553.23
636.24	3332.05
636.43	3043.28
636.62	3131.34
636.81	2834.39
637.00	3307.47
637.19	3043.28
637.38	3131.34
637.57	3207.12
637.76	3219.41
637.95	3297.23
638.14	3262.41
638.33	3321.81
638.52	3373.00
638.71	2992.08
638.89	2996.18
639.08	3856.33
639.27	3569.61
639.46	3356.62
639.65	3755.97
639.84	3852.23
640.03	4042.69
640.22	3663.82
640.41	3569.61
640.60	3364.81
640.79	3583.95
640.98	3207.12
641.17	3311.57
641.36	3555.27
641.55	3448.78
641.74	3037.14
641.92	3022.80
642.11	3119.06
642.30	3225.55
642.49	2940.88
642.68	3076.05
642.87	3303.37
643.06	3370.96
643.25	2967.51
643.44	2992.08
643.63	3174.35
643.82	3370.96
644.00	2977.75
644.19	3149.78
644.38	3002.32
644.57	3450.83
644.76	3076.05
644.95	3184.59
645.14	3305.42
645.33	3243.98
645.52	3127.25
645.71	2893.78
645.89	3084.24
646.08	3233.74
646.27	3164.11
646.46	3260.37
646.65	3067.86
646.84	3315.66
647.03	2967.51
647.22	3280.85
647.40	3325.90
647.59	3151.82
647.78	2883.54
647.97	3110.86
648.16	3078.10
648.35	3616.71
648.54	3368.91
648.73	3155.92
648.91	3434.44
649.10	3325.90
649.29	2938.84
649.48	2947.03
649.67	3321.81
649.86	3364.81
650.05	3164.11
650.23	3192.78
650.42	3243.98
650.61	3557.32
650.80	3274.70
650.99	3358.67
651.18	3485.64
651.36	3545.03
651.55	3051.47
651.74	3299.28
651.93	3250.13
652.12	3207.12
652.31	3112.91
652.49	3180.50
652.68	3235.79
652.87	3612.62
653.06	3114.96
653.25	3330.00
653.44	3233.74
653.62	3647.43
653.81	3094.48
654.00	3149.78
654.19	3454.92
654.38	3819.46
654.56	3170.26
654.75	2992.08
654.94	3493.83
655.13	3323.85
655.32	3086.29
655.51	3141.58
655.69	3053.52
655.88	3409.87
656.07	2901.97
656.26	3127.25
656.45	3098.58
656.63	3276.75
656.82	3084.24
657.01	3327.95
657.20	3174.35
657.38	3606.47
657.57	3114.96
657.76	2897.88
657.95	3479.50
658.14	3145.68
658.32	3221.45
658.51	2992.08
658.70	3299.28
658.89	3293.13
659.08	3104.72
659.26	3280.85
659.45	3024.85
659.64	3344.33
659.83	3151.82
660.01	3475.40
660.20	3252.17
660.39	3614.66
660.58	2820.05
660.76	3174.35
660.95	2987.99
661.14	3317.71
661.33	3049.43
661.51	3084.24
661.70	3217.36
661.89	3313.61
662.08	3123.15
662.26	2959.31
662.45	3102.67
662.64	3633.10
662.83	3094.48
663.01	2985.94
663.20	3182.54
663.39	3553.23
663.58	3149.78
663.76	3080.14
663.95	3397.58
664.14	3119.06
664.32	3129.30
664.51	3043.28
664.70	2934.74
664.89	3368.91
665.07	2844.63
665.26	3200.98
665.45	3022.80
665.64	3450.83
665.82	3110.86
666.01	3239.89
666.20	3055.57
666.38	3377.10
666.57	3430.35
666.76	5539.76
666.95	12955.45
667.13	20330.19
667.32	24708.74
667.51	27788.89
667.69	28728.91
667.88	23983.76
668.07	17254.14
668.25	14554.91
668.44	12769.09
668.63	11145.05
668.81	9643.88
669.00	8359.81
669.19	7610.25
669.38	6780.82
669.56	5758.89
669.75	4999.09
669.94	4384.70
670.12	3893.19
670.31	3411.92
670.50	3381.20
670.68	3545.03
670.87	3327.95
671.06	3100.62
671.24	3213.26
671.43	3542.99
671.62	3377.10
671.80	3053.52
671.99	3278.80
672.18	3301.33
672.36	3569.61
672.55	3307.47
672.74	3098.58
672.92	3280.85
673.11	3469.26
673.29	3000.27
673.48	3272.65
673.67	3246.03
673.85	3450.83
674.04	2973.65
674.23	3129.30
674.41	3663.82
674.60	3057.62
674.79	2885.59
674.97	2951.12
675.16	3477.45
675.34	3438.54
675.53	2985.94
675.72	3117.01
675.90	3626.95
676.09	3174.35
676.28	3149.78
676.46	2987.99
676.65	3411.92
676.83	3096.53
677.02	3149.78
677.21	3149.78
677.39	3278.80
677.58	3086.29
677.77	3078.10
677.95	3024.85
678.14	3235.79
678.32	3190.74
678.51	3137.49
678.70	3373.00
678.88	3137.49
679.07	3307.47
679.25	3057.62
679.44	3098.58
679.63	2994.13
679.81	3280.85
680.00	3307.47
680.18	3164.11
680.37	3567.56
680.55	3426.25
680.74	2920.40
680.93	2891.73
681.11	3311.57
681.30	3254.22
681.48	3110.86
681.67	3098.58
681.85	3315.66
682.04	3106.77
682.23	3258.32
682.41	3178.45
682.60	3235.79
682.78	3235.79
682.97	3117.01
683.15	3086.29
683.34	3309.52
683.53	3565.51
683.71	2904.02
683.90	3086.29
684.08	3663.82
684.27	3133.39
684.45	3209.17
684.64	3200.98
684.82	3270.61
685.01	3348.43
685.19	3078.10
685.38	3477.45
685.57	3282.89
685.75	3129.30
685.94	3035.09
686.12	2963.41
686.31	3139.54
686.49	3575.75
686.68	2842.58
686.86	3086.29
687.05	3231.69
687.23	3528.65
687.42	3055.57
687.60	2930.64
687.79	3512.27
687.97	3536.84
688.16	3203.02
688.34	3272.65
688.53	2994.13
688.71	3346.38
688.90	3422.16
689.08	3184.59
689.27	2949.08
689.45	3422.16
689.64	3307.47
689.82	3229.65
690.01	3426.25
690.19	3311.57
690.38	3221.45
690.56	3196.88
690.75	3071.95
690.93	3141.58
691.12	3026.90
691.30	3086.29
691.49	3231.69
691.67	3260.37
691.86	3430.35
692.04	3090.38
692.23	3190.74
692.41	3182.54
692.60	3524.55
692.78	3356.62
692.97	3293.13
693.15	3401.68
693.34	3352.52
693.52	3282.89
693.71	3078.10
693.89	3145.68
694.08	2887.64
694.26	3198.93
694.44	3436.49
694.63	3424.20
694.81	2889.68
695.00	3139.54
695.18	3526.60
695.37	3735.50
695.55	3237.84
695.74	3250.13
695.92	3127.25
696.10	3434.44
696.29	2961.36
696.47	3057.62
696.66	3051.47
696.84	3006.42
697.03	3104.72
697.21	3360.72
697.40	4624.31
697.58	3456.97
697.76	3061.71
697.95	3143.63
698.13	3065.81
698.32	3160.02
698.50	3074.00
698.68	3100.62
698.87	3313.61
699.05	3637.19
699.24	3090.38
699.42	3026.90
699.61	3379.15
699.79	3346.38
699.97	3090.38
700.16	2951.12
700.34	3076.05
700.53	3291.09
700.71	3332.05
700.89	3209.17
701.08	3188.69
701.26	3373.00
701.45	3448.78
701.63	3045.33
701.81	3172.30
702.00	3188.69
702.18	3203.02
702.37	2998.23
702.55	3444.68
702.73	3409.87
702.92	3190.74
703.10	3467.21
703.28	3510.22
703.47	3024.85
703.65	3297.23
703.84	3286.99
704.02	3168.21
704.20	3629.00
704.39	3024.85
704.57	3076.05
704.75	3473.36
704.94	3446.73
705.12	3280.85
705.30	3999.68
705.49	8656.76
705.67	16719.62
705.86	23277.21
706.04	26359.41
706.22	29605.44
706.41	28294.74
706.59	21225.15
706.77	16688.90
706.96	14184.23
707.14	13012.79
707.32	11145.05
707.51	9664.36
707.69	7919.50
707.87	6580.12
708.06	5302.19
708.24	4474.81
708.42	4124.61
708.61	4153.28
708.79	3289.04
708.97	3274.70
709.16	3407.82
709.34	3381.20
709.52	3082.19
709.71	3176.40
709.89	3416.01
710.07	3114.96
710.26	3012.56
710.44	3110.86
710.62	3483.59
710.80	3311.57
710.99	3215.31
711.17	3303.37
711.35	3166.16
711.54	3157.97
711.72	3313.61
711.90	3184.59
712.09	3420.11
712.27	3114.96
712.45	3198.93
712.63	3086.29
712.82	3282.89
713.00	3207.12
713.18	3209.17
713.37	3332.05
713.55	3442.64
713.73	3493.83
713.91	3196.88
714.10	3084.24
714.28	3276.75
714.46	3317.71
714.65	3184.59
714.83	3110.86
715.01	3260.37
715.19	3215.31
715.38	3143.63
715.56	3227.60
715.74	3063.76
715.92	3149.78
716.11	3401.68
716.29	2869.20
716.47	3389.39
716.65	3241.93
716.84	2971.60
717.02	3098.58
717.20	2987.99
717.38	3123.15
717.57	3229.65
717.75	3139.54
717.93	3151.82
718.11	3336.14
718.30	3082.19
718.48	3074.00
718.66	3459.02
718.84	3459.02
719.03	3155.92
719.21	2994.13
719.39	3653.58
719.57	3444.68
719.75	3170.26
719.94	3014.61
720.12	3270.61
720.30	3270.61
720.48	3112.91
720.67	3090.38
720.85	3074.00
721.03	3205.07
721.21	3012.56
721.39	3166.16
721.58	3403.72
721.76	3248.08
721.94	3133.39
722.12	3176.40
722.30	3536.84
722.49	3207.12
722.67	3063.76
722.85	3110.86
723.03	2998.23
723.21	3135.44
723.40	3108.82
723.58	3205.07
723.76	3481.55
723.94	3551.18
724.12	3188.69
724.30	3393.48
724.49	3522.51
724.67	3063.76
724.85	3190.74
725.03	3004.37
725.21	3405.77
725.40	3565.51
725.58	3139.54
725.76	3342.28
725.94	3293.13
726.12	3065.81
726.30	3100.62
726.49	2979.79
726.67	3133.39
726.85	3401.68
727.03	3876.80
727.21	5556.14
727.39	7245.71
727.57	7829.38
727.76	8304.51
727.94	8398.72
728.12	7309.20
728.30	6031.27
728.48	5531.56
728.66	5015.48
728.84	4689.85
729.03	4208.58
729.21	3796.93
729.39	3512.27
729.57	3336.14
729.75	3393.48
729.93	3385.29
730.11	3092.43
730.30	3186.64
730.48	3305.42
730.66	3211.22
730.84	3229.65
731.02	3280.85
731.20	3112.91
731.38	3184.59
731.56	2971.60
731.74	3106.77
731.93	3305.42
732.11	3145.68
732.29	3010.51
732.47	3459.02
732.65	3360.72
732.83	3274.70
733.01	3250.13
733.19	3110.86
733.37	3356.62
733.56	3125.20
733.74	3010.51
733.92	3522.51
734.10	3147.73
734.28	3266.51
734.46	2824.15
734.64	3219.41
734.82	3221.45
735.00	3055.57
735.18	3016.66
735.36	3377.10
735.54	3213.26
735.73	3166.16
735.91	3155.92
736.09	3585.99
736.27	3299.28
736.45	3178.45
736.63	2838.48
736.81	3139.54
736.99	3516.36
737.17	3327.95
737.35	2987.99
737.53	3258.32
737.71	3233.74
737.89	3248.08
738.07	3057.62
738.25	3176.40
738.43	3012.56
738.61	3137.49
738.80	2944.98
738.98	3065.81
739.16	3192.78
739.34	3055.57
739.52	3383.24
739.70	3160.02
739.88	3360.72
740.06	3203.02
740.24	2805.72
740.42	3518.41
740.60	2928.60
740.78	3092.43
740.96	2838.48
741.14	3106.77
741.32	3307.47
741.50	2926.55
741.68	3362.76
741.86	3559.37
742.04	3104.72
742.22	2961.36
742.40	3065.81
742.58	3364.81
742.76	3022.80
742.94	3330.00
743.12	2928.60
743.30	3289.04
743.48	3385.29
743.66	3028.95
743.84	3139.54
744.02	3157.97
744.20	3196.88
744.38	3016.66
744.56	2969.55
744.74	3534.79
744.92	3432.40
745.10	3330.00
745.28	3127.25
745.46	3559.37
745.64	3221.45
745.82	3227.60
746.00	3039.19
746.18	3270.61
746.36	3100.62
746.54	3065.81
746.72	3088.34
746.90	3127.25
747.08	3532.75
747.26	3110.86
747.44	3188.69
747.62	3385.29
747.80	3305.42
747.98	3221.45
748.15	3121.10
748.33	3540.94
748.51	3286.99
748.69	3235.79
748.87	3002.32
749.05	3323.85
749.23	3291.09
749.41	3086.29
749.59	3063.76
749.77	3499.98
749.95	3254.22
750.13	3041.23
750.31	3284.94
750.49	3248.08
750.67	3463.12
750.85	3209.17
751.03	3117.01
751.20	3735.50
751.38	3266.51
751.56	3168.21
751.74	3061.71
751.92	3209.17
752.10	3090.38
752.28	3313.61
752.46	3092.43
752.64	3301.33
752.82	3252.17
753.00	3217.36
753.18	3065.81
753.35	3231.69
753.53	3209.17
753.71	3000.27
753.89	3184.59
754.07	3321.81
754.25	3514.31
754.43	3217.36
754.61	3057.62
754.79	3438.54
754.97	3215.31
755.14	3217.36
755.32	2981.84
755.50	3278.80
755.68	3264.46
755.86	2996.18
756.04	3102.67
756.22	2981.84
756.40	3483.59
756.57	3317.71
756.75	3067.86
756.93	3485.64
757.11	3413.96
757.29	3092.43
757.47	3000.27
757.65	2932.69
757.82	2842.58
758.00	2916.31
758.18	2975.70
758.36	3129.30
758.54	3600.33
758.72	2830.29
758.90	3284.94
759.07	3373.00
759.25	3106.77
759.43	3192.78
759.61	2953.17
759.79	4415.42
759.97	3448.78
760.15	3049.43
760.32	3108.82
760.50	3282.89
760.68	3604.42
760.86	3018.71
761.04	3370.96
761.22	3436.49
761.39	3289.04
761.57	3231.69
761.75	3065.81
761.93	3282.89
762.11	3213.26
762.28	3217.36
762.46	2975.70
762.64	3532.75
762.82	3018.71
763.00	3024.85
763.18	3352.52
763.35	3065.81
763.53	3291.09
763.71	3176.40
763.89	3018.71
764.07	3282.89
764.24	3223.50
764.42	3221.45
764.60	3108.82
764.78	3403.72
764.96	3381.20
765.13	3188.69
765.31	2965.46
765.49	3424.20
765.67	3074.00
765.84	3055.57
766.02	2971.60
766.20	2953.17
766.38	3418.06
766.56	3188.69
766.73	3160.02
766.91	3352.52
767.09	3307.47
767.27	3133.39
767.44	3004.37
767.62	3387.34
767.80	3276.75
767.98	2949.08
768.15	3090.38
768.33	3491.79
768.51	3442.64
768.69	3256.27
768.87	3125.20
769.04	3309.52
769.22	3841.99
769.40	3192.78
769.58	3207.12
769.75	3362.76
769.93	3542.99
770.11	3024.85
770.28	3030.99
770.46	3401.68
770.64	3260.37
770.82	3112.91
770.99	3069.91
771.17	3303.37
771.35	3114.96
771.53	3119.06
771.70	3028.95
771.88	3418.06
772.06	3297.23
772.23	3051.47
772.41	3235.79
772.59	3274.70
772.77	3067.86
772.94	3080.14
773.12	3114.96
773.30	3241.93
773.47	3321.81
773.65	2975.70
773.83	3186.64
774.01	3262.41
774.18	2961.36
774.36	3166.16
774.54	3002.32
774.71	3377.10
774.89	2914.26
775.07	2985.94
775.24	3043.28
775.42	3151.82
775.60	3678.15
775.78	3010.51
775.95	2918.36
776.13	2944.98
776.31	2928.60
776.48	3262.41
776.66	3305.42
776.84	3186.64
777.01	3012.56
777.19	3020.75
777.37	3061.71
777.54	3327.95
777.72	3682.25
777.90	3213.26
778.07	3051.47
778.25	3893.19
778.43	3487.69
778.60	2938.84
778.78	3207.12
778.96	3565.51
779.13	3000.27
779.31	3229.65
779.49	3123.15
779.66	3319.76
779.84	3194.83
780.01	3069.91
780.19	3039.19
780.37	3508.17
780.54	3387.34
780.72	2922.45
780.90	3117.01
781.07	3246.03
781.25	3162.06
781.43	3260.37
781.60	3061.71
781.78	3559.37
781.95	3348.43
782.13	2973.65
782.31	3028.95
782.48	2914.26
782.66	3256.27
782.83	3307.47
783.01	3155.92
783.19	3399.63
783.36	3334.09
783.54	3006.42
783.72	3135.44
783.89	3237.84
784.07	3352.52
784.24	3229.65
784.42	3219.41
784.60	3373.00
784.77	3340.24
784.95	2858.96
785.12	3026.90
785.30	3336.14
785.47	3033.04
785.65	2928.60
785.83	3082.19
786.00	3217.36
786.18	3225.55
786.35	2965.46
786.53	3016.66
786.71	3411.92
786.88	3370.96
787.06	3254.22
787.23	3125.20
787.41	3086.29
787.58	3276.75
787.76	2955.22
787.94	3129.30
788.11	3295.18
788.29	3041.23
788.46	3084.24
788.64	2944.98
788.81	3184.59
788.99	3117.01
789.16	2998.23
789.34	3096.53
789.52	3149.78
789.69	3166.16
789.87	2858.96
790.04	3004.37
790.22	3274.70
790.39	3657.67
790.57	3024.85
790.74	3018.71
790.92	3479.50
791.09	2953.17
791.27	3057.62
791.44	3203.02
791.62	3205.07
791.79	3385.29
791.97	3176.40
792.15	3377.10
792.32	3409.87
792.50	3393.48
792.67	3229.65
792.85	3389.39
793.02	3278.80
793.20	3166.16
793.37	3012.56
793.55	3033.04
793.72	3010.51
793.90	3385.29
794.07	3024.85
794.25	3012.56
794.42	3280.85
794.60	3145.68
794.77	3119.06
794.95	3286.99
795.12	3416.01
795.30	3233.74
795.47	2863.06
795.65	3420.11
795.82	3368.91
796.00	3131.34
796.17	3078.10
796.34	3014.61
796.52	3397.58
796.69	3393.48
796.87	3162.06
797.04	3223.50
797.22	3469.26
797.39	3305.42
797.57	3221.45
797.74	3194.83
797.92	3354.57
798.09	3139.54
798.27	3418.06
798.44	3045.33
798.62	3164.11
798.79	3260.37
798.96	3176.40
799.14	3059.67
799.31	3790.79
799.49	3256.27
799.66	3084.24
799.84	3024.85
800.01	2977.75
800.19	3401.68
800.36	2856.92
800.53	3143.63
800.71	3338.19
800.88	3565.51
801.06	2930.64
801.23	3076.05
801.41	3235.79
801.58	3243.98
801.75	3065.81
801.93	3137.49
802.10	3409.87
802.28	3200.98
802.45	3090.38
802.63	3174.35
802.80	3575.75
802.97	3221.45
803.15	3069.91
803.32	3051.47
803.50	3092.43
803.67	3061.71
803.84	3051.47
804.02	3147.73
804.19	3239.89
804.37	2787.29
804.54	2840.53
804.71	3082.19
804.89	3233.74
805.06	3123.15
805.24	2942.93
805.41	2867.16
805.58	3014.61
805.76	3774.41
805.93	3049.43
806.10	3254.22
806.28	3387.34
806.45	3297.23
806.63	3194.83
806.80	3084.24
806.97	3313.61
807.15	3246.03
807.32	3147.73
807.49	3069.91
807.67	3008.47
807.84	3393.48
808.01	2928.60
808.19	3305.42
808.36	3690.44
808.54	3133.39
808.71	3065.81
808.88	3035.09
809.06	3520.46
809.23	3545.03
809.40	3098.58
809.58	3065.81
809.75	3280.85
809.92	3100.62
810.10	3381.20
810.27	3090.38
810.44	3313.61
810.62	3438.54
810.79	3110.86
810.96	3143.63
811.14	3178.45
811.31	3323.85
811.48	3256.27
811.66	3162.06
811.83	3575.75
812.00	3352.52
812.18	3194.83
812.35	3366.86
812.52	3239.89
812.69	3076.05
812.87	3055.57
813.04	3045.33
813.21	3291.09
813.39	3114.96
813.56	2990.03
813.73	3334.09
813.91	3000.27
814.08	3289.04
814.25	3092.43
814.42	2861.01
814.60	3147.73
814.77	3258.32
814.94	3024.85
815.12	3141.58
815.29	3647.43
815.46	3096.53
815.63	3131.34
815.81	3082.19
815.98	3233.74
816.15	3293.13
816.33	3139.54
816.50	3149.78
816.67	3280.85
816.84	3237.84
817.02	3047.38
817.19	3090.38
817.36	3260.37
817.53	3377.10
817.71	2971.60
817.88	3090.38
818.05	3178.45
818.22	3239.89
818.40	3270.61
818.57	3110.86
818.74	3262.41
818.91	3340.24
819.09	3237.84
819.26	3174.35
819.43	3092.43
819.60	3149.78
819.78	3188.69
819.95	3141.58
820.12	3069.91
820.29	3547.08
820.47	3336.14
820.64	2969.55
820.81	2983.89
820.98	3110.86
821.15	3096.53
821.33	3246.03
821.50	2975.70
821.67	3354.57
821.84	3053.52
822.02	3084.24
822.19	3403.72
822.36	3219.41
822.53	3016.66
822.70	2949.08
822.88	3164.11
823.05	3493.83
823.22	3141.58
823.39	3082.19
823.56	3256.27
823.74	3684.30
823.91	2916.31
824.08	3024.85
824.25	3006.42
824.42	3510.22
824.60	2979.79
824.77	3164.11
824.94	3323.85
825.11	3385.29
825.28	2953.17
825.45	3221.45
825.63	3305.42
825.80	3076.05
825.97	3217.36
826.14	3174.35
826.31	2959.31
826.48	3442.64
826.66	3061.71
826.83	3114.96
827.00	3192.78
827.17	3112.91
827.34	3127.25
827.51	2981.84
827.69	3192.78
827.86	2951.12
828.03	3141.58
828.20	3082.19
828.37	3194.83
828.54	3321.81
828.71	3106.77
828.89	3205.07
829.06	3344.33
829.23	3565.51
829.40	3008.47
829.57	3024.85
829.74	3401.68
829.91	3139.54
830.09	2963.41
830.26	3229.65
830.43	3524.55
830.60	3225.55
830.77	3178.45
830.94	3311.57
831.11	3436.49
831.28	3104.72
831.46	3215.31
831.63	3061.71
831.80	3530.70
831.97	3135.44
832.14	3039.19
832.31	3086.29
832.48	3258.32
832.65	3452.88
832.82	3229.65
832.99	3180.50
833.17	3131.34
833.34	3508.17
833.51	3055.57
833.68	2795.48
833.85	3516.36
834.02	3024.85
834.19	3067.86
834.36	3063.76
834.53	3377.10
834.70	3481.55
834.87	2996.18
835.04	2803.67
835.22	3094.48
835.39	3147.73
835.56	2908.12
835.73	2916.31
835.90	3428.30
836.07	3057.62
836.24	3065.81
836.41	2910.16
836.58	3102.67
836.75	3495.88
836.92	2893.78
837.09	2910.16
837.26	3459.02
837.43	3334.09
837.60	2975.70
837.77	2879.44
837.94	3454.92
838.12	3393.48
838.29	2852.82
838.46	2789.33
838.63	3020.75
838.80	3549.13
838.97	2942.93
839.14	2947.03
839.31	3198.93
839.48	3364.81
839.65	2867.16
839.82	2983.89
839.99	3278.80
840.16	3239.89
840.33	2863.06
840.50	3004.37
840.67	3147.73
840.84	2844.63
841.01	2799.57
841.18	2871.25
841.35	3215.31
841.52	3393.48
841.69	3233.74
841.86	2967.51
842.03	3276.75
842.20	3426.25
842.37	2881.49
842.54	2967.51
842.71	3250.13
842.88	2969.55
843.05	2934.74
843.22	2910.16
843.39	3416.01
843.56	3092.43
843.73	2971.60
843.90	2961.36
844.07	3194.83
844.24	3383.24
844.41	2944.98
844.58	2922.45
844.75	3258.32
844.92	3387.34
845.09	2963.41
845.26	2998.23
845.43	3487.69
845.60	3104.72
845.77	3096.53
845.94	3020.75
846.10	3444.68
846.27	3008.47
846.44	2754.52
846.61	2838.48
846.78	3295.18
846.95	3456.97
847.12	2914.26
847.29	2959.31
847.46	3121.10
847.63	3456.97
847.80	2840.53
847.97	2901.97
848.14	3672.01
848.31	3200.98
848.48	2725.85
848.65	2940.88
848.82	3133.39
848.98	3823.56
849.15	3026.90
849.32	3016.66
849.49	3411.92
849.66	3250.13
849.83	2918.36
850.00	2836.44
850.17	3463.12
850.34	3170.26
850.51	2824.15
850.68	2985.94
850.85	3829.70
851.01	3286.99
851.18	2893.78
851.35	3018.71
851.52	3332.05
851.69	3493.83
851.86	2844.63
852.03	2981.84
852.20	3387.34
852.37	3239.89
852.53	2815.96
852.70	2826.20
852.87	3289.04
853.04	3409.87
853.21	2850.77
853.38	3166.16
853.55	3426.25
853.72	3499.98
853.89	2791.38
854.05	2836.44
854.22	3188.69
854.39	3131.34
854.56	2955.22
854.73	3135.44
854.90	3039.19
855.07	3250.13
855.23	2813.91
855.40	2793.43
855.57	3213.26
855.74	2926.55
855.91	3155.92
856.08	2752.47
856.25	3000.27
856.41	3088.34
856.58	2944.98
856.75	2979.79
856.92	3057.62
857.09	3452.88
857.26	2811.86
857.42	3000.27
857.59	3440.59
857.76	3137.49
857.93	2899.92
858.10	3051.47
858.27	3028.95
858.43	3258.32
858.60	2910.16
858.77	2781.14
858.94	3190.74
859.11	3506.12
859.27	3000.27
859.44	2910.16
859.61	3743.69
859.78	3379.15
859.95	2949.08
860.12	2861.01
860.28	3676.10
860.45	3612.62
860.62	2942.93
860.79	3033.04
860.95	3192.78
861.12	3096.53
861.29	2822.10
861.46	2934.74
861.63	3274.70
861.79	3327.95
861.96	2830.29
862.13	2877.40
862.30	3530.70
862.47	3114.96
862.63	2842.58
862.80	2977.75
862.97	3436.49
863.14	3243.98
863.30	3051.47
863.47	2801.62
863.64	3645.38
863.81	3315.66
863.97	2801.62
864.14	2967.51
864.31	3227.60
864.48	3213.26
864.65	2922.45
864.81	3045.33
864.98	3379.15
865.15	3385.29
865.32	3030.99
865.48	3014.61
865.65	3649.48
865.82	3133.39
865.98	3069.91
866.15	2947.03
866.32	3274.70
866.49	3209.17
866.65	3008.47
866.82	2904.02
866.99	3221.45
867.16	3180.50
867.32	2901.97
867.49	2803.67
867.66	3254.22
867.83	3207.12
867.99	2850.77
868.16	3008.47
868.33	2998.23
868.49	3315.66
868.66	2951.12
868.83	2969.55
868.99	3315.66
869.16	3364.81
869.33	3096.53
869.50	3004.37
869.66	3231.69
869.83	3194.83
870.00	2858.96
870.16	3024.85
870.33	3192.78
870.50	3407.82
870.66	2981.84
870.83	2893.78
871.00	3221.45
871.17	3348.43
871.33	2922.45
871.50	2863.06
871.67	3289.04
871.83	2985.94
872.00	2983.89
872.17	3016.66
872.33	3610.57
872.50	3549.13
872.67	2928.60
872.83	2895.83
873.00	3297.23
873.17	3260.37
873.33	2990.03
873.50	3000.27
873.67	3067.86
873.83	3114.96
874.00	2904.02
874.16	3039.19
874.33	3229.65
874.50	3053.52
874.66	2879.44
874.83	2987.99
875.00	3420.11
875.16	3399.63
875.33	3065.81
875.50	2582.49
875.66	3213.26
875.83	3225.55
875.99	2983.89
876.16	2951.12
876.33	3076.05
876.49	3223.50
876.66	2942.93
876.83	2959.31
876.99	2957.27
877.16	3262.41
877.32	2850.77
877.49	3020.75
877.66	3311.57
877.82	3551.18
877.99	3012.56
878.15	3166.16
878.32	3332.05
878.49	3262.41
878.65	3022.80
878.82	3192.78
878.98	3168.21
879.15	3454.92
879.32	3082.19
879.48	3096.53
879.65	3317.71
879.81	3192.78
879.98	2934.74
880.15	2992.08
880.31	3442.64
880.48	3119.06
880.64	3047.38
880.81	3033.04
880.97	3608.52
881.14	3510.22
881.31	2879.44
881.47	3129.30
881.64	3235.79
881.80	2932.69
881.97	3074.00
882.13	2899.92
882.30	3041.23
882.47	3100.62
882.63	2926.55
882.80	2918.36
882.96	3182.54
883.13	3442.64
883.29	2951.12
883.46	2901.97
883.62	3676.10
883.79	3239.89
883.95	3086.29
884.12	2885.59
884.29	3524.55
884.45	3289.04
884.62	2926.55
884.78	2891.73
884.95	3590.09
885.11	3090.38
885.28	2932.69
885.44	3028.95
885.61	3459.02
885.77	3561.42
885.94	3049.43
886.10	3000.27
886.27	3272.65
886.43	3639.24
886.60	3151.82
886.76	2957.27
886.93	3145.68
887.09	3309.52
887.26	2899.92
887.42	3004.37
887.59	3426.25
887.75	3696.58
887.92	3078.10
888.08	3092.43
888.25	3688.39
888.41	3381.20
888.58	3010.51
888.74	2840.53
888.91	3092.43
>>>>>End Processed Spectral Data<<<<<
