SpectraSuite Data File
++++++++++++++++++++++++++++++++++++
Date: Fri May 06 08:14:29 CEST 2016
User: root
Dark Spectrum Present: No
Reference Spectrum Present: No
Number of Sampled Component Spectra: 1
Spectrometers: USB4C02835
Integration Time (usec): 100000 (USB4C02835)
Spectra Averaged: 1 (USB4C02835)
Boxcar Smoothing: 0 (USB4C02835)
Correct for Electrical Dark: No (USB4C02835)
Strobe/Lamp Enabled: No (USB4C02835)
Correct for Detector Non-linearity: No (USB4C02835)
Correct for Stray Light: No (USB4C02835)
Number of Pixels in Processed Spectrum: 3648
>>>>>Begin Processed Spectral Data<<<<<
177.47	2316.25
177.69	2316.25
177.91	2316.25
178.13	2306.01
178.36	2246.62
178.58	2967.51
178.80	3186.64
179.02	3016.66
179.24	3094.48
179.46	2705.37
179.68	2822.10
179.90	3231.69
180.13	3305.42
180.35	2617.30
180.57	2811.86
180.79	3448.78
181.01	3211.22
181.23	2879.44
181.45	3033.04
181.67	3385.29
181.90	3403.72
182.12	2951.12
182.34	2607.06
182.56	3358.67
182.78	3319.76
183.00	2822.10
183.22	2811.86
183.44	2981.84
183.66	3979.20
183.89	3053.52
184.11	2852.82
184.33	3424.20
184.55	3583.95
184.77	2795.48
184.99	2879.44
185.21	3145.68
185.43	3760.07
185.65	2867.16
185.87	2848.72
186.10	3672.01
186.32	3811.27
186.54	2983.89
186.76	2955.22
186.98	3522.51
187.20	3164.11
187.42	2904.02
187.64	2895.83
187.86	3356.62
188.08	3534.79
188.30	2742.23
188.52	2979.79
188.75	3520.46
188.97	3524.55
189.19	2850.77
189.41	2858.96
189.63	3315.66
189.85	3135.44
190.07	2791.38
190.29	2813.91
190.51	3375.05
190.73	3057.62
190.95	3045.33
191.17	2942.93
191.39	2918.36
191.61	3237.84
191.84	2846.68
192.06	2971.60
192.28	2959.31
192.50	3966.92
192.72	2959.31
192.94	2955.22
193.16	3516.36
193.38	3411.92
193.60	2861.01
193.82	3024.85
194.04	3485.64
194.26	3336.14
194.48	2863.06
194.70	2854.87
194.92	3137.49
195.14	3467.21
195.36	2873.30
195.58	2918.36
195.80	3323.85
196.02	3200.98
196.24	2762.71
196.46	2930.64
196.69	3145.68
196.91	3762.12
197.13	2865.11
197.35	2936.79
197.57	3618.76
197.79	3403.72
198.01	2924.50
198.23	2904.02
198.45	3416.01
198.67	3020.75
198.89	2654.17
199.11	3008.47
199.33	3135.44
199.55	2820.05
199.77	2842.58
199.99	3053.52
200.21	3299.28
200.43	3377.10
200.65	2744.28
200.87	2676.70
201.09	3307.47
201.31	3186.64
201.53	2883.54
201.75	2967.51
201.97	3248.08
202.19	3209.17
202.41	2850.77
202.63	2920.40
202.85	3391.44
203.07	3262.41
203.29	2957.27
203.51	2791.38
203.73	3100.62
203.95	3782.60
204.17	2955.22
204.39	3076.05
204.61	3289.04
204.83	3190.74
205.05	3028.95
205.27	2910.16
205.49	3735.50
205.71	3295.18
205.93	2680.79
206.15	2746.33
206.37	3252.17
206.59	3231.69
206.81	2688.98
207.03	2744.28
207.25	3125.20
207.47	3479.50
207.69	2889.68
207.91	3100.62
208.13	3704.78
208.34	3172.30
208.56	2873.30
208.78	2901.97
209.00	3237.84
209.22	3219.41
209.44	2820.05
209.66	2809.81
209.88	3276.75
210.10	3198.93
210.32	2758.61
210.54	2924.50
210.76	3209.17
210.98	3434.44
211.20	2703.32
211.42	2940.88
211.64	3477.45
211.86	3299.28
212.08	2961.36
212.30	2832.34
212.52	3268.56
212.74	3407.82
212.96	2924.50
213.17	2957.27
213.39	3393.48
213.61	3678.15
213.83	2772.95
214.05	2738.13
214.27	3383.24
214.49	2959.31
214.71	2783.19
214.93	2936.79
215.15	3348.43
215.37	3461.07
215.59	2688.98
215.81	2949.08
216.03	3559.37
216.24	3352.52
216.46	2820.05
216.68	2934.74
216.90	3485.64
217.12	3493.83
217.34	2918.36
217.56	3049.43
217.78	3643.34
218.00	3413.96
218.22	2965.46
218.44	2957.27
218.66	3379.15
218.87	3604.42
219.09	2865.11
219.31	2834.39
219.53	3286.99
219.75	3268.56
219.97	2987.99
220.19	2936.79
220.41	3295.18
220.63	3557.32
220.85	2852.82
221.06	2854.87
221.28	3575.75
221.50	3409.87
221.72	2873.30
221.94	2781.14
222.16	3311.57
222.38	3463.12
222.60	2799.57
222.82	2865.11
223.03	3409.87
223.25	3084.24
223.47	2795.48
223.69	3080.14
223.91	3387.34
224.13	3311.57
224.35	2750.42
224.57	3059.67
224.78	3536.84
225.00	3037.14
225.22	2969.55
225.44	2818.00
225.66	3450.83
225.88	3133.39
226.10	2975.70
226.32	2901.97
226.53	3598.28
226.75	3301.33
226.97	2940.88
227.19	2957.27
227.41	3172.30
227.63	3147.73
227.85	2664.41
228.06	2901.97
228.28	3276.75
228.50	3491.79
228.72	2715.61
228.94	2867.16
229.16	2926.55
229.37	3080.14
229.59	2799.57
229.81	3166.16
230.03	3200.98
230.25	3020.75
230.47	2787.29
230.69	2822.10
230.90	3432.40
231.12	3207.12
231.34	2895.83
231.56	2906.07
231.78	2977.75
232.00	3246.03
232.21	2889.68
232.43	2885.59
232.65	2914.26
232.87	3362.76
233.09	2676.70
233.30	2799.57
233.52	3647.43
233.74	3256.27
233.96	2844.63
234.18	3053.52
234.40	3200.98
234.61	3690.44
234.83	2803.67
235.05	2770.90
235.27	3856.33
235.49	3559.37
235.70	2811.86
235.92	2983.89
236.14	3385.29
236.36	3778.50
236.58	2787.29
236.79	2977.75
237.01	3235.79
237.23	3248.08
237.45	3162.06
237.67	2891.73
237.88	3385.29
238.10	3622.86
238.32	2760.66
238.54	2897.88
238.76	3246.03
238.97	3035.09
239.19	2746.33
239.41	2899.92
239.63	3442.64
239.85	3160.02
240.06	2928.60
240.28	2861.01
240.50	3401.68
240.72	3284.94
240.93	2688.98
241.15	3018.71
241.37	3303.37
241.59	3561.42
241.81	2885.59
242.02	2928.60
242.24	3321.81
242.46	3506.12
242.68	2721.75
242.89	2844.63
243.11	3467.21
243.33	3237.84
243.55	2861.01
243.76	2977.75
243.98	3141.58
244.20	3239.89
244.42	2897.88
244.64	2869.20
244.85	3074.00
245.07	3121.10
245.29	2863.06
245.51	2918.36
245.72	3413.96
245.94	3450.83
246.16	2762.71
246.38	2918.36
246.59	3145.68
246.81	3100.62
247.03	2787.29
247.24	2734.04
247.46	3143.63
247.68	3344.33
247.90	2768.85
248.11	2906.07
248.33	3373.00
248.55	3180.50
248.77	2926.55
248.98	2994.13
249.20	3604.42
249.42	3375.05
249.64	2869.20
249.85	2803.67
250.07	3086.29
250.29	3420.11
250.50	2951.12
250.72	2799.57
250.94	3364.81
251.16	3710.92
251.37	2811.86
251.59	2920.40
251.81	3350.48
252.02	3637.19
252.24	2818.00
252.46	3053.52
252.68	3114.96
252.89	3241.93
253.11	2713.56
253.33	3020.75
253.54	3620.81
253.76	3055.57
253.98	2938.84
254.20	2842.58
254.41	3028.95
254.63	3278.80
254.85	2787.29
255.06	2953.17
255.28	3350.48
255.50	3166.16
255.71	2766.81
255.93	2645.98
256.15	3301.33
256.36	3469.26
256.58	2772.95
256.80	2752.47
257.02	3270.61
257.23	3178.45
257.45	2844.63
257.67	2981.84
257.88	3123.15
258.10	3344.33
258.32	2824.15
258.53	2942.93
258.75	3557.32
258.97	3164.11
259.18	2805.72
259.40	2795.48
259.62	3665.86
259.83	3559.37
260.05	2906.07
260.27	3735.50
260.48	3510.22
260.70	3135.44
260.92	2797.53
261.13	2914.26
261.35	3379.15
261.57	3393.48
261.78	2711.51
262.00	2777.05
262.22	3373.00
262.43	3110.86
262.65	2850.77
262.86	2908.12
263.08	3774.41
263.30	3248.08
263.51	2664.41
263.73	2787.29
263.95	3622.86
264.16	3080.14
264.38	2801.62
264.60	2813.91
264.81	3260.37
265.03	3524.55
265.25	3319.76
265.46	2760.66
265.68	3526.60
265.89	3362.76
266.11	2762.71
266.33	2824.15
266.54	3520.46
266.76	3368.91
266.98	2885.59
267.19	3090.38
267.41	3471.31
267.62	3274.70
267.84	2656.22
268.06	3000.27
268.27	3327.95
268.49	3471.31
268.70	2918.36
268.92	2885.59
269.14	3151.82
269.35	3018.71
269.57	2922.45
269.79	2906.07
270.00	3172.30
270.22	3624.90
270.43	2795.48
270.65	2697.17
270.87	3274.70
271.08	3456.97
271.30	2951.12
271.51	2832.34
271.73	3354.57
271.95	3641.29
272.16	2822.10
272.38	3004.37
272.59	3233.74
272.81	3444.68
273.02	2861.01
273.24	2969.55
273.46	3467.21
273.67	3067.86
273.89	2738.13
274.10	2861.01
274.32	3510.22
274.54	3334.09
274.75	2926.55
274.97	3000.27
275.18	3428.30
275.40	3332.05
275.61	2910.16
275.83	3024.85
276.05	3114.96
276.26	3305.42
276.48	2959.31
276.69	2994.13
276.91	3139.54
277.12	3606.47
277.34	3076.05
277.55	3143.63
277.77	3299.28
277.99	3196.88
278.20	2985.94
278.42	2887.64
278.63	3133.39
278.85	3020.75
279.06	2967.51
279.28	3082.19
279.49	3471.31
279.71	3450.83
279.93	3051.47
280.14	3030.99
280.36	3121.10
280.57	3452.88
280.79	3082.19
281.00	2807.77
281.22	3188.69
281.43	3522.51
281.65	2775.00
281.86	2856.92
282.08	3407.82
282.29	3641.29
282.51	2842.58
282.73	2938.84
282.94	2938.84
283.16	3475.40
283.37	3028.95
283.59	2967.51
283.80	3375.05
284.02	3248.08
284.23	3084.24
284.45	3074.00
284.66	3043.28
284.88	3053.52
285.09	2797.53
285.31	3065.81
285.52	3426.25
285.74	2963.41
285.95	3256.27
286.17	3012.56
286.38	3459.02
286.60	3145.68
286.81	2949.08
287.03	2938.84
287.24	3321.81
287.46	3373.00
287.67	3125.20
287.89	3205.07
288.10	3305.42
288.32	3260.37
288.53	3151.82
288.75	3024.85
288.96	3434.44
289.18	3160.02
289.39	2951.12
289.61	3074.00
289.82	3676.10
290.04	3751.88
290.25	2879.44
290.47	3063.76
290.68	3264.46
290.90	3510.22
291.11	2748.37
291.33	3090.38
291.54	3125.20
291.76	3133.39
291.97	3123.15
292.18	3082.19
292.40	3190.74
292.61	3088.34
292.83	3262.41
293.04	2969.55
293.26	3276.75
293.47	3223.50
293.69	2844.63
293.90	2832.34
294.12	3536.84
294.33	3317.71
294.55	3053.52
294.76	3186.64
294.97	3577.80
295.19	3676.10
295.40	2930.64
295.62	2987.99
295.83	3526.60
296.05	3157.97
296.26	3278.80
296.48	2981.84
296.69	3207.12
296.90	3309.52
297.12	3119.06
297.33	3114.96
297.55	3260.37
297.76	3420.11
297.98	3033.04
298.19	3100.62
298.41	3280.85
298.62	3106.77
298.83	3205.07
299.05	3106.77
299.26	3190.74
299.48	3114.96
299.69	2985.94
299.90	2957.27
300.12	3123.15
300.33	3389.39
300.55	3061.71
300.76	3188.69
300.98	3018.71
301.19	3286.99
301.40	2957.27
301.62	2940.88
301.83	3360.72
302.05	3264.46
302.26	2971.60
302.47	3035.09
302.69	3051.47
302.90	3307.47
303.12	2822.10
303.33	3168.21
303.54	3661.77
303.76	3061.71
303.97	3041.23
304.19	3211.22
304.40	3016.66
304.61	3409.87
304.83	3112.91
305.04	2979.79
305.26	3416.01
305.47	3143.63
305.68	3051.47
305.90	2918.36
306.11	3489.74
306.33	3291.09
306.54	2869.20
306.75	2957.27
306.97	3106.77
307.18	3137.49
307.39	2965.46
307.61	3164.11
307.82	3233.74
308.04	3418.06
308.25	2867.16
308.46	3100.62
308.68	3270.61
308.89	3289.04
309.10	3151.82
309.32	3033.04
309.53	3313.61
309.74	3463.12
309.96	2879.44
310.17	3153.87
310.39	3203.02
310.60	3411.92
310.81	3037.14
311.03	2877.40
311.24	3463.12
311.45	3260.37
311.67	3239.89
311.88	3061.71
312.09	3170.26
312.31	3135.44
312.52	2918.36
312.73	2967.51
312.95	3057.62
313.16	3084.24
313.37	3182.54
313.59	3188.69
313.80	3508.17
314.01	3557.32
314.23	2971.60
314.44	2901.97
314.65	3061.71
314.87	3092.43
315.08	2975.70
315.29	3006.42
315.51	3096.53
315.72	3002.32
315.93	3043.28
316.15	3018.71
316.36	3246.03
316.57	3344.33
316.79	2994.13
317.00	2904.02
317.21	3483.59
317.43	3141.58
317.64	2996.18
317.85	2867.16
318.07	3110.86
318.28	3205.07
318.49	3063.76
318.70	3286.99
318.92	3311.57
319.13	3401.68
319.34	3256.27
319.56	2987.99
319.77	3409.87
319.98	3391.44
320.20	3323.85
320.41	3137.49
320.62	3393.48
320.83	3106.77
321.05	3164.11
321.26	3041.23
321.47	3258.32
321.69	3499.98
321.90	2879.44
322.11	2955.22
322.32	3303.37
322.54	3614.66
322.75	3010.51
322.96	3964.87
323.18	3018.71
323.39	2879.44
323.60	2883.54
323.81	3139.54
324.03	3164.11
324.24	3297.23
324.45	3160.02
324.66	2906.07
324.88	3542.99
325.09	3581.90
325.30	2955.22
325.52	2953.17
325.73	3418.06
325.94	3147.73
326.15	2942.93
326.37	2807.77
326.58	3512.27
326.79	3635.14
327.00	2887.64
327.22	2992.08
327.43	3213.26
327.64	3059.67
327.85	3082.19
328.07	3039.19
328.28	3704.78
328.49	3147.73
328.70	3030.99
328.92	2965.46
329.13	3227.60
329.34	3411.92
329.55	3223.50
329.76	3205.07
329.98	3317.71
330.19	3477.45
330.40	3098.58
330.61	3117.01
330.83	3432.40
331.04	3059.67
331.25	3094.48
331.46	3135.44
331.68	3000.27
331.89	3450.83
332.10	3045.33
332.31	2850.77
332.52	3262.41
332.74	3502.03
332.95	2842.58
333.16	2969.55
333.37	3407.82
333.58	3129.30
333.80	3033.04
334.01	2834.39
334.22	3239.89
334.43	3223.50
334.64	2850.77
334.86	2926.55
335.07	3123.15
335.28	3465.16
335.49	2848.72
335.70	3010.51
335.92	3647.43
336.13	3729.35
336.34	3053.52
336.55	3035.09
336.76	3360.72
336.98	2942.93
337.19	3006.42
337.40	3086.29
337.61	3872.71
337.82	3235.79
338.04	3117.01
338.25	2875.35
338.46	3319.76
338.67	3229.65
338.88	2828.24
339.09	2875.35
339.31	3184.59
339.52	3002.32
339.73	2922.45
339.94	3055.57
340.15	3467.21
340.36	3198.93
340.58	3047.38
340.79	2842.58
341.00	3436.49
341.21	2944.98
341.42	3272.65
341.63	3012.56
341.85	3467.21
342.06	3219.41
342.27	2994.13
342.48	3123.15
342.69	2985.94
342.90	3364.81
343.12	3454.92
343.33	2930.64
343.54	3438.54
343.75	3469.26
343.96	3114.96
344.17	2961.36
344.38	3221.45
344.60	3106.77
344.81	2924.50
345.02	2967.51
345.23	3483.59
345.44	3729.35
345.65	3123.15
345.86	3053.52
346.07	3303.37
346.29	3239.89
346.50	3086.29
346.71	3117.01
346.92	3567.56
347.13	3606.47
347.34	3149.78
347.55	2916.31
347.76	3438.54
347.98	2924.50
348.19	3006.42
348.40	3203.02
348.61	3219.41
348.82	3600.33
349.03	3039.19
349.24	2832.34
349.45	3653.58
349.66	2910.16
349.88	2934.74
350.09	2969.55
350.30	3616.71
350.51	3518.41
350.72	3170.26
350.93	2975.70
351.14	3219.41
351.35	3299.28
351.56	3000.27
351.77	2992.08
351.99	3354.57
352.20	3561.42
352.41	3094.48
352.62	2813.91
352.83	3188.69
353.04	3289.04
353.25	3012.56
353.46	3106.77
353.67	3495.88
353.88	2887.64
354.09	2947.03
354.30	2996.18
354.52	3401.68
354.73	3217.36
354.94	3000.27
355.15	3016.66
355.36	3708.87
355.57	3178.45
355.78	2969.55
355.99	2961.36
356.20	3176.40
356.41	3473.36
356.62	3061.71
356.83	2975.70
357.04	3540.94
357.25	3012.56
357.46	2967.51
357.68	2799.57
357.89	3114.96
358.10	3241.93
358.31	2983.89
358.52	3098.58
358.73	3004.37
358.94	3024.85
359.15	3033.04
359.36	3039.19
359.57	3354.57
359.78	3182.54
359.99	3176.40
360.20	2922.45
360.41	3225.55
360.62	3356.62
360.83	3086.29
361.04	3074.00
361.25	3289.04
361.46	3674.06
361.67	3053.52
361.88	3053.52
362.09	3487.69
362.30	3307.47
362.51	2918.36
362.72	3057.62
362.93	3348.43
363.14	3391.44
363.35	3061.71
363.56	2914.26
363.78	3536.84
363.99	3516.36
364.20	3020.75
364.41	3084.24
364.62	3680.20
364.83	3360.72
365.04	2973.65
365.25	3067.86
365.46	3680.20
365.67	3139.54
365.88	3229.65
366.09	2977.75
366.30	3211.22
366.51	3338.19
366.72	2889.68
366.93	2922.45
367.14	3252.17
367.35	3526.60
367.56	3012.56
367.77	3160.02
367.98	3235.79
368.18	3420.11
368.39	3155.92
368.60	2983.89
368.81	3352.52
369.02	3407.82
369.23	3035.09
369.44	2856.92
369.65	3225.55
369.86	3454.92
370.07	3127.25
370.28	2928.60
370.49	3348.43
370.70	3334.09
370.91	2877.40
371.12	2842.58
371.33	3377.10
371.54	3131.34
371.75	3018.71
371.96	2766.81
372.17	3309.52
372.38	3325.90
372.59	2990.03
372.80	2938.84
373.01	3332.05
373.22	3264.46
373.43	3014.61
373.64	2838.48
373.85	3538.89
374.06	3579.85
374.26	3135.44
374.47	3125.20
374.68	3622.86
374.89	3289.04
375.10	2953.17
375.31	3100.62
375.52	3235.79
375.73	3330.00
375.94	2881.49
376.15	3168.21
376.36	3145.68
376.57	3182.54
376.78	2987.99
376.99	3004.37
377.20	3473.36
377.40	3198.93
377.61	3336.14
377.82	2930.64
378.03	3614.66
378.24	3358.67
378.45	3170.26
378.66	3123.15
378.87	2985.94
379.08	2961.36
379.29	3051.47
379.50	3198.93
379.71	3303.37
379.91	3459.02
380.12	3026.90
380.33	3172.30
380.54	3252.17
380.75	3280.85
380.96	3022.80
381.17	2975.70
381.38	3282.89
381.59	3350.48
381.80	3102.67
382.00	3223.50
382.21	3352.52
382.42	3645.38
382.63	3368.91
382.84	3186.64
383.05	3456.97
383.26	3559.37
383.47	3139.54
383.68	2965.46
383.88	3401.68
384.09	3188.69
384.30	3170.26
384.51	3106.77
384.72	3213.26
384.93	3002.32
385.14	3129.30
385.35	3235.79
385.55	3026.90
385.76	3626.95
385.97	3041.23
386.18	2850.77
386.39	3172.30
386.60	3227.60
386.81	3037.14
387.02	2893.78
387.22	3059.67
387.43	3401.68
387.64	3096.53
387.85	3268.56
388.06	3321.81
388.27	4315.07
388.48	7837.58
388.68	12019.53
388.89	14860.06
389.10	16412.42
389.31	16369.41
389.52	13039.42
389.73	11243.35
389.93	10438.50
390.14	9156.47
390.35	8535.93
390.56	7909.26
390.77	6662.04
390.98	5085.11
391.18	4167.62
391.39	3911.62
391.60	3319.76
391.81	3289.04
392.02	3024.85
392.23	3774.41
392.43	3280.85
392.64	3143.63
392.85	3121.10
393.06	3614.66
393.27	3258.32
393.47	3059.67
393.68	3106.77
393.89	3241.93
394.10	3532.75
394.31	2979.79
394.52	2947.03
394.72	3174.35
394.93	3573.71
395.14	2942.93
395.35	3055.57
395.56	3205.07
395.76	3274.70
395.97	2977.75
396.18	3153.87
396.39	3276.75
396.60	3950.53
396.80	3391.44
397.01	3352.52
397.22	3549.13
397.43	3512.27
397.64	3000.27
397.84	3067.86
398.05	3696.58
398.26	3303.37
398.47	3176.40
398.67	3286.99
398.88	3254.22
399.09	3436.49
399.30	3024.85
399.51	3098.58
399.71	3127.25
399.92	3266.51
400.13	3090.38
400.34	2990.03
400.54	3301.33
400.75	3481.55
400.96	3233.74
401.17	3280.85
401.37	3373.00
401.58	3405.77
401.79	2957.27
402.00	3094.48
402.21	3774.41
402.41	3493.83
402.62	3364.81
402.83	3508.17
403.04	3762.12
403.24	4046.79
403.45	3229.65
403.66	3370.96
403.87	3553.23
404.07	3629.00
404.28	3260.37
404.49	3342.28
404.70	3346.38
404.90	3393.48
405.11	3008.47
405.32	3018.71
405.52	3209.17
405.73	3139.54
405.94	2975.70
406.15	3139.54
406.35	3405.77
406.56	3430.35
406.77	3067.86
406.98	3043.28
407.18	3164.11
407.39	3606.47
407.60	3090.38
407.80	3088.34
408.01	3207.12
408.22	3364.81
408.43	2967.51
408.63	3160.02
408.84	3442.64
409.05	3508.17
409.25	2916.31
409.46	3041.23
409.67	3192.78
409.88	3182.54
410.08	3117.01
410.29	2926.55
410.50	3487.69
410.70	3366.86
410.91	2930.64
411.12	3114.96
411.32	3364.81
411.53	3090.38
411.74	3110.86
411.95	3104.72
412.15	3330.00
412.36	3520.46
412.57	3207.12
412.77	3207.12
412.98	3284.94
413.19	3090.38
413.39	3182.54
413.60	3147.73
413.81	3530.70
414.01	3157.97
414.22	3102.67
414.43	3270.61
414.63	3233.74
414.84	3409.87
415.05	3160.02
415.25	2918.36
415.46	3362.76
415.67	3125.20
415.87	3076.05
416.08	3033.04
416.29	3274.70
416.49	3389.39
416.70	3143.63
416.91	3008.47
417.11	3219.41
417.32	3540.94
417.53	3131.34
417.73	3182.54
417.94	3274.70
418.15	3295.18
418.35	3059.67
418.56	2992.08
418.77	3829.70
418.97	3198.93
419.18	3155.92
419.38	2754.52
419.59	3315.66
419.80	3526.60
420.00	2992.08
420.21	3051.47
420.42	3520.46
420.62	3370.96
420.83	3069.91
421.04	3018.71
421.24	3256.27
421.45	3434.44
421.65	3090.38
421.86	3012.56
422.07	3475.40
422.27	3368.91
422.48	2969.55
422.69	2930.64
422.89	3260.37
423.10	3229.65
423.30	3006.42
423.51	3102.67
423.72	3379.15
423.92	3499.98
424.13	2912.21
424.33	3106.77
424.54	3493.83
424.75	3352.52
424.95	3330.00
425.16	2992.08
425.36	3233.74
425.57	3497.93
425.78	3221.45
425.98	3153.87
426.19	3190.74
426.39	3143.63
426.60	3112.91
426.81	3248.08
427.01	3381.20
427.22	3102.67
427.42	2850.77
427.63	2994.13
427.83	3502.03
428.04	3545.03
428.25	3149.78
428.45	3207.12
428.66	3434.44
428.86	3213.26
429.07	3051.47
429.28	3067.86
429.48	3205.07
429.69	3184.59
429.89	3170.26
430.10	2994.13
430.30	3422.16
430.51	3438.54
430.71	3069.91
430.92	3117.01
431.13	3174.35
431.33	3442.64
431.54	3098.58
431.74	3239.89
431.95	3768.26
432.15	3092.43
432.36	3047.38
432.56	3117.01
432.77	3704.78
432.98	3631.05
433.18	3129.30
433.39	2895.83
433.59	3317.71
433.80	3755.97
434.00	3182.54
434.21	3121.10
434.41	3184.59
434.62	3772.36
434.82	2901.97
435.03	2973.65
435.23	3309.52
435.44	2844.63
435.64	3006.42
435.85	3149.78
436.06	3434.44
436.26	3502.03
436.47	3082.19
436.67	3053.52
436.88	3280.85
437.08	3512.27
437.29	3139.54
437.49	3194.83
437.70	3456.97
437.90	3174.35
438.11	3317.71
438.31	3094.48
438.52	3616.71
438.72	3512.27
438.93	3411.92
439.13	3168.21
439.34	3475.40
439.54	3176.40
439.75	3141.58
439.95	3166.16
440.16	3164.11
440.36	3266.51
440.57	3030.99
440.77	3053.52
440.98	3299.28
441.18	3411.92
441.39	3018.71
441.59	2904.02
441.80	3794.89
442.00	3278.80
442.21	3229.65
442.41	2881.49
442.62	3514.31
442.82	3131.34
443.02	2994.13
443.23	3145.68
443.43	3241.93
443.64	3542.99
443.84	2990.03
444.05	3137.49
444.25	3330.00
444.46	3162.06
444.66	3002.32
444.87	3229.65
445.07	2992.08
445.28	3221.45
445.48	3284.94
445.69	3213.26
445.89	3823.56
446.09	3225.55
446.30	3340.24
446.50	3444.68
446.71	5160.88
446.91	6442.91
447.12	7223.19
447.32	7823.24
447.53	7636.88
447.73	6391.71
447.93	5623.72
448.14	5308.34
448.34	5531.56
448.55	4595.64
448.75	4378.56
448.96	4208.58
449.16	3985.35
449.36	3829.70
449.57	3409.87
449.77	3153.87
449.98	3198.93
450.18	3344.33
450.39	2985.94
450.59	3266.51
450.79	3264.46
451.00	3153.87
451.20	3213.26
451.41	3008.47
451.61	3483.59
451.81	3237.84
452.02	2961.36
452.22	3071.95
452.43	3190.74
452.63	3123.15
452.84	3129.30
453.04	2934.74
453.24	3340.24
453.45	3141.58
453.65	3090.38
453.86	3061.71
454.06	3270.61
454.26	3332.05
454.47	2971.60
454.67	3264.46
454.87	3248.08
455.08	3160.02
455.28	3231.69
455.49	3282.89
455.69	3088.34
455.89	3690.44
456.10	3174.35
456.30	2985.94
456.51	3491.79
456.71	3291.09
456.91	3213.26
457.12	3016.66
457.32	3364.81
457.52	3074.00
457.73	3196.88
457.93	3289.04
458.14	3162.06
458.34	2955.22
458.54	3102.67
458.75	2996.18
458.95	3540.94
459.15	3332.05
459.36	3074.00
459.56	3043.28
459.76	3727.30
459.97	3274.70
460.17	3053.52
460.37	3168.21
460.58	3243.98
460.78	3409.87
460.99	3061.71
461.19	3104.72
461.39	3160.02
461.60	3289.04
461.80	3096.53
462.00	2869.20
462.21	3278.80
462.41	3180.50
462.61	3000.27
462.82	2889.68
463.02	3395.53
463.22	3282.89
463.43	3121.10
463.63	2985.94
463.83	3524.55
464.04	3373.00
464.24	3104.72
464.44	3057.62
464.64	3282.89
464.85	3403.72
465.05	3080.14
465.25	3008.47
465.46	3143.63
465.66	3459.02
465.86	3180.50
466.07	2959.31
466.27	3254.22
466.47	2985.94
466.68	2926.55
466.88	3119.06
467.08	3471.31
467.29	3465.16
467.49	3078.10
467.69	3200.98
467.89	3299.28
468.10	3174.35
468.30	3188.69
468.50	3192.78
468.71	3418.06
468.91	2936.79
469.11	3221.45
469.31	3133.39
469.52	3074.00
469.72	3532.75
469.92	3330.00
470.13	3078.10
470.33	3274.70
470.53	3438.54
470.73	3522.51
470.94	3825.61
471.14	4235.20
471.34	4812.73
471.54	4278.21
471.75	4087.75
471.95	3893.19
472.15	3755.97
472.36	3674.06
472.56	3563.47
472.76	3887.04
472.96	3735.50
473.17	3342.28
473.37	3170.26
473.57	3213.26
473.77	3432.40
473.98	3172.30
474.18	2951.12
474.38	3944.39
474.58	3223.50
474.79	2914.26
474.99	3164.11
475.19	3524.55
475.39	3067.86
475.60	3078.10
475.80	2979.79
476.00	3307.47
476.20	3176.40
476.41	3143.63
476.61	3100.62
476.81	3620.81
477.01	3090.38
477.21	3428.30
477.42	3231.69
477.62	3125.20
477.82	3459.02
478.02	3014.61
478.23	3084.24
478.43	3117.01
478.63	3225.55
478.83	3174.35
479.03	3051.47
479.24	3536.84
479.44	3764.17
479.64	2996.18
479.84	2805.72
480.04	3164.11
480.25	3508.17
480.45	2981.84
480.65	2934.74
480.85	3577.80
481.06	3198.93
481.26	3239.89
481.46	3028.95
481.66	3379.15
481.86	3147.73
482.06	3307.47
482.27	3090.38
482.47	3168.21
482.67	3330.00
482.87	3022.80
483.07	3086.29
483.28	3176.40
483.48	3026.90
483.68	3098.58
483.88	2949.08
484.08	2836.44
484.29	3078.10
484.49	3123.15
484.69	2873.30
484.89	3538.89
485.09	3516.36
485.29	3135.44
485.50	3274.70
485.70	3190.74
485.90	3559.37
486.10	3188.69
486.30	3123.15
486.50	3508.17
486.71	3368.91
486.91	3106.77
487.11	3160.02
487.31	2979.79
487.51	3358.67
487.71	3000.27
487.91	3016.66
488.12	2996.18
488.32	2848.72
488.52	3117.01
488.72	2727.89
488.92	3286.99
489.12	3450.83
489.32	3225.55
489.53	3078.10
489.73	2998.23
489.93	3585.99
490.13	3030.99
490.33	2871.25
490.53	3274.70
490.73	3594.19
490.94	2885.59
491.14	3131.34
491.34	3354.57
491.54	3469.26
491.74	4018.11
491.94	4687.80
492.14	5144.50
492.34	5265.33
492.54	4790.20
492.75	4138.94
492.95	4474.81
493.15	4044.74
493.35	3854.28
493.55	3704.78
493.75	3596.23
493.95	3862.47
494.15	3375.05
494.35	3174.35
494.56	3327.95
494.76	3088.34
494.96	3289.04
495.16	2979.79
495.36	3289.04
495.56	3280.85
495.76	3076.05
495.96	3000.27
496.16	3114.96
496.36	3651.53
496.56	3090.38
496.77	3155.92
496.97	3252.17
497.17	3471.31
497.37	2918.36
497.57	3266.51
497.77	3342.28
497.97	3030.99
498.17	3069.91
498.37	3043.28
498.57	3448.78
498.77	3180.50
498.97	3192.78
499.17	3350.48
499.38	3219.41
499.58	3342.28
499.78	3280.85
499.98	3293.13
500.18	3209.17
500.38	3164.11
500.58	3264.46
500.78	3696.58
500.98	6268.83
501.18	8128.39
501.38	9885.55
501.58	10911.58
501.78	11050.84
501.98	8955.77
502.18	7669.64
502.38	6631.32
502.58	6438.81
502.78	5717.93
502.98	5386.16
503.18	5195.70
503.38	4968.37
503.59	4302.78
503.79	4134.85
503.99	3692.49
504.19	3858.37
504.39	3868.61
504.59	3596.23
504.79	3624.90
504.99	3997.64
505.19	3547.08
505.39	3332.05
505.59	3493.83
505.79	3745.73
505.99	3565.51
506.19	3078.10
506.39	3405.77
506.59	3170.26
506.79	3239.89
506.99	3264.46
507.19	3004.37
507.39	3293.13
507.59	3014.61
507.79	3047.38
507.99	3016.66
508.19	3233.74
508.39	3241.93
508.59	3160.02
508.79	3166.16
508.99	3682.25
509.19	3149.78
509.39	3119.06
509.59	3024.85
509.79	3182.54
509.99	3299.28
510.19	3211.22
510.39	3246.03
510.59	3336.14
510.79	3143.63
510.99	2922.45
511.19	3030.99
511.39	3643.34
511.59	3522.51
511.79	3233.74
511.99	3004.37
512.19	3669.96
512.38	3215.31
512.58	2979.79
512.78	2969.55
512.98	3561.42
513.18	3577.80
513.38	3049.43
513.58	3166.16
513.78	3233.74
513.98	3166.16
514.18	3100.62
514.38	3127.25
514.58	3334.09
514.78	3143.63
514.98	3043.28
515.18	3051.47
515.38	3039.19
515.58	3581.90
515.78	2967.51
515.98	3127.25
516.18	3409.87
516.38	3289.04
516.57	3014.61
516.77	3024.85
516.97	3426.25
517.17	3129.30
517.37	2809.81
517.57	3164.11
517.77	3243.98
517.97	3082.19
518.17	3157.97
518.37	2969.55
518.57	3110.86
518.77	3241.93
518.97	3053.52
519.16	3141.58
519.36	3499.98
519.56	3084.24
519.76	2963.41
519.96	3053.52
520.16	3608.52
520.36	3076.05
520.56	3299.28
520.76	3008.47
520.96	3213.26
521.16	3526.60
521.35	3293.13
521.55	3155.92
521.75	3358.67
521.95	3203.02
522.15	3020.75
522.35	2904.02
522.55	3104.72
522.75	3450.83
522.95	2891.73
523.14	2951.12
523.34	3282.89
523.54	3157.97
523.74	3086.29
523.94	3104.72
524.14	2981.84
524.34	3389.39
524.54	3231.69
524.73	3037.14
524.93	3452.88
525.13	3250.13
525.33	3012.56
525.53	3340.24
525.73	3348.43
525.93	3266.51
526.13	3096.53
526.32	2994.13
526.52	3563.47
526.72	3438.54
526.92	3137.49
527.12	3006.42
527.32	3008.47
527.52	3360.72
527.71	3112.91
527.91	3145.68
528.11	3123.15
528.31	3260.37
528.51	3010.51
528.71	3192.78
528.90	3373.00
529.10	3553.23
529.30	3125.20
529.50	2750.42
529.70	3346.38
529.90	3217.36
530.09	3059.67
530.29	2910.16
530.49	3065.81
530.69	3895.24
530.89	3264.46
531.09	3149.78
531.28	3256.27
531.48	3502.03
531.68	3098.58
531.88	3043.28
532.08	3360.72
532.28	3239.89
532.47	3061.71
532.67	3172.30
532.87	3401.68
533.07	3104.72
533.27	3016.66
533.46	3106.77
533.66	3360.72
533.86	3227.60
534.06	3147.73
534.26	3033.04
534.45	3250.13
534.65	3542.99
534.85	3143.63
535.05	2981.84
535.25	3450.83
535.44	2942.93
535.64	3160.02
535.84	3047.38
536.04	3129.30
536.24	3213.26
536.43	2979.79
536.63	3082.19
536.83	3268.56
537.03	3332.05
537.22	2910.16
537.42	2889.68
537.62	3319.76
537.82	3125.20
538.02	3286.99
538.21	3168.21
538.41	3835.85
538.61	3383.24
538.81	3102.67
539.00	3209.17
539.20	2924.50
539.40	3278.80
539.60	3049.43
539.79	3256.27
539.99	3266.51
540.19	3108.82
540.39	3000.27
540.58	3133.39
540.78	3426.25
540.98	3256.27
541.18	3209.17
541.37	3145.68
541.57	3229.65
541.77	3307.47
541.97	3000.27
542.16	2914.26
542.36	3155.92
542.56	3188.69
542.76	3289.04
542.95	3100.62
543.15	3430.35
543.35	3483.59
543.54	2959.31
543.74	2973.65
543.94	3583.95
544.14	3205.07
544.33	3229.65
544.53	3012.56
544.73	3254.22
544.93	3196.88
545.12	3143.63
545.32	3098.58
545.52	3184.59
545.71	3086.29
545.91	3037.14
546.11	3022.80
546.30	3112.91
546.50	3246.03
546.70	3123.15
546.90	3018.71
547.09	2920.40
547.29	3237.84
547.49	3229.65
547.68	3164.11
547.88	3237.84
548.08	3379.15
548.27	3434.44
548.47	3010.51
548.67	3160.02
548.87	3381.20
549.06	3076.05
549.26	2996.18
549.46	3364.81
549.65	3092.43
549.85	3110.86
550.05	3141.58
550.24	3039.19
550.44	3307.47
550.64	3235.79
550.83	3024.85
551.03	3534.79
551.23	3456.97
551.42	3151.82
551.62	3155.92
551.82	3264.46
552.01	3131.34
552.21	3370.96
552.41	3205.07
552.60	3633.10
552.80	3293.13
553.00	3024.85
553.19	3080.14
553.39	3536.84
553.59	3045.33
553.78	3203.02
553.98	3004.37
554.17	3057.62
554.37	3360.72
554.57	3162.06
554.76	2934.74
554.96	3200.98
555.16	3237.84
555.35	3102.67
555.55	3264.46
555.75	3370.96
555.94	3526.60
556.14	2830.29
556.33	3074.00
556.53	3321.81
556.73	3211.22
556.92	3129.30
557.12	3002.32
557.32	3721.16
557.51	3487.69
557.71	3151.82
557.90	3307.47
558.10	3561.42
558.30	3274.70
558.49	3110.86
558.69	3088.34
558.88	3387.34
559.08	3313.61
559.28	3063.76
559.47	3076.05
559.67	3446.73
559.86	3674.06
560.06	3010.51
560.26	3112.91
560.45	3352.52
560.65	3252.17
560.84	3381.20
561.04	3016.66
561.24	3358.67
561.43	3016.66
561.63	3321.81
561.82	3135.44
562.02	3377.10
562.22	3071.95
562.41	2987.99
562.61	3051.47
562.80	3014.61
563.00	3764.17
563.19	3133.39
563.39	3127.25
563.59	3420.11
563.78	3041.23
563.98	2791.38
564.17	3051.47
564.37	2947.03
564.56	3256.27
564.76	3045.33
564.96	3164.11
565.15	3336.14
565.35	3780.55
565.54	3153.87
565.74	3108.82
565.93	3370.96
566.13	3289.04
566.32	3166.16
566.52	3205.07
566.71	3270.61
566.91	3493.83
567.11	3196.88
567.30	2906.07
567.50	3381.20
567.69	3364.81
567.89	3049.43
568.08	3074.00
568.28	3373.00
568.47	3090.38
568.67	3047.38
568.86	2987.99
569.06	3442.64
569.25	3166.16
569.45	2961.36
569.64	3104.72
569.84	3153.87
570.04	3215.31
570.23	2967.51
570.43	3119.06
570.62	3352.52
570.82	3600.33
571.01	2979.79
571.21	2985.94
571.40	3133.39
571.60	3356.62
571.79	3065.81
571.99	3108.82
572.18	3030.99
572.38	3411.92
572.57	3110.86
572.77	3055.57
572.96	3776.45
573.16	3336.14
573.35	3047.38
573.55	3200.98
573.74	3305.42
573.94	3223.50
574.13	2994.13
574.33	3276.75
574.52	3467.21
574.71	3317.71
574.91	3123.15
575.10	2967.51
575.30	3198.93
575.49	3057.62
575.69	2947.03
575.88	3082.19
576.08	3246.03
576.27	3555.27
576.47	3037.14
576.66	3289.04
576.86	3475.40
577.05	3325.90
577.25	3055.57
577.44	3233.74
577.64	3182.54
577.83	3448.78
578.02	3020.75
578.22	3241.93
578.41	3612.62
578.61	3209.17
578.80	2887.64
579.00	3205.07
579.19	3190.74
579.39	3278.80
579.58	3149.78
579.77	3168.21
579.97	3526.60
580.16	3467.21
580.36	3188.69
580.55	3092.43
580.75	3319.76
580.94	3225.55
581.13	3241.93
581.33	3379.15
581.52	3221.45
581.72	3667.91
581.91	3246.03
582.11	3104.72
582.30	3432.40
582.49	3319.76
582.69	3334.09
582.88	3157.97
583.08	3332.05
583.27	3442.64
583.47	3223.50
583.66	3045.33
583.85	3094.48
584.05	3262.41
584.24	3196.88
584.44	3168.21
584.63	3454.92
584.82	3577.80
585.02	3375.05
585.21	3295.18
585.41	3422.16
585.60	3336.14
585.79	3323.85
585.99	3469.26
586.18	3272.65
586.37	4261.82
586.57	6356.90
586.76	18056.94
586.96	37469.64
587.15	51102.96
587.34	59849.84
587.54	64017.46
587.73	56798.37
587.93	41252.23
588.12	31563.29
588.31	25861.75
588.51	23082.66
588.70	21200.57
588.89	18722.53
589.09	15968.01
589.28	13682.48
589.47	10899.29
589.67	8368.00
589.86	6608.80
590.06	5146.55
590.25	4542.39
590.44	3905.48
590.64	3514.31
590.83	3553.23
591.02	3561.42
591.22	3117.01
591.41	3231.69
591.60	3229.65
591.80	3811.27
591.99	2887.64
592.18	3106.77
592.38	3524.55
592.57	3188.69
592.76	3057.62
592.96	3149.78
593.15	3309.52
593.34	3456.97
593.54	3026.90
593.73	3215.31
593.92	3395.53
594.12	3409.87
594.31	3139.54
594.50	3264.46
594.70	3413.96
594.89	3844.04
595.08	3002.32
595.28	3266.51
595.47	3960.77
595.66	3430.35
595.86	3053.52
596.05	2961.36
596.24	3196.88
596.43	3608.52
596.63	3184.59
596.82	3239.89
597.01	3469.26
597.21	3694.54
597.40	3010.51
597.59	3174.35
597.79	3219.41
597.98	3409.87
598.17	3141.58
598.36	3106.77
598.56	3395.53
598.75	3170.26
598.94	3092.43
599.14	3092.43
599.33	3270.61
599.52	3332.05
599.71	3119.06
599.91	3043.28
600.10	3397.58
600.29	3262.41
600.48	3180.50
600.68	3209.17
600.87	3409.87
601.06	3231.69
601.26	3235.79
601.45	3180.50
601.64	3190.74
601.83	3559.37
602.03	3012.56
602.22	3000.27
602.41	3502.03
602.60	3700.68
602.80	3157.97
602.99	3280.85
603.18	3172.30
603.37	3301.33
603.57	3028.95
603.76	3106.77
603.95	3510.22
604.14	3248.08
604.34	2959.31
604.53	3020.75
604.72	3334.09
604.91	3463.12
605.10	3114.96
605.30	2942.93
605.49	3725.26
605.68	3362.76
605.87	3129.30
606.07	2983.89
606.26	3377.10
606.45	3454.92
606.64	3153.87
606.84	2957.27
607.03	3262.41
607.22	3512.27
607.41	3145.68
607.60	3055.57
607.80	3428.30
607.99	3223.50
608.18	3047.38
608.37	3114.96
608.56	3233.74
608.76	3483.59
608.95	3256.27
609.14	3110.86
609.33	3510.22
609.52	3518.41
609.72	3168.21
609.91	3207.12
610.10	3383.24
610.29	3614.66
610.48	3225.55
610.68	3223.50
610.87	3307.47
611.06	3512.27
611.25	3090.38
611.44	3256.27
611.63	3229.65
611.83	3594.19
612.02	2963.41
612.21	3170.26
612.40	2951.12
612.59	3049.43
612.79	2899.92
612.98	3121.10
613.17	3618.76
613.36	3225.55
613.55	3229.65
613.74	3114.96
613.93	3311.57
614.13	3411.92
614.32	3254.22
614.51	3205.07
614.70	3338.19
614.89	3229.65
615.08	3164.11
615.28	3432.40
615.47	3123.15
615.66	3356.62
615.85	3229.65
616.04	3237.84
616.23	3264.46
616.42	3172.30
616.62	3057.62
616.81	3123.15
617.00	3252.17
617.19	3413.96
617.38	3110.86
617.57	3223.50
617.76	3420.11
617.95	3463.12
618.15	3190.74
618.34	3319.76
618.53	2975.70
618.72	3475.40
618.91	3131.34
619.10	3149.78
619.29	3311.57
619.48	3352.52
619.68	2918.36
619.87	3078.10
620.06	3026.90
620.25	3422.16
620.44	3000.27
620.63	3084.24
620.82	3268.56
621.01	3278.80
621.20	3133.39
621.39	3254.22
621.59	3321.81
621.78	3327.95
621.97	3059.67
622.16	3237.84
622.35	3315.66
622.54	3430.35
622.73	3119.06
622.92	2772.95
623.11	3467.21
623.30	3186.64
623.49	3286.99
623.68	2942.93
623.88	3555.27
624.07	3160.02
624.26	2977.75
624.45	3051.47
624.64	3172.30
624.83	3348.43
625.02	3131.34
625.21	3172.30
625.40	3342.28
625.59	3581.90
625.78	3135.44
625.97	3186.64
626.16	3551.18
626.35	3422.16
626.54	3114.96
626.74	3303.37
626.93	3207.12
627.12	3248.08
627.31	3190.74
627.50	3114.96
627.69	3473.36
627.88	3092.43
628.07	2955.22
628.26	2901.97
628.45	3100.62
628.64	2977.75
628.83	2963.41
629.02	2914.26
629.21	3454.92
629.40	3270.61
629.59	3051.47
629.78	3006.42
629.97	3330.00
630.16	3325.90
630.35	3078.10
630.54	3180.50
630.73	3162.06
630.92	3289.04
631.11	2971.60
631.30	3100.62
631.49	3446.73
631.68	3217.36
631.87	3100.62
632.06	2998.23
632.25	3749.83
632.44	3252.17
632.63	3127.25
632.82	3121.10
633.01	3123.15
633.20	3366.86
633.39	3086.29
633.58	2906.07
633.77	3377.10
633.96	3450.83
634.15	3227.60
634.34	3211.22
634.53	3282.89
634.72	3090.38
634.91	2889.68
635.10	3043.28
635.29	3411.92
635.48	3332.05
635.67	2965.46
635.86	2885.59
636.05	3665.86
636.24	3256.27
636.43	3055.57
636.62	3168.21
636.81	2844.63
637.00	3311.57
637.19	3055.57
637.38	3098.58
637.57	3207.12
637.76	3268.56
637.95	3303.37
638.14	3241.93
638.33	3289.04
638.52	3286.99
638.71	3067.86
638.89	2916.31
639.08	3841.99
639.27	3565.51
639.46	3362.76
639.65	3637.19
639.84	3856.33
640.03	4054.98
640.22	3583.95
640.41	3581.90
640.60	3479.50
640.79	3499.98
640.98	3346.38
641.17	3332.05
641.36	3567.56
641.55	3454.92
641.74	2990.03
641.92	3067.86
642.11	3139.54
642.30	3149.78
642.49	3004.37
642.68	3131.34
642.87	3385.29
643.06	3434.44
643.25	2983.89
643.44	2965.46
643.63	3164.11
643.82	3420.11
644.00	3059.67
644.19	3078.10
644.38	3006.42
644.57	3389.39
644.76	3059.67
644.95	3125.20
645.14	3366.86
645.33	3172.30
645.52	3119.06
645.71	2938.84
645.89	3061.71
646.08	3303.37
646.27	3123.15
646.46	3295.18
646.65	3033.04
646.84	3246.03
647.03	2983.89
647.22	3241.93
647.40	3385.29
647.59	3190.74
647.78	2881.49
647.97	3043.28
648.16	3096.53
648.35	3596.23
648.54	3327.95
648.73	3110.86
648.91	3393.48
649.10	3264.46
649.29	3020.75
649.48	3012.56
649.67	3395.53
649.86	3260.37
650.05	3194.83
650.23	3311.57
650.42	3131.34
650.61	3592.14
650.80	3262.41
650.99	3348.43
651.18	3532.75
651.36	3524.55
651.55	3002.32
651.74	3200.98
651.93	3229.65
652.12	3254.22
652.31	3170.26
652.49	3180.50
652.68	3143.63
652.87	3542.99
653.06	3205.07
653.25	3379.15
653.44	3299.28
653.62	3663.82
653.81	3110.86
654.00	2975.70
654.19	3432.40
654.38	3784.65
654.56	3137.49
654.75	3047.38
654.94	3438.54
655.13	3303.37
655.32	3059.67
655.51	3188.69
655.69	3143.63
655.88	3413.96
656.07	2953.17
656.26	3086.29
656.45	2998.23
656.63	3350.48
656.82	3074.00
657.01	3303.37
657.20	3131.34
657.38	3606.47
657.57	2971.60
657.76	2854.87
657.95	3471.31
658.14	3166.16
658.32	3168.21
658.51	2940.88
658.70	3293.13
658.89	3418.06
659.08	3123.15
659.26	3293.13
659.45	3074.00
659.64	3348.43
659.83	3010.51
660.01	3450.83
660.20	3293.13
660.39	3575.75
660.58	2824.15
660.76	3176.40
660.95	2967.51
661.14	3254.22
661.33	2963.41
661.51	3147.73
661.70	3092.43
661.89	3358.67
662.08	3141.58
662.26	2942.93
662.45	3098.58
662.64	3594.19
662.83	3082.19
663.01	2992.08
663.20	3188.69
663.39	3622.86
663.58	3160.02
663.76	3010.51
663.95	3370.96
664.14	3119.06
664.32	3221.45
664.51	2875.35
664.70	2985.94
664.89	3286.99
665.07	2969.55
665.26	3207.12
665.45	3010.51
665.64	3370.96
665.82	3078.10
666.01	3225.55
666.20	3041.23
666.38	3444.68
666.57	3397.58
666.76	5539.76
666.95	12943.16
667.13	20631.24
667.32	24870.53
667.51	28505.68
667.69	29140.55
667.88	24522.38
668.07	17753.84
668.25	14935.84
668.44	13119.29
668.63	11448.15
668.81	9973.61
669.00	8546.17
669.19	7837.58
669.38	6604.70
669.56	5695.40
669.75	4960.18
669.94	4429.76
670.12	3811.27
670.31	3426.25
670.50	3346.38
670.68	3528.65
670.87	3420.11
671.06	3088.34
671.24	3172.30
671.43	3598.28
671.62	3307.47
671.80	3014.61
671.99	3254.22
672.18	3282.89
672.36	3401.68
672.55	3180.50
672.74	3223.50
672.92	3221.45
673.11	3370.96
673.29	2928.60
673.48	3221.45
673.67	3186.64
673.85	3467.21
674.04	3033.04
674.23	3121.10
674.41	3633.10
674.60	3039.19
674.79	2861.01
674.97	2904.02
675.16	3373.00
675.34	3403.72
675.53	3071.95
675.72	3151.82
675.90	3737.54
676.09	3147.73
676.28	3239.89
676.46	2932.69
676.65	3393.48
676.83	3162.06
677.02	3114.96
677.21	3229.65
677.39	3356.62
677.58	3071.95
677.77	3049.43
677.95	2977.75
678.14	3196.88
678.32	3178.45
678.51	3147.73
678.70	3393.48
678.88	3213.26
679.07	3336.14
679.25	3080.14
679.44	3084.24
679.63	3020.75
679.81	3344.33
680.00	3364.81
680.18	3203.02
680.37	3598.28
680.55	3258.32
680.74	2992.08
680.93	2832.34
681.11	3280.85
681.30	3293.13
681.48	3141.58
681.67	3082.19
681.85	3340.24
682.04	3104.72
682.23	3184.59
682.41	3221.45
682.60	3225.55
682.78	3196.88
682.97	2947.03
683.15	3108.82
683.34	3272.65
683.53	3590.09
683.71	2985.94
683.90	3117.01
684.08	3678.15
684.27	3198.93
684.45	3188.69
684.64	3241.93
684.82	3364.81
685.01	3350.48
685.19	3086.29
685.38	3395.53
685.57	3254.22
685.75	3180.50
685.94	3024.85
686.12	3047.38
686.31	3213.26
686.49	3583.95
686.68	2832.34
686.86	3180.50
687.05	3207.12
687.23	3583.95
687.42	3143.63
687.60	2934.74
687.79	3495.88
687.97	3553.23
688.16	3227.60
688.34	3286.99
688.53	2901.97
688.71	3336.14
688.90	3387.34
689.08	3069.91
689.27	2940.88
689.45	3375.05
689.64	3264.46
689.82	3139.54
690.01	3330.00
690.19	3364.81
690.38	3131.34
690.56	3227.60
690.75	3094.48
690.93	3213.26
691.12	3117.01
691.30	3227.60
691.49	3094.48
691.67	3258.32
691.86	3418.06
692.04	3166.16
692.23	3190.74
692.41	3334.09
692.60	3528.65
692.78	3348.43
692.97	3215.31
693.15	3473.36
693.34	3344.33
693.52	3250.13
693.71	3188.69
693.89	3114.96
694.08	2973.65
694.26	3127.25
694.44	3442.64
694.63	3459.02
694.81	3002.32
695.00	3129.30
695.18	3461.07
695.37	3784.65
695.55	3106.77
695.74	3172.30
695.92	3086.29
696.10	3549.13
696.29	2969.55
696.47	3102.67
696.66	3020.75
696.84	3100.62
697.03	3078.10
697.21	3338.19
697.40	4646.84
697.58	3522.51
697.76	3041.23
697.95	3098.58
698.13	3133.39
698.32	3067.86
698.50	3092.43
698.68	3082.19
698.87	3379.15
699.05	3583.95
699.24	3063.76
699.42	3086.29
699.61	3377.10
699.79	3291.09
699.97	3166.16
700.16	2938.84
700.34	3076.05
700.53	3362.76
700.71	3325.90
700.89	3237.84
701.08	3213.26
701.26	3207.12
701.45	3352.52
701.63	3053.52
701.81	3223.50
702.00	3184.59
702.18	3160.02
702.37	3076.05
702.55	3547.08
702.73	3444.68
702.92	3129.30
703.10	3442.64
703.28	3526.60
703.47	3018.71
703.65	3352.52
703.84	3225.55
704.02	3203.02
704.20	3579.85
704.39	3057.62
704.57	3069.91
704.75	3454.92
704.94	3373.00
705.12	3252.17
705.30	3958.72
705.49	8425.34
705.67	17114.87
705.86	23864.98
706.04	27088.48
706.22	29957.69
706.41	28749.39
706.59	21687.99
706.77	16893.69
706.96	14702.37
707.14	13291.32
707.32	11198.29
707.51	9801.58
707.69	8138.63
707.87	6555.55
708.06	5310.38
708.24	4564.92
708.42	4067.27
708.61	4220.86
708.79	3295.18
708.97	3180.50
709.16	3381.20
709.34	3381.20
709.52	3078.10
709.71	3147.73
709.89	3338.19
710.07	3121.10
710.26	3028.95
710.44	3123.15
710.62	3430.35
710.80	3205.07
710.99	3203.02
711.17	3250.13
711.35	3155.92
711.54	3213.26
711.72	3217.36
711.90	3131.34
712.09	3373.00
712.27	3117.01
712.45	3135.44
712.63	3082.19
712.82	3289.04
713.00	3264.46
713.18	3200.98
713.37	3243.98
713.55	3405.77
713.73	3395.53
713.91	3231.69
714.10	3137.49
714.28	3239.89
714.46	3286.99
714.65	3139.54
714.83	3180.50
715.01	3289.04
715.19	3198.93
715.38	3000.27
715.56	3256.27
715.74	3104.72
715.92	3145.68
716.11	3362.76
716.29	2826.20
716.47	3278.80
716.65	3145.68
716.84	2922.45
717.02	3168.21
717.20	2928.60
717.38	3100.62
717.57	3207.12
717.75	3172.30
717.93	3143.63
718.11	3364.81
718.30	2951.12
718.48	3155.92
718.66	3542.99
718.84	3487.69
719.03	3059.67
719.21	2981.84
719.39	3618.76
719.57	3336.14
719.75	3203.02
719.94	3004.37
720.12	3295.18
720.30	3297.23
720.48	3147.73
720.67	3022.80
720.85	3098.58
721.03	3186.64
721.21	3098.58
721.39	3243.98
721.58	3389.39
721.76	3237.84
721.94	3084.24
722.12	3157.97
722.30	3557.32
722.49	3164.11
722.67	3123.15
722.85	3147.73
723.03	2996.18
723.21	3131.34
723.40	3143.63
723.58	3229.65
723.76	3428.30
723.94	3528.65
724.12	3123.15
724.30	3362.76
724.49	3477.45
724.67	3043.28
724.85	3160.02
725.03	2998.23
725.21	3516.36
725.40	3493.83
725.58	3125.20
725.76	3315.66
725.94	3405.77
726.12	3051.47
726.30	3149.78
726.49	3016.66
726.67	3190.74
726.85	3461.07
727.03	4024.26
727.21	5492.65
727.39	7194.51
727.57	7704.46
727.76	8343.42
727.94	8488.83
728.12	7276.43
728.30	6104.99
728.48	5425.07
728.66	5019.57
728.84	4865.97
729.03	4143.04
729.21	3809.22
729.39	3538.89
729.57	3409.87
729.75	3409.87
729.93	3383.24
730.11	3067.86
730.30	3182.54
730.48	3188.69
730.66	3205.07
730.84	3188.69
731.02	3237.84
731.20	3123.15
731.38	3164.11
731.56	2969.55
731.74	2977.75
731.93	3284.94
732.11	3196.88
732.29	3164.11
732.47	3364.81
732.65	3330.00
732.83	3272.65
733.01	3252.17
733.19	3213.26
733.37	3395.53
733.56	3043.28
733.74	2914.26
733.92	3567.56
734.10	3108.82
734.28	3231.69
734.46	2930.64
734.64	3149.78
734.82	3157.97
735.00	3043.28
735.18	2969.55
735.36	3354.57
735.54	3235.79
735.73	3076.05
735.91	3243.98
736.09	3598.28
736.27	3284.94
736.45	3168.21
736.63	2856.92
736.81	3205.07
736.99	3456.97
737.17	3356.62
737.35	3006.42
737.53	3299.28
737.71	3270.61
737.89	3393.48
738.07	3002.32
738.25	3102.67
738.43	3039.19
738.61	3051.47
738.80	2834.39
738.98	3047.38
739.16	3121.10
739.34	2971.60
739.52	3377.10
739.70	3280.85
739.88	3420.11
740.06	3264.46
740.24	2787.29
740.42	3506.12
740.60	2897.88
740.78	3024.85
740.96	2854.87
741.14	3174.35
741.32	3254.22
741.50	2942.93
741.68	3381.20
741.86	3606.47
742.04	3131.34
742.22	2983.89
742.40	3129.30
742.58	3377.10
742.76	3078.10
742.94	3307.47
743.12	2891.73
743.30	3274.70
743.48	3373.00
743.66	3041.23
743.84	3164.11
744.02	3297.23
744.20	3151.82
744.38	2975.70
744.56	3108.82
744.74	3653.58
744.92	3368.91
745.10	3340.24
745.28	3119.06
745.46	3571.66
745.64	3231.69
745.82	3184.59
746.00	3008.47
746.18	3356.62
746.36	3090.38
746.54	3067.86
746.72	3112.91
746.90	3078.10
747.08	3483.59
747.26	3149.78
747.44	3215.31
747.62	3307.47
747.80	3297.23
747.98	3172.30
748.15	3055.57
748.33	3612.62
748.51	3248.08
748.69	3174.35
748.87	2992.08
749.05	3164.11
749.23	3284.94
749.41	3112.91
749.59	3033.04
749.77	3467.21
749.95	3166.16
750.13	3006.42
750.31	3319.76
750.49	3262.41
750.67	3512.27
750.85	3237.84
751.03	3078.10
751.20	3684.30
751.38	3258.32
751.56	3117.01
751.74	3071.95
751.92	3266.51
752.10	3018.71
752.28	3284.94
752.46	2996.18
752.64	3270.61
752.82	3291.09
753.00	3139.54
753.18	3037.14
753.35	3168.21
753.53	3231.69
753.71	3059.67
753.89	3119.06
754.07	3280.85
754.25	3489.74
754.43	3198.93
754.61	2961.36
754.79	3315.66
754.97	3168.21
755.14	3319.76
755.32	2963.41
755.50	3364.81
755.68	3303.37
755.86	2979.79
756.04	3010.51
756.22	2854.87
756.40	3520.46
756.57	3319.76
756.75	3033.04
756.93	3534.79
757.11	3397.58
757.29	3000.27
757.47	3051.47
757.65	2940.88
757.82	2791.38
758.00	2930.64
758.18	3061.71
758.36	3121.10
758.54	3618.76
758.72	2897.88
758.90	3209.17
759.07	3387.34
759.25	3000.27
759.43	3188.69
759.61	2906.07
759.79	4478.91
759.97	3549.13
760.15	3078.10
760.32	3067.86
760.50	3418.06
760.68	3518.41
760.86	2985.94
761.04	3336.14
761.22	3475.40
761.39	3332.05
761.57	3299.28
761.75	3037.14
761.93	3440.59
762.11	3231.69
762.28	3168.21
762.46	3082.19
762.64	3489.74
762.82	3043.28
763.00	2953.17
763.18	3323.85
763.35	2996.18
763.53	3387.34
763.71	3106.77
763.89	3039.19
764.07	3336.14
764.24	3370.96
764.42	3307.47
764.60	3098.58
764.78	3377.10
764.96	3459.02
765.13	3205.07
765.31	2992.08
765.49	3467.21
765.67	3028.95
765.84	3006.42
766.02	2985.94
766.20	2914.26
766.38	3352.52
766.56	3153.87
766.73	3282.89
766.91	3268.56
767.09	3237.84
767.27	3157.97
767.44	3002.32
767.62	3377.10
767.80	3297.23
767.98	3033.04
768.15	3071.95
768.33	3432.40
768.51	3481.55
768.69	3217.36
768.87	3172.30
769.04	3303.37
769.22	3739.59
769.40	3213.26
769.58	3250.13
769.75	3319.76
769.93	3497.93
770.11	3102.67
770.28	3006.42
770.46	3483.59
770.64	3348.43
770.82	3061.71
770.99	3053.52
771.17	3411.92
771.35	3170.26
771.53	3172.30
771.70	3014.61
771.88	3315.66
772.06	3323.85
772.23	3049.43
772.41	3174.35
772.59	3213.26
772.77	3119.06
772.94	3205.07
773.12	3164.11
773.30	3233.74
773.47	3295.18
773.65	2932.69
773.83	3272.65
774.01	3213.26
774.18	2809.81
774.36	3084.24
774.54	2928.60
774.71	3319.76
774.89	2951.12
775.07	3006.42
775.24	3084.24
775.42	3192.78
775.60	3622.86
775.78	3041.23
775.95	2938.84
776.13	3012.56
776.31	2893.78
776.48	3274.70
776.66	3274.70
776.84	3129.30
777.01	3096.53
777.19	2983.89
777.37	3008.47
777.54	3442.64
777.72	3647.43
777.90	3209.17
778.07	3049.43
778.25	3844.04
778.43	3520.46
778.60	3035.09
778.78	3096.53
778.96	3491.79
779.13	3086.29
779.31	3135.44
779.49	3106.77
779.66	3291.09
779.84	3266.51
780.01	3172.30
780.19	3008.47
780.37	3475.40
780.54	3418.06
780.72	2959.31
780.90	3100.62
781.07	3243.98
781.25	3160.02
781.43	3260.37
781.60	3090.38
781.78	3454.92
781.95	3272.65
782.13	3033.04
782.31	3008.47
782.48	2908.12
782.66	3256.27
782.83	3303.37
783.01	3209.17
783.19	3446.73
783.36	3221.45
783.54	3004.37
783.72	3176.40
783.89	3178.45
784.07	3254.22
784.24	3200.98
784.42	3293.13
784.60	3350.48
784.77	3399.63
784.95	2910.16
785.12	3061.71
785.30	3313.61
785.47	3033.04
785.65	3006.42
785.83	3045.33
786.00	3188.69
786.18	3391.44
786.35	3016.66
786.53	2869.20
786.71	3364.81
786.88	3393.48
787.06	3133.39
787.23	3098.58
787.41	3106.77
787.58	3198.93
787.76	2934.74
787.94	3178.45
788.11	3289.04
788.29	3020.75
788.46	3108.82
788.64	2885.59
788.81	3184.59
788.99	3114.96
789.16	3133.39
789.34	3117.01
789.52	3133.39
789.69	3231.69
789.87	2897.88
790.04	3112.91
790.22	3282.89
790.39	3633.10
790.57	2906.07
790.74	3018.71
790.92	3549.13
791.09	2899.92
791.27	3157.97
791.44	3102.67
791.62	3168.21
791.79	3418.06
791.97	3168.21
792.15	3379.15
792.32	3387.34
792.50	3391.44
792.67	3282.89
792.85	3356.62
793.02	3332.05
793.20	3135.44
793.37	2916.31
793.55	2979.79
793.72	2983.89
793.90	3352.52
794.07	3069.91
794.25	2994.13
794.42	3346.38
794.60	3278.80
794.77	3198.93
794.95	3209.17
795.12	3393.48
795.30	3225.55
795.47	2887.64
795.65	3454.92
795.82	3313.61
796.00	3168.21
796.17	3155.92
796.34	2930.64
796.52	3330.00
796.69	3477.45
796.87	3266.51
797.04	3184.59
797.22	3524.55
797.39	3280.85
797.57	3297.23
797.74	3125.20
797.92	3360.72
798.09	3149.78
798.27	3387.34
798.44	3022.80
798.62	3074.00
798.79	3284.94
798.96	3106.77
799.14	3162.06
799.31	3753.93
799.49	3151.82
799.66	3037.14
799.84	3108.82
800.01	2967.51
800.19	3323.85
800.36	2901.97
800.53	3180.50
800.71	3397.58
800.88	3653.58
801.06	2981.84
801.23	3098.58
801.41	3213.26
801.58	3246.03
801.75	3067.86
801.93	3135.44
802.10	3350.48
802.28	3237.84
802.45	3137.49
802.63	3190.74
802.80	3477.45
802.97	3153.87
803.15	3080.14
803.32	3020.75
803.50	3221.45
803.67	3196.88
803.84	3065.81
804.02	3145.68
804.19	3186.64
804.37	2928.60
804.54	2897.88
804.71	3049.43
804.89	3303.37
805.06	3057.62
805.24	3024.85
805.41	2973.65
805.58	3074.00
805.76	3788.74
805.93	3030.99
806.10	3180.50
806.28	3336.14
806.45	3303.37
806.63	3282.89
806.80	3180.50
806.97	3303.37
807.15	3393.48
807.32	3149.78
807.49	3035.09
807.67	3090.38
807.84	3311.57
808.01	2869.20
808.19	3254.22
808.36	3762.12
808.54	3262.41
808.71	2992.08
808.88	3030.99
809.06	3530.70
809.23	3567.56
809.40	3037.14
809.58	3053.52
809.75	3250.13
809.92	3022.80
810.10	3348.43
810.27	3067.86
810.44	3346.38
810.62	3401.68
810.79	3100.62
810.96	3078.10
811.14	3198.93
811.31	3327.95
811.48	3243.98
811.66	3151.82
811.83	3370.96
812.00	3430.35
812.18	3155.92
812.35	3268.56
812.52	3211.22
812.69	3176.40
812.87	3010.51
813.04	3074.00
813.21	3299.28
813.39	3110.86
813.56	3059.67
813.73	3391.44
813.91	2949.08
814.08	3272.65
814.25	3059.67
814.42	2836.44
814.60	3164.11
814.77	3340.24
814.94	3020.75
815.12	3192.78
815.29	3559.37
815.46	3117.01
815.63	3041.23
815.81	3147.73
815.98	3143.63
816.15	3221.45
816.33	3170.26
816.50	3121.10
816.67	3348.43
816.84	3190.74
817.02	2967.51
817.19	3002.32
817.36	3364.81
817.53	3297.23
817.71	2904.02
817.88	3127.25
818.05	3211.22
818.22	3293.13
818.40	3270.61
818.57	3055.57
818.74	3280.85
818.91	3258.32
819.09	3323.85
819.26	3235.79
819.43	3078.10
819.60	3104.72
819.78	3227.60
819.95	3119.06
820.12	3069.91
820.29	3536.84
820.47	3338.19
820.64	3008.47
820.81	3030.99
820.98	3098.58
821.15	3061.71
821.33	3180.50
821.50	2906.07
821.67	3459.02
821.84	3045.33
822.02	3188.69
822.19	3465.16
822.36	3137.49
822.53	3028.95
822.70	2990.03
822.88	3143.63
823.05	3469.26
823.22	3114.96
823.39	3018.71
823.56	3213.26
823.74	3639.24
823.91	2936.79
824.08	2955.22
824.25	3129.30
824.42	3526.60
824.60	2944.98
824.77	3125.20
824.94	3176.40
825.11	3373.00
825.28	2983.89
825.45	3246.03
825.63	3362.76
825.80	3123.15
825.97	3149.78
826.14	3203.02
826.31	2897.88
826.48	3395.53
826.66	3104.72
826.83	2910.16
827.00	3309.52
827.17	3059.67
827.34	3121.10
827.51	3024.85
827.69	3336.14
827.86	3000.27
828.03	3078.10
828.20	3096.53
828.37	3096.53
828.54	3278.80
828.71	2969.55
828.89	3237.84
829.06	3180.50
829.23	3559.37
829.40	3028.95
829.57	3012.56
829.74	3463.12
829.91	3151.82
830.09	3024.85
830.26	3278.80
830.43	3522.51
830.60	3239.89
830.77	3192.78
830.94	3377.10
831.11	3411.92
831.28	3215.31
831.46	3192.78
831.63	2998.23
831.80	3389.39
831.97	3141.58
832.14	3151.82
832.31	3098.58
832.48	3303.37
832.65	3356.62
832.82	3155.92
832.99	3092.43
833.17	2998.23
833.34	3557.32
833.51	3010.51
833.68	2869.20
833.85	3473.36
834.02	2979.79
834.19	2994.13
834.36	3043.28
834.53	3215.31
834.70	3448.78
834.87	3028.95
835.04	2828.24
835.22	3160.02
835.39	3205.07
835.56	2922.45
835.73	2938.84
835.90	3536.84
836.07	3135.44
836.24	3082.19
836.41	2912.21
836.58	3024.85
836.75	3479.50
836.92	2959.31
837.09	2920.40
837.26	3397.58
837.43	3383.24
837.60	3035.09
837.77	2912.21
837.94	3479.50
838.12	3469.26
838.29	2779.09
838.46	2828.24
838.63	3092.43
838.80	3502.03
838.97	2994.13
839.14	2836.44
839.31	3293.13
839.48	3360.72
839.65	2932.69
839.82	2985.94
839.99	3340.24
840.16	3205.07
840.33	2811.86
840.50	2973.65
840.67	3033.04
840.84	2777.05
841.01	2918.36
841.18	2942.93
841.35	3233.74
841.52	3504.07
841.69	3246.03
841.86	2936.79
842.03	3217.36
842.20	3481.55
842.37	2914.26
842.54	2953.17
842.71	3264.46
842.88	2973.65
843.05	2979.79
843.22	2889.68
843.39	3405.77
843.56	3074.00
843.73	2908.12
843.90	2955.22
844.07	3260.37
844.24	3428.30
844.41	3024.85
844.58	3000.27
844.75	3176.40
844.92	3370.96
845.09	2918.36
845.26	2969.55
845.43	3426.25
845.60	3180.50
845.77	3088.34
845.94	2914.26
846.10	3430.35
846.27	3057.62
846.44	2723.80
846.61	2813.91
846.78	3411.92
846.95	3452.88
847.12	2836.44
847.29	2973.65
847.46	3102.67
847.63	3452.88
847.80	2766.81
847.97	2951.12
848.14	3786.69
848.31	3217.36
848.48	2777.05
848.65	2957.27
848.82	3117.01
848.98	3786.69
849.15	3059.67
849.32	2994.13
849.49	3481.55
849.66	3196.88
849.83	2889.68
850.00	2838.48
850.17	3467.21
850.34	3209.17
850.51	2822.10
850.68	2998.23
850.85	3753.93
851.01	3346.38
851.18	2850.77
851.35	2994.13
851.52	3411.92
851.69	3534.79
851.86	2846.68
852.03	2873.30
852.20	3375.05
852.37	3319.76
852.53	2770.90
852.70	2885.59
852.87	3274.70
853.04	3463.12
853.21	2852.82
853.38	3241.93
853.55	3493.83
853.72	3514.31
853.89	2846.68
854.05	2951.12
854.22	3254.22
854.39	3176.40
854.56	2926.55
854.73	3041.23
854.90	3082.19
855.07	3323.85
855.23	2820.05
855.40	2801.62
855.57	3250.13
855.74	2854.87
855.91	3071.95
856.08	2789.33
856.25	2969.55
856.41	3162.06
856.58	2924.50
856.75	2947.03
856.92	2983.89
857.09	3479.50
857.26	2813.91
857.42	2949.08
857.59	3377.10
857.76	3264.46
857.93	2818.00
858.10	3016.66
858.27	3067.86
858.43	3270.61
858.60	2914.26
858.77	2779.09
858.94	3145.68
859.11	3491.79
859.27	3024.85
859.44	2844.63
859.61	3590.09
859.78	3336.14
859.95	2922.45
860.12	2895.83
860.28	3751.88
860.45	3692.49
860.62	2871.25
860.79	2949.08
860.95	3117.01
861.12	3121.10
861.29	2797.53
861.46	2834.39
861.63	3250.13
861.79	3360.72
861.96	2856.92
862.13	2914.26
862.30	3438.54
862.47	3137.49
862.63	2818.00
862.80	3047.38
862.97	3553.23
863.14	3375.05
863.30	2940.88
863.47	2926.55
863.64	3563.47
863.81	3375.05
863.97	2828.24
864.14	2985.94
864.31	3219.41
864.48	3258.32
864.65	2904.02
864.81	3024.85
864.98	3354.57
865.15	3420.11
865.32	2985.94
865.48	3010.51
865.65	3553.23
865.82	3176.40
865.98	2967.51
866.15	2996.18
866.32	3180.50
866.49	3198.93
866.65	3055.57
866.82	2924.50
866.99	3264.46
867.16	3147.73
867.32	2959.31
867.49	2781.14
867.66	3166.16
867.83	3104.72
867.99	2844.63
868.16	2887.64
868.33	3096.53
868.49	3243.98
868.66	2955.22
868.83	3002.32
868.99	3299.28
869.16	3336.14
869.33	3123.15
869.50	3010.51
869.66	3237.84
869.83	3164.11
870.00	2787.29
870.16	3016.66
870.33	3213.26
870.50	3375.05
870.66	3037.14
870.83	2959.31
871.00	3270.61
871.17	3311.57
871.33	2971.60
871.50	2912.21
871.67	3166.16
871.83	3016.66
872.00	2973.65
872.17	2951.12
872.33	3614.66
872.50	3350.48
872.67	2928.60
872.83	2938.84
873.00	3344.33
873.17	3221.45
873.33	2975.70
873.50	3004.37
873.67	3098.58
873.83	3096.53
874.00	2928.60
874.16	3045.33
874.33	3340.24
874.50	2985.94
874.66	2830.29
874.83	3035.09
875.00	3534.79
875.16	3352.52
875.33	3045.33
875.50	2662.36
875.66	3119.06
875.83	3262.41
875.99	2934.74
876.16	3020.75
876.33	3012.56
876.49	3231.69
876.66	2957.27
876.83	3033.04
876.99	2920.40
877.16	3313.61
877.32	2805.72
877.49	2910.16
877.66	3327.95
877.82	3561.42
877.99	3014.61
878.15	3160.02
878.32	3356.62
878.49	3278.80
878.65	3000.27
878.82	3182.54
878.98	3127.25
879.15	3444.68
879.32	3112.91
879.48	3135.44
879.65	3205.07
879.81	3237.84
879.98	2967.51
880.15	3014.61
880.31	3381.20
880.48	3074.00
880.64	3069.91
880.81	3057.62
880.97	3563.47
881.14	3502.03
881.31	2928.60
881.47	3119.06
881.64	3176.40
881.80	2885.59
881.97	3053.52
882.13	3026.90
882.30	2992.08
882.47	3166.16
882.63	2887.64
882.80	2914.26
882.96	3108.82
883.13	3467.21
883.29	2967.51
883.46	2926.55
883.62	3751.88
883.79	3237.84
883.95	3149.78
884.12	2934.74
884.29	3428.30
884.45	3297.23
884.62	2897.88
884.78	2914.26
884.95	3585.99
885.11	3114.96
885.28	3000.27
885.44	2922.45
885.61	3338.19
885.77	3514.31
885.94	3110.86
886.10	2987.99
886.27	3266.51
886.43	3629.00
886.60	3139.54
886.76	2916.31
886.93	3082.19
887.09	3270.61
887.26	2848.72
887.42	3026.90
887.59	3563.47
887.75	3749.83
887.92	3141.58
888.08	3082.19
888.25	3573.71
888.41	3485.64
888.58	3018.71
888.74	2928.60
888.91	3168.21
>>>>>End Processed Spectral Data<<<<<
