SpectraSuite Data File
++++++++++++++++++++++++++++++++++++
Date: Fri May 06 08:14:04 CEST 2016
User: root
Dark Spectrum Present: No
Reference Spectrum Present: No
Number of Sampled Component Spectra: 1
Spectrometers: USB4C02835
Integration Time (usec): 100000 (USB4C02835)
Spectra Averaged: 1 (USB4C02835)
Boxcar Smoothing: 0 (USB4C02835)
Correct for Electrical Dark: No (USB4C02835)
Strobe/Lamp Enabled: No (USB4C02835)
Correct for Detector Non-linearity: No (USB4C02835)
Correct for Stray Light: No (USB4C02835)
Number of Pixels in Processed Spectrum: 3648
>>>>>Begin Processed Spectral Data<<<<<
177.47	2355.16
177.69	2355.16
177.91	2355.16
178.13	2289.63
178.36	2295.77
178.58	3059.67
178.80	3100.62
179.02	2987.99
179.24	3069.91
179.46	2764.76
179.68	2844.63
179.90	3235.79
180.13	3282.89
180.35	2656.22
180.57	2848.72
180.79	3379.15
181.01	3186.64
181.23	2824.15
181.45	2928.60
181.67	3440.59
181.90	3387.34
182.12	2899.92
182.34	2729.94
182.56	3512.27
182.78	3379.15
183.00	2801.62
183.22	2873.30
183.44	2842.58
183.66	3866.56
183.89	3065.81
184.11	2893.78
184.33	3471.31
184.55	3491.79
184.77	2863.06
184.99	2877.40
185.21	3119.06
185.43	3764.17
185.65	2842.58
185.87	2826.20
186.10	3807.17
186.32	3825.61
186.54	3041.23
186.76	2977.75
186.98	3475.40
187.20	3262.41
187.42	2856.92
187.64	2840.53
187.86	3383.24
188.08	3510.22
188.30	2820.05
188.52	2928.60
188.75	3512.27
188.97	3612.62
189.19	2807.77
189.41	2781.14
189.63	3418.06
189.85	3170.26
190.07	2623.45
190.29	2643.93
190.51	3499.98
190.73	2961.36
190.95	3020.75
191.17	2969.55
191.39	2965.46
191.61	3151.82
191.84	2871.25
192.06	2928.60
192.28	2967.51
192.50	3928.00
192.72	2940.88
192.94	2953.17
193.16	3520.46
193.38	3336.14
193.60	2748.37
193.82	3008.47
194.04	3475.40
194.26	3409.87
194.48	2910.16
194.70	2912.21
194.92	3237.84
195.14	3391.44
195.36	2777.05
195.58	2944.98
195.80	3221.45
196.02	3110.86
196.24	2770.90
196.46	2928.60
196.69	3102.67
196.91	3702.73
197.13	2932.69
197.35	2908.12
197.57	3581.90
197.79	3440.59
198.01	2881.49
198.23	2926.55
198.45	3354.57
198.67	2987.99
198.89	2731.99
199.11	2906.07
199.33	3133.39
199.55	2867.16
199.77	2805.72
199.99	2983.89
200.21	3207.12
200.43	3336.14
200.65	2744.28
200.87	2777.05
201.09	3289.04
201.31	3248.08
201.53	2959.31
201.75	3030.99
201.97	3270.61
202.19	3340.24
202.41	2924.50
202.63	3049.43
202.85	3450.83
203.07	3379.15
203.29	2930.64
203.51	2705.37
203.73	3119.06
203.95	3848.13
204.17	2867.16
204.39	2947.03
204.61	3278.80
204.83	3155.92
205.05	3041.23
205.27	2901.97
205.49	3680.20
205.71	3291.09
205.93	2666.46
206.15	2787.29
206.37	3266.51
206.59	3282.89
206.81	2750.42
207.03	2781.14
207.25	3143.63
207.47	3418.06
207.69	2828.24
207.91	3166.16
208.13	3604.42
208.34	3110.86
208.56	2846.68
208.78	2887.64
209.00	3194.83
209.22	3166.16
209.44	2906.07
209.66	2852.82
209.88	3303.37
210.10	3252.17
210.32	2818.00
210.54	2947.03
210.76	3246.03
210.98	3508.17
211.20	2729.94
211.42	2983.89
211.64	3516.36
211.86	3354.57
212.08	2922.45
212.30	2953.17
212.52	3196.88
212.74	3383.24
212.96	2904.02
213.17	2934.74
213.39	3383.24
213.61	3614.66
213.83	2764.76
214.05	2799.57
214.27	3545.03
214.49	3100.62
214.71	2779.09
214.93	2967.51
215.15	3260.37
215.37	3508.17
215.59	2711.51
215.81	2893.78
216.03	3596.23
216.24	3305.42
216.46	2832.34
216.68	2971.60
216.90	3401.68
217.12	3508.17
217.34	2826.20
217.56	3022.80
217.78	3573.71
218.00	3467.21
218.22	2910.16
218.44	2959.31
218.66	3403.72
218.87	3643.34
219.09	2967.51
219.31	2813.91
219.53	3344.33
219.75	3145.68
219.97	2957.27
220.19	2934.74
220.41	3215.31
220.63	3661.77
220.85	2918.36
221.06	2879.44
221.28	3684.30
221.50	3467.21
221.72	2881.49
221.94	2766.81
222.16	3346.38
222.38	3446.73
222.60	2844.63
222.82	2895.83
223.03	3499.98
223.25	3090.38
223.47	2824.15
223.69	3063.76
223.91	3502.03
224.13	3266.51
224.35	2828.24
224.57	3092.43
224.78	3450.83
225.00	3035.09
225.22	2922.45
225.44	2856.92
225.66	3379.15
225.88	3149.78
226.10	2947.03
226.32	2871.25
226.53	3631.05
226.75	3213.26
226.97	2936.79
227.19	2885.59
227.41	3180.50
227.63	3270.61
227.85	2697.17
228.06	2979.79
228.28	3317.71
228.50	3475.40
228.72	2738.13
228.94	2854.87
229.16	2846.68
229.37	3033.04
229.59	2799.57
229.81	3133.39
230.03	3250.13
230.25	3000.27
230.47	2740.18
230.69	2856.92
230.90	3411.92
231.12	3108.82
231.34	2963.41
231.56	2947.03
231.78	3098.58
232.00	3325.90
232.21	2879.44
232.43	2901.97
232.65	2840.53
232.87	3373.00
233.09	2715.61
233.30	2826.20
233.52	3536.84
233.74	3266.51
233.96	2754.52
234.18	3100.62
234.40	3276.75
234.61	3805.13
234.83	2775.00
235.05	2832.34
235.27	3864.52
235.49	3538.89
235.70	2758.61
235.92	2885.59
236.14	3397.58
236.36	3829.70
236.58	2717.65
236.79	2940.88
237.01	3348.43
237.23	3258.32
237.45	3053.52
237.67	2942.93
237.88	3291.09
238.10	3690.44
238.32	2789.33
238.54	2781.14
238.76	3280.85
238.97	3155.92
239.19	2801.62
239.41	2926.55
239.63	3516.36
239.85	3125.20
240.06	2906.07
240.28	2844.63
240.50	3522.51
240.72	3205.07
240.93	2734.04
241.15	2987.99
241.37	3289.04
241.59	3526.60
241.81	2811.86
242.02	2973.65
242.24	3297.23
242.46	3330.00
242.68	2734.04
242.89	2869.20
243.11	3432.40
243.33	3207.12
243.55	2912.21
243.76	2926.55
243.98	3086.29
244.20	3205.07
244.42	2889.68
244.64	2781.14
244.85	3067.86
245.07	3172.30
245.29	2936.79
245.51	2951.12
245.72	3330.00
245.94	3502.03
246.16	2797.53
246.38	2910.16
246.59	3131.34
246.81	3010.51
247.03	2793.43
247.24	2717.65
247.46	3190.74
247.68	3313.61
247.90	2854.87
248.11	2885.59
248.33	3454.92
248.55	3268.56
248.77	2895.83
248.98	2994.13
249.20	3598.28
249.42	3282.89
249.64	2738.13
249.85	2789.33
250.07	3164.11
250.29	3395.53
250.50	2904.02
250.72	2775.00
250.94	3452.88
251.16	3768.26
251.37	2879.44
251.59	2994.13
251.81	3450.83
252.02	3635.14
252.24	2820.05
252.46	2910.16
252.68	3133.39
252.89	3139.54
253.11	2725.85
253.33	3043.28
253.54	3559.37
253.76	3114.96
253.98	2844.63
254.20	2871.25
254.41	3000.27
254.63	3278.80
254.85	2783.19
255.06	3030.99
255.28	3352.52
255.50	3274.70
255.71	2775.00
255.93	2705.37
256.15	3254.22
256.36	3397.58
256.58	2775.00
256.80	2809.81
257.02	3205.07
257.23	3274.70
257.45	2848.72
257.67	2975.70
257.88	3205.07
258.10	3319.76
258.32	2838.48
258.53	3008.47
258.75	3659.72
258.97	3149.78
259.18	2807.77
259.40	2850.77
259.62	3659.72
259.83	3588.04
260.05	2858.96
260.27	3762.12
260.48	3512.27
260.70	3053.52
260.92	2852.82
261.13	2861.01
261.35	3307.47
261.57	3436.49
261.78	2811.86
262.00	2863.06
262.22	3426.25
262.43	3143.63
262.65	2883.54
262.86	2904.02
263.08	3809.22
263.30	3315.66
263.51	2641.88
263.73	2760.66
263.95	3729.35
264.16	3112.91
264.38	2750.42
264.60	2813.91
264.81	3272.65
265.03	3581.90
265.25	3225.55
265.46	2795.48
265.68	3440.59
265.89	3442.64
266.11	2775.00
266.33	2863.06
266.54	3506.12
266.76	3481.55
266.98	2940.88
267.19	3057.62
267.41	3573.71
267.62	3282.89
267.84	2688.98
268.06	2994.13
268.27	3330.00
268.49	3561.42
268.70	2891.73
268.92	2844.63
269.14	3057.62
269.35	3028.95
269.57	2975.70
269.79	3028.95
270.00	3119.06
270.22	3700.68
270.43	2705.37
270.65	2688.98
270.87	3260.37
271.08	3446.73
271.30	2998.23
271.51	2869.20
271.73	3393.48
271.95	3637.19
272.16	2832.34
272.38	3055.57
272.59	3258.32
272.81	3332.05
273.02	2824.15
273.24	2901.97
273.46	3479.50
273.67	3143.63
273.89	2641.88
274.10	2848.72
274.32	3495.88
274.54	3330.00
274.75	2975.70
274.97	2944.98
275.18	3434.44
275.40	3413.96
275.61	2869.20
275.83	2975.70
276.05	3106.77
276.26	3260.37
276.48	2971.60
276.69	3063.76
276.91	3147.73
277.12	3590.09
277.34	3084.24
277.55	3086.29
277.77	3385.29
277.99	3233.74
278.20	2938.84
278.42	2895.83
278.63	3203.02
278.85	3112.91
279.06	2940.88
279.28	3043.28
279.49	3418.06
279.71	3399.63
279.93	3024.85
280.14	3008.47
280.36	3149.78
280.57	3442.64
280.79	3047.38
281.00	2815.96
281.22	3227.60
281.43	3592.14
281.65	2772.95
281.86	2926.55
282.08	3420.11
282.29	3684.30
282.51	2830.29
282.73	2901.97
282.94	3047.38
283.16	3473.36
283.37	3063.76
283.59	3028.95
283.80	3387.34
284.02	3284.94
284.23	3022.80
284.45	2994.13
284.66	3192.78
284.88	3198.93
285.09	2869.20
285.31	3069.91
285.52	3319.76
285.74	2912.21
285.95	3176.40
286.17	2975.70
286.38	3358.67
286.60	3239.89
286.81	2992.08
287.03	2906.07
287.24	3293.13
287.46	3473.36
287.67	3108.82
287.89	3153.87
288.10	3213.26
288.32	3280.85
288.53	3155.92
288.75	3108.82
288.96	3430.35
289.18	3131.34
289.39	2906.07
289.61	3026.90
289.82	3719.11
290.04	3684.30
290.25	2838.48
290.47	3053.52
290.68	3237.84
290.90	3403.72
291.11	2828.24
291.33	3108.82
291.54	3117.01
291.76	3127.25
291.97	3131.34
292.18	3074.00
292.40	3184.59
292.61	3114.96
292.83	3237.84
293.04	2955.22
293.26	3264.46
293.47	3139.54
293.69	2918.36
293.90	2863.06
294.12	3557.32
294.33	3239.89
294.55	3018.71
294.76	3211.22
294.97	3538.89
295.19	3686.34
295.40	2875.35
295.62	3041.23
295.83	3526.60
296.05	3147.73
296.26	3256.27
296.48	2996.18
296.69	3160.02
296.90	3221.45
297.12	3141.58
297.33	3184.59
297.55	3319.76
297.76	3401.68
297.98	3143.63
298.19	3217.36
298.41	3223.50
298.62	3164.11
298.83	3147.73
299.05	3076.05
299.26	3252.17
299.48	3067.86
299.69	3155.92
299.90	2942.93
300.12	3028.95
300.33	3385.29
300.55	2981.84
300.76	3051.47
300.98	3074.00
301.19	3342.28
301.40	2981.84
301.62	3018.71
301.83	3422.16
302.05	3241.93
302.26	2910.16
302.47	3053.52
302.69	3053.52
302.90	3336.14
303.12	2738.13
303.33	3149.78
303.54	3706.82
303.76	3145.68
303.97	2918.36
304.19	3162.06
304.40	3147.73
304.61	3397.58
304.83	3145.68
305.04	3037.14
305.26	3377.10
305.47	3198.93
305.68	3022.80
305.90	2836.44
306.11	3596.23
306.33	3217.36
306.54	2887.64
306.75	2895.83
306.97	3057.62
307.18	3065.81
307.39	2992.08
307.61	3102.67
307.82	3221.45
308.04	3336.14
308.25	2867.16
308.46	3211.22
308.68	3295.18
308.89	3248.08
309.10	3059.67
309.32	2985.94
309.53	3340.24
309.74	3375.05
309.96	2901.97
310.17	3041.23
310.39	3229.65
310.60	3442.64
310.81	3053.52
311.03	2918.36
311.24	3434.44
311.45	3237.84
311.67	3266.51
311.88	3090.38
312.09	3205.07
312.31	3141.58
312.52	2938.84
312.73	2877.40
312.95	3069.91
313.16	3028.95
313.37	3239.89
313.59	3209.17
313.80	3426.25
314.01	3606.47
314.23	2947.03
314.44	2828.24
314.65	2969.55
314.87	3143.63
315.08	2971.60
315.29	2926.55
315.51	3160.02
315.72	3016.66
315.93	3057.62
316.15	2983.89
316.36	3209.17
316.57	3286.99
316.79	3028.95
317.00	2951.12
317.21	3385.29
317.43	3133.39
317.64	3033.04
317.85	2904.02
318.07	3129.30
318.28	3196.88
318.49	3104.72
318.70	3356.62
318.92	3430.35
319.13	3346.38
319.34	3153.87
319.56	2961.36
319.77	3368.91
319.98	3416.01
320.20	3321.81
320.41	3100.62
320.62	3426.25
320.83	3133.39
321.05	3196.88
321.26	3024.85
321.47	3289.04
321.69	3469.26
321.90	3010.51
322.11	2914.26
322.32	3344.33
322.54	3557.32
322.75	3051.47
322.96	4011.97
323.18	2975.70
323.39	2910.16
323.60	2942.93
323.81	3090.38
324.03	3209.17
324.24	3362.76
324.45	3129.30
324.66	2918.36
324.88	3438.54
325.09	3643.34
325.30	2930.64
325.52	2897.88
325.73	3373.00
325.94	3114.96
326.15	2828.24
326.37	2873.30
326.58	3434.44
326.79	3633.10
327.00	2904.02
327.22	2930.64
327.43	3256.27
327.64	3067.86
327.85	3143.63
328.07	3108.82
328.28	3594.19
328.49	3106.77
328.70	3004.37
328.92	2912.21
329.13	3209.17
329.34	3309.52
329.55	3301.33
329.76	3145.68
329.98	3303.37
330.19	3524.55
330.40	3098.58
330.61	3106.77
330.83	3424.20
331.04	3110.86
331.25	3100.62
331.46	3041.23
331.68	3041.23
331.89	3469.26
332.10	3045.33
332.31	2867.16
332.52	3227.60
332.74	3547.08
332.95	2883.54
333.16	2983.89
333.37	3452.88
333.58	3231.69
333.80	3028.95
334.01	2779.09
334.22	3215.31
334.43	3145.68
334.64	2928.60
334.86	2947.03
335.07	3106.77
335.28	3565.51
335.49	2938.84
335.70	3069.91
335.92	3620.81
336.13	3631.05
336.34	3074.00
336.55	2987.99
336.76	3346.38
336.98	2914.26
337.19	3053.52
337.40	3082.19
337.61	3823.56
337.82	3295.18
338.04	3133.39
338.25	2914.26
338.46	3235.79
338.67	3160.02
338.88	2842.58
339.09	2887.64
339.31	3198.93
339.52	3022.80
339.73	2955.22
339.94	3035.09
340.15	3465.16
340.36	3188.69
340.58	3035.09
340.79	2887.64
341.00	3330.00
341.21	3098.58
341.42	3278.80
341.63	2994.13
341.85	3436.49
342.06	3264.46
342.27	2910.16
342.48	3164.11
342.69	3114.96
342.90	3346.38
343.12	3307.47
343.33	2885.59
343.54	3418.06
343.75	3600.33
343.96	3055.57
344.17	2887.64
344.38	3207.12
344.60	3106.77
344.81	3014.61
345.02	2990.03
345.23	3491.79
345.44	3819.46
345.65	3160.02
345.86	3112.91
346.07	3307.47
346.29	3198.93
346.50	3190.74
346.71	3106.77
346.92	3534.79
347.13	3647.43
347.34	3112.91
347.55	2928.60
347.76	3446.73
347.98	2990.03
348.19	3012.56
348.40	3231.69
348.61	3190.74
348.82	3704.78
349.03	3039.19
349.24	2908.12
349.45	3721.16
349.66	2834.39
349.88	2922.45
350.09	2947.03
350.30	3485.64
350.51	3520.46
350.72	3139.54
350.93	3008.47
351.14	3223.50
351.35	3385.29
351.56	2959.31
351.77	3164.11
351.99	3366.86
352.20	3600.33
352.41	3106.77
352.62	2832.34
352.83	3295.18
353.04	3264.46
353.25	3037.14
353.46	2942.93
353.67	3504.07
353.88	2901.97
354.09	2916.31
354.30	3033.04
354.52	3311.57
354.73	3196.88
354.94	2967.51
355.15	3061.71
355.36	3672.01
355.57	3104.72
355.78	2920.40
355.99	2936.79
356.20	3155.92
356.41	3540.94
356.62	3080.14
356.83	3051.47
357.04	3463.12
357.25	3026.90
357.46	3071.95
357.68	2863.06
357.89	3151.82
358.10	3295.18
358.31	2977.75
358.52	3127.25
358.73	3016.66
358.94	3139.54
359.15	2992.08
359.36	3041.23
359.57	3246.03
359.78	3213.26
359.99	3219.41
360.20	2877.40
360.41	3174.35
360.62	3430.35
360.83	3139.54
361.04	3022.80
361.25	3381.20
361.46	3678.15
361.67	3162.06
361.88	3039.19
362.09	3514.31
362.30	3366.86
362.51	3026.90
362.72	3045.33
362.93	3323.85
363.14	3301.33
363.35	3164.11
363.56	2926.55
363.78	3524.55
363.99	3555.27
364.20	2930.64
364.41	3037.14
364.62	3631.05
364.83	3336.14
365.04	3004.37
365.25	3059.67
365.46	3702.73
365.67	3157.97
365.88	3237.84
366.09	2987.99
366.30	3182.54
366.51	3211.22
366.72	2977.75
366.93	2967.51
367.14	3342.28
367.35	3551.18
367.56	2926.55
367.77	3180.50
367.98	3221.45
368.18	3383.24
368.39	3114.96
368.60	2992.08
368.81	3377.10
369.02	3373.00
369.23	3030.99
369.44	2830.29
369.65	3160.02
369.86	3413.96
370.07	3164.11
370.28	2961.36
370.49	3340.24
370.70	3370.96
370.91	2873.30
371.12	2965.46
371.33	3508.17
371.54	3123.15
371.75	3108.82
371.96	2807.77
372.17	3270.61
372.38	3272.65
372.59	3028.95
372.80	2910.16
373.01	3274.70
373.22	3313.61
373.43	2987.99
373.64	2934.74
373.85	3524.55
374.06	3573.71
374.26	3162.06
374.47	3102.67
374.68	3594.19
374.89	3336.14
375.10	2967.51
375.31	3112.91
375.52	3176.40
375.73	3229.65
375.94	2856.92
376.15	3061.71
376.36	3213.26
376.57	3102.67
376.78	3028.95
376.99	3012.56
377.20	3590.09
377.40	3172.30
377.61	3338.19
377.82	2895.83
378.03	3499.98
378.24	3452.88
378.45	3088.34
378.66	3049.43
378.87	2996.18
379.08	3057.62
379.29	2965.46
379.50	3151.82
379.71	3162.06
379.91	3434.44
380.12	2926.55
380.33	3135.44
380.54	3145.68
380.75	3215.31
380.96	3061.71
381.17	3037.14
381.38	3248.08
381.59	3311.57
381.80	3026.90
382.00	3221.45
382.21	3241.93
382.42	3540.94
382.63	3350.48
382.84	3170.26
383.05	3450.83
383.26	3602.38
383.47	3160.02
383.68	2934.74
383.88	3373.00
384.09	3313.61
384.30	3295.18
384.51	3065.81
384.72	3270.61
384.93	3037.14
385.14	3133.39
385.35	3254.22
385.55	3063.76
385.76	3614.66
385.97	3065.81
386.18	2877.40
386.39	3084.24
386.60	3141.58
386.81	2992.08
387.02	2973.65
387.22	3090.38
387.43	3375.05
387.64	3090.38
387.85	3289.04
388.06	3352.52
388.27	4472.76
388.48	7813.00
388.68	11908.94
388.89	15212.31
389.10	16482.05
389.31	16195.34
389.52	12896.06
389.73	11255.64
389.93	10504.03
390.14	9099.13
390.35	8531.84
390.56	7960.45
390.77	6516.64
390.98	4951.99
391.18	4214.72
391.39	3919.81
391.60	3248.08
391.81	3299.28
392.02	3008.47
392.23	3745.73
392.43	3381.20
392.64	3157.97
392.85	3153.87
393.06	3581.90
393.27	3276.75
393.47	3059.67
393.68	3153.87
393.89	3088.34
394.10	3547.08
394.31	2998.23
394.52	3014.61
394.72	3143.63
394.93	3534.79
395.14	2961.36
395.35	3084.24
395.56	3155.92
395.76	3274.70
395.97	3020.75
396.18	3100.62
396.39	3313.61
396.60	3956.68
396.80	3407.82
397.01	3278.80
397.22	3436.49
397.43	3512.27
397.64	3047.38
397.84	3129.30
398.05	3690.44
398.26	3305.42
398.47	3192.78
398.67	3278.80
398.88	3315.66
399.09	3495.88
399.30	3045.33
399.51	3213.26
399.71	3117.01
399.92	3268.56
400.13	3125.20
400.34	3125.20
400.54	3319.76
400.75	3647.43
400.96	3155.92
401.17	3323.85
401.37	3467.21
401.58	3229.65
401.79	3016.66
402.00	3170.26
402.21	3827.65
402.41	3426.25
402.62	3248.08
402.83	3475.40
403.04	3760.07
403.24	4114.37
403.45	3186.64
403.66	3327.95
403.87	3534.79
404.07	3661.77
404.28	3362.76
404.49	3348.43
404.70	3383.24
404.90	3418.06
405.11	3157.97
405.32	3127.25
405.52	3135.44
405.73	3155.92
405.94	2930.64
406.15	3074.00
406.35	3395.53
406.56	3526.60
406.77	3094.48
406.98	3020.75
407.18	3088.34
407.39	3618.76
407.60	3010.51
407.80	3153.87
408.01	3250.13
408.22	3393.48
408.43	2928.60
408.63	3121.10
408.84	3434.44
409.05	3442.64
409.25	2934.74
409.46	3164.11
409.67	3106.77
409.88	3133.39
410.08	2961.36
410.29	2930.64
410.50	3475.40
410.70	3438.54
410.91	2971.60
411.12	3084.24
411.32	3286.99
411.53	3127.25
411.74	3114.96
411.95	3121.10
412.15	3368.91
412.36	3401.68
412.57	3266.51
412.77	3311.57
412.98	3221.45
413.19	3215.31
413.39	3067.86
413.60	3168.21
413.81	3590.09
414.01	3041.23
414.22	3147.73
414.43	3278.80
414.63	3297.23
414.84	3510.22
415.05	3002.32
415.25	2932.69
415.46	3473.36
415.67	3221.45
415.87	3028.95
416.08	2963.41
416.29	3248.08
416.49	3301.33
416.70	3069.91
416.91	2906.07
417.11	3176.40
417.32	3493.83
417.53	3145.68
417.73	3155.92
417.94	3176.40
418.15	3332.05
418.35	3069.91
418.56	3082.19
418.77	3696.58
418.97	3317.71
419.18	3123.15
419.38	2777.05
419.59	3286.99
419.80	3612.62
420.00	2951.12
420.21	3033.04
420.42	3542.99
420.62	3375.05
420.83	3004.37
421.04	3051.47
421.24	3190.74
421.45	3383.24
421.65	3069.91
421.86	3000.27
422.07	3499.98
422.27	3385.29
422.48	3008.47
422.69	2901.97
422.89	3282.89
423.10	3205.07
423.30	2914.26
423.51	3078.10
423.72	3354.57
423.92	3436.49
424.13	2961.36
424.33	3078.10
424.54	3397.58
424.75	3270.61
424.95	3297.23
425.16	2977.75
425.36	3143.63
425.57	3516.36
425.78	3100.62
425.98	3074.00
426.19	3309.52
426.39	3110.86
426.60	3131.34
426.81	3172.30
427.01	3321.81
427.22	3061.71
427.42	2895.83
427.63	3039.19
427.83	3370.96
428.04	3633.10
428.25	3028.95
428.45	3162.06
428.66	3538.89
428.86	3323.85
429.07	3100.62
429.28	3080.14
429.48	3330.00
429.69	3076.05
429.89	3194.83
430.10	3010.51
430.30	3387.34
430.51	3590.09
430.71	2926.55
430.92	3147.73
431.13	3270.61
431.33	3411.92
431.54	3188.69
431.74	3221.45
431.95	3682.25
432.15	3127.25
432.36	3119.06
432.56	3063.76
432.77	3661.77
432.98	3676.10
433.18	3176.40
433.39	2973.65
433.59	3264.46
433.80	3647.43
434.00	3186.64
434.21	3065.81
434.41	3147.73
434.62	3794.89
434.82	2975.70
435.03	2959.31
435.23	3373.00
435.44	2977.75
435.64	3000.27
435.85	3117.01
436.06	3413.96
436.26	3399.63
436.47	2961.36
436.67	3033.04
436.88	3205.07
437.08	3456.97
437.29	3180.50
437.49	3104.72
437.70	3573.71
437.90	3358.67
438.11	3235.79
438.31	3114.96
438.52	3549.13
438.72	3575.75
438.93	3418.06
439.13	3151.82
439.34	3409.87
439.54	3192.78
439.75	3123.15
439.95	3194.83
440.16	3100.62
440.36	3256.27
440.57	3071.95
440.77	3035.09
440.98	3168.21
441.18	3289.04
441.39	2901.97
441.59	2983.89
441.80	3745.73
442.00	3266.51
442.21	3082.19
442.41	2951.12
442.62	3440.59
442.82	3135.44
443.02	3053.52
443.23	3082.19
443.43	3168.21
443.64	3567.56
443.84	3012.56
444.05	3102.67
444.25	3313.61
444.46	3203.02
444.66	2996.18
444.87	3223.50
445.07	3051.47
445.28	3166.16
445.48	3280.85
445.69	3065.81
445.89	3885.00
446.09	3203.02
446.30	3362.76
446.50	3528.65
446.71	5064.63
446.91	6285.22
447.12	7253.91
447.32	7663.50
447.53	7899.02
447.73	6363.04
447.93	5689.26
448.14	5289.90
448.34	5474.22
448.55	4503.48
448.75	4491.20
448.96	4200.38
449.16	4118.47
449.36	4009.92
449.57	3336.14
449.77	3174.35
449.98	3196.88
450.18	3356.62
450.39	2987.99
450.59	3241.93
450.79	3225.55
451.00	3098.58
451.20	3248.08
451.41	3035.09
451.61	3456.97
451.81	3274.70
452.02	2963.41
452.22	3067.86
452.43	3143.63
452.63	3092.43
452.84	3141.58
453.04	2987.99
453.24	3262.41
453.45	3182.54
453.65	3059.67
453.86	3133.39
454.06	3334.09
454.26	3203.02
454.47	3051.47
454.67	3297.23
454.87	3340.24
455.08	3286.99
455.28	3162.06
455.49	3264.46
455.69	3114.96
455.89	3633.10
456.10	3123.15
456.30	3030.99
456.51	3448.78
456.71	3286.99
456.91	3237.84
457.12	3041.23
457.32	3313.61
457.52	3028.95
457.73	3311.57
457.93	3233.74
458.14	3246.03
458.34	2998.23
458.54	3157.97
458.75	2965.46
458.95	3538.89
459.15	3334.09
459.36	3104.72
459.56	3035.09
459.76	3733.45
459.97	3438.54
460.17	3018.71
460.37	3178.45
460.58	3295.18
460.78	3416.01
460.99	3069.91
461.19	3055.57
461.39	3184.59
461.60	3188.69
461.80	3117.01
462.00	2975.70
462.21	3225.55
462.41	3114.96
462.61	2977.75
462.82	2791.38
463.02	3377.10
463.22	3272.65
463.43	3131.34
463.63	2932.69
463.83	3530.70
464.04	3332.05
464.24	3074.00
464.44	3018.71
464.64	3278.80
464.85	3401.68
465.05	3088.34
465.25	3108.82
465.46	3248.08
465.66	3393.48
465.86	3153.87
466.07	3018.71
466.27	3200.98
466.47	2959.31
466.68	2893.78
466.88	3200.98
467.08	3442.64
467.29	3538.89
467.49	3059.67
467.69	3065.81
467.89	3344.33
468.10	3303.37
468.30	3139.54
468.50	3129.30
468.71	3475.40
468.91	2969.55
469.11	3315.66
469.31	3149.78
469.52	3112.91
469.72	3661.77
469.92	3250.13
470.13	3086.29
470.33	3323.85
470.53	3358.67
470.73	3516.36
470.94	3825.61
471.14	4016.07
471.34	4763.58
471.54	4339.65
471.75	4024.26
471.95	3942.34
472.15	3860.42
472.36	3792.84
472.56	3602.38
472.76	3887.04
472.96	3663.82
473.17	3426.25
473.37	3160.02
473.57	3248.08
473.77	3391.44
473.98	3223.50
474.18	2947.03
474.38	3993.54
474.58	3112.91
474.79	2910.16
474.99	3139.54
475.19	3463.12
475.39	3110.86
475.60	3143.63
475.80	2961.36
476.00	3266.51
476.20	3176.40
476.41	3166.16
476.61	3114.96
476.81	3598.28
477.01	3198.93
477.21	3346.38
477.42	3143.63
477.62	3125.20
477.82	3411.92
478.02	2967.51
478.23	3094.48
478.43	3059.67
478.63	3151.82
478.83	3022.80
479.03	3112.91
479.24	3581.90
479.44	3729.35
479.64	3045.33
479.84	2789.33
480.04	3143.63
480.25	3411.92
480.45	2977.75
480.65	2994.13
480.85	3594.19
481.06	3135.44
481.26	3205.07
481.46	2990.03
481.66	3375.05
481.86	3037.14
482.06	3311.57
482.27	3155.92
482.47	3098.58
482.67	3377.10
482.87	3028.95
483.07	3061.71
483.28	3229.65
483.48	3061.71
483.68	3012.56
483.88	3008.47
484.08	2955.22
484.29	3008.47
484.49	3127.25
484.69	2904.02
484.89	3465.16
485.09	3506.12
485.29	3110.86
485.50	3184.59
485.70	3139.54
485.90	3516.36
486.10	3135.44
486.30	3074.00
486.50	3547.08
486.71	3350.48
486.91	3086.29
487.11	3178.45
487.31	3045.33
487.51	3373.00
487.71	3006.42
487.91	3018.71
488.12	3033.04
488.32	2775.00
488.52	3024.85
488.72	2797.53
488.92	3303.37
489.12	3508.17
489.32	3221.45
489.53	3057.62
489.73	3002.32
489.93	3721.16
490.13	3065.81
490.33	2893.78
490.53	3303.37
490.73	3426.25
490.94	2957.27
491.14	3139.54
491.34	3465.16
491.54	3350.48
491.74	3987.40
491.94	4554.68
492.14	5050.29
492.34	5189.55
492.54	4798.39
492.75	4042.69
492.95	4313.02
493.15	3995.59
493.35	3868.61
493.55	3798.98
493.75	3778.50
493.95	3823.56
494.15	3356.62
494.35	3108.82
494.56	3286.99
494.76	3190.74
494.96	3200.98
495.16	2973.65
495.36	3184.59
495.56	3346.38
495.76	3078.10
495.96	3090.38
496.16	3203.02
496.36	3626.95
496.56	2998.23
496.77	3100.62
496.97	3250.13
497.17	3579.85
497.37	2873.30
497.57	3147.73
497.77	3399.63
497.97	3141.58
498.17	3125.20
498.37	3018.71
498.57	3442.64
498.77	3209.17
498.97	3205.07
499.17	3368.91
499.38	3237.84
499.58	3405.77
499.78	3252.17
499.98	3248.08
500.18	3233.74
500.38	3074.00
500.58	3282.89
500.78	3696.58
500.98	6297.50
501.18	8228.74
501.38	9807.72
501.58	10934.11
501.78	10966.87
501.98	9060.21
502.18	7505.81
502.38	6516.64
502.58	6528.92
502.78	5728.17
502.98	5425.07
503.18	5267.38
503.38	4984.76
503.59	4315.07
503.79	4081.60
503.99	3712.97
504.19	3891.14
504.39	3839.94
504.59	3631.05
504.79	3702.73
504.99	4016.07
505.19	3547.08
505.39	3256.27
505.59	3510.22
505.79	3739.59
505.99	3493.83
506.19	3241.93
506.39	3383.24
506.59	3114.96
506.79	3203.02
506.99	3301.33
507.19	3012.56
507.39	3346.38
507.59	3024.85
507.79	3074.00
507.99	3090.38
508.19	3282.89
508.39	3170.26
508.59	2973.65
508.79	3176.40
508.99	3688.39
509.19	3164.11
509.39	3106.77
509.59	2947.03
509.79	3174.35
509.99	3256.27
510.19	3114.96
510.39	3194.83
510.59	3362.76
510.79	3188.69
510.99	2904.02
511.19	2944.98
511.39	3602.38
511.59	3542.99
511.79	3223.50
511.99	3090.38
512.19	3594.19
512.38	3262.41
512.58	2983.89
512.78	2994.13
512.98	3508.17
513.18	3581.90
513.38	2910.16
513.58	3117.01
513.78	3272.65
513.98	3293.13
514.18	3045.33
514.38	3098.58
514.58	3315.66
514.78	3190.74
514.98	2985.94
515.18	3059.67
515.38	3110.86
515.58	3549.13
515.78	3045.33
515.98	3117.01
516.18	3434.44
516.38	3315.66
516.57	3045.33
516.77	3049.43
516.97	3393.48
517.17	3176.40
517.37	2838.48
517.57	3131.34
517.77	3344.33
517.97	3160.02
518.17	3059.67
518.37	2992.08
518.57	3147.73
518.77	3356.62
518.97	3188.69
519.16	3086.29
519.36	3542.99
519.56	3149.78
519.76	2987.99
519.96	3100.62
520.16	3553.23
520.36	3061.71
520.56	3237.84
520.76	3008.47
520.96	3188.69
521.16	3424.20
521.35	3225.55
521.55	3241.93
521.75	3258.32
521.95	3114.96
522.15	2893.78
522.35	2926.55
522.55	3112.91
522.75	3368.91
522.95	3037.14
523.14	2836.44
523.34	3248.08
523.54	3092.43
523.74	3250.13
523.94	3117.01
524.14	2873.30
524.34	3385.29
524.54	3282.89
524.73	2996.18
524.93	3446.73
525.13	3252.17
525.33	2920.40
525.53	3354.57
525.73	3424.20
525.93	3262.41
526.13	3096.53
526.32	2973.65
526.52	3563.47
526.72	3516.36
526.92	3098.58
527.12	2977.75
527.32	3016.66
527.52	3426.25
527.71	3119.06
527.91	3123.15
528.11	3209.17
528.31	3227.60
528.51	3037.14
528.71	3209.17
528.90	3385.29
529.10	3518.41
529.30	3114.96
529.50	2805.72
529.70	3338.19
529.90	3254.22
530.09	3049.43
530.29	2961.36
530.49	3114.96
530.69	3895.24
530.89	3262.41
531.09	3098.58
531.28	3147.73
531.48	3573.71
531.68	3045.33
531.88	3098.58
532.08	3469.26
532.28	3268.56
532.47	3133.39
532.67	3297.23
532.87	3379.15
533.07	3080.14
533.27	3106.77
533.46	3180.50
533.66	3356.62
533.86	3239.89
534.06	3145.68
534.26	3092.43
534.45	3194.83
534.65	3424.20
534.85	3114.96
535.05	3033.04
535.25	3459.02
535.44	2951.12
535.64	3137.49
535.84	3035.09
536.04	3110.86
536.24	3098.58
536.43	3035.09
536.63	3033.04
536.83	3284.94
537.03	3239.89
537.22	2895.83
537.42	2883.54
537.62	3383.24
537.82	3151.82
538.02	3213.26
538.21	3198.93
538.41	3829.70
538.61	3436.49
538.81	3188.69
539.00	3268.56
539.20	2973.65
539.40	3198.93
539.60	3033.04
539.79	3307.47
539.99	3278.80
540.19	3078.10
540.39	3033.04
540.58	3149.78
540.78	3475.40
540.98	3246.03
541.18	3233.74
541.37	3110.86
541.57	3321.81
541.77	3340.24
541.97	2983.89
542.16	2883.54
542.36	3227.60
542.56	3086.29
542.76	3200.98
542.95	3123.15
543.15	3352.52
543.35	3459.02
543.54	3106.77
543.74	3010.51
543.94	3633.10
544.14	3125.20
544.33	3221.45
544.53	3108.82
544.73	3241.93
544.93	3252.17
545.12	3067.86
545.32	3000.27
545.52	3168.21
545.71	3004.37
545.91	3076.05
546.11	2959.31
546.30	3198.93
546.50	3274.70
546.70	3133.39
546.90	3028.95
547.09	2906.07
547.29	3221.45
547.49	3180.50
547.68	3065.81
547.88	3076.05
548.08	3459.02
548.27	3311.57
548.47	3047.38
548.67	3067.86
548.87	3291.09
549.06	3035.09
549.26	3057.62
549.46	3393.48
549.65	3094.48
549.85	3114.96
550.05	3045.33
550.24	2942.93
550.44	3282.89
550.64	3162.06
550.83	3102.67
551.03	3545.03
551.23	3475.40
551.42	3110.86
551.62	3184.59
551.82	3225.55
552.01	3123.15
552.21	3418.06
552.41	3143.63
552.60	3510.22
552.80	3239.89
553.00	3004.37
553.19	3063.76
553.39	3647.43
553.59	3088.34
553.78	3286.99
553.98	3002.32
554.17	3037.14
554.37	3342.28
554.57	3088.34
554.76	2979.79
554.96	3164.11
555.16	3315.66
555.35	3100.62
555.55	3272.65
555.75	3321.81
555.94	3362.76
556.14	2844.63
556.33	3172.30
556.53	3217.36
556.73	3239.89
556.92	3061.71
557.12	3002.32
557.32	3692.49
557.51	3440.59
557.71	3096.53
557.90	3280.85
558.10	3547.08
558.30	3180.50
558.49	3160.02
558.69	3059.67
558.88	3401.68
559.08	3360.72
559.28	3137.49
559.47	3094.48
559.67	3391.44
559.86	3698.63
560.06	3035.09
560.26	3024.85
560.45	3366.86
560.65	3239.89
560.84	3321.81
561.04	3041.23
561.24	3438.54
561.43	2977.75
561.63	3346.38
561.82	3147.73
562.02	3370.96
562.22	3057.62
562.41	3057.62
562.61	3033.04
562.80	3067.86
563.00	3733.45
563.19	3141.58
563.39	3098.58
563.59	3282.89
563.78	3078.10
563.98	2818.00
564.17	3035.09
564.37	3041.23
564.56	3338.19
564.76	2906.07
564.96	3182.54
565.15	3362.76
565.35	3813.32
565.54	3051.47
565.74	3065.81
565.93	3379.15
566.13	3256.27
566.32	3139.54
566.52	3151.82
566.71	3215.31
566.91	3461.07
567.11	3082.19
567.30	2906.07
567.50	3354.57
567.69	3319.76
567.89	3039.19
568.08	2942.93
568.28	3352.52
568.47	3028.95
568.67	3028.95
568.86	3055.57
569.06	3463.12
569.25	3186.64
569.45	2990.03
569.64	3110.86
569.84	3219.41
570.04	3364.81
570.23	3078.10
570.43	3172.30
570.62	3350.48
570.82	3594.19
571.01	2963.41
571.21	3090.38
571.40	3067.86
571.60	3401.68
571.79	3178.45
571.99	3024.85
572.18	2992.08
572.38	3319.76
572.57	3112.91
572.77	3076.05
572.96	3776.45
573.16	3266.51
573.35	2969.55
573.55	3237.84
573.74	3413.96
573.94	3246.03
574.13	3016.66
574.33	3235.79
574.52	3518.41
574.71	3315.66
574.91	3119.06
575.10	2916.31
575.30	3246.03
575.49	2965.46
575.69	3002.32
575.88	3067.86
576.08	3293.13
576.27	3622.86
576.47	3069.91
576.66	3237.84
576.86	3583.95
577.05	3346.38
577.25	3188.69
577.44	3276.75
577.64	3166.16
577.83	3475.40
578.02	3039.19
578.22	3149.78
578.41	3674.06
578.61	3262.41
578.80	2906.07
579.00	3133.39
579.19	3250.13
579.39	3323.85
579.58	3180.50
579.77	3143.63
579.97	3583.95
580.16	3518.41
580.36	3246.03
580.55	3100.62
580.75	3350.48
580.94	3286.99
581.13	3217.36
581.33	3307.47
581.52	3254.22
581.72	3698.63
581.91	3119.06
582.11	2994.13
582.30	3360.72
582.49	3352.52
582.69	3397.58
582.88	3100.62
583.08	3340.24
583.27	3499.98
583.47	3241.93
583.66	3059.67
583.85	3043.28
584.05	3295.18
584.24	3192.78
584.44	3160.02
584.63	3506.12
584.82	3540.94
585.02	3354.57
585.21	3205.07
585.41	3409.87
585.60	3301.33
585.79	3346.38
585.99	3403.72
586.18	3338.19
586.37	4370.37
586.57	6440.86
586.76	18294.50
586.96	37780.93
587.15	51057.91
587.34	59391.09
587.54	63421.50
587.73	56767.65
587.93	40895.89
588.12	31557.15
588.31	25806.45
588.51	22814.37
588.70	20958.91
588.89	18669.28
589.09	15892.24
589.28	13653.81
589.47	10815.32
589.67	8263.55
589.86	6442.91
590.06	5085.11
590.25	4476.86
590.44	3860.42
590.64	3573.71
590.83	3637.19
591.02	3606.47
591.22	3172.30
591.41	3157.97
591.60	3272.65
591.80	3751.88
591.99	2912.21
592.18	3026.90
592.38	3434.44
592.57	3196.88
592.76	3092.43
592.96	3186.64
593.15	3252.17
593.34	3557.32
593.54	3104.72
593.73	3203.02
593.92	3334.09
594.12	3389.39
594.31	3160.02
594.50	3168.21
594.70	3454.92
594.89	3860.42
595.08	2951.12
595.28	3241.93
595.47	3968.96
595.66	3493.83
595.86	3012.56
596.05	2877.40
596.24	3248.08
596.43	3575.75
596.63	3172.30
596.82	3188.69
597.01	3379.15
597.21	3624.90
597.40	3082.19
597.59	3082.19
597.79	3270.61
597.98	3387.34
598.17	3086.29
598.36	3098.58
598.56	3467.21
598.75	3155.92
598.94	3215.31
599.14	3157.97
599.33	3252.17
599.52	3450.83
599.71	3155.92
599.91	3110.86
600.10	3436.49
600.29	3217.36
600.48	3147.73
600.68	3110.86
600.87	3401.68
601.06	3190.74
601.26	3166.16
601.45	3147.73
601.64	3153.87
601.83	3508.17
602.03	2930.64
602.22	2998.23
602.41	3477.45
602.60	3798.98
602.80	3129.30
602.99	3268.56
603.18	3196.88
603.37	3344.33
603.57	2996.18
603.76	3180.50
603.95	3491.79
604.14	3278.80
604.34	2951.12
604.53	3057.62
604.72	3327.95
604.91	3422.16
605.10	3043.28
605.30	2914.26
605.49	3669.96
605.68	3504.07
605.87	3108.82
606.07	3061.71
606.26	3370.96
606.45	3321.81
606.64	3082.19
606.84	2994.13
607.03	3278.80
607.22	3508.17
607.41	3123.15
607.60	3035.09
607.80	3596.23
607.99	3264.46
608.18	3149.78
608.37	3110.86
608.56	3196.88
608.76	3516.36
608.95	3217.36
609.14	3106.77
609.33	3471.31
609.52	3608.52
609.72	3176.40
609.91	3250.13
610.10	3305.42
610.29	3643.34
610.48	3266.51
610.68	3162.06
610.87	3258.32
611.06	3518.41
611.25	3080.14
611.44	3213.26
611.63	3237.84
611.83	3524.55
612.02	3030.99
612.21	3164.11
612.40	2930.64
612.59	3078.10
612.79	3039.19
612.98	3119.06
613.17	3620.81
613.36	3262.41
613.55	3286.99
613.74	3139.54
613.93	3393.48
614.13	3489.74
614.32	3377.10
614.51	3117.01
614.70	3336.14
614.89	3295.18
615.08	3246.03
615.28	3413.96
615.47	3020.75
615.66	3465.16
615.85	3160.02
616.04	3145.68
616.23	3256.27
616.42	3248.08
616.62	3139.54
616.81	3084.24
617.00	3258.32
617.19	3379.15
617.38	3045.33
617.57	3155.92
617.76	3420.11
617.95	3409.87
618.15	3260.37
618.34	3286.99
618.53	3053.52
618.72	3495.88
618.91	3207.12
619.10	3151.82
619.29	3203.02
619.48	3305.42
619.68	2987.99
619.87	3051.47
620.06	3000.27
620.25	3364.81
620.44	3041.23
620.63	3057.62
620.82	3346.38
621.01	3336.14
621.20	3164.11
621.39	3102.67
621.59	3379.15
621.78	3264.46
621.97	3090.38
622.16	3133.39
622.35	3237.84
622.54	3405.77
622.73	3088.34
622.92	2844.63
623.11	3456.97
623.30	3217.36
623.49	3246.03
623.68	2994.13
623.88	3633.10
624.07	3100.62
624.26	2891.73
624.45	3067.86
624.64	3188.69
624.83	3336.14
625.02	3020.75
625.21	3106.77
625.40	3354.57
625.59	3536.84
625.78	3145.68
625.97	3188.69
626.16	3512.27
626.35	3502.03
626.54	3100.62
626.74	3307.47
626.93	3233.74
627.12	3262.41
627.31	3157.97
627.50	3157.97
627.69	3452.88
627.88	3098.58
628.07	3022.80
628.26	2953.17
628.45	3188.69
628.64	3067.86
628.83	3039.19
629.02	2949.08
629.21	3416.01
629.40	3336.14
629.59	2936.79
629.78	3041.23
629.97	3266.51
630.16	3321.81
630.35	3149.78
630.54	3125.20
630.73	3127.25
630.92	3266.51
631.11	2932.69
631.30	3153.87
631.49	3350.48
631.68	3252.17
631.87	3117.01
632.06	2947.03
632.25	3706.82
632.44	3303.37
632.63	3157.97
632.82	3119.06
633.01	3164.11
633.20	3330.00
633.39	3076.05
633.58	2912.21
633.77	3373.00
633.96	3352.52
634.15	3286.99
634.34	3119.06
634.53	3385.29
634.72	3174.35
634.91	2930.64
635.10	3057.62
635.29	3450.83
635.48	3360.72
635.67	2938.84
635.86	2951.12
636.05	3459.02
636.24	3164.11
636.43	3057.62
636.62	3151.82
636.81	2883.54
637.00	3311.57
637.19	3037.14
637.38	3043.28
637.57	3178.45
637.76	3286.99
637.95	3196.88
638.14	3209.17
638.33	3262.41
638.52	3319.76
638.71	3045.33
638.89	2973.65
639.08	3870.66
639.27	3532.75
639.46	3352.52
639.65	3694.54
639.84	3889.09
640.03	3989.44
640.22	3581.90
640.41	3610.57
640.60	3487.69
640.79	3540.94
640.98	3272.65
641.17	3252.17
641.36	3497.93
641.55	3532.75
641.74	2998.23
641.92	2983.89
642.11	3143.63
642.30	3235.79
642.49	2942.93
642.68	3022.80
642.87	3354.57
643.06	3352.52
643.25	2953.17
643.44	2959.31
643.63	3196.88
643.82	3407.82
644.00	3012.56
644.19	3106.77
644.38	3090.38
644.57	3403.72
644.76	3067.86
644.95	3139.54
645.14	3246.03
645.33	3209.17
645.52	3090.38
645.71	2944.98
645.89	3051.47
646.08	3231.69
646.27	3094.48
646.46	3223.50
646.65	3037.14
646.84	3213.26
647.03	2955.22
647.22	3274.70
647.40	3268.56
647.59	3223.50
647.78	2885.59
647.97	3088.34
648.16	3000.27
648.35	3563.47
648.54	3418.06
648.73	3055.57
648.91	3461.07
649.10	3344.33
649.29	3045.33
649.48	2987.99
649.67	3325.90
649.86	3356.62
650.05	3121.10
650.23	3254.22
650.42	3178.45
650.61	3573.71
650.80	3319.76
650.99	3401.68
651.18	3534.79
651.36	3526.60
651.55	3055.57
651.74	3352.52
651.93	3155.92
652.12	3198.93
652.31	3129.30
652.49	3188.69
652.68	3205.07
652.87	3538.89
653.06	3262.41
653.25	3342.28
653.44	3213.26
653.62	3530.70
653.81	3139.54
654.00	3053.52
654.19	3489.74
654.38	3817.41
654.56	3162.06
654.75	3028.95
654.94	3370.96
655.13	3295.18
655.32	3090.38
655.51	3166.16
655.69	3100.62
655.88	3487.69
656.07	2930.64
656.26	3123.15
656.45	2916.31
656.63	3323.85
656.82	3069.91
657.01	3377.10
657.20	3225.55
657.38	3610.57
657.57	3028.95
657.76	2883.54
657.95	3393.48
658.14	3205.07
658.32	3231.69
658.51	2955.22
658.70	3346.38
658.89	3393.48
659.08	3065.81
659.26	3278.80
659.45	3117.01
659.64	3393.48
659.83	3041.23
660.01	3555.27
660.20	3313.61
660.39	3612.62
660.58	2795.48
660.76	3074.00
660.95	3039.19
661.14	3350.48
661.33	2940.88
661.51	3137.49
661.70	3188.69
661.89	3379.15
662.08	3137.49
662.26	2912.21
662.45	3188.69
662.64	3577.80
662.83	3254.22
663.01	2942.93
663.20	3164.11
663.39	3567.56
663.58	3047.38
663.76	3061.71
663.95	3434.44
664.14	3014.61
664.32	3141.58
664.51	3041.23
664.70	2996.18
664.89	3362.76
665.07	2901.97
665.26	3205.07
665.45	3104.72
665.64	3377.10
665.82	2990.03
666.01	3250.13
666.20	2897.88
666.38	3391.44
666.57	3422.16
666.76	5664.68
666.95	13035.32
667.13	20725.44
667.32	25040.51
667.51	28448.33
667.69	29124.16
667.88	24073.87
668.07	17571.57
668.25	14741.28
668.44	12824.38
668.63	11349.84
668.81	9783.15
669.00	8413.06
669.19	7864.20
669.38	6885.27
669.56	5713.83
669.75	4904.89
669.94	4468.67
670.12	3848.13
670.31	3387.34
670.50	3370.96
670.68	3561.42
670.87	3358.67
671.06	3106.77
671.24	3172.30
671.43	3588.04
671.62	3278.80
671.80	3086.29
671.99	3270.61
672.18	3317.71
672.36	3389.39
672.55	3200.98
672.74	3133.39
672.92	3280.85
673.11	3416.01
673.29	2983.89
673.48	3213.26
673.67	3153.87
673.85	3542.99
674.04	2951.12
674.23	3215.31
674.41	3700.68
674.60	3098.58
674.79	2912.21
674.97	2983.89
675.16	3434.44
675.34	3545.03
675.53	3000.27
675.72	3149.78
675.90	3651.53
676.09	3149.78
676.28	3139.54
676.46	2959.31
676.65	3387.34
676.83	3129.30
677.02	3108.82
677.21	3143.63
677.39	3295.18
677.58	3057.62
677.77	3061.71
677.95	2889.68
678.14	3258.32
678.32	3160.02
678.51	3028.95
678.70	3514.31
678.88	3157.97
679.07	3243.98
679.25	3078.10
679.44	3094.48
679.63	3004.37
679.81	3315.66
680.00	3295.18
680.18	3123.15
680.37	3686.34
680.55	3291.09
680.74	2967.51
680.93	2883.54
681.11	3321.81
681.30	3264.46
681.48	3012.56
681.67	3071.95
681.85	3237.84
682.04	3008.47
682.23	3172.30
682.41	3241.93
682.60	3037.14
682.78	3241.93
682.97	2936.79
683.15	3133.39
683.34	3319.76
683.53	3588.04
683.71	2916.31
683.90	3121.10
684.08	3526.60
684.27	3184.59
684.45	3035.09
684.64	3284.94
684.82	3254.22
685.01	3424.20
685.19	3014.61
685.38	3379.15
685.57	3362.76
685.75	3162.06
685.94	3008.47
686.12	3010.51
686.31	3192.78
686.49	3594.19
686.68	2877.40
686.86	3045.33
687.05	3164.11
687.23	3555.27
687.42	3076.05
687.60	2938.84
687.79	3557.32
687.97	3555.27
688.16	3284.94
688.34	3266.51
688.53	2967.51
688.71	3362.76
688.90	3311.57
689.08	3117.01
689.27	2938.84
689.45	3401.68
689.64	3254.22
689.82	3172.30
690.01	3391.44
690.19	3426.25
690.38	3153.87
690.56	3137.49
690.75	3045.33
690.93	3139.54
691.12	3024.85
691.30	3100.62
691.49	3153.87
691.67	3205.07
691.86	3325.90
692.04	3117.01
692.23	3192.78
692.41	3282.89
692.60	3409.87
692.78	3319.76
692.97	3370.96
693.15	3375.05
693.34	3334.09
693.52	3286.99
693.71	3149.78
693.89	3096.53
694.08	2949.08
694.26	3084.24
694.44	3407.82
694.63	3356.62
694.81	2961.36
695.00	3141.58
695.18	3569.61
695.37	3772.36
695.55	3166.16
695.74	3149.78
695.92	3047.38
696.10	3559.37
696.29	2922.45
696.47	3084.24
696.66	3018.71
696.84	3098.58
697.03	3104.72
697.21	3411.92
697.40	4605.88
697.58	3516.36
697.76	3016.66
697.95	3108.82
698.13	3069.91
698.32	3145.68
698.50	3119.06
698.68	3125.20
698.87	3373.00
699.05	3583.95
699.24	3080.14
699.42	2990.03
699.61	3330.00
699.79	3332.05
699.97	3182.54
700.16	3041.23
700.34	3076.05
700.53	3252.17
700.71	3291.09
700.89	3237.84
701.08	3176.40
701.26	3252.17
701.45	3499.98
701.63	3112.91
701.81	3188.69
702.00	3123.15
702.18	3221.45
702.37	3086.29
702.55	3536.84
702.73	3403.72
702.92	3125.20
703.10	3391.44
703.28	3463.12
703.47	3180.50
703.65	3321.81
703.84	3190.74
704.02	3207.12
704.20	3622.86
704.39	3057.62
704.57	3053.52
704.75	3418.06
704.94	3352.52
705.12	3211.22
705.30	4044.74
705.49	8775.55
705.67	17028.86
705.86	23897.75
706.04	27467.36
706.22	30543.41
706.41	28671.56
706.59	21634.74
706.77	17008.38
706.96	14679.84
707.14	13125.43
707.32	11145.05
707.51	9883.50
707.69	8103.81
707.87	6664.09
708.06	5390.25
708.24	4595.64
708.42	4126.66
708.61	4163.52
708.79	3332.05
708.97	3321.81
709.16	3393.48
709.34	3338.19
709.52	3051.47
709.71	3160.02
709.89	3389.39
710.07	3180.50
710.26	3016.66
710.44	3076.05
710.62	3516.36
710.80	3286.99
710.99	3268.56
711.17	3241.93
711.35	3147.73
711.54	3186.64
711.72	3291.09
711.90	3188.69
712.09	3344.33
712.27	3198.93
712.45	3272.65
712.63	3090.38
712.82	3321.81
713.00	3317.71
713.18	3246.03
713.37	3266.51
713.55	3411.92
713.73	3456.97
713.91	3127.25
714.10	3020.75
714.28	3307.47
714.46	3280.85
714.65	3184.59
714.83	3151.82
715.01	3229.65
715.19	3330.00
715.38	3024.85
715.56	3188.69
715.74	3139.54
715.92	3143.63
716.11	3471.31
716.29	2879.44
716.47	3219.41
716.65	3270.61
716.84	2961.36
717.02	3172.30
717.20	2840.53
717.38	3225.55
717.57	3207.12
717.75	3164.11
717.93	3176.40
718.11	3424.20
718.30	2969.55
718.48	3143.63
718.66	3438.54
718.84	3508.17
719.03	3155.92
719.21	3002.32
719.39	3522.51
719.57	3418.06
719.75	3213.26
719.94	3098.58
720.12	3272.65
720.30	3274.70
720.48	3213.26
720.67	3049.43
720.85	3125.20
721.03	3235.79
721.21	3028.95
721.39	3149.78
721.58	3373.00
721.76	3248.08
721.94	3143.63
722.12	3155.92
722.30	3594.19
722.49	3133.39
722.67	3135.44
722.85	3018.71
723.03	2965.46
723.21	3143.63
723.40	3145.68
723.58	3270.61
723.76	3395.53
723.94	3506.12
724.12	3135.44
724.30	3356.62
724.49	3420.11
724.67	3149.78
724.85	3229.65
725.03	2947.03
725.21	3370.96
725.40	3622.86
725.58	3102.67
725.76	3286.99
725.94	3342.28
726.12	3028.95
726.30	3098.58
726.49	2994.13
726.67	3196.88
726.85	3346.38
727.03	3925.96
727.21	5455.79
727.39	7284.62
727.57	7806.86
727.76	8370.05
727.94	8365.95
728.12	7366.54
728.30	5892.01
728.48	5613.48
728.66	5126.07
728.84	4794.29
729.03	4130.75
729.21	3872.71
729.39	3547.08
729.57	3370.96
729.75	3454.92
729.93	3420.11
730.11	3024.85
730.30	3170.26
730.48	3246.03
730.66	3180.50
730.84	3172.30
731.02	3293.13
731.20	3102.67
731.38	3149.78
731.56	3028.95
731.74	2998.23
731.93	3352.52
732.11	3176.40
732.29	3043.28
732.47	3428.30
732.65	3307.47
732.83	3262.41
733.01	3268.56
733.19	3209.17
733.37	3436.49
733.56	3141.58
733.74	3002.32
733.92	3547.08
734.10	3155.92
734.28	3282.89
734.46	2887.64
734.64	3260.37
734.82	3174.35
735.00	3041.23
735.18	3028.95
735.36	3237.84
735.54	3311.57
735.73	3141.58
735.91	3254.22
736.09	3528.65
736.27	3280.85
736.45	3182.54
736.63	2867.16
736.81	3071.95
736.99	3499.98
737.17	3262.41
737.35	3084.24
737.53	3311.57
737.71	3264.46
737.89	3252.17
738.07	3006.42
738.25	3123.15
738.43	2959.31
738.61	3059.67
738.80	2983.89
738.98	3002.32
739.16	3178.45
739.34	3047.38
739.52	3360.72
739.70	3272.65
739.88	3368.91
740.06	3211.22
740.24	2887.64
740.42	3520.46
740.60	2971.60
740.78	2998.23
740.96	2873.30
741.14	3213.26
741.32	3303.37
741.50	2922.45
741.68	3397.58
741.86	3608.52
742.04	3084.24
742.22	3016.66
742.40	3090.38
742.58	3411.92
742.76	3065.81
742.94	3368.91
743.12	2901.97
743.30	3352.52
743.48	3360.72
743.66	3022.80
743.84	3074.00
744.02	3258.32
744.20	3252.17
744.38	2944.98
744.56	3084.24
744.74	3602.38
744.92	3366.86
745.10	3303.37
745.28	3192.78
745.46	3540.94
745.64	3315.66
745.82	3205.07
746.00	3074.00
746.18	3278.80
746.36	3137.49
746.54	3094.48
746.72	3160.02
746.90	3088.34
747.08	3581.90
747.26	3151.82
747.44	3094.48
747.62	3463.12
747.80	3323.85
747.98	3200.98
748.15	3123.15
748.33	3549.13
748.51	3258.32
748.69	3200.98
748.87	2983.89
749.05	3192.78
749.23	3291.09
749.41	3043.28
749.59	3082.19
749.77	3379.15
749.95	3262.41
750.13	3094.48
750.31	3184.59
750.49	3182.54
750.67	3377.10
750.85	3207.12
751.03	3076.05
751.20	3649.48
751.38	3196.88
751.56	3141.58
751.74	3131.34
751.92	3241.93
752.10	3098.58
752.28	3229.65
752.46	2996.18
752.64	3233.74
752.82	3250.13
753.00	3239.89
753.18	3053.52
753.35	3172.30
753.53	3262.41
753.71	3051.47
753.89	3168.21
754.07	3309.52
754.25	3516.36
754.43	3104.72
754.61	3061.71
754.79	3360.72
754.97	3311.57
755.14	3258.32
755.32	2985.94
755.50	3291.09
755.68	3274.70
755.86	3051.47
756.04	3028.95
756.22	2985.94
756.40	3469.26
756.57	3239.89
756.75	3065.81
756.93	3508.17
757.11	3512.27
757.29	2996.18
757.47	3051.47
757.65	2934.74
757.82	2826.20
758.00	2961.36
758.18	3051.47
758.36	3151.82
758.54	3645.38
758.72	2969.55
758.90	3248.08
759.07	3334.09
759.25	3051.47
759.43	3209.17
759.61	2977.75
759.79	4501.44
759.97	3467.21
760.15	3112.91
760.32	3100.62
760.50	3346.38
760.68	3686.34
760.86	2992.08
761.04	3313.61
761.22	3387.34
761.39	3188.69
761.57	3248.08
761.75	3106.77
761.93	3397.58
762.11	3334.09
762.28	3225.55
762.46	3043.28
762.64	3487.69
762.82	3035.09
763.00	3080.14
763.18	3289.04
763.35	3030.99
763.53	3426.25
763.71	3207.12
763.89	3024.85
764.07	3272.65
764.24	3303.37
764.42	3239.89
764.60	3069.91
764.78	3430.35
764.96	3373.00
765.13	3278.80
765.31	3008.47
765.49	3321.81
765.67	3074.00
765.84	2930.64
766.02	2938.84
766.20	2981.84
766.38	3370.96
766.56	3205.07
766.73	3221.45
766.91	3282.89
767.09	3370.96
767.27	3137.49
767.44	2975.70
767.62	3403.72
767.80	3327.95
767.98	2985.94
768.15	2985.94
768.33	3389.39
768.51	3387.34
768.69	3215.31
768.87	3037.14
769.04	3272.65
769.22	3786.69
769.40	3225.55
769.58	3198.93
769.75	3291.09
769.93	3506.12
770.11	3188.69
770.28	2920.40
770.46	3399.63
770.64	3284.94
770.82	3200.98
770.99	3043.28
771.17	3416.01
771.35	3207.12
771.53	3092.43
771.70	3063.76
771.88	3334.09
772.06	3229.65
772.23	3012.56
772.41	3133.39
772.59	3229.65
772.77	3074.00
772.94	3123.15
773.12	3121.10
773.30	3172.30
773.47	3373.00
773.65	3063.76
773.83	3235.79
774.01	3307.47
774.18	2889.68
774.36	3094.48
774.54	2940.88
774.71	3282.89
774.89	2981.84
775.07	3024.85
775.24	3114.96
775.42	3135.44
775.60	3592.14
775.78	3018.71
775.95	2996.18
776.13	2979.79
776.31	2963.41
776.48	3200.98
776.66	3323.85
776.84	3192.78
777.01	3110.86
777.19	3055.57
777.37	2967.51
777.54	3321.81
777.72	3577.80
777.90	3174.35
778.07	3004.37
778.25	3964.87
778.43	3461.07
778.60	3033.04
778.78	3207.12
778.96	3555.27
779.13	3049.43
779.31	3192.78
779.49	3155.92
779.66	3295.18
779.84	3133.39
780.01	3055.57
780.19	2977.75
780.37	3532.75
780.54	3426.25
780.72	2981.84
780.90	3123.15
781.07	3207.12
781.25	3139.54
781.43	3276.75
781.60	3043.28
781.78	3454.92
781.95	3303.37
782.13	3065.81
782.31	3065.81
782.48	2920.40
782.66	3303.37
782.83	3379.15
783.01	3221.45
783.19	3483.59
783.36	3313.61
783.54	2983.89
783.72	3147.73
783.89	3178.45
784.07	3360.72
784.24	3176.40
784.42	3286.99
784.60	3307.47
784.77	3416.01
784.95	2885.59
785.12	3030.99
785.30	3368.91
785.47	3051.47
785.65	2957.27
785.83	3160.02
786.00	3157.97
786.18	3350.48
786.35	3035.09
786.53	2981.84
786.71	3477.45
786.88	3385.29
787.06	3203.02
787.23	3131.34
787.41	3084.24
787.58	3188.69
787.76	3012.56
787.94	3055.57
788.11	3377.10
788.29	3059.67
788.46	3026.90
788.64	2977.75
788.81	3131.34
788.99	3102.67
789.16	3074.00
789.34	3067.86
789.52	3137.49
789.69	3254.22
789.87	2797.53
790.04	3094.48
790.22	3295.18
790.39	3676.10
790.57	2922.45
790.74	2994.13
790.92	3504.07
791.09	2967.51
791.27	3106.77
791.44	3213.26
791.62	3188.69
791.79	3442.64
791.97	3235.79
792.15	3401.68
792.32	3430.35
792.50	3461.07
792.67	3284.94
792.85	3389.39
793.02	3313.61
793.20	3160.02
793.37	2953.17
793.55	2918.36
793.72	3012.56
793.90	3352.52
794.07	3037.14
794.25	2992.08
794.42	3309.52
794.60	3213.26
794.77	3121.10
794.95	3168.21
795.12	3442.64
795.30	3143.63
795.47	2762.71
795.65	3416.01
795.82	3389.39
796.00	3145.68
796.17	3180.50
796.34	2934.74
796.52	3303.37
796.69	3520.46
796.87	3252.17
797.04	3260.37
797.22	3430.35
797.39	3278.80
797.57	3194.83
797.74	3155.92
797.92	3350.48
798.09	3100.62
798.27	3426.25
798.44	3157.97
798.62	3131.34
798.79	3233.74
798.96	3190.74
799.14	3106.77
799.31	3698.63
799.49	3227.60
799.66	3114.96
799.84	3149.78
800.01	2961.36
800.19	3393.48
800.36	2901.97
800.53	3153.87
800.71	3330.00
800.88	3606.47
801.06	3030.99
801.23	3076.05
801.41	3127.25
801.58	3311.57
801.75	3006.42
801.93	3108.82
802.10	3409.87
802.28	3153.87
802.45	3041.23
802.63	3160.02
802.80	3555.27
802.97	3215.31
803.15	3088.34
803.32	2973.65
803.50	3129.30
803.67	3067.86
803.84	3053.52
804.02	3094.48
804.19	3227.60
804.37	2789.33
804.54	2889.68
804.71	3100.62
804.89	3168.21
805.06	3100.62
805.24	2949.08
805.41	2930.64
805.58	3188.69
805.76	3878.85
805.93	2992.08
806.10	3286.99
806.28	3395.53
806.45	3311.57
806.63	3323.85
806.80	3194.83
806.97	3315.66
807.15	3393.48
807.32	3129.30
807.49	3069.91
807.67	2992.08
807.84	3270.61
808.01	2949.08
808.19	3286.99
808.36	3686.34
808.54	3117.01
808.71	3086.29
808.88	3010.51
809.06	3596.23
809.23	3653.58
809.40	3049.43
809.58	3002.32
809.75	3270.61
809.92	2985.94
810.10	3352.52
810.27	3051.47
810.44	3409.87
810.62	3395.53
810.79	3033.04
810.96	3076.05
811.14	3145.68
811.31	3319.76
811.48	3268.56
811.66	3194.83
811.83	3438.54
812.00	3344.33
812.18	3184.59
812.35	3338.19
812.52	3223.50
812.69	3192.78
812.87	3026.90
813.04	3057.62
813.21	3260.37
813.39	3078.10
813.56	3018.71
813.73	3352.52
813.91	3069.91
814.08	3327.95
814.25	3049.43
814.42	2918.36
814.60	3168.21
814.77	3360.72
814.94	3033.04
815.12	3172.30
815.29	3633.10
815.46	3170.26
815.63	3119.06
815.81	3069.91
815.98	3192.78
816.15	3264.46
816.33	3176.40
816.50	3188.69
816.67	3295.18
816.84	3225.55
817.02	2899.92
817.19	3098.58
817.36	3272.65
817.53	3350.48
817.71	2926.55
817.88	3090.38
818.05	3205.07
818.22	3237.84
818.40	3246.03
818.57	3030.99
818.74	3356.62
818.91	3225.55
819.09	3213.26
819.26	3241.93
819.43	3082.19
819.60	3131.34
819.78	3278.80
819.95	3117.01
820.12	2969.55
820.29	3559.37
820.47	3389.39
820.64	3041.23
820.81	3041.23
820.98	3074.00
821.15	3104.72
821.33	3198.93
821.50	2920.40
821.67	3403.72
821.84	3026.90
822.02	3094.48
822.19	3393.48
822.36	3162.06
822.53	2930.64
822.70	2965.46
822.88	3155.92
823.05	3467.21
823.22	3188.69
823.39	3108.82
823.56	3278.80
823.74	3565.51
823.91	2918.36
824.08	3000.27
824.25	2992.08
824.42	3524.55
824.60	2969.55
824.77	3217.36
824.94	3233.74
825.11	3377.10
825.28	2809.81
825.45	3213.26
825.63	3213.26
825.80	3098.58
825.97	3157.97
826.14	3155.92
826.31	2922.45
826.48	3344.33
826.66	3028.95
826.83	2967.51
827.00	3176.40
827.17	3035.09
827.34	3076.05
827.51	3033.04
827.69	3207.12
827.86	2955.22
828.03	3030.99
828.20	3143.63
828.37	3170.26
828.54	3344.33
828.71	2985.94
828.89	3074.00
829.06	3364.81
829.23	3631.05
829.40	3188.69
829.57	3045.33
829.74	3413.96
829.91	3221.45
830.09	3053.52
830.26	3192.78
830.43	3569.61
830.60	3153.87
830.77	3166.16
830.94	3286.99
831.11	3479.50
831.28	3090.38
831.46	3219.41
831.63	3065.81
831.80	3446.73
831.97	3123.15
832.14	3100.62
832.31	3108.82
832.48	3229.65
832.65	3393.48
832.82	3237.84
832.99	3127.25
833.17	3082.19
833.34	3499.98
833.51	3045.33
833.68	2764.76
833.85	3434.44
834.02	3100.62
834.19	3037.14
834.36	2928.60
834.53	3268.56
834.70	3364.81
834.87	3057.62
835.04	2881.49
835.22	3190.74
835.39	3196.88
835.56	2879.44
835.73	2916.31
835.90	3399.63
836.07	3080.14
836.24	3086.29
836.41	2910.16
836.58	3094.48
836.75	3489.74
836.92	2983.89
837.09	2840.53
837.26	3467.21
837.43	3352.52
837.60	2944.98
837.77	2947.03
837.94	3444.68
838.12	3461.07
838.29	2818.00
838.46	2844.63
838.63	3055.57
838.80	3661.77
838.97	2912.21
839.14	2969.55
839.31	3256.27
839.48	3399.63
839.65	2846.68
839.82	2947.03
839.99	3246.03
840.16	3225.55
840.33	2871.25
840.50	2901.97
840.67	3135.44
840.84	2783.19
841.01	2815.96
841.18	2838.48
841.35	3246.03
841.52	3391.44
841.69	3203.02
841.86	2906.07
842.03	3231.69
842.20	3403.72
842.37	2893.78
842.54	2983.89
842.71	3162.06
842.88	3004.37
843.05	2928.60
843.22	2897.88
843.39	3395.53
843.56	3196.88
843.73	2897.88
843.90	2975.70
844.07	3248.08
844.24	3508.17
844.41	3016.66
844.58	2901.97
844.75	3264.46
844.92	3403.72
845.09	2942.93
845.26	2994.13
845.43	3366.86
845.60	3168.21
845.77	3035.09
845.94	3012.56
846.10	3360.72
846.27	2947.03
846.44	2770.90
846.61	2787.29
846.78	3313.61
846.95	3504.07
847.12	2899.92
847.29	3039.19
847.46	3080.14
847.63	3461.07
847.80	2885.59
847.97	2924.50
848.14	3741.64
848.31	3205.07
848.48	2674.65
848.65	2861.01
848.82	3061.71
848.98	3796.93
849.15	3028.95
849.32	3061.71
849.49	3469.26
849.66	3250.13
849.83	2961.36
850.00	2869.20
850.17	3389.39
850.34	3133.39
850.51	2861.01
850.68	3000.27
850.85	3723.21
851.01	3272.65
851.18	2844.63
851.35	2955.22
851.52	3397.58
851.69	3409.87
851.86	2832.34
852.03	2873.30
852.20	3428.30
852.37	3231.69
852.53	2856.92
852.70	2795.48
852.87	3313.61
853.04	3448.78
853.21	2947.03
853.38	3209.17
853.55	3577.80
853.72	3526.60
853.89	2848.72
854.05	2918.36
854.22	3211.22
854.39	3164.11
854.56	2848.72
854.73	3088.34
854.90	3053.52
855.07	3211.22
855.23	2795.48
855.40	2787.29
855.57	3278.80
855.74	2793.43
855.91	3094.48
856.08	2772.95
856.25	3022.80
856.41	3127.25
856.58	2928.60
856.75	2969.55
856.92	3098.58
857.09	3442.64
857.26	2764.76
857.42	3012.56
857.59	3370.96
857.76	3231.69
857.93	2930.64
858.10	3024.85
858.27	3078.10
858.43	3366.86
858.60	2930.64
858.77	2852.82
858.94	3182.54
859.11	3393.48
859.27	3002.32
859.44	2895.83
859.61	3653.58
859.78	3311.57
859.95	2926.55
860.12	2863.06
860.28	3749.83
860.45	3747.78
860.62	2838.48
860.79	3082.19
860.95	3094.48
861.12	3074.00
861.29	2834.39
861.46	2908.12
861.63	3233.74
861.79	3262.41
861.96	2838.48
862.13	2824.15
862.30	3542.99
862.47	3170.26
862.63	2781.14
862.80	2979.79
862.97	3413.96
863.14	3309.52
863.30	2936.79
863.47	2912.21
863.64	3598.28
863.81	3332.05
863.97	2807.77
864.14	2922.45
864.31	3223.50
864.48	3377.10
864.65	2901.97
864.81	3045.33
864.98	3409.87
865.15	3463.12
865.32	2969.55
865.48	3037.14
865.65	3590.09
865.82	3205.07
865.98	2985.94
866.15	2996.18
866.32	3192.78
866.49	3190.74
866.65	3061.71
866.82	2928.60
866.99	3207.12
867.16	3166.16
867.32	2951.12
867.49	2887.64
867.66	3258.32
867.83	3160.02
867.99	2811.86
868.16	2934.74
868.33	3000.27
868.49	3192.78
868.66	2904.02
868.83	3026.90
868.99	3250.13
869.16	3301.33
869.33	3137.49
869.50	3051.47
869.66	3229.65
869.83	3215.31
870.00	2834.39
870.16	3069.91
870.33	3223.50
870.50	3459.02
870.66	2930.64
870.83	2920.40
871.00	3209.17
871.17	3362.76
871.33	2938.84
871.50	2822.10
871.67	3182.54
871.83	3196.88
872.00	2994.13
872.17	2848.72
872.33	3590.09
872.50	3448.78
872.67	2936.79
872.83	2871.25
873.00	3336.14
873.17	3196.88
873.33	2951.12
873.50	2963.41
873.67	3057.62
873.83	3172.30
874.00	2893.78
874.16	3020.75
874.33	3401.68
874.50	2912.21
874.66	2897.88
874.83	3063.76
875.00	3514.31
875.16	3436.49
875.33	3061.71
875.50	2772.95
875.66	3215.31
875.83	3280.85
875.99	2983.89
876.16	3084.24
876.33	3059.67
876.49	3194.83
876.66	3026.90
876.83	2983.89
876.99	2920.40
877.16	3209.17
877.32	2881.49
877.49	2957.27
877.66	3368.91
877.82	3454.92
877.99	3018.71
878.15	3182.54
878.32	3387.34
878.49	3350.48
878.65	2981.84
878.82	3192.78
878.98	3186.64
879.15	3508.17
879.32	3096.53
879.48	3147.73
879.65	3213.26
879.81	3225.55
879.98	3127.25
880.15	2985.94
880.31	3426.25
880.48	3131.34
880.64	3059.67
880.81	3086.29
880.97	3581.90
881.14	3459.02
881.31	2914.26
881.47	3063.76
881.64	3176.40
881.80	3018.71
881.97	3059.67
882.13	2949.08
882.30	3041.23
882.47	3071.95
882.63	2979.79
882.80	2904.02
882.96	3258.32
883.13	3440.59
883.29	2887.64
883.46	2787.29
883.62	3612.62
883.79	3194.83
883.95	3055.57
884.12	2871.25
884.29	3450.83
884.45	3311.57
884.62	2930.64
884.78	2863.06
884.95	3717.06
885.11	3114.96
885.28	2951.12
885.44	2953.17
885.61	3387.34
885.77	3493.83
885.94	3098.58
886.10	2985.94
886.27	3196.88
886.43	3672.01
886.60	3090.38
886.76	2949.08
886.93	3067.86
887.09	3223.50
887.26	2758.61
887.42	3069.91
887.59	3471.31
887.75	3590.09
887.92	3205.07
888.08	3049.43
888.25	3643.34
888.41	3502.03
888.58	3026.90
888.74	2918.36
888.91	3125.20
>>>>>End Processed Spectral Data<<<<<
