SpectraSuite Data File
++++++++++++++++++++++++++++++++++++
Date: Fri May 06 08:13:50 CEST 2016
User: root
Dark Spectrum Present: No
Reference Spectrum Present: No
Number of Sampled Component Spectra: 1
Spectrometers: USB4C02835
Integration Time (usec): 100000 (USB4C02835)
Spectra Averaged: 1 (USB4C02835)
Boxcar Smoothing: 0 (USB4C02835)
Correct for Electrical Dark: No (USB4C02835)
Strobe/Lamp Enabled: No (USB4C02835)
Correct for Detector Non-linearity: No (USB4C02835)
Correct for Stray Light: No (USB4C02835)
Number of Pixels in Processed Spectrum: 3648
>>>>>Begin Processed Spectral Data<<<<<
177.47	2281.44
177.69	2281.44
177.91	2281.44
178.13	2275.29
178.36	2263.01
178.58	3020.75
178.80	3147.73
179.02	3018.71
179.24	3082.19
179.46	2813.91
179.68	2910.16
179.90	3248.08
180.13	3332.05
180.35	2731.99
180.57	2770.90
180.79	3444.68
181.01	3231.69
181.23	2795.48
181.45	3067.86
181.67	3430.35
181.90	3413.96
182.12	2904.02
182.34	2650.07
182.56	3358.67
182.78	3295.18
183.00	2850.77
183.22	2885.59
183.44	2910.16
183.66	3911.62
183.89	2981.84
184.11	2889.68
184.33	3370.96
184.55	3499.98
184.77	2793.43
184.99	2822.10
185.21	3157.97
185.43	3868.61
185.65	2910.16
185.87	2863.06
186.10	3803.08
186.32	3780.55
186.54	3043.28
186.76	2951.12
186.98	3524.55
187.20	3297.23
187.42	2885.59
187.64	2793.43
187.86	3385.29
188.08	3485.64
188.30	2680.79
188.52	2863.06
188.75	3557.32
188.97	3510.22
189.19	2893.78
189.41	2852.82
189.63	3346.38
189.85	3184.59
190.07	2783.19
190.29	2719.70
190.51	3262.41
190.73	3004.37
190.95	3092.43
191.17	2938.84
191.39	2987.99
191.61	3198.93
191.84	2897.88
192.06	3006.42
192.28	2936.79
192.50	3934.15
192.72	2985.94
192.94	2936.79
193.16	3434.44
193.38	3342.28
193.60	2791.38
193.82	3071.95
194.04	3471.31
194.26	3303.37
194.48	2832.34
194.70	2863.06
194.92	3190.74
195.14	3356.62
195.36	2699.22
195.58	2990.03
195.80	3233.74
196.02	3092.43
196.24	2811.86
196.46	2971.60
196.69	3200.98
196.91	3798.98
197.13	2789.33
197.35	2920.40
197.57	3596.23
197.79	3379.15
198.01	2936.79
198.23	2842.58
198.45	3377.10
198.67	3033.04
198.89	2766.81
199.11	2996.18
199.33	3145.68
199.55	2848.72
199.77	2801.62
199.99	2936.79
200.21	3176.40
200.43	3340.24
200.65	2793.43
200.87	2656.22
201.09	3299.28
201.31	3299.28
201.53	2848.72
201.75	2906.07
201.97	3428.30
202.19	3219.41
202.41	2928.60
202.63	3000.27
202.85	3411.92
203.07	3360.72
203.29	2979.79
203.51	2770.90
203.73	3119.06
203.95	3778.50
204.17	2934.74
204.39	3035.09
204.61	3286.99
204.83	3117.01
205.05	3041.23
205.27	2906.07
205.49	3942.34
205.71	3260.37
205.93	2793.43
206.15	2791.38
206.37	3227.60
206.59	3305.42
206.81	2703.32
207.03	2734.04
207.25	3155.92
207.47	3411.92
207.69	2883.54
207.91	3098.58
208.13	3547.08
208.34	3145.68
208.56	2815.96
208.78	2918.36
209.00	3182.54
209.22	3211.22
209.44	2908.12
209.66	2828.24
209.88	3360.72
210.10	3200.98
210.32	2842.58
210.54	2967.51
210.76	3256.27
210.98	3459.02
211.20	2672.60
211.42	2971.60
211.64	3549.13
211.86	3295.18
212.08	2889.68
212.30	2910.16
212.52	3135.44
212.74	3370.96
212.96	2977.75
213.17	2906.07
213.39	3383.24
213.61	3626.95
213.83	2809.81
214.05	2795.48
214.27	3461.07
214.49	3082.19
214.71	2848.72
214.93	2975.70
215.15	3274.70
215.37	3379.15
215.59	2703.32
215.81	2928.60
216.03	3557.32
216.24	3297.23
216.46	2883.54
216.68	2904.02
216.90	3381.20
217.12	3522.51
217.34	2775.00
217.56	3076.05
217.78	3577.80
218.00	3348.43
218.22	2967.51
218.44	2994.13
218.66	3239.89
218.87	3626.95
219.09	2961.36
219.31	2848.72
219.53	3309.52
219.75	3172.30
219.97	2904.02
220.19	2879.44
220.41	3231.69
220.63	3606.47
220.85	2803.67
221.06	2836.44
221.28	3561.42
221.50	3477.45
221.72	2858.96
221.94	2824.15
222.16	3368.91
222.38	3454.92
222.60	2795.48
222.82	2938.84
223.03	3549.13
223.25	3076.05
223.47	2901.97
223.69	3164.11
223.91	3465.16
224.13	3317.71
224.35	2764.76
224.57	3094.48
224.78	3379.15
225.00	3074.00
225.22	2852.82
225.44	2820.05
225.66	3444.68
225.88	3325.90
226.10	3043.28
226.32	2918.36
226.53	3592.14
226.75	3205.07
226.97	2920.40
227.19	2904.02
227.41	3178.45
227.63	3155.92
227.85	2684.89
228.06	2910.16
228.28	3348.43
228.50	3487.69
228.72	2707.41
228.94	2813.91
229.16	2942.93
229.37	3020.75
229.59	2783.19
229.81	3200.98
230.03	3205.07
230.25	2967.51
230.47	2695.13
230.69	2807.77
230.90	3434.44
231.12	3125.20
231.34	2873.30
231.56	2922.45
231.78	3055.57
232.00	3272.65
232.21	2955.22
232.43	2869.20
232.65	2871.25
232.87	3397.58
233.09	2643.93
233.30	2807.77
233.52	3510.22
233.74	3282.89
233.96	2795.48
234.18	3016.66
234.40	3254.22
234.61	3753.93
234.83	2797.53
235.05	2832.34
235.27	3749.83
235.49	3473.36
235.70	2822.10
235.92	2885.59
236.14	3303.37
236.36	3770.31
236.58	2772.95
236.79	2977.75
237.01	3207.12
237.23	3205.07
237.45	3069.91
237.67	2981.84
237.88	3422.16
238.10	3686.34
238.32	2703.32
238.54	2832.34
238.76	3157.97
238.97	3098.58
239.19	2783.19
239.41	2883.54
239.63	3508.17
239.85	3131.34
240.06	2912.21
240.28	2815.96
240.50	3440.59
240.72	3303.37
240.93	2729.94
241.15	2942.93
241.37	3321.81
241.59	3557.32
241.81	2861.01
242.02	2920.40
242.24	3260.37
242.46	3510.22
242.68	2701.27
242.89	2791.38
243.11	3467.21
243.33	3272.65
243.55	2838.48
243.76	2856.92
243.98	3102.67
244.20	3295.18
244.42	2924.50
244.64	2879.44
244.85	2979.79
245.07	3094.48
245.29	2908.12
245.51	2885.59
245.72	3379.15
245.94	3454.92
246.16	2789.33
246.38	2861.01
246.59	3203.02
246.81	3198.93
247.03	2758.61
247.24	2674.65
247.46	3155.92
247.68	3256.27
247.90	2764.76
248.11	2942.93
248.33	3467.21
248.55	3319.76
248.77	2928.60
248.98	2934.74
249.20	3596.23
249.42	3383.24
249.64	2793.43
249.85	2734.04
250.07	3131.34
250.29	3467.21
250.50	2883.54
250.72	2756.57
250.94	3418.06
251.16	3731.40
251.37	2871.25
251.59	2987.99
251.81	3330.00
252.02	3579.85
252.24	2723.80
252.46	2975.70
252.68	3114.96
252.89	3082.19
253.11	2703.32
253.33	3053.52
253.54	3575.75
253.76	3106.77
253.98	2795.48
254.20	2799.57
254.41	3043.28
254.63	3155.92
254.85	2746.33
255.06	2936.79
255.28	3401.68
255.50	3190.74
255.71	2740.18
255.93	2676.70
256.15	3184.59
256.36	3436.49
256.58	2746.33
256.80	2811.86
257.02	3231.69
257.23	3190.74
257.45	2928.60
257.67	2998.23
257.88	3215.31
258.10	3311.57
258.32	2897.88
258.53	2936.79
258.75	3645.38
258.97	3123.15
259.18	2844.63
259.40	2756.57
259.62	3633.10
259.83	3575.75
260.05	2934.74
260.27	3864.52
260.48	3471.31
260.70	3074.00
260.92	2779.09
261.13	2899.92
261.35	3358.67
261.57	3370.96
261.78	2686.94
262.00	2762.71
262.22	3434.44
262.43	3125.20
262.65	2811.86
262.86	2887.64
263.08	3770.31
263.30	3325.90
263.51	2666.46
263.73	2764.76
263.95	3667.91
264.16	3143.63
264.38	2752.47
264.60	2789.33
264.81	3289.04
265.03	3487.69
265.25	3403.72
265.46	2826.20
265.68	3571.66
265.89	3461.07
266.11	2758.61
266.33	2832.34
266.54	3575.75
266.76	3311.57
266.98	2883.54
267.19	3110.86
267.41	3551.18
267.62	3172.30
267.84	2701.27
268.06	2934.74
268.27	3299.28
268.49	3557.32
268.70	2932.69
268.92	2889.68
269.14	3092.43
269.35	2969.55
269.57	2981.84
269.79	2895.83
270.00	3196.88
270.22	3657.67
270.43	2783.19
270.65	2676.70
270.87	3305.42
271.08	3434.44
271.30	2990.03
271.51	2863.06
271.73	3436.49
271.95	3555.27
272.16	2789.33
272.38	2983.89
272.59	3178.45
272.81	3430.35
273.02	2758.61
273.24	2959.31
273.46	3512.27
273.67	3053.52
273.89	2695.13
274.10	2869.20
274.32	3571.66
274.54	3278.80
274.75	2959.31
274.97	2957.27
275.18	3368.91
275.40	3405.77
275.61	2932.69
275.83	2977.75
276.05	3102.67
276.26	3239.89
276.48	3008.47
276.69	3033.04
276.91	3127.25
277.12	3491.79
277.34	3045.33
277.55	3117.01
277.77	3338.19
277.99	3192.78
278.20	3004.37
278.42	2983.89
278.63	3131.34
278.85	3125.20
279.06	2965.46
279.28	3112.91
279.49	3493.83
279.71	3452.88
279.93	3012.56
280.14	3016.66
280.36	3172.30
280.57	3483.59
280.79	3092.43
281.00	2850.77
281.22	3155.92
281.43	3491.79
281.65	2752.47
281.86	2877.40
282.08	3350.48
282.29	3674.06
282.51	2801.62
282.73	2877.40
282.94	2936.79
283.16	3424.20
283.37	3071.95
283.59	3041.23
283.80	3428.30
284.02	3231.69
284.23	3041.23
284.45	3006.42
284.66	3203.02
284.88	3184.59
285.09	2881.49
285.31	3069.91
285.52	3321.81
285.74	3004.37
285.95	3200.98
286.17	2996.18
286.38	3442.64
286.60	3135.44
286.81	2934.74
287.03	2973.65
287.24	3317.71
287.46	3399.63
287.67	3092.43
287.89	3200.98
288.10	3346.38
288.32	3270.61
288.53	3188.69
288.75	3051.47
288.96	3418.06
289.18	3110.86
289.39	2869.20
289.61	3024.85
289.82	3704.78
290.04	3753.93
290.25	2926.55
290.47	3065.81
290.68	3141.58
290.90	3536.84
291.11	2897.88
291.33	3092.43
291.54	3133.39
291.76	3217.36
291.97	3207.12
292.18	3090.38
292.40	3213.26
292.61	3084.24
292.83	3252.17
293.04	3037.14
293.26	3385.29
293.47	3192.78
293.69	3002.32
293.90	2850.77
294.12	3618.76
294.33	3252.17
294.55	2934.74
294.76	3135.44
294.97	3538.89
295.19	3766.21
295.40	2963.41
295.62	3002.32
295.83	3436.49
296.05	3084.24
296.26	3203.02
296.48	3018.71
296.69	3123.15
296.90	3274.70
297.12	3127.25
297.33	3141.58
297.55	3262.41
297.76	3350.48
297.98	3141.58
298.19	3139.54
298.41	3317.71
298.62	3180.50
298.83	3139.54
299.05	3153.87
299.26	3284.94
299.48	3157.97
299.69	3004.37
299.90	2934.74
300.12	3057.62
300.33	3428.30
300.55	2998.23
300.76	3053.52
300.98	3080.14
301.19	3356.62
301.40	2959.31
301.62	2920.40
301.83	3368.91
302.05	3266.51
302.26	2979.79
302.47	3141.58
302.69	3045.33
302.90	3192.78
303.12	2813.91
303.33	3125.20
303.54	3598.28
303.76	3164.11
303.97	2938.84
304.19	3166.16
304.40	3037.14
304.61	3459.02
304.83	3168.21
305.04	3041.23
305.26	3393.48
305.47	3256.27
305.68	3020.75
305.90	2863.06
306.11	3581.90
306.33	3258.32
306.54	2897.88
306.75	2979.79
306.97	2990.03
307.18	3004.37
307.39	3026.90
307.61	3022.80
307.82	3303.37
308.04	3426.25
308.25	2899.92
308.46	3102.67
308.68	3360.72
308.89	3241.93
309.10	3121.10
309.32	3035.09
309.53	3229.65
309.74	3418.06
309.96	2918.36
310.17	3166.16
310.39	3198.93
310.60	3368.91
310.81	3086.29
311.03	2947.03
311.24	3389.39
311.45	3286.99
311.67	3250.13
311.88	3133.39
312.09	3227.60
312.31	3198.93
312.52	2955.22
312.73	3030.99
312.95	3074.00
313.16	3076.05
313.37	3123.15
313.59	3254.22
313.80	3471.31
314.01	3614.66
314.23	3123.15
314.44	2924.50
314.65	2961.36
314.87	3086.29
315.08	2938.84
315.29	2973.65
315.51	3153.87
315.72	3026.90
315.93	3006.42
316.15	3059.67
316.36	3188.69
316.57	3282.89
316.79	3004.37
317.00	2930.64
317.21	3428.30
317.43	3166.16
317.64	3041.23
317.85	2893.78
318.07	3100.62
318.28	3176.40
318.49	3143.63
318.70	3291.09
318.92	3377.10
319.13	3373.00
319.34	3221.45
319.56	3002.32
319.77	3323.85
319.98	3385.29
320.20	3340.24
320.41	3200.98
320.62	3360.72
320.83	3098.58
321.05	3231.69
321.26	3049.43
321.47	3274.70
321.69	3508.17
321.90	2828.24
322.11	2936.79
322.32	3332.05
322.54	3573.71
322.75	3057.62
322.96	4001.73
323.18	2920.40
323.39	2916.31
323.60	2889.68
323.81	3139.54
324.03	3180.50
324.24	3188.69
324.45	3098.58
324.66	2942.93
324.88	3426.25
325.09	3542.99
325.30	2969.55
325.52	2934.74
325.73	3418.06
325.94	3137.49
326.15	2901.97
326.37	2926.55
326.58	3456.97
326.79	3629.00
327.00	2920.40
327.22	2951.12
327.43	3223.50
327.64	3117.01
327.85	3153.87
328.07	3033.04
328.28	3743.69
328.49	3233.74
328.70	2994.13
328.92	2936.79
329.13	3215.31
329.34	3350.48
329.55	3262.41
329.76	3180.50
329.98	3174.35
330.19	3420.11
330.40	3096.53
330.61	3112.91
330.83	3362.76
331.04	3198.93
331.25	3076.05
331.46	3039.19
331.68	3084.24
331.89	3508.17
332.10	3104.72
332.31	2836.44
332.52	3188.69
332.74	3508.17
332.95	2822.10
333.16	2967.51
333.37	3446.73
333.58	3180.50
333.80	3061.71
334.01	2772.95
334.22	3110.86
334.43	3160.02
334.64	2967.51
334.86	2910.16
335.07	3051.47
335.28	3590.09
335.49	2873.30
335.70	3088.34
335.92	3608.52
336.13	3708.87
336.34	3102.67
336.55	2981.84
336.76	3284.94
336.98	2852.82
337.19	2994.13
337.40	3078.10
337.61	3811.27
337.82	3229.65
338.04	3092.43
338.25	2885.59
338.46	3274.70
338.67	3239.89
338.88	2959.31
339.09	2877.40
339.31	3135.44
339.52	3051.47
339.73	2918.36
339.94	3041.23
340.15	3442.64
340.36	3205.07
340.58	3016.66
340.79	2981.84
341.00	3368.91
341.21	3047.38
341.42	3280.85
341.63	2973.65
341.85	3532.75
342.06	3348.43
342.27	2926.55
342.48	3084.24
342.69	2990.03
342.90	3467.21
343.12	3370.96
343.33	2908.12
343.54	3428.30
343.75	3575.75
343.96	2990.03
344.17	2938.84
344.38	3248.08
344.60	3106.77
344.81	2983.89
345.02	2973.65
345.23	3499.98
345.44	3827.65
345.65	3061.71
345.86	3059.67
346.07	3342.28
346.29	3131.34
346.50	3184.59
346.71	3135.44
346.92	3563.47
347.13	3708.87
347.34	3045.33
347.55	2922.45
347.76	3409.87
347.98	2963.41
348.19	2987.99
348.40	3125.20
348.61	3221.45
348.82	3594.19
349.03	3114.96
349.24	2893.78
349.45	3721.16
349.66	2944.98
349.88	2975.70
350.09	2912.21
350.30	3575.75
350.51	3510.22
350.72	3213.26
350.93	2969.55
351.14	3160.02
351.35	3426.25
351.56	3117.01
351.77	3041.23
351.99	3307.47
352.20	3602.38
352.41	3080.14
352.62	2809.81
352.83	3377.10
353.04	3311.57
353.25	3012.56
353.46	3041.23
353.67	3377.10
353.88	2914.26
354.09	2914.26
354.30	3051.47
354.52	3409.87
354.73	3254.22
354.94	2920.40
355.15	3061.71
355.36	3663.82
355.57	3139.54
355.78	3045.33
355.99	3043.28
356.20	3303.37
356.41	3624.90
356.62	3102.67
356.83	3069.91
357.04	3463.12
357.25	2959.31
357.46	2904.02
357.68	2842.58
357.89	3043.28
358.10	3246.03
358.31	2936.79
358.52	3069.91
358.73	3135.44
358.94	3086.29
359.15	3035.09
359.36	3057.62
359.57	3379.15
359.78	3297.23
359.99	3168.21
360.20	2891.73
360.41	3276.75
360.62	3471.31
360.83	3004.37
361.04	2979.79
361.25	3323.85
361.46	3592.14
361.67	3090.38
361.88	3016.66
362.09	3475.40
362.30	3338.19
362.51	2932.69
362.72	3065.81
362.93	3424.20
363.14	3446.73
363.35	3010.51
363.56	2863.06
363.78	3479.50
363.99	3461.07
364.20	2981.84
364.41	3014.61
364.62	3600.33
364.83	3307.47
365.04	3026.90
365.25	3049.43
365.46	3639.24
365.67	3129.30
365.88	3198.93
366.09	3024.85
366.30	3223.50
366.51	3313.61
366.72	2938.84
366.93	3000.27
367.14	3315.66
367.35	3540.94
367.56	2897.88
367.77	3112.91
367.98	3227.60
368.18	3407.82
368.39	3157.97
368.60	2926.55
368.81	3495.88
369.02	3325.90
369.23	2975.70
369.44	2865.11
369.65	3254.22
369.86	3416.01
370.07	3121.10
370.28	2887.64
370.49	3303.37
370.70	3284.94
370.91	2953.17
371.12	2836.44
371.33	3542.99
371.54	3114.96
371.75	3164.11
371.96	2699.22
372.17	3276.75
372.38	3184.59
372.59	3012.56
372.80	3000.27
373.01	3200.98
373.22	3370.96
373.43	2990.03
373.64	2863.06
373.85	3483.59
374.06	3629.00
374.26	3127.25
374.47	3110.86
374.68	3542.99
374.89	3301.33
375.10	2987.99
375.31	3071.95
375.52	3336.14
375.73	3305.42
375.94	2822.10
376.15	3069.91
376.36	3145.68
376.57	3237.84
376.78	3012.56
376.99	3016.66
377.20	3571.66
377.40	3274.70
377.61	3286.99
377.82	2981.84
378.03	3446.73
378.24	3467.21
378.45	3139.54
378.66	3049.43
378.87	2998.23
379.08	3000.27
379.29	2979.79
379.50	3131.34
379.71	3190.74
379.91	3495.88
380.12	3018.71
380.33	3114.96
380.54	3274.70
380.75	3278.80
380.96	3018.71
381.17	3059.67
381.38	3256.27
381.59	3307.47
381.80	3033.04
382.00	3231.69
382.21	3348.43
382.42	3579.85
382.63	3403.72
382.84	3143.63
383.05	3514.31
383.26	3575.75
383.47	3100.62
383.68	2932.69
383.88	3444.68
384.09	3319.76
384.30	3270.61
384.51	3090.38
384.72	3217.36
384.93	3074.00
385.14	3086.29
385.35	3364.81
385.55	3000.27
385.76	3547.08
385.97	3016.66
386.18	2893.78
386.39	3155.92
386.60	3160.02
386.81	2926.55
387.02	2869.20
387.22	2983.89
387.43	3442.64
387.64	3057.62
387.85	3364.81
388.06	3295.18
388.27	4376.51
388.48	7872.39
388.68	12306.24
388.89	15173.40
389.10	16570.12
389.31	16209.67
389.52	13256.50
389.73	11253.59
389.93	10620.77
390.14	9379.70
390.35	8472.45
390.56	7925.64
390.77	6711.19
390.98	5021.62
391.18	4165.57
391.39	3911.62
391.60	3309.52
391.81	3282.89
392.02	3030.99
392.23	3737.54
392.43	3368.91
392.64	3123.15
392.85	3139.54
393.06	3547.08
393.27	3323.85
393.47	3000.27
393.68	3119.06
393.89	3186.64
394.10	3520.46
394.31	3033.04
394.52	2947.03
394.72	3127.25
394.93	3581.90
395.14	2932.69
395.35	3168.21
395.56	3203.02
395.76	3280.85
395.97	2992.08
396.18	3168.21
396.39	3297.23
396.60	3930.05
396.80	3422.16
397.01	3303.37
397.22	3416.01
397.43	3385.29
397.64	2975.70
397.84	3127.25
398.05	3743.69
398.26	3221.45
398.47	3213.26
398.67	3209.17
398.88	3286.99
399.09	3434.44
399.30	3014.61
399.51	3043.28
399.71	3196.88
399.92	3313.61
400.13	3082.19
400.34	3065.81
400.54	3305.42
400.75	3612.62
400.96	3217.36
401.17	3389.39
401.37	3383.24
401.58	3321.81
401.79	3041.23
402.00	3135.44
402.21	3819.46
402.41	3409.87
402.62	3413.96
402.83	3606.47
403.04	3649.48
403.24	4077.51
403.45	3176.40
403.66	3360.72
403.87	3540.94
404.07	3608.52
404.28	3321.81
404.49	3323.85
404.70	3448.78
404.90	3467.21
405.11	2992.08
405.32	3153.87
405.52	3170.26
405.73	3207.12
405.94	2975.70
406.15	3092.43
406.35	3459.02
406.56	3483.59
406.77	3074.00
406.98	3041.23
407.18	3078.10
407.39	3573.71
407.60	3049.43
407.80	3143.63
408.01	3108.82
408.22	3403.72
408.43	2959.31
408.63	3157.97
408.84	3446.73
409.05	3499.98
409.25	2979.79
409.46	3074.00
409.67	3139.54
409.88	3114.96
410.08	3090.38
410.29	2951.12
410.50	3485.64
410.70	3344.33
410.91	2928.60
411.12	3125.20
411.32	3262.41
411.53	3176.40
411.74	3112.91
411.95	3205.07
412.15	3368.91
412.36	3393.48
412.57	3180.50
412.77	3293.13
412.98	3352.52
413.19	3188.69
413.39	3182.54
413.60	3139.54
413.81	3573.71
414.01	3039.19
414.22	3153.87
414.43	3229.65
414.63	3258.32
414.84	3481.55
415.05	3067.86
415.25	2869.20
415.46	3565.51
415.67	3123.15
415.87	3041.23
416.08	3098.58
416.29	3274.70
416.49	3405.77
416.70	3190.74
416.91	3078.10
417.11	3196.88
417.32	3524.55
417.53	3205.07
417.73	3137.49
417.94	3319.76
418.15	3215.31
418.35	3145.68
418.56	3057.62
418.77	3727.30
418.97	3303.37
419.18	3211.22
419.38	2793.43
419.59	3280.85
419.80	3577.80
420.00	3012.56
420.21	3049.43
420.42	3485.64
420.62	3405.77
420.83	3008.47
421.04	3030.99
421.24	3211.22
421.45	3434.44
421.65	3049.43
421.86	3098.58
422.07	3487.69
422.27	3520.46
422.48	3008.47
422.69	2781.14
422.89	3313.61
423.10	3186.64
423.30	3069.91
423.51	3078.10
423.72	3407.82
423.92	3311.57
424.13	3033.04
424.33	3133.39
424.54	3397.58
424.75	3266.51
424.95	3286.99
425.16	2990.03
425.36	3213.26
425.57	3493.83
425.78	3274.70
425.98	3096.53
426.19	3286.99
426.39	3104.72
426.60	3151.82
426.81	3190.74
427.01	3356.62
427.22	3030.99
427.42	2852.82
427.63	2944.98
427.83	3491.79
428.04	3618.76
428.25	3071.95
428.45	3147.73
428.66	3542.99
428.86	3219.41
429.07	3117.01
429.28	2998.23
429.48	3207.12
429.69	3092.43
429.89	3182.54
430.10	2961.36
430.30	3422.16
430.51	3487.69
430.71	3024.85
430.92	3071.95
431.13	3188.69
431.33	3395.53
431.54	3084.24
431.74	3213.26
431.95	3753.93
432.15	3078.10
432.36	3008.47
432.56	3172.30
432.77	3633.10
432.98	3598.28
433.18	3133.39
433.39	2936.79
433.59	3258.32
433.80	3823.56
434.00	3178.45
434.21	3125.20
434.41	3086.29
434.62	3764.17
434.82	2973.65
435.03	2940.88
435.23	3346.38
435.44	2934.74
435.64	3080.14
435.85	3041.23
436.06	3422.16
436.26	3569.61
436.47	3069.91
436.67	3030.99
436.88	3211.22
437.08	3563.47
437.29	3196.88
437.49	3082.19
437.70	3512.27
437.90	3221.45
438.11	3243.98
438.31	3078.10
438.52	3538.89
438.72	3575.75
438.93	3456.97
439.13	3065.81
439.34	3452.88
439.54	3155.92
439.75	3114.96
439.95	3112.91
440.16	3233.74
440.36	3213.26
440.57	3151.82
440.77	3008.47
440.98	3289.04
441.18	3461.07
441.39	2906.07
441.59	2938.84
441.80	3721.16
442.00	3241.93
442.21	3147.73
442.41	2955.22
442.62	3450.83
442.82	3090.38
443.02	3049.43
443.23	3076.05
443.43	3200.98
443.64	3540.94
443.84	2897.88
444.05	3084.24
444.25	3286.99
444.46	3190.74
444.66	3041.23
444.87	3200.98
445.07	2904.02
445.28	3205.07
445.48	3299.28
445.69	3203.02
445.89	3760.07
446.09	3102.67
446.30	3381.20
446.50	3542.99
446.71	5031.86
446.91	6256.54
447.12	7092.12
447.32	7550.86
447.53	7675.79
447.73	6483.87
447.93	5578.67
448.14	5246.90
448.34	5445.55
448.55	4466.62
448.75	4435.90
448.96	4243.39
449.16	4175.81
449.36	3889.09
449.57	3397.58
449.77	3182.54
449.98	3151.82
450.18	3344.33
450.39	3055.57
450.59	3258.32
450.79	3239.89
451.00	3231.69
451.20	3250.13
451.41	3024.85
451.61	3336.14
451.81	3223.50
452.02	2961.36
452.22	3106.77
452.43	3102.67
452.63	3065.81
452.84	3078.10
453.04	3096.53
453.24	3278.80
453.45	3196.88
453.65	3074.00
453.86	3106.77
454.06	3313.61
454.26	3422.16
454.47	3000.27
454.67	3215.31
454.87	3348.43
455.08	3227.60
455.28	3141.58
455.49	3239.89
455.69	3061.71
455.89	3755.97
456.10	3194.83
456.30	3006.42
456.51	3528.65
456.71	3252.17
456.91	3219.41
457.12	3041.23
457.32	3413.96
457.52	3049.43
457.73	3246.03
457.93	3221.45
458.14	3145.68
458.34	2934.74
458.54	3143.63
458.75	3057.62
458.95	3440.59
459.15	3356.62
459.36	3016.66
459.56	3049.43
459.76	3753.93
459.97	3385.29
460.17	3069.91
460.37	3184.59
460.58	3293.13
460.78	3448.78
460.99	3082.19
461.19	3076.05
461.39	3190.74
461.60	3135.44
461.80	3106.77
462.00	2901.97
462.21	3270.61
462.41	3098.58
462.61	2967.51
462.82	2840.53
463.02	3342.28
463.22	3319.76
463.43	3071.95
463.63	2947.03
463.83	3602.38
464.04	3368.91
464.24	3074.00
464.44	3074.00
464.64	3418.06
464.85	3356.62
465.05	3043.28
465.25	2926.55
465.46	3160.02
465.66	3411.92
465.86	3143.63
466.07	2996.18
466.27	3330.00
466.47	2971.60
466.68	2936.79
466.88	3166.16
467.08	3493.83
467.29	3450.83
467.49	3065.81
467.69	3127.25
467.89	3373.00
468.10	3205.07
468.30	3076.05
468.50	3182.54
468.71	3411.92
468.91	2942.93
469.11	3364.81
469.31	3129.30
469.52	3104.72
469.72	3657.67
469.92	3286.99
470.13	3108.82
470.33	3262.41
470.53	3379.15
470.73	3561.42
470.94	3928.00
471.14	4118.47
471.34	4704.18
471.54	4276.16
471.75	4184.00
471.95	3844.04
472.15	3817.41
472.36	3749.83
472.56	3590.09
472.76	3885.00
472.96	3753.93
473.17	3393.48
473.37	3284.94
473.57	3282.89
473.77	3348.43
473.98	3200.98
474.18	2965.46
474.38	4014.02
474.58	3250.13
474.79	2944.98
474.99	3190.74
475.19	3540.94
475.39	3049.43
475.60	3147.73
475.80	3016.66
476.00	3354.57
476.20	3264.46
476.41	3157.97
476.61	3133.39
476.81	3528.65
477.01	3194.83
477.21	3395.53
477.42	3168.21
477.62	3131.34
477.82	3401.68
478.02	3000.27
478.23	3055.57
478.43	3182.54
478.63	3174.35
478.83	3030.99
479.03	3119.06
479.24	3565.51
479.44	3712.97
479.64	3065.81
479.84	2861.01
480.04	3182.54
480.25	3483.59
480.45	2981.84
480.65	3053.52
480.85	3532.75
481.06	3172.30
481.26	3082.19
481.46	3045.33
481.66	3373.00
481.86	3217.36
482.06	3307.47
482.27	3098.58
482.47	3282.89
482.67	3319.76
482.87	3080.14
483.07	3160.02
483.28	3190.74
483.48	3117.01
483.68	3080.14
483.88	3004.37
484.08	2881.49
484.29	3049.43
484.49	3190.74
484.69	2832.34
484.89	3563.47
485.09	3489.74
485.29	2998.23
485.50	3235.79
485.70	3213.26
485.90	3499.98
486.10	3176.40
486.30	2967.51
486.50	3524.55
486.71	3401.68
486.91	3110.86
487.11	3090.38
487.31	3041.23
487.51	3358.67
487.71	3041.23
487.91	2987.99
488.12	3157.97
488.32	2877.40
488.52	3069.91
488.72	2762.71
488.92	3295.18
489.12	3477.45
489.32	3274.70
489.53	3061.71
489.73	2983.89
489.93	3674.06
490.13	3160.02
490.33	2928.60
490.53	3250.13
490.73	3557.32
490.94	2897.88
491.14	3198.93
491.34	3301.33
491.54	3452.88
491.74	3993.54
491.94	4589.50
492.14	5124.02
492.34	5212.08
492.54	4777.91
492.75	4112.32
492.95	4442.04
493.15	4059.07
493.35	3792.84
493.55	3731.40
493.75	3737.54
493.95	3887.04
494.15	3332.05
494.35	3235.79
494.56	3295.18
494.76	3170.26
494.96	3186.64
495.16	2930.64
495.36	3282.89
495.56	3264.46
495.76	3141.58
495.96	3086.29
496.16	3112.91
496.36	3651.53
496.56	3082.19
496.77	3139.54
496.97	3221.45
497.17	3516.36
497.37	3008.47
497.57	3147.73
497.77	3262.41
497.97	3153.87
498.17	3076.05
498.37	3008.47
498.57	3413.96
498.77	3155.92
498.97	3205.07
499.17	3377.10
499.38	3270.61
499.58	3364.81
499.78	3284.94
499.98	3211.22
500.18	3338.19
500.38	3205.07
500.58	3284.94
500.78	3698.63
500.98	6109.09
501.18	8353.66
501.38	9813.87
501.58	10891.10
501.78	10975.06
501.98	9213.81
502.18	7604.11
502.38	6533.02
502.58	6479.77
502.78	5722.02
502.98	5498.80
503.18	5187.50
503.38	4908.98
503.59	4212.67
503.79	4095.94
503.99	3753.93
504.19	3997.64
504.39	3940.29
504.59	3696.58
504.79	3645.38
504.99	3987.40
505.19	3606.47
505.39	3299.28
505.59	3516.36
505.79	3798.98
505.99	3508.17
506.19	3102.67
506.39	3323.85
506.59	3127.25
506.79	3246.03
506.99	3319.76
507.19	2998.23
507.39	3416.01
507.59	2992.08
507.79	3096.53
507.99	2996.18
508.19	3299.28
508.39	3248.08
508.59	3000.27
508.79	3160.02
508.99	3639.24
509.19	3076.05
509.39	3090.38
509.59	2944.98
509.79	3213.26
509.99	3321.81
510.19	3184.59
510.39	3117.01
510.59	3332.05
510.79	3211.22
510.99	2899.92
511.19	3065.81
511.39	3590.09
511.59	3583.95
511.79	3254.22
511.99	3067.86
512.19	3741.64
512.38	3301.33
512.58	3033.04
512.78	3053.52
512.98	3553.23
513.18	3680.20
513.38	2973.65
513.58	3166.16
513.78	3305.42
513.98	3196.88
514.18	3114.96
514.38	3035.09
514.58	3330.00
514.78	3166.16
514.98	2887.64
515.18	3174.35
515.38	2994.13
515.58	3674.06
515.78	2994.13
515.98	3067.86
516.18	3401.68
516.38	3262.41
516.57	3030.99
516.77	3028.95
516.97	3446.73
517.17	3166.16
517.37	2836.44
517.57	3096.53
517.77	3313.61
517.97	3174.35
518.17	3174.35
518.37	2977.75
518.57	3145.68
518.77	3217.36
518.97	3149.78
519.16	3043.28
519.36	3491.79
519.56	3225.55
519.76	2994.13
519.96	3074.00
520.16	3545.03
520.36	3102.67
520.56	3141.58
520.76	3006.42
520.96	3260.37
521.16	3389.39
521.35	3237.84
521.55	3219.41
521.75	3373.00
521.95	3188.69
522.15	2947.03
522.35	2944.98
522.55	3110.86
522.75	3508.17
522.95	2957.27
523.14	2944.98
523.34	3190.74
523.54	3205.07
523.74	3209.17
523.94	3151.82
524.14	3002.32
524.34	3354.57
524.54	3297.23
524.73	3018.71
524.93	3436.49
525.13	3264.46
525.33	2969.55
525.53	3311.57
525.73	3418.06
525.93	3344.33
526.13	3067.86
526.32	2992.08
526.52	3538.89
526.72	3403.72
526.92	3086.29
527.12	2934.74
527.32	3006.42
527.52	3385.29
527.71	3076.05
527.91	3141.58
528.11	3153.87
528.31	3155.92
528.51	3033.04
528.71	3274.70
528.90	3428.30
529.10	3516.36
529.30	3078.10
529.50	2762.71
529.70	3344.33
529.90	3213.26
530.09	3114.96
530.29	2879.44
530.49	3037.14
530.69	3753.93
530.89	3209.17
531.09	3127.25
531.28	3125.20
531.48	3483.59
531.68	3037.14
531.88	3184.59
532.08	3475.40
532.28	3203.02
532.47	3172.30
532.67	3094.48
532.87	3389.39
533.07	3110.86
533.27	3135.44
533.46	3117.01
533.66	3272.65
533.86	3278.80
534.06	3086.29
534.26	3014.61
534.45	3231.69
534.65	3502.03
534.85	3151.82
535.05	2977.75
535.25	3465.16
535.44	2873.30
535.64	3049.43
535.84	3137.49
536.04	3133.39
536.24	3301.33
536.43	3002.32
536.63	3074.00
536.83	3243.98
537.03	3207.12
537.22	2799.57
537.42	2883.54
537.62	3401.68
537.82	3051.47
538.02	3270.61
538.21	3174.35
538.41	3905.48
538.61	3461.07
538.81	3137.49
539.00	3174.35
539.20	3028.95
539.40	3188.69
539.60	2990.03
539.79	3276.75
539.99	3160.02
540.19	3149.78
540.39	3061.71
540.58	3074.00
540.78	3467.21
540.98	3305.42
541.18	3262.41
541.37	3096.53
541.57	3323.85
541.77	3330.00
541.97	2930.64
542.16	2934.74
542.36	3215.31
542.56	3127.25
542.76	3252.17
542.95	3147.73
543.15	3313.61
543.35	3389.39
543.54	3016.66
543.74	2942.93
543.94	3545.03
544.14	3129.30
544.33	3172.30
544.53	3065.81
544.73	3233.74
544.93	3215.31
545.12	3020.75
545.32	3006.42
545.52	3219.41
545.71	3039.19
545.91	3057.62
546.11	2994.13
546.30	3041.23
546.50	3256.27
546.70	3110.86
546.90	3043.28
547.09	2944.98
547.29	3321.81
547.49	3172.30
547.68	3047.38
547.88	3215.31
548.08	3348.43
548.27	3379.15
548.47	3045.33
548.67	3147.73
548.87	3344.33
549.06	2951.12
549.26	3024.85
549.46	3340.24
549.65	3100.62
549.85	3028.95
550.05	3184.59
550.24	3024.85
550.44	3311.57
550.64	3035.09
550.83	3131.34
551.03	3483.59
551.23	3456.97
551.42	3151.82
551.62	3160.02
551.82	3278.80
552.01	3131.34
552.21	3377.10
552.41	3127.25
552.60	3569.61
552.80	3256.27
553.00	3018.71
553.19	3162.06
553.39	3727.30
553.59	3037.14
553.78	3192.78
553.98	3028.95
554.17	3030.99
554.37	3370.96
554.57	3119.06
554.76	2955.22
554.96	3196.88
555.16	3256.27
555.35	3153.87
555.55	3262.41
555.75	3317.71
555.94	3430.35
556.14	2916.31
556.33	3049.43
556.53	3211.22
556.73	3239.89
556.92	3155.92
557.12	2961.36
557.32	3645.38
557.51	3561.42
557.71	3155.92
557.90	3203.02
558.10	3510.22
558.30	3211.22
558.49	3125.20
558.69	3059.67
558.88	3391.44
559.08	3289.04
559.28	3047.38
559.47	3157.97
559.67	3442.64
559.86	3624.90
560.06	3006.42
560.26	3114.96
560.45	3418.06
560.65	3196.88
560.84	3276.75
561.04	2994.13
561.24	3385.29
561.43	3033.04
561.63	3295.18
561.82	3190.74
562.02	3424.20
562.22	3033.04
562.41	2947.03
562.61	3043.28
562.80	3147.73
563.00	3770.31
563.19	3119.06
563.39	3141.58
563.59	3459.02
563.78	3061.71
563.98	2889.68
564.17	3014.61
564.37	2967.51
564.56	3305.42
564.76	2910.16
564.96	3153.87
565.15	3252.17
565.35	3764.17
565.54	3071.95
565.74	3141.58
565.93	3434.44
566.13	3262.41
566.32	3135.44
566.52	3209.17
566.71	3223.50
566.91	3469.26
567.11	3203.02
567.30	2981.84
567.50	3405.77
567.69	3379.15
567.89	3002.32
568.08	2965.46
568.28	3330.00
568.47	3084.24
568.67	3069.91
568.86	2987.99
569.06	3477.45
569.25	3205.07
569.45	2953.17
569.64	3131.34
569.84	3233.74
570.04	3317.71
570.23	3037.14
570.43	3082.19
570.62	3334.09
570.82	3704.78
571.01	3016.66
571.21	3039.19
571.40	3143.63
571.60	3385.29
571.79	3131.34
571.99	3045.33
572.18	3098.58
572.38	3389.39
572.57	3078.10
572.77	3143.63
572.96	3844.04
573.16	3344.33
573.35	3055.57
573.55	3286.99
573.74	3459.02
573.94	3094.48
574.13	3022.80
574.33	3190.74
574.52	3491.79
574.71	3270.61
574.91	3147.73
575.10	2969.55
575.30	3114.96
575.49	3147.73
575.69	2942.93
575.88	3041.23
576.08	3246.03
576.27	3467.21
576.47	2975.70
576.66	3254.22
576.86	3577.80
577.05	3274.70
577.25	3225.55
577.44	3254.22
577.64	3246.03
577.83	3485.64
578.02	3047.38
578.22	3217.36
578.41	3602.38
578.61	3176.40
578.80	2992.08
579.00	3135.44
579.19	3264.46
579.39	3358.67
579.58	3196.88
579.77	3092.43
579.97	3569.61
580.16	3497.93
580.36	3258.32
580.55	3190.74
580.75	3391.44
580.94	3315.66
581.13	3180.50
581.33	3356.62
581.52	3139.54
581.72	3641.29
581.91	3143.63
582.11	3129.30
582.30	3483.59
582.49	3368.91
582.69	3397.58
582.88	3172.30
583.08	3344.33
583.27	3549.13
583.47	3166.16
583.66	3041.23
583.85	3157.97
584.05	3176.40
584.24	3223.50
584.44	3114.96
584.63	3424.20
584.82	3561.42
585.02	3336.14
585.21	3293.13
585.41	3307.47
585.60	3319.76
585.79	3325.90
585.99	3403.72
586.18	3262.41
586.37	4274.11
586.57	6381.47
586.76	18020.08
586.96	38000.06
587.15	51238.13
587.34	59909.23
587.54	63724.60
587.73	56816.80
587.93	41018.77
588.12	31604.25
588.31	25806.45
588.51	22900.39
588.70	21368.51
588.89	18693.86
589.09	15836.94
589.28	13731.63
589.47	10985.30
589.67	8320.90
589.86	6410.14
590.06	5132.21
590.25	4622.27
590.44	3844.04
590.64	3491.79
590.83	3602.38
591.02	3657.67
591.22	3086.29
591.41	3196.88
591.60	3213.26
591.80	3698.63
591.99	2936.79
592.18	3059.67
592.38	3477.45
592.57	3119.06
592.76	3084.24
592.96	3217.36
593.15	3239.89
593.34	3512.27
593.54	3100.62
593.73	3268.56
593.92	3364.81
594.12	3342.28
594.31	3106.77
594.50	3297.23
594.70	3456.97
594.89	3921.86
595.08	2922.45
595.28	3219.41
595.47	3868.61
595.66	3540.94
595.86	2951.12
596.05	2914.26
596.24	3190.74
596.43	3682.25
596.63	3112.91
596.82	3196.88
597.01	3485.64
597.21	3616.71
597.40	3114.96
597.59	3162.06
597.79	3260.37
597.98	3418.06
598.17	3104.72
598.36	3131.34
598.56	3409.87
598.75	3231.69
598.94	3207.12
599.14	3114.96
599.33	3330.00
599.52	3477.45
599.71	3176.40
599.91	3084.24
600.10	3434.44
600.29	3223.50
600.48	3164.11
600.68	3200.98
600.87	3405.77
601.06	3172.30
601.26	3192.78
601.45	3276.75
601.64	3176.40
601.83	3592.14
602.03	2979.79
602.22	2994.13
602.41	3551.18
602.60	3768.26
602.80	3184.59
602.99	3200.98
603.18	3180.50
603.37	3342.28
603.57	2938.84
603.76	3112.91
603.95	3504.07
604.14	3225.55
604.34	2969.55
604.53	3030.99
604.72	3315.66
604.91	3450.83
605.10	3078.10
605.30	2973.65
605.49	3768.26
605.68	3348.43
605.87	3102.67
606.07	2928.60
606.26	3284.94
606.45	3420.11
606.64	3063.76
606.84	2934.74
607.03	3332.05
607.22	3477.45
607.41	3094.48
607.60	3133.39
607.80	3491.79
607.99	3155.92
608.18	3055.57
608.37	3076.05
608.56	3160.02
608.76	3508.17
608.95	3203.02
609.14	3074.00
609.33	3475.40
609.52	3551.18
609.72	3223.50
609.91	3256.27
610.10	3352.52
610.29	3608.52
610.48	3248.08
610.68	3231.69
610.87	3254.22
611.06	3391.44
611.25	3123.15
611.44	3139.54
611.63	3188.69
611.83	3518.41
612.02	2979.79
612.21	3246.03
612.40	3057.62
612.59	3020.75
612.79	3022.80
612.98	3172.30
613.17	3649.48
613.36	3307.47
613.55	3239.89
613.74	3102.67
613.93	3391.44
614.13	3448.78
614.32	3360.72
614.51	3151.82
614.70	3239.89
614.89	3145.68
615.08	3209.17
615.28	3399.63
615.47	3059.67
615.66	3446.73
615.85	3170.26
616.04	3164.11
616.23	3389.39
616.42	3352.52
616.62	3096.53
616.81	3069.91
617.00	3348.43
617.19	3401.68
617.38	3133.39
617.57	3147.73
617.76	3491.79
617.95	3424.20
618.15	3157.97
618.34	3338.19
618.53	3012.56
618.72	3459.02
618.91	3243.98
619.10	3162.06
619.29	3246.03
619.48	3209.17
619.68	2947.03
619.87	3022.80
620.06	3020.75
620.25	3362.76
620.44	3139.54
620.63	3035.09
620.82	3411.92
621.01	3254.22
621.20	3198.93
621.39	3164.11
621.59	3434.44
621.78	3237.84
621.97	3080.14
622.16	3180.50
622.35	3420.11
622.54	3434.44
622.73	3176.40
622.92	2818.00
623.11	3540.94
623.30	3174.35
623.49	3194.83
623.68	3049.43
623.88	3663.82
624.07	3217.36
624.26	3043.28
624.45	3035.09
624.64	3270.61
624.83	3278.80
625.02	3114.96
625.21	3121.10
625.40	3389.39
625.59	3520.46
625.78	3198.93
625.97	3221.45
626.16	3600.33
626.35	3475.40
626.54	3114.96
626.74	3379.15
626.93	3157.97
627.12	3272.65
627.31	3170.26
627.50	3117.01
627.69	3422.16
627.88	3024.85
628.07	2998.23
628.26	2996.18
628.45	3055.57
628.64	3147.73
628.83	3053.52
629.02	2951.12
629.21	3356.62
629.40	3303.37
629.59	2990.03
629.78	3000.27
629.97	3289.04
630.16	3268.56
630.35	3008.47
630.54	3112.91
630.73	3192.78
630.92	3280.85
631.11	3024.85
631.30	3110.86
631.49	3442.64
631.68	3215.31
631.87	3063.76
632.06	3012.56
632.25	3715.02
632.44	3315.66
632.63	3172.30
632.82	3151.82
633.01	3168.21
633.20	3418.06
633.39	3114.96
633.58	2883.54
633.77	3399.63
633.96	3516.36
634.15	3227.60
634.34	3106.77
634.53	3420.11
634.72	3121.10
634.91	2963.41
635.10	3074.00
635.29	3377.10
635.48	3254.22
635.67	2912.21
635.86	2936.79
636.05	3545.03
636.24	3258.32
636.43	3114.96
636.62	3108.82
636.81	2791.38
637.00	3344.33
637.19	3043.28
637.38	3123.15
637.57	3223.50
637.76	3282.89
637.95	3299.28
638.14	3344.33
638.33	3389.39
638.52	3370.96
638.71	2992.08
638.89	2951.12
639.08	3753.93
639.27	3524.55
639.46	3397.58
639.65	3803.08
639.84	3932.10
640.03	4190.14
640.22	3645.38
640.41	3583.95
640.60	3385.29
640.79	3499.98
640.98	3385.29
641.17	3327.95
641.36	3545.03
641.55	3565.51
641.74	3078.10
641.92	3020.75
642.11	3108.82
642.30	3264.46
642.49	2987.99
642.68	3035.09
642.87	3289.04
643.06	3377.10
643.25	2930.64
643.44	3041.23
643.63	3270.61
643.82	3430.35
644.00	2918.36
644.19	3033.04
644.38	3102.67
644.57	3344.33
644.76	3102.67
644.95	3110.86
645.14	3375.05
645.33	3182.54
645.52	3131.34
645.71	2893.78
645.89	3102.67
646.08	3260.37
646.27	3117.01
646.46	3311.57
646.65	2975.70
646.84	3235.79
647.03	3016.66
647.22	3205.07
647.40	3311.57
647.59	3223.50
647.78	2879.44
647.97	3012.56
648.16	3037.14
648.35	3612.62
648.54	3395.53
648.73	3086.29
648.91	3493.83
649.10	3364.81
649.29	2947.03
649.48	3010.51
649.67	3350.48
649.86	3293.13
650.05	3160.02
650.23	3280.85
650.42	3178.45
650.61	3620.81
650.80	3375.05
650.99	3436.49
651.18	3483.59
651.36	3481.55
651.55	3112.91
651.74	3239.89
651.93	3147.73
652.12	3192.78
652.31	3155.92
652.49	3098.58
652.68	3229.65
652.87	3581.90
653.06	3239.89
653.25	3352.52
653.44	3262.41
653.62	3573.71
653.81	3121.10
654.00	3065.81
654.19	3397.58
654.38	3788.74
654.56	3106.77
654.75	3057.62
654.94	3459.02
655.13	3313.61
655.32	3022.80
655.51	3108.82
655.69	3088.34
655.88	3485.64
656.07	2965.46
656.26	3131.34
656.45	3020.75
656.63	3313.61
656.82	3000.27
657.01	3276.75
657.20	3192.78
657.38	3624.90
657.57	3008.47
657.76	3008.47
657.95	3317.71
658.14	3024.85
658.32	3164.11
658.51	3000.27
658.70	3297.23
658.89	3370.96
659.08	3071.95
659.26	3248.08
659.45	3051.47
659.64	3426.25
659.83	3045.33
660.01	3483.59
660.20	3364.81
660.39	3596.23
660.58	2809.81
660.76	3141.58
660.95	3016.66
661.14	3276.75
661.33	2938.84
661.51	3078.10
661.70	3237.84
661.89	3377.10
662.08	3080.14
662.26	2963.41
662.45	3028.95
662.64	3680.20
662.83	3139.54
663.01	2924.50
663.20	3174.35
663.39	3504.07
663.58	3096.53
663.76	3045.33
663.95	3448.78
664.14	3026.90
664.32	3190.74
664.51	3057.62
664.70	2936.79
664.89	3340.24
665.07	2979.79
665.26	3295.18
665.45	3014.61
665.64	3291.09
665.82	3061.71
666.01	3237.84
666.20	3084.24
666.38	3377.10
666.57	3497.93
666.76	5732.26
666.95	12961.59
667.13	20858.56
667.32	25097.86
667.51	28696.14
667.69	29414.98
667.88	24430.22
668.07	17493.75
668.25	14933.79
668.44	12912.44
668.63	11179.86
668.81	9860.97
669.00	8531.84
669.19	7780.23
669.38	6713.24
669.56	5722.02
669.75	4925.36
669.94	4458.43
670.12	3839.94
670.31	3502.03
670.50	3325.90
670.68	3532.75
670.87	3479.50
671.06	3119.06
671.24	3205.07
671.43	3569.61
671.62	3256.27
671.80	3067.86
671.99	3250.13
672.18	3360.72
672.36	3434.44
672.55	3229.65
672.74	3123.15
672.92	3229.65
673.11	3426.25
673.29	2926.55
673.48	3291.09
673.67	3256.27
673.85	3473.36
674.04	3016.66
674.23	3147.73
674.41	3575.75
674.60	3039.19
674.79	2875.35
674.97	2977.75
675.16	3393.48
675.34	3514.31
675.53	3078.10
675.72	3123.15
675.90	3649.48
676.09	3137.49
676.28	3196.88
676.46	2963.41
676.65	3362.76
676.83	3061.71
677.02	3129.30
677.21	3176.40
677.39	3366.86
677.58	3094.48
677.77	3098.58
677.95	3057.62
678.14	3192.78
678.32	3155.92
678.51	3092.43
678.70	3432.40
678.88	3205.07
679.07	3311.57
679.25	3026.90
679.44	3086.29
679.63	3071.95
679.81	3289.04
680.00	3280.85
680.18	3205.07
680.37	3661.77
680.55	3319.76
680.74	2983.89
680.93	2852.82
681.11	3266.51
681.30	3276.75
681.48	3078.10
681.67	3155.92
681.85	3336.14
682.04	3196.88
682.23	3284.94
682.41	3301.33
682.60	3297.23
682.78	3330.00
682.97	2985.94
683.15	3153.87
683.34	3262.41
683.53	3545.03
683.71	2934.74
683.90	3194.83
684.08	3639.24
684.27	3151.82
684.45	3129.30
684.64	3221.45
684.82	3303.37
685.01	3387.34
685.19	3049.43
685.38	3336.14
685.57	3280.85
685.75	3141.58
685.94	3030.99
686.12	2953.17
686.31	3174.35
686.49	3631.05
686.68	2881.49
686.86	3082.19
687.05	3262.41
687.23	3534.79
687.42	3147.73
687.60	2940.88
687.79	3418.06
687.97	3590.09
688.16	3229.65
688.34	3309.52
688.53	3004.37
688.71	3327.95
688.90	3325.90
689.08	3112.91
689.27	2969.55
689.45	3479.50
689.64	3229.65
689.82	3196.88
690.01	3340.24
690.19	3428.30
690.38	3180.50
690.56	3157.97
690.75	3069.91
690.93	3135.44
691.12	3043.28
691.30	3143.63
691.49	3137.49
691.67	3315.66
691.86	3452.88
692.04	3106.77
692.23	3213.26
692.41	3239.89
692.60	3418.06
692.78	3272.65
692.97	3225.55
693.15	3401.68
693.34	3319.76
693.52	3323.85
693.71	3194.83
693.89	3155.92
694.08	2959.31
694.26	3157.97
694.44	3383.24
694.63	3407.82
694.81	3035.09
695.00	3071.95
695.18	3467.21
695.37	3651.53
695.55	3174.35
695.74	3160.02
695.92	3078.10
696.10	3475.40
696.29	3022.80
696.47	3080.14
696.66	3100.62
696.84	3098.58
697.03	3121.10
697.21	3280.85
697.40	4650.94
697.58	3565.51
697.76	3037.14
697.95	3071.95
698.13	3049.43
698.32	3176.40
698.50	3141.58
698.68	3100.62
698.87	3332.05
699.05	3639.24
699.24	3080.14
699.42	2994.13
699.61	3323.85
699.79	3295.18
699.97	3088.34
700.16	2963.41
700.34	2965.46
700.53	3295.18
700.71	3293.13
700.89	3194.83
701.08	3209.17
701.26	3309.52
701.45	3475.40
701.63	3110.86
701.81	3141.58
702.00	3168.21
702.18	3164.11
702.37	3100.62
702.55	3585.99
702.73	3401.68
702.92	3033.04
703.10	3479.50
703.28	3459.02
703.47	3086.29
703.65	3459.02
703.84	3188.69
704.02	3225.55
704.20	3610.57
704.39	3127.25
704.57	3084.24
704.75	3471.31
704.94	3440.59
705.12	3297.23
705.30	4009.92
705.49	8845.18
705.67	17532.66
705.86	24231.57
706.04	27749.98
706.22	30457.39
706.41	29431.36
706.59	22025.90
706.77	16885.50
706.96	14784.29
707.14	13635.38
707.32	11454.29
707.51	10110.82
707.69	8112.00
707.87	6731.67
708.06	5453.74
708.24	4542.39
708.42	4116.42
708.61	4237.25
708.79	3282.89
708.97	3350.48
709.16	3430.35
709.34	3325.90
709.52	3026.90
709.71	3174.35
709.89	3403.72
710.07	3092.43
710.26	3004.37
710.44	3088.34
710.62	3475.40
710.80	3248.08
710.99	3192.78
711.17	3196.88
711.35	3151.82
711.54	3225.55
711.72	3307.47
711.90	3125.20
712.09	3403.72
712.27	3106.77
712.45	3213.26
712.63	3059.67
712.82	3344.33
713.00	3237.84
713.18	3182.54
713.37	3299.28
713.55	3508.17
713.73	3340.24
713.91	3250.13
714.10	3094.48
714.28	3196.88
714.46	3311.57
714.65	3192.78
714.83	3119.06
715.01	3266.51
715.19	3256.27
715.38	3020.75
715.56	3227.60
715.74	3170.26
715.92	3180.50
716.11	3340.24
716.29	2854.87
716.47	3211.22
716.65	3196.88
716.84	2928.60
717.02	3057.62
717.20	2979.79
717.38	3164.11
717.57	3157.97
717.75	3188.69
717.93	3190.74
718.11	3375.05
718.30	2992.08
718.48	3186.64
718.66	3516.36
718.84	3522.51
719.03	3106.77
719.21	2983.89
719.39	3508.17
719.57	3354.57
719.75	3074.00
719.94	3002.32
720.12	3188.69
720.30	3280.85
720.48	3119.06
720.67	3139.54
720.85	3098.58
721.03	3239.89
721.21	3117.01
721.39	3203.02
721.58	3471.31
721.76	3291.09
721.94	3209.17
722.12	3237.84
722.30	3635.14
722.49	3178.45
722.67	3131.34
722.85	3084.24
723.03	3074.00
723.21	3088.34
723.40	3184.59
723.58	3239.89
723.76	3385.29
723.94	3538.89
724.12	3059.67
724.30	3305.42
724.49	3497.93
724.67	3153.87
724.85	3209.17
725.03	2981.84
725.21	3493.83
725.40	3528.65
725.58	3069.91
725.76	3295.18
725.94	3479.50
726.12	3039.19
726.30	3151.82
726.49	3082.19
726.67	3223.50
726.85	3370.96
727.03	3985.35
727.21	5636.01
727.39	7417.74
727.57	7913.35
727.76	8474.49
727.94	8652.67
728.12	7499.66
728.30	6098.85
728.48	5476.27
728.66	5148.59
728.84	4810.68
729.03	4204.48
729.21	3874.76
729.39	3598.28
729.57	3465.16
729.75	3413.96
729.93	3366.86
730.11	3055.57
730.30	3194.83
730.48	3272.65
730.66	3196.88
730.84	3219.41
731.02	3215.31
731.20	3213.26
731.38	3196.88
731.56	2932.69
731.74	2961.36
731.93	3327.95
732.11	3219.41
732.29	3012.56
732.47	3383.24
732.65	3250.13
732.83	3319.76
733.01	3223.50
733.19	3176.40
733.37	3387.34
733.56	3084.24
733.74	3041.23
733.92	3614.66
734.10	3114.96
734.28	3237.84
734.46	2922.45
734.64	3168.21
734.82	3209.17
735.00	3039.19
735.18	2979.79
735.36	3256.27
735.54	3237.84
735.73	3061.71
735.91	3182.54
736.09	3583.95
736.27	3282.89
736.45	3211.22
736.63	2850.77
736.81	3217.36
736.99	3422.16
737.17	3315.66
737.35	3053.52
737.53	3303.37
737.71	3291.09
737.89	3299.28
738.07	3041.23
738.25	3180.50
738.43	2916.31
738.61	3102.67
738.80	3033.04
738.98	3053.52
739.16	3219.41
739.34	3012.56
739.52	3334.09
739.70	3237.84
739.88	3360.72
740.06	3241.93
740.24	2865.11
740.42	3467.21
740.60	2959.31
740.78	3155.92
740.96	2908.12
741.14	3151.82
741.32	3305.42
741.50	2877.40
741.68	3303.37
741.86	3561.42
742.04	3139.54
742.22	3020.75
742.40	3098.58
742.58	3389.39
742.76	3092.43
742.94	3233.74
743.12	3018.71
743.30	3233.74
743.48	3397.58
743.66	2975.70
743.84	3090.38
744.02	3233.74
744.20	3266.51
744.38	2959.31
744.56	3106.77
744.74	3631.05
744.92	3434.44
745.10	3319.76
745.28	3114.96
745.46	3606.47
745.64	3215.31
745.82	3166.16
746.00	3041.23
746.18	3332.05
746.36	3162.06
746.54	3119.06
746.72	3133.39
746.90	3024.85
747.08	3475.40
747.26	3084.24
747.44	3286.99
747.62	3416.01
747.80	3342.28
747.98	3190.74
748.15	3121.10
748.33	3612.62
748.51	3313.61
748.69	3221.45
748.87	2959.31
749.05	3282.89
749.23	3178.45
749.41	3057.62
749.59	3147.73
749.77	3395.53
749.95	3188.69
750.13	3086.29
750.31	3237.84
750.49	3184.59
750.67	3426.25
750.85	3262.41
751.03	3127.25
751.20	3559.37
751.38	3274.70
751.56	3196.88
751.74	3131.34
751.92	3252.17
752.10	2961.36
752.28	3258.32
752.46	3082.19
752.64	3252.17
752.82	3258.32
753.00	3164.11
753.18	2983.89
753.35	3213.26
753.53	3270.61
753.71	3012.56
753.89	3098.58
754.07	3401.68
754.25	3516.36
754.43	3178.45
754.61	2944.98
754.79	3370.96
754.97	3256.27
755.14	3278.80
755.32	2983.89
755.50	3280.85
755.68	3401.68
755.86	2987.99
756.04	3102.67
756.22	2920.40
756.40	3469.26
756.57	3258.32
756.75	3037.14
756.93	3489.74
757.11	3393.48
757.29	2944.98
757.47	2985.94
757.65	2996.18
757.82	2877.40
758.00	2918.36
758.18	2996.18
758.36	3104.72
758.54	3618.76
758.72	2881.49
758.90	3235.79
759.07	3366.86
759.25	3082.19
759.43	3200.98
759.61	2947.03
759.79	4446.14
759.97	3497.93
760.15	3094.48
760.32	3098.58
760.50	3397.58
760.68	3678.15
760.86	2938.84
761.04	3334.09
761.22	3499.98
761.39	3180.50
761.57	3209.17
761.75	3008.47
761.93	3377.10
762.11	3254.22
762.28	3172.30
762.46	3045.33
762.64	3424.20
762.82	2967.51
763.00	3086.29
763.18	3289.04
763.35	3117.01
763.53	3370.96
763.71	3209.17
763.89	2990.03
764.07	3299.28
764.24	3311.57
764.42	3198.93
764.60	3049.43
764.78	3459.02
764.96	3452.88
765.13	3243.98
765.31	2985.94
765.49	3383.24
765.67	3053.52
765.84	3010.51
766.02	3000.27
766.20	2979.79
766.38	3309.52
766.56	3176.40
766.73	3164.11
766.91	3237.84
767.09	3334.09
767.27	3049.43
767.44	2949.08
767.62	3426.25
767.80	3291.09
767.98	3004.37
768.15	3069.91
768.33	3532.75
768.51	3471.31
768.69	3172.30
768.87	3026.90
769.04	3270.61
769.22	3792.84
769.40	3289.04
769.58	3323.85
769.75	3459.02
769.93	3389.39
770.11	3117.01
770.28	2987.99
770.46	3389.39
770.64	3295.18
770.82	3065.81
770.99	3028.95
771.17	3391.44
771.35	3123.15
771.53	3196.88
771.70	3012.56
771.88	3323.85
772.06	3219.41
772.23	2965.46
772.41	3172.30
772.59	3190.74
772.77	3049.43
772.94	3125.20
773.12	3174.35
773.30	3117.01
773.47	3278.80
773.65	2981.84
773.83	3258.32
774.01	3258.32
774.18	2938.84
774.36	3186.64
774.54	2959.31
774.71	3307.47
774.89	2959.31
775.07	2947.03
775.24	3106.77
775.42	3106.77
775.60	3600.33
775.78	2977.75
775.95	2967.51
776.13	2936.79
776.31	2879.44
776.48	3243.98
776.66	3299.28
776.84	3239.89
777.01	3047.38
777.19	3010.51
777.37	3051.47
777.54	3413.96
777.72	3674.06
777.90	3248.08
778.07	3069.91
778.25	3885.00
778.43	3485.64
778.60	3041.23
778.78	3141.58
778.96	3504.07
779.13	3028.95
779.31	3125.20
779.49	3129.30
779.66	3344.33
779.84	3250.13
780.01	3065.81
780.19	3033.04
780.37	3483.59
780.54	3362.76
780.72	2996.18
780.90	3067.86
781.07	3231.69
781.25	3188.69
781.43	3268.56
781.60	3090.38
781.78	3467.21
781.95	3364.81
782.13	3000.27
782.31	3028.95
782.48	2930.64
782.66	3317.71
782.83	3284.94
783.01	3205.07
783.19	3420.11
783.36	3270.61
783.54	3020.75
783.72	3143.63
783.89	3180.50
784.07	3254.22
784.24	3114.96
784.42	3276.75
784.60	3250.13
784.77	3344.33
784.95	2832.34
785.12	3106.77
785.30	3303.37
785.47	3260.37
785.65	3000.27
785.83	3172.30
786.00	3100.62
786.18	3313.61
786.35	2971.60
786.53	3035.09
786.71	3477.45
786.88	3389.39
787.06	3178.45
787.23	3172.30
787.41	3049.43
787.58	3291.09
787.76	2955.22
787.94	3098.58
788.11	3358.67
788.29	2996.18
788.46	3028.95
788.64	2932.69
788.81	3172.30
788.99	3149.78
789.16	3069.91
789.34	3059.67
789.52	3194.83
789.69	3125.20
789.87	2844.63
790.04	3114.96
790.22	3362.76
790.39	3696.58
790.57	3051.47
790.74	2963.41
790.92	3446.73
791.09	2899.92
791.27	3082.19
791.44	3133.39
791.62	3166.16
791.79	3387.34
791.97	3106.77
792.15	3407.82
792.32	3325.90
792.50	3450.83
792.67	3291.09
792.85	3334.09
793.02	3327.95
793.20	3198.93
793.37	2955.22
793.55	3024.85
793.72	3057.62
793.90	3434.44
794.07	2981.84
794.25	2961.36
794.42	3368.91
794.60	3184.59
794.77	3143.63
794.95	3243.98
795.12	3459.02
795.30	3286.99
795.47	2965.46
795.65	3395.53
795.82	3344.33
796.00	3147.73
796.17	3168.21
796.34	2983.89
796.52	3299.28
796.69	3340.24
796.87	3129.30
797.04	3200.98
797.22	3424.20
797.39	3330.00
797.57	3254.22
797.74	3106.77
797.92	3354.57
798.09	3125.20
798.27	3364.81
798.44	3041.23
798.62	3219.41
798.79	3325.90
798.96	3178.45
799.14	3112.91
799.31	3727.30
799.49	3121.10
799.66	3106.77
799.84	3133.39
800.01	3051.47
800.19	3358.67
800.36	2893.78
800.53	3051.47
800.71	3317.71
800.88	3569.61
801.06	3014.61
801.23	3065.81
801.41	3254.22
801.58	3141.58
801.75	3123.15
801.93	3137.49
802.10	3401.68
802.28	3168.21
802.45	3030.99
802.63	3094.48
802.80	3491.79
802.97	3176.40
803.15	3186.64
803.32	3067.86
803.50	3063.76
803.67	3084.24
803.84	3039.19
804.02	3149.78
804.19	3188.69
804.37	2815.96
804.54	2869.20
804.71	3076.05
804.89	3270.61
805.06	3117.01
805.24	2891.73
805.41	2873.30
805.58	3047.38
805.76	3798.98
805.93	3125.20
806.10	3260.37
806.28	3401.68
806.45	3264.46
806.63	3319.76
806.80	3174.35
806.97	3311.57
807.15	3340.24
807.32	3190.74
807.49	3041.23
807.67	2990.03
807.84	3360.72
808.01	2932.69
808.19	3239.89
808.36	3719.11
808.54	3123.15
808.71	3102.67
808.88	3057.62
809.06	3440.59
809.23	3588.04
809.40	3117.01
809.58	3131.34
809.75	3209.17
809.92	3067.86
810.10	3377.10
810.27	3047.38
810.44	3360.72
810.62	3422.16
810.79	3022.80
810.96	3133.39
811.14	3149.78
811.31	3348.43
811.48	3274.70
811.66	3110.86
811.83	3481.55
812.00	3291.09
812.18	3147.73
812.35	3465.16
812.52	3248.08
812.69	3149.78
812.87	3039.19
813.04	2940.88
813.21	3250.13
813.39	3117.01
813.56	2981.84
813.73	3362.76
813.91	3022.80
814.08	3291.09
814.25	3022.80
814.42	2879.44
814.60	3248.08
814.77	3319.76
814.94	3033.04
815.12	3139.54
815.29	3530.70
815.46	3147.73
815.63	3053.52
815.81	3071.95
815.98	3209.17
816.15	3186.64
816.33	3127.25
816.50	3123.15
816.67	3258.32
816.84	3319.76
817.02	2959.31
817.19	3043.28
817.36	3311.57
817.53	3373.00
817.71	2969.55
817.88	3125.20
818.05	3266.51
818.22	3260.37
818.40	3246.03
818.57	3090.38
818.74	3354.57
818.91	3239.89
819.09	3252.17
819.26	3200.98
819.43	3100.62
819.60	3065.81
819.78	3213.26
819.95	3137.49
820.12	3051.47
820.29	3516.36
820.47	3319.76
820.64	2971.60
820.81	3020.75
820.98	3153.87
821.15	3035.09
821.33	3270.61
821.50	2879.44
821.67	3362.76
821.84	3024.85
822.02	3094.48
822.19	3442.64
822.36	3213.26
822.53	3074.00
822.70	2969.55
822.88	3198.93
823.05	3555.27
823.22	3137.49
823.39	3123.15
823.56	3348.43
823.74	3618.76
823.91	2901.97
824.08	2961.36
824.25	3108.82
824.42	3545.03
824.60	2938.84
824.77	3162.06
824.94	3221.45
825.11	3401.68
825.28	3010.51
825.45	3217.36
825.63	3311.57
825.80	3094.48
825.97	3108.82
826.14	3125.20
826.31	2920.40
826.48	3336.14
826.66	3016.66
826.83	2998.23
827.00	3303.37
827.17	3135.44
827.34	3090.38
827.51	2979.79
827.69	3366.86
827.86	3008.47
828.03	3157.97
828.20	3086.29
828.37	3098.58
828.54	3393.48
828.71	3028.95
828.89	3217.36
829.06	3346.38
829.23	3633.10
829.40	3041.23
829.57	3041.23
829.74	3428.30
829.91	3125.20
830.09	2959.31
830.26	3264.46
830.43	3579.85
830.60	3164.11
830.77	3157.97
830.94	3252.17
831.11	3399.63
831.28	3119.06
831.46	3231.69
831.63	3026.90
831.80	3450.83
831.97	3082.19
832.14	3018.71
832.31	3149.78
832.48	3233.74
832.65	3389.39
832.82	3200.98
832.99	3125.20
833.17	3098.58
833.34	3553.23
833.51	3030.99
833.68	2844.63
833.85	3483.59
834.02	3016.66
834.19	2936.79
834.36	3082.19
834.53	3383.24
834.70	3477.45
834.87	3008.47
835.04	2793.43
835.22	3112.91
835.39	3196.88
835.56	2951.12
835.73	2856.92
835.90	3512.27
836.07	3041.23
836.24	2975.70
836.41	2906.07
836.58	3057.62
836.75	3467.21
836.92	2969.55
837.09	2854.87
837.26	3401.68
837.43	3356.62
837.60	2998.23
837.77	2938.84
837.94	3450.83
838.12	3487.69
838.29	2854.87
838.46	2811.86
838.63	3008.47
838.80	3577.80
838.97	2928.60
839.14	2879.44
839.31	3330.00
839.48	3362.76
839.65	2918.36
839.82	3080.14
839.99	3370.96
840.16	3252.17
840.33	2920.40
840.50	2992.08
840.67	3094.48
840.84	2762.71
841.01	2875.35
841.18	2879.44
841.35	3217.36
841.52	3397.58
841.69	3190.74
841.86	2932.69
842.03	3256.27
842.20	3422.16
842.37	2828.24
842.54	2934.74
842.71	3282.89
842.88	2992.08
843.05	2942.93
843.22	2865.11
843.39	3407.82
843.56	3129.30
843.73	2877.40
843.90	2971.60
844.07	3196.88
844.24	3469.26
844.41	2918.36
844.58	2918.36
844.75	3252.17
844.92	3254.22
845.09	2996.18
845.26	2981.84
845.43	3348.43
845.60	3192.78
845.77	3024.85
845.94	3010.51
846.10	3446.73
846.27	2981.84
846.44	2785.24
846.61	2820.05
846.78	3362.76
846.95	3485.64
847.12	2914.26
847.29	2926.55
847.46	3217.36
847.63	3385.29
847.80	2783.19
847.97	2901.97
848.14	3796.93
848.31	3215.31
848.48	2734.04
848.65	2863.06
848.82	3239.89
848.98	3801.03
849.15	3045.33
849.32	3028.95
849.49	3475.40
849.66	3293.13
849.83	2846.68
850.00	2877.40
850.17	3352.52
850.34	3131.34
850.51	2861.01
850.68	3004.37
850.85	3729.35
851.01	3268.56
851.18	2928.60
851.35	2963.41
851.52	3342.28
851.69	3577.80
851.86	2889.68
852.03	2789.33
852.20	3450.83
852.37	3303.37
852.53	2772.95
852.70	2824.15
852.87	3354.57
853.04	3442.64
853.21	2959.31
853.38	3194.83
853.55	3471.31
853.72	3463.12
853.89	2918.36
854.05	2895.83
854.22	3207.12
854.39	3125.20
854.56	2832.34
854.73	3018.71
854.90	3110.86
855.07	3219.41
855.23	2828.24
855.40	2854.87
855.57	3188.69
855.74	2828.24
855.91	3176.40
856.08	2762.71
856.25	3002.32
856.41	3114.96
856.58	2865.11
856.75	2918.36
856.92	3049.43
857.09	3475.40
857.26	2762.71
857.42	2918.36
857.59	3430.35
857.76	3211.22
857.93	2885.59
858.10	2973.65
858.27	3051.47
858.43	3286.99
858.60	2916.31
858.77	2901.97
858.94	3141.58
859.11	3493.83
859.27	3061.71
859.44	2854.87
859.61	3629.00
859.78	3309.52
859.95	2934.74
860.12	2826.20
860.28	3700.68
860.45	3614.66
860.62	2828.24
860.79	2992.08
860.95	3211.22
861.12	3229.65
861.29	2832.34
861.46	2873.30
861.63	3262.41
861.79	3321.81
861.96	2787.29
862.13	2875.35
862.30	3526.60
862.47	3149.78
862.63	2813.91
862.80	3033.04
862.97	3440.59
863.14	3327.95
863.30	2906.07
863.47	2881.49
863.64	3538.89
863.81	3295.18
863.97	2889.68
864.14	2979.79
864.31	3180.50
864.48	3356.62
864.65	3010.51
864.81	3028.95
864.98	3350.48
865.15	3483.59
865.32	2998.23
865.48	2936.79
865.65	3573.71
865.82	3176.40
865.98	3076.05
866.15	2928.60
866.32	3100.62
866.49	3180.50
866.65	3100.62
866.82	2934.74
866.99	3278.80
867.16	3153.87
867.32	2871.25
867.49	2791.38
867.66	3213.26
867.83	3162.06
867.99	2871.25
868.16	2938.84
868.33	3026.90
868.49	3313.61
868.66	2955.22
868.83	3043.28
868.99	3233.74
869.16	3276.75
869.33	3074.00
869.50	2987.99
869.66	3233.74
869.83	3147.73
870.00	2861.01
870.16	3096.53
870.33	3176.40
870.50	3471.31
870.66	3033.04
870.83	2893.78
871.00	3299.28
871.17	3334.09
871.33	2928.60
871.50	2885.59
871.67	3270.61
871.83	3174.35
872.00	3020.75
872.17	2981.84
872.33	3672.01
872.50	3475.40
872.67	2830.29
872.83	2889.68
873.00	3299.28
873.17	3262.41
873.33	2934.74
873.50	2994.13
873.67	3145.68
873.83	3104.72
874.00	2953.17
874.16	3110.86
874.33	3307.47
874.50	3108.82
874.66	2850.77
874.83	3055.57
875.00	3504.07
875.16	3475.40
875.33	2977.75
875.50	2727.89
875.66	3182.54
875.83	3276.75
875.99	2998.23
876.16	3020.75
876.33	3028.95
876.49	3246.03
876.66	2934.74
876.83	2992.08
876.99	2951.12
877.16	3231.69
877.32	2779.09
877.49	3030.99
877.66	3393.48
877.82	3514.31
877.99	2965.46
878.15	3215.31
878.32	3295.18
878.49	3223.50
878.65	3086.29
878.82	3231.69
878.98	3198.93
879.15	3553.23
879.32	3160.02
879.48	3155.92
879.65	3237.84
879.81	3200.98
879.98	3057.62
880.15	2926.55
880.31	3364.81
880.48	3106.77
880.64	3022.80
880.81	3039.19
880.97	3569.61
881.14	3518.41
881.31	2883.54
881.47	3065.81
881.64	3155.92
881.80	2987.99
881.97	3067.86
882.13	2916.31
882.30	3051.47
882.47	3092.43
882.63	2918.36
882.80	2887.64
882.96	3143.63
883.13	3442.64
883.29	2895.83
883.46	2938.84
883.62	3700.68
883.79	3323.85
883.95	3180.50
884.12	2836.44
884.29	3373.00
884.45	3295.18
884.62	3012.56
884.78	2863.06
884.95	3717.06
885.11	3086.29
885.28	3033.04
885.44	2910.16
885.61	3436.49
885.77	3491.79
885.94	3037.14
886.10	3033.04
886.27	3227.60
886.43	3585.99
886.60	3080.14
886.76	2942.93
886.93	3069.91
887.09	3270.61
887.26	2828.24
887.42	3076.05
887.59	3479.50
887.75	3807.17
887.92	3123.15
888.08	3053.52
888.25	3700.68
888.41	3497.93
888.58	2955.22
888.74	2899.92
888.91	3084.24
>>>>>End Processed Spectral Data<<<<<
