SpectraSuite Data File
++++++++++++++++++++++++++++++++++++
Date: Fri May 06 08:14:28 CEST 2016
User: root
Dark Spectrum Present: No
Reference Spectrum Present: No
Number of Sampled Component Spectra: 1
Spectrometers: USB4C02835
Integration Time (usec): 100000 (USB4C02835)
Spectra Averaged: 1 (USB4C02835)
Boxcar Smoothing: 0 (USB4C02835)
Correct for Electrical Dark: No (USB4C02835)
Strobe/Lamp Enabled: No (USB4C02835)
Correct for Detector Non-linearity: No (USB4C02835)
Correct for Stray Light: No (USB4C02835)
Number of Pixels in Processed Spectrum: 3648
>>>>>Begin Processed Spectral Data<<<<<
177.47	2195.42
177.69	2195.42
177.91	2195.42
178.13	2346.97
178.36	2281.44
178.58	3086.29
178.80	3131.34
179.02	2973.65
179.24	2940.88
179.46	2670.55
179.68	2820.05
179.90	3252.17
180.13	3321.81
180.35	2787.29
180.57	2836.44
180.79	3403.72
181.01	3196.88
181.23	2889.68
181.45	2965.46
181.67	3356.62
181.90	3385.29
182.12	2926.55
182.34	2672.60
182.56	3397.58
182.78	3344.33
183.00	2775.00
183.22	2951.12
183.44	2940.88
183.66	3903.43
183.89	2949.08
184.11	2885.59
184.33	3377.10
184.55	3499.98
184.77	2807.77
184.99	2803.67
185.21	3188.69
185.43	3762.12
185.65	2873.30
185.87	2799.57
186.10	3737.54
186.32	3755.97
186.54	3059.67
186.76	2973.65
186.98	3428.30
187.20	3268.56
187.42	2883.54
187.64	2850.77
187.86	3405.77
188.08	3411.92
188.30	2777.05
188.52	2867.16
188.75	3561.42
188.97	3592.14
189.19	2865.11
189.41	2846.68
189.63	3389.39
189.85	3157.97
190.07	2693.08
190.29	2723.80
190.51	3432.40
190.73	3020.75
190.95	3010.51
191.17	2985.94
191.39	3094.48
191.61	3235.79
191.84	2904.02
192.06	2942.93
192.28	3012.56
192.50	3973.06
192.72	3045.33
192.94	2920.40
193.16	3430.35
193.38	3346.38
193.60	2770.90
193.82	3020.75
194.04	3393.48
194.26	3377.10
194.48	2869.20
194.70	2768.85
194.92	3262.41
195.14	3409.87
195.36	2791.38
195.58	2959.31
195.80	3186.64
196.02	3088.34
196.24	2754.52
196.46	2983.89
196.69	3248.08
196.91	3846.09
197.13	2889.68
197.35	2944.98
197.57	3538.89
197.79	3387.34
198.01	2955.22
198.23	2893.78
198.45	3450.83
198.67	3004.37
198.89	2697.17
199.11	3039.19
199.33	3039.19
199.55	2885.59
199.77	2858.96
199.99	3065.81
200.21	3137.49
200.43	3338.19
200.65	2666.46
200.87	2775.00
201.09	3278.80
201.31	3239.89
201.53	2838.48
201.75	2951.12
201.97	3295.18
202.19	3286.99
202.41	2957.27
202.63	3020.75
202.85	3405.77
203.07	3286.99
203.29	2975.70
203.51	2750.42
203.73	3151.82
203.95	3905.48
204.17	2822.10
204.39	3014.61
204.61	3289.04
204.83	3215.31
205.05	3076.05
205.27	3018.71
205.49	3686.34
205.71	3248.08
205.93	2754.52
206.15	2746.33
206.37	3450.83
206.59	3241.93
206.81	2699.22
207.03	2838.48
207.25	3084.24
207.47	3403.72
207.69	2842.58
207.91	3110.86
208.13	3610.57
208.34	3221.45
208.56	2875.35
208.78	2879.44
209.00	3205.07
209.22	3190.74
209.44	2934.74
209.66	2803.67
209.88	3336.14
210.10	3256.27
210.32	2820.05
210.54	2928.60
210.76	3123.15
210.98	3448.78
211.20	2746.33
211.42	3028.95
211.64	3612.62
211.86	3422.16
212.08	2947.03
212.30	2863.06
212.52	3192.78
212.74	3475.40
212.96	2944.98
213.17	3004.37
213.39	3413.96
213.61	3696.58
213.83	2897.88
214.05	2705.37
214.27	3508.17
214.49	3051.47
214.71	2854.87
214.93	3014.61
215.15	3332.05
215.37	3514.31
215.59	2756.57
215.81	2930.64
216.03	3549.13
216.24	3231.69
216.46	2824.15
216.68	2908.12
216.90	3397.58
217.12	3436.49
217.34	2820.05
217.56	3071.95
217.78	3549.13
218.00	3313.61
218.22	2951.12
218.44	2998.23
218.66	3420.11
218.87	3704.78
219.09	2869.20
219.31	2844.63
219.53	3301.33
219.75	3180.50
219.97	2887.64
220.19	2936.79
220.41	3319.76
220.63	3520.46
220.85	2983.89
221.06	2891.73
221.28	3545.03
221.50	3327.95
221.72	2826.20
221.94	2762.71
222.16	3330.00
222.38	3438.54
222.60	2832.34
222.82	2971.60
223.03	3459.02
223.25	2977.75
223.47	2865.11
223.69	3055.57
223.91	3377.10
224.13	3282.89
224.35	2760.66
224.57	3119.06
224.78	3393.48
225.00	3037.14
225.22	2926.55
225.44	2779.09
225.66	3434.44
225.88	3190.74
226.10	3008.47
226.32	2824.15
226.53	3583.95
226.75	3155.92
226.97	2938.84
227.19	2852.82
227.41	3067.86
227.63	3270.61
227.85	2719.70
228.06	2926.55
228.28	3313.61
228.50	3428.30
228.72	2707.41
228.94	2838.48
229.16	2883.54
229.37	3141.58
229.59	2721.75
229.81	3123.15
230.03	3213.26
230.25	3018.71
230.47	2607.06
230.69	2795.48
230.90	3545.03
231.12	3090.38
231.34	2994.13
231.56	2897.88
231.78	3143.63
232.00	3327.95
232.21	2908.12
232.43	2893.78
232.65	2861.01
232.87	3356.62
233.09	2734.04
233.30	2789.33
233.52	3565.51
233.74	3284.94
233.96	2760.66
234.18	2987.99
234.40	3272.65
234.61	3790.79
234.83	2799.57
235.05	2846.68
235.27	3755.97
235.49	3602.38
235.70	2762.71
235.92	2932.69
236.14	3303.37
236.36	3839.94
236.58	2729.94
236.79	2975.70
237.01	3213.26
237.23	3231.69
237.45	3121.10
237.67	2942.93
237.88	3366.86
238.10	3622.86
238.32	2830.29
238.54	2838.48
238.76	3276.75
238.97	3180.50
239.19	2822.10
239.41	2822.10
239.63	3508.17
239.85	3172.30
240.06	2961.36
240.28	2834.39
240.50	3405.77
240.72	3229.65
240.93	2791.38
241.15	3063.76
241.37	3256.27
241.59	3545.03
241.81	2975.70
242.02	2983.89
242.24	3370.96
242.46	3418.06
242.68	2758.61
242.89	2885.59
243.11	3508.17
243.33	3301.33
243.55	2858.96
243.76	2832.34
243.98	3160.02
244.20	3274.70
244.42	2858.96
244.64	2912.21
244.85	3053.52
245.07	3102.67
245.29	2840.53
245.51	2844.63
245.72	3266.51
245.94	3510.22
246.16	2865.11
246.38	2983.89
246.59	3082.19
246.81	3139.54
247.03	2729.94
247.24	2762.71
247.46	3162.06
247.68	3274.70
247.90	2797.53
248.11	2885.59
248.33	3413.96
248.55	3356.62
248.77	2934.74
248.98	2957.27
249.20	3657.67
249.42	3401.68
249.64	2861.01
249.85	2861.01
250.07	3168.21
250.29	3418.06
250.50	2969.55
250.72	2766.81
250.94	3370.96
251.16	3698.63
251.37	2930.64
251.59	3049.43
251.81	3379.15
252.02	3585.99
252.24	2766.81
252.46	2985.94
252.68	3151.82
252.89	3139.54
253.11	2709.46
253.33	3049.43
253.54	3577.80
253.76	3053.52
253.98	2895.83
254.20	2787.29
254.41	3008.47
254.63	3270.61
254.85	2721.75
255.06	3047.38
255.28	3309.52
255.50	3276.75
255.71	2826.20
255.93	2736.09
256.15	3205.07
256.36	3338.19
256.58	2682.84
256.80	2844.63
257.02	3188.69
257.23	3223.50
257.45	2906.07
257.67	3049.43
257.88	3209.17
258.10	3409.87
258.32	2858.96
258.53	2871.25
258.75	3573.71
258.97	3153.87
259.18	2813.91
259.40	2785.24
259.62	3626.95
259.83	3567.56
260.05	2936.79
260.27	3686.34
260.48	3395.53
260.70	3133.39
260.92	2783.19
261.13	2871.25
261.35	3321.81
261.57	3315.66
261.78	2770.90
262.00	2826.20
262.22	3354.57
262.43	3114.96
262.65	2861.01
262.86	2885.59
263.08	3778.50
263.30	3213.26
263.51	2594.78
263.73	2797.53
263.95	3620.81
264.16	3153.87
264.38	2783.19
264.60	2838.48
264.81	3235.79
265.03	3530.70
265.25	3289.04
265.46	2867.16
265.68	3512.27
265.89	3356.62
266.11	2693.08
266.33	2789.33
266.54	3534.79
266.76	3303.37
266.98	3000.27
267.19	3059.67
267.41	3530.70
267.62	3291.09
267.84	2633.69
268.06	2969.55
268.27	3254.22
268.49	3465.16
268.70	2979.79
268.92	2904.02
269.14	3125.20
269.35	3108.82
269.57	2930.64
269.79	2916.31
270.00	3200.98
270.22	3641.29
270.43	2781.14
270.65	2734.04
270.87	3389.39
271.08	3442.64
271.30	2979.79
271.51	2867.16
271.73	3336.14
271.95	3545.03
272.16	2820.05
272.38	3076.05
272.59	3221.45
272.81	3366.86
273.02	2822.10
273.24	2983.89
273.46	3618.76
273.67	2985.94
273.89	2772.95
274.10	2848.72
274.32	3522.51
274.54	3266.51
274.75	2918.36
274.97	2969.55
275.18	3368.91
275.40	3379.15
275.61	2936.79
275.83	3045.33
276.05	3153.87
276.26	3291.09
276.48	3018.71
276.69	2990.03
276.91	3186.64
277.12	3596.23
277.34	3114.96
277.55	3196.88
277.77	3297.23
277.99	3268.56
278.20	2977.75
278.42	2850.77
278.63	3090.38
278.85	3043.28
279.06	2918.36
279.28	3123.15
279.49	3481.55
279.71	3467.21
279.93	3059.67
280.14	3000.27
280.36	3104.72
280.57	3440.59
280.79	3049.43
281.00	2887.64
281.22	3241.93
281.43	3520.46
281.65	2734.04
281.86	2803.67
282.08	3358.67
282.29	3721.16
282.51	2848.72
282.73	2867.16
282.94	2979.79
283.16	3473.36
283.37	3020.75
283.59	2951.12
283.80	3422.16
284.02	3286.99
284.23	3065.81
284.45	3000.27
284.66	3145.68
284.88	3090.38
285.09	2971.60
285.31	3102.67
285.52	3309.52
285.74	2967.51
285.95	3188.69
286.17	3014.61
286.38	3463.12
286.60	3119.06
286.81	2906.07
287.03	2963.41
287.24	3182.54
287.46	3352.52
287.67	3110.86
287.89	3266.51
288.10	3309.52
288.32	3325.90
288.53	3139.54
288.75	3061.71
288.96	3463.12
289.18	3147.73
289.39	2922.45
289.61	3092.43
289.82	3758.02
290.04	3657.67
290.25	2846.68
290.47	3010.51
290.68	3246.03
290.90	3467.21
291.11	2803.67
291.33	3155.92
291.54	3080.14
291.76	3149.78
291.97	3166.16
292.18	3028.95
292.40	3270.61
292.61	3176.40
292.83	3246.03
293.04	3026.90
293.26	3266.51
293.47	3200.98
293.69	2861.01
293.90	2879.44
294.12	3545.03
294.33	3229.65
294.55	2996.18
294.76	3145.68
294.97	3491.79
295.19	3747.78
295.40	3047.38
295.62	3057.62
295.83	3383.24
296.05	3133.39
296.26	3258.32
296.48	2998.23
296.69	3301.33
296.90	3282.89
297.12	3139.54
297.33	3221.45
297.55	3262.41
297.76	3346.38
297.98	3127.25
298.19	3166.16
298.41	3225.55
298.62	3033.04
298.83	3217.36
299.05	3078.10
299.26	3284.94
299.48	3141.58
299.69	3080.14
299.90	2975.70
300.12	3123.15
300.33	3379.15
300.55	3018.71
300.76	3065.81
300.98	3110.86
301.19	3456.97
301.40	3002.32
301.62	3012.56
301.83	3325.90
302.05	3325.90
302.26	2992.08
302.47	3123.15
302.69	3106.77
302.90	3266.51
303.12	2828.24
303.33	3078.10
303.54	3649.48
303.76	3153.87
303.97	2938.84
304.19	3074.00
304.40	3094.48
304.61	3381.20
304.83	3065.81
305.04	3037.14
305.26	3422.16
305.47	3182.54
305.68	2971.60
305.90	2912.21
306.11	3616.71
306.33	3260.37
306.54	2820.05
306.75	3045.33
306.97	3002.32
307.18	3149.78
307.39	3008.47
307.61	3123.15
307.82	3246.03
308.04	3428.30
308.25	2901.97
308.46	3123.15
308.68	3266.51
308.89	3323.85
309.10	3098.58
309.32	2953.17
309.53	3239.89
309.74	3436.49
309.96	2934.74
310.17	3166.16
310.39	3188.69
310.60	3360.72
310.81	3037.14
311.03	2996.18
311.24	3413.96
311.45	3239.89
311.67	3293.13
311.88	3125.20
312.09	3274.70
312.31	3114.96
312.52	2926.55
312.73	3020.75
312.95	3018.71
313.16	3086.29
313.37	3194.83
313.59	3237.84
313.80	3469.26
314.01	3590.09
314.23	3028.95
314.44	2967.51
314.65	3020.75
314.87	3164.11
315.08	3041.23
315.29	2994.13
315.51	3053.52
315.72	3049.43
315.93	3047.38
316.15	3008.47
316.36	3108.82
316.57	3346.38
316.79	3002.32
317.00	2949.08
317.21	3358.67
317.43	3039.19
317.64	3041.23
317.85	2959.31
318.07	3139.54
318.28	3184.59
318.49	3106.77
318.70	3256.27
318.92	3409.87
319.13	3321.81
319.34	3221.45
319.56	2967.51
319.77	3387.34
319.98	3411.92
320.20	3303.37
320.41	3172.30
320.62	3416.01
320.83	3049.43
321.05	3180.50
321.26	3071.95
321.47	3270.61
321.69	3573.71
321.90	2897.88
322.11	2967.51
322.32	3379.15
322.54	3600.33
322.75	3078.10
322.96	4073.41
323.18	2983.89
323.39	2844.63
323.60	2873.30
323.81	3074.00
324.03	3178.45
324.24	3196.88
324.45	3114.96
324.66	2863.06
324.88	3557.32
325.09	3555.27
325.30	2963.41
325.52	2914.26
325.73	3377.10
325.94	3135.44
326.15	2840.53
326.37	2914.26
326.58	3346.38
326.79	3555.27
327.00	2959.31
327.22	3033.04
327.43	3270.61
327.64	3094.48
327.85	3166.16
328.07	3051.47
328.28	3706.82
328.49	3211.22
328.70	2926.55
328.92	2992.08
329.13	3260.37
329.34	3321.81
329.55	3207.12
329.76	3117.01
329.98	3207.12
330.19	3481.55
330.40	3129.30
330.61	3121.10
330.83	3456.97
331.04	3086.29
331.25	3045.33
331.46	3014.61
331.68	3000.27
331.89	3442.64
332.10	3030.99
332.31	2844.63
332.52	3301.33
332.74	3526.60
332.95	2893.78
333.16	2992.08
333.37	3438.54
333.58	3178.45
333.80	3018.71
334.01	2760.66
334.22	3278.80
334.43	3256.27
334.64	2910.16
334.86	2992.08
335.07	3100.62
335.28	3604.42
335.49	2881.49
335.70	3076.05
335.92	3649.48
336.13	3706.82
336.34	3108.82
336.55	3069.91
336.76	3397.58
336.98	2887.64
337.19	3037.14
337.40	3108.82
337.61	3844.04
337.82	3237.84
338.04	3041.23
338.25	2846.68
338.46	3235.79
338.67	3233.74
338.88	2938.84
339.09	2942.93
339.31	3145.68
339.52	2998.23
339.73	2904.02
339.94	3076.05
340.15	3444.68
340.36	3221.45
340.58	3002.32
340.79	2887.64
341.00	3403.72
341.21	3090.38
341.42	3233.74
341.63	2994.13
341.85	3463.12
342.06	3385.29
342.27	2920.40
342.48	3178.45
342.69	3006.42
342.90	3379.15
343.12	3377.10
343.33	2983.89
343.54	3413.96
343.75	3674.06
343.96	3096.53
344.17	2942.93
344.38	3286.99
344.60	3090.38
344.81	2942.93
345.02	2926.55
345.23	3545.03
345.44	3872.71
345.65	3119.06
345.86	3112.91
346.07	3348.43
346.29	3147.73
346.50	3172.30
346.71	3057.62
346.92	3502.03
347.13	3700.68
347.34	3078.10
347.55	2901.97
347.76	3461.07
347.98	2963.41
348.19	3100.62
348.40	3184.59
348.61	3147.73
348.82	3598.28
349.03	3045.33
349.24	2899.92
349.45	3676.10
349.66	2881.49
349.88	2947.03
350.09	2953.17
350.30	3581.90
350.51	3561.42
350.72	3280.85
350.93	3010.51
351.14	3303.37
351.35	3346.38
351.56	3004.37
351.77	3063.76
351.99	3426.25
352.20	3540.94
352.41	3114.96
352.62	2801.62
352.83	3282.89
353.04	3260.37
353.25	2932.69
353.46	2985.94
353.67	3516.36
353.88	2908.12
354.09	2924.50
354.30	3022.80
354.52	3350.48
354.73	3286.99
354.94	3063.76
355.15	3026.90
355.36	3655.62
355.57	3014.61
355.78	2934.74
355.99	2930.64
356.20	3178.45
356.41	3538.89
356.62	3137.49
356.83	2987.99
357.04	3565.51
357.25	2901.97
357.46	3069.91
357.68	2815.96
357.89	3129.30
358.10	3186.64
358.31	2992.08
358.52	2990.03
358.73	3106.77
358.94	3045.33
359.15	2998.23
359.36	3043.28
359.57	3317.71
359.78	3223.50
359.99	3180.50
360.20	2869.20
360.41	3256.27
360.62	3405.77
360.83	3041.23
361.04	3037.14
361.25	3319.76
361.46	3545.03
361.67	3164.11
361.88	3049.43
362.09	3475.40
362.30	3352.52
362.51	2920.40
362.72	3063.76
362.93	3481.55
363.14	3350.48
363.35	3145.68
363.56	2944.98
363.78	3616.71
363.99	3510.22
364.20	2985.94
364.41	3051.47
364.62	3659.72
364.83	3368.91
365.04	3037.14
365.25	3041.23
365.46	3684.30
365.67	3190.74
365.88	3160.02
366.09	2893.78
366.30	3190.74
366.51	3207.12
366.72	2949.08
366.93	3010.51
367.14	3409.87
367.35	3499.98
367.56	2947.03
367.77	3157.97
367.98	3262.41
368.18	3409.87
368.39	3114.96
368.60	2951.12
368.81	3395.53
369.02	3354.57
369.23	3051.47
369.44	2838.48
369.65	3248.08
369.86	3321.81
370.07	3127.25
370.28	2820.05
370.49	3364.81
370.70	3397.58
370.91	2981.84
371.12	2865.11
371.33	3452.88
371.54	3094.48
371.75	3059.67
371.96	2691.03
372.17	3295.18
372.38	3270.61
372.59	2996.18
372.80	2967.51
373.01	3250.13
373.22	3416.01
373.43	3080.14
373.64	2975.70
373.85	3545.03
374.06	3610.57
374.26	3211.22
374.47	3092.43
374.68	3567.56
374.89	3297.23
375.10	2895.83
375.31	3102.67
375.52	3205.07
375.73	3254.22
375.94	2801.62
376.15	3106.77
376.36	3170.26
376.57	3098.58
376.78	3018.71
376.99	3065.81
377.20	3620.81
377.40	3125.20
377.61	3336.14
377.82	2975.70
378.03	3549.13
378.24	3342.28
378.45	3114.96
378.66	3135.44
378.87	2912.21
379.08	3020.75
379.29	3020.75
379.50	3170.26
379.71	3221.45
379.91	3420.11
380.12	2949.08
380.33	3096.53
380.54	3188.69
380.75	3266.51
380.96	3035.09
381.17	3026.90
381.38	3213.26
381.59	3248.08
381.80	3100.62
382.00	3207.12
382.21	3246.03
382.42	3604.42
382.63	3465.16
382.84	3155.92
383.05	3395.53
383.26	3499.98
383.47	3164.11
383.68	2975.70
383.88	3397.58
384.09	3370.96
384.30	3270.61
384.51	3110.86
384.72	3215.31
384.93	3049.43
385.14	3139.54
385.35	3248.08
385.55	3016.66
385.76	3581.90
385.97	3071.95
386.18	2869.20
386.39	3061.71
386.60	3110.86
386.81	2975.70
387.02	2928.60
387.22	2957.27
387.43	3424.20
387.64	3080.14
387.85	3293.13
388.06	3368.91
388.27	4294.59
388.48	7841.67
388.68	12087.11
388.89	14808.86
389.10	16054.03
389.31	15912.72
389.52	12975.93
389.73	11269.97
389.93	10401.63
390.14	9181.04
390.35	8439.68
390.56	7911.30
390.77	6629.27
390.98	5019.57
391.18	4151.23
391.39	3923.91
391.60	3356.62
391.81	3229.65
392.02	3037.14
392.23	3772.36
392.43	3364.81
392.64	3143.63
392.85	3106.77
393.06	3626.95
393.27	3299.28
393.47	2992.08
393.68	3059.67
393.89	3196.88
394.10	3545.03
394.31	3016.66
394.52	3004.37
394.72	3139.54
394.93	3581.90
395.14	2869.20
395.35	3184.59
395.56	3143.63
395.76	3198.93
395.97	2983.89
396.18	3108.82
396.39	3354.57
396.60	3968.96
396.80	3436.49
397.01	3272.65
397.22	3418.06
397.43	3510.22
397.64	3006.42
397.84	3026.90
398.05	3680.20
398.26	3276.75
398.47	3119.06
398.67	3276.75
398.88	3258.32
399.09	3407.82
399.30	3028.95
399.51	3098.58
399.71	3139.54
399.92	3276.75
400.13	3092.43
400.34	2985.94
400.54	3319.76
400.75	3579.85
400.96	3237.84
401.17	3356.62
401.37	3418.06
401.58	3192.78
401.79	3055.57
402.00	3180.50
402.21	3753.93
402.41	3461.07
402.62	3319.76
402.83	3551.18
403.04	3739.59
403.24	4093.89
403.45	3190.74
403.66	3340.24
403.87	3436.49
404.07	3645.38
404.28	3252.17
404.49	3381.20
404.70	3430.35
404.90	3418.06
405.11	3041.23
405.32	3166.16
405.52	3125.20
405.73	3203.02
405.94	2967.51
406.15	3090.38
406.35	3469.26
406.56	3416.01
406.77	3153.87
406.98	3063.76
407.18	3137.49
407.39	3557.32
407.60	3065.81
407.80	3098.58
408.01	3168.21
408.22	3350.48
408.43	2983.89
408.63	3172.30
408.84	3459.02
409.05	3508.17
409.25	2938.84
409.46	3037.14
409.67	3235.79
409.88	3153.87
410.08	3082.19
410.29	3002.32
410.50	3471.31
410.70	3379.15
410.91	2979.79
411.12	3112.91
411.32	3299.28
411.53	3033.04
411.74	3045.33
411.95	3137.49
412.15	3286.99
412.36	3465.16
412.57	3215.31
412.77	3303.37
412.98	3256.27
413.19	3221.45
413.39	3123.15
413.60	3139.54
413.81	3616.71
414.01	2965.46
414.22	3041.23
414.43	3291.09
414.63	3145.68
414.84	3418.06
415.05	3067.86
415.25	2908.12
415.46	3461.07
415.67	3155.92
415.87	3059.67
416.08	3014.61
416.29	3178.45
416.49	3336.14
416.70	3117.01
416.91	3049.43
417.11	3246.03
417.32	3481.55
417.53	3149.78
417.73	3180.50
417.94	3272.65
418.15	3389.39
418.35	3082.19
418.56	3100.62
418.77	3737.54
418.97	3334.09
419.18	3139.54
419.38	2729.94
419.59	3297.23
419.80	3585.99
420.00	3008.47
420.21	3094.48
420.42	3577.80
420.62	3391.44
420.83	2959.31
421.04	3010.51
421.24	3270.61
421.45	3420.11
421.65	3055.57
421.86	3061.71
422.07	3450.83
422.27	3346.38
422.48	2951.12
422.69	2840.53
422.89	3295.18
423.10	3125.20
423.30	2967.51
423.51	3078.10
423.72	3327.95
423.92	3499.98
424.13	2951.12
424.33	3131.34
424.54	3405.77
424.75	3256.27
424.95	3307.47
425.16	2996.18
425.36	3166.16
425.57	3499.98
425.78	3239.89
425.98	3182.54
426.19	3270.61
426.39	3061.71
426.60	3164.11
426.81	3248.08
427.01	3243.98
427.22	3057.62
427.42	2852.82
427.63	3022.80
427.83	3377.10
428.04	3606.47
428.25	3098.58
428.45	3170.26
428.66	3502.03
428.86	3172.30
429.07	3119.06
429.28	3061.71
429.48	3297.23
429.69	3141.58
429.89	3178.45
430.10	2951.12
430.30	3381.20
430.51	3444.68
430.71	2949.08
430.92	3088.34
431.13	3172.30
431.33	3317.71
431.54	3123.15
431.74	3301.33
431.95	3753.93
432.15	3131.34
432.36	3000.27
432.56	3076.05
432.77	3723.21
432.98	3682.25
433.18	3119.06
433.39	2959.31
433.59	3241.93
433.80	3749.83
434.00	3262.41
434.21	3057.62
434.41	3194.83
434.62	3737.54
434.82	2951.12
435.03	2965.46
435.23	3375.05
435.44	2934.74
435.64	2983.89
435.85	3090.38
436.06	3434.44
436.26	3487.69
436.47	3082.19
436.67	2985.94
436.88	3200.98
437.08	3426.25
437.29	3188.69
437.49	3174.35
437.70	3577.80
437.90	3262.41
438.11	3338.19
438.31	3125.20
438.52	3495.88
438.72	3499.98
438.93	3416.01
439.13	3139.54
439.34	3516.36
439.54	3219.41
439.75	3190.74
439.95	3145.68
440.16	3106.77
440.36	3254.22
440.57	3098.58
440.77	2977.75
440.98	3313.61
441.18	3393.48
441.39	2992.08
441.59	3012.56
441.80	3776.45
442.00	3264.46
442.21	3174.35
442.41	2922.45
442.62	3487.69
442.82	3157.97
443.02	3067.86
443.23	3110.86
443.43	3256.27
443.64	3626.95
443.84	2987.99
444.05	3098.58
444.25	3311.57
444.46	3123.15
444.66	3000.27
444.87	3278.80
445.07	2947.03
445.28	3178.45
445.48	3188.69
445.69	3149.78
445.89	3760.07
446.09	3160.02
446.30	3327.95
446.50	3516.36
446.71	5048.24
446.91	6328.22
447.12	7133.08
447.32	7616.40
447.53	7518.09
447.73	6367.13
447.93	5470.12
448.14	5224.37
448.34	5490.60
448.55	4476.86
448.75	4478.91
448.96	4292.54
449.16	4118.47
449.36	3899.33
449.57	3379.15
449.77	3188.69
449.98	3246.03
450.18	3373.00
450.39	3014.61
450.59	3196.88
450.79	3231.69
451.00	3088.34
451.20	3272.65
451.41	2940.88
451.61	3395.53
451.81	3235.79
452.02	2979.79
452.22	3012.56
452.43	3188.69
452.63	3188.69
452.84	3137.49
453.04	2959.31
453.24	3327.95
453.45	3076.05
453.65	3047.38
453.86	3149.78
454.06	3315.66
454.26	3209.17
454.47	3000.27
454.67	3213.26
454.87	3377.10
455.08	3260.37
455.28	3229.65
455.49	3223.50
455.69	3141.58
455.89	3723.21
456.10	3168.21
456.30	2981.84
456.51	3428.30
456.71	3313.61
456.91	3192.78
457.12	3110.86
457.32	3426.25
457.52	2934.74
457.73	3241.93
457.93	3309.52
458.14	3160.02
458.34	2940.88
458.54	3133.39
458.75	2973.65
458.95	3526.60
459.15	3385.29
459.36	3098.58
459.56	3035.09
459.76	3680.20
459.97	3289.04
460.17	3078.10
460.37	3153.87
460.58	3289.04
460.78	3354.57
460.99	3164.11
461.19	3020.75
461.39	3129.30
461.60	3229.65
461.80	3143.63
462.00	2926.55
462.21	3352.52
462.41	3057.62
462.61	2887.64
462.82	2822.10
463.02	3311.57
463.22	3344.33
463.43	3108.82
463.63	2961.36
463.83	3547.08
464.04	3313.61
464.24	3098.58
464.44	2998.23
464.64	3399.63
464.85	3395.53
465.05	3057.62
465.25	2953.17
465.46	3155.92
465.66	3418.06
465.86	3170.26
466.07	3090.38
466.27	3276.75
466.47	3010.51
466.68	2944.98
466.88	3127.25
467.08	3413.96
467.29	3471.31
467.49	3106.77
467.69	3196.88
467.89	3375.05
468.10	3278.80
468.30	3084.24
468.50	3149.78
468.71	3416.01
468.91	2940.88
469.11	3217.36
469.31	3160.02
469.52	3037.14
469.72	3641.29
469.92	3299.28
470.13	3059.67
470.33	3254.22
470.53	3311.57
470.73	3430.35
470.94	3876.80
471.14	4145.09
471.34	4634.55
471.54	4292.54
471.75	3946.44
471.95	3817.41
472.15	3805.13
472.36	3715.02
472.56	3561.42
472.76	3841.99
472.96	3741.64
473.17	3395.53
473.37	3166.16
473.57	3266.51
473.77	3463.12
473.98	3246.03
474.18	3012.56
474.38	4122.56
474.58	3174.35
474.79	2906.07
474.99	3143.63
475.19	3491.79
475.39	3106.77
475.60	3160.02
475.80	3033.04
476.00	3252.17
476.20	3231.69
476.41	3168.21
476.61	3117.01
476.81	3598.28
477.01	3131.34
477.21	3340.24
477.42	3174.35
477.62	3080.14
477.82	3391.44
478.02	3076.05
478.23	3098.58
478.43	3180.50
478.63	3110.86
478.83	3041.23
479.03	3166.16
479.24	3563.47
479.44	3676.10
479.64	2963.41
479.84	2854.87
480.04	3125.20
480.25	3520.46
480.45	2979.79
480.65	3020.75
480.85	3581.90
481.06	3114.96
481.26	3162.06
481.46	3037.14
481.66	3373.00
481.86	3090.38
482.06	3291.09
482.27	3057.62
482.47	3188.69
482.67	3272.65
482.87	3114.96
483.07	3139.54
483.28	3074.00
483.48	3016.66
483.68	3059.67
483.88	2955.22
484.08	2795.48
484.29	3016.66
484.49	3114.96
484.69	2955.22
484.89	3581.90
485.09	3481.55
485.29	3071.95
485.50	3270.61
485.70	3172.30
485.90	3573.71
486.10	3186.64
486.30	3016.66
486.50	3512.27
486.71	3368.91
486.91	3114.96
487.11	3104.72
487.31	2975.70
487.51	3446.73
487.71	2971.60
487.91	2899.92
488.12	3112.91
488.32	2805.72
488.52	2985.94
488.72	2869.20
488.92	3317.71
489.12	3473.36
489.32	3184.59
489.53	3065.81
489.73	3043.28
489.93	3635.14
490.13	3061.71
490.33	2912.21
490.53	3295.18
490.73	3459.02
490.94	2926.55
491.14	3194.83
491.34	3375.05
491.54	3403.72
491.74	4040.64
491.94	4528.06
492.14	5156.79
492.34	5240.75
492.54	4827.06
492.75	4147.14
492.95	4343.74
493.15	4102.08
493.35	3749.83
493.55	3827.65
493.75	3704.78
493.95	3815.37
494.15	3346.38
494.35	3100.62
494.56	3403.72
494.76	3164.11
494.96	3272.65
495.16	2996.18
495.36	3270.61
495.56	3342.28
495.76	3151.82
495.96	3024.85
496.16	3129.30
496.36	3669.96
496.56	3033.04
496.77	3147.73
496.97	3274.70
497.17	3518.41
497.37	2869.20
497.57	3190.74
497.77	3383.24
497.97	3024.85
498.17	2990.03
498.37	3117.01
498.57	3368.91
498.77	3190.74
498.97	3086.29
499.17	3467.21
499.38	3229.65
499.58	3487.69
499.78	3194.83
499.98	3155.92
500.18	3243.98
500.38	3086.29
500.58	3213.26
500.78	3592.14
500.98	6186.91
501.18	8136.58
501.38	9676.65
501.58	10680.16
501.78	10776.41
501.98	8990.58
502.18	7516.05
502.38	6434.72
502.58	6367.13
502.78	5646.25
502.98	5441.45
503.18	5216.18
503.38	4847.54
503.59	4280.25
503.79	4024.26
503.99	3708.87
504.19	3882.95
504.39	3942.34
504.59	3641.29
504.79	3610.57
504.99	3915.72
505.19	3655.62
505.39	3246.03
505.59	3590.09
505.79	3624.90
505.99	3471.31
506.19	3137.49
506.39	3377.10
506.59	3266.51
506.79	3254.22
506.99	3252.17
507.19	3065.81
507.39	3397.58
507.59	3024.85
507.79	3067.86
507.99	2955.22
508.19	3256.27
508.39	3168.21
508.59	3065.81
508.79	3237.84
508.99	3700.68
509.19	3106.77
509.39	3041.23
509.59	3000.27
509.79	3166.16
509.99	3289.04
510.19	3205.07
510.39	3196.88
510.59	3280.85
510.79	3258.32
510.99	2901.97
511.19	3037.14
511.39	3534.79
511.59	3532.75
511.79	3207.12
511.99	3069.91
512.19	3659.72
512.38	3180.50
512.58	3028.95
512.78	2987.99
512.98	3502.03
513.18	3602.38
513.38	2992.08
513.58	3153.87
513.78	3262.41
513.98	3229.65
514.18	3157.97
514.38	3065.81
514.58	3309.52
514.78	3168.21
514.98	3049.43
515.18	3053.52
515.38	3069.91
515.58	3635.14
515.78	3129.30
515.98	3074.00
516.18	3438.54
516.38	3246.03
516.57	3002.32
516.77	3092.43
516.97	3291.09
517.17	3176.40
517.37	2818.00
517.57	3125.20
517.77	3260.37
517.97	3082.19
518.17	3074.00
518.37	2942.93
518.57	3192.78
518.77	3205.07
518.97	3112.91
519.16	3065.81
519.36	3536.84
519.56	3141.58
519.76	3000.27
519.96	3018.71
520.16	3581.90
520.36	3069.91
520.56	3176.40
520.76	3014.61
520.96	3155.92
521.16	3508.17
521.35	3260.37
521.55	3278.80
521.75	3311.57
521.95	3176.40
522.15	3008.47
522.35	2908.12
522.55	3123.15
522.75	3428.30
522.95	2932.69
523.14	2901.97
523.34	3344.33
523.54	3164.11
523.74	3227.60
523.94	3098.58
524.14	3035.09
524.34	3297.23
524.54	3213.26
524.73	3018.71
524.93	3438.54
525.13	3323.85
525.33	2949.08
525.53	3213.26
525.73	3461.07
525.93	3299.28
526.13	3035.09
526.32	3004.37
526.52	3448.78
526.72	3452.88
526.92	3180.50
527.12	3008.47
527.32	2938.84
527.52	3373.00
527.71	3071.95
527.91	3071.95
528.11	3297.23
528.31	3250.13
528.51	3035.09
528.71	3180.50
528.90	3342.28
529.10	3540.94
529.30	3100.62
529.50	2822.10
529.70	3366.86
529.90	3192.78
530.09	3074.00
530.29	2951.12
530.49	3176.40
530.69	3889.09
530.89	3182.54
531.09	3203.02
531.28	3127.25
531.48	3514.31
531.68	3018.71
531.88	3121.10
532.08	3489.74
532.28	3256.27
532.47	3186.64
532.67	3119.06
532.87	3456.97
533.07	3088.34
533.27	3102.67
533.46	3119.06
533.66	3370.96
533.86	3272.65
534.06	3121.10
534.26	3121.10
534.45	3225.55
534.65	3401.68
534.85	3139.54
535.05	3024.85
535.25	3434.44
535.44	2959.31
535.64	3176.40
535.84	3063.76
536.04	3194.83
536.24	3305.42
536.43	2985.94
536.63	3088.34
536.83	3241.93
537.03	3286.99
537.22	2848.72
537.42	2934.74
537.62	3360.72
537.82	3131.34
538.02	3188.69
538.21	3139.54
538.41	3837.89
538.61	3319.76
538.81	3049.43
539.00	3221.45
539.20	2961.36
539.40	3143.63
539.60	2985.94
539.79	3282.89
539.99	3295.18
540.19	3188.69
540.39	3006.42
540.58	3106.77
540.78	3524.55
540.98	3336.14
541.18	3280.85
541.37	3094.48
541.57	3350.48
541.77	3409.87
541.97	2955.22
542.16	2967.51
542.36	3258.32
542.56	3192.78
542.76	3262.41
542.95	3090.38
543.15	3379.15
543.35	3375.05
543.54	3041.23
543.74	2985.94
543.94	3528.65
544.14	3108.82
544.33	3123.15
544.53	3049.43
544.73	3235.79
544.93	3225.55
545.12	3076.05
545.32	2967.51
545.52	3162.06
545.71	3188.69
545.91	3045.33
546.11	3037.14
546.30	2987.99
546.50	3299.28
546.70	3184.59
546.90	3164.11
547.09	2906.07
547.29	3217.36
547.49	3209.17
547.68	3074.00
547.88	3123.15
548.08	3368.91
548.27	3299.28
548.47	3002.32
548.67	3246.03
548.87	3280.85
549.06	3047.38
549.26	2969.55
549.46	3368.91
549.65	3106.77
549.85	3065.81
550.05	3053.52
550.24	3008.47
550.44	3262.41
550.64	3137.49
550.83	3129.30
551.03	3581.90
551.23	3448.78
551.42	3094.48
551.62	3110.86
551.82	3262.41
552.01	3237.84
552.21	3352.52
552.41	3184.59
552.60	3518.41
552.80	3352.52
553.00	3014.61
553.19	3155.92
553.39	3585.99
553.59	3016.66
553.78	3229.65
553.98	3090.38
554.17	3022.80
554.37	3344.33
554.57	3102.67
554.76	2901.97
554.96	3192.78
555.16	3258.32
555.35	3119.06
555.55	3241.93
555.75	3293.13
555.94	3465.16
556.14	2904.02
556.33	3145.68
556.53	3213.26
556.73	3200.98
556.92	3033.04
557.12	3014.61
557.32	3645.38
557.51	3536.84
557.71	3127.25
557.90	3248.08
558.10	3565.51
558.30	3250.13
558.49	3143.63
558.69	3084.24
558.88	3373.00
559.08	3211.22
559.28	3069.91
559.47	3110.86
559.67	3438.54
559.86	3786.69
560.06	3039.19
560.26	3098.58
560.45	3364.81
560.65	3147.73
560.84	3397.58
561.04	2904.02
561.24	3377.10
561.43	3139.54
561.63	3348.43
561.82	3125.20
562.02	3313.61
562.22	3049.43
562.41	2930.64
562.61	3041.23
562.80	3049.43
563.00	3739.59
563.19	3178.45
563.39	3182.54
563.59	3278.80
563.78	3076.05
563.98	2914.26
564.17	3024.85
564.37	2979.79
564.56	3262.41
564.76	2971.60
564.96	3215.31
565.15	3387.34
565.35	3717.06
565.54	3084.24
565.74	3112.91
565.93	3352.52
566.13	3205.07
566.32	3078.10
566.52	3164.11
566.71	3319.76
566.91	3442.64
567.11	3168.21
567.30	2983.89
567.50	3332.05
567.69	3313.61
567.89	3061.71
568.08	3014.61
568.28	3272.65
568.47	3049.43
568.67	3084.24
568.86	3098.58
569.06	3438.54
569.25	3227.60
569.45	2908.12
569.64	3123.15
569.84	3131.34
570.04	3291.09
570.23	3092.43
570.43	3080.14
570.62	3375.05
570.82	3549.13
571.01	2994.13
571.21	2987.99
571.40	3096.53
571.60	3401.68
571.79	3145.68
571.99	3059.67
572.18	3071.95
572.38	3368.91
572.57	3049.43
572.77	3149.78
572.96	3798.98
573.16	3336.14
573.35	3096.53
573.55	3207.12
573.74	3286.99
573.94	3254.22
574.13	3086.29
574.33	3215.31
574.52	3520.46
574.71	3305.42
574.91	3098.58
575.10	2908.12
575.30	3166.16
575.49	3157.97
575.69	3016.66
575.88	3051.47
576.08	3286.99
576.27	3463.12
576.47	3010.51
576.66	3272.65
576.86	3510.22
577.05	3286.99
577.25	3127.25
577.44	3223.50
577.64	3305.42
577.83	3479.50
578.02	3110.86
578.22	3227.60
578.41	3645.38
578.61	3188.69
578.80	2922.45
579.00	3102.67
579.19	3286.99
579.39	3377.10
579.58	3076.05
579.77	3164.11
579.97	3538.89
580.16	3487.69
580.36	3379.15
580.55	3071.95
580.75	3348.43
580.94	3274.70
581.13	3260.37
581.33	3334.09
581.52	3233.74
581.72	3696.58
581.91	3217.36
582.11	3067.86
582.30	3461.07
582.49	3389.39
582.69	3323.85
582.88	3196.88
583.08	3450.83
583.27	3493.83
583.47	3221.45
583.66	3055.57
583.85	3160.02
584.05	3299.28
584.24	3209.17
584.44	3096.53
584.63	3393.48
584.82	3520.46
585.02	3405.77
585.21	3266.51
585.41	3413.96
585.60	3340.24
585.79	3307.47
585.99	3405.77
586.18	3274.70
586.37	4190.14
586.57	6227.87
586.76	17575.67
586.96	37037.51
587.15	50091.27
587.34	58516.61
587.54	62530.63
587.73	55727.28
587.93	40443.29
588.12	30887.46
588.31	25405.05
588.51	22353.58
588.70	20694.72
588.89	18269.93
589.09	15732.50
589.28	13760.30
589.47	10782.56
589.67	8228.74
589.86	6274.98
590.06	5081.01
590.25	4425.66
590.44	3811.27
590.64	3510.22
590.83	3631.05
591.02	3540.94
591.22	3114.96
591.41	3168.21
591.60	3229.65
591.80	3805.13
591.99	2883.54
592.18	3143.63
592.38	3469.26
592.57	3139.54
592.76	3086.29
592.96	3160.02
593.15	3200.98
593.34	3477.45
593.54	3098.58
593.73	3278.80
593.92	3360.72
594.12	3377.10
594.31	3184.59
594.50	3315.66
594.70	3295.18
594.89	3827.65
595.08	2977.75
595.28	3295.18
595.47	3928.00
595.66	3508.17
595.86	2957.27
596.05	2955.22
596.24	3157.97
596.43	3624.90
596.63	3157.97
596.82	3184.59
597.01	3426.25
597.21	3610.57
597.40	3055.57
597.59	3147.73
597.79	3319.76
597.98	3387.34
598.17	3147.73
598.36	3112.91
598.56	3416.01
598.75	3250.13
598.94	3198.93
599.14	3162.06
599.33	3139.54
599.52	3471.31
599.71	3123.15
599.91	2981.84
600.10	3358.67
600.29	3370.96
600.48	3205.07
600.68	3205.07
600.87	3299.28
601.06	3198.93
601.26	3188.69
601.45	3209.17
601.64	3250.13
601.83	3659.72
602.03	2967.51
602.22	2965.46
602.41	3506.12
602.60	3862.47
602.80	3166.16
602.99	3237.84
603.18	3194.83
603.37	3241.93
603.57	2912.21
603.76	3041.23
603.95	3506.12
604.14	3147.73
604.34	3033.04
604.53	3094.48
604.72	3338.19
604.91	3436.49
605.10	3033.04
605.30	2881.49
605.49	3786.69
605.68	3401.68
605.87	3067.86
606.07	2969.55
606.26	3323.85
606.45	3426.25
606.64	3121.10
606.84	2940.88
607.03	3170.26
607.22	3487.69
607.41	3125.20
607.60	3010.51
607.80	3434.44
607.99	3213.26
608.18	3125.20
608.37	3147.73
608.56	3098.58
608.76	3469.26
608.95	3264.46
609.14	3153.87
609.33	3456.97
609.52	3524.55
609.72	3180.50
609.91	3233.74
610.10	3409.87
610.29	3641.29
610.48	3170.26
610.68	3178.45
610.87	3223.50
611.06	3510.22
611.25	3006.42
611.44	3221.45
611.63	3174.35
611.83	3553.23
612.02	2891.73
612.21	3243.98
612.40	2955.22
612.59	3076.05
612.79	3057.62
612.98	3119.06
613.17	3635.14
613.36	3241.93
613.55	3246.03
613.74	3160.02
613.93	3422.16
614.13	3452.88
614.32	3297.23
614.51	3119.06
614.70	3309.52
614.89	3164.11
615.08	3088.34
615.28	3485.64
615.47	3106.77
615.66	3438.54
615.85	3057.62
616.04	3219.41
616.23	3221.45
616.42	3297.23
616.62	3092.43
616.81	3131.34
617.00	3289.04
617.19	3366.86
617.38	3067.86
617.57	3174.35
617.76	3442.64
617.95	3418.06
618.15	3286.99
618.34	3293.13
618.53	2987.99
618.72	3418.06
618.91	3276.75
619.10	3164.11
619.29	3309.52
619.48	3254.22
619.68	2965.46
619.87	3024.85
620.06	3000.27
620.25	3432.40
620.44	2985.94
620.63	3006.42
620.82	3299.28
621.01	3430.35
621.20	3094.48
621.39	3151.82
621.59	3393.48
621.78	3237.84
621.97	3061.71
622.16	3200.98
622.35	3319.76
622.54	3487.69
622.73	3203.02
622.92	2809.81
623.11	3497.93
623.30	3229.65
623.49	3131.34
623.68	3020.75
623.88	3571.66
624.07	3084.24
624.26	2985.94
624.45	3016.66
624.64	3188.69
624.83	3364.81
625.02	3135.44
625.21	3108.82
625.40	3248.08
625.59	3540.94
625.78	3170.26
625.97	3172.30
626.16	3532.75
626.35	3516.36
626.54	3067.86
626.74	3395.53
626.93	3239.89
627.12	3266.51
627.31	3176.40
627.50	3155.92
627.69	3467.21
627.88	3102.67
628.07	2934.74
628.26	2959.31
628.45	3164.11
628.64	3035.09
628.83	3082.19
629.02	2971.60
629.21	3413.96
629.40	3327.95
629.59	2949.08
629.78	3018.71
629.97	3309.52
630.16	3373.00
630.35	3057.62
630.54	3157.97
630.73	3184.59
630.92	3223.50
631.11	2957.27
631.30	3098.58
631.49	3446.73
631.68	3309.52
631.87	3049.43
632.06	2934.74
632.25	3684.30
632.44	3360.72
632.63	3196.88
632.82	3123.15
633.01	3166.16
633.20	3362.76
633.39	3096.53
633.58	2846.68
633.77	3377.10
633.96	3420.11
634.15	3248.08
634.34	3188.69
634.53	3395.53
634.72	3205.07
634.91	2854.87
635.10	3108.82
635.29	3534.79
635.48	3321.81
635.67	3039.19
635.86	2807.77
636.05	3549.13
636.24	3278.80
636.43	3045.33
636.62	3117.01
636.81	2881.49
637.00	3344.33
637.19	3078.10
637.38	3057.62
637.57	3246.03
637.76	3233.74
637.95	3243.98
638.14	3225.55
638.33	3358.67
638.52	3327.95
638.71	2889.68
638.89	2942.93
639.08	3844.04
639.27	3598.28
639.46	3356.62
639.65	3688.39
639.84	3925.96
640.03	4143.04
640.22	3569.61
640.41	3540.94
640.60	3358.67
640.79	3514.31
640.98	3391.44
641.17	3389.39
641.36	3446.73
641.55	3477.45
641.74	2990.03
641.92	3008.47
642.11	3172.30
642.30	3250.13
642.49	3030.99
642.68	3125.20
642.87	3381.20
643.06	3413.96
643.25	2928.60
643.44	2981.84
643.63	3258.32
643.82	3409.87
644.00	2996.18
644.19	3164.11
644.38	3018.71
644.57	3399.63
644.76	3020.75
644.95	3147.73
645.14	3385.29
645.33	3268.56
645.52	3241.93
645.71	3004.37
645.89	3074.00
646.08	3270.61
646.27	3174.35
646.46	3272.65
646.65	3059.67
646.84	3254.22
647.03	2922.45
647.22	3256.27
647.40	3360.72
647.59	3243.98
647.78	2850.77
647.97	3094.48
648.16	3057.62
648.35	3524.55
648.54	3397.58
648.73	3121.10
648.91	3450.83
649.10	3362.76
649.29	2955.22
649.48	3010.51
649.67	3299.28
649.86	3305.42
650.05	3127.25
650.23	3295.18
650.42	3133.39
650.61	3577.80
650.80	3315.66
650.99	3397.58
651.18	3477.45
651.36	3508.17
651.55	3051.47
651.74	3262.41
651.93	3207.12
652.12	3338.19
652.31	3147.73
652.49	3090.38
652.68	3274.70
652.87	3522.51
653.06	3209.17
653.25	3385.29
653.44	3225.55
653.62	3608.52
653.81	3131.34
654.00	3096.53
654.19	3362.76
654.38	3743.69
654.56	3114.96
654.75	2983.89
654.94	3418.06
655.13	3284.94
655.32	2961.36
655.51	3166.16
655.69	3141.58
655.88	3368.91
656.07	2834.39
656.26	3069.91
656.45	3063.76
656.63	3280.85
656.82	3041.23
657.01	3370.96
657.20	3221.45
657.38	3581.90
657.57	3080.14
657.76	2928.60
657.95	3473.36
658.14	3149.78
658.32	3174.35
658.51	2944.98
658.70	3260.37
658.89	3426.25
659.08	3082.19
659.26	3278.80
659.45	3082.19
659.64	3426.25
659.83	3053.52
660.01	3368.91
660.20	3323.85
660.39	3629.00
660.58	2715.61
660.76	3221.45
660.95	2944.98
661.14	3260.37
661.33	2928.60
661.51	3074.00
661.70	3186.64
661.89	3321.81
662.08	3092.43
662.26	2992.08
662.45	3172.30
662.64	3545.03
662.83	3139.54
663.01	2955.22
663.20	3205.07
663.39	3602.38
663.58	3102.67
663.76	3074.00
663.95	3401.68
664.14	3020.75
664.32	3106.77
664.51	2922.45
664.70	2906.07
664.89	3356.62
665.07	2947.03
665.26	3207.12
665.45	2920.40
665.64	3450.83
665.82	3067.86
666.01	3182.54
666.20	3004.37
666.38	3450.83
666.57	3395.53
666.76	5435.31
666.95	12875.58
667.13	20365.00
667.32	24639.11
667.51	27651.67
667.69	28687.95
667.88	23942.80
668.07	17379.06
668.25	14675.74
668.44	12728.13
668.63	11169.62
668.81	9709.42
669.00	8142.72
669.19	7753.61
669.38	6748.06
669.56	5644.20
669.75	4943.80
669.94	4411.32
670.12	3839.94
670.31	3459.02
670.50	3450.83
670.68	3448.78
670.87	3356.62
671.06	3000.27
671.24	3231.69
671.43	3618.76
671.62	3323.85
671.80	3131.34
671.99	3196.88
672.18	3377.10
672.36	3473.36
672.55	3237.84
672.74	3131.34
672.92	3327.95
673.11	3346.38
673.29	2869.20
673.48	3270.61
673.67	3223.50
673.85	3422.16
674.04	2969.55
674.23	3131.34
674.41	3645.38
674.60	3010.51
674.79	2895.83
674.97	2963.41
675.16	3350.48
675.34	3432.40
675.53	3098.58
675.72	3117.01
675.90	3751.88
676.09	3157.97
676.28	3182.54
676.46	2967.51
676.65	3434.44
676.83	3082.19
677.02	3125.20
677.21	3162.06
677.39	3301.33
677.58	3215.31
677.77	3043.28
677.95	2863.06
678.14	3176.40
678.32	3149.78
678.51	3071.95
678.70	3446.73
678.88	3098.58
679.07	3291.09
679.25	2998.23
679.44	3121.10
679.63	2987.99
679.81	3237.84
680.00	3241.93
680.18	3157.97
680.37	3610.57
680.55	3313.61
680.74	2953.17
680.93	2922.45
681.11	3293.13
681.30	3284.94
681.48	3049.43
681.67	3082.19
681.85	3284.94
682.04	3047.38
682.23	3160.02
682.41	3203.02
682.60	3186.64
682.78	3151.82
682.97	3024.85
683.15	3106.77
683.34	3360.72
683.53	3585.99
683.71	2914.26
683.90	3170.26
684.08	3594.19
684.27	3260.37
684.45	3133.39
684.64	3268.56
684.82	3246.03
685.01	3497.93
685.19	3074.00
685.38	3370.96
685.57	3262.41
685.75	3137.49
685.94	3022.80
686.12	2916.31
686.31	3241.93
686.49	3555.27
686.68	2795.48
686.86	3164.11
687.05	3135.44
687.23	3624.90
687.42	3059.67
687.60	2949.08
687.79	3510.22
687.97	3532.75
688.16	3160.02
688.34	3260.37
688.53	2953.17
688.71	3358.67
688.90	3364.81
689.08	3098.58
689.27	3000.27
689.45	3514.31
689.64	3217.36
689.82	3174.35
690.01	3340.24
690.19	3307.47
690.38	3080.14
690.56	3180.50
690.75	3065.81
690.93	3139.54
691.12	3071.95
691.30	3211.22
691.49	3162.06
691.67	3166.16
691.86	3424.20
692.04	3110.86
692.23	3227.60
692.41	3309.52
692.60	3483.59
692.78	3239.89
692.97	3278.80
693.15	3370.96
693.34	3289.04
693.52	3346.38
693.71	3149.78
693.89	3129.30
694.08	2877.40
694.26	3106.77
694.44	3489.74
694.63	3426.25
694.81	2942.93
695.00	3088.34
695.18	3463.12
695.37	3874.76
695.55	3196.88
695.74	3127.25
695.92	3172.30
696.10	3491.79
696.29	2987.99
696.47	2983.89
696.66	3078.10
696.84	3084.24
697.03	3184.59
697.21	3356.62
697.40	4614.07
697.58	3510.22
697.76	3045.33
697.95	3049.43
698.13	3055.57
698.32	3184.59
698.50	3112.91
698.68	3172.30
698.87	3385.29
699.05	3540.94
699.24	3067.86
699.42	3092.43
699.61	3338.19
699.79	3323.85
699.97	3151.82
700.16	2918.36
700.34	3020.75
700.53	3411.92
700.71	3260.37
700.89	3280.85
701.08	3198.93
701.26	3256.27
701.45	3381.20
701.63	3051.47
701.81	3147.73
702.00	3143.63
702.18	3149.78
702.37	3041.23
702.55	3559.37
702.73	3313.61
702.92	3108.82
703.10	3436.49
703.28	3473.36
703.47	3129.30
703.65	3344.33
703.84	3266.51
704.02	3127.25
704.20	3590.09
704.39	3035.09
704.57	3114.96
704.75	3483.59
704.94	3375.05
705.12	3266.51
705.30	4003.78
705.49	8501.12
705.67	16865.02
705.86	23334.56
706.04	26744.42
706.22	29353.54
706.41	28173.91
706.59	21300.92
706.77	16668.42
706.96	14257.96
707.14	13121.34
707.32	11114.33
707.51	9711.47
707.69	7810.95
707.87	6557.60
708.06	5359.53
708.24	4489.15
708.42	4147.14
708.61	4204.48
708.79	3205.07
708.97	3239.89
709.16	3395.53
709.34	3340.24
709.52	3059.67
709.71	3123.15
709.89	3383.24
710.07	3106.77
710.26	3020.75
710.44	3184.59
710.62	3436.49
710.80	3330.00
710.99	3248.08
711.17	3241.93
711.35	3184.59
711.54	3123.15
711.72	3270.61
711.90	3176.40
712.09	3307.47
712.27	3141.58
712.45	3174.35
712.63	3067.86
712.82	3309.52
713.00	3262.41
713.18	3295.18
713.37	3297.23
713.55	3432.40
713.73	3319.76
713.91	3280.85
714.10	3071.95
714.28	3237.84
714.46	3383.24
714.65	3184.59
714.83	3110.86
715.01	3289.04
715.19	3280.85
715.38	3024.85
715.56	3293.13
715.74	3213.26
715.92	3090.38
716.11	3346.38
716.29	2883.54
716.47	3278.80
716.65	3227.60
716.84	2961.36
717.02	3157.97
717.20	3020.75
717.38	3131.34
717.57	3252.17
717.75	3139.54
717.93	3135.44
718.11	3309.52
718.30	2985.94
718.48	3090.38
718.66	3534.79
718.84	3442.64
719.03	3076.05
719.21	2901.97
719.39	3618.76
719.57	3346.38
719.75	3207.12
719.94	3084.24
720.12	3205.07
720.30	3299.28
720.48	3198.93
720.67	3065.81
720.85	3094.48
721.03	3147.73
721.21	3041.23
721.39	3162.06
721.58	3405.77
721.76	3276.75
721.94	3160.02
722.12	3162.06
722.30	3622.86
722.49	3145.68
722.67	2992.08
722.85	3149.78
723.03	2971.60
723.21	3129.30
723.40	3131.34
723.58	3229.65
723.76	3450.83
723.94	3645.38
724.12	3094.48
724.30	3362.76
724.49	3395.53
724.67	3051.47
724.85	3092.43
725.03	2951.12
725.21	3401.68
725.40	3647.43
725.58	3123.15
725.76	3346.38
725.94	3317.71
726.12	3061.71
726.30	3155.92
726.49	3094.48
726.67	3260.37
726.85	3409.87
727.03	3901.38
727.21	5494.70
727.39	7110.55
727.57	7759.75
727.76	8347.52
727.94	8351.62
728.12	7225.23
728.30	5955.49
728.48	5525.42
728.66	5111.73
728.84	4757.43
729.03	4140.99
729.21	3774.41
729.39	3680.20
729.57	3413.96
729.75	3373.00
729.93	3459.02
730.11	3098.58
730.30	3190.74
730.48	3164.11
730.66	3211.22
730.84	3211.22
731.02	3338.19
731.20	3266.51
731.38	3117.01
731.56	3016.66
731.74	3012.56
731.93	3411.92
732.11	3213.26
732.29	3059.67
732.47	3436.49
732.65	3207.12
732.83	3284.94
733.01	3231.69
733.19	3145.68
733.37	3434.44
733.56	3100.62
733.74	2947.03
733.92	3526.60
734.10	3166.16
734.28	3254.22
734.46	2969.55
734.64	3278.80
734.82	3280.85
735.00	3117.01
735.18	2944.98
735.36	3248.08
735.54	3268.56
735.73	3049.43
735.91	3254.22
736.09	3594.19
736.27	3303.37
736.45	3108.82
736.63	2803.67
736.81	3176.40
736.99	3542.99
737.17	3319.76
737.35	3041.23
737.53	3327.95
737.71	3215.31
737.89	3348.43
738.07	3098.58
738.25	3139.54
738.43	2951.12
738.61	3106.77
738.80	2910.16
738.98	3176.40
739.16	3145.68
739.34	3033.04
739.52	3459.02
739.70	3194.83
739.88	3346.38
740.06	3231.69
740.24	2803.67
740.42	3508.17
740.60	2957.27
740.78	3049.43
740.96	2844.63
741.14	3311.57
741.32	3303.37
741.50	2924.50
741.68	3297.23
741.86	3559.37
742.04	2967.51
742.22	3045.33
742.40	3057.62
742.58	3362.76
742.76	3090.38
742.94	3354.57
743.12	2953.17
743.30	3221.45
743.48	3393.48
743.66	3020.75
743.84	3106.77
744.02	3231.69
744.20	3239.89
744.38	2944.98
744.56	3098.58
744.74	3590.09
744.92	3487.69
745.10	3319.76
745.28	3149.78
745.46	3643.34
745.64	3186.64
745.82	3157.97
746.00	3119.06
746.18	3407.82
746.36	3041.23
746.54	3143.63
746.72	3147.73
746.90	3114.96
747.08	3581.90
747.26	3074.00
747.44	3203.02
747.62	3426.25
747.80	3364.81
747.98	3176.40
748.15	2998.23
748.33	3643.34
748.51	3260.37
748.69	3104.72
748.87	2965.46
749.05	3250.13
749.23	3272.65
749.41	3071.95
749.59	3098.58
749.77	3477.45
749.95	3172.30
750.13	3112.91
750.31	3225.55
750.49	3256.27
750.67	3440.59
750.85	3227.60
751.03	3160.02
751.20	3667.91
751.38	3309.52
751.56	3094.48
751.74	3117.01
751.92	3248.08
752.10	3033.04
752.28	3246.03
752.46	3094.48
752.64	3274.70
752.82	3217.36
753.00	3278.80
753.18	3074.00
753.35	3221.45
753.53	3209.17
753.71	3065.81
753.89	3041.23
754.07	3381.20
754.25	3512.27
754.43	3102.67
754.61	2944.98
754.79	3405.77
754.97	3237.84
755.14	3311.57
755.32	3004.37
755.50	3303.37
755.68	3293.13
755.86	2987.99
756.04	2981.84
756.22	2893.78
756.40	3368.91
756.57	3356.62
756.75	3014.61
756.93	3495.88
757.11	3356.62
757.29	2940.88
757.47	2953.17
757.65	2908.12
757.82	2846.68
758.00	2959.31
758.18	3035.09
758.36	3090.38
758.54	3657.67
758.72	2920.40
758.90	3299.28
759.07	3297.23
759.25	3084.24
759.43	3168.21
759.61	2893.78
759.79	4485.05
759.97	3420.11
760.15	3069.91
760.32	3069.91
760.50	3330.00
760.68	3661.77
760.86	2992.08
761.04	3370.96
761.22	3444.68
761.39	3237.84
761.57	3225.55
761.75	3065.81
761.93	3383.24
762.11	3280.85
762.28	3172.30
762.46	3010.51
762.64	3442.64
762.82	3065.81
763.00	2961.36
763.18	3332.05
763.35	2959.31
763.53	3377.10
763.71	3192.78
763.89	3074.00
764.07	3286.99
764.24	3237.84
764.42	3172.30
764.60	3147.73
764.78	3313.61
764.96	3477.45
765.13	3219.41
765.31	2977.75
765.49	3413.96
765.67	3110.86
765.84	3039.19
766.02	2983.89
766.20	3004.37
766.38	3362.76
766.56	3170.26
766.73	3164.11
766.91	3268.56
767.09	3307.47
767.27	3266.51
767.44	3037.14
767.62	3368.91
767.80	3295.18
767.98	3028.95
768.15	3114.96
768.33	3446.73
768.51	3522.51
768.69	3217.36
768.87	3100.62
769.04	3325.90
769.22	3878.85
769.40	3209.17
769.58	3252.17
769.75	3354.57
769.93	3456.97
770.11	3106.77
770.28	3012.56
770.46	3444.68
770.64	3276.75
770.82	3143.63
770.99	3063.76
771.17	3383.24
771.35	3254.22
771.53	3104.72
771.70	3135.44
771.88	3438.54
772.06	3209.17
772.23	3080.14
772.41	3192.78
772.59	3215.31
772.77	3065.81
772.94	3108.82
773.12	3088.34
773.30	3270.61
773.47	3313.61
773.65	2930.64
773.83	3311.57
774.01	3289.04
774.18	2936.79
774.36	3147.73
774.54	2940.88
774.71	3381.20
774.89	2897.88
775.07	2934.74
775.24	3028.95
775.42	3209.17
775.60	3669.96
775.78	3039.19
775.95	2897.88
776.13	3033.04
776.31	2918.36
776.48	3338.19
776.66	3286.99
776.84	3215.31
777.01	3106.77
777.19	3033.04
777.37	2961.36
777.54	3375.05
777.72	3688.39
777.90	3084.24
778.07	3071.95
778.25	3897.28
778.43	3499.98
778.60	3020.75
778.78	3131.34
778.96	3463.12
779.13	3076.05
779.31	3164.11
779.49	3151.82
779.66	3254.22
779.84	3241.93
780.01	3055.57
780.19	3028.95
780.37	3469.26
780.54	3330.00
780.72	2940.88
780.90	3061.71
781.07	3237.84
781.25	3133.39
781.43	3264.46
781.60	3014.61
781.78	3536.84
781.95	3342.28
782.13	3049.43
782.31	3051.47
782.48	2949.08
782.66	3311.57
782.83	3309.52
783.01	3239.89
783.19	3473.36
783.36	3233.74
783.54	3010.51
783.72	3200.98
783.89	3147.73
784.07	3377.10
784.24	3162.06
784.42	3215.31
784.60	3303.37
784.77	3297.23
784.95	2889.68
785.12	2994.13
785.30	3291.09
785.47	3117.01
785.65	3012.56
785.83	3166.16
786.00	3207.12
786.18	3227.60
786.35	2965.46
786.53	2987.99
786.71	3518.41
786.88	3362.76
787.06	3168.21
787.23	3160.02
787.41	3014.61
787.58	3258.32
787.76	2971.60
787.94	3209.17
788.11	3295.18
788.29	3067.86
788.46	3084.24
788.64	2893.78
788.81	3223.50
788.99	3117.01
789.16	3090.38
789.34	3192.78
789.52	3063.76
789.69	3164.11
789.87	2797.53
790.04	3071.95
790.22	3186.64
790.39	3616.71
790.57	2961.36
790.74	3024.85
790.92	3436.49
791.09	2967.51
791.27	3160.02
791.44	3213.26
791.62	3172.30
791.79	3416.01
791.97	3129.30
792.15	3377.10
792.32	3387.34
792.50	3434.44
792.67	3305.42
792.85	3299.28
793.02	3311.57
793.20	3223.50
793.37	3051.47
793.55	3049.43
793.72	3028.95
793.90	3389.39
794.07	3106.77
794.25	3016.66
794.42	3274.70
794.60	3198.93
794.77	3092.43
794.95	3198.93
795.12	3338.19
795.30	3241.93
795.47	2865.11
795.65	3418.06
795.82	3321.81
796.00	3174.35
796.17	3258.32
796.34	2961.36
796.52	3299.28
796.69	3391.44
796.87	3211.22
797.04	3207.12
797.22	3471.31
797.39	3336.14
797.57	3262.41
797.74	3209.17
797.92	3379.15
798.09	3188.69
798.27	3418.06
798.44	3067.86
798.62	3139.54
798.79	3227.60
798.96	3196.88
799.14	3088.34
799.31	3827.65
799.49	3135.44
799.66	3055.57
799.84	3082.19
800.01	3037.14
800.19	3340.24
800.36	2840.53
800.53	3125.20
800.71	3383.24
800.88	3581.90
801.06	2961.36
801.23	3016.66
801.41	3307.47
801.58	3184.59
801.75	3051.47
801.93	3168.21
802.10	3422.16
802.28	3119.06
802.45	3080.14
802.63	3172.30
802.80	3590.09
802.97	3239.89
803.15	3162.06
803.32	3065.81
803.50	3174.35
803.67	3074.00
803.84	3016.66
804.02	3141.58
804.19	3235.79
804.37	2824.15
804.54	2875.35
804.71	3067.86
804.89	3270.61
805.06	3098.58
805.24	3045.33
805.41	2942.93
805.58	3151.82
805.76	3770.31
805.93	3078.10
806.10	3186.64
806.28	3397.58
806.45	3348.43
806.63	3194.83
806.80	3215.31
806.97	3401.68
807.15	3346.38
807.32	3188.69
807.49	3131.34
807.67	2998.23
807.84	3317.71
808.01	2914.26
808.19	3284.94
808.36	3694.54
808.54	3147.73
808.71	3078.10
808.88	3114.96
809.06	3540.94
809.23	3542.99
809.40	3157.97
809.58	3039.19
809.75	3258.32
809.92	2975.70
810.10	3379.15
810.27	3084.24
810.44	3270.61
810.62	3332.05
810.79	3106.77
810.96	3160.02
811.14	3186.64
811.31	3325.90
811.48	3319.76
811.66	3123.15
811.83	3420.11
812.00	3459.02
812.18	3168.21
812.35	3409.87
812.52	3237.84
812.69	3131.34
812.87	3141.58
813.04	3055.57
813.21	3231.69
813.39	3024.85
813.56	3037.14
813.73	3362.76
813.91	3016.66
814.08	3291.09
814.25	3059.67
814.42	2969.55
814.60	3186.64
814.77	3254.22
814.94	3000.27
815.12	3100.62
815.29	3545.03
815.46	3174.35
815.63	3147.73
815.81	3043.28
815.98	3168.21
816.15	3254.22
816.33	3231.69
816.50	3147.73
816.67	3239.89
816.84	3131.34
817.02	2906.07
817.19	3168.21
817.36	3311.57
817.53	3311.57
817.71	3024.85
817.88	3053.52
818.05	3229.65
818.22	3289.04
818.40	3299.28
818.57	3137.49
818.74	3305.42
818.91	3274.70
819.09	3243.98
819.26	3246.03
819.43	3149.78
819.60	3094.48
819.78	3268.56
819.95	3108.82
820.12	3065.81
820.29	3477.45
820.47	3381.20
820.64	2992.08
820.81	3067.86
820.98	3092.43
821.15	3065.81
821.33	3303.37
821.50	2983.89
821.67	3467.21
821.84	2981.84
822.02	3104.72
822.19	3416.01
822.36	3190.74
822.53	2967.51
822.70	2944.98
822.88	3141.58
823.05	3522.51
823.22	3213.26
823.39	3104.72
823.56	3254.22
823.74	3643.34
823.91	2959.31
824.08	2981.84
824.25	3041.23
824.42	3573.71
824.60	2918.36
824.77	3194.83
824.94	3151.82
825.11	3389.39
825.28	2922.45
825.45	3213.26
825.63	3286.99
825.80	3057.62
825.97	3164.11
826.14	3168.21
826.31	2975.70
826.48	3352.52
826.66	3166.16
826.83	3008.47
827.00	3243.98
827.17	3039.19
827.34	3164.11
827.51	2979.79
827.69	3239.89
827.86	2983.89
828.03	3117.01
828.20	3151.82
828.37	3164.11
828.54	3352.52
828.71	2846.68
828.89	3153.87
829.06	3348.43
829.23	3508.17
829.40	3114.96
829.57	3045.33
829.74	3307.47
829.91	3137.49
830.09	2928.60
830.26	3166.16
830.43	3590.09
830.60	3192.78
830.77	3127.25
830.94	3338.19
831.11	3428.30
831.28	3149.78
831.46	3203.02
831.63	3092.43
831.80	3532.75
831.97	3172.30
832.14	3098.58
832.31	3102.67
832.48	3389.39
832.65	3454.92
832.82	3229.65
832.99	3125.20
833.17	2951.12
833.34	3489.74
833.51	3035.09
833.68	2836.44
833.85	3354.57
834.02	2953.17
834.19	3020.75
834.36	3102.67
834.53	3250.13
834.70	3405.77
834.87	3041.23
835.04	2856.92
835.22	3143.63
835.39	3233.74
835.56	2985.94
835.73	2887.64
835.90	3471.31
836.07	3008.47
836.24	3088.34
836.41	2969.55
836.58	3094.48
836.75	3487.69
836.92	2942.93
837.09	2863.06
837.26	3459.02
837.43	3379.15
837.60	2889.68
837.77	2922.45
837.94	3446.73
838.12	3518.41
838.29	2858.96
838.46	2787.29
838.63	3016.66
838.80	3577.80
838.97	2961.36
839.14	2879.44
839.31	3246.03
839.48	3375.05
839.65	2901.97
839.82	2992.08
839.99	3227.60
840.16	3260.37
840.33	2856.92
840.50	2934.74
840.67	3217.36
840.84	2856.92
841.01	2858.96
841.18	2906.07
841.35	3213.26
841.52	3319.76
841.69	3317.71
841.86	3039.19
842.03	3209.17
842.20	3473.36
842.37	2897.88
842.54	2979.79
842.71	3297.23
842.88	2926.55
843.05	2947.03
843.22	2881.49
843.39	3409.87
843.56	3112.91
843.73	2879.44
843.90	2961.36
844.07	3301.33
844.24	3395.53
844.41	3002.32
844.58	2938.84
844.75	3325.90
844.92	3325.90
845.09	2920.40
845.26	2914.26
845.43	3360.72
845.60	3147.73
845.77	3071.95
845.94	2977.75
846.10	3475.40
846.27	2967.51
846.44	2760.66
846.61	2734.04
846.78	3370.96
846.95	3442.64
847.12	2822.10
847.29	3000.27
847.46	3127.25
847.63	3469.26
847.80	2861.01
847.97	2877.40
848.14	3809.22
848.31	3284.94
848.48	2838.48
848.65	2865.11
848.82	3166.16
848.98	3811.27
849.15	3020.75
849.32	3076.05
849.49	3516.36
849.66	3274.70
849.83	2922.45
850.00	2852.82
850.17	3364.81
850.34	3160.02
850.51	2881.49
850.68	3006.42
850.85	3706.82
851.01	3323.85
851.18	2856.92
851.35	2934.74
851.52	3360.72
851.69	3512.27
851.86	2840.53
852.03	2904.02
852.20	3422.16
852.37	3286.99
852.53	2836.44
852.70	2889.68
852.87	3325.90
853.04	3411.92
853.21	2918.36
853.38	3200.98
853.55	3538.89
853.72	3487.69
853.89	2805.72
854.05	2856.92
854.22	3166.16
854.39	3157.97
854.56	2824.15
854.73	3088.34
854.90	3117.01
855.07	3303.37
855.23	2815.96
855.40	2848.72
855.57	3160.02
855.74	2854.87
855.91	3049.43
856.08	2791.38
856.25	2983.89
856.41	3205.07
856.58	2957.27
856.75	2910.16
856.92	3080.14
857.09	3319.76
857.26	2727.89
857.42	2992.08
857.59	3418.06
857.76	3198.93
857.93	2879.44
858.10	3008.47
858.27	2979.79
858.43	3264.46
858.60	2906.07
858.77	2797.53
858.94	3190.74
859.11	3481.55
859.27	2971.60
859.44	2844.63
859.61	3747.78
859.78	3360.72
859.95	2959.31
860.12	2832.34
860.28	3657.67
860.45	3602.38
860.62	2879.44
860.79	3123.15
860.95	3121.10
861.12	3192.78
861.29	2775.00
861.46	2863.06
861.63	3295.18
861.79	3301.33
861.96	2852.82
862.13	2926.55
862.30	3545.03
862.47	3149.78
862.63	2797.53
862.80	2963.41
862.97	3512.27
863.14	3278.80
863.30	2918.36
863.47	2844.63
863.64	3592.14
863.81	3270.61
863.97	2824.15
864.14	2938.84
864.31	3250.13
864.48	3284.94
864.65	2840.53
864.81	3016.66
864.98	3391.44
865.15	3467.21
865.32	2987.99
865.48	3041.23
865.65	3583.95
865.82	3053.52
865.98	3002.32
866.15	2938.84
866.32	3266.51
866.49	3137.49
866.65	3055.57
866.82	2918.36
866.99	3327.95
867.16	3114.96
867.32	2983.89
867.49	2897.88
867.66	3270.61
867.83	3184.59
867.99	2748.37
868.16	2908.12
868.33	2973.65
868.49	3196.88
868.66	2938.84
868.83	3043.28
868.99	3266.51
869.16	3254.22
869.33	3127.25
869.50	2996.18
869.66	3250.13
869.83	3231.69
870.00	2893.78
870.16	3057.62
870.33	3268.56
870.50	3499.98
870.66	3030.99
870.83	2947.03
871.00	3278.80
871.17	3362.76
871.33	2959.31
871.50	2889.68
871.67	3223.50
871.83	2969.55
872.00	2996.18
872.17	3000.27
872.33	3629.00
872.50	3436.49
872.67	2918.36
872.83	2873.30
873.00	3264.46
873.17	3317.71
873.33	2938.84
873.50	3016.66
873.67	3149.78
873.83	3090.38
874.00	2912.21
874.16	3024.85
874.33	3256.27
874.50	3071.95
874.66	2887.64
874.83	2951.12
875.00	3497.93
875.16	3471.31
875.33	2985.94
875.50	2656.22
875.66	3147.73
875.83	3233.74
875.99	2992.08
876.16	3008.47
876.33	3112.91
876.49	3223.50
876.66	3033.04
876.83	2951.12
876.99	2934.74
877.16	3307.47
877.32	2830.29
877.49	3084.24
877.66	3270.61
877.82	3526.60
877.99	3008.47
878.15	3231.69
878.32	3307.47
878.49	3305.42
878.65	3028.95
878.82	3178.45
878.98	3162.06
879.15	3450.83
879.32	3100.62
879.48	3176.40
879.65	3164.11
879.81	3237.84
879.98	3024.85
880.15	2947.03
880.31	3387.34
880.48	3096.53
880.64	3008.47
880.81	3110.86
880.97	3569.61
881.14	3493.83
881.31	2998.23
881.47	3008.47
881.64	3227.60
881.80	2994.13
881.97	3168.21
882.13	2949.08
882.30	3114.96
882.47	3119.06
882.63	2949.08
882.80	2899.92
882.96	3178.45
883.13	3510.22
883.29	2906.07
883.46	2865.11
883.62	3715.02
883.79	3413.96
883.95	3026.90
884.12	2899.92
884.29	3588.04
884.45	3311.57
884.62	2979.79
884.78	2934.74
884.95	3561.42
885.11	3131.34
885.28	2944.98
885.44	2926.55
885.61	3356.62
885.77	3524.55
885.94	2996.18
886.10	3100.62
886.27	3237.84
886.43	3598.28
886.60	3102.67
886.76	3020.75
886.93	3131.34
887.09	3239.89
887.26	2811.86
887.42	2908.12
887.59	3440.59
887.75	3774.41
887.92	3172.30
888.08	3133.39
888.25	3610.57
888.41	3391.44
888.58	3084.24
888.74	2963.41
888.91	3139.54
>>>>>End Processed Spectral Data<<<<<
