SpectraSuite Data File
++++++++++++++++++++++++++++++++++++
Date: Fri May 06 08:14:35 CEST 2016
User: root
Dark Spectrum Present: No
Reference Spectrum Present: No
Number of Sampled Component Spectra: 1
Spectrometers: USB4C02835
Integration Time (usec): 100000 (USB4C02835)
Spectra Averaged: 1 (USB4C02835)
Boxcar Smoothing: 0 (USB4C02835)
Correct for Electrical Dark: No (USB4C02835)
Strobe/Lamp Enabled: No (USB4C02835)
Correct for Detector Non-linearity: No (USB4C02835)
Correct for Stray Light: No (USB4C02835)
Number of Pixels in Processed Spectrum: 3648
>>>>>Begin Processed Spectral Data<<<<<
177.47	2254.81
177.69	2254.81
177.91	2254.81
178.13	2254.81
178.36	2273.25
178.58	2979.79
178.80	3149.78
179.02	2918.36
179.24	3166.16
179.46	2820.05
179.68	2852.82
179.90	3250.13
180.13	3311.57
180.35	2664.41
180.57	2854.87
180.79	3477.45
181.01	3205.07
181.23	2867.16
181.45	2981.84
181.67	3473.36
181.90	3358.67
182.12	2955.22
182.34	2633.69
182.56	3395.53
182.78	3305.42
183.00	2818.00
183.22	2842.58
183.44	2852.82
183.66	3950.53
183.89	2926.55
184.11	2846.68
184.33	3368.91
184.55	3485.64
184.77	2820.05
184.99	2789.33
185.21	3186.64
185.43	3794.89
185.65	2887.64
185.87	2754.52
186.10	3741.64
186.32	3729.35
186.54	3028.95
186.76	2977.75
186.98	3487.69
187.20	3272.65
187.42	2873.30
187.64	2856.92
187.86	3321.81
188.08	3459.02
188.30	2770.90
188.52	2885.59
188.75	3536.84
188.97	3559.37
189.19	2795.48
189.41	2772.95
189.63	3389.39
189.85	3194.83
190.07	2738.13
190.29	2717.65
190.51	3321.81
190.73	2985.94
190.95	3033.04
191.17	2879.44
191.39	3057.62
191.61	3196.88
191.84	2930.64
192.06	3004.37
192.28	2920.40
192.50	3999.68
192.72	2985.94
192.94	2971.60
193.16	3538.89
193.38	3409.87
193.60	2836.44
193.82	3018.71
194.04	3485.64
194.26	3368.91
194.48	2836.44
194.70	2877.40
194.92	3119.06
195.14	3450.83
195.36	2789.33
195.58	2967.51
195.80	3221.45
196.02	3194.83
196.24	2781.14
196.46	2928.60
196.69	3209.17
196.91	3758.02
197.13	2779.09
197.35	2895.83
197.57	3667.91
197.79	3397.58
198.01	3020.75
198.23	2869.20
198.45	3385.29
198.67	2979.79
198.89	2703.32
199.11	2914.26
199.33	3235.79
199.55	2873.30
199.77	2785.24
199.99	3016.66
200.21	3258.32
200.43	3381.20
200.65	2750.42
200.87	2779.09
201.09	3262.41
201.31	3219.41
201.53	2916.31
201.75	3047.38
201.97	3413.96
202.19	3325.90
202.41	2979.79
202.63	2965.46
202.85	3379.15
203.07	3330.00
203.29	2992.08
203.51	2770.90
203.73	3112.91
203.95	3786.69
204.17	2852.82
204.39	2942.93
204.61	3274.70
204.83	3203.02
205.05	2990.03
205.27	2877.40
205.49	3803.08
205.71	3229.65
205.93	2770.90
206.15	2858.96
206.37	3278.80
206.59	3243.98
206.81	2707.41
207.03	2791.38
207.25	3117.01
207.47	3444.68
207.69	2883.54
207.91	3084.24
208.13	3600.33
208.34	3129.30
208.56	2822.10
208.78	2906.07
209.00	3196.88
209.22	3164.11
209.44	2889.68
209.66	2830.29
209.88	3278.80
210.10	3272.65
210.32	2881.49
210.54	2951.12
210.76	3153.87
210.98	3479.50
211.20	2666.46
211.42	3002.32
211.64	3565.51
211.86	3360.72
212.08	2971.60
212.30	2863.06
212.52	3196.88
212.74	3379.15
212.96	2944.98
213.17	2910.16
213.39	3452.88
213.61	3680.20
213.83	2807.77
214.05	2727.89
214.27	3555.27
214.49	3059.67
214.71	2770.90
214.93	2979.79
215.15	3268.56
215.37	3387.34
215.59	2805.72
215.81	2971.60
216.03	3602.38
216.24	3327.95
216.46	2815.96
216.68	2865.11
216.90	3495.88
217.12	3518.41
217.34	2912.21
217.56	3012.56
217.78	3618.76
218.00	3385.29
218.22	2994.13
218.44	3018.71
218.66	3278.80
218.87	3567.56
219.09	2871.25
219.31	2856.92
219.53	3405.77
219.75	3172.30
219.97	2951.12
220.19	2877.40
220.41	3346.38
220.63	3590.09
220.85	2854.87
221.06	2871.25
221.28	3530.70
221.50	3493.83
221.72	2889.68
221.94	2707.41
222.16	3393.48
222.38	3426.25
222.60	2807.77
222.82	2889.68
223.03	3393.48
223.25	3078.10
223.47	2695.13
223.69	3078.10
223.91	3379.15
224.13	3248.08
224.35	2756.57
224.57	3106.77
224.78	3518.41
225.00	3084.24
225.22	2930.64
225.44	2758.61
225.66	3321.81
225.88	3205.07
226.10	3022.80
226.32	2850.77
226.53	3506.12
226.75	3231.69
226.97	3033.04
227.19	2936.79
227.41	3127.25
227.63	3213.26
227.85	2713.56
228.06	2938.84
228.28	3276.75
228.50	3418.06
228.72	2709.46
228.94	2813.91
229.16	2904.02
229.37	3104.72
229.59	2766.81
229.81	3139.54
230.03	3219.41
230.25	3020.75
230.47	2713.56
230.69	2815.96
230.90	3387.34
231.12	3147.73
231.34	3016.66
231.56	2918.36
231.78	2992.08
232.00	3272.65
232.21	2893.78
232.43	2858.96
232.65	2912.21
232.87	3389.39
233.09	2731.99
233.30	2820.05
233.52	3409.87
233.74	3147.73
233.96	2793.43
234.18	2967.51
234.40	3233.74
234.61	3755.97
234.83	2772.95
235.05	2856.92
235.27	3923.91
235.49	3549.13
235.70	2721.75
235.92	2887.64
236.14	3389.39
236.36	3837.89
236.58	2725.85
236.79	2889.68
237.01	3301.33
237.23	3209.17
237.45	3051.47
237.67	2924.50
237.88	3321.81
238.10	3672.01
238.32	2770.90
238.54	2785.24
238.76	3246.03
238.97	3100.62
239.19	2822.10
239.41	2940.88
239.63	3485.64
239.85	3192.78
240.06	2906.07
240.28	2887.64
240.50	3477.45
240.72	3315.66
240.93	2668.50
241.15	2908.12
241.37	3278.80
241.59	3540.94
241.81	2951.12
242.02	2850.77
242.24	3327.95
242.46	3440.59
242.68	2744.28
242.89	2842.58
243.11	3479.50
243.33	3225.55
243.55	2856.92
243.76	2932.69
243.98	3125.20
244.20	3223.50
244.42	2852.82
244.64	2848.72
244.85	2994.13
245.07	3065.81
245.29	2824.15
245.51	2912.21
245.72	3428.30
245.94	3387.34
246.16	2852.82
246.38	2889.68
246.59	3180.50
246.81	3104.72
247.03	2787.29
247.24	2748.37
247.46	3246.03
247.68	3418.06
247.90	2791.38
248.11	2891.73
248.33	3438.54
248.55	3284.94
248.77	2934.74
248.98	2930.64
249.20	3624.90
249.42	3368.91
249.64	2861.01
249.85	2850.77
250.07	3147.73
250.29	3364.81
250.50	2977.75
250.72	2842.58
250.94	3317.71
251.16	3694.54
251.37	2873.30
251.59	2979.79
251.81	3407.82
252.02	3674.06
252.24	2832.34
252.46	2992.08
252.68	3139.54
252.89	3149.78
253.11	2709.46
253.33	3033.04
253.54	3598.28
253.76	3078.10
253.98	2863.06
254.20	2828.24
254.41	2971.60
254.63	3176.40
254.85	2723.80
255.06	2967.51
255.28	3362.76
255.50	3229.65
255.71	2807.77
255.93	2791.38
256.15	3278.80
256.36	3389.39
256.58	2680.79
256.80	2756.57
257.02	3231.69
257.23	3272.65
257.45	2944.98
257.67	3014.61
257.88	3157.97
258.10	3395.53
258.32	2852.82
258.53	2961.36
258.75	3538.89
258.97	3198.93
259.18	2775.00
259.40	2795.48
259.62	3612.62
259.83	3590.09
260.05	2885.59
260.27	3786.69
260.48	3459.02
260.70	3117.01
260.92	2781.14
261.13	2861.01
261.35	3354.57
261.57	3346.38
261.78	2695.13
262.00	2772.95
262.22	3471.31
262.43	3024.85
262.65	2861.01
262.86	2836.44
263.08	3846.09
263.30	3280.85
263.51	2748.37
263.73	2830.29
263.95	3667.91
264.16	3149.78
264.38	2758.61
264.60	2762.71
264.81	3356.62
265.03	3530.70
265.25	3262.41
265.46	2840.53
265.68	3440.59
265.89	3352.52
266.11	2699.22
266.33	2832.34
266.54	3532.75
266.76	3389.39
266.98	2942.93
267.19	3088.34
267.41	3561.42
267.62	3215.31
267.84	2721.75
268.06	3049.43
268.27	3334.09
268.49	3461.07
268.70	2908.12
268.92	2918.36
269.14	3137.49
269.35	2973.65
269.57	2938.84
269.79	2934.74
270.00	3203.02
270.22	3588.04
270.43	2779.09
270.65	2750.42
270.87	3307.47
271.08	3459.02
271.30	2959.31
271.51	2904.02
271.73	3448.78
271.95	3532.75
272.16	2799.57
272.38	2983.89
272.59	3168.21
272.81	3399.63
273.02	2836.44
273.24	2863.06
273.46	3557.32
273.67	3028.95
273.89	2717.65
274.10	2877.40
274.32	3463.12
274.54	3301.33
274.75	2973.65
274.97	2922.45
275.18	3366.86
275.40	3346.38
275.61	2897.88
275.83	3037.14
276.05	3121.10
276.26	3344.33
276.48	2975.70
276.69	3016.66
276.91	3196.88
277.12	3592.14
277.34	3039.19
277.55	3129.30
277.77	3311.57
277.99	3203.02
278.20	2994.13
278.42	2873.30
278.63	3162.06
278.85	3090.38
279.06	2850.77
279.28	3098.58
279.49	3524.55
279.71	3504.07
279.93	2985.94
280.14	2994.13
280.36	3082.19
280.57	3393.48
280.79	3078.10
281.00	2887.64
281.22	3168.21
281.43	3565.51
281.65	2815.96
281.86	2918.36
282.08	3362.76
282.29	3610.57
282.51	2910.16
282.73	2947.03
282.94	3037.14
283.16	3375.05
283.37	3117.01
283.59	3069.91
283.80	3393.48
284.02	3205.07
284.23	2965.46
284.45	3008.47
284.66	3059.67
284.88	3084.24
285.09	2940.88
285.31	2992.08
285.52	3256.27
285.74	2973.65
285.95	3119.06
286.17	3030.99
286.38	3545.03
286.60	3205.07
286.81	2949.08
287.03	2912.21
287.24	3295.18
287.46	3364.81
287.67	3108.82
287.89	3229.65
288.10	3258.32
288.32	3278.80
288.53	3137.49
288.75	3061.71
288.96	3493.83
289.18	3172.30
289.39	2987.99
289.61	3096.53
289.82	3690.44
290.04	3712.97
290.25	2891.73
290.47	3041.23
290.68	3186.64
290.90	3442.64
291.11	2815.96
291.33	3188.69
291.54	3121.10
291.76	3100.62
291.97	3098.58
292.18	3067.86
292.40	3207.12
292.61	3102.67
292.83	3297.23
293.04	2996.18
293.26	3319.76
293.47	3168.21
293.69	2942.93
293.90	2959.31
294.12	3499.98
294.33	3272.65
294.55	3063.76
294.76	3215.31
294.97	3473.36
295.19	3745.73
295.40	2971.60
295.62	3033.04
295.83	3510.22
296.05	3143.63
296.26	3186.64
296.48	3037.14
296.69	3192.78
296.90	3225.55
297.12	3155.92
297.33	3102.67
297.55	3239.89
297.76	3338.19
297.98	3104.72
298.19	3157.97
298.41	3352.52
298.62	3088.34
298.83	3192.78
299.05	3088.34
299.26	3305.42
299.48	3084.24
299.69	3086.29
299.90	3004.37
300.12	3129.30
300.33	3346.38
300.55	2992.08
300.76	2924.50
300.98	3121.10
301.19	3323.85
301.40	2981.84
301.62	3053.52
301.83	3360.72
302.05	3270.61
302.26	2942.93
302.47	3092.43
302.69	3016.66
302.90	3233.74
303.12	2834.39
303.33	3139.54
303.54	3704.78
303.76	3184.59
303.97	2885.59
304.19	3164.11
304.40	3141.58
304.61	3489.74
304.83	3117.01
305.04	3139.54
305.26	3411.92
305.47	3098.58
305.68	3041.23
305.90	2947.03
306.11	3557.32
306.33	3315.66
306.54	2901.97
306.75	2922.45
306.97	2987.99
307.18	3090.38
307.39	2983.89
307.61	3090.38
307.82	3155.92
308.04	3360.72
308.25	2947.03
308.46	3082.19
308.68	3336.14
308.89	3221.45
309.10	3104.72
309.32	3002.32
309.53	3213.26
309.74	3465.16
309.96	2889.68
310.17	3162.06
310.39	3198.93
310.60	3483.59
310.81	3069.91
311.03	2901.97
311.24	3426.25
311.45	3264.46
311.67	3280.85
311.88	3137.49
312.09	3114.96
312.31	3123.15
312.52	2961.36
312.73	2955.22
312.95	3037.14
313.16	3057.62
313.37	3092.43
313.59	3153.87
313.80	3442.64
314.01	3594.19
314.23	2979.79
314.44	2877.40
314.65	3053.52
314.87	3125.20
315.08	2983.89
315.29	2987.99
315.51	3108.82
315.72	2981.84
315.93	3057.62
316.15	3092.43
316.36	3209.17
316.57	3411.92
316.79	3030.99
317.00	2942.93
317.21	3418.06
317.43	3102.67
317.64	3051.47
317.85	2861.01
318.07	3090.38
318.28	3221.45
318.49	3057.62
318.70	3233.74
318.92	3319.76
319.13	3330.00
319.34	3227.60
319.56	3006.42
319.77	3352.52
319.98	3405.77
320.20	3319.76
320.41	3096.53
320.62	3391.44
320.83	3016.66
321.05	3235.79
321.26	3026.90
321.47	3315.66
321.69	3516.36
321.90	2873.30
322.11	2961.36
322.32	3325.90
322.54	3538.89
322.75	2963.41
322.96	3979.20
323.18	2963.41
323.39	2873.30
323.60	2944.98
323.81	3033.04
324.03	3141.58
324.24	3291.09
324.45	3106.77
324.66	2889.68
324.88	3512.27
325.09	3563.47
325.30	3010.51
325.52	3000.27
325.73	3385.29
325.94	3033.04
326.15	2936.79
326.37	2838.48
326.58	3444.68
326.79	3649.48
327.00	3045.33
327.22	2959.31
327.43	3200.98
327.64	3067.86
327.85	3053.52
328.07	3010.51
328.28	3680.20
328.49	3100.62
328.70	3016.66
328.92	3012.56
329.13	3266.51
329.34	3297.23
329.55	3180.50
329.76	3162.06
329.98	3260.37
330.19	3526.60
330.40	3041.23
330.61	3094.48
330.83	3483.59
331.04	3024.85
331.25	3117.01
331.46	3035.09
331.68	3129.30
331.89	3502.03
332.10	3012.56
332.31	2838.48
332.52	3215.31
332.74	3499.98
332.95	2834.39
333.16	3018.71
333.37	3416.01
333.58	3184.59
333.80	3004.37
334.01	2826.20
334.22	3323.85
334.43	3088.34
334.64	2934.74
334.86	2944.98
335.07	3137.49
335.28	3481.55
335.49	2867.16
335.70	3076.05
335.92	3536.84
336.13	3768.26
336.34	3094.48
336.55	3000.27
336.76	3416.01
336.98	2944.98
337.19	3024.85
337.40	3078.10
337.61	3817.41
337.82	3172.30
338.04	3172.30
338.25	2918.36
338.46	3264.46
338.67	3196.88
338.88	2893.78
339.09	2844.63
339.31	3205.07
339.52	2981.84
339.73	2926.55
339.94	2930.64
340.15	3448.78
340.36	3155.92
340.58	3094.48
340.79	2916.31
341.00	3377.10
341.21	3059.67
341.42	3272.65
341.63	2973.65
341.85	3377.10
342.06	3278.80
342.27	2906.07
342.48	3053.52
342.69	2979.79
342.90	3346.38
343.12	3295.18
343.33	2914.26
343.54	3471.31
343.75	3532.75
343.96	3213.26
344.17	2930.64
344.38	3188.69
344.60	3059.67
344.81	2977.75
345.02	3016.66
345.23	3530.70
345.44	3780.55
345.65	3102.67
345.86	2977.75
346.07	3266.51
346.29	3166.16
346.50	3108.82
346.71	3057.62
346.92	3532.75
347.13	3598.28
347.34	3160.02
347.55	2981.84
347.76	3317.71
347.98	2994.13
348.19	3078.10
348.40	3166.16
348.61	3125.20
348.82	3631.05
349.03	3098.58
349.24	2854.87
349.45	3616.71
349.66	2895.83
349.88	2953.17
350.09	2981.84
350.30	3467.21
350.51	3508.17
350.72	3260.37
350.93	2928.60
351.14	3170.26
351.35	3272.65
351.56	3022.80
351.77	3012.56
351.99	3377.10
352.20	3536.84
352.41	3135.44
352.62	2918.36
352.83	3295.18
353.04	3274.70
353.25	2906.07
353.46	3045.33
353.67	3561.42
353.88	2910.16
354.09	2920.40
354.30	3004.37
354.52	3434.44
354.73	3223.50
354.94	2938.84
355.15	3008.47
355.36	3631.05
355.57	3084.24
355.78	2906.07
355.99	2992.08
356.20	3250.13
356.41	3545.03
356.62	3071.95
356.83	3090.38
357.04	3502.03
357.25	2930.64
357.46	2996.18
357.68	2914.26
357.89	3143.63
358.10	3266.51
358.31	3018.71
358.52	3028.95
358.73	3135.44
358.94	3000.27
359.15	2975.70
359.36	3037.14
359.57	3227.60
359.78	3215.31
359.99	3180.50
360.20	2861.01
360.41	3246.03
360.62	3360.72
360.83	3090.38
361.04	3018.71
361.25	3354.57
361.46	3610.57
361.67	3133.39
361.88	3035.09
362.09	3418.06
362.30	3350.48
362.51	2959.31
362.72	3149.78
362.93	3416.01
363.14	3399.63
363.35	3104.72
363.56	2885.59
363.78	3526.60
363.99	3346.38
364.20	2992.08
364.41	3104.72
364.62	3581.90
364.83	3393.48
365.04	2973.65
365.25	3084.24
365.46	3659.72
365.67	3135.44
365.88	3155.92
366.09	3057.62
366.30	3213.26
366.51	3303.37
366.72	3000.27
366.93	3000.27
367.14	3340.24
367.35	3547.08
367.56	2926.55
367.77	3125.20
367.98	3237.84
368.18	3430.35
368.39	3121.10
368.60	2893.78
368.81	3493.83
369.02	3336.14
369.23	3035.09
369.44	2828.24
369.65	3200.98
369.86	3356.62
370.07	3086.29
370.28	2899.92
370.49	3440.59
370.70	3280.85
370.91	2891.73
371.12	2861.01
371.33	3502.03
371.54	3082.19
371.75	3110.86
371.96	2762.71
372.17	3262.41
372.38	3223.50
372.59	3026.90
372.80	2918.36
373.01	3221.45
373.22	3270.61
373.43	3004.37
373.64	2940.88
373.85	3504.07
374.06	3624.90
374.26	3119.06
374.47	3102.67
374.68	3559.37
374.89	3299.28
375.10	2953.17
375.31	3147.73
375.52	3243.98
375.73	3282.89
375.94	2901.97
376.15	3094.48
376.36	3198.93
376.57	3147.73
376.78	3045.33
376.99	3104.72
377.20	3545.03
377.40	3299.28
377.61	3270.61
377.82	2977.75
378.03	3518.41
378.24	3459.02
378.45	3141.58
378.66	3123.15
378.87	2906.07
379.08	2979.79
379.29	3024.85
379.50	3108.82
379.71	3256.27
379.91	3403.72
380.12	2920.40
380.33	3069.91
380.54	3286.99
380.75	3231.69
380.96	2944.98
381.17	2985.94
381.38	3246.03
381.59	3248.08
381.80	3053.52
382.00	3157.97
382.21	3305.42
382.42	3551.18
382.63	3352.52
382.84	3143.63
383.05	3485.64
383.26	3606.47
383.47	3143.63
383.68	2977.75
383.88	3315.66
384.09	3338.19
384.30	3338.19
384.51	3096.53
384.72	3264.46
384.93	3000.27
385.14	3053.52
385.35	3305.42
385.55	3059.67
385.76	3557.32
385.97	3049.43
386.18	2879.44
386.39	3135.44
386.60	3278.80
386.81	2987.99
387.02	2910.16
387.22	3127.25
387.43	3381.20
387.64	3059.67
387.85	3313.61
388.06	3385.29
388.27	4308.93
388.48	7702.41
388.68	11956.04
388.89	14849.82
389.10	16137.99
389.31	15882.00
389.52	12846.91
389.73	11024.22
389.93	10114.92
390.14	9181.04
390.35	8537.98
390.56	7804.81
390.77	6582.17
390.98	4966.32
391.18	4323.26
391.39	3860.42
391.60	3262.41
391.81	3256.27
392.02	3045.33
392.23	3862.47
392.43	3311.57
392.64	3147.73
392.85	3045.33
393.06	3557.32
393.27	3297.23
393.47	2998.23
393.68	3143.63
393.89	3219.41
394.10	3542.99
394.31	3012.56
394.52	2918.36
394.72	3139.54
394.93	3606.47
395.14	2906.07
395.35	3127.25
395.56	3213.26
395.76	3139.54
395.97	2983.89
396.18	3192.78
396.39	3241.93
396.60	3901.38
396.80	3368.91
397.01	3338.19
397.22	3592.14
397.43	3436.49
397.64	3008.47
397.84	3119.06
398.05	3712.97
398.26	3172.30
398.47	3151.82
398.67	3332.05
398.88	3280.85
399.09	3332.05
399.30	2949.08
399.51	3125.20
399.71	3106.77
399.92	3233.74
400.13	3143.63
400.34	2983.89
400.54	3248.08
400.75	3518.41
400.96	3139.54
401.17	3360.72
401.37	3366.86
401.58	3280.85
401.79	2983.89
402.00	3153.87
402.21	3841.99
402.41	3469.26
402.62	3364.81
402.83	3526.60
403.04	3729.35
403.24	4061.12
403.45	3254.22
403.66	3444.68
403.87	3432.40
404.07	3577.80
404.28	3348.43
404.49	3330.00
404.70	3401.68
404.90	3399.63
405.11	3049.43
405.32	3219.41
405.52	3248.08
405.73	3196.88
405.94	3037.14
406.15	3133.39
406.35	3459.02
406.56	3364.81
406.77	3049.43
406.98	2975.70
407.18	3243.98
407.39	3575.75
407.60	3049.43
407.80	3188.69
408.01	3211.22
408.22	3426.25
408.43	2830.29
408.63	3182.54
408.84	3481.55
409.05	3489.74
409.25	3002.32
409.46	3127.25
409.67	3166.16
409.88	3235.79
410.08	3057.62
410.29	3043.28
410.50	3497.93
410.70	3340.24
410.91	3028.95
411.12	3065.81
411.32	3243.98
411.53	3153.87
411.74	3037.14
411.95	3133.39
412.15	3299.28
412.36	3461.07
412.57	3176.40
412.77	3248.08
412.98	3215.31
413.19	3256.27
413.39	3168.21
413.60	3121.10
413.81	3542.99
414.01	3123.15
414.22	3006.42
414.43	3274.70
414.63	3149.78
414.84	3485.64
415.05	3071.95
415.25	2906.07
415.46	3364.81
415.67	3301.33
415.87	3131.34
416.08	3065.81
416.29	3168.21
416.49	3403.72
416.70	3100.62
416.91	3041.23
417.11	3239.89
417.32	3426.25
417.53	3129.30
417.73	3151.82
417.94	3278.80
418.15	3311.57
418.35	3035.09
418.56	3080.14
418.77	3766.21
418.97	3401.68
419.18	3149.78
419.38	2744.28
419.59	3295.18
419.80	3557.32
420.00	2901.97
420.21	3020.75
420.42	3555.27
420.62	3387.34
420.83	3076.05
421.04	2987.99
421.24	3213.26
421.45	3395.53
421.65	3055.57
421.86	3094.48
422.07	3467.21
422.27	3418.06
422.48	2940.88
422.69	2944.98
422.89	3227.60
423.10	3151.82
423.30	2955.22
423.51	3123.15
423.72	3313.61
423.92	3485.64
424.13	2953.17
424.33	3149.78
424.54	3481.55
424.75	3358.67
424.95	3278.80
425.16	3030.99
425.36	3266.51
425.57	3534.79
425.78	3192.78
425.98	3131.34
426.19	3258.32
426.39	3047.38
426.60	3098.58
426.81	3149.78
427.01	3407.82
427.22	3131.34
427.42	2936.79
427.63	3043.28
427.83	3444.68
428.04	3567.56
428.25	3182.54
428.45	3252.17
428.66	3504.07
428.86	3270.61
429.07	3016.66
429.28	3067.86
429.48	3327.95
429.69	3076.05
429.89	3225.55
430.10	2967.51
430.30	3366.86
430.51	3434.44
430.71	3006.42
430.92	3090.38
431.13	3164.11
431.33	3385.29
431.54	3035.09
431.74	3241.93
431.95	3776.45
432.15	3102.67
432.36	3018.71
432.56	3061.71
432.77	3700.68
432.98	3672.01
433.18	3166.16
433.39	2934.74
433.59	3330.00
433.80	3690.44
434.00	3182.54
434.21	3131.34
434.41	3143.63
434.62	3768.26
434.82	2959.31
435.03	2975.70
435.23	3368.91
435.44	2922.45
435.64	2934.74
435.85	3123.15
436.06	3375.05
436.26	3542.99
436.47	3112.91
436.67	3016.66
436.88	3219.41
437.08	3479.50
437.29	3198.93
437.49	3207.12
437.70	3553.23
437.90	3205.07
438.11	3280.85
438.31	3143.63
438.52	3450.83
438.72	3440.59
438.93	3346.38
439.13	3121.10
439.34	3426.25
439.54	3264.46
439.75	3151.82
439.95	3108.82
440.16	3135.44
440.36	3303.37
440.57	3028.95
440.77	3045.33
440.98	3297.23
441.18	3336.14
441.39	3028.95
441.59	2852.82
441.80	3684.30
442.00	3227.60
442.21	3114.96
442.41	2928.60
442.62	3463.12
442.82	3268.56
443.02	3028.95
443.23	3041.23
443.43	3293.13
443.64	3536.84
443.84	2930.64
444.05	3170.26
444.25	3286.99
444.46	3215.31
444.66	2983.89
444.87	3358.67
445.07	3041.23
445.28	3229.65
445.48	3223.50
445.69	3125.20
445.89	3858.37
446.09	3309.52
446.30	3373.00
446.50	3385.29
446.71	5058.48
446.91	6344.61
447.12	7225.23
447.32	7477.13
447.53	7399.31
447.73	6301.60
447.93	5328.81
448.14	5220.27
448.34	5443.50
448.55	4487.10
448.75	4396.99
448.96	4216.77
449.16	4085.70
449.36	3938.24
449.57	3334.09
449.77	3205.07
449.98	3233.74
450.18	3434.44
450.39	2979.79
450.59	3280.85
450.79	3254.22
451.00	3151.82
451.20	3254.22
451.41	3067.86
451.61	3418.06
451.81	3237.84
452.02	2996.18
452.22	3147.73
452.43	3135.44
452.63	3139.54
452.84	3137.49
453.04	3014.61
453.24	3295.18
453.45	3092.43
453.65	3094.48
453.86	3028.95
454.06	3338.19
454.26	3278.80
454.47	2971.60
454.67	3246.03
454.87	3340.24
455.08	3194.83
455.28	3176.40
455.49	3278.80
455.69	3155.92
455.89	3614.66
456.10	3205.07
456.30	2951.12
456.51	3436.49
456.71	3321.81
456.91	3217.36
457.12	3049.43
457.32	3330.00
457.52	3012.56
457.73	3252.17
457.93	3286.99
458.14	3151.82
458.34	2926.55
458.54	3094.48
458.75	3028.95
458.95	3373.00
459.15	3379.15
459.36	3112.91
459.56	3051.47
459.76	3766.21
459.97	3338.19
460.17	3078.10
460.37	3141.58
460.58	3338.19
460.78	3375.05
460.99	3074.00
461.19	3051.47
461.39	3262.41
461.60	3209.17
461.80	3139.54
462.00	2942.93
462.21	3284.94
462.41	3055.57
462.61	2938.84
462.82	2779.09
463.02	3446.73
463.22	3270.61
463.43	3164.11
463.63	2893.78
463.83	3553.23
464.04	3346.38
464.24	2998.23
464.44	2957.27
464.64	3338.19
464.85	3440.59
465.05	3112.91
465.25	2936.79
465.46	3180.50
465.66	3422.16
465.86	3166.16
466.07	3012.56
466.27	3225.55
466.47	2885.59
466.68	2983.89
466.88	3192.78
467.08	3405.77
467.29	3471.31
467.49	3010.51
467.69	3200.98
467.89	3428.30
468.10	3215.31
468.30	3125.20
468.50	3094.48
468.71	3389.39
468.91	2969.55
469.11	3213.26
469.31	3114.96
469.52	3096.53
469.72	3590.09
469.92	3291.09
470.13	3092.43
470.33	3272.65
470.53	3342.28
470.73	3551.18
470.94	3921.86
471.14	4085.70
471.34	4753.34
471.54	4319.17
471.75	4036.55
471.95	3805.13
472.15	3725.26
472.36	3696.58
472.56	3553.23
472.76	3866.56
472.96	3614.66
473.17	3413.96
473.37	3229.65
473.57	3278.80
473.77	3393.48
473.98	3157.97
474.18	2932.69
474.38	3964.87
474.58	3186.64
474.79	2985.94
474.99	3121.10
475.19	3536.84
475.39	3119.06
475.60	3155.92
475.80	3033.04
476.00	3299.28
476.20	3233.74
476.41	3071.95
476.61	3157.97
476.81	3596.23
477.01	3147.73
477.21	3358.67
477.42	3182.54
477.62	3131.34
477.82	3454.92
478.02	2998.23
478.23	3022.80
478.43	3166.16
478.63	3237.84
478.83	3078.10
479.03	3090.38
479.24	3575.75
479.44	3729.35
479.64	2940.88
479.84	2906.07
480.04	3157.97
480.25	3440.59
480.45	3059.67
480.65	3000.27
480.85	3622.86
481.06	3192.78
481.26	3119.06
481.46	2963.41
481.66	3442.64
481.86	3022.80
482.06	3246.03
482.27	3082.19
482.47	3180.50
482.67	3319.76
482.87	3157.97
483.07	3102.67
483.28	3160.02
483.48	3076.05
483.68	3127.25
483.88	3004.37
484.08	2858.96
484.29	3008.47
484.49	3112.91
484.69	2832.34
484.89	3561.42
485.09	3504.07
485.29	3108.82
485.50	3164.11
485.70	3186.64
485.90	3545.03
486.10	3254.22
486.30	3026.90
486.50	3510.22
486.71	3338.19
486.91	3239.89
487.11	3157.97
487.31	3045.33
487.51	3411.92
487.71	2990.03
487.91	2996.18
488.12	3162.06
488.32	2709.46
488.52	3100.62
488.72	2801.62
488.92	3348.43
489.12	3471.31
489.32	3090.38
489.53	3059.67
489.73	2910.16
489.93	3635.14
490.13	3061.71
490.33	2979.79
490.53	3426.25
490.73	3467.21
490.94	2918.36
491.14	3170.26
491.34	3336.14
491.54	3381.20
491.74	3983.30
491.94	4556.73
492.14	5119.92
492.34	5136.31
492.54	4755.38
492.75	4134.85
492.95	4321.21
493.15	4024.26
493.35	3805.13
493.55	3704.78
493.75	3782.60
493.95	3889.09
494.15	3346.38
494.35	3231.69
494.56	3286.99
494.76	3127.25
494.96	3217.36
495.16	2955.22
495.36	3239.89
495.56	3375.05
495.76	3166.16
495.96	3022.80
496.16	3098.58
496.36	3672.01
496.56	3014.61
496.77	3125.20
496.97	3254.22
497.17	3573.71
497.37	2844.63
497.57	3153.87
497.77	3348.43
497.97	3041.23
498.17	3092.43
498.37	3074.00
498.57	3362.76
498.77	3166.16
498.97	3250.13
499.17	3428.30
499.38	3239.89
499.58	3379.15
499.78	3223.50
499.98	3186.64
500.18	3221.45
500.38	3061.71
500.58	3246.03
500.78	3729.35
500.98	6107.04
501.18	7933.83
501.38	9787.24
501.58	10628.96
501.78	10831.71
501.98	8947.58
502.18	7509.90
502.38	6490.01
502.58	6418.33
502.78	5703.59
502.98	5476.27
503.18	5236.66
503.38	4970.42
503.59	4265.92
503.79	4046.79
503.99	3758.02
504.19	3948.48
504.39	3958.72
504.59	3665.86
504.79	3631.05
504.99	4071.36
505.19	3557.32
505.39	3366.86
505.59	3469.26
505.79	3708.87
505.99	3520.46
506.19	3121.10
506.39	3428.30
506.59	3229.65
506.79	3262.41
506.99	3315.66
507.19	2983.89
507.39	3336.14
507.59	3010.51
507.79	3008.47
507.99	3008.47
508.19	3323.85
508.39	3246.03
508.59	3055.57
508.79	3119.06
508.99	3633.10
509.19	3133.39
509.39	3059.67
509.59	3000.27
509.79	3039.19
509.99	3282.89
510.19	3172.30
510.39	3186.64
510.59	3297.23
510.79	3186.64
510.99	2885.59
511.19	2967.51
511.39	3569.61
511.59	3463.12
511.79	3215.31
511.99	3035.09
512.19	3721.16
512.38	3233.74
512.58	2938.84
512.78	3028.95
512.98	3481.55
513.18	3620.81
513.38	2934.74
513.58	3174.35
513.78	3270.61
513.98	3250.13
514.18	3131.34
514.38	3117.01
514.58	3272.65
514.78	3151.82
514.98	2992.08
515.18	3094.48
515.38	3074.00
515.58	3573.71
515.78	3033.04
515.98	3106.77
516.18	3473.36
516.38	3289.04
516.57	3002.32
516.77	3024.85
516.97	3366.86
517.17	3119.06
517.37	2813.91
517.57	3100.62
517.77	3286.99
517.97	3090.38
518.17	3145.68
518.37	2992.08
518.57	3172.30
518.77	3139.54
518.97	3123.15
519.16	3078.10
519.36	3622.86
519.56	3117.01
519.76	3002.32
519.96	3047.38
520.16	3520.46
520.36	3020.75
520.56	3196.88
520.76	2947.03
520.96	3221.45
521.16	3471.31
521.35	3284.94
521.55	3090.38
521.75	3387.34
521.95	3174.35
522.15	2944.98
522.35	2858.96
522.55	3100.62
522.75	3407.82
522.95	2926.55
523.14	2949.08
523.34	3340.24
523.54	3055.57
523.74	3217.36
523.94	3090.38
524.14	3067.86
524.34	3364.81
524.54	3225.55
524.73	3076.05
524.93	3452.88
525.13	3250.13
525.33	2951.12
525.53	3305.42
525.73	3473.36
525.93	3235.79
526.13	3143.63
526.32	2994.13
526.52	3512.27
526.72	3518.41
526.92	3076.05
527.12	2904.02
527.32	3010.51
527.52	3381.20
527.71	3147.73
527.91	3041.23
528.11	3205.07
528.31	3260.37
528.51	3026.90
528.71	3198.93
528.90	3379.15
529.10	3508.17
529.30	3082.19
529.50	2824.15
529.70	3362.76
529.90	3270.61
530.09	3024.85
530.29	2965.46
530.49	3057.62
530.69	3821.51
530.89	3229.65
531.09	3205.07
531.28	3217.36
531.48	3463.12
531.68	3047.38
531.88	3018.71
532.08	3463.12
532.28	3239.89
532.47	3155.92
532.67	3160.02
532.87	3424.20
533.07	3086.29
533.27	3117.01
533.46	3131.34
533.66	3354.57
533.86	3258.32
534.06	3155.92
534.26	3074.00
534.45	3266.51
534.65	3473.36
534.85	3178.45
535.05	2987.99
535.25	3495.88
535.44	2938.84
535.64	3164.11
535.84	3057.62
536.04	3162.06
536.24	3180.50
536.43	3051.47
536.63	2979.79
536.83	3334.09
537.03	3233.74
537.22	2901.97
537.42	2893.78
537.62	3323.85
537.82	3188.69
538.02	3297.23
538.21	3178.45
538.41	3827.65
538.61	3381.20
538.81	3117.01
539.00	3231.69
539.20	2969.55
539.40	3149.78
539.60	3004.37
539.79	3309.52
539.99	3254.22
540.19	3125.20
540.39	2987.99
540.58	3112.91
540.78	3489.74
540.98	3364.81
541.18	3299.28
541.37	3114.96
541.57	3264.46
541.77	3348.43
541.97	2959.31
542.16	2953.17
542.36	3176.40
542.56	3188.69
542.76	3278.80
542.95	3166.16
543.15	3411.92
543.35	3385.29
543.54	3024.85
543.74	2906.07
543.94	3622.86
544.14	3114.96
544.33	3203.02
544.53	3010.51
544.73	3198.93
544.93	3233.74
545.12	3080.14
545.32	3043.28
545.52	3340.24
545.71	3088.34
545.91	3039.19
546.11	3108.82
546.30	3063.76
546.50	3280.85
546.70	3106.77
546.90	2987.99
547.09	2951.12
547.29	3297.23
547.49	3147.73
547.68	3102.67
547.88	3100.62
548.08	3471.31
548.27	3297.23
548.47	3014.61
548.67	3205.07
548.87	3399.63
549.06	3024.85
549.26	2947.03
549.46	3330.00
549.65	3123.15
549.85	3047.38
550.05	3078.10
550.24	3028.95
550.44	3293.13
550.64	3086.29
550.83	3139.54
551.03	3475.40
551.23	3413.96
551.42	3063.76
551.62	3057.62
551.82	3289.04
552.01	3168.21
552.21	3336.14
552.41	3037.14
552.60	3555.27
552.80	3311.57
553.00	2967.51
553.19	3084.24
553.39	3602.38
553.59	3065.81
553.78	3211.22
553.98	3014.61
554.17	3041.23
554.37	3297.23
554.57	3100.62
554.76	2916.31
554.96	3200.98
555.16	3311.57
555.35	3096.53
555.55	3254.22
555.75	3409.87
555.94	3403.72
556.14	2873.30
556.33	3030.99
556.53	3241.93
556.73	3241.93
556.92	3061.71
557.12	2983.89
557.32	3770.31
557.51	3573.71
557.71	3067.86
557.90	3131.34
558.10	3561.42
558.30	3194.83
558.49	3069.91
558.69	3102.67
558.88	3334.09
559.08	3358.67
559.28	3074.00
559.47	3139.54
559.67	3409.87
559.86	3678.15
560.06	3018.71
560.26	3090.38
560.45	3409.87
560.65	3256.27
560.84	3297.23
561.04	3039.19
561.24	3383.24
561.43	3041.23
561.63	3305.42
561.82	3203.02
562.02	3409.87
562.22	3055.57
562.41	2969.55
562.61	3039.19
562.80	3090.38
563.00	3774.41
563.19	3086.29
563.39	3108.82
563.59	3395.53
563.78	3069.91
563.98	2842.58
564.17	2967.51
564.37	2883.54
564.56	3231.69
564.76	2893.78
564.96	3270.61
565.15	3336.14
565.35	3778.50
565.54	3108.82
565.74	3071.95
565.93	3332.05
566.13	3219.41
566.32	3123.15
566.52	3086.29
566.71	3315.66
566.91	3442.64
567.11	3170.26
567.30	2947.03
567.50	3327.95
567.69	3391.44
567.89	3030.99
568.08	2961.36
568.28	3321.81
568.47	2977.75
568.67	3088.34
568.86	3098.58
569.06	3422.16
569.25	3233.74
569.45	2987.99
569.64	3082.19
569.84	3192.78
570.04	3332.05
570.23	3102.67
570.43	3143.63
570.62	3370.96
570.82	3637.19
571.01	3008.47
571.21	3041.23
571.40	3084.24
571.60	3430.35
571.79	3137.49
571.99	3139.54
572.18	3000.27
572.38	3360.72
572.57	3153.87
572.77	3213.26
572.96	3780.55
573.16	3225.55
573.35	3061.71
573.55	3217.36
573.74	3395.53
573.94	3180.50
574.13	2967.51
574.33	3235.79
574.52	3456.97
574.71	3200.98
574.91	3137.49
575.10	2942.93
575.30	3174.35
575.49	3172.30
575.69	3012.56
575.88	3018.71
576.08	3223.50
576.27	3479.50
576.47	3065.81
576.66	3231.69
576.86	3540.94
577.05	3280.85
577.25	3174.35
577.44	3248.08
577.64	3184.59
577.83	3448.78
578.02	3076.05
578.22	3243.98
578.41	3710.92
578.61	3350.48
578.80	2861.01
579.00	3090.38
579.19	3133.39
579.39	3346.38
579.58	3168.21
579.77	3157.97
579.97	3514.31
580.16	3502.03
580.36	3262.41
580.55	3106.77
580.75	3282.89
580.94	3211.22
581.13	3254.22
581.33	3319.76
581.52	3229.65
581.72	3690.44
581.91	3221.45
582.11	3084.24
582.30	3448.78
582.49	3368.91
582.69	3336.14
582.88	3153.87
583.08	3303.37
583.27	3461.07
583.47	3211.22
583.66	3024.85
583.85	3002.32
584.05	3188.69
584.24	3264.46
584.44	3137.49
584.63	3436.49
584.82	3559.37
585.02	3364.81
585.21	3121.10
585.41	3373.00
585.60	3264.46
585.79	3323.85
585.99	3393.48
586.18	3295.18
586.37	4284.35
586.57	6260.64
586.76	17493.75
586.96	36754.90
587.15	50160.90
587.34	58584.19
587.54	62618.69
587.73	56011.95
587.93	40476.05
588.12	30768.68
588.31	25425.53
588.51	22316.72
588.70	20750.02
588.89	18386.66
589.09	15560.47
589.28	13530.93
589.47	10805.08
589.67	8089.48
589.86	6553.50
590.06	5005.24
590.25	4532.15
590.44	3872.71
590.64	3508.17
590.83	3596.23
591.02	3614.66
591.22	3086.29
591.41	3155.92
591.60	3196.88
591.80	3817.41
591.99	2955.22
592.18	3131.34
592.38	3493.83
592.57	3182.54
592.76	3098.58
592.96	3178.45
593.15	3211.22
593.34	3504.07
593.54	2998.23
593.73	3168.21
593.92	3272.65
594.12	3399.63
594.31	3260.37
594.50	3311.57
594.70	3368.91
594.89	3780.55
595.08	2951.12
595.28	3209.17
595.47	3919.81
595.66	3454.92
595.86	2947.03
596.05	2985.94
596.24	3207.12
596.43	3604.42
596.63	3227.60
596.82	3174.35
597.01	3362.76
597.21	3637.19
597.40	3110.86
597.59	3196.88
597.79	3172.30
597.98	3477.45
598.17	3182.54
598.36	3155.92
598.56	3483.59
598.75	3155.92
598.94	3229.65
599.14	3168.21
599.33	3237.84
599.52	3475.40
599.71	3203.02
599.91	3082.19
600.10	3426.25
600.29	3364.81
600.48	3194.83
600.68	3172.30
600.87	3385.29
601.06	3141.58
601.26	3090.38
601.45	3217.36
601.64	3229.65
601.83	3596.23
602.03	2953.17
602.22	2983.89
602.41	3514.31
602.60	3721.16
602.80	3215.31
602.99	3303.37
603.18	3039.19
603.37	3319.76
603.57	2983.89
603.76	3018.71
603.95	3590.09
604.14	3153.87
604.34	3035.09
604.53	3053.52
604.72	3336.14
604.91	3395.53
605.10	3094.48
605.30	2967.51
605.49	3729.35
605.68	3409.87
605.87	3063.76
606.07	3026.90
606.26	3358.67
606.45	3434.44
606.64	3082.19
606.84	3010.51
607.03	3264.46
607.22	3450.83
607.41	3141.58
607.60	3074.00
607.80	3528.65
607.99	3229.65
608.18	3131.34
608.37	3069.91
608.56	3243.98
608.76	3528.65
608.95	3235.79
609.14	3041.23
609.33	3555.27
609.52	3522.51
609.72	3221.45
609.91	3188.69
610.10	3381.20
610.29	3624.90
610.48	3178.45
610.68	3209.17
610.87	3256.27
611.06	3360.72
611.25	3076.05
611.44	3190.74
611.63	3254.22
611.83	3557.32
612.02	2910.16
612.21	3223.50
612.40	2934.74
612.59	3065.81
612.79	3008.47
612.98	3198.93
613.17	3684.30
613.36	3256.27
613.55	3151.82
613.74	3139.54
613.93	3350.48
614.13	3422.16
614.32	3252.17
614.51	3131.34
614.70	3309.52
614.89	3246.03
615.08	3184.59
615.28	3442.64
615.47	3096.53
615.66	3456.97
615.85	3221.45
616.04	3221.45
616.23	3289.04
616.42	3264.46
616.62	3098.58
616.81	3102.67
617.00	3291.09
617.19	3321.81
617.38	3065.81
617.57	3151.82
617.76	3391.44
617.95	3530.70
618.15	3256.27
618.34	3229.65
618.53	2992.08
618.72	3534.79
618.91	3235.79
619.10	3164.11
619.29	3403.72
619.48	3334.09
619.68	2992.08
619.87	3035.09
620.06	2994.13
620.25	3381.20
620.44	3076.05
620.63	3082.19
620.82	3358.67
621.01	3321.81
621.20	3045.33
621.39	3168.21
621.59	3284.94
621.78	3246.03
621.97	3067.86
622.16	3174.35
622.35	3264.46
622.54	3493.83
622.73	3178.45
622.92	2824.15
623.11	3598.28
623.30	3141.58
623.49	3266.51
623.68	2975.70
623.88	3606.47
624.07	3155.92
624.26	2961.36
624.45	3000.27
624.64	3151.82
624.83	3393.48
625.02	3094.48
625.21	3123.15
625.40	3340.24
625.59	3637.19
625.78	3123.15
625.97	3102.67
626.16	3522.51
626.35	3495.88
626.54	3141.58
626.74	3338.19
626.93	3297.23
627.12	3205.07
627.31	3172.30
627.50	3110.86
627.69	3452.88
627.88	3164.11
628.07	3037.14
628.26	2877.40
628.45	3131.34
628.64	3039.19
628.83	2965.46
629.02	2957.27
629.21	3409.87
629.40	3381.20
629.59	2977.75
629.78	3147.73
629.97	3311.57
630.16	3360.72
630.35	3047.38
630.54	3076.05
630.73	3200.98
630.92	3264.46
631.11	3008.47
631.30	3188.69
631.49	3450.83
631.68	3180.50
631.87	3131.34
632.06	2983.89
632.25	3829.70
632.44	3344.33
632.63	3192.78
632.82	3076.05
633.01	3143.63
633.20	3338.19
633.39	3100.62
633.58	2959.31
633.77	3405.77
633.96	3377.10
634.15	3168.21
634.34	3135.44
634.53	3321.81
634.72	3157.97
634.91	2963.41
635.10	3065.81
635.29	3334.09
635.48	3315.66
635.67	2959.31
635.86	2920.40
636.05	3620.81
636.24	3266.51
636.43	3117.01
636.62	3262.41
636.81	2832.34
637.00	3334.09
637.19	3108.82
637.38	3053.52
637.57	3319.76
637.76	3389.39
637.95	3289.04
638.14	3286.99
638.33	3383.24
638.52	3295.18
638.71	2975.70
638.89	2944.98
639.08	3854.28
639.27	3479.50
639.46	3270.61
639.65	3758.02
639.84	3905.48
640.03	4007.87
640.22	3612.62
640.41	3547.08
640.60	3401.68
640.79	3454.92
640.98	3352.52
641.17	3297.23
641.36	3549.13
641.55	3409.87
641.74	2934.74
641.92	2965.46
642.11	3121.10
642.30	3323.85
642.49	2951.12
642.68	3026.90
642.87	3438.54
643.06	3426.25
643.25	2959.31
643.44	2951.12
643.63	3286.99
643.82	3389.39
644.00	2971.60
644.19	3141.58
644.38	3086.29
644.57	3440.59
644.76	3108.82
644.95	3241.93
645.14	3291.09
645.33	3239.89
645.52	3086.29
645.71	2887.64
645.89	3022.80
646.08	3243.98
646.27	3137.49
646.46	3352.52
646.65	2985.94
646.84	3311.57
647.03	2998.23
647.22	3196.88
647.40	3305.42
647.59	3278.80
647.78	2828.24
647.97	3037.14
648.16	3020.75
648.35	3471.31
648.54	3274.70
648.73	3114.96
648.91	3506.12
649.10	3325.90
649.29	2979.79
649.48	2944.98
649.67	3379.15
649.86	3405.77
650.05	3125.20
650.23	3221.45
650.42	3157.97
650.61	3583.95
650.80	3286.99
650.99	3379.15
651.18	3471.31
651.36	3536.84
651.55	2994.13
651.74	3227.60
651.93	3227.60
652.12	3207.12
652.31	3065.81
652.49	3135.44
652.68	3170.26
652.87	3491.79
653.06	3125.20
653.25	3373.00
653.44	3166.16
653.62	3663.82
653.81	3143.63
654.00	3117.01
654.19	3467.21
654.38	3798.98
654.56	3174.35
654.75	3028.95
654.94	3469.26
655.13	3360.72
655.32	3071.95
655.51	3178.45
655.69	3231.69
655.88	3391.44
656.07	2912.21
656.26	3139.54
656.45	2967.51
656.63	3282.89
656.82	3043.28
657.01	3295.18
657.20	3100.62
657.38	3610.57
657.57	2987.99
657.76	2877.40
657.95	3381.20
658.14	3174.35
658.32	3231.69
658.51	2975.70
658.70	3305.42
658.89	3350.48
659.08	3180.50
659.26	3336.14
659.45	3157.97
659.64	3387.34
659.83	3108.82
660.01	3459.02
660.20	3319.76
660.39	3626.95
660.58	2713.56
660.76	3166.16
660.95	3004.37
661.14	3280.85
661.33	2897.88
661.51	3071.95
661.70	3153.87
661.89	3297.23
662.08	3131.34
662.26	2934.74
662.45	3045.33
662.64	3614.66
662.83	3143.63
663.01	2967.51
663.20	3196.88
663.39	3557.32
663.58	3067.86
663.76	3035.09
663.95	3391.44
664.14	3092.43
664.32	3172.30
664.51	2953.17
664.70	2973.65
664.89	3393.48
665.07	2877.40
665.26	3190.74
665.45	3049.43
665.64	3405.77
665.82	3047.38
666.01	3239.89
666.20	3037.14
666.38	3452.88
666.57	3373.00
666.76	5498.80
666.95	12732.22
667.13	19973.84
667.32	24565.39
667.51	27659.87
667.69	28685.90
667.88	23969.43
668.07	17245.94
668.25	14716.70
668.44	12767.04
668.63	10944.34
668.81	9539.44
669.00	8519.55
669.19	7710.60
669.38	6664.09
669.56	5640.11
669.75	4951.99
669.94	4462.52
670.12	3880.90
670.31	3432.40
670.50	3342.28
670.68	3534.79
670.87	3383.24
671.06	3082.19
671.24	3166.16
671.43	3606.47
671.62	3305.42
671.80	3045.33
671.99	3203.02
672.18	3393.48
672.36	3383.24
672.55	3205.07
672.74	3147.73
672.92	3176.40
673.11	3477.45
673.29	2971.60
673.48	3344.33
673.67	3248.08
673.85	3454.92
674.04	3000.27
674.23	3112.91
674.41	3631.05
674.60	3092.43
674.79	2926.55
674.97	2953.17
675.16	3393.48
675.34	3446.73
675.53	3092.43
675.72	3157.97
675.90	3676.10
676.09	3176.40
676.28	3164.11
676.46	2992.08
676.65	3436.49
676.83	3078.10
677.02	3078.10
677.21	3229.65
677.39	3332.05
677.58	3084.24
677.77	3090.38
677.95	3033.04
678.14	3190.74
678.32	3205.07
678.51	3170.26
678.70	3469.26
678.88	3106.77
679.07	3286.99
679.25	3057.62
679.44	3092.43
679.63	3041.23
679.81	3278.80
680.00	3282.89
680.18	3123.15
680.37	3663.82
680.55	3286.99
680.74	2994.13
680.93	2789.33
681.11	3325.90
681.30	3180.50
681.48	3112.91
681.67	3090.38
681.85	3278.80
682.04	3094.48
682.23	3256.27
682.41	3106.77
682.60	3198.93
682.78	3248.08
682.97	2961.36
683.15	3133.39
683.34	3356.62
683.53	3606.47
683.71	2992.08
683.90	3198.93
684.08	3645.38
684.27	3221.45
684.45	3110.86
684.64	3225.55
684.82	3330.00
685.01	3350.48
685.19	2975.70
685.38	3327.95
685.57	3225.55
685.75	3074.00
685.94	3026.90
686.12	2975.70
686.31	3131.34
686.49	3698.63
686.68	2893.78
686.86	3074.00
687.05	3215.31
687.23	3567.56
687.42	3069.91
687.60	2940.88
687.79	3504.07
687.97	3633.10
688.16	3170.26
688.34	3286.99
688.53	2973.65
688.71	3450.83
688.90	3409.87
689.08	3098.58
689.27	3026.90
689.45	3434.44
689.64	3217.36
689.82	3166.16
690.01	3368.91
690.19	3409.87
690.38	3135.44
690.56	3252.17
690.75	3090.38
690.93	3151.82
691.12	3049.43
691.30	3166.16
691.49	3174.35
691.67	3239.89
691.86	3313.61
692.04	3024.85
692.23	3219.41
692.41	3250.13
692.60	3471.31
692.78	3334.09
692.97	3270.61
693.15	3360.72
693.34	3332.05
693.52	3276.75
693.71	3172.30
693.89	3114.96
694.08	2942.93
694.26	3108.82
694.44	3409.87
694.63	3409.87
694.81	2983.89
695.00	3059.67
695.18	3561.42
695.37	3835.85
695.55	3264.46
695.74	3139.54
695.92	3190.74
696.10	3534.79
696.29	2932.69
696.47	3041.23
696.66	3012.56
696.84	3014.61
697.03	3100.62
697.21	3401.68
697.40	4601.79
697.58	3510.22
697.76	3086.29
697.95	3164.11
698.13	3088.34
698.32	3211.22
698.50	3045.33
698.68	3110.86
698.87	3274.70
699.05	3653.58
699.24	3041.23
699.42	3037.14
699.61	3297.23
699.79	3327.95
699.97	3041.23
700.16	2942.93
700.34	3020.75
700.53	3311.57
700.71	3241.93
700.89	3198.93
701.08	3194.83
701.26	3315.66
701.45	3413.96
701.63	3082.19
701.81	3149.78
702.00	3108.82
702.18	3162.06
702.37	3067.86
702.55	3483.59
702.73	3379.15
702.92	3092.43
703.10	3540.94
703.28	3477.45
703.47	3114.96
703.65	3327.95
703.84	3196.88
704.02	3168.21
704.20	3637.19
704.39	3061.71
704.57	3061.71
704.75	3493.83
704.94	3381.20
705.12	3270.61
705.30	3968.96
705.49	8437.63
705.67	16744.19
705.86	23248.54
706.04	26230.38
706.22	29075.01
706.41	28094.04
706.59	21044.93
706.77	16418.57
706.96	14368.55
707.14	12957.50
707.32	10903.39
707.51	9490.29
707.69	7774.09
707.87	6619.04
708.06	5320.62
708.24	4523.96
708.42	4102.08
708.61	4196.29
708.79	3229.65
708.97	3321.81
709.16	3444.68
709.34	3344.33
709.52	3121.10
709.71	3139.54
709.89	3356.62
710.07	3160.02
710.26	3043.28
710.44	3055.57
710.62	3393.48
710.80	3319.76
710.99	3198.93
711.17	3200.98
711.35	3217.36
711.54	3045.33
711.72	3256.27
711.90	3186.64
712.09	3424.20
712.27	3131.34
712.45	3215.31
712.63	3002.32
712.82	3317.71
713.00	3241.93
713.18	3227.60
713.37	3280.85
713.55	3424.20
713.73	3375.05
713.91	3188.69
714.10	3086.29
714.28	3233.74
714.46	3370.96
714.65	3250.13
714.83	3147.73
715.01	3344.33
715.19	3243.98
715.38	3010.51
715.56	3198.93
715.74	3082.19
715.92	3051.47
716.11	3360.72
716.29	2785.24
716.47	3338.19
716.65	3301.33
716.84	3014.61
717.02	3112.91
717.20	2973.65
717.38	3039.19
717.57	3188.69
717.75	3141.58
717.93	3168.21
718.11	3456.97
718.30	2963.41
718.48	3160.02
718.66	3383.24
718.84	3403.72
719.03	3057.62
719.21	2987.99
719.39	3483.59
719.57	3393.48
719.75	3104.72
719.94	3000.27
720.12	3260.37
720.30	3282.89
720.48	3209.17
720.67	3145.68
720.85	3131.34
721.03	3217.36
721.21	2965.46
721.39	3141.58
721.58	3381.20
721.76	3319.76
721.94	3090.38
722.12	3221.45
722.30	3633.10
722.49	3141.58
722.67	3037.14
722.85	3098.58
723.03	3037.14
723.21	3106.77
723.40	3166.16
723.58	3229.65
723.76	3409.87
723.94	3565.51
724.12	3155.92
724.30	3346.38
724.49	3389.39
724.67	3065.81
724.85	3174.35
725.03	3043.28
725.21	3254.22
725.40	3514.31
725.58	3162.06
725.76	3317.71
725.94	3389.39
726.12	3024.85
726.30	3104.72
726.49	3098.58
726.67	3145.68
726.85	3487.69
727.03	3901.38
727.21	5404.59
727.39	7149.46
727.57	7774.09
727.76	8261.51
727.94	8292.23
728.12	7206.80
728.30	5859.24
728.48	5427.12
728.66	5181.36
728.84	4706.23
729.03	4206.53
729.21	3825.61
729.39	3610.57
729.57	3438.54
729.75	3303.37
729.93	3346.38
730.11	3063.76
730.30	3225.55
730.48	3278.80
730.66	3145.68
730.84	3209.17
731.02	3233.74
731.20	3192.78
731.38	3157.97
731.56	3004.37
731.74	3014.61
731.93	3422.16
732.11	3215.31
732.29	3076.05
732.47	3442.64
732.65	3377.10
732.83	3266.51
733.01	3213.26
733.19	3045.33
733.37	3362.76
733.56	3028.95
733.74	3033.04
733.92	3567.56
734.10	3196.88
734.28	3301.33
734.46	2932.69
734.64	3149.78
734.82	3198.93
735.00	3024.85
735.18	3012.56
735.36	3264.46
735.54	3239.89
735.73	3147.73
735.91	3108.82
736.09	3606.47
736.27	3332.05
736.45	3190.74
736.63	2852.82
736.81	3217.36
736.99	3502.03
737.17	3272.65
737.35	3106.77
737.53	3286.99
737.71	3260.37
737.89	3284.94
738.07	3000.27
738.25	3133.39
738.43	3028.95
738.61	3137.49
738.80	3002.32
738.98	3033.04
739.16	3082.19
739.34	3033.04
739.52	3364.81
739.70	3180.50
739.88	3405.77
740.06	3188.69
740.24	2863.06
740.42	3499.98
740.60	2910.16
740.78	3108.82
740.96	2869.20
741.14	3256.27
741.32	3321.81
741.50	3004.37
741.68	3323.85
741.86	3551.18
742.04	2990.03
742.22	3033.04
742.40	3028.95
742.58	3418.06
742.76	3131.34
742.94	3221.45
743.12	2824.15
743.30	3291.09
743.48	3393.48
743.66	3055.57
743.84	3074.00
744.02	3280.85
744.20	3203.02
744.38	2951.12
744.56	3033.04
744.74	3643.34
744.92	3397.58
745.10	3377.10
745.28	3153.87
745.46	3588.04
745.64	3221.45
745.82	3133.39
746.00	3051.47
746.18	3360.72
746.36	3084.24
746.54	3071.95
746.72	3106.77
746.90	3041.23
747.08	3475.40
747.26	3065.81
747.44	3153.87
747.62	3446.73
747.80	3346.38
747.98	3176.40
748.15	3067.86
748.33	3592.14
748.51	3344.33
748.69	3164.11
748.87	2983.89
749.05	3307.47
749.23	3231.69
749.41	3092.43
749.59	3065.81
749.77	3502.03
749.95	3196.88
750.13	3041.23
750.31	3260.37
750.49	3205.07
750.67	3428.30
750.85	3239.89
751.03	3022.80
751.20	3717.06
751.38	3311.57
751.56	3110.86
751.74	3084.24
751.92	3192.78
752.10	3155.92
752.28	3272.65
752.46	3028.95
752.64	3239.89
752.82	3319.76
753.00	3229.65
753.18	3092.43
753.35	3184.59
753.53	3311.57
753.71	2963.41
753.89	3213.26
754.07	3352.52
754.25	3366.86
754.43	3139.54
754.61	3002.32
754.79	3364.81
754.97	3264.46
755.14	3260.37
755.32	2953.17
755.50	3317.71
755.68	3327.95
755.86	3026.90
756.04	2977.75
756.22	2938.84
756.40	3442.64
756.57	3315.66
756.75	3041.23
756.93	3440.59
757.11	3438.54
757.29	2994.13
757.47	3049.43
757.65	2959.31
757.82	2893.78
758.00	2975.70
758.18	2987.99
758.36	3145.68
758.54	3661.77
758.72	2850.77
758.90	3182.54
759.07	3377.10
759.25	3108.82
759.43	3164.11
759.61	2918.36
759.79	4472.76
759.97	3510.22
760.15	3094.48
760.32	3174.35
760.50	3334.09
760.68	3551.18
760.86	2967.51
761.04	3280.85
761.22	3397.58
761.39	3315.66
761.57	3196.88
761.75	3041.23
761.93	3360.72
762.11	3241.93
762.28	3188.69
762.46	3033.04
762.64	3434.44
762.82	3123.15
763.00	2957.27
763.18	3280.85
763.35	3086.29
763.53	3450.83
763.71	3123.15
763.89	3082.19
764.07	3342.28
764.24	3258.32
764.42	3153.87
764.60	3141.58
764.78	3383.24
764.96	3336.14
765.13	3286.99
765.31	2975.70
765.49	3391.44
765.67	3125.20
765.84	3022.80
766.02	2996.18
766.20	2951.12
766.38	3373.00
766.56	3200.98
766.73	3188.69
766.91	3297.23
767.09	3280.85
767.27	3168.21
767.44	2942.93
767.62	3409.87
767.80	3254.22
767.98	3045.33
768.15	3074.00
768.33	3393.48
768.51	3471.31
768.69	3217.36
768.87	3084.24
769.04	3303.37
769.22	3792.84
769.40	3252.17
769.58	3155.92
769.75	3352.52
769.93	3588.04
770.11	3096.53
770.28	2987.99
770.46	3436.49
770.64	3364.81
770.82	3098.58
770.99	2967.51
771.17	3481.55
771.35	3143.63
771.53	3125.20
771.70	2965.46
771.88	3370.96
772.06	3311.57
772.23	3000.27
772.41	3061.71
772.59	3164.11
772.77	3061.71
772.94	3088.34
773.12	3143.63
773.30	3176.40
773.47	3346.38
773.65	3000.27
773.83	3270.61
774.01	3344.33
774.18	2897.88
774.36	3112.91
774.54	2908.12
774.71	3321.81
774.89	3026.90
775.07	2967.51
775.24	3057.62
775.42	3168.21
775.60	3618.76
775.78	2979.79
775.95	2934.74
776.13	2992.08
776.31	2961.36
776.48	3278.80
776.66	3235.79
776.84	3166.16
777.01	3088.34
777.19	2985.94
777.37	2983.89
777.54	3368.91
777.72	3700.68
777.90	3188.69
778.07	3022.80
778.25	3971.01
778.43	3364.81
778.60	2987.99
778.78	3239.89
778.96	3559.37
779.13	2985.94
779.31	3207.12
779.49	3176.40
779.66	3362.76
779.84	3182.54
780.01	3018.71
780.19	2977.75
780.37	3516.36
780.54	3450.83
780.72	2951.12
780.90	3114.96
781.07	3307.47
781.25	3117.01
781.43	3295.18
781.60	3100.62
781.78	3459.02
781.95	3323.85
782.13	3033.04
782.31	3057.62
782.48	2863.06
782.66	3297.23
782.83	3274.70
783.01	3168.21
783.19	3373.00
783.36	3217.36
783.54	3014.61
783.72	3155.92
783.89	3151.82
784.07	3327.95
784.24	3198.93
784.42	3231.69
784.60	3272.65
784.77	3272.65
784.95	2877.40
785.12	3065.81
785.30	3311.57
785.47	3135.44
785.65	2973.65
785.83	3123.15
786.00	3155.92
786.18	3311.57
786.35	2987.99
786.53	2930.64
786.71	3430.35
786.88	3391.44
787.06	3145.68
787.23	3088.34
787.41	3102.67
787.58	3164.11
787.76	3055.57
787.94	3153.87
788.11	3313.61
788.29	3084.24
788.46	3078.10
788.64	2930.64
788.81	3237.84
788.99	3055.57
789.16	3041.23
789.34	3074.00
789.52	3233.74
789.69	3139.54
789.87	2836.44
790.04	3080.14
790.22	3250.13
790.39	3688.39
790.57	2910.16
790.74	3041.23
790.92	3512.27
791.09	3012.56
791.27	3117.01
791.44	3147.73
791.62	3162.06
791.79	3461.07
791.97	3078.10
792.15	3430.35
792.32	3418.06
792.50	3491.79
792.67	3282.89
792.85	3420.11
793.02	3282.89
793.20	3184.59
793.37	2971.60
793.55	2975.70
793.72	3051.47
793.90	3424.20
794.07	3024.85
794.25	2967.51
794.42	3289.04
794.60	3217.36
794.77	3155.92
794.95	3135.44
795.12	3424.20
795.30	3313.61
795.47	2813.91
795.65	3459.02
795.82	3395.53
796.00	3225.55
796.17	3149.78
796.34	2971.60
796.52	3338.19
796.69	3379.15
796.87	3323.85
797.04	3196.88
797.22	3483.59
797.39	3309.52
797.57	3254.22
797.74	3145.68
797.92	3315.66
798.09	3088.34
798.27	3350.48
798.44	3059.67
798.62	3143.63
798.79	3225.55
798.96	3180.50
799.14	3051.47
799.31	3755.97
799.49	3153.87
799.66	3114.96
799.84	3078.10
800.01	2908.12
800.19	3307.47
800.36	2844.63
800.53	3082.19
800.71	3395.53
800.88	3604.42
801.06	2961.36
801.23	3117.01
801.41	3205.07
801.58	3166.16
801.75	3098.58
801.93	3123.15
802.10	3272.65
802.28	3164.11
802.45	3055.57
802.63	3196.88
802.80	3557.32
802.97	3225.55
803.15	3110.86
803.32	3108.82
803.50	3119.06
803.67	3119.06
803.84	3037.14
804.02	3125.20
804.19	3200.98
804.37	2856.92
804.54	2942.93
804.71	3024.85
804.89	3305.42
805.06	3170.26
805.24	3010.51
805.41	2942.93
805.58	3098.58
805.76	3741.64
805.93	3028.95
806.10	3231.69
806.28	3389.39
806.45	3221.45
806.63	3274.70
806.80	3180.50
806.97	3225.55
807.15	3291.09
807.32	3188.69
807.49	3035.09
807.67	2951.12
807.84	3401.68
808.01	2920.40
808.19	3274.70
808.36	3698.63
808.54	3198.93
808.71	3049.43
808.88	3010.51
809.06	3542.99
809.23	3569.61
809.40	3139.54
809.58	2998.23
809.75	3225.55
809.92	3018.71
810.10	3293.13
810.27	3024.85
810.44	3301.33
810.62	3418.06
810.79	3114.96
810.96	3082.19
811.14	3188.69
811.31	3330.00
811.48	3219.41
811.66	3125.20
811.83	3516.36
812.00	3401.68
812.18	3164.11
812.35	3379.15
812.52	3168.21
812.69	3137.49
812.87	3135.44
813.04	3033.04
813.21	3145.68
813.39	3139.54
813.56	2992.08
813.73	3446.73
813.91	2963.41
814.08	3276.75
814.25	3067.86
814.42	2899.92
814.60	3243.98
814.77	3268.56
814.94	2994.13
815.12	3160.02
815.29	3610.57
815.46	3078.10
815.63	3074.00
815.81	3008.47
815.98	3264.46
816.15	3221.45
816.33	3211.22
816.50	3049.43
816.67	3235.79
816.84	3239.89
817.02	2924.50
817.19	3100.62
817.36	3346.38
817.53	3373.00
817.71	2977.75
817.88	3100.62
818.05	3194.83
818.22	3239.89
818.40	3231.69
818.57	3114.96
818.74	3303.37
818.91	3264.46
819.09	3176.40
819.26	3200.98
819.43	3080.14
819.60	3065.81
819.78	3223.50
819.95	3114.96
820.12	3063.76
820.29	3563.47
820.47	3317.71
820.64	3014.61
820.81	3012.56
820.98	3147.73
821.15	3094.48
821.33	3229.65
821.50	2963.41
821.67	3397.58
821.84	3082.19
822.02	3074.00
822.19	3336.14
822.36	3145.68
822.53	3030.99
822.70	2979.79
822.88	3157.97
823.05	3571.66
823.22	3170.26
823.39	2971.60
823.56	3215.31
823.74	3676.10
823.91	2955.22
824.08	3098.58
824.25	2969.55
824.42	3559.37
824.60	2895.83
824.77	3215.31
824.94	3295.18
825.11	3389.39
825.28	2901.97
825.45	3192.78
825.63	3289.04
825.80	3082.19
825.97	3229.65
826.14	3098.58
826.31	2959.31
826.48	3403.72
826.66	3096.53
826.83	3098.58
827.00	3203.02
827.17	3074.00
827.34	3131.34
827.51	3006.42
827.69	3221.45
827.86	3057.62
828.03	3176.40
828.20	3065.81
828.37	3071.95
828.54	3332.05
828.71	3037.14
828.89	3166.16
829.06	3319.76
829.23	3528.65
829.40	3117.01
829.57	3037.14
829.74	3395.53
829.91	3114.96
830.09	2975.70
830.26	3284.94
830.43	3612.62
830.60	3137.49
830.77	3235.79
830.94	3284.94
831.11	3418.06
831.28	3209.17
831.46	3284.94
831.63	2934.74
831.80	3493.83
831.97	3100.62
832.14	3059.67
832.31	3082.19
832.48	3268.56
832.65	3459.02
832.82	3110.86
832.99	3164.11
833.17	3069.91
833.34	3553.23
833.51	2979.79
833.68	2772.95
833.85	3577.80
834.02	3114.96
834.19	3016.66
834.36	3069.91
834.53	3291.09
834.70	3424.20
834.87	3078.10
835.04	2779.09
835.22	3114.96
835.39	3184.59
835.56	2869.20
835.73	2928.60
835.90	3424.20
836.07	3110.86
836.24	3055.57
836.41	2844.63
836.58	3106.77
836.75	3502.03
836.92	2830.29
837.09	2809.81
837.26	3459.02
837.43	3227.60
837.60	2971.60
837.77	2942.93
837.94	3442.64
838.12	3532.75
838.29	2928.60
838.46	2844.63
838.63	3024.85
838.80	3606.47
838.97	2942.93
839.14	2844.63
839.31	3254.22
839.48	3424.20
839.65	2869.20
839.82	2969.55
839.99	3334.09
840.16	3264.46
840.33	2899.92
840.50	2926.55
840.67	3045.33
840.84	2787.29
841.01	2850.77
841.18	2910.16
841.35	3198.93
841.52	3385.29
841.69	3237.84
841.86	3024.85
842.03	3260.37
842.20	3403.72
842.37	2922.45
842.54	2936.79
842.71	3192.78
842.88	2938.84
843.05	2985.94
843.22	2877.40
843.39	3381.20
843.56	3141.58
843.73	2934.74
843.90	3008.47
844.07	3225.55
844.24	3368.91
844.41	3033.04
844.58	2979.79
844.75	3301.33
844.92	3313.61
845.09	3004.37
845.26	2926.55
845.43	3348.43
845.60	3129.30
845.77	3088.34
845.94	2979.79
846.10	3456.97
846.27	2983.89
846.44	2779.09
846.61	2746.33
846.78	3354.57
846.95	3473.36
847.12	2861.01
847.29	2944.98
847.46	3049.43
847.63	3413.96
847.80	2793.43
847.97	2963.41
848.14	3715.02
848.31	3248.08
848.48	2830.29
848.65	2949.08
848.82	3160.02
848.98	3762.12
849.15	3020.75
849.32	3074.00
849.49	3383.24
849.66	3190.74
849.83	2885.59
850.00	2861.01
850.17	3368.91
850.34	3157.97
850.51	2897.88
850.68	3006.42
850.85	3727.30
851.01	3282.89
851.18	2895.83
851.35	2951.12
851.52	3334.09
851.69	3532.75
851.86	2854.87
852.03	2912.21
852.20	3434.44
852.37	3200.98
852.53	2772.95
852.70	2834.39
852.87	3350.48
853.04	3422.16
853.21	2908.12
853.38	3213.26
853.55	3528.65
853.72	3524.55
853.89	2869.20
854.05	2926.55
854.22	3172.30
854.39	3178.45
854.56	2852.82
854.73	3053.52
854.90	3092.43
855.07	3190.74
855.23	2717.65
855.40	2813.91
855.57	3235.79
855.74	2801.62
855.91	3194.83
856.08	2742.23
856.25	3030.99
856.41	3125.20
856.58	2920.40
856.75	2856.92
856.92	3071.95
857.09	3436.49
857.26	2725.85
857.42	2967.51
857.59	3497.93
857.76	3205.07
857.93	2934.74
858.10	2949.08
858.27	3045.33
858.43	3260.37
858.60	2914.26
858.77	2877.40
858.94	3149.78
859.11	3483.59
859.27	2983.89
859.44	2844.63
859.61	3657.67
859.78	3330.00
859.95	2920.40
860.12	2801.62
860.28	3723.21
860.45	3581.90
860.62	2836.44
860.79	2955.22
860.95	3254.22
861.12	3121.10
861.29	2834.39
861.46	2861.01
861.63	3282.89
861.79	3327.95
861.96	2783.19
862.13	2971.60
862.30	3491.79
862.47	3162.06
862.63	2750.42
862.80	3010.51
862.97	3483.59
863.14	3332.05
863.30	2936.79
863.47	2762.71
863.64	3557.32
863.81	3256.27
863.97	2815.96
864.14	2887.64
864.31	3237.84
864.48	3387.34
864.65	2912.21
864.81	3135.44
864.98	3364.81
865.15	3401.68
865.32	3049.43
865.48	2959.31
865.65	3635.14
865.82	3241.93
865.98	3030.99
866.15	3065.81
866.32	3266.51
866.49	3268.56
866.65	3071.95
866.82	2928.60
866.99	3272.65
867.16	3157.97
867.32	2891.73
867.49	2803.67
867.66	3176.40
867.83	3198.93
867.99	2803.67
868.16	2889.68
868.33	3022.80
868.49	3135.44
868.66	3004.37
868.83	3033.04
868.99	3270.61
869.16	3256.27
869.33	3086.29
869.50	3020.75
869.66	3309.52
869.83	3225.55
870.00	2840.53
870.16	3041.23
870.33	3237.84
870.50	3436.49
870.66	3016.66
870.83	2891.73
871.00	3200.98
871.17	3254.22
871.33	2967.51
871.50	2795.48
871.67	3270.61
871.83	3065.81
872.00	3053.52
872.17	2930.64
872.33	3659.72
872.50	3485.64
872.67	2889.68
872.83	2920.40
873.00	3299.28
873.17	3286.99
873.33	2918.36
873.50	2969.55
873.67	3090.38
873.83	3104.72
874.00	2930.64
874.16	3076.05
874.33	3323.85
874.50	2965.46
874.66	2838.48
874.83	3043.28
875.00	3512.27
875.16	3426.25
875.33	3071.95
875.50	2736.09
875.66	3147.73
875.83	3262.41
875.99	2990.03
876.16	3039.19
876.33	3110.86
876.49	3270.61
876.66	2959.31
876.83	3018.71
876.99	2959.31
877.16	3293.13
877.32	2852.82
877.49	2961.36
877.66	3334.09
877.82	3567.56
877.99	2994.13
878.15	3196.88
878.32	3360.72
878.49	3323.85
878.65	3057.62
878.82	3194.83
878.98	3078.10
879.15	3545.03
879.32	3135.44
879.48	3117.01
879.65	3213.26
879.81	3250.13
879.98	2947.03
880.15	3026.90
880.31	3389.39
880.48	3074.00
880.64	3084.24
880.81	3108.82
880.97	3592.14
881.14	3497.93
881.31	2967.51
881.47	3076.05
881.64	3241.93
881.80	3016.66
881.97	3149.78
882.13	2967.51
882.30	3041.23
882.47	3184.59
882.63	2953.17
882.80	2856.92
882.96	3166.16
883.13	3526.60
883.29	2973.65
883.46	2869.20
883.62	3696.58
883.79	3262.41
883.95	3055.57
884.12	2928.60
884.29	3504.07
884.45	3352.52
884.62	3035.09
884.78	2858.96
884.95	3577.80
885.11	3065.81
885.28	3026.90
885.44	2987.99
885.61	3354.57
885.77	3602.38
885.94	3026.90
886.10	3022.80
886.27	3334.09
886.43	3604.42
886.60	3172.30
886.76	2953.17
886.93	3117.01
887.09	3233.74
887.26	2820.05
887.42	3045.33
887.59	3456.97
887.75	3657.67
887.92	3096.53
888.08	3119.06
888.25	3629.00
888.41	3508.17
888.58	3037.14
888.74	2891.73
888.91	3174.35
>>>>>End Processed Spectral Data<<<<<
