SpectraSuite Data File
++++++++++++++++++++++++++++++++++++
Date: Fri May 06 08:14:11 CEST 2016
User: root
Dark Spectrum Present: No
Reference Spectrum Present: No
Number of Sampled Component Spectra: 1
Spectrometers: USB4C02835
Integration Time (usec): 100000 (USB4C02835)
Spectra Averaged: 1 (USB4C02835)
Boxcar Smoothing: 0 (USB4C02835)
Correct for Electrical Dark: No (USB4C02835)
Strobe/Lamp Enabled: No (USB4C02835)
Correct for Detector Non-linearity: No (USB4C02835)
Correct for Stray Light: No (USB4C02835)
Number of Pixels in Processed Spectrum: 3648
>>>>>Begin Processed Spectral Data<<<<<
177.47	2263.01
177.69	2263.01
177.91	2263.01
178.13	2197.47
178.36	2285.53
178.58	3030.99
178.80	3110.86
179.02	3016.66
179.24	3141.58
179.46	2766.81
179.68	2828.24
179.90	3274.70
180.13	3276.75
180.35	2615.26
180.57	2803.67
180.79	3489.74
181.01	3303.37
181.23	2883.54
181.45	3076.05
181.67	3416.01
181.90	3444.68
182.12	2971.60
182.34	2729.94
182.56	3409.87
182.78	3362.76
183.00	2809.81
183.22	2871.25
183.44	2901.97
183.66	3950.53
183.89	2994.13
184.11	2883.54
184.33	3413.96
184.55	3508.17
184.77	2824.15
184.99	2891.73
185.21	3237.84
185.43	3821.51
185.65	2850.77
185.87	2885.59
186.10	3790.79
186.32	3706.82
186.54	3030.99
186.76	2957.27
186.98	3512.27
187.20	3213.26
187.42	2938.84
187.64	2828.24
187.86	3454.92
188.08	3516.36
188.30	2736.09
188.52	2885.59
188.75	3524.55
188.97	3590.09
189.19	2879.44
189.41	2867.16
189.63	3395.53
189.85	3190.74
190.07	2705.37
190.29	2693.08
190.51	3368.91
190.73	3006.42
190.95	2967.51
191.17	2926.55
191.39	2983.89
191.61	3176.40
191.84	2811.86
192.06	2967.51
192.28	2969.55
192.50	3985.35
192.72	3012.56
192.94	2979.79
193.16	3561.42
193.38	3368.91
193.60	2775.00
193.82	3057.62
194.04	3459.02
194.26	3327.95
194.48	2877.40
194.70	2981.84
194.92	3155.92
195.14	3381.20
195.36	2854.87
195.58	2969.55
195.80	3301.33
196.02	3198.93
196.24	2832.34
196.46	2967.51
196.69	3196.88
196.91	3813.32
197.13	2979.79
197.35	2865.11
197.57	3596.23
197.79	3426.25
198.01	2944.98
198.23	2904.02
198.45	3436.49
198.67	3098.58
198.89	2779.09
199.11	3000.27
199.33	3088.34
199.55	2885.59
199.77	2799.57
199.99	2985.94
200.21	3286.99
200.43	3403.72
200.65	2775.00
200.87	2740.18
201.09	3186.64
201.31	3254.22
201.53	2885.59
201.75	2932.69
201.97	3254.22
202.19	3327.95
202.41	3004.37
202.63	3012.56
202.85	3418.06
203.07	3420.11
203.29	2893.78
203.51	2760.66
203.73	3143.63
203.95	3839.94
204.17	2885.59
204.39	3035.09
204.61	3280.85
204.83	3307.47
205.05	3039.19
205.27	2901.97
205.49	3753.93
205.71	3243.98
205.93	2680.79
206.15	2762.71
206.37	3286.99
206.59	3237.84
206.81	2725.85
207.03	2809.81
207.25	3164.11
207.47	3446.73
207.69	2854.87
207.91	3108.82
208.13	3674.06
208.34	3162.06
208.56	2818.00
208.78	2852.82
209.00	3272.65
209.22	3235.79
209.44	2871.25
209.66	2789.33
209.88	3301.33
210.10	3139.54
210.32	2832.34
210.54	3049.43
210.76	3246.03
210.98	3330.00
211.20	2715.61
211.42	2944.98
211.64	3571.66
211.86	3401.68
212.08	3024.85
212.30	2820.05
212.52	3217.36
212.74	3358.67
212.96	2940.88
213.17	2920.40
213.39	3508.17
213.61	3635.14
213.83	2818.00
214.05	2729.94
214.27	3489.74
214.49	3094.48
214.71	2818.00
214.93	2959.31
215.15	3319.76
215.37	3360.72
215.59	2744.28
215.81	2963.41
216.03	3579.85
216.24	3360.72
216.46	2891.73
216.68	2852.82
216.90	3364.81
217.12	3518.41
217.34	2869.20
217.56	3018.71
217.78	3565.51
218.00	3344.33
218.22	2998.23
218.44	3010.51
218.66	3297.23
218.87	3696.58
219.09	2871.25
219.31	2904.02
219.53	3313.61
219.75	3219.41
219.97	2918.36
220.19	2881.49
220.41	3274.70
220.63	3598.28
220.85	2916.31
221.06	2895.83
221.28	3540.94
221.50	3407.82
221.72	2838.48
221.94	2740.18
222.16	3213.26
222.38	3534.79
222.60	2822.10
222.82	2996.18
223.03	3491.79
223.25	3100.62
223.47	2731.99
223.69	3086.29
223.91	3440.59
224.13	3379.15
224.35	2748.37
224.57	3082.19
224.78	3452.88
225.00	3147.73
225.22	2901.97
225.44	2840.53
225.66	3397.58
225.88	3207.12
226.10	2877.40
226.32	2848.72
226.53	3532.75
226.75	3239.89
226.97	2940.88
227.19	2828.24
227.41	3133.39
227.63	3133.39
227.85	2678.74
228.06	2895.83
228.28	3352.52
228.50	3416.01
228.72	2758.61
228.94	2820.05
229.16	2953.17
229.37	3129.30
229.59	2791.38
229.81	3090.38
230.03	3200.98
230.25	2957.27
230.47	2701.27
230.69	2766.81
230.90	3411.92
231.12	3108.82
231.34	2944.98
231.56	2975.70
231.78	3043.28
232.00	3289.04
232.21	2897.88
232.43	2852.82
232.65	2852.82
232.87	3344.33
233.09	2678.74
233.30	2873.30
233.52	3545.03
233.74	3227.60
233.96	2744.28
234.18	3041.23
234.40	3239.89
234.61	3796.93
234.83	2705.37
235.05	2848.72
235.27	3803.08
235.49	3440.59
235.70	2783.19
235.92	2942.93
236.14	3405.77
236.36	3796.93
236.58	2693.08
236.79	2938.84
237.01	3358.67
237.23	3200.98
237.45	2985.94
237.67	2944.98
237.88	3381.20
238.10	3678.15
238.32	2772.95
238.54	2906.07
238.76	3286.99
238.97	3135.44
239.19	2772.95
239.41	2916.31
239.63	3442.64
239.85	3074.00
240.06	2885.59
240.28	2883.54
240.50	3481.55
240.72	3284.94
240.93	2764.76
241.15	2947.03
241.37	3250.13
241.59	3499.98
241.81	2871.25
242.02	2965.46
242.24	3358.67
242.46	3510.22
242.68	2756.57
242.89	2785.24
243.11	3485.64
243.33	3213.26
243.55	2834.39
243.76	2838.48
243.98	3166.16
244.20	3272.65
244.42	2834.39
244.64	2756.57
244.85	3018.71
245.07	3119.06
245.29	2850.77
245.51	2932.69
245.72	3418.06
245.94	3479.50
246.16	2811.86
246.38	2953.17
246.59	3153.87
246.81	3162.06
247.03	2824.15
247.24	2691.03
247.46	3217.36
247.68	3346.38
247.90	2764.76
248.11	2899.92
248.33	3407.82
248.55	3321.81
248.77	2858.96
248.98	2934.74
249.20	3583.95
249.42	3305.42
249.64	2869.20
249.85	2805.72
250.07	3188.69
250.29	3370.96
250.50	2908.12
250.72	2818.00
250.94	3424.20
251.16	3770.31
251.37	2901.97
251.59	2961.36
251.81	3450.83
252.02	3669.96
252.24	2736.09
252.46	2990.03
252.68	3217.36
252.89	3139.54
253.11	2772.95
253.33	3041.23
253.54	3514.31
253.76	3100.62
253.98	2828.24
254.20	2811.86
254.41	3098.58
254.63	3243.98
254.85	2807.77
255.06	2990.03
255.28	3350.48
255.50	3168.21
255.71	2840.53
255.93	2719.70
256.15	3178.45
256.36	3346.38
256.58	2734.04
256.80	2721.75
257.02	3186.64
257.23	3219.41
257.45	2869.20
257.67	2959.31
257.88	3188.69
258.10	3358.67
258.32	2840.53
258.53	2899.92
258.75	3696.58
258.97	3071.95
259.18	2811.86
259.40	2834.39
259.62	3643.34
259.83	3639.24
260.05	2865.11
260.27	3762.12
260.48	3471.31
260.70	3076.05
260.92	2799.57
261.13	2893.78
261.35	3358.67
261.57	3278.80
261.78	2799.57
262.00	2803.67
262.22	3340.24
262.43	3123.15
262.65	2832.34
262.86	2828.24
263.08	3733.45
263.30	3356.62
263.51	2775.00
263.73	2828.24
263.95	3575.75
264.16	3074.00
264.38	2754.52
264.60	2750.42
264.81	3262.41
265.03	3487.69
265.25	3280.85
265.46	2881.49
265.68	3512.27
265.89	3428.30
266.11	2834.39
266.33	2787.29
266.54	3493.83
266.76	3375.05
266.98	2994.13
267.19	2971.60
267.41	3553.23
267.62	3295.18
267.84	2645.98
268.06	2912.21
268.27	3309.52
268.49	3524.55
268.70	2865.11
268.92	2836.44
269.14	3106.77
269.35	3002.32
269.57	3026.90
269.79	2955.22
270.00	3094.48
270.22	3618.76
270.43	2783.19
270.65	2711.51
270.87	3342.28
271.08	3432.40
271.30	3018.71
271.51	2936.79
271.73	3413.96
271.95	3647.43
272.16	2836.44
272.38	2975.70
272.59	3215.31
272.81	3307.47
273.02	2861.01
273.24	2979.79
273.46	3512.27
273.67	3028.95
273.89	2729.94
274.10	2863.06
274.32	3542.99
274.54	3305.42
274.75	2938.84
274.97	3092.43
275.18	3473.36
275.40	3360.72
275.61	2912.21
275.83	3080.14
276.05	3078.10
276.26	3217.36
276.48	3014.61
276.69	3063.76
276.91	3205.07
277.12	3608.52
277.34	3041.23
277.55	3114.96
277.77	3246.03
277.99	3135.44
278.20	2959.31
278.42	2854.87
278.63	3114.96
278.85	3041.23
279.06	2930.64
279.28	3102.67
279.49	3475.40
279.71	3428.30
279.93	3039.19
280.14	3065.81
280.36	3205.07
280.57	3448.78
280.79	3141.58
281.00	2869.20
281.22	3133.39
281.43	3463.12
281.65	2815.96
281.86	2863.06
282.08	3366.86
282.29	3657.67
282.51	2916.31
282.73	2897.88
282.94	2949.08
283.16	3438.54
283.37	3110.86
283.59	2981.84
283.80	3418.06
284.02	3266.51
284.23	3016.66
284.45	3000.27
284.66	3151.82
284.88	3160.02
285.09	2861.01
285.31	3086.29
285.52	3307.47
285.74	2953.17
285.95	3151.82
286.17	2938.84
286.38	3559.37
286.60	3149.78
286.81	3012.56
287.03	3047.38
287.24	3213.26
287.46	3442.64
287.67	3067.86
287.89	3221.45
288.10	3270.61
288.32	3272.65
288.53	3176.40
288.75	3022.80
288.96	3424.20
289.18	3160.02
289.39	2975.70
289.61	3045.33
289.82	3717.06
290.04	3651.53
290.25	2916.31
290.47	3061.71
290.68	3233.74
290.90	3485.64
291.11	2791.38
291.33	3114.96
291.54	3143.63
291.76	3176.40
291.97	3170.26
292.18	3055.57
292.40	3145.68
292.61	3102.67
292.83	3219.41
293.04	2951.12
293.26	3332.05
293.47	3221.45
293.69	2979.79
293.90	2957.27
294.12	3577.80
294.33	3360.72
294.55	2998.23
294.76	3129.30
294.97	3526.60
295.19	3796.93
295.40	2973.65
295.62	3082.19
295.83	3461.07
296.05	3151.82
296.26	3166.16
296.48	3008.47
296.69	3264.46
296.90	3346.38
297.12	3231.69
297.33	3149.78
297.55	3254.22
297.76	3368.91
297.98	3074.00
298.19	3114.96
298.41	3338.19
298.62	3145.68
298.83	3205.07
299.05	3117.01
299.26	3131.34
299.48	3071.95
299.69	3051.47
299.90	2944.98
300.12	3127.25
300.33	3403.72
300.55	3053.52
300.76	3045.33
300.98	3065.81
301.19	3381.20
301.40	2969.55
301.62	2963.41
301.83	3391.44
302.05	3291.09
302.26	3012.56
302.47	3071.95
302.69	3067.86
302.90	3254.22
303.12	2893.78
303.33	3082.19
303.54	3684.30
303.76	3180.50
303.97	2934.74
304.19	3225.55
304.40	3092.43
304.61	3340.24
304.83	3100.62
305.04	3102.67
305.26	3454.92
305.47	3174.35
305.68	2936.79
305.90	2887.64
306.11	3426.25
306.33	3266.51
306.54	2820.05
306.75	2930.64
306.97	3035.09
307.18	3090.38
307.39	2953.17
307.61	3123.15
307.82	3237.84
308.04	3370.96
308.25	2854.87
308.46	3215.31
308.68	3252.17
308.89	3336.14
309.10	3000.27
309.32	3010.51
309.53	3305.42
309.74	3426.25
309.96	2936.79
310.17	3088.34
310.39	3205.07
310.60	3426.25
310.81	3055.57
311.03	2924.50
311.24	3377.10
311.45	3248.08
311.67	3250.13
311.88	3088.34
312.09	3289.04
312.31	3123.15
312.52	2893.78
312.73	2942.93
312.95	2963.41
313.16	3041.23
313.37	3180.50
313.59	3211.22
313.80	3514.31
314.01	3524.55
314.23	3010.51
314.44	2842.58
314.65	3041.23
314.87	3184.59
315.08	2975.70
315.29	2938.84
315.51	3059.67
315.72	2992.08
315.93	3065.81
316.15	3033.04
316.36	3168.21
316.57	3377.10
316.79	2990.03
317.00	2953.17
317.21	3442.64
317.43	3141.58
317.64	3028.95
317.85	2942.93
318.07	3086.29
318.28	3192.78
318.49	3035.09
318.70	3254.22
318.92	3278.80
319.13	3434.44
319.34	3174.35
319.56	3082.19
319.77	3434.44
319.98	3434.44
320.20	3221.45
320.41	3221.45
320.62	3321.81
320.83	3022.80
321.05	3254.22
321.26	3090.38
321.47	3348.43
321.69	3499.98
321.90	2881.49
322.11	2965.46
322.32	3250.13
322.54	3553.23
322.75	3018.71
322.96	3977.16
323.18	3008.47
323.39	2901.97
323.60	2865.11
323.81	3139.54
324.03	3141.58
324.24	3196.88
324.45	3088.34
324.66	2947.03
324.88	3477.45
325.09	3596.23
325.30	2934.74
325.52	2863.06
325.73	3395.53
325.94	2996.18
326.15	2856.92
326.37	2863.06
326.58	3508.17
326.79	3633.10
327.00	2930.64
327.22	2979.79
327.43	3196.88
327.64	3065.81
327.85	3102.67
328.07	3041.23
328.28	3712.97
328.49	3112.91
328.70	3057.62
328.92	3010.51
329.13	3297.23
329.34	3430.35
329.55	3186.64
329.76	3155.92
329.98	3205.07
330.19	3542.99
330.40	3059.67
330.61	3180.50
330.83	3502.03
331.04	3141.58
331.25	3086.29
331.46	3076.05
331.68	3018.71
331.89	3461.07
332.10	3057.62
332.31	2895.83
332.52	3235.79
332.74	3549.13
332.95	2893.78
333.16	3008.47
333.37	3358.67
333.58	3223.50
333.80	3033.04
334.01	2850.77
334.22	3137.49
334.43	3188.69
334.64	2949.08
334.86	2926.55
335.07	3098.58
335.28	3499.98
335.49	2940.88
335.70	3078.10
335.92	3616.71
336.13	3764.17
336.34	3139.54
336.55	3035.09
336.76	3340.24
336.98	2893.78
337.19	2971.60
337.40	3059.67
337.61	3786.69
337.82	3198.93
338.04	3071.95
338.25	2910.16
338.46	3260.37
338.67	3246.03
338.88	2889.68
339.09	2867.16
339.31	3229.65
339.52	3016.66
339.73	2981.84
339.94	3024.85
340.15	3368.91
340.36	3196.88
340.58	3012.56
340.79	2918.36
341.00	3422.16
341.21	3039.19
341.42	3217.36
341.63	3049.43
341.85	3454.92
342.06	3303.37
342.27	2973.65
342.48	3147.73
342.69	2949.08
342.90	3366.86
343.12	3418.06
343.33	2940.88
343.54	3516.36
343.75	3493.83
343.96	3170.26
344.17	2961.36
344.38	3227.60
344.60	3129.30
344.81	2967.51
345.02	3049.43
345.23	3520.46
345.44	3794.89
345.65	3028.95
345.86	2971.60
346.07	3313.61
346.29	3176.40
346.50	3147.73
346.71	3039.19
346.92	3555.27
347.13	3733.45
347.34	3043.28
347.55	2828.24
347.76	3377.10
347.98	2994.13
348.19	2973.65
348.40	3188.69
348.61	3102.67
348.82	3614.66
349.03	3016.66
349.24	2955.22
349.45	3719.11
349.66	2893.78
349.88	2959.31
350.09	2904.02
350.30	3573.71
350.51	3522.51
350.72	3213.26
350.93	2979.79
351.14	3246.03
351.35	3360.72
351.56	3043.28
351.77	3074.00
351.99	3362.76
352.20	3510.22
352.41	3108.82
352.62	2721.75
352.83	3182.54
353.04	3237.84
353.25	2965.46
353.46	3016.66
353.67	3430.35
353.88	2885.59
354.09	3039.19
354.30	3092.43
354.52	3430.35
354.73	3395.53
354.94	2985.94
355.15	3041.23
355.36	3651.53
355.57	3168.21
355.78	2906.07
355.99	2922.45
356.20	3129.30
356.41	3459.02
356.62	3110.86
356.83	3088.34
357.04	3635.14
357.25	2926.55
357.46	3014.61
357.68	2877.40
357.89	3049.43
358.10	3200.98
358.31	2955.22
358.52	3049.43
358.73	2990.03
358.94	3043.28
359.15	3035.09
359.36	3030.99
359.57	3252.17
359.78	3215.31
359.99	3172.30
360.20	2875.35
360.41	3334.09
360.62	3450.83
360.83	3051.47
361.04	2977.75
361.25	3334.09
361.46	3678.15
361.67	3213.26
361.88	3037.14
362.09	3381.20
362.30	3409.87
362.51	2965.46
362.72	3123.15
362.93	3426.25
363.14	3370.96
363.35	3008.47
363.56	2973.65
363.78	3545.03
363.99	3444.68
364.20	2998.23
364.41	3090.38
364.62	3694.54
364.83	3393.48
365.04	2977.75
365.25	3035.09
365.46	3614.66
365.67	3184.59
365.88	3215.31
366.09	2965.46
366.30	3235.79
366.51	3315.66
366.72	2977.75
366.93	2975.70
367.14	3385.29
367.35	3495.88
367.56	2934.74
367.77	3190.74
367.98	3315.66
368.18	3362.76
368.39	3131.34
368.60	2930.64
368.81	3397.58
369.02	3270.61
369.23	3018.71
369.44	2844.63
369.65	3291.09
369.86	3364.81
370.07	3100.62
370.28	2901.97
370.49	3340.24
370.70	3336.14
370.91	2893.78
371.12	2987.99
371.33	3504.07
371.54	3219.41
371.75	3125.20
371.96	2781.14
372.17	3297.23
372.38	3321.81
372.59	3043.28
372.80	2922.45
373.01	3330.00
373.22	3299.28
373.43	3000.27
373.64	2879.44
373.85	3557.32
374.06	3647.43
374.26	3211.22
374.47	3045.33
374.68	3540.94
374.89	3346.38
375.10	2914.26
375.31	3102.67
375.52	3274.70
375.73	3268.56
375.94	2830.29
376.15	3098.58
376.36	3229.65
376.57	3127.25
376.78	3004.37
376.99	3006.42
377.20	3624.90
377.40	3258.32
377.61	3229.65
377.82	2959.31
378.03	3653.58
378.24	3426.25
378.45	3176.40
378.66	3108.82
378.87	2897.88
379.08	2975.70
379.29	3008.47
379.50	3196.88
379.71	3286.99
379.91	3395.53
380.12	3065.81
380.33	3123.15
380.54	3299.28
380.75	3151.82
380.96	2963.41
381.17	3094.48
381.38	3174.35
381.59	3237.84
381.80	3049.43
382.00	3205.07
382.21	3397.58
382.42	3655.62
382.63	3370.96
382.84	3194.83
383.05	3463.12
383.26	3557.32
383.47	3164.11
383.68	2971.60
383.88	3385.29
384.09	3233.74
384.30	3272.65
384.51	3074.00
384.72	3213.26
384.93	2981.84
385.14	3088.34
385.35	3305.42
385.55	3016.66
385.76	3573.71
385.97	3086.29
386.18	2779.09
386.39	3063.76
386.60	3117.01
386.81	2951.12
387.02	2893.78
387.22	3006.42
387.43	3481.55
387.64	3084.24
387.85	3250.13
388.06	3344.33
388.27	4356.03
388.48	7759.75
388.68	12216.13
388.89	15058.71
389.10	16402.18
389.31	16283.40
389.52	13113.14
389.73	11300.69
389.93	10487.65
390.14	9258.87
390.35	8587.13
390.56	8091.52
390.77	6629.27
390.98	5064.63
391.18	4159.42
391.39	3923.91
391.60	3274.70
391.81	3246.03
392.02	3094.48
392.23	3739.59
392.43	3364.81
392.64	3114.96
392.85	3133.39
393.06	3598.28
393.27	3366.86
393.47	2957.27
393.68	3133.39
393.89	3155.92
394.10	3551.18
394.31	3020.75
394.52	2965.46
394.72	3147.73
394.93	3565.51
395.14	2912.21
395.35	3145.68
395.56	3110.86
395.76	3278.80
395.97	2926.55
396.18	3225.55
396.39	3344.33
396.60	4026.31
396.80	3356.62
397.01	3297.23
397.22	3491.79
397.43	3485.64
397.64	3041.23
397.84	3131.34
398.05	3723.21
398.26	3309.52
398.47	3123.15
398.67	3233.74
398.88	3264.46
399.09	3477.45
399.30	3074.00
399.51	3102.67
399.71	3147.73
399.92	3278.80
400.13	3112.91
400.34	3010.51
400.54	3313.61
400.75	3688.39
400.96	3172.30
401.17	3323.85
401.37	3409.87
401.58	3243.98
401.79	3067.86
402.00	3133.39
402.21	3885.00
402.41	3499.98
402.62	3385.29
402.83	3534.79
403.04	3755.97
403.24	4061.12
403.45	3233.74
403.66	3362.76
403.87	3491.79
404.07	3561.42
404.28	3358.67
404.49	3352.52
404.70	3440.59
404.90	3485.64
405.11	3067.86
405.32	3162.06
405.52	3119.06
405.73	3172.30
405.94	3018.71
406.15	3063.76
406.35	3409.87
406.56	3416.01
406.77	3131.34
406.98	3051.47
407.18	3110.86
407.39	3651.53
407.60	3057.62
407.80	3100.62
408.01	3239.89
408.22	3422.16
408.43	2910.16
408.63	3141.58
408.84	3461.07
409.05	3442.64
409.25	3033.04
409.46	3051.47
409.67	3256.27
409.88	3143.63
410.08	3051.47
410.29	3010.51
410.50	3442.64
410.70	3340.24
410.91	2957.27
411.12	3123.15
411.32	3233.74
411.53	3157.97
411.74	3071.95
411.95	3067.86
412.15	3334.09
412.36	3409.87
412.57	3162.06
412.77	3278.80
412.98	3305.42
413.19	3143.63
413.39	3162.06
413.60	3051.47
413.81	3618.76
414.01	3026.90
414.22	3035.09
414.43	3133.39
414.63	3184.59
414.84	3463.12
415.05	3078.10
415.25	2889.68
415.46	3426.25
415.67	3117.01
415.87	3020.75
416.08	3065.81
416.29	3135.44
416.49	3327.95
416.70	3065.81
416.91	3067.86
417.11	3207.12
417.32	3473.36
417.53	3141.58
417.73	3174.35
417.94	3295.18
418.15	3364.81
418.35	3184.59
418.56	3090.38
418.77	3792.84
418.97	3311.57
419.18	3106.77
419.38	2742.23
419.59	3293.13
419.80	3545.03
420.00	3033.04
420.21	3061.71
420.42	3581.90
420.62	3366.86
420.83	2967.51
421.04	3084.24
421.24	3241.93
421.45	3368.91
421.65	3127.25
421.86	3110.86
422.07	3508.17
422.27	3344.33
422.48	3035.09
422.69	2918.36
422.89	3229.65
423.10	3178.45
423.30	3020.75
423.51	3065.81
423.72	3362.76
423.92	3428.30
424.13	2951.12
424.33	3110.86
424.54	3444.68
424.75	3327.95
424.95	3264.46
425.16	2949.08
425.36	3209.17
425.57	3485.64
425.78	3168.21
425.98	3114.96
426.19	3184.59
426.39	3127.25
426.60	3098.58
426.81	3164.11
427.01	3260.37
427.22	3055.57
427.42	2879.44
427.63	2944.98
427.83	3487.69
428.04	3616.71
428.25	3035.09
428.45	3174.35
428.66	3530.70
428.86	3286.99
429.07	3035.09
429.28	3098.58
429.48	3248.08
429.69	3235.79
429.89	3166.16
430.10	3012.56
430.30	3473.36
430.51	3522.51
430.71	2906.07
430.92	3078.10
431.13	3129.30
431.33	3426.25
431.54	3117.01
431.74	3211.22
431.95	3741.64
432.15	3149.78
432.36	3033.04
432.56	3106.77
432.77	3719.11
432.98	3643.34
433.18	3180.50
433.39	2889.68
433.59	3319.76
433.80	3667.91
434.00	3270.61
434.21	3008.47
434.41	3108.82
434.62	3778.50
434.82	2889.68
435.03	2910.16
435.23	3315.66
435.44	2971.60
435.64	2975.70
435.85	3149.78
436.06	3444.68
436.26	3524.55
436.47	3065.81
436.67	2951.12
436.88	3211.22
437.08	3495.88
437.29	3182.54
437.49	3225.55
437.70	3602.38
437.90	3289.04
438.11	3215.31
438.31	3106.77
438.52	3588.04
438.72	3532.75
438.93	3446.73
439.13	3149.78
439.34	3442.64
439.54	3227.60
439.75	3147.73
439.95	3108.82
440.16	3102.67
440.36	3246.03
440.57	3020.75
440.77	3076.05
440.98	3299.28
441.18	3411.92
441.39	2967.51
441.59	2996.18
441.80	3700.68
442.00	3207.12
442.21	3041.23
442.41	2869.20
442.62	3436.49
442.82	3155.92
443.02	3014.61
443.23	3094.48
443.43	3241.93
443.64	3577.80
443.84	2963.41
444.05	3172.30
444.25	3327.95
444.46	3239.89
444.66	3049.43
444.87	3297.23
445.07	2979.79
445.28	3178.45
445.48	3254.22
445.69	3121.10
445.89	3872.71
446.09	3260.37
446.30	3362.76
446.50	3481.55
446.71	5062.58
446.91	6301.60
447.12	7120.79
447.32	7679.88
447.53	7702.41
447.73	6440.86
447.93	5455.79
448.14	5285.81
448.34	5386.16
448.55	4577.21
448.75	4497.34
448.96	4239.30
449.16	4120.51
449.36	3858.37
449.57	3420.11
449.77	3180.50
449.98	3198.93
450.18	3411.92
450.39	3039.19
450.59	3270.61
450.79	3182.54
451.00	3108.82
451.20	3317.71
451.41	3076.05
451.61	3395.53
451.81	3282.89
452.02	3035.09
452.22	3033.04
452.43	3266.51
452.63	3131.34
452.84	3131.34
453.04	2959.31
453.24	3350.48
453.45	3100.62
453.65	3153.87
453.86	3039.19
454.06	3319.76
454.26	3295.18
454.47	3100.62
454.67	3233.74
454.87	3403.72
455.08	3182.54
455.28	3196.88
455.49	3205.07
455.69	3106.77
455.89	3706.82
456.10	3233.74
456.30	3045.33
456.51	3409.87
456.71	3270.61
456.91	3174.35
457.12	3043.28
457.32	3358.67
457.52	3051.47
457.73	3295.18
457.93	3209.17
458.14	3149.78
458.34	2979.79
458.54	3117.01
458.75	3071.95
458.95	3424.20
459.15	3399.63
459.36	3117.01
459.56	3026.90
459.76	3700.68
459.97	3286.99
460.17	3125.20
460.37	3102.67
460.58	3233.74
460.78	3364.81
460.99	3131.34
461.19	3051.47
461.39	3133.39
461.60	3207.12
461.80	3045.33
462.00	3028.95
462.21	3248.08
462.41	3084.24
462.61	2883.54
462.82	2944.98
463.02	3297.23
463.22	3301.33
463.43	3190.74
463.63	3004.37
463.83	3477.45
464.04	3299.28
464.24	3004.37
464.44	3076.05
464.64	3293.13
464.85	3438.54
465.05	3049.43
465.25	3022.80
465.46	3237.84
465.66	3516.36
465.86	3166.16
466.07	2985.94
466.27	3301.33
466.47	2922.45
466.68	2914.26
466.88	3117.01
467.08	3456.97
467.29	3454.92
467.49	3139.54
467.69	3125.20
467.89	3450.83
468.10	3344.33
468.30	3295.18
468.50	3166.16
468.71	3399.63
468.91	2936.79
469.11	3233.74
469.31	3110.86
469.52	3143.63
469.72	3674.06
469.92	3235.79
470.13	3117.01
470.33	3295.18
470.53	3270.61
470.73	3510.22
470.94	3930.05
471.14	4167.62
471.34	4753.34
471.54	4392.89
471.75	4091.84
471.95	3960.77
472.15	3803.08
472.36	3794.89
472.56	3475.40
472.76	3925.96
472.96	3696.58
473.17	3379.15
473.37	3241.93
473.57	3278.80
473.77	3504.07
473.98	3282.89
474.18	2975.70
474.38	4040.64
474.58	3231.69
474.79	2979.79
474.99	3182.54
475.19	3461.07
475.39	3098.58
475.60	3133.39
475.80	3004.37
476.00	3364.81
476.20	3280.85
476.41	3141.58
476.61	3084.24
476.81	3481.55
477.01	3090.38
477.21	3368.91
477.42	3172.30
477.62	3125.20
477.82	3426.25
478.02	2969.55
478.23	3071.95
478.43	3074.00
478.63	3147.73
478.83	3057.62
479.03	3108.82
479.24	3612.62
479.44	3688.39
479.64	3053.52
479.84	2924.50
480.04	3127.25
480.25	3510.22
480.45	2975.70
480.65	2981.84
480.85	3729.35
481.06	3184.59
481.26	3241.93
481.46	3057.62
481.66	3319.76
481.86	3053.52
482.06	3254.22
482.27	3127.25
482.47	3196.88
482.67	3391.44
482.87	3129.30
483.07	3080.14
483.28	3182.54
483.48	3022.80
483.68	3076.05
483.88	3014.61
484.08	2858.96
484.29	2975.70
484.49	3168.21
484.69	2912.21
484.89	3524.55
485.09	3491.79
485.29	3059.67
485.50	3295.18
485.70	3239.89
485.90	3532.75
486.10	3205.07
486.30	3067.86
486.50	3522.51
486.71	3278.80
486.91	3205.07
487.11	3174.35
487.31	2996.18
487.51	3395.53
487.71	2994.13
487.91	3041.23
488.12	3096.53
488.32	2858.96
488.52	3020.75
488.72	2840.53
488.92	3276.75
489.12	3499.98
489.32	3237.84
489.53	3082.19
489.73	2967.51
489.93	3661.77
490.13	3012.56
490.33	2869.20
490.53	3256.27
490.73	3483.59
490.94	2936.79
491.14	3239.89
491.34	3491.79
491.54	3463.12
491.74	3983.30
491.94	4581.31
492.14	5179.31
492.34	5246.90
492.54	4695.99
492.75	4188.10
492.95	4347.84
493.15	4054.98
493.35	3846.09
493.55	3780.55
493.75	3706.82
493.95	3846.09
494.15	3348.43
494.35	3119.06
494.56	3266.51
494.76	3123.15
494.96	3262.41
495.16	3053.52
495.36	3241.93
495.56	3309.52
495.76	3008.47
495.96	3057.62
496.16	3215.31
496.36	3764.17
496.56	3035.09
496.77	3174.35
496.97	3352.52
497.17	3489.74
497.37	2881.49
497.57	3131.34
497.77	3299.28
497.97	3074.00
498.17	3133.39
498.37	2998.23
498.57	3436.49
498.77	3117.01
498.97	3221.45
499.17	3413.96
499.38	3223.50
499.58	3358.67
499.78	3200.98
499.98	3198.93
500.18	3284.94
500.38	3123.15
500.58	3323.85
500.78	3696.58
500.98	6145.95
501.18	8134.53
501.38	9777.00
501.58	10975.06
501.78	10782.56
501.98	9127.80
502.18	7632.78
502.38	6582.17
502.58	6412.19
502.78	5801.90
502.98	5513.13
503.18	5236.66
503.38	4921.27
503.59	4190.14
503.79	4057.03
503.99	3758.02
504.19	3915.72
504.39	3911.62
504.59	3753.93
504.79	3674.06
504.99	4050.88
505.19	3583.95
505.39	3338.19
505.59	3504.07
505.79	3805.13
505.99	3594.19
506.19	3170.26
506.39	3256.27
506.59	3211.22
506.79	3221.45
506.99	3278.80
507.19	2985.94
507.39	3319.76
507.59	2990.03
507.79	3106.77
507.99	3000.27
508.19	3332.05
508.39	3182.54
508.59	3153.87
508.79	3172.30
508.99	3641.29
509.19	3151.82
509.39	3129.30
509.59	2944.98
509.79	3166.16
509.99	3299.28
510.19	3133.39
510.39	3194.83
510.59	3248.08
510.79	3213.26
510.99	2848.72
511.19	3067.86
511.39	3686.34
511.59	3467.21
511.79	3225.55
511.99	3055.57
512.19	3633.10
512.38	3370.96
512.58	3043.28
512.78	2975.70
512.98	3499.98
513.18	3534.79
513.38	2985.94
513.58	3143.63
513.78	3264.46
513.98	3221.45
514.18	3100.62
514.38	3043.28
514.58	3362.76
514.78	3157.97
514.98	2990.03
515.18	2985.94
515.38	3059.67
515.58	3618.76
515.78	3008.47
515.98	3176.40
516.18	3432.40
516.38	3313.61
516.57	3012.56
516.77	3114.96
516.97	3377.10
517.17	3086.29
517.37	2951.12
517.57	3194.83
517.77	3301.33
517.97	3110.86
518.17	3047.38
518.37	3010.51
518.57	3147.73
518.77	3203.02
518.97	3082.19
519.16	3008.47
519.36	3491.79
519.56	3145.68
519.76	3123.15
519.96	3100.62
520.16	3594.19
520.36	3100.62
520.56	3239.89
520.76	3082.19
520.96	3237.84
521.16	3444.68
521.35	3303.37
521.55	3127.25
521.75	3315.66
521.95	3174.35
522.15	2953.17
522.35	2869.20
522.55	3155.92
522.75	3395.53
522.95	2918.36
523.14	2996.18
523.34	3237.84
523.54	3065.81
523.74	3172.30
523.94	3112.91
524.14	3047.38
524.34	3321.81
524.54	3356.62
524.73	3024.85
524.93	3411.92
525.13	3258.32
525.33	2977.75
525.53	3198.93
525.73	3379.15
525.93	3241.93
526.13	3090.38
526.32	3008.47
526.52	3475.40
526.72	3538.89
526.92	3020.75
527.12	2967.51
527.32	2957.27
527.52	3354.57
527.71	3067.86
527.91	3157.97
528.11	3186.64
528.31	3286.99
528.51	2985.94
528.71	3200.98
528.90	3346.38
529.10	3479.50
529.30	3071.95
529.50	2721.75
529.70	3338.19
529.90	3194.83
530.09	3112.91
530.29	2914.26
530.49	3108.82
530.69	3917.76
530.89	3252.17
531.09	3119.06
531.28	3227.60
531.48	3483.59
531.68	3020.75
531.88	3030.99
532.08	3364.81
532.28	3155.92
532.47	3125.20
532.67	3127.25
532.87	3387.34
533.07	3098.58
533.27	3168.21
533.46	3143.63
533.66	3356.62
533.86	3297.23
534.06	3110.86
534.26	3061.71
534.45	3248.08
534.65	3456.97
534.85	3184.59
535.05	3008.47
535.25	3493.83
535.44	2963.41
535.64	3145.68
535.84	3092.43
536.04	3235.79
536.24	3180.50
536.43	2922.45
536.63	3000.27
536.83	3213.26
537.03	3286.99
537.22	2955.22
537.42	2840.53
537.62	3346.38
537.82	3155.92
538.02	3235.79
538.21	3084.24
538.41	3946.44
538.61	3377.10
538.81	3078.10
539.00	3190.74
539.20	2975.70
539.40	3270.61
539.60	3041.23
539.79	3280.85
539.99	3274.70
540.19	3057.62
540.39	3004.37
540.58	3155.92
540.78	3551.18
540.98	3266.51
541.18	3284.94
541.37	3125.20
541.57	3170.26
541.77	3352.52
541.97	3020.75
542.16	2934.74
542.36	3207.12
542.56	3452.88
542.76	3309.52
542.95	3133.39
543.15	3454.92
543.35	3499.98
543.54	2987.99
543.74	3026.90
543.94	3545.03
544.14	3078.10
544.33	3221.45
544.53	3100.62
544.73	3203.02
544.93	3239.89
545.12	3049.43
545.32	3024.85
545.52	3223.50
545.71	3014.61
545.91	3043.28
546.11	3012.56
546.30	3092.43
546.50	3327.95
546.70	3170.26
546.90	3090.38
547.09	3012.56
547.29	3278.80
547.49	3299.28
547.68	3012.56
547.88	3157.97
548.08	3416.01
548.27	3332.05
548.47	3043.28
548.67	3151.82
548.87	3401.68
549.06	3016.66
549.26	2971.60
549.46	3426.25
549.65	3143.63
549.85	3149.78
550.05	3198.93
550.24	3063.76
550.44	3340.24
550.64	3078.10
550.83	3069.91
551.03	3620.81
551.23	3499.98
551.42	3166.16
551.62	3106.77
551.82	3196.88
552.01	3200.98
552.21	3295.18
552.41	3135.44
552.60	3491.79
552.80	3264.46
553.00	2992.08
553.19	3020.75
553.39	3629.00
553.59	3043.28
553.78	3227.60
553.98	3028.95
554.17	3071.95
554.37	3346.38
554.57	3117.01
554.76	2938.84
554.96	3200.98
555.16	3233.74
555.35	3110.86
555.55	3264.46
555.75	3289.04
555.94	3364.81
556.14	2858.96
556.33	3160.02
556.53	3227.60
556.73	3305.42
556.92	3065.81
557.12	3055.57
557.32	3745.73
557.51	3549.13
557.71	3186.64
557.90	3327.95
558.10	3502.03
558.30	3176.40
558.49	3045.33
558.69	3030.99
558.88	3407.82
559.08	3409.87
559.28	3010.51
559.47	3123.15
559.67	3420.11
559.86	3647.43
560.06	3016.66
560.26	3114.96
560.45	3375.05
560.65	3178.45
560.84	3311.57
561.04	2942.93
561.24	3418.06
561.43	3090.38
561.63	3336.14
561.82	3223.50
562.02	3424.20
562.22	3049.43
562.41	3018.71
562.61	2973.65
562.80	2998.23
563.00	3719.11
563.19	3200.98
563.39	3155.92
563.59	3332.05
563.78	3061.71
563.98	2895.83
564.17	3024.85
564.37	2901.97
564.56	3229.65
564.76	2990.03
564.96	3196.88
565.15	3282.89
565.35	3829.70
565.54	3094.48
565.74	3090.38
565.93	3282.89
566.13	3223.50
566.32	3221.45
566.52	3157.97
566.71	3362.76
566.91	3467.21
567.11	3112.91
567.30	2992.08
567.50	3416.01
567.69	3379.15
567.89	3043.28
568.08	2856.92
568.28	3403.72
568.47	3018.71
568.67	3121.10
568.86	3039.19
569.06	3370.96
569.25	3270.61
569.45	2912.21
569.64	3082.19
569.84	3166.16
570.04	3358.67
570.23	3123.15
570.43	3147.73
570.62	3313.61
570.82	3540.94
571.01	2936.79
571.21	2990.03
571.40	3049.43
571.60	3354.57
571.79	3141.58
571.99	3018.71
572.18	3074.00
572.38	3299.28
572.57	3065.81
572.77	3170.26
572.96	3798.98
573.16	3332.05
573.35	3067.86
573.55	3227.60
573.74	3510.22
573.94	3241.93
574.13	3104.72
574.33	3352.52
574.52	3559.37
574.71	3196.88
574.91	3074.00
575.10	2969.55
575.30	3170.26
575.49	3067.86
575.69	2981.84
575.88	3092.43
576.08	3278.80
576.27	3514.31
576.47	3024.85
576.66	3243.98
576.86	3588.04
577.05	3362.76
577.25	3092.43
577.44	3246.03
577.64	3178.45
577.83	3477.45
578.02	3082.19
578.22	3248.08
578.41	3692.49
578.61	3194.83
578.80	2969.55
579.00	3147.73
579.19	3258.32
579.39	3385.29
579.58	3190.74
579.77	3131.34
579.97	3565.51
580.16	3567.56
580.36	3243.98
580.55	3051.47
580.75	3401.68
580.94	3291.09
581.13	3313.61
581.33	3336.14
581.52	3270.61
581.72	3641.29
581.91	3270.61
582.11	3012.56
582.30	3549.13
582.49	3387.34
582.69	3391.44
582.88	3166.16
583.08	3338.19
583.27	3450.83
583.47	3196.88
583.66	3006.42
583.85	3104.72
584.05	3256.27
584.24	3213.26
584.44	3129.30
584.63	3416.01
584.82	3590.09
585.02	3389.39
585.21	3207.12
585.41	3401.68
585.60	3291.09
585.79	3346.38
585.99	3395.53
586.18	3332.05
586.37	4280.25
586.57	6414.24
586.76	17925.87
586.96	37512.64
587.15	51162.36
587.34	59593.84
587.54	63466.55
587.73	56874.14
587.93	41102.73
588.12	31743.52
588.31	25894.52
588.51	22603.43
588.70	21049.02
588.89	18657.00
589.09	15783.70
589.28	13827.88
589.47	10727.26
589.67	8306.56
589.86	6483.87
590.06	5074.87
590.25	4487.10
590.44	3891.14
590.64	3549.13
590.83	3493.83
591.02	3522.51
591.22	3059.67
591.41	3139.54
591.60	3237.84
591.80	3796.93
591.99	2926.55
592.18	3065.81
592.38	3401.68
592.57	3149.78
592.76	3078.10
592.96	3147.73
593.15	3231.69
593.34	3483.59
593.54	3110.86
593.73	3270.61
593.92	3411.92
594.12	3278.80
594.31	3172.30
594.50	3246.03
594.70	3409.87
594.89	3913.67
595.08	3010.51
595.28	3274.70
595.47	3915.72
595.66	3432.40
595.86	2973.65
596.05	2938.84
596.24	3237.84
596.43	3663.82
596.63	3155.92
596.82	3293.13
597.01	3438.54
597.21	3747.78
597.40	3063.76
597.59	3135.44
597.79	3198.93
597.98	3477.45
598.17	3127.25
598.36	3100.62
598.56	3424.20
598.75	3196.88
598.94	3096.53
599.14	3127.25
599.33	3254.22
599.52	3434.44
599.71	3125.20
599.91	3133.39
600.10	3409.87
600.29	3327.95
600.48	3133.39
600.68	3184.59
600.87	3286.99
601.06	3149.78
601.26	3172.30
601.45	3192.78
601.64	3239.89
601.83	3626.95
602.03	3024.85
602.22	2967.51
602.41	3530.70
602.60	3764.17
602.80	3170.26
602.99	3198.93
603.18	3155.92
603.37	3309.52
603.57	3020.75
603.76	3088.34
603.95	3573.71
604.14	3129.30
604.34	2977.75
604.53	3071.95
604.72	3356.62
604.91	3438.54
605.10	3125.20
605.30	3000.27
605.49	3758.02
605.68	3452.88
605.87	3045.33
606.07	2987.99
606.26	3358.67
606.45	3477.45
606.64	3092.43
606.84	2926.55
607.03	3317.71
607.22	3502.03
607.41	3168.21
607.60	3157.97
607.80	3540.94
607.99	3246.03
608.18	3166.16
608.37	3200.98
608.56	3164.11
608.76	3499.98
608.95	3164.11
609.14	3061.71
609.33	3590.09
609.52	3569.61
609.72	3229.65
609.91	3276.75
610.10	3401.68
610.29	3647.43
610.48	3174.35
610.68	3192.78
610.87	3213.26
611.06	3452.88
611.25	3049.43
611.44	3198.93
611.63	3180.50
611.83	3528.65
612.02	2996.18
612.21	3188.69
612.40	2877.40
612.59	3129.30
612.79	2932.69
612.98	3184.59
613.17	3573.71
613.36	3237.84
613.55	3198.93
613.74	3047.38
613.93	3299.28
614.13	3473.36
614.32	3321.81
614.51	3188.69
614.70	3178.45
614.89	3207.12
615.08	3200.98
615.28	3477.45
615.47	3069.91
615.66	3409.87
615.85	3147.73
616.04	3166.16
616.23	3375.05
616.42	3241.93
616.62	3149.78
616.81	3131.34
617.00	3252.17
617.19	3422.16
617.38	3114.96
617.57	3110.86
617.76	3430.35
617.95	3373.00
618.15	3184.59
618.34	3291.09
618.53	3000.27
618.72	3479.50
618.91	3190.74
619.10	3137.49
619.29	3125.20
619.48	3221.45
619.68	2959.31
619.87	3096.53
620.06	3063.76
620.25	3438.54
620.44	3030.99
620.63	2975.70
620.82	3280.85
621.01	3237.84
621.20	3096.53
621.39	3160.02
621.59	3330.00
621.78	3223.50
621.97	3137.49
622.16	3276.75
622.35	3434.44
622.54	3438.54
622.73	3170.26
622.92	2822.10
623.11	3497.93
623.30	3186.64
623.49	3180.50
623.68	2979.79
623.88	3522.51
624.07	3119.06
624.26	2983.89
624.45	3139.54
624.64	3223.50
624.83	3317.71
625.02	3074.00
625.21	3016.66
625.40	3319.76
625.59	3575.75
625.78	3131.34
625.97	3114.96
626.16	3565.51
626.35	3399.63
626.54	3090.38
626.74	3338.19
626.93	3252.17
627.12	3258.32
627.31	3157.97
627.50	3133.39
627.69	3522.51
627.88	3151.82
628.07	2961.36
628.26	2848.72
628.45	3164.11
628.64	3014.61
628.83	3080.14
629.02	2918.36
629.21	3510.22
629.40	3315.66
629.59	2963.41
629.78	3033.04
629.97	3379.15
630.16	3299.28
630.35	3055.57
630.54	3119.06
630.73	3182.54
630.92	3231.69
631.11	3030.99
631.30	3114.96
631.49	3452.88
631.68	3262.41
631.87	3102.67
632.06	2942.93
632.25	3827.65
632.44	3274.70
632.63	3229.65
632.82	3157.97
633.01	3180.50
633.20	3305.42
633.39	3080.14
633.58	2936.79
633.77	3297.23
633.96	3385.29
634.15	3262.41
634.34	3192.78
634.53	3377.10
634.72	3149.78
634.91	2938.84
635.10	2975.70
635.29	3450.83
635.48	3246.03
635.67	3051.47
635.86	2895.83
636.05	3641.29
636.24	3301.33
636.43	3053.52
636.62	3196.88
636.81	2842.58
637.00	3282.89
637.19	3053.52
637.38	3067.86
637.57	3188.69
637.76	3305.42
637.95	3262.41
638.14	3291.09
638.33	3356.62
638.52	3278.80
638.71	2975.70
638.89	2967.51
639.08	3876.80
639.27	3555.27
639.46	3418.06
639.65	3688.39
639.84	3844.04
640.03	4022.21
640.22	3684.30
640.41	3598.28
640.60	3393.48
640.79	3540.94
640.98	3368.91
641.17	3252.17
641.36	3524.55
641.55	3485.64
641.74	2959.31
641.92	3053.52
642.11	3182.54
642.30	3172.30
642.49	3045.33
642.68	3141.58
642.87	3424.20
643.06	3405.77
643.25	3010.51
643.44	2910.16
643.63	3280.85
643.82	3403.72
644.00	2961.36
644.19	3131.34
644.38	3082.19
644.57	3409.87
644.76	3078.10
644.95	3162.06
645.14	3248.08
645.33	3297.23
645.52	3121.10
645.71	2893.78
645.89	3106.77
646.08	3293.13
646.27	3067.86
646.46	3260.37
646.65	3035.09
646.84	3225.55
647.03	2942.93
647.22	3237.84
647.40	3229.65
647.59	3235.79
647.78	2846.68
647.97	3002.32
648.16	3049.43
648.35	3538.89
648.54	3330.00
648.73	3127.25
648.91	3473.36
649.10	3323.85
649.29	2934.74
649.48	2985.94
649.67	3452.88
649.86	3309.52
650.05	3131.34
650.23	3336.14
650.42	3166.16
650.61	3524.55
650.80	3327.95
650.99	3422.16
651.18	3473.36
651.36	3483.59
651.55	3057.62
651.74	3221.45
651.93	3190.74
652.12	3200.98
652.31	3088.34
652.49	3135.44
652.68	3221.45
652.87	3522.51
653.06	3157.97
653.25	3387.34
653.44	3254.22
653.62	3620.81
653.81	3139.54
654.00	3100.62
654.19	3465.16
654.38	3807.17
654.56	3149.78
654.75	3020.75
654.94	3555.27
655.13	3250.13
655.32	3043.28
655.51	3141.58
655.69	3127.25
655.88	3409.87
656.07	2875.35
656.26	3147.73
656.45	3106.77
656.63	3282.89
656.82	3059.67
657.01	3403.72
657.20	3207.12
657.38	3514.31
657.57	3030.99
657.76	2955.22
657.95	3389.39
658.14	3119.06
658.32	3213.26
658.51	2934.74
658.70	3284.94
658.89	3368.91
659.08	3086.29
659.26	3282.89
659.45	3172.30
659.64	3426.25
659.83	3133.39
660.01	3481.55
660.20	3301.33
660.39	3545.03
660.58	2826.20
660.76	3129.30
660.95	2979.79
661.14	3231.69
661.33	2910.16
661.51	3018.71
661.70	3139.54
661.89	3379.15
662.08	3135.44
662.26	2916.31
662.45	3078.10
662.64	3583.95
662.83	3125.20
663.01	2930.64
663.20	3200.98
663.39	3542.99
663.58	3157.97
663.76	3002.32
663.95	3405.77
664.14	3127.25
664.32	3174.35
664.51	2942.93
664.70	2897.88
664.89	3348.43
665.07	2971.60
665.26	3096.53
665.45	3004.37
665.64	3379.15
665.82	3131.34
666.01	3252.17
666.20	3084.24
666.38	3485.64
666.57	3385.29
666.76	5609.39
666.95	13031.23
667.13	20545.22
667.32	25046.66
667.51	27950.68
667.69	29177.41
667.88	24450.70
668.07	17784.56
668.25	14841.63
668.44	13012.79
668.63	11267.92
668.81	9836.39
669.00	8511.36
669.19	7669.64
669.38	6750.10
669.56	5769.13
669.75	4956.08
669.94	4376.51
670.12	3778.50
670.31	3487.69
670.50	3381.20
670.68	3506.12
670.87	3344.33
671.06	3098.58
671.24	3153.87
671.43	3635.14
671.62	3303.37
671.80	3065.81
671.99	3250.13
672.18	3274.70
672.36	3434.44
672.55	3282.89
672.74	3149.78
672.92	3198.93
673.11	3364.81
673.29	2951.12
673.48	3299.28
673.67	3231.69
673.85	3506.12
674.04	3037.14
674.23	3196.88
674.41	3682.25
674.60	3043.28
674.79	2967.51
674.97	2979.79
675.16	3442.64
675.34	3565.51
675.53	2987.99
675.72	3102.67
675.90	3583.95
676.09	3205.07
676.28	3241.93
676.46	2899.92
676.65	3413.96
676.83	3076.05
677.02	3172.30
677.21	3180.50
677.39	3274.70
677.58	3135.44
677.77	3086.29
677.95	2961.36
678.14	3180.50
678.32	3180.50
678.51	3102.67
678.70	3444.68
678.88	3225.55
679.07	3286.99
679.25	3157.97
679.44	3096.53
679.63	3069.91
679.81	3311.57
680.00	3334.09
680.18	3104.72
680.37	3573.71
680.55	3286.99
680.74	2955.22
680.93	2901.97
681.11	3305.42
681.30	3319.76
681.48	3028.95
681.67	3164.11
681.85	3370.96
682.04	3155.92
682.23	3213.26
682.41	3196.88
682.60	3182.54
682.78	3291.09
682.97	2949.08
683.15	3139.54
683.34	3276.75
683.53	3569.61
683.71	2914.26
683.90	3084.24
684.08	3717.06
684.27	3291.09
684.45	3139.54
684.64	3254.22
684.82	3348.43
685.01	3461.07
685.19	3018.71
685.38	3297.23
685.57	3256.27
685.75	3200.98
685.94	3078.10
686.12	3086.29
686.31	3100.62
686.49	3692.49
686.68	2914.26
686.86	3078.10
687.05	3274.70
687.23	3555.27
687.42	3051.47
687.60	2811.86
687.79	3467.21
687.97	3594.19
688.16	3227.60
688.34	3196.88
688.53	2979.79
688.71	3360.72
688.90	3311.57
689.08	3067.86
689.27	3000.27
689.45	3489.74
689.64	3147.73
689.82	3170.26
690.01	3397.58
690.19	3354.57
690.38	3123.15
690.56	3180.50
690.75	3057.62
690.93	3074.00
691.12	3006.42
691.30	3108.82
691.49	3172.30
691.67	3340.24
691.86	3377.10
692.04	3119.06
692.23	3264.46
692.41	3319.76
692.60	3473.36
692.78	3317.71
692.97	3274.70
693.15	3362.76
693.34	3295.18
693.52	3188.69
693.71	3112.91
693.89	3205.07
694.08	3006.42
694.26	3166.16
694.44	3452.88
694.63	3352.52
694.81	2985.94
695.00	3069.91
695.18	3532.75
695.37	3876.80
695.55	3200.98
695.74	3104.72
695.92	3155.92
696.10	3514.31
696.29	3000.27
696.47	3033.04
696.66	3047.38
696.84	3112.91
697.03	3106.77
697.21	3362.76
697.40	4765.62
697.58	3518.41
697.76	3024.85
697.95	3086.29
698.13	3106.77
698.32	3137.49
698.50	3117.01
698.68	3131.34
698.87	3383.24
699.05	3583.95
699.24	3182.54
699.42	3129.30
699.61	3284.94
699.79	3313.61
699.97	3135.44
700.16	2928.60
700.34	3026.90
700.53	3231.69
700.71	3313.61
700.89	3305.42
701.08	3223.50
701.26	3289.04
701.45	3489.74
701.63	3041.23
701.81	3221.45
702.00	3160.02
702.18	3176.40
702.37	3055.57
702.55	3461.07
702.73	3370.96
702.92	3143.63
703.10	3452.88
703.28	3411.92
703.47	3067.86
703.65	3416.01
703.84	3274.70
704.02	3194.83
704.20	3692.49
704.39	2998.23
704.57	3069.91
704.75	3436.49
704.94	3399.63
705.12	3248.08
705.30	3975.11
705.49	8621.95
705.67	17016.57
705.86	23799.44
706.04	26981.99
706.22	30025.27
706.41	28571.21
706.59	21808.82
706.77	16795.39
706.96	14421.80
707.14	13287.22
707.32	11226.96
707.51	9703.28
707.69	8089.48
707.87	6621.08
708.06	5242.80
708.24	4505.53
708.42	4179.90
708.61	4222.91
708.79	3313.61
708.97	3262.41
709.16	3389.39
709.34	3375.05
709.52	3141.58
709.71	3100.62
709.89	3346.38
710.07	3057.62
710.26	2996.18
710.44	3186.64
710.62	3502.03
710.80	3344.33
710.99	3235.79
711.17	3248.08
711.35	3196.88
711.54	3131.34
711.72	3284.94
711.90	3188.69
712.09	3342.28
712.27	3215.31
712.45	3215.31
712.63	3114.96
712.82	3250.13
713.00	3184.59
713.18	3205.07
713.37	3323.85
713.55	3483.59
713.73	3432.40
713.91	3172.30
714.10	3123.15
714.28	3192.78
714.46	3334.09
714.65	3170.26
714.83	3174.35
715.01	3321.81
715.19	3291.09
715.38	3084.24
715.56	3172.30
715.74	3065.81
715.92	3155.92
716.11	3334.09
716.29	2854.87
716.47	3227.60
716.65	3239.89
716.84	2895.83
717.02	3178.45
717.20	2979.79
717.38	3094.48
717.57	3168.21
717.75	3246.03
717.93	3174.35
718.11	3348.43
718.30	2977.75
718.48	3155.92
718.66	3524.55
718.84	3577.80
719.03	3098.58
719.21	2949.08
719.39	3688.39
719.57	3436.49
719.75	3164.11
719.94	3008.47
720.12	3200.98
720.30	3280.85
720.48	3200.98
720.67	3041.23
720.85	3170.26
721.03	3180.50
721.21	3053.52
721.39	3164.11
721.58	3377.10
721.76	3313.61
721.94	3123.15
722.12	3151.82
722.30	3600.33
722.49	3241.93
722.67	3147.73
722.85	3047.38
723.03	3022.80
723.21	3153.87
723.40	3162.06
723.58	3215.31
723.76	3354.57
723.94	3438.54
724.12	3098.58
724.30	3350.48
724.49	3499.98
724.67	3133.39
724.85	3200.98
725.03	3006.42
725.21	3504.07
725.40	3467.21
725.58	3176.40
725.76	3284.94
725.94	3323.85
726.12	3129.30
726.30	3108.82
726.49	3051.47
726.67	3254.22
726.85	3499.98
727.03	3958.72
727.21	5519.28
727.39	7370.64
727.57	7939.97
727.76	8419.20
727.94	8431.49
728.12	7180.18
728.30	6037.41
728.48	5550.00
728.66	5146.55
728.84	4835.25
729.03	4151.23
729.21	3778.50
729.39	3504.07
729.57	3413.96
729.75	3454.92
729.93	3356.62
730.11	3090.38
730.30	3205.07
730.48	3311.57
730.66	3145.68
730.84	3172.30
731.02	3215.31
731.20	3117.01
731.38	3125.20
731.56	2936.79
731.74	3106.77
731.93	3321.81
732.11	3272.65
732.29	3131.34
732.47	3459.02
732.65	3248.08
732.83	3260.37
733.01	3200.98
733.19	3143.63
733.37	3418.06
733.56	3071.95
733.74	2996.18
733.92	3565.51
734.10	3211.22
734.28	3182.54
734.46	2822.10
734.64	3205.07
734.82	3180.50
735.00	3080.14
735.18	3022.80
735.36	3233.74
735.54	3213.26
735.73	3063.76
735.91	3258.32
736.09	3559.37
736.27	3172.30
736.45	3246.03
736.63	2856.92
736.81	3127.25
736.99	3450.83
737.17	3295.18
737.35	3010.51
737.53	3291.09
737.71	3274.70
737.89	3270.61
738.07	3004.37
738.25	3166.16
738.43	2910.16
738.61	3147.73
738.80	2985.94
738.98	3133.39
739.16	3168.21
739.34	2992.08
739.52	3416.01
739.70	3213.26
739.88	3362.76
740.06	3225.55
740.24	2779.09
740.42	3508.17
740.60	2850.77
740.78	3033.04
740.96	2871.25
741.14	3209.17
741.32	3221.45
741.50	2959.31
741.68	3389.39
741.86	3463.12
742.04	2992.08
742.22	3059.67
742.40	3104.72
742.58	3479.50
742.76	3090.38
742.94	3311.57
743.12	2969.55
743.30	3309.52
743.48	3475.40
743.66	3076.05
743.84	3151.82
744.02	3213.26
744.20	3299.28
744.38	3020.75
744.56	3096.53
744.74	3633.10
744.92	3223.50
745.10	3276.75
745.28	3205.07
745.46	3672.01
745.64	3213.26
745.82	3209.17
746.00	3065.81
746.18	3426.25
746.36	3039.19
746.54	3194.83
746.72	3121.10
746.90	3071.95
747.08	3557.32
747.26	3131.34
747.44	3170.26
747.62	3350.48
747.80	3360.72
747.98	3223.50
748.15	3133.39
748.33	3678.15
748.51	3319.76
748.69	3215.31
748.87	3065.81
749.05	3235.79
749.23	3276.75
749.41	3057.62
749.59	3088.34
749.77	3516.36
749.95	3264.46
750.13	3119.06
750.31	3278.80
750.49	3330.00
750.67	3430.35
750.85	3246.03
751.03	3125.20
751.20	3645.38
751.38	3299.28
751.56	3149.78
751.74	3069.91
751.92	3162.06
752.10	3026.90
752.28	3278.80
752.46	3067.86
752.64	3239.89
752.82	3227.60
753.00	3219.41
753.18	2897.88
753.35	3219.41
753.53	3221.45
753.71	2996.18
753.89	3055.57
754.07	3254.22
754.25	3526.60
754.43	3205.07
754.61	3018.71
754.79	3336.14
754.97	3260.37
755.14	3270.61
755.32	2994.13
755.50	3319.76
755.68	3362.76
755.86	3018.71
756.04	3082.19
756.22	2963.41
756.40	3454.92
756.57	3280.85
756.75	2985.94
756.93	3536.84
757.11	3405.77
757.29	2996.18
757.47	3049.43
757.65	3024.85
757.82	2809.81
758.00	2979.79
758.18	2992.08
758.36	3074.00
758.54	3594.19
758.72	2936.79
758.90	3295.18
759.07	3370.96
759.25	3086.29
759.43	3217.36
759.61	2897.88
759.79	4454.33
759.97	3461.07
760.15	3106.77
760.32	3041.23
760.50	3338.19
760.68	3596.23
760.86	2977.75
761.04	3266.51
761.22	3434.44
761.39	3321.81
761.57	3209.17
761.75	3098.58
761.93	3368.91
762.11	3209.17
762.28	3162.06
762.46	3055.57
762.64	3608.52
762.82	2951.12
763.00	2975.70
763.18	3332.05
763.35	3096.53
763.53	3422.16
763.71	3176.40
763.89	3043.28
764.07	3321.81
764.24	3270.61
764.42	3180.50
764.60	3123.15
764.78	3379.15
764.96	3413.96
765.13	3270.61
765.31	2920.40
765.49	3360.72
765.67	3045.33
765.84	3088.34
766.02	3022.80
766.20	2951.12
766.38	3313.61
766.56	3248.08
766.73	3174.35
766.91	3241.93
767.09	3319.76
767.27	3180.50
767.44	2918.36
767.62	3413.96
767.80	3334.09
767.98	3004.37
768.15	3127.25
768.33	3420.11
768.51	3459.02
768.69	3241.93
768.87	3088.34
769.04	3254.22
769.22	3749.83
769.40	3229.65
769.58	3178.45
769.75	3327.95
769.93	3547.08
770.11	2985.94
770.28	2994.13
770.46	3450.83
770.64	3405.77
770.82	3067.86
770.99	2983.89
771.17	3348.43
771.35	3207.12
771.53	3198.93
771.70	3020.75
771.88	3360.72
772.06	3319.76
772.23	3037.14
772.41	3207.12
772.59	3250.13
772.77	3084.24
772.94	3086.29
773.12	3174.35
773.30	3106.77
773.47	3278.80
773.65	3016.66
773.83	3332.05
774.01	3338.19
774.18	2983.89
774.36	3106.77
774.54	3012.56
774.71	3237.84
774.89	2877.40
775.07	2938.84
775.24	3092.43
775.42	3119.06
775.60	3577.80
775.78	2959.31
775.95	2916.31
776.13	2971.60
776.31	2981.84
776.48	3239.89
776.66	3196.88
776.84	3182.54
777.01	3104.72
777.19	3024.85
777.37	2922.45
777.54	3438.54
777.72	3680.20
777.90	3147.73
778.07	3035.09
778.25	3942.34
778.43	3495.88
778.60	3067.86
778.78	3233.74
778.96	3540.94
779.13	2963.41
779.31	3125.20
779.49	3176.40
779.66	3299.28
779.84	3178.45
780.01	3045.33
780.19	2971.60
780.37	3477.45
780.54	3411.92
780.72	2877.40
780.90	2975.70
781.07	3278.80
781.25	3176.40
781.43	3272.65
781.60	3014.61
781.78	3561.42
781.95	3352.52
782.13	3053.52
782.31	3069.91
782.48	2975.70
782.66	3352.52
782.83	3350.48
783.01	3151.82
783.19	3452.88
783.36	3231.69
783.54	2951.12
783.72	3131.34
783.89	3184.59
784.07	3293.13
784.24	3200.98
784.42	3278.80
784.60	3370.96
784.77	3309.52
784.95	2838.48
785.12	3106.77
785.30	3282.89
785.47	3082.19
785.65	2922.45
785.83	3151.82
786.00	3127.25
786.18	3303.37
786.35	2979.79
786.53	2969.55
786.71	3504.07
786.88	3313.61
787.06	3203.02
787.23	3143.63
787.41	3024.85
787.58	3305.42
787.76	2973.65
787.94	3033.04
788.11	3373.00
788.29	3047.38
788.46	3098.58
788.64	2965.46
788.81	3155.92
788.99	3123.15
789.16	3008.47
789.34	3149.78
789.52	3125.20
789.69	3086.29
789.87	2897.88
790.04	3047.38
790.22	3348.43
790.39	3692.49
790.57	2981.84
790.74	3033.04
790.92	3551.18
791.09	2967.51
791.27	3117.01
791.44	3149.78
791.62	3246.03
791.79	3434.44
791.97	3233.74
792.15	3485.64
792.32	3407.82
792.50	3334.09
792.67	3303.37
792.85	3401.68
793.02	3370.96
793.20	3196.88
793.37	2906.07
793.55	2985.94
793.72	2934.74
793.90	3438.54
794.07	3030.99
794.25	2994.13
794.42	3270.61
794.60	3129.30
794.77	3117.01
794.95	3196.88
795.12	3456.97
795.30	3258.32
795.47	2858.96
795.65	3399.63
795.82	3354.57
796.00	3074.00
796.17	3139.54
796.34	3008.47
796.52	3358.67
796.69	3356.62
796.87	3123.15
797.04	3215.31
797.22	3348.43
797.39	3295.18
797.57	3213.26
797.74	3200.98
797.92	3411.92
798.09	3145.68
798.27	3354.57
798.44	3059.67
798.62	3139.54
798.79	3248.08
798.96	3258.32
799.14	3043.28
799.31	3801.03
799.49	3233.74
799.66	3061.71
799.84	3160.02
800.01	3041.23
800.19	3385.29
800.36	2865.11
800.53	3198.93
800.71	3377.10
800.88	3563.47
801.06	3082.19
801.23	3098.58
801.41	3217.36
801.58	3157.97
801.75	3080.14
801.93	3170.26
802.10	3487.69
802.28	3157.97
802.45	3123.15
802.63	3104.72
802.80	3549.13
802.97	3237.84
803.15	3145.68
803.32	3065.81
803.50	3076.05
803.67	3067.86
803.84	3055.57
804.02	3170.26
804.19	3250.13
804.37	2877.40
804.54	2957.27
804.71	3045.33
804.89	3362.76
805.06	3014.61
805.24	3014.61
805.41	2963.41
805.58	3037.14
805.76	3790.79
805.93	3125.20
806.10	3274.70
806.28	3403.72
806.45	3340.24
806.63	3188.69
806.80	3147.73
806.97	3295.18
807.15	3260.37
807.32	3125.20
807.49	3157.97
807.67	2979.79
807.84	3344.33
808.01	2897.88
808.19	3147.73
808.36	3674.06
808.54	3082.19
808.71	2977.75
808.88	2998.23
809.06	3549.13
809.23	3579.85
809.40	3127.25
809.58	3104.72
809.75	3286.99
809.92	2985.94
810.10	3360.72
810.27	3057.62
810.44	3366.86
810.62	3401.68
810.79	3078.10
810.96	3096.53
811.14	3198.93
811.31	3377.10
811.48	3344.33
811.66	3172.30
811.83	3557.32
812.00	3430.35
812.18	3155.92
812.35	3387.34
812.52	3151.82
812.69	3104.72
812.87	3065.81
813.04	2944.98
813.21	3278.80
813.39	3090.38
813.56	3053.52
813.73	3373.00
813.91	2961.36
814.08	3293.13
814.25	3110.86
814.42	2787.29
814.60	3248.08
814.77	3327.95
814.94	3000.27
815.12	3215.31
815.29	3708.87
815.46	3139.54
815.63	3153.87
815.81	3028.95
815.98	3098.58
816.15	3319.76
816.33	3178.45
816.50	2996.18
816.67	3311.57
816.84	3145.68
817.02	2987.99
817.19	3047.38
817.36	3342.28
817.53	3334.09
817.71	3016.66
817.88	3076.05
818.05	3190.74
818.22	3147.73
818.40	3276.75
818.57	3092.43
818.74	3241.93
818.91	3272.65
819.09	3286.99
819.26	3157.97
819.43	3121.10
819.60	3074.00
819.78	3327.95
819.95	3172.30
820.12	3090.38
820.29	3473.36
820.47	3332.05
820.64	2924.50
820.81	2922.45
820.98	3092.43
821.15	3133.39
821.33	3229.65
821.50	2947.03
821.67	3401.68
821.84	3006.42
822.02	3076.05
822.19	3422.16
822.36	3299.28
822.53	3006.42
822.70	3049.43
822.88	3221.45
823.05	3495.88
823.22	3137.49
823.39	3127.25
823.56	3315.66
823.74	3608.52
823.91	3000.27
824.08	3033.04
824.25	3041.23
824.42	3614.66
824.60	2912.21
824.77	3168.21
824.94	3143.63
825.11	3344.33
825.28	2942.93
825.45	3229.65
825.63	3354.57
825.80	3057.62
825.97	3237.84
826.14	3192.78
826.31	3006.42
826.48	3377.10
826.66	2996.18
826.83	3002.32
827.00	3225.55
827.17	3028.95
827.34	3147.73
827.51	3053.52
827.69	3225.55
827.86	3028.95
828.03	3117.01
828.20	3131.34
828.37	3082.19
828.54	3348.43
828.71	3012.56
828.89	3123.15
829.06	3319.76
829.23	3559.37
829.40	3074.00
829.57	3041.23
829.74	3370.96
829.91	3200.98
830.09	3053.52
830.26	3200.98
830.43	3536.84
830.60	3207.12
830.77	3188.69
830.94	3295.18
831.11	3430.35
831.28	3182.54
831.46	3180.50
831.63	3035.09
831.80	3383.24
831.97	3182.54
832.14	3123.15
832.31	3074.00
832.48	3278.80
832.65	3493.83
832.82	3129.30
832.99	3133.39
833.17	3069.91
833.34	3540.94
833.51	3028.95
833.68	2848.72
833.85	3487.69
834.02	3078.10
834.19	3006.42
834.36	3074.00
834.53	3352.52
834.70	3506.12
834.87	3026.90
835.04	2858.96
835.22	3082.19
835.39	3172.30
835.56	2932.69
835.73	2908.12
835.90	3489.74
836.07	3067.86
836.24	2990.03
836.41	2963.41
836.58	3041.23
836.75	3442.64
836.92	3016.66
837.09	2926.55
837.26	3373.00
837.43	3301.33
837.60	3035.09
837.77	2983.89
837.94	3407.82
838.12	3485.64
838.29	2852.82
838.46	2820.05
838.63	2981.84
838.80	3506.12
838.97	2981.84
839.14	2818.00
839.31	3231.69
839.48	3348.43
839.65	2990.03
839.82	3059.67
839.99	3315.66
840.16	3172.30
840.33	2899.92
840.50	3041.23
840.67	3061.71
840.84	2852.82
841.01	2918.36
841.18	2906.07
841.35	3164.11
841.52	3491.79
841.69	3254.22
841.86	2947.03
842.03	3284.94
842.20	3459.02
842.37	2967.51
842.54	2906.07
842.71	3213.26
842.88	3037.14
843.05	2871.25
843.22	2961.36
843.39	3342.28
843.56	3186.64
843.73	2867.16
843.90	2983.89
844.07	3268.56
844.24	3426.25
844.41	3033.04
844.58	2963.41
844.75	3231.69
844.92	3395.53
845.09	2957.27
845.26	2926.55
845.43	3389.39
845.60	3172.30
845.77	3047.38
845.94	3094.48
846.10	3493.83
846.27	3018.71
846.44	2822.10
846.61	2822.10
846.78	3377.10
846.95	3450.83
847.12	2858.96
847.29	2899.92
847.46	3168.21
847.63	3395.53
847.80	2850.77
847.97	3018.71
848.14	3770.31
848.31	3170.26
848.48	2805.72
848.65	2852.82
848.82	3147.73
848.98	3805.13
849.15	3082.19
849.32	3024.85
849.49	3483.59
849.66	3123.15
849.83	2899.92
850.00	2914.26
850.17	3473.36
850.34	3229.65
850.51	2850.77
850.68	2936.79
850.85	3764.17
851.01	3327.95
851.18	2826.20
851.35	2961.36
851.52	3330.00
851.69	3487.69
851.86	2906.07
852.03	2885.59
852.20	3379.15
852.37	3192.78
852.53	2803.67
852.70	2854.87
852.87	3362.76
853.04	3389.39
853.21	2885.59
853.38	3147.73
853.55	3590.09
853.72	3510.22
853.89	2893.78
854.05	2936.79
854.22	3180.50
854.39	3153.87
854.56	2944.98
854.73	3053.52
854.90	3192.78
855.07	3213.26
855.23	2826.20
855.40	2799.57
855.57	3194.83
855.74	2791.38
855.91	3147.73
856.08	2775.00
856.25	3045.33
856.41	3155.92
856.58	2906.07
856.75	2944.98
856.92	3008.47
857.09	3442.64
857.26	2713.56
857.42	3074.00
857.59	3389.39
857.76	3098.58
857.93	2918.36
858.10	3051.47
858.27	3020.75
858.43	3319.76
858.60	2916.31
858.77	2752.47
858.94	3125.20
859.11	3516.36
859.27	2938.84
859.44	2877.40
859.61	3639.24
859.78	3268.56
859.95	2959.31
860.12	2854.87
860.28	3708.87
860.45	3622.86
860.62	2885.59
860.79	3018.71
860.95	3174.35
861.12	3174.35
861.29	2746.33
861.46	2938.84
861.63	3282.89
861.79	3297.23
861.96	2793.43
862.13	2904.02
862.30	3491.79
862.47	3149.78
862.63	2885.59
862.80	2914.26
862.97	3516.36
863.14	3344.33
863.30	2922.45
863.47	2848.72
863.64	3573.71
863.81	3286.99
863.97	2854.87
864.14	2889.68
864.31	3178.45
864.48	3266.51
864.65	2863.06
864.81	3076.05
864.98	3370.96
865.15	3434.44
865.32	2994.13
865.48	2961.36
865.65	3651.53
865.82	3221.45
865.98	3002.32
866.15	2944.98
866.32	3219.41
866.49	3258.32
866.65	3074.00
866.82	2928.60
866.99	3153.87
867.16	3098.58
867.32	2926.55
867.49	2813.91
867.66	3207.12
867.83	3123.15
867.99	2897.88
868.16	2951.12
868.33	3028.95
868.49	3286.99
868.66	2891.73
868.83	2983.89
868.99	3295.18
869.16	3274.70
869.33	3000.27
869.50	2918.36
869.66	3344.33
869.83	3289.04
870.00	2852.82
870.16	3065.81
870.33	3266.51
870.50	3403.72
870.66	3074.00
870.83	2955.22
871.00	3157.97
871.17	3317.71
871.33	2975.70
871.50	2830.29
871.67	3368.91
871.83	3160.02
872.00	2961.36
872.17	2897.88
872.33	3702.73
872.50	3508.17
872.67	3010.51
872.83	2944.98
873.00	3303.37
873.17	3211.22
873.33	3041.23
873.50	2973.65
873.67	3106.77
873.83	3053.52
874.00	2885.59
874.16	3117.01
874.33	3268.56
874.50	3033.04
874.66	2873.30
874.83	3016.66
875.00	3389.39
875.16	3379.15
875.33	3098.58
875.50	2658.26
875.66	3180.50
875.83	3319.76
875.99	3008.47
876.16	2951.12
876.33	3131.34
876.49	3203.02
876.66	2897.88
876.83	2910.16
876.99	2901.97
877.16	3198.93
877.32	2934.74
877.49	2971.60
877.66	3387.34
877.82	3526.60
877.99	2985.94
878.15	3174.35
878.32	3325.90
878.49	3323.85
878.65	2973.65
878.82	3274.70
878.98	3082.19
879.15	3450.83
879.32	3137.49
879.48	3055.57
879.65	3184.59
879.81	3147.73
879.98	2973.65
880.15	2942.93
880.31	3399.63
880.48	3147.73
880.64	3061.71
880.81	3035.09
880.97	3520.46
881.14	3454.92
881.31	2836.44
881.47	3043.28
881.64	3215.31
881.80	2951.12
881.97	3215.31
882.13	2969.55
882.30	3008.47
882.47	3137.49
882.63	3000.27
882.80	2881.49
882.96	3209.17
883.13	3467.21
883.29	2959.31
883.46	2899.92
883.62	3751.88
883.79	3246.03
883.95	3135.44
884.12	2850.77
884.29	3575.75
884.45	3229.65
884.62	2914.26
884.78	2877.40
884.95	3606.47
885.11	3041.23
885.28	3102.67
885.44	2926.55
885.61	3352.52
885.77	3514.31
885.94	3043.28
886.10	2992.08
886.27	3233.74
886.43	3639.24
886.60	3110.86
886.76	2934.74
886.93	3047.38
887.09	3303.37
887.26	2848.72
887.42	3035.09
887.59	3528.65
887.75	3801.03
887.92	3094.48
888.08	3071.95
888.25	3637.19
888.41	3471.31
888.58	3045.33
888.74	2865.11
888.91	3166.16
>>>>>End Processed Spectral Data<<<<<
