SpectraSuite Data File
++++++++++++++++++++++++++++++++++++
Date: Fri May 06 08:13:45 CEST 2016
User: root
Dark Spectrum Present: No
Reference Spectrum Present: No
Number of Sampled Component Spectra: 1
Spectrometers: USB4C02835
Integration Time (usec): 100000 (USB4C02835)
Spectra Averaged: 1 (USB4C02835)
Boxcar Smoothing: 0 (USB4C02835)
Correct for Electrical Dark: No (USB4C02835)
Strobe/Lamp Enabled: No (USB4C02835)
Correct for Detector Non-linearity: No (USB4C02835)
Correct for Stray Light: No (USB4C02835)
Number of Pixels in Processed Spectrum: 3648
>>>>>Begin Processed Spectral Data<<<<<
177.47	2273.25
177.69	2273.25
177.91	2273.25
178.13	2289.63
178.36	2279.39
178.58	3069.91
178.80	3143.63
179.02	3065.81
179.24	3067.86
179.46	2828.24
179.68	2830.29
179.90	3227.60
180.13	3233.74
180.35	2754.52
180.57	2805.72
180.79	3506.12
181.01	3321.81
181.23	2899.92
181.45	3033.04
181.67	3395.53
181.90	3332.05
182.12	2889.68
182.34	2697.17
182.56	3489.74
182.78	3405.77
183.00	2828.24
183.22	2863.06
183.44	2904.02
183.66	3948.48
183.89	3008.47
184.11	2838.48
184.33	3405.77
184.55	3526.60
184.77	2779.09
184.99	2852.82
185.21	3239.89
185.43	3809.22
185.65	2873.30
185.87	2852.82
186.10	3835.85
186.32	3762.12
186.54	2934.74
186.76	2983.89
186.98	3495.88
187.20	3176.40
187.42	2899.92
187.64	2873.30
187.86	3418.06
188.08	3547.08
188.30	2781.14
188.52	2887.64
188.75	3553.23
188.97	3432.40
189.19	2838.48
189.41	2852.82
189.63	3291.09
189.85	3092.43
190.07	2736.09
190.29	2729.94
190.51	3405.77
190.73	3065.81
190.95	3119.06
191.17	2897.88
191.39	3018.71
191.61	3174.35
191.84	2861.01
192.06	3014.61
192.28	3004.37
192.50	3968.96
192.72	2975.70
192.94	2942.93
193.16	3491.79
193.38	3362.76
193.60	2799.57
193.82	3004.37
194.04	3528.65
194.26	3358.67
194.48	2936.79
194.70	2887.64
194.92	3274.70
195.14	3450.83
195.36	2879.44
195.58	2957.27
195.80	3256.27
196.02	3096.53
196.24	2781.14
196.46	2994.13
196.69	3108.82
196.91	3807.17
197.13	2920.40
197.35	2820.05
197.57	3624.90
197.79	3401.68
198.01	2983.89
198.23	2869.20
198.45	3381.20
198.67	3010.51
198.89	2693.08
199.11	2961.36
199.33	3063.76
199.55	2867.16
199.77	2834.39
199.99	3020.75
200.21	3207.12
200.43	3461.07
200.65	2772.95
200.87	2697.17
201.09	3221.45
201.31	3246.03
201.53	2934.74
201.75	2877.40
201.97	3352.52
202.19	3325.90
202.41	2951.12
202.63	2985.94
202.85	3346.38
203.07	3385.29
203.29	2975.70
203.51	2766.81
203.73	3151.82
203.95	3788.74
204.17	2873.30
204.39	3014.61
204.61	3213.26
204.83	3215.31
205.05	3000.27
205.27	2936.79
205.49	3835.85
205.71	3307.47
205.93	2729.94
206.15	2789.33
206.37	3286.99
206.59	3155.92
206.81	2707.41
207.03	2820.05
207.25	3160.02
207.47	3442.64
207.69	2893.78
207.91	3086.29
208.13	3588.04
208.34	3065.81
208.56	2762.71
208.78	2858.96
209.00	3211.22
209.22	3219.41
209.44	2887.64
209.66	2836.44
209.88	3229.65
210.10	3233.74
210.32	2850.77
210.54	2947.03
210.76	3217.36
210.98	3524.55
211.20	2678.74
211.42	3004.37
211.64	3626.95
211.86	3473.36
212.08	2871.25
212.30	2893.78
212.52	3264.46
212.74	3340.24
212.96	2971.60
213.17	2951.12
213.39	3434.44
213.61	3706.82
213.83	2803.67
214.05	2748.37
214.27	3551.18
214.49	3049.43
214.71	2772.95
214.93	2930.64
215.15	3282.89
215.37	3534.79
215.59	2721.75
215.81	2926.55
216.03	3475.40
216.24	3297.23
216.46	2844.63
216.68	2893.78
216.90	3504.07
217.12	3426.25
217.34	2822.10
217.56	3106.77
217.78	3561.42
218.00	3395.53
218.22	2953.17
218.44	3020.75
218.66	3311.57
218.87	3592.14
219.09	2869.20
219.31	2850.77
219.53	3373.00
219.75	3301.33
219.97	2922.45
220.19	2963.41
220.41	3241.93
220.63	3559.37
220.85	2936.79
221.06	2861.01
221.28	3573.71
221.50	3477.45
221.72	2906.07
221.94	2795.48
222.16	3272.65
222.38	3483.59
222.60	2824.15
222.82	2861.01
223.03	3491.79
223.25	3082.19
223.47	2813.91
223.69	3092.43
223.91	3442.64
224.13	3254.22
224.35	2815.96
224.57	3000.27
224.78	3491.79
225.00	3080.14
225.22	3078.10
225.44	2836.44
225.66	3370.96
225.88	3192.78
226.10	2979.79
226.32	2881.49
226.53	3590.09
226.75	3182.54
226.97	2906.07
227.19	2861.01
227.41	3155.92
227.63	3190.74
227.85	2674.65
228.06	2965.46
228.28	3301.33
228.50	3502.03
228.72	2705.37
228.94	2877.40
229.16	2942.93
229.37	3172.30
229.59	2793.43
229.81	3170.26
230.03	3219.41
230.25	3082.19
230.47	2691.03
230.69	2801.62
230.90	3487.69
231.12	3186.64
231.34	2940.88
231.56	2912.21
231.78	3127.25
232.00	3223.50
232.21	2916.31
232.43	2994.13
232.65	2846.68
232.87	3325.90
233.09	2709.46
233.30	2813.91
233.52	3583.95
233.74	3272.65
233.96	2844.63
234.18	3028.95
234.40	3286.99
234.61	3801.03
234.83	2748.37
235.05	2858.96
235.27	3770.31
235.49	3571.66
235.70	2768.85
235.92	2926.55
236.14	3395.53
236.36	3801.03
236.58	2789.33
236.79	2949.08
237.01	3205.07
237.23	3401.68
237.45	3053.52
237.67	2957.27
237.88	3342.28
238.10	3651.53
238.32	2799.57
238.54	2770.90
238.76	3254.22
238.97	3151.82
239.19	2838.48
239.41	2955.22
239.63	3510.22
239.85	3270.61
240.06	2856.92
240.28	2910.16
240.50	3497.93
240.72	3256.27
240.93	2748.37
241.15	3004.37
241.37	3198.93
241.59	3495.88
241.81	2879.44
242.02	3014.61
242.24	3399.63
242.46	3377.10
242.68	2703.32
242.89	2830.29
243.11	3475.40
243.33	3223.50
243.55	2836.44
243.76	2762.71
243.98	3155.92
244.20	3317.71
244.42	2861.01
244.64	2865.11
244.85	3049.43
245.07	3074.00
245.29	2830.29
245.51	2942.93
245.72	3332.05
245.94	3524.55
246.16	2807.77
246.38	2869.20
246.59	3180.50
246.81	3112.91
247.03	2809.81
247.24	2770.90
247.46	3100.62
247.68	3401.68
247.90	2746.33
248.11	2877.40
248.33	3428.30
248.55	3278.80
248.77	2951.12
248.98	2887.64
249.20	3592.14
249.42	3305.42
249.64	2811.86
249.85	2846.68
250.07	3139.54
250.29	3370.96
250.50	2926.55
250.72	2801.62
250.94	3348.43
251.16	3727.30
251.37	2910.16
251.59	2928.60
251.81	3403.72
252.02	3661.77
252.24	2740.18
252.46	2985.94
252.68	3145.68
252.89	3117.01
253.11	2693.08
253.33	3053.52
253.54	3545.03
253.76	3061.71
253.98	2844.63
254.20	2883.54
254.41	3002.32
254.63	3295.18
254.85	2838.48
255.06	2936.79
255.28	3401.68
255.50	3229.65
255.71	2789.33
255.93	2711.51
256.15	3215.31
256.36	3364.81
256.58	2717.65
256.80	2777.05
257.02	3241.93
257.23	3235.79
257.45	2906.07
257.67	3014.61
257.88	3139.54
258.10	3375.05
258.32	2904.02
258.53	2912.21
258.75	3633.10
258.97	3182.54
259.18	2766.81
259.40	2750.42
259.62	3663.82
259.83	3608.52
260.05	2822.10
260.27	3729.35
260.48	3508.17
260.70	3065.81
260.92	2762.71
261.13	2832.34
261.35	3254.22
261.57	3364.81
261.78	2770.90
262.00	2754.52
262.22	3373.00
262.43	3178.45
262.65	2848.72
262.86	2811.86
263.08	3774.41
263.30	3299.28
263.51	2648.02
263.73	2781.14
263.95	3659.72
264.16	3104.72
264.38	2723.80
264.60	2779.09
264.81	3284.94
265.03	3532.75
265.25	3198.93
265.46	2797.53
265.68	3479.50
265.89	3362.76
266.11	2746.33
266.33	2865.11
266.54	3538.89
266.76	3330.00
266.98	2985.94
267.19	2985.94
267.41	3485.64
267.62	3336.14
267.84	2582.49
268.06	3061.71
268.27	3293.13
268.49	3581.90
268.70	2938.84
268.92	2904.02
269.14	2983.89
269.35	3006.42
269.57	3002.32
269.79	2912.21
270.00	3098.58
270.22	3598.28
270.43	2795.48
270.65	2672.60
270.87	3291.09
271.08	3330.00
271.30	3022.80
271.51	2850.77
271.73	3473.36
271.95	3542.99
272.16	2848.72
272.38	3018.71
272.59	3196.88
272.81	3381.20
273.02	2863.06
273.24	2840.53
273.46	3471.31
273.67	3018.71
273.89	2748.37
274.10	2906.07
274.32	3565.51
274.54	3330.00
274.75	2934.74
274.97	2936.79
275.18	3473.36
275.40	3375.05
275.61	2865.11
275.83	3037.14
276.05	3080.14
276.26	3276.75
276.48	2955.22
276.69	3049.43
276.91	3166.16
277.12	3569.61
277.34	3022.80
277.55	3108.82
277.77	3381.20
277.99	3229.65
278.20	2998.23
278.42	2861.01
278.63	3125.20
278.85	3114.96
279.06	2979.79
279.28	3069.91
279.49	3672.01
279.71	3356.62
279.93	3114.96
280.14	3076.05
280.36	3074.00
280.57	3465.16
280.79	3133.39
281.00	2895.83
281.22	3205.07
281.43	3553.23
281.65	2815.96
281.86	2858.96
282.08	3323.85
282.29	3557.32
282.51	2861.01
282.73	2820.05
282.94	2992.08
283.16	3454.92
283.37	3080.14
283.59	2951.12
283.80	3360.72
284.02	3276.75
284.23	3059.67
284.45	2969.55
284.66	3102.67
284.88	3141.58
285.09	2891.73
285.31	3080.14
285.52	3315.66
285.74	2996.18
285.95	3248.08
286.17	3078.10
286.38	3520.46
286.60	3196.88
286.81	2953.17
287.03	3041.23
287.24	3252.17
287.46	3459.02
287.67	3125.20
287.89	3225.55
288.10	3276.75
288.32	3270.61
288.53	3086.29
288.75	3024.85
288.96	3467.21
289.18	3250.13
289.39	2875.35
289.61	3035.09
289.82	3702.73
290.04	3678.15
290.25	2877.40
290.47	3074.00
290.68	3260.37
290.90	3502.03
291.11	2781.14
291.33	3180.50
291.54	3149.78
291.76	3162.06
291.97	3071.95
292.18	3053.52
292.40	3110.86
292.61	3147.73
292.83	3280.85
293.04	3139.54
293.26	3309.52
293.47	3196.88
293.69	2869.20
293.90	2863.06
294.12	3532.75
294.33	3235.79
294.55	2969.55
294.76	3235.79
294.97	3561.42
295.19	3723.21
295.40	2981.84
295.62	3084.24
295.83	3473.36
296.05	3088.34
296.26	3243.98
296.48	2971.60
296.69	3315.66
296.90	3227.60
297.12	3110.86
297.33	3147.73
297.55	3303.37
297.76	3362.76
297.98	3102.67
298.19	3254.22
298.41	3270.61
298.62	3098.58
298.83	3215.31
299.05	3110.86
299.26	3172.30
299.48	3086.29
299.69	3092.43
299.90	2953.17
300.12	3127.25
300.33	3315.66
300.55	3063.76
300.76	3020.75
300.98	3074.00
301.19	3438.54
301.40	2990.03
301.62	3012.56
301.83	3370.96
302.05	3286.99
302.26	2951.12
302.47	3114.96
302.69	3033.04
302.90	3272.65
303.12	2807.77
303.33	3053.52
303.54	3639.24
303.76	3110.86
303.97	3000.27
304.19	3266.51
304.40	3106.77
304.61	3360.72
304.83	3110.86
305.04	3098.58
305.26	3452.88
305.47	3157.97
305.68	3020.75
305.90	2850.77
306.11	3540.94
306.33	3280.85
306.54	2877.40
306.75	3016.66
306.97	2963.41
307.18	3076.05
307.39	3043.28
307.61	3016.66
307.82	3151.82
308.04	3411.92
308.25	2838.48
308.46	3039.19
308.68	3276.75
308.89	3317.71
309.10	3127.25
309.32	3033.04
309.53	3395.53
309.74	3362.76
309.96	2867.16
310.17	3100.62
310.39	3176.40
310.60	3385.29
310.81	3143.63
311.03	2955.22
311.24	3405.77
311.45	3309.52
311.67	3291.09
311.88	3098.58
312.09	3209.17
312.31	3174.35
312.52	2912.21
312.73	2955.22
312.95	2938.84
313.16	3135.44
313.37	3143.63
313.59	3166.16
313.80	3397.58
314.01	3508.17
314.23	3014.61
314.44	2910.16
314.65	2985.94
314.87	3143.63
315.08	2893.78
315.29	3028.95
315.51	3127.25
315.72	2996.18
315.93	3051.47
316.15	3127.25
316.36	3266.51
316.57	3297.23
316.79	3049.43
317.00	2885.59
317.21	3368.91
317.43	3106.77
317.64	3088.34
317.85	2885.59
318.07	3149.78
318.28	3174.35
318.49	3102.67
318.70	3217.36
318.92	3344.33
319.13	3467.21
319.34	3215.31
319.56	3006.42
319.77	3418.06
319.98	3469.26
320.20	3286.99
320.41	3176.40
320.62	3330.00
320.83	3063.76
321.05	3291.09
321.26	3065.81
321.47	3266.51
321.69	3567.56
321.90	2918.36
322.11	2975.70
322.32	3332.05
322.54	3649.48
322.75	2994.13
322.96	4018.11
323.18	3000.27
323.39	2820.05
323.60	2908.12
323.81	3141.58
324.03	3102.67
324.24	3323.85
324.45	3119.06
324.66	2897.88
324.88	3491.79
325.09	3583.95
325.30	2944.98
325.52	2906.07
325.73	3323.85
325.94	3098.58
326.15	2844.63
326.37	2961.36
326.58	3381.20
326.79	3639.24
327.00	2910.16
327.22	2914.26
327.43	3145.68
327.64	3026.90
327.85	3078.10
328.07	3110.86
328.28	3659.72
328.49	3184.59
328.70	2944.98
328.92	2967.51
329.13	3360.72
329.34	3354.57
329.55	3186.64
329.76	3135.44
329.98	3231.69
330.19	3485.64
330.40	3047.38
330.61	3102.67
330.83	3471.31
331.04	3164.11
331.25	3022.80
331.46	3035.09
331.68	3006.42
331.89	3409.87
332.10	2996.18
332.31	2887.64
332.52	3295.18
332.74	3459.02
332.95	2750.42
333.16	2992.08
333.37	3448.78
333.58	3147.73
333.80	3047.38
334.01	2795.48
334.22	3278.80
334.43	3141.58
334.64	2912.21
334.86	2985.94
335.07	3112.91
335.28	3626.95
335.49	2795.48
335.70	3008.47
335.92	3459.02
336.13	3710.92
336.34	3037.14
336.55	2992.08
336.76	3295.18
336.98	2951.12
337.19	2985.94
337.40	3076.05
337.61	3741.64
337.82	3205.07
338.04	3082.19
338.25	2797.53
338.46	3301.33
338.67	3254.22
338.88	2910.16
339.09	2844.63
339.31	3196.88
339.52	3053.52
339.73	2977.75
339.94	3078.10
340.15	3405.77
340.36	3153.87
340.58	3045.33
340.79	2924.50
341.00	3413.96
341.21	2910.16
341.42	3209.17
341.63	2967.51
341.85	3459.02
342.06	3293.13
342.27	2949.08
342.48	3229.65
342.69	2949.08
342.90	3377.10
343.12	3375.05
343.33	2893.78
343.54	3377.10
343.75	3565.51
343.96	3131.34
344.17	2934.74
344.38	3250.13
344.60	3131.34
344.81	2947.03
345.02	3004.37
345.23	3602.38
345.44	3827.65
345.65	3008.47
345.86	3063.76
346.07	3364.81
346.29	3024.85
346.50	3119.06
346.71	3053.52
346.92	3575.75
347.13	3848.13
347.34	3039.19
347.55	2828.24
347.76	3399.63
347.98	3033.04
348.19	3010.51
348.40	3168.21
348.61	3209.17
348.82	3608.52
349.03	3098.58
349.24	2967.51
349.45	3698.63
349.66	2893.78
349.88	3010.51
350.09	2893.78
350.30	3596.23
350.51	3557.32
350.72	3176.40
350.93	2985.94
351.14	3157.97
351.35	3315.66
351.56	2977.75
351.77	3086.29
351.99	3477.45
352.20	3495.88
352.41	3176.40
352.62	2871.25
352.83	3252.17
353.04	3203.02
353.25	2987.99
353.46	3030.99
353.67	3416.01
353.88	2885.59
354.09	2832.34
354.30	3055.57
354.52	3440.59
354.73	3246.03
354.94	2908.12
355.15	3049.43
355.36	3659.72
355.57	3186.64
355.78	2947.03
355.99	3049.43
356.20	3250.13
356.41	3487.69
356.62	3086.29
356.83	3000.27
357.04	3493.83
357.25	2992.08
357.46	2965.46
357.68	2957.27
357.89	3094.48
358.10	3217.36
358.31	3014.61
358.52	3059.67
358.73	3067.86
358.94	3039.19
359.15	3059.67
359.36	3020.75
359.57	3362.76
359.78	3286.99
359.99	3209.17
360.20	2877.40
360.41	3233.74
360.62	3471.31
360.83	3170.26
361.04	3088.34
361.25	3379.15
361.46	3549.13
361.67	3065.81
361.88	2990.03
362.09	3344.33
362.30	3344.33
362.51	2920.40
362.72	3168.21
362.93	3559.37
363.14	3399.63
363.35	3071.95
363.56	2934.74
363.78	3459.02
363.99	3493.83
364.20	3035.09
364.41	3076.05
364.62	3672.01
364.83	3366.86
365.04	2965.46
365.25	3008.47
365.46	3663.82
365.67	3133.39
365.88	3221.45
366.09	3004.37
366.30	3203.02
366.51	3278.80
366.72	2940.88
366.93	2912.21
367.14	3325.90
367.35	3545.03
367.56	2955.22
367.77	3135.44
367.98	3323.85
368.18	3430.35
368.39	3227.60
368.60	2967.51
368.81	3381.20
369.02	3373.00
369.23	2969.55
369.44	2846.68
369.65	3266.51
369.86	3450.83
370.07	3147.73
370.28	2926.55
370.49	3385.29
370.70	3319.76
370.91	2885.59
371.12	2856.92
371.33	3510.22
371.54	3205.07
371.75	3069.91
371.96	2854.87
372.17	3270.61
372.38	3264.46
372.59	2955.22
372.80	2947.03
373.01	3205.07
373.22	3274.70
373.43	3006.42
373.64	2858.96
373.85	3471.31
374.06	3608.52
374.26	3160.02
374.47	3137.49
374.68	3639.24
374.89	3289.04
375.10	2926.55
375.31	3055.57
375.52	3297.23
375.73	3313.61
375.94	2828.24
376.15	3092.43
376.36	3133.39
376.57	3178.45
376.78	3049.43
376.99	3098.58
377.20	3553.23
377.40	3184.59
377.61	3289.04
377.82	2850.77
378.03	3524.55
378.24	3418.06
378.45	3098.58
378.66	3112.91
378.87	2922.45
379.08	2940.88
379.29	2990.03
379.50	3164.11
379.71	3205.07
379.91	3375.05
380.12	2969.55
380.33	3078.10
380.54	3270.61
380.75	3254.22
380.96	3096.53
381.17	3037.14
381.38	3319.76
381.59	3319.76
381.80	3049.43
382.00	3221.45
382.21	3377.10
382.42	3618.76
382.63	3368.91
382.84	3168.21
383.05	3522.51
383.26	3592.14
383.47	3092.43
383.68	2959.31
383.88	3424.20
384.09	3190.74
384.30	3258.32
384.51	3198.93
384.72	3239.89
384.93	2977.75
385.14	3053.52
385.35	3299.28
385.55	3051.47
385.76	3444.68
385.97	2981.84
386.18	2926.55
386.39	3110.86
386.60	3180.50
386.81	3008.47
387.02	2904.02
387.22	3078.10
387.43	3385.29
387.64	3053.52
387.85	3336.14
388.06	3313.61
388.27	4333.50
388.48	7954.31
388.68	12019.53
388.89	15267.61
389.10	16498.44
389.31	16238.34
389.52	13297.46
389.73	11235.16
389.93	10274.66
390.14	9402.22
390.35	8599.42
390.56	7999.37
390.77	6623.13
390.98	5074.87
391.18	4237.25
391.39	3844.04
391.60	3315.66
391.81	3334.09
392.02	3043.28
392.23	3733.45
392.43	3319.76
392.64	3137.49
392.85	3100.62
393.06	3592.14
393.27	3256.27
393.47	2893.78
393.68	3110.86
393.89	3149.78
394.10	3516.36
394.31	3045.33
394.52	2912.21
394.72	3108.82
394.93	3594.19
395.14	3008.47
395.35	3121.10
395.56	3102.67
395.76	3227.60
395.97	3016.66
396.18	3246.03
396.39	3293.13
396.60	3903.43
396.80	3430.35
397.01	3342.28
397.22	3389.39
397.43	3493.83
397.64	3143.63
397.84	3094.48
398.05	3698.63
398.26	3145.68
398.47	3170.26
398.67	3252.17
398.88	3241.93
399.09	3360.72
399.30	2959.31
399.51	3082.19
399.71	3196.88
399.92	3356.62
400.13	3096.53
400.34	3106.77
400.54	3332.05
400.75	3614.66
400.96	3239.89
401.17	3397.58
401.37	3430.35
401.58	3274.70
401.79	3024.85
402.00	3217.36
402.21	3792.84
402.41	3461.07
402.62	3346.38
402.83	3540.94
403.04	3717.06
403.24	4126.66
403.45	3188.69
403.66	3409.87
403.87	3471.31
404.07	3592.14
404.28	3276.75
404.49	3325.90
404.70	3397.58
404.90	3477.45
405.11	3033.04
405.32	3106.77
405.52	3102.67
405.73	3100.62
405.94	2961.36
406.15	3096.53
406.35	3391.44
406.56	3502.03
406.77	3162.06
406.98	2985.94
407.18	3076.05
407.39	3663.82
407.60	3119.06
407.80	3168.21
408.01	3149.78
408.22	3395.53
408.43	2883.54
408.63	3092.43
408.84	3508.17
409.05	3409.87
409.25	2957.27
409.46	3041.23
409.67	3119.06
409.88	3211.22
410.08	3114.96
410.29	2983.89
410.50	3426.25
410.70	3454.92
410.91	3071.95
411.12	3063.76
411.32	3342.28
411.53	2998.23
411.74	3080.14
411.95	3098.58
412.15	3219.41
412.36	3491.79
412.57	3254.22
412.77	3213.26
412.98	3219.41
413.19	3143.63
413.39	3200.98
413.60	3127.25
413.81	3608.52
414.01	3055.57
414.22	3090.38
414.43	3250.13
414.63	3198.93
414.84	3469.26
415.05	3041.23
415.25	2869.20
415.46	3352.52
415.67	3178.45
415.87	3123.15
416.08	3002.32
416.29	3270.61
416.49	3452.88
416.70	3065.81
416.91	3078.10
417.11	3135.44
417.32	3542.99
417.53	3170.26
417.73	3184.59
417.94	3286.99
418.15	3233.74
418.35	3088.34
418.56	3117.01
418.77	3819.46
418.97	3389.39
419.18	3196.88
419.38	2740.18
419.59	3338.19
419.80	3575.75
420.00	2990.03
420.21	3022.80
420.42	3516.36
420.62	3409.87
420.83	3000.27
421.04	3057.62
421.24	3282.89
421.45	3483.59
421.65	3100.62
421.86	3014.61
422.07	3512.27
422.27	3411.92
422.48	2975.70
422.69	2930.64
422.89	3299.28
423.10	3278.80
423.30	2920.40
423.51	3139.54
423.72	3303.37
423.92	3407.82
424.13	2930.64
424.33	3049.43
424.54	3389.39
424.75	3352.52
424.95	3286.99
425.16	2975.70
425.36	3250.13
425.57	3452.88
425.78	3174.35
425.98	3102.67
426.19	3172.30
426.39	3114.96
426.60	3186.64
426.81	3131.34
427.01	3344.33
427.22	3104.72
427.42	2848.72
427.63	2977.75
427.83	3553.23
428.04	3633.10
428.25	3129.30
428.45	3223.50
428.66	3524.55
428.86	3180.50
429.07	3082.19
429.28	3053.52
429.48	3231.69
429.69	3125.20
429.89	3059.67
430.10	2975.70
430.30	3426.25
430.51	3497.93
430.71	2936.79
430.92	3096.53
431.13	3127.25
431.33	3403.72
431.54	3172.30
431.74	3243.98
431.95	3751.88
432.15	3057.62
432.36	3090.38
432.56	3110.86
432.77	3700.68
432.98	3663.82
433.18	3098.58
433.39	2914.26
433.59	3131.34
433.80	3708.87
434.00	3248.08
434.21	3119.06
434.41	3082.19
434.62	3778.50
434.82	2987.99
435.03	2930.64
435.23	3297.23
435.44	2934.74
435.64	3016.66
435.85	3155.92
436.06	3377.10
436.26	3516.36
436.47	3110.86
436.67	3045.33
436.88	3182.54
437.08	3508.17
437.29	3241.93
437.49	3260.37
437.70	3487.69
437.90	3225.55
438.11	3262.41
438.31	3162.06
438.52	3559.37
438.72	3551.18
438.93	3403.72
439.13	3104.72
439.34	3477.45
439.54	3067.86
439.75	3278.80
439.95	3143.63
440.16	3147.73
440.36	3256.27
440.57	3104.72
440.77	3121.10
440.98	3286.99
441.18	3409.87
441.39	2918.36
441.59	2959.31
441.80	3731.40
442.00	3250.13
442.21	3190.74
442.41	2920.40
442.62	3514.31
442.82	3190.74
443.02	3071.95
443.23	3131.34
443.43	3237.84
443.64	3549.13
443.84	2965.46
444.05	3186.64
444.25	3237.84
444.46	3229.65
444.66	3041.23
444.87	3330.00
445.07	2924.50
445.28	3256.27
445.48	3180.50
445.69	3166.16
445.89	3829.70
446.09	3213.26
446.30	3358.67
446.50	3418.06
446.71	4992.95
446.91	6352.80
447.12	7055.25
447.32	7559.05
447.53	7706.51
447.73	6430.62
447.93	5496.75
448.14	5359.53
448.34	5474.22
448.55	4599.74
448.75	4423.61
448.96	4206.53
449.16	4171.71
449.36	3964.87
449.57	3387.34
449.77	3186.64
449.98	3172.30
450.18	3360.72
450.39	3010.51
450.59	3280.85
450.79	3291.09
451.00	3272.65
451.20	3229.65
451.41	3071.95
451.61	3356.62
451.81	3200.98
452.02	3037.14
452.22	3067.86
452.43	3196.88
452.63	3080.14
452.84	3076.05
453.04	3008.47
453.24	3311.57
453.45	3094.48
453.65	3137.49
453.86	3033.04
454.06	3293.13
454.26	3313.61
454.47	2944.98
454.67	3194.83
454.87	3360.72
455.08	3246.03
455.28	3117.01
455.49	3301.33
455.69	3147.73
455.89	3704.78
456.10	3100.62
456.30	3039.19
456.51	3399.63
456.71	3342.28
456.91	3137.49
457.12	3006.42
457.32	3299.28
457.52	3045.33
457.73	3205.07
457.93	3237.84
458.14	3086.29
458.34	2901.97
458.54	3174.35
458.75	2981.84
458.95	3575.75
459.15	3446.73
459.36	3117.01
459.56	3055.57
459.76	3796.93
459.97	3282.89
460.17	3071.95
460.37	3106.77
460.58	3252.17
460.78	3385.29
460.99	3088.34
461.19	3076.05
461.39	3209.17
461.60	3260.37
461.80	3137.49
462.00	2998.23
462.21	3327.95
462.41	3123.15
462.61	2959.31
462.82	2830.29
463.02	3205.07
463.22	3348.43
463.43	3057.62
463.63	2983.89
463.83	3561.42
464.04	3346.38
464.24	3125.20
464.44	3110.86
464.64	3338.19
464.85	3401.68
465.05	3059.67
465.25	3002.32
465.46	3125.20
465.66	3350.48
465.86	3190.74
466.07	3051.47
466.27	3284.94
466.47	3074.00
466.68	2836.44
466.88	3155.92
467.08	3436.49
467.29	3504.07
467.49	3008.47
467.69	3225.55
467.89	3401.68
468.10	3334.09
468.30	3143.63
468.50	3149.78
468.71	3362.76
468.91	2944.98
469.11	3311.57
469.31	3086.29
469.52	3074.00
469.72	3590.09
469.92	3289.04
470.13	3065.81
470.33	3307.47
470.53	3381.20
470.73	3497.93
470.94	3885.00
471.14	4038.59
471.34	4745.14
471.54	4376.51
471.75	4126.66
471.95	3860.42
472.15	3780.55
472.36	3661.77
472.56	3512.27
472.76	3839.94
472.96	3758.02
473.17	3422.16
473.37	3172.30
473.57	3336.14
473.77	3397.58
473.98	3207.12
474.18	3008.47
474.38	3860.42
474.58	3246.03
474.79	2949.08
474.99	3162.06
475.19	3426.25
475.39	3090.38
475.60	3104.72
475.80	3039.19
476.00	3327.95
476.20	3239.89
476.41	3076.05
476.61	3166.16
476.81	3616.71
477.01	3035.09
477.21	3395.53
477.42	3231.69
477.62	3141.58
477.82	3416.01
478.02	2936.79
478.23	3086.29
478.43	3092.43
478.63	3215.31
478.83	3108.82
479.03	3205.07
479.24	3559.37
479.44	3667.91
479.64	3096.53
479.84	2813.91
480.04	3135.44
480.25	3463.12
480.45	2977.75
480.65	3059.67
480.85	3639.24
481.06	3155.92
481.26	3151.82
481.46	3026.90
481.66	3340.24
481.86	3168.21
482.06	3307.47
482.27	3121.10
482.47	3123.15
482.67	3368.91
482.87	3065.81
483.07	3094.48
483.28	3133.39
483.48	3039.19
483.68	3084.24
483.88	2998.23
484.08	2899.92
484.29	3039.19
484.49	3155.92
484.69	2934.74
484.89	3575.75
485.09	3418.06
485.29	3149.78
485.50	3198.93
485.70	3125.20
485.90	3499.98
486.10	3172.30
486.30	3067.86
486.50	3598.28
486.71	3323.85
486.91	3176.40
487.11	3155.92
487.31	2987.99
487.51	3356.62
487.71	3028.95
487.91	2973.65
488.12	3016.66
488.32	2840.53
488.52	3088.34
488.72	2779.09
488.92	3289.04
489.12	3514.31
489.32	3223.50
489.53	3125.20
489.73	3010.51
489.93	3549.13
490.13	3080.14
490.33	2869.20
490.53	3286.99
490.73	3508.17
490.94	2895.83
491.14	3164.11
491.34	3411.92
491.54	3477.45
491.74	4014.02
491.94	4540.35
492.14	5148.59
492.34	5334.96
492.54	4716.47
492.75	4102.08
492.95	4415.42
493.15	4145.09
493.35	3913.67
493.55	3758.02
493.75	3583.95
493.95	3921.86
494.15	3370.96
494.35	3196.88
494.56	3295.18
494.76	3135.44
494.96	3278.80
495.16	3045.33
495.36	3258.32
495.56	3309.52
495.76	3108.82
495.96	3090.38
496.16	3104.72
496.36	3669.96
496.56	2969.55
496.77	3170.26
496.97	3223.50
497.17	3463.12
497.37	2906.07
497.57	3196.88
497.77	3237.84
497.97	3139.54
498.17	3057.62
498.37	3078.10
498.57	3307.47
498.77	3176.40
498.97	3192.78
499.17	3413.96
499.38	3180.50
499.58	3463.12
499.78	3237.84
499.98	3301.33
500.18	3200.98
500.38	3110.86
500.58	3299.28
500.78	3692.49
500.98	6053.80
501.18	8396.67
501.38	9797.48
501.58	10897.24
501.78	10911.58
501.98	9031.54
502.18	7522.19
502.38	6582.17
502.58	6344.61
502.78	5812.14
502.98	5429.17
503.18	5158.83
503.38	4927.41
503.59	4167.62
503.79	4161.47
503.99	3700.68
504.19	3856.33
504.39	3934.15
504.59	3663.82
504.79	3637.19
504.99	3987.40
505.19	3516.36
505.39	3350.48
505.59	3522.51
505.79	3706.82
505.99	3532.75
506.19	3157.97
506.39	3330.00
506.59	3192.78
506.79	3268.56
506.99	3274.70
507.19	3033.04
507.39	3315.66
507.59	3016.66
507.79	3053.52
507.99	2916.31
508.19	3237.84
508.39	3147.73
508.59	3096.53
508.79	3155.92
508.99	3729.35
509.19	3125.20
509.39	3131.34
509.59	2936.79
509.79	3155.92
509.99	3370.96
510.19	3237.84
510.39	3188.69
510.59	3260.37
510.79	3182.54
510.99	2858.96
511.19	3071.95
511.39	3622.86
511.59	3555.27
511.79	3327.95
511.99	3002.32
512.19	3739.59
512.38	3241.93
512.58	3043.28
512.78	2987.99
512.98	3600.33
513.18	3571.66
513.38	2959.31
513.58	3071.95
513.78	3246.03
513.98	3213.26
514.18	3059.67
514.38	3045.33
514.58	3340.24
514.78	3119.06
514.98	2987.99
515.18	3028.95
515.38	3086.29
515.58	3557.32
515.78	3088.34
515.98	3090.38
516.18	3448.78
516.38	3200.98
516.57	3014.61
516.77	3041.23
516.97	3354.57
517.17	3174.35
517.37	2818.00
517.57	3127.25
517.77	3221.45
517.97	3233.74
518.17	3092.43
518.37	2957.27
518.57	3166.16
518.77	3172.30
518.97	3139.54
519.16	3065.81
519.36	3491.79
519.56	3137.49
519.76	2990.03
519.96	3131.34
520.16	3649.48
520.36	3098.58
520.56	3286.99
520.76	3045.33
520.96	3172.30
521.16	3512.27
521.35	3286.99
521.55	3160.02
521.75	3162.06
521.95	3166.16
522.15	3074.00
522.35	2983.89
522.55	3026.90
522.75	3413.96
522.95	2912.21
523.14	2877.40
523.34	3225.55
523.54	3239.89
523.74	3207.12
523.94	3106.77
524.14	2985.94
524.34	3291.09
524.54	3258.32
524.73	3033.04
524.93	3440.59
525.13	3268.56
525.33	2934.74
525.53	3270.61
525.73	3416.01
525.93	3241.93
526.13	3114.96
526.32	2938.84
526.52	3475.40
526.72	3401.68
526.92	3041.23
527.12	2987.99
527.32	3020.75
527.52	3381.20
527.71	3141.58
527.91	3082.19
528.11	3246.03
528.31	3223.50
528.51	3065.81
528.71	3190.74
528.90	3393.48
529.10	3428.30
529.30	3110.86
529.50	2887.64
529.70	3385.29
529.90	3284.94
530.09	3043.28
530.29	2934.74
530.49	3078.10
530.69	3821.51
530.89	3213.26
531.09	3182.54
531.28	3188.69
531.48	3577.80
531.68	3071.95
531.88	3145.68
532.08	3403.72
532.28	3274.70
532.47	3235.79
532.67	3151.82
532.87	3327.95
533.07	3045.33
533.27	3157.97
533.46	3131.34
533.66	3291.09
533.86	3221.45
534.06	3117.01
534.26	3092.43
534.45	3276.75
534.65	3446.73
534.85	3186.64
535.05	2983.89
535.25	3524.55
535.44	2936.79
535.64	3112.91
535.84	3090.38
536.04	3153.87
536.24	3239.89
536.43	2987.99
536.63	3039.19
536.83	3323.85
537.03	3213.26
537.22	2998.23
537.42	2947.03
537.62	3299.28
537.82	3065.81
538.02	3182.54
538.21	3123.15
538.41	3868.61
538.61	3411.92
538.81	3045.33
539.00	3297.23
539.20	2961.36
539.40	3231.69
539.60	3114.96
539.79	3278.80
539.99	3323.85
540.19	3090.38
540.39	3037.14
540.58	3090.38
540.78	3497.93
540.98	3301.33
541.18	3272.65
541.37	3074.00
541.57	3297.23
541.77	3278.80
541.97	2926.55
542.16	2928.60
542.36	3194.83
542.56	3153.87
542.76	3241.93
542.95	3182.54
543.15	3315.66
543.35	3416.01
543.54	2987.99
543.74	3016.66
543.94	3602.38
544.14	3119.06
544.33	3174.35
544.53	3049.43
544.73	3252.17
544.93	3139.54
545.12	3057.62
545.32	3051.47
545.52	3295.18
545.71	3041.23
545.91	3084.24
546.11	2969.55
546.30	3098.58
546.50	3239.89
546.70	3131.34
546.90	3121.10
547.09	2906.07
547.29	3178.45
547.49	3198.93
547.68	3051.47
547.88	3080.14
548.08	3383.24
548.27	3405.77
548.47	3024.85
548.67	3153.87
548.87	3461.07
549.06	3043.28
549.26	2973.65
549.46	3389.39
549.65	3178.45
549.85	3104.72
550.05	3157.97
550.24	3022.80
550.44	3340.24
550.64	3098.58
550.83	3190.74
551.03	3434.44
551.23	3549.13
551.42	3151.82
551.62	3061.71
551.82	3239.89
552.01	3147.73
552.21	3403.72
552.41	3051.47
552.60	3663.82
552.80	3250.13
553.00	3012.56
553.19	3106.77
553.39	3600.33
553.59	3028.95
553.78	3198.93
553.98	3049.43
554.17	3002.32
554.37	3409.87
554.57	3166.16
554.76	2934.74
554.96	3196.88
555.16	3364.81
555.35	3055.57
555.55	3200.98
555.75	3311.57
555.94	3426.25
556.14	2815.96
556.33	3100.62
556.53	3229.65
556.73	3192.78
556.92	3035.09
557.12	3043.28
557.32	3717.06
557.51	3557.32
557.71	3114.96
557.90	3239.89
558.10	3540.94
558.30	3176.40
558.49	3092.43
558.69	3069.91
558.88	3299.28
559.08	3393.48
559.28	3102.67
559.47	3123.15
559.67	3276.75
559.86	3755.97
560.06	3086.29
560.26	3121.10
560.45	3450.83
560.65	3117.01
560.84	3360.72
561.04	3000.27
561.24	3393.48
561.43	3053.52
561.63	3289.04
561.82	3198.93
562.02	3344.33
562.22	3180.50
562.41	2971.60
562.61	3045.33
562.80	2987.99
563.00	3637.19
563.19	3117.01
563.39	3141.58
563.59	3327.95
563.78	3049.43
563.98	2813.91
564.17	3043.28
564.37	2910.16
564.56	3266.51
564.76	2881.49
564.96	3250.13
565.15	3321.81
565.35	3749.83
565.54	3117.01
565.74	3137.49
565.93	3432.40
566.13	3254.22
566.32	3127.25
566.52	3160.02
566.71	3219.41
566.91	3461.07
567.11	3200.98
567.30	2965.46
567.50	3299.28
567.69	3413.96
567.89	3039.19
568.08	2965.46
568.28	3354.57
568.47	3033.04
568.67	3028.95
568.86	3053.52
569.06	3368.91
569.25	3164.11
569.45	2928.60
569.64	3117.01
569.84	3168.21
570.04	3205.07
570.23	3071.95
570.43	3117.01
570.62	3301.33
570.82	3645.38
571.01	2942.93
571.21	2990.03
571.40	3112.91
571.60	3430.35
571.79	3155.92
571.99	3094.48
572.18	3051.47
572.38	3397.58
572.57	3174.35
572.77	3180.50
572.96	3831.75
573.16	3299.28
573.35	3094.48
573.55	3178.45
573.74	3393.48
573.94	3157.97
574.13	3049.43
574.33	3239.89
574.52	3561.42
574.71	3303.37
574.91	3170.26
575.10	2979.79
575.30	3164.11
575.49	3078.10
575.69	3010.51
575.88	3125.20
576.08	3215.31
576.27	3551.18
576.47	3000.27
576.66	3239.89
576.86	3579.85
577.05	3299.28
577.25	3149.78
577.44	3225.55
577.64	3174.35
577.83	3409.87
578.02	3065.81
578.22	3252.17
578.41	3573.71
578.61	3307.47
578.80	2914.26
579.00	3180.50
579.19	3231.69
579.39	3387.34
579.58	3119.06
579.77	3067.86
579.97	3592.14
580.16	3545.03
580.36	3295.18
580.55	3137.49
580.75	3370.96
580.94	3323.85
581.13	3280.85
581.33	3350.48
581.52	3280.85
581.72	3672.01
581.91	3186.64
582.11	3102.67
582.30	3438.54
582.49	3264.46
582.69	3405.77
582.88	3114.96
583.08	3356.62
583.27	3504.07
583.47	3160.02
583.66	3041.23
583.85	3106.77
584.05	3139.54
584.24	3121.10
584.44	3155.92
584.63	3436.49
584.82	3647.43
585.02	3397.58
585.21	3196.88
585.41	3364.81
585.60	3264.46
585.79	3387.34
585.99	3422.16
586.18	3327.95
586.37	4210.62
586.57	6395.81
586.76	17897.20
586.96	37592.51
587.15	51035.38
587.34	59454.58
587.54	63001.66
587.73	56521.89
587.93	40586.64
588.12	31049.25
588.31	25204.35
588.51	22683.30
588.70	21040.83
588.89	18603.75
589.09	15767.31
589.28	13743.92
589.47	10809.18
589.67	8122.24
589.86	6449.05
590.06	5199.79
590.25	4476.86
590.44	3885.00
590.64	3565.51
590.83	3581.90
591.02	3540.94
591.22	3078.10
591.41	3057.62
591.60	3327.95
591.80	3778.50
591.99	2957.27
592.18	3137.49
592.38	3547.08
592.57	3174.35
592.76	3106.77
592.96	3149.78
593.15	3223.50
593.34	3534.79
593.54	3049.43
593.73	3241.93
593.92	3373.00
594.12	3430.35
594.31	3186.64
594.50	3289.04
594.70	3373.00
594.89	3897.28
595.08	2977.75
595.28	3182.54
595.47	4018.11
595.66	3428.30
595.86	3020.75
596.05	3016.66
596.24	3196.88
596.43	3573.71
596.63	3231.69
596.82	3260.37
597.01	3497.93
597.21	3682.25
597.40	3110.86
597.59	3131.34
597.79	3301.33
597.98	3385.29
598.17	3166.16
598.36	3141.58
598.56	3469.26
598.75	3243.98
598.94	3221.45
599.14	3131.34
599.33	3188.69
599.52	3395.53
599.71	3127.25
599.91	3076.05
600.10	3452.88
600.29	3327.95
600.48	3172.30
600.68	3239.89
600.87	3286.99
601.06	3084.24
601.26	3160.02
601.45	3196.88
601.64	3219.41
601.83	3459.02
602.03	2936.79
602.22	2951.12
602.41	3483.59
602.60	3762.12
602.80	3194.83
602.99	3321.81
603.18	3217.36
603.37	3325.90
603.57	3053.52
603.76	3104.72
603.95	3549.13
604.14	3217.36
604.34	3000.27
604.53	3055.57
604.72	3286.99
604.91	3450.83
605.10	3112.91
605.30	2967.51
605.49	3827.65
605.68	3459.02
605.87	3123.15
606.07	3041.23
606.26	3403.72
606.45	3428.30
606.64	3102.67
606.84	2932.69
607.03	3358.67
607.22	3432.40
607.41	3157.97
607.60	3033.04
607.80	3448.78
607.99	3190.74
608.18	3051.47
608.37	3125.20
608.56	3162.06
608.76	3471.31
608.95	3190.74
609.14	3065.81
609.33	3588.04
609.52	3534.79
609.72	3327.95
609.91	3178.45
610.10	3352.52
610.29	3635.14
610.48	3186.64
610.68	3200.98
610.87	3268.56
611.06	3389.39
611.25	3039.19
611.44	3123.15
611.63	3243.98
611.83	3518.41
612.02	2971.60
612.21	3129.30
612.40	2922.45
612.59	3076.05
612.79	2981.84
612.98	3137.49
613.17	3657.67
613.36	3330.00
613.55	3229.65
613.74	3168.21
613.93	3348.43
614.13	3409.87
614.32	3368.91
614.51	3149.78
614.70	3305.42
614.89	3225.55
615.08	3168.21
615.28	3463.12
615.47	3088.34
615.66	3387.34
615.85	3162.06
616.04	3205.07
616.23	3317.71
616.42	3270.61
616.62	3074.00
616.81	3076.05
617.00	3338.19
617.19	3344.33
617.38	3076.05
617.57	3200.98
617.76	3409.87
617.95	3434.44
618.15	3176.40
618.34	3286.99
618.53	3092.43
618.72	3508.17
618.91	3205.07
619.10	3131.34
619.29	3270.61
619.48	3346.38
619.68	2973.65
619.87	3018.71
620.06	2971.60
620.25	3393.48
620.44	3043.28
620.63	3074.00
620.82	3295.18
621.01	3307.47
621.20	3090.38
621.39	3090.38
621.59	3317.71
621.78	3291.09
621.97	3186.64
622.16	3182.54
622.35	3356.62
622.54	3502.03
622.73	3162.06
622.92	2869.20
623.11	3497.93
623.30	3237.84
623.49	3225.55
623.68	3008.47
623.88	3631.05
624.07	3035.09
624.26	3057.62
624.45	3110.86
624.64	3221.45
624.83	3373.00
625.02	3106.77
625.21	3104.72
625.40	3364.81
625.59	3571.66
625.78	3145.68
625.97	3164.11
626.16	3549.13
626.35	3469.26
626.54	3061.71
626.74	3293.13
626.93	3264.46
627.12	3217.36
627.31	3157.97
627.50	3127.25
627.69	3536.84
627.88	3088.34
628.07	2990.03
628.26	2920.40
628.45	3088.34
628.64	3065.81
628.83	3133.39
629.02	2938.84
629.21	3338.19
629.40	3364.81
629.59	2992.08
629.78	3045.33
629.97	3243.98
630.16	3364.81
630.35	3055.57
630.54	3196.88
630.73	3227.60
630.92	3252.17
631.11	3004.37
631.30	3110.86
631.49	3504.07
631.68	3313.61
631.87	3137.49
632.06	3002.32
632.25	3766.21
632.44	3336.14
632.63	3198.93
632.82	3121.10
633.01	3174.35
633.20	3282.89
633.39	3069.91
633.58	2922.45
633.77	3381.20
633.96	3432.40
634.15	3160.02
634.34	3192.78
634.53	3346.38
634.72	3102.67
634.91	2895.83
635.10	3076.05
635.29	3530.70
635.48	3379.15
635.67	2944.98
635.86	2928.60
636.05	3569.61
636.24	3237.84
636.43	3051.47
636.62	3104.72
636.81	2871.25
637.00	3401.68
637.19	3117.01
637.38	3094.48
637.57	3114.96
637.76	3295.18
637.95	3307.47
638.14	3188.69
638.33	3321.81
638.52	3373.00
638.71	2955.22
638.89	2957.27
639.08	3925.96
639.27	3528.65
639.46	3397.58
639.65	3737.54
639.84	3917.76
640.03	4032.45
640.22	3682.25
640.41	3577.80
640.60	3432.40
640.79	3502.03
640.98	3381.20
641.17	3360.72
641.36	3651.53
641.55	3467.21
641.74	2967.51
641.92	3045.33
642.11	3059.67
642.30	3221.45
642.49	2942.93
642.68	3028.95
642.87	3344.33
643.06	3422.16
643.25	2918.36
643.44	2951.12
643.63	3250.13
643.82	3385.29
644.00	3047.38
644.19	3180.50
644.38	3084.24
644.57	3479.50
644.76	3088.34
644.95	3166.16
645.14	3309.52
645.33	3205.07
645.52	3143.63
645.71	2947.03
645.89	3043.28
646.08	3246.03
646.27	3096.53
646.46	3217.36
646.65	2908.12
646.84	3332.05
647.03	2977.75
647.22	3196.88
647.40	3321.81
647.59	3293.13
647.78	2852.82
647.97	3045.33
648.16	3098.58
648.35	3528.65
648.54	3358.67
648.73	3086.29
648.91	3450.83
649.10	3278.80
649.29	3033.04
649.48	3033.04
649.67	3366.86
649.86	3313.61
650.05	3137.49
650.23	3297.23
650.42	3194.83
650.61	3610.57
650.80	3325.90
650.99	3405.77
651.18	3442.64
651.36	3502.03
651.55	3047.38
651.74	3272.65
651.93	3209.17
652.12	3225.55
652.31	3143.63
652.49	3059.67
652.68	3160.02
652.87	3563.47
653.06	3223.50
653.25	3356.62
653.44	3299.28
653.62	3657.67
653.81	3084.24
654.00	3092.43
654.19	3444.68
654.38	3717.06
654.56	3184.59
654.75	3065.81
654.94	3504.07
655.13	3256.27
655.32	2985.94
655.51	3168.21
655.69	3168.21
655.88	3424.20
656.07	2920.40
656.26	3098.58
656.45	3053.52
656.63	3336.14
656.82	3051.47
657.01	3317.71
657.20	3198.93
657.38	3612.62
657.57	3002.32
657.76	2987.99
657.95	3426.25
658.14	3196.88
658.32	3213.26
658.51	3004.37
658.70	3373.00
658.89	3403.72
659.08	3200.98
659.26	3323.85
659.45	3090.38
659.64	3352.52
659.83	3061.71
660.01	3522.51
660.20	3397.58
660.39	3581.90
660.58	2797.53
660.76	3198.93
660.95	2895.83
661.14	3264.46
661.33	2873.30
661.51	3074.00
661.70	3110.86
661.89	3323.85
662.08	3092.43
662.26	2914.26
662.45	3063.76
662.64	3661.77
662.83	3094.48
663.01	2951.12
663.20	3110.86
663.39	3612.62
663.58	3065.81
663.76	3090.38
663.95	3379.15
664.14	3053.52
664.32	3149.78
664.51	2979.79
664.70	2961.36
664.89	3332.05
665.07	2938.84
665.26	3203.02
665.45	3012.56
665.64	3364.81
665.82	3061.71
666.01	3207.12
666.20	2992.08
666.38	3557.32
666.57	3477.45
666.76	5705.64
666.95	13043.51
667.13	20506.31
667.32	25200.26
667.51	28450.38
667.69	29193.79
667.88	24549.00
668.07	17762.03
668.25	15007.52
668.44	12787.52
668.63	11235.16
668.81	9918.31
669.00	8570.75
669.19	7796.62
669.38	6793.11
669.56	5689.26
669.75	4886.45
669.94	4417.47
670.12	3839.94
670.31	3362.76
670.50	3393.48
670.68	3553.23
670.87	3422.16
671.06	3000.27
671.24	3100.62
671.43	3624.90
671.62	3258.32
671.80	3030.99
671.99	3239.89
672.18	3327.95
672.36	3495.88
672.55	3254.22
672.74	3108.82
672.92	3176.40
673.11	3368.91
673.29	2934.74
673.48	3233.74
673.67	3274.70
673.85	3461.07
674.04	3047.38
674.23	3178.45
674.41	3712.97
674.60	3041.23
674.79	2822.10
674.97	2975.70
675.16	3487.69
675.34	3422.16
675.53	3045.33
675.72	3078.10
675.90	3604.42
676.09	3108.82
676.28	3133.39
676.46	2940.88
676.65	3391.44
676.83	3074.00
677.02	3080.14
677.21	3194.83
677.39	3389.39
677.58	3176.40
677.77	3151.82
677.95	2928.60
678.14	3250.13
678.32	3209.17
678.51	3098.58
678.70	3413.96
678.88	3182.54
679.07	3219.41
679.25	3010.51
679.44	3121.10
679.63	2996.18
679.81	3317.71
680.00	3200.98
680.18	3205.07
680.37	3565.51
680.55	3366.86
680.74	2969.55
680.93	2854.87
681.11	3344.33
681.30	3319.76
681.48	3043.28
681.67	3104.72
681.85	3192.78
682.04	3049.43
682.23	3149.78
682.41	3227.60
682.60	3254.22
682.78	3323.85
682.97	2961.36
683.15	3155.92
683.34	3307.47
683.53	3606.47
683.71	2904.02
683.90	3076.05
684.08	3643.34
684.27	3190.74
684.45	3227.60
684.64	3254.22
684.82	3344.33
685.01	3411.92
685.19	3024.85
685.38	3278.80
685.57	3338.19
685.75	3131.34
685.94	3041.23
686.12	2985.94
686.31	3121.10
686.49	3577.80
686.68	2834.39
686.86	3026.90
687.05	3151.82
687.23	3557.32
687.42	3092.43
687.60	2932.69
687.79	3516.36
687.97	3663.82
688.16	3209.17
688.34	3256.27
688.53	2881.49
688.71	3303.37
688.90	3377.10
689.08	3055.57
689.27	2983.89
689.45	3430.35
689.64	3344.33
689.82	3137.49
690.01	3317.71
690.19	3272.65
690.38	3143.63
690.56	3119.06
690.75	3112.91
690.93	3104.72
691.12	3026.90
691.30	3147.73
691.49	3110.86
691.67	3278.80
691.86	3461.07
692.04	3102.67
692.23	3282.89
692.41	3313.61
692.60	3411.92
692.78	3370.96
692.97	3307.47
693.15	3411.92
693.34	3350.48
693.52	3323.85
693.71	3117.01
693.89	3170.26
694.08	2955.22
694.26	3160.02
694.44	3446.73
694.63	3352.52
694.81	3000.27
695.00	3045.33
695.18	3540.94
695.37	3717.06
695.55	3166.16
695.74	3147.73
695.92	3157.97
696.10	3516.36
696.29	2938.84
696.47	3084.24
696.66	3051.47
696.84	3057.62
697.03	3145.68
697.21	3321.81
697.40	4632.51
697.58	3588.04
697.76	3071.95
697.95	3045.33
698.13	3067.86
698.32	3174.35
698.50	3020.75
698.68	3078.10
698.87	3393.48
699.05	3606.47
699.24	3098.58
699.42	3114.96
699.61	3317.71
699.79	3340.24
699.97	3176.40
700.16	2928.60
700.34	3051.47
700.53	3217.36
700.71	3278.80
700.89	3262.41
701.08	3176.40
701.26	3313.61
701.45	3518.41
701.63	2996.18
701.81	3147.73
702.00	3076.05
702.18	3235.79
702.37	3088.34
702.55	3629.00
702.73	3485.64
702.92	3155.92
703.10	3467.21
703.28	3463.12
703.47	3192.78
703.65	3368.91
703.84	3205.07
704.02	3205.07
704.20	3635.14
704.39	3090.38
704.57	3041.23
704.75	3418.06
704.94	3463.12
705.12	3272.65
705.30	4057.03
705.49	8879.99
705.67	17458.93
705.86	24344.20
706.04	27807.32
706.22	30920.23
706.41	29605.44
706.59	22111.92
706.77	17182.46
706.96	15001.37
707.14	13326.13
707.32	11458.39
707.51	10016.62
707.69	8269.70
707.87	6647.71
708.06	5314.48
708.24	4573.11
708.42	4229.06
708.61	4263.87
708.79	3196.88
708.97	3327.95
709.16	3430.35
709.34	3289.04
709.52	3168.21
709.71	3102.67
709.89	3481.55
710.07	3069.91
710.26	3008.47
710.44	3108.82
710.62	3409.87
710.80	3250.13
710.99	3123.15
711.17	3254.22
711.35	3131.34
711.54	3151.82
711.72	3282.89
711.90	3160.02
712.09	3297.23
712.27	3139.54
712.45	3196.88
712.63	3100.62
712.82	3334.09
713.00	3221.45
713.18	3209.17
713.37	3270.61
713.55	3383.24
713.73	3442.64
713.91	3141.58
714.10	3139.54
714.28	3246.03
714.46	3389.39
714.65	3250.13
714.83	3196.88
715.01	3299.28
715.19	3260.37
715.38	3014.61
715.56	3227.60
715.74	3137.49
715.92	3205.07
716.11	3454.92
716.29	2848.72
716.47	3307.47
716.65	3157.97
716.84	2930.64
717.02	3155.92
717.20	2969.55
717.38	3143.63
717.57	3235.79
717.75	3119.06
717.93	3239.89
718.11	3483.59
718.30	3014.61
718.48	3151.82
718.66	3551.18
718.84	3452.88
719.03	3147.73
719.21	2918.36
719.39	3614.66
719.57	3387.34
719.75	3235.79
719.94	3010.51
720.12	3338.19
720.30	3321.81
720.48	3141.58
720.67	3080.14
720.85	3026.90
721.03	3229.65
721.21	2983.89
721.39	3162.06
721.58	3344.33
721.76	3266.51
721.94	3209.17
722.12	3188.69
722.30	3608.52
722.49	3176.40
722.67	3139.54
722.85	3178.45
723.03	2971.60
723.21	3168.21
723.40	3127.25
723.58	3198.93
723.76	3348.43
723.94	3631.05
724.12	3160.02
724.30	3418.06
724.49	3418.06
724.67	3063.76
724.85	3192.78
725.03	2983.89
725.21	3428.30
725.40	3461.07
725.58	3086.29
725.76	3330.00
725.94	3354.57
726.12	3059.67
726.30	3119.06
726.49	3112.91
726.67	3252.17
726.85	3459.02
727.03	3985.35
727.21	5642.15
727.39	7382.93
727.57	8050.57
727.76	8597.37
727.94	8669.05
728.12	7563.15
728.30	6182.82
728.48	5728.17
728.66	5126.07
728.84	4769.72
729.03	4200.38
729.21	3895.24
729.39	3553.23
729.57	3475.40
729.75	3422.16
729.93	3424.20
730.11	3012.56
730.30	3174.35
730.48	3215.31
730.66	3168.21
730.84	3260.37
731.02	3364.81
731.20	3094.48
731.38	3108.82
731.56	2920.40
731.74	3041.23
731.93	3416.01
732.11	3221.45
732.29	3096.53
732.47	3352.52
732.65	3317.71
732.83	3282.89
733.01	3178.45
733.19	3207.12
733.37	3370.96
733.56	3061.71
733.74	3033.04
733.92	3561.42
734.10	3147.73
734.28	3303.37
734.46	2906.07
734.64	3180.50
734.82	3123.15
735.00	3084.24
735.18	3006.42
735.36	3278.80
735.54	3311.57
735.73	3151.82
735.91	3190.74
736.09	3540.94
736.27	3321.81
736.45	3145.68
736.63	2858.96
736.81	3307.47
736.99	3520.46
737.17	3373.00
737.35	3014.61
737.53	3364.81
737.71	3223.50
737.89	3373.00
738.07	2963.41
738.25	3170.26
738.43	2895.83
738.61	3123.15
738.80	3049.43
738.98	3000.27
739.16	3162.06
739.34	3030.99
739.52	3426.25
739.70	3155.92
739.88	3491.79
740.06	3264.46
740.24	2844.63
740.42	3438.54
740.60	2969.55
740.78	3080.14
740.96	2967.51
741.14	3239.89
741.32	3350.48
741.50	2871.25
741.68	3368.91
741.86	3602.38
742.04	3057.62
742.22	3016.66
742.40	3133.39
742.58	3442.64
742.76	3108.82
742.94	3266.51
743.12	3006.42
743.30	3254.22
743.48	3356.62
743.66	3121.10
743.84	3129.30
744.02	3192.78
744.20	3241.93
744.38	2938.84
744.56	3104.72
744.74	3665.86
744.92	3432.40
745.10	3338.19
745.28	3117.01
745.46	3567.56
745.64	3235.79
745.82	3164.11
746.00	3004.37
746.18	3389.39
746.36	3137.49
746.54	3147.73
746.72	3121.10
746.90	3045.33
747.08	3463.12
747.26	3049.43
747.44	3340.24
747.62	3366.86
747.80	3289.04
747.98	3215.31
748.15	3051.47
748.33	3637.19
748.51	3338.19
748.69	3233.74
748.87	3045.33
749.05	3254.22
749.23	3266.51
749.41	3098.58
749.59	3076.05
749.77	3506.12
749.95	3200.98
750.13	3104.72
750.31	3254.22
750.49	3221.45
750.67	3344.33
750.85	3233.74
751.03	3069.91
751.20	3788.74
751.38	3299.28
751.56	3172.30
751.74	3172.30
751.92	3225.55
752.10	3039.19
752.28	3250.13
752.46	3041.23
752.64	3221.45
752.82	3213.26
753.00	3233.74
753.18	3000.27
753.35	3241.93
753.53	3268.56
753.71	2979.79
753.89	3131.34
754.07	3344.33
754.25	3426.25
754.43	3172.30
754.61	3033.04
754.79	3467.21
754.97	3225.55
755.14	3252.17
755.32	2959.31
755.50	3311.57
755.68	3370.96
755.86	3065.81
756.04	3078.10
756.22	2848.72
756.40	3526.60
756.57	3336.14
756.75	3030.99
756.93	3512.27
757.11	3346.38
757.29	2914.26
757.47	3057.62
757.65	2930.64
757.82	2928.60
758.00	2930.64
758.18	3080.14
758.36	3127.25
758.54	3665.86
758.72	2959.31
758.90	3223.50
759.07	3330.00
759.25	3096.53
759.43	3155.92
759.61	2975.70
759.79	4499.39
759.97	3463.12
760.15	3086.29
760.32	3129.30
760.50	3336.14
760.68	3641.29
760.86	2977.75
761.04	3340.24
761.22	3413.96
761.39	3348.43
761.57	3272.65
761.75	3061.71
761.93	3389.39
762.11	3172.30
762.28	3145.68
762.46	3067.86
762.64	3469.26
762.82	2973.65
763.00	3076.05
763.18	3364.81
763.35	3037.14
763.53	3373.00
763.71	3162.06
763.89	3086.29
764.07	3289.04
764.24	3282.89
764.42	3243.98
764.60	3178.45
764.78	3354.57
764.96	3413.96
765.13	3246.03
765.31	2971.60
765.49	3366.86
765.67	3016.66
765.84	3047.38
766.02	3016.66
766.20	2955.22
766.38	3352.52
766.56	3233.74
766.73	3213.26
766.91	3262.41
767.09	3200.98
767.27	3104.72
767.44	2932.69
767.62	3389.39
767.80	3264.46
767.98	3022.80
768.15	3026.90
768.33	3393.48
768.51	3481.55
768.69	3248.08
768.87	3119.06
769.04	3338.19
769.22	3819.46
769.40	3174.35
769.58	3264.46
769.75	3364.81
769.93	3465.16
770.11	3076.05
770.28	2942.93
770.46	3381.20
770.64	3344.33
770.82	3080.14
770.99	3039.19
771.17	3440.59
771.35	3147.73
771.53	3217.36
771.70	3041.23
771.88	3352.52
772.06	3200.98
772.23	3039.19
772.41	3196.88
772.59	3280.85
772.77	2985.94
772.94	3147.73
773.12	3178.45
773.30	3170.26
773.47	3299.28
773.65	2985.94
773.83	3217.36
774.01	3207.12
774.18	2936.79
774.36	3067.86
774.54	2922.45
774.71	3348.43
774.89	2920.40
775.07	2981.84
775.24	3024.85
775.42	3207.12
775.60	3585.99
775.78	2967.51
775.95	2852.82
776.13	2906.07
776.31	2908.12
776.48	3321.81
776.66	3276.75
776.84	3221.45
777.01	3078.10
777.19	3047.38
777.37	2996.18
777.54	3452.88
777.72	3542.99
777.90	3182.54
778.07	3030.99
778.25	3850.18
778.43	3524.55
778.60	3117.01
778.78	3166.16
778.96	3459.02
779.13	3016.66
779.31	3172.30
779.49	3258.32
779.66	3409.87
779.84	3188.69
780.01	3129.30
780.19	3010.51
780.37	3499.98
780.54	3397.58
780.72	2916.31
780.90	3069.91
781.07	3088.34
781.25	3264.46
781.43	3274.70
781.60	3039.19
781.78	3463.12
781.95	3262.41
782.13	3030.99
782.31	3053.52
782.48	2893.78
782.66	3270.61
782.83	3430.35
783.01	3182.54
783.19	3389.39
783.36	3114.96
783.54	3008.47
783.72	3125.20
783.89	3180.50
784.07	3377.10
784.24	3188.69
784.42	3223.50
784.60	3360.72
784.77	3370.96
784.95	2873.30
785.12	3119.06
785.30	3282.89
785.47	3041.23
785.65	2936.79
785.83	3151.82
786.00	3211.22
786.18	3213.26
786.35	3006.42
786.53	2998.23
786.71	3454.92
786.88	3467.21
787.06	3174.35
787.23	3071.95
787.41	3035.09
787.58	3143.63
787.76	3082.19
787.94	3061.71
788.11	3291.09
788.29	3004.37
788.46	3041.23
788.64	2936.79
788.81	3188.69
788.99	3028.95
789.16	3016.66
789.34	3069.91
789.52	3221.45
789.69	3205.07
789.87	2938.84
790.04	3082.19
790.22	3182.54
790.39	3590.09
790.57	2926.55
790.74	3010.51
790.92	3461.07
791.09	2949.08
791.27	3155.92
791.44	3207.12
791.62	3258.32
791.79	3413.96
791.97	3125.20
792.15	3434.44
792.32	3354.57
792.50	3459.02
792.67	3256.27
792.85	3323.85
793.02	3350.48
793.20	3160.02
793.37	2930.64
793.55	3002.32
793.72	3006.42
793.90	3370.96
794.07	3139.54
794.25	2983.89
794.42	3256.27
794.60	3203.02
794.77	3174.35
794.95	3243.98
795.12	3334.09
795.30	3291.09
795.47	2881.49
795.65	3459.02
795.82	3246.03
796.00	3209.17
796.17	3155.92
796.34	2938.84
796.52	3381.20
796.69	3481.55
796.87	3160.02
797.04	3133.39
797.22	3487.69
797.39	3395.53
797.57	3282.89
797.74	3194.83
797.92	3278.80
798.09	3145.68
798.27	3307.47
798.44	3067.86
798.62	3119.06
798.79	3325.90
798.96	3164.11
799.14	3129.30
799.31	3710.92
799.49	3112.91
799.66	2987.99
799.84	3078.10
800.01	3000.27
800.19	3274.70
800.36	2803.67
800.53	3139.54
800.71	3373.00
800.88	3538.89
801.06	2955.22
801.23	2975.70
801.41	3227.60
801.58	3102.67
801.75	3104.72
801.93	3143.63
802.10	3403.72
802.28	3155.92
802.45	3071.95
802.63	3164.11
802.80	3569.61
802.97	3190.74
803.15	3055.57
803.32	2981.84
803.50	3098.58
803.67	3090.38
803.84	3035.09
804.02	3217.36
804.19	3336.14
804.37	2770.90
804.54	2985.94
804.71	3010.51
804.89	3270.61
805.06	3104.72
805.24	3028.95
805.41	2904.02
805.58	3104.72
805.76	3739.59
805.93	3096.53
806.10	3207.12
806.28	3387.34
806.45	3364.81
806.63	3205.07
806.80	3172.30
806.97	3340.24
807.15	3299.28
807.32	3145.68
807.49	3063.76
807.67	2992.08
807.84	3379.15
808.01	2856.92
808.19	3264.46
808.36	3676.10
808.54	3223.50
808.71	3082.19
808.88	3002.32
809.06	3542.99
809.23	3571.66
809.40	3082.19
809.58	3035.09
809.75	3272.65
809.92	3067.86
810.10	3426.25
810.27	3076.05
810.44	3424.20
810.62	3434.44
810.79	3022.80
810.96	3061.71
811.14	3092.43
811.31	3344.33
811.48	3227.60
811.66	3076.05
811.83	3422.16
812.00	3426.25
812.18	3166.16
812.35	3401.68
812.52	3284.94
812.69	3272.65
812.87	3092.43
813.04	2998.23
813.21	3268.56
813.39	3139.54
813.56	3024.85
813.73	3303.37
813.91	2955.22
814.08	3239.89
814.25	3061.71
814.42	2926.55
814.60	3172.30
814.77	3307.47
814.94	3045.33
815.12	3180.50
815.29	3655.62
815.46	3160.02
815.63	3059.67
815.81	3033.04
815.98	3168.21
816.15	3200.98
816.33	3203.02
816.50	3076.05
816.67	3258.32
816.84	3241.93
817.02	3033.04
817.19	2963.41
817.36	3274.70
817.53	3375.05
817.71	2904.02
817.88	3180.50
818.05	3241.93
818.22	3229.65
818.40	3307.47
818.57	3057.62
818.74	3325.90
818.91	3286.99
819.09	3289.04
819.26	3188.69
819.43	3180.50
819.60	3096.53
819.78	3237.84
819.95	3162.06
820.12	3039.19
820.29	3573.71
820.47	3303.37
820.64	2951.12
820.81	3041.23
820.98	3059.67
821.15	3026.90
821.33	3221.45
821.50	3012.56
821.67	3381.20
821.84	3094.48
822.02	3049.43
822.19	3538.89
822.36	3213.26
822.53	2975.70
822.70	2963.41
822.88	3196.88
823.05	3571.66
823.22	3096.53
823.39	2987.99
823.56	3274.70
823.74	3567.56
823.91	2869.20
824.08	2992.08
824.25	2998.23
824.42	3561.42
824.60	2996.18
824.77	3180.50
824.94	3246.03
825.11	3405.77
825.28	2971.60
825.45	3243.98
825.63	3262.41
825.80	3088.34
825.97	3186.64
826.14	3117.01
826.31	2983.89
826.48	3366.86
826.66	3012.56
826.83	2979.79
827.00	3205.07
827.17	3035.09
827.34	3119.06
827.51	2912.21
827.69	3153.87
827.86	2912.21
828.03	3114.96
828.20	3207.12
828.37	3106.77
828.54	3364.81
828.71	3008.47
828.89	3080.14
829.06	3330.00
829.23	3540.94
829.40	2987.99
829.57	3053.52
829.74	3440.59
829.91	3160.02
830.09	3010.51
830.26	3145.68
830.43	3532.75
830.60	3178.45
830.77	3190.74
830.94	3272.65
831.11	3354.57
831.28	3182.54
831.46	3112.91
831.63	3114.96
831.80	3411.92
831.97	3135.44
832.14	3149.78
832.31	3192.78
832.48	3229.65
832.65	3442.64
832.82	3223.50
832.99	3086.29
833.17	3057.62
833.34	3575.75
833.51	3100.62
833.68	2846.68
833.85	3545.03
834.02	3114.96
834.19	3000.27
834.36	3047.38
834.53	3250.13
834.70	3450.83
834.87	3012.56
835.04	2836.44
835.22	3043.28
835.39	3217.36
835.56	2885.59
835.73	2955.22
835.90	3493.83
836.07	3114.96
836.24	3047.38
836.41	2926.55
836.58	3065.81
836.75	3434.44
836.92	2944.98
837.09	2848.72
837.26	3426.25
837.43	3346.38
837.60	2938.84
837.77	2998.23
837.94	3366.86
838.12	3438.54
838.29	2918.36
838.46	2852.82
838.63	3016.66
838.80	3588.04
838.97	3053.52
839.14	2832.34
839.31	3237.84
839.48	3401.68
839.65	2906.07
839.82	2973.65
839.99	3291.09
840.16	3250.13
840.33	2869.20
840.50	2963.41
840.67	3155.92
840.84	2770.90
841.01	2910.16
841.18	2815.96
841.35	3149.78
841.52	3379.15
841.69	3293.13
841.86	2914.26
842.03	3217.36
842.20	3459.02
842.37	2861.01
842.54	3020.75
842.71	3332.05
842.88	2906.07
843.05	2914.26
843.22	2951.12
843.39	3456.97
843.56	3162.06
843.73	2840.53
843.90	3041.23
844.07	3282.89
844.24	3393.48
844.41	2967.51
844.58	2953.17
844.75	3266.51
844.92	3370.96
845.09	2967.51
845.26	2934.74
845.43	3479.50
845.60	3157.97
845.77	2963.41
845.94	3108.82
846.10	3424.20
846.27	2981.84
846.44	2830.29
846.61	2803.67
846.78	3393.48
846.95	3438.54
847.12	2918.36
847.29	2987.99
847.46	3114.96
847.63	3323.85
847.80	2891.73
847.97	2910.16
848.14	3641.29
848.31	3176.40
848.48	2844.63
848.65	2920.40
848.82	3186.64
848.98	3770.31
849.15	3067.86
849.32	3090.38
849.49	3459.02
849.66	3215.31
849.83	2955.22
850.00	2856.92
850.17	3483.59
850.34	3133.39
850.51	2867.16
850.68	2918.36
850.85	3678.15
851.01	3237.84
851.18	2893.78
851.35	3049.43
851.52	3399.63
851.69	3645.38
851.86	2846.68
852.03	2891.73
852.20	3358.67
852.37	3256.27
852.53	2764.76
852.70	2822.10
852.87	3319.76
853.04	3389.39
853.21	2914.26
853.38	3194.83
853.55	3618.76
853.72	3475.40
853.89	2818.00
854.05	2914.26
854.22	3205.07
854.39	3143.63
854.56	2889.68
854.73	3127.25
854.90	3102.67
855.07	3358.67
855.23	2891.73
855.40	2828.24
855.57	3231.69
855.74	2809.81
855.91	3069.91
856.08	2746.33
856.25	2987.99
856.41	3217.36
856.58	2879.44
856.75	2899.92
856.92	3061.71
857.09	3403.72
857.26	2736.09
857.42	2936.79
857.59	3383.24
857.76	3172.30
857.93	2879.44
858.10	2967.51
858.27	3114.96
858.43	3348.43
858.60	2934.74
858.77	2777.05
858.94	3125.20
859.11	3495.88
859.27	3055.57
859.44	2865.11
859.61	3641.29
859.78	3428.30
859.95	2912.21
860.12	2893.78
860.28	3690.44
860.45	3659.72
860.62	2856.92
860.79	3074.00
860.95	3260.37
861.12	3047.38
861.29	2897.88
861.46	2893.78
861.63	3282.89
861.79	3256.27
861.96	2803.67
862.13	2975.70
862.30	3629.00
862.47	3164.11
862.63	2805.72
862.80	2994.13
862.97	3424.20
863.14	3317.71
863.30	2934.74
863.47	2901.97
863.64	3532.75
863.81	3358.67
863.97	2807.77
864.14	2985.94
864.31	3289.04
864.48	3272.65
864.65	2895.83
864.81	3002.32
864.98	3309.52
865.15	3344.33
865.32	2979.79
865.48	2985.94
865.65	3645.38
865.82	3117.01
865.98	2969.55
866.15	2893.78
866.32	3196.88
866.49	3182.54
866.65	3041.23
866.82	2908.12
866.99	3243.98
867.16	3180.50
867.32	2951.12
867.49	2856.92
867.66	3266.51
867.83	3125.20
867.99	2885.59
868.16	2981.84
868.33	3024.85
868.49	3248.08
868.66	2938.84
868.83	3061.71
868.99	3266.51
869.16	3278.80
869.33	3100.62
869.50	3000.27
869.66	3311.57
869.83	3174.35
870.00	2832.34
870.16	3059.67
870.33	3305.42
870.50	3459.02
870.66	3026.90
870.83	2908.12
871.00	3262.41
871.17	3303.37
871.33	2992.08
871.50	2871.25
871.67	3198.93
871.83	3104.72
872.00	3033.04
872.17	2924.50
872.33	3620.81
872.50	3475.40
872.67	2920.40
872.83	2901.97
873.00	3387.34
873.17	3233.74
873.33	3071.95
873.50	3047.38
873.67	3065.81
873.83	3092.43
874.00	2981.84
874.16	3000.27
874.33	3194.83
874.50	3055.57
874.66	2893.78
874.83	3043.28
875.00	3485.64
875.16	3467.21
875.33	2998.23
875.50	2746.33
875.66	3108.82
875.83	3278.80
875.99	3002.32
876.16	3045.33
876.33	3024.85
876.49	3190.74
876.66	2944.98
876.83	3033.04
876.99	2977.75
877.16	3258.32
877.32	2815.96
877.49	2998.23
877.66	3342.28
877.82	3542.99
877.99	2965.46
878.15	3155.92
878.32	3192.78
878.49	3319.76
878.65	2985.94
878.82	3194.83
878.98	3082.19
879.15	3557.32
879.32	3049.43
879.48	3123.15
879.65	3293.13
879.81	3188.69
879.98	2981.84
880.15	2981.84
880.31	3422.16
880.48	3147.73
880.64	3078.10
880.81	3117.01
880.97	3538.89
881.14	3524.55
881.31	2949.08
881.47	3117.01
881.64	3221.45
881.80	2875.35
881.97	3129.30
882.13	2969.55
882.30	3033.04
882.47	3168.21
882.63	2975.70
882.80	2938.84
882.96	3200.98
883.13	3459.02
883.29	2973.65
883.46	2877.40
883.62	3721.16
883.79	3266.51
883.95	3137.49
884.12	2904.02
884.29	3545.03
884.45	3235.79
884.62	2938.84
884.78	2977.75
884.95	3555.27
885.11	3102.67
885.28	2940.88
885.44	2926.55
885.61	3377.10
885.77	3463.12
885.94	3035.09
886.10	3004.37
886.27	3266.51
886.43	3688.39
886.60	3047.38
886.76	2990.03
886.93	3180.50
887.09	3334.09
887.26	2795.48
887.42	3014.61
887.59	3493.83
887.75	3684.30
887.92	3127.25
888.08	3065.81
888.25	3635.14
888.41	3442.64
888.58	2938.84
888.74	2858.96
888.91	3170.26
>>>>>End Processed Spectral Data<<<<<
