SpectraSuite Data File
++++++++++++++++++++++++++++++++++++
Date: Fri May 06 08:14:22 CEST 2016
User: root
Dark Spectrum Present: No
Reference Spectrum Present: No
Number of Sampled Component Spectra: 1
Spectrometers: USB4C02835
Integration Time (usec): 100000 (USB4C02835)
Spectra Averaged: 1 (USB4C02835)
Boxcar Smoothing: 0 (USB4C02835)
Correct for Electrical Dark: No (USB4C02835)
Strobe/Lamp Enabled: No (USB4C02835)
Correct for Detector Non-linearity: No (USB4C02835)
Correct for Stray Light: No (USB4C02835)
Number of Pixels in Processed Spectrum: 3648
>>>>>Begin Processed Spectral Data<<<<<
177.47	2226.14
177.69	2226.14
177.91	2226.14
178.13	2260.96
178.36	2207.71
178.58	2934.74
178.80	3098.58
179.02	2957.27
179.24	3133.39
179.46	2803.67
179.68	2840.53
179.90	3274.70
180.13	3286.99
180.35	2631.64
180.57	2781.14
180.79	3420.11
181.01	3289.04
181.23	2809.81
181.45	2955.22
181.67	3387.34
181.90	3475.40
182.12	2891.73
182.34	2693.08
182.56	3493.83
182.78	3321.81
183.00	2852.82
183.22	2889.68
183.44	2881.49
183.66	3794.89
183.89	2977.75
184.11	2871.25
184.33	3399.63
184.55	3487.69
184.77	2856.92
184.99	2914.26
185.21	3186.64
185.43	3770.31
185.65	2889.68
185.87	2801.62
186.10	3803.08
186.32	3751.88
186.54	2971.60
186.76	2955.22
186.98	3510.22
187.20	3276.75
187.42	2901.97
187.64	2826.20
187.86	3346.38
188.08	3479.50
188.30	2752.47
188.52	2910.16
188.75	3559.37
188.97	3520.46
189.19	2861.01
189.41	2813.91
189.63	3434.44
189.85	3243.98
190.07	2643.93
190.29	2713.56
190.51	3360.72
190.73	3037.14
190.95	3094.48
191.17	2924.50
191.39	3037.14
191.61	3241.93
191.84	2854.87
192.06	2987.99
192.28	3002.32
192.50	3905.48
192.72	3069.91
192.94	2895.83
193.16	3467.21
193.38	3338.19
193.60	2824.15
193.82	3096.53
194.04	3512.27
194.26	3368.91
194.48	2797.53
194.70	2854.87
194.92	3203.02
195.14	3395.53
195.36	2811.86
195.58	2901.97
195.80	3250.13
196.02	3123.15
196.24	2820.05
196.46	2932.69
196.69	3250.13
196.91	3715.02
197.13	2906.07
197.35	2949.08
197.57	3626.95
197.79	3401.68
198.01	2990.03
198.23	3000.27
198.45	3336.14
198.67	2963.41
198.89	2680.79
199.11	2928.60
199.33	3131.34
199.55	2871.25
199.77	2822.10
199.99	2932.69
200.21	3145.68
200.43	3309.52
200.65	2756.57
200.87	2652.12
201.09	3327.95
201.31	3221.45
201.53	2916.31
201.75	2926.55
201.97	3330.00
202.19	3219.41
202.41	2942.93
202.63	3010.51
202.85	3385.29
203.07	3321.81
203.29	2885.59
203.51	2852.82
203.73	3084.24
203.95	3819.46
204.17	2815.96
204.39	3020.75
204.61	3264.46
204.83	3213.26
205.05	2961.36
205.27	2850.77
205.49	3725.26
205.71	3258.32
205.93	2731.99
206.15	2781.14
206.37	3272.65
206.59	3270.61
206.81	2695.13
207.03	2729.94
207.25	3004.37
207.47	3403.72
207.69	2848.72
207.91	3172.30
208.13	3633.10
208.34	3137.49
208.56	2760.66
208.78	2869.20
209.00	3174.35
209.22	3076.05
209.44	2942.93
209.66	2820.05
209.88	3295.18
210.10	3311.57
210.32	2867.16
210.54	2985.94
210.76	3246.03
210.98	3557.32
211.20	2742.23
211.42	2985.94
211.64	3590.09
211.86	3354.57
212.08	2887.64
212.30	2861.01
212.52	3256.27
212.74	3348.43
212.96	2875.35
213.17	2940.88
213.39	3428.30
213.61	3631.05
213.83	2881.49
214.05	2750.42
214.27	3538.89
214.49	3157.97
214.71	2795.48
214.93	2979.79
215.15	3291.09
215.37	3549.13
215.59	2699.22
215.81	2914.26
216.03	3592.14
216.24	3270.61
216.46	2969.55
216.68	2854.87
216.90	3377.10
217.12	3522.51
217.34	2752.47
217.56	3059.67
217.78	3561.42
218.00	3413.96
218.22	2963.41
218.44	2987.99
218.66	3375.05
218.87	3610.57
219.09	2910.16
219.31	2895.83
219.53	3387.34
219.75	3205.07
219.97	2963.41
220.19	2938.84
220.41	3237.84
220.63	3571.66
220.85	2881.49
221.06	2906.07
221.28	3635.14
221.50	3440.59
221.72	2815.96
221.94	2770.90
222.16	3352.52
222.38	3551.18
222.60	2795.48
222.82	2865.11
223.03	3407.82
223.25	2987.99
223.47	2803.67
223.69	3082.19
223.91	3379.15
224.13	3346.38
224.35	2787.29
224.57	2947.03
224.78	3536.84
225.00	3053.52
225.22	2961.36
225.44	2803.67
225.66	3393.48
225.88	3188.69
226.10	2987.99
226.32	2871.25
226.53	3559.37
226.75	3235.79
226.97	2947.03
227.19	2914.26
227.41	3182.54
227.63	3250.13
227.85	2715.61
228.06	2897.88
228.28	3325.90
228.50	3502.03
228.72	2633.69
228.94	2832.34
229.16	2928.60
229.37	3037.14
229.59	2805.72
229.81	3178.45
230.03	3125.20
230.25	3069.91
230.47	2688.98
230.69	2762.71
230.90	3502.03
231.12	3020.75
231.34	2990.03
231.56	2979.79
231.78	3047.38
232.00	3221.45
232.21	2953.17
232.43	2928.60
232.65	2875.35
232.87	3395.53
233.09	2707.41
233.30	2830.29
233.52	3475.40
233.74	3262.41
233.96	2856.92
234.18	3061.71
234.40	3248.08
234.61	3719.11
234.83	2752.47
235.05	2789.33
235.27	3821.51
235.49	3659.72
235.70	2840.53
235.92	2918.36
236.14	3420.11
236.36	3803.08
236.58	2781.14
236.79	3008.47
237.01	3293.13
237.23	3284.94
237.45	3069.91
237.67	2901.97
237.88	3397.58
238.10	3620.81
238.32	2795.48
238.54	2811.86
238.76	3266.51
238.97	3112.91
239.19	2783.19
239.41	3012.56
239.63	3577.80
239.85	3160.02
240.06	2865.11
240.28	2877.40
240.50	3467.21
240.72	3270.61
240.93	2807.77
241.15	3008.47
241.37	3338.19
241.59	3524.55
241.81	2811.86
242.02	2938.84
242.24	3282.89
242.46	3411.92
242.68	2744.28
242.89	2731.99
243.11	3391.44
243.33	3317.71
243.55	2887.64
243.76	2865.11
243.98	3137.49
244.20	3270.61
244.42	2861.01
244.64	2854.87
244.85	3057.62
245.07	3051.47
245.29	2863.06
245.51	2918.36
245.72	3307.47
245.94	3469.26
246.16	2875.35
246.38	2791.38
246.59	3174.35
246.81	3110.86
247.03	2783.19
247.24	2703.32
247.46	3117.01
247.68	3327.95
247.90	2799.57
248.11	2826.20
248.33	3481.55
248.55	3188.69
248.77	2992.08
248.98	2944.98
249.20	3592.14
249.42	3272.65
249.64	2795.48
249.85	2895.83
250.07	3231.69
250.29	3330.00
250.50	2914.26
250.72	2828.24
250.94	3387.34
251.16	3811.27
251.37	2838.48
251.59	2947.03
251.81	3346.38
252.02	3567.56
252.24	2811.86
252.46	2977.75
252.68	3100.62
252.89	3149.78
253.11	2701.27
253.33	3028.95
253.54	3641.29
253.76	3063.76
253.98	2969.55
254.20	2928.60
254.41	3028.95
254.63	3237.84
254.85	2754.52
255.06	2936.79
255.28	3364.81
255.50	3223.50
255.71	2791.38
255.93	2731.99
256.15	3266.51
256.36	3416.01
256.58	2787.29
256.80	2779.09
257.02	3252.17
257.23	3164.11
257.45	2928.60
257.67	3002.32
257.88	3205.07
258.10	3323.85
258.32	2869.20
258.53	2998.23
258.75	3626.95
258.97	3100.62
259.18	2781.14
259.40	2834.39
259.62	3629.00
259.83	3583.95
260.05	2912.21
260.27	3829.70
260.48	3502.03
260.70	3088.34
260.92	2811.86
261.13	2904.02
261.35	3321.81
261.57	3362.76
261.78	2758.61
262.00	2838.48
262.22	3332.05
262.43	3088.34
262.65	2942.93
262.86	2897.88
263.08	3782.60
263.30	3307.47
263.51	2750.42
263.73	2762.71
263.95	3504.07
264.16	2994.13
264.38	2723.80
264.60	2764.76
264.81	3231.69
265.03	3532.75
265.25	3346.38
265.46	2887.64
265.68	3540.94
265.89	3463.12
266.11	2760.66
266.33	2779.09
266.54	3493.83
266.76	3454.92
266.98	3057.62
267.19	3024.85
267.41	3510.22
267.62	3301.33
267.84	2617.30
268.06	3063.76
268.27	3315.66
268.49	3473.36
268.70	2971.60
268.92	2846.68
269.14	3137.49
269.35	3016.66
269.57	2981.84
269.79	2897.88
270.00	3186.64
270.22	3575.75
270.43	2691.03
270.65	2787.29
270.87	3250.13
271.08	3432.40
271.30	2918.36
271.51	2873.30
271.73	3379.15
271.95	3563.47
272.16	2797.53
272.38	3049.43
272.59	3215.31
272.81	3395.53
273.02	2873.30
273.24	2856.92
273.46	3657.67
273.67	3008.47
273.89	2779.09
274.10	2871.25
274.32	3418.06
274.54	3336.14
274.75	2944.98
274.97	2959.31
275.18	3416.01
275.40	3389.39
275.61	2848.72
275.83	3069.91
276.05	3082.19
276.26	3225.55
276.48	2908.12
276.69	3063.76
276.91	3280.85
277.12	3569.61
277.34	3071.95
277.55	3147.73
277.77	3258.32
277.99	3194.83
278.20	3045.33
278.42	2895.83
278.63	3121.10
278.85	3053.52
279.06	2893.78
279.28	3127.25
279.49	3446.73
279.71	3422.16
279.93	3108.82
280.14	3049.43
280.36	3147.73
280.57	3542.99
280.79	3028.95
281.00	2906.07
281.22	3080.14
281.43	3469.26
281.65	2838.48
281.86	2899.92
282.08	3409.87
282.29	3633.10
282.51	2863.06
282.73	2930.64
282.94	3026.90
283.16	3409.87
283.37	3112.91
283.59	3039.19
283.80	3309.52
284.02	3254.22
284.23	3059.67
284.45	3051.47
284.66	3127.25
284.88	3057.62
285.09	2969.55
285.31	3084.24
285.52	3356.62
285.74	2979.79
285.95	3264.46
286.17	3063.76
286.38	3473.36
286.60	3147.73
286.81	2957.27
287.03	2928.60
287.24	3168.21
287.46	3479.50
287.67	3139.54
287.89	3131.34
288.10	3309.52
288.32	3313.61
288.53	3098.58
288.75	3008.47
288.96	3448.78
289.18	3104.72
289.39	2926.55
289.61	2971.60
289.82	3672.01
290.04	3667.91
290.25	2885.59
290.47	3074.00
290.68	3200.98
290.90	3487.69
291.11	2856.92
291.33	3172.30
291.54	3028.95
291.76	3184.59
291.97	3104.72
292.18	3131.34
292.40	3243.98
292.61	3164.11
292.83	3340.24
293.04	3033.04
293.26	3323.85
293.47	3268.56
293.69	2973.65
293.90	2869.20
294.12	3508.17
294.33	3205.07
294.55	3061.71
294.76	3155.92
294.97	3506.12
295.19	3635.14
295.40	2971.60
295.62	3123.15
295.83	3493.83
296.05	3196.88
296.26	3211.22
296.48	2969.55
296.69	3268.56
296.90	3268.56
297.12	3166.16
297.33	3153.87
297.55	3246.03
297.76	3338.19
297.98	3108.82
298.19	3157.97
298.41	3233.74
298.62	3092.43
298.83	3110.86
299.05	3057.62
299.26	3184.59
299.48	3100.62
299.69	3057.62
299.90	2920.40
300.12	3055.57
300.33	3416.01
300.55	3024.85
300.76	2977.75
300.98	3084.24
301.19	3391.44
301.40	2975.70
301.62	2992.08
301.83	3352.52
302.05	3317.71
302.26	2965.46
302.47	3059.67
302.69	2975.70
302.90	3213.26
303.12	2869.20
303.33	3131.34
303.54	3721.16
303.76	3168.21
303.97	2955.22
304.19	3205.07
304.40	3092.43
304.61	3377.10
304.83	3082.19
305.04	3069.91
305.26	3430.35
305.47	3221.45
305.68	2973.65
305.90	2918.36
306.11	3518.41
306.33	3256.27
306.54	2887.64
306.75	2953.17
306.97	3020.75
307.18	3033.04
307.39	3022.80
307.61	3129.30
307.82	3231.69
308.04	3391.44
308.25	2912.21
308.46	3149.78
308.68	3276.75
308.89	3270.61
309.10	3143.63
309.32	3037.14
309.53	3332.05
309.74	3352.52
309.96	2848.72
310.17	3135.44
310.39	3176.40
310.60	3397.58
310.81	3098.58
311.03	2951.12
311.24	3391.44
311.45	3254.22
311.67	3282.89
311.88	3100.62
312.09	3176.40
312.31	3057.62
312.52	2936.79
312.73	3055.57
312.95	3016.66
313.16	3094.48
313.37	3155.92
313.59	3268.56
313.80	3411.92
314.01	3588.04
314.23	3071.95
314.44	2967.51
314.65	2965.46
314.87	3043.28
315.08	2975.70
315.29	3074.00
315.51	3133.39
315.72	3002.32
315.93	2967.51
316.15	2985.94
316.36	3147.73
316.57	3317.71
316.79	2992.08
317.00	2944.98
317.21	3436.49
317.43	3147.73
317.64	2994.13
317.85	2883.54
318.07	3157.97
318.28	3127.25
318.49	3119.06
318.70	3250.13
318.92	3327.95
319.13	3342.28
319.34	3239.89
319.56	3074.00
319.77	3321.81
319.98	3409.87
320.20	3352.52
320.41	3225.55
320.62	3370.96
320.83	3024.85
321.05	3176.40
321.26	3102.67
321.47	3295.18
321.69	3547.08
321.90	2899.92
322.11	2951.12
322.32	3299.28
322.54	3647.43
322.75	3061.71
322.96	3966.92
323.18	2965.46
323.39	2922.45
323.60	2871.25
323.81	3110.86
324.03	3168.21
324.24	3262.41
324.45	3102.67
324.66	2936.79
324.88	3545.03
325.09	3553.23
325.30	2961.36
325.52	2881.49
325.73	3391.44
325.94	3114.96
326.15	2830.29
326.37	2813.91
326.58	3514.31
326.79	3692.49
327.00	2971.60
327.22	2963.41
327.43	3262.41
327.64	3028.95
327.85	3106.77
328.07	3057.62
328.28	3669.96
328.49	3248.08
328.70	2973.65
328.92	3006.42
329.13	3237.84
329.34	3377.10
329.55	3254.22
329.76	3172.30
329.98	3188.69
330.19	3487.69
330.40	3080.14
330.61	3110.86
330.83	3426.25
331.04	3112.91
331.25	3028.95
331.46	3084.24
331.68	3026.90
331.89	3510.22
332.10	2992.08
332.31	2844.63
332.52	3246.03
332.74	3532.75
332.95	2914.26
333.16	2971.60
333.37	3475.40
333.58	3145.68
333.80	3037.14
334.01	2836.44
334.22	3260.37
334.43	3139.54
334.64	2951.12
334.86	2959.31
335.07	3100.62
335.28	3641.29
335.49	2934.74
335.70	3135.44
335.92	3573.71
336.13	3794.89
336.34	3063.76
336.55	2940.88
336.76	3364.81
336.98	2805.72
337.19	3041.23
337.40	3125.20
337.61	3811.27
337.82	3229.65
338.04	3057.62
338.25	2795.48
338.46	3278.80
338.67	3268.56
338.88	2848.72
339.09	2887.64
339.31	3172.30
339.52	3045.33
339.73	2910.16
339.94	3026.90
340.15	3385.29
340.36	3137.49
340.58	3102.67
340.79	2889.68
341.00	3401.68
341.21	3010.51
341.42	3217.36
341.63	2996.18
341.85	3506.12
342.06	3282.89
342.27	2985.94
342.48	3141.58
342.69	2979.79
342.90	3282.89
343.12	3397.58
343.33	2947.03
343.54	3442.64
343.75	3557.32
343.96	3078.10
344.17	2938.84
344.38	3280.85
344.60	3114.96
344.81	2940.88
345.02	2944.98
345.23	3540.94
345.44	3833.80
345.65	3061.71
345.86	3006.42
346.07	3344.33
346.29	3166.16
346.50	3151.82
346.71	3086.29
346.92	3418.06
347.13	3731.40
347.34	3096.53
347.55	2865.11
347.76	3350.48
347.98	3035.09
348.19	3053.52
348.40	3194.83
348.61	3239.89
348.82	3723.21
349.03	3010.51
349.24	2965.46
349.45	3620.81
349.66	2930.64
349.88	3030.99
350.09	2938.84
350.30	3499.98
350.51	3596.23
350.72	3170.26
350.93	2928.60
351.14	3233.74
351.35	3403.72
351.56	3030.99
351.77	3080.14
351.99	3360.72
352.20	3532.75
352.41	3074.00
352.62	2770.90
352.83	3295.18
353.04	3229.65
353.25	2912.21
353.46	3094.48
353.67	3459.02
353.88	2953.17
354.09	2959.31
354.30	2981.84
354.52	3452.88
354.73	3215.31
354.94	2979.79
355.15	3088.34
355.36	3725.26
355.57	3168.21
355.78	2973.65
355.99	3010.51
356.20	3172.30
356.41	3534.79
356.62	3069.91
356.83	3037.14
357.04	3514.31
357.25	2944.98
357.46	3074.00
357.68	2877.40
357.89	3098.58
358.10	3266.51
358.31	3033.04
358.52	2998.23
358.73	3114.96
358.94	3117.01
359.15	2994.13
359.36	3051.47
359.57	3393.48
359.78	3205.07
359.99	3180.50
360.20	2871.25
360.41	3272.65
360.62	3391.44
360.83	3045.33
361.04	3045.33
361.25	3368.91
361.46	3592.14
361.67	3106.77
361.88	2983.89
362.09	3495.88
362.30	3250.13
362.51	2932.69
362.72	3065.81
362.93	3483.59
363.14	3366.86
363.35	3180.50
363.56	3002.32
363.78	3551.18
363.99	3561.42
364.20	2981.84
364.41	3012.56
364.62	3651.53
364.83	3291.09
365.04	2951.12
365.25	3117.01
365.46	3585.99
365.67	3039.19
365.88	3211.22
366.09	2990.03
366.30	3160.02
366.51	3295.18
366.72	2959.31
366.93	2992.08
367.14	3289.04
367.35	3471.31
367.56	2969.55
367.77	3139.54
367.98	3260.37
368.18	3342.28
368.39	3178.45
368.60	2904.02
368.81	3442.64
369.02	3286.99
369.23	3053.52
369.44	2869.20
369.65	3286.99
369.86	3311.57
370.07	3092.43
370.28	2951.12
370.49	3397.58
370.70	3350.48
370.91	2969.55
371.12	2879.44
371.33	3545.03
371.54	3227.60
371.75	3065.81
371.96	2766.81
372.17	3248.08
372.38	3264.46
372.59	3043.28
372.80	2987.99
373.01	3164.11
373.22	3379.15
373.43	2992.08
373.64	2920.40
373.85	3547.08
374.06	3602.38
374.26	3172.30
374.47	3174.35
374.68	3530.70
374.89	3323.85
375.10	2918.36
375.31	3020.75
375.52	3327.95
375.73	3291.09
375.94	2803.67
376.15	3145.68
376.36	3135.44
376.57	3198.93
376.78	2981.84
376.99	3057.62
377.20	3528.65
377.40	3215.31
377.61	3336.14
377.82	2926.55
378.03	3631.05
378.24	3370.96
378.45	3051.47
378.66	3100.62
378.87	2963.41
379.08	2996.18
379.29	3022.80
379.50	3168.21
379.71	3186.64
379.91	3409.87
380.12	3028.95
380.33	3098.58
380.54	3280.85
380.75	3280.85
380.96	2979.79
381.17	3033.04
381.38	3270.61
381.59	3170.26
381.80	3024.85
382.00	3223.50
382.21	3213.26
382.42	3598.28
382.63	3399.63
382.84	3168.21
383.05	3391.44
383.26	3565.51
383.47	3160.02
383.68	2985.94
383.88	3350.48
384.09	3321.81
384.30	3246.03
384.51	3092.43
384.72	3149.78
384.93	3049.43
385.14	3082.19
385.35	3237.84
385.55	2953.17
385.76	3608.52
385.97	2990.03
386.18	2969.55
386.39	3131.34
386.60	3200.98
386.81	2992.08
387.02	2944.98
387.22	3041.23
387.43	3401.68
387.64	3110.86
387.85	3307.47
388.06	3295.18
388.27	4349.89
388.48	7763.85
388.68	12015.43
388.89	15040.28
389.10	16606.98
389.31	16197.38
389.52	13076.28
389.73	11206.48
389.93	10536.80
390.14	9324.40
390.35	8540.03
390.56	7862.15
390.77	6600.60
390.98	4990.90
391.18	4233.15
391.39	3909.57
391.60	3381.20
391.81	3291.09
392.02	3145.68
392.23	3768.26
392.43	3299.28
392.64	3188.69
392.85	3205.07
393.06	3614.66
393.27	3227.60
393.47	3018.71
393.68	3131.34
393.89	3188.69
394.10	3557.32
394.31	2985.94
394.52	2973.65
394.72	3155.92
394.93	3549.13
395.14	2826.20
395.35	3119.06
395.56	3274.70
395.76	3235.79
395.97	3000.27
396.18	3153.87
396.39	3315.66
396.60	3897.28
396.80	3448.78
397.01	3336.14
397.22	3411.92
397.43	3491.79
397.64	3002.32
397.84	3190.74
398.05	3678.15
398.26	3237.84
398.47	3119.06
398.67	3278.80
398.88	3366.86
399.09	3452.88
399.30	3022.80
399.51	3119.06
399.71	3178.45
399.92	3262.41
400.13	3139.54
400.34	3067.86
400.54	3289.04
400.75	3559.37
400.96	3291.09
401.17	3360.72
401.37	3362.76
401.58	3295.18
401.79	2955.22
402.00	3139.54
402.21	3837.89
402.41	3534.79
402.62	3364.81
402.83	3512.27
403.04	3719.11
403.24	4130.75
403.45	3170.26
403.66	3373.00
403.87	3434.44
404.07	3637.19
404.28	3284.94
404.49	3393.48
404.70	3370.96
404.90	3401.68
405.11	3078.10
405.32	3172.30
405.52	3174.35
405.73	3110.86
405.94	2895.83
406.15	3002.32
406.35	3440.59
406.56	3420.11
406.77	3078.10
406.98	3037.14
407.18	3153.87
407.39	3684.30
407.60	3016.66
407.80	3065.81
408.01	3241.93
408.22	3377.10
408.43	2981.84
408.63	3153.87
408.84	3442.64
409.05	3430.35
409.25	2922.45
409.46	3084.24
409.67	3184.59
409.88	3119.06
410.08	3033.04
410.29	2967.51
410.50	3422.16
410.70	3440.59
410.91	2979.79
411.12	3043.28
411.32	3243.98
411.53	3139.54
411.74	3086.29
411.95	3174.35
412.15	3289.04
412.36	3461.07
412.57	3129.30
412.77	3264.46
412.98	3293.13
413.19	3241.93
413.39	3074.00
413.60	3106.77
413.81	3534.79
414.01	3129.30
414.22	3090.38
414.43	3225.55
414.63	3248.08
414.84	3545.03
415.05	3096.53
415.25	2820.05
415.46	3393.48
415.67	3143.63
415.87	3106.77
416.08	2992.08
416.29	3196.88
416.49	3434.44
416.70	3182.54
416.91	2998.23
417.11	3215.31
417.32	3475.40
417.53	3133.39
417.73	3114.96
417.94	3313.61
418.15	3313.61
418.35	3069.91
418.56	3160.02
418.77	3688.39
418.97	3286.99
419.18	3084.24
419.38	2713.56
419.59	3346.38
419.80	3549.13
420.00	3000.27
420.21	2992.08
420.42	3483.59
420.62	3270.61
420.83	3002.32
421.04	3010.51
421.24	3299.28
421.45	3411.92
421.65	3121.10
421.86	3121.10
422.07	3524.55
422.27	3413.96
422.48	3004.37
422.69	2920.40
422.89	3198.93
423.10	3203.02
423.30	2985.94
423.51	3084.24
423.72	3416.01
423.92	3407.82
424.13	2955.22
424.33	3168.21
424.54	3430.35
424.75	3237.84
424.95	3223.50
425.16	2996.18
425.36	3215.31
425.57	3479.50
425.78	3162.06
425.98	3239.89
426.19	3086.29
426.39	3141.58
426.60	3088.34
426.81	3145.68
427.01	3411.92
427.22	3127.25
427.42	2910.16
427.63	2994.13
427.83	3497.93
428.04	3631.05
428.25	3125.20
428.45	3188.69
428.66	3446.73
428.86	3297.23
429.07	3080.14
429.28	3033.04
429.48	3297.23
429.69	3129.30
429.89	3123.15
430.10	2947.03
430.30	3362.76
430.51	3518.41
430.71	2994.13
430.92	3125.20
431.13	3106.77
431.33	3426.25
431.54	3198.93
431.74	3280.85
431.95	3753.93
432.15	3049.43
432.36	3024.85
432.56	3028.95
432.77	3739.59
432.98	3704.78
433.18	3047.38
433.39	3000.27
433.59	3237.84
433.80	3676.10
434.00	3225.55
434.21	3117.01
434.41	3123.15
434.62	3747.78
434.82	2883.54
435.03	3012.56
435.23	3356.62
435.44	3000.27
435.64	3020.75
435.85	3114.96
436.06	3467.21
436.26	3434.44
436.47	3108.82
436.67	2990.03
436.88	3231.69
437.08	3475.40
437.29	3119.06
437.49	3215.31
437.70	3569.61
437.90	3297.23
438.11	3233.74
438.31	3149.78
438.52	3573.71
438.72	3456.97
438.93	3446.73
439.13	3162.06
439.34	3426.25
439.54	3166.16
439.75	3205.07
439.95	3147.73
440.16	3160.02
440.36	3327.95
440.57	3114.96
440.77	3026.90
440.98	3266.51
441.18	3422.16
441.39	2969.55
441.59	2934.74
441.80	3807.17
442.00	3373.00
442.21	3160.02
442.41	2856.92
442.62	3530.70
442.82	3114.96
443.02	3074.00
443.23	3141.58
443.43	3186.64
443.64	3559.37
443.84	2924.50
444.05	3147.73
444.25	3330.00
444.46	3071.95
444.66	3125.20
444.87	3313.61
445.07	2967.51
445.28	3231.69
445.48	3223.50
445.69	3135.44
445.89	3813.32
446.09	3241.93
446.30	3368.91
446.50	3477.45
446.71	5109.68
446.91	6410.14
447.12	7331.73
447.32	7751.56
447.53	7792.52
447.73	6399.90
447.93	5490.60
448.14	5214.13
448.34	5281.71
448.55	4536.25
448.75	4474.81
448.96	4190.14
449.16	4046.79
449.36	3971.01
449.57	3256.27
449.77	3082.19
449.98	3200.98
450.18	3418.06
450.39	3016.66
450.59	3239.89
450.79	3278.80
451.00	3196.88
451.20	3256.27
451.41	3084.24
451.61	3342.28
451.81	3295.18
452.02	3004.37
452.22	3049.43
452.43	3221.45
452.63	3106.77
452.84	3139.54
453.04	3037.14
453.24	3348.43
453.45	3164.11
453.65	3110.86
453.86	3131.34
454.06	3401.68
454.26	3229.65
454.47	2967.51
454.67	3272.65
454.87	3401.68
455.08	3131.34
455.28	3233.74
455.49	3270.61
455.69	3080.14
455.89	3626.95
456.10	3182.54
456.30	2928.60
456.51	3373.00
456.71	3233.74
456.91	3205.07
457.12	3078.10
457.32	3379.15
457.52	3057.62
457.73	3174.35
457.93	3266.51
458.14	3094.48
458.34	2879.44
458.54	3049.43
458.75	2981.84
458.95	3506.12
459.15	3330.00
459.36	3094.48
459.56	3024.85
459.76	3733.45
459.97	3215.31
460.17	3043.28
460.37	3092.43
460.58	3276.75
460.78	3405.77
460.99	3090.38
461.19	3018.71
461.39	3184.59
461.60	3237.84
461.80	3125.20
462.00	2967.51
462.21	3272.65
462.41	3155.92
462.61	2912.21
462.82	2852.82
463.02	3289.04
463.22	3305.42
463.43	3090.38
463.63	3016.66
463.83	3624.90
464.04	3352.52
464.24	3069.91
464.44	2969.55
464.64	3373.00
464.85	3342.28
465.05	3061.71
465.25	2949.08
465.46	3102.67
465.66	3319.76
465.86	3166.16
466.07	3086.29
466.27	3264.46
466.47	3057.62
466.68	2936.79
466.88	3188.69
467.08	3434.44
467.29	3491.79
467.49	3076.05
467.69	3192.78
467.89	3342.28
468.10	3262.41
468.30	3129.30
468.50	3180.50
468.71	3401.68
468.91	2985.94
469.11	3205.07
469.31	3188.69
469.52	3108.82
469.72	3616.71
469.92	3352.52
470.13	3039.19
470.33	3223.50
470.53	3319.76
470.73	3559.37
470.94	3909.57
471.14	4169.66
471.34	4736.95
471.54	4292.54
471.75	4085.70
471.95	3876.80
472.15	3811.27
472.36	3753.93
472.56	3532.75
472.76	3880.90
472.96	3827.65
473.17	3334.09
473.37	3254.22
473.57	3221.45
473.77	3405.77
473.98	3252.17
474.18	2934.74
474.38	3997.64
474.58	3069.91
474.79	2926.55
474.99	3192.78
475.19	3475.40
475.39	3151.82
475.60	3176.40
475.80	3045.33
476.00	3336.14
476.20	3233.74
476.41	3145.68
476.61	3100.62
476.81	3559.37
477.01	3143.63
477.21	3317.71
477.42	3147.73
477.62	3090.38
477.82	3487.69
478.02	3018.71
478.23	3092.43
478.43	3170.26
478.63	3184.59
478.83	3094.48
479.03	3106.77
479.24	3575.75
479.44	3696.58
479.64	2967.51
479.84	2910.16
480.04	3196.88
480.25	3452.88
480.45	3026.90
480.65	2963.41
480.85	3612.62
481.06	3237.84
481.26	3117.01
481.46	3106.77
481.66	3452.88
481.86	3088.34
482.06	3325.90
482.27	3114.96
482.47	3160.02
482.67	3413.96
482.87	3076.05
483.07	3149.78
483.28	3215.31
483.48	3119.06
483.68	3186.64
483.88	3053.52
484.08	2881.49
484.29	3059.67
484.49	3123.15
484.69	2918.36
484.89	3563.47
485.09	3506.12
485.29	3082.19
485.50	3248.08
485.70	3086.29
485.90	3536.84
486.10	3215.31
486.30	3008.47
486.50	3469.26
486.71	3301.33
486.91	3223.50
487.11	3164.11
487.31	3053.52
487.51	3375.05
487.71	2996.18
487.91	3000.27
488.12	3037.14
488.32	2787.29
488.52	3100.62
488.72	2805.72
488.92	3274.70
489.12	3600.33
489.32	3233.74
489.53	3055.57
489.73	2975.70
489.93	3620.81
490.13	3014.61
490.33	2951.12
490.53	3278.80
490.73	3477.45
490.94	2928.60
491.14	3174.35
491.34	3438.54
491.54	3411.92
491.74	4081.60
491.94	4556.73
492.14	5101.49
492.34	5150.64
492.54	4763.58
492.75	4138.94
492.95	4380.61
493.15	3979.20
493.35	3786.69
493.55	3788.74
493.75	3698.63
493.95	3829.70
494.15	3356.62
494.35	3241.93
494.56	3338.19
494.76	3106.77
494.96	3166.16
495.16	3000.27
495.36	3311.57
495.56	3327.95
495.76	3112.91
495.96	3057.62
496.16	3110.86
496.36	3747.78
496.56	3041.23
496.77	3131.34
496.97	3258.32
497.17	3549.13
497.37	2998.23
497.57	3155.92
497.77	3377.10
497.97	3121.10
498.17	3129.30
498.37	3026.90
498.57	3399.63
498.77	3205.07
498.97	3227.60
499.17	3430.35
499.38	3280.85
499.58	3422.16
499.78	3205.07
499.98	3272.65
500.18	3213.26
500.38	3170.26
500.58	3278.80
500.78	3643.34
500.98	6197.15
501.18	8191.88
501.38	9797.48
501.58	10997.59
501.78	10925.91
501.98	9119.60
502.18	7626.64
502.38	6633.37
502.58	6428.57
502.78	5613.48
502.98	5463.98
503.18	5162.93
503.38	4851.64
503.59	4331.45
503.79	4079.55
503.99	3700.68
504.19	3913.67
504.39	3919.81
504.59	3688.39
504.79	3635.14
504.99	3975.11
505.19	3549.13
505.39	3350.48
505.59	3520.46
505.79	3647.43
505.99	3524.55
506.19	3106.77
506.39	3389.39
506.59	3254.22
506.79	3266.51
506.99	3368.91
507.19	3026.90
507.39	3286.99
507.59	3074.00
507.79	2996.18
507.99	3049.43
508.19	3313.61
508.39	3108.82
508.59	3049.43
508.79	3057.62
508.99	3717.06
509.19	3155.92
509.39	3164.11
509.59	2961.36
509.79	3108.82
509.99	3272.65
510.19	3354.57
510.39	3207.12
510.59	3297.23
510.79	3164.11
510.99	2906.07
511.19	3039.19
511.39	3600.33
511.59	3518.41
511.79	3200.98
511.99	3049.43
512.19	3731.40
512.38	3295.18
512.58	3074.00
512.78	2959.31
512.98	3565.51
513.18	3612.62
513.38	2967.51
513.58	3141.58
513.78	3200.98
513.98	3295.18
514.18	3106.77
514.38	3026.90
514.58	3321.81
514.78	3209.17
514.98	2955.22
515.18	3127.25
515.38	3057.62
515.58	3614.66
515.78	3002.32
515.98	3086.29
516.18	3399.63
516.38	3336.14
516.57	3041.23
516.77	3012.56
516.97	3434.44
517.17	3166.16
517.37	2912.21
517.57	3067.86
517.77	3323.85
517.97	3098.58
518.17	3117.01
518.37	2901.97
518.57	3164.11
518.77	3176.40
518.97	3096.53
519.16	3043.28
519.36	3536.84
519.56	3098.58
519.76	3033.04
519.96	3200.98
520.16	3614.66
520.36	3078.10
520.56	3248.08
520.76	2977.75
520.96	3215.31
521.16	3459.02
521.35	3274.70
521.55	3168.21
521.75	3352.52
521.95	3198.93
522.15	2985.94
522.35	2901.97
522.55	2992.08
522.75	3485.64
522.95	2961.36
523.14	2910.16
523.34	3207.12
523.54	3071.95
523.74	3229.65
523.94	3155.92
524.14	2996.18
524.34	3405.77
524.54	3205.07
524.73	3110.86
524.93	3446.73
525.13	3350.48
525.33	2934.74
525.53	3307.47
525.73	3379.15
525.93	3338.19
526.13	3096.53
526.32	2944.98
526.52	3438.54
526.72	3469.26
526.92	3037.14
527.12	3010.51
527.32	2998.23
527.52	3413.96
527.71	3125.20
527.91	3121.10
528.11	3180.50
528.31	3246.03
528.51	3004.37
528.71	3205.07
528.90	3432.40
529.10	3510.22
529.30	3168.21
529.50	2861.01
529.70	3325.90
529.90	3137.49
530.09	3119.06
530.29	2889.68
530.49	3065.81
530.69	3917.76
530.89	3200.98
531.09	3262.41
531.28	3194.83
531.48	3573.71
531.68	3061.71
531.88	3110.86
532.08	3434.44
532.28	3184.59
532.47	3205.07
532.67	3166.16
532.87	3401.68
533.07	3053.52
533.27	3016.66
533.46	3135.44
533.66	3315.66
533.86	3282.89
534.06	3104.72
534.26	3076.05
534.45	3213.26
534.65	3516.36
534.85	3188.69
535.05	2953.17
535.25	3493.83
535.44	2922.45
535.64	3157.97
535.84	3082.19
536.04	3205.07
536.24	3151.82
536.43	3026.90
536.63	3063.76
536.83	3233.74
537.03	3239.89
537.22	2858.96
537.42	2899.92
537.62	3327.95
537.82	3098.58
538.02	3237.84
538.21	3114.96
538.41	3850.18
538.61	3401.68
538.81	3098.58
539.00	3211.22
539.20	2987.99
539.40	3219.41
539.60	3076.05
539.79	3330.00
539.99	3338.19
540.19	3092.43
540.39	3080.14
540.58	3090.38
540.78	3473.36
540.98	3284.94
541.18	3291.09
541.37	3141.58
541.57	3282.89
541.77	3266.51
541.97	3000.27
542.16	2926.55
542.36	3237.84
542.56	3155.92
542.76	3235.79
542.95	3164.11
543.15	3348.43
543.35	3475.40
543.54	3078.10
543.74	2979.79
543.94	3518.41
544.14	3166.16
544.33	3188.69
544.53	3092.43
544.73	3270.61
544.93	3139.54
545.12	3057.62
545.32	3033.04
545.52	3198.93
545.71	3106.77
545.91	3104.72
546.11	2953.17
546.30	3106.77
546.50	3188.69
546.70	3106.77
546.90	3053.52
547.09	2861.01
547.29	3274.70
547.49	3190.74
547.68	3092.43
547.88	3090.38
548.08	3442.64
548.27	3432.40
548.47	3020.75
548.67	3205.07
548.87	3401.68
549.06	3016.66
549.26	2936.79
549.46	3291.09
549.65	3166.16
549.85	3078.10
550.05	3051.47
550.24	3129.30
550.44	3311.57
550.64	3149.78
550.83	3065.81
551.03	3567.56
551.23	3387.34
551.42	3131.34
551.62	3188.69
551.82	3258.32
552.01	3166.16
552.21	3305.42
552.41	3112.91
552.60	3545.03
552.80	3338.19
553.00	3047.38
553.19	3053.52
553.39	3612.62
553.59	3051.47
553.78	3205.07
553.98	2994.13
554.17	3018.71
554.37	3305.42
554.57	3106.77
554.76	2899.92
554.96	3235.79
555.16	3262.41
555.35	3186.64
555.55	3332.05
555.75	3311.57
555.94	3413.96
556.14	2873.30
556.33	3067.86
556.53	3217.36
556.73	3246.03
556.92	3069.91
557.12	2981.84
557.32	3739.59
557.51	3637.19
557.71	3098.58
557.90	3192.78
558.10	3493.83
558.30	3229.65
558.49	3086.29
558.69	3065.81
558.88	3358.67
559.08	3336.14
559.28	3082.19
559.47	3155.92
559.67	3413.96
559.86	3633.10
560.06	3106.77
560.26	3049.43
560.45	3418.06
560.65	3203.02
560.84	3401.68
561.04	2967.51
561.24	3424.20
561.43	3049.43
561.63	3291.09
561.82	3164.11
562.02	3375.05
562.22	3182.54
562.41	2983.89
562.61	3012.56
562.80	3063.76
563.00	3719.11
563.19	3127.25
563.39	3200.98
563.59	3389.39
563.78	3117.01
563.98	2863.06
564.17	3098.58
564.37	2965.46
564.56	3258.32
564.76	2973.65
564.96	3131.34
565.15	3315.66
565.35	3733.45
565.54	3065.81
565.74	3090.38
565.93	3401.68
566.13	3237.84
566.32	3121.10
566.52	3119.06
566.71	3258.32
566.91	3352.52
567.11	3205.07
567.30	2916.31
567.50	3370.96
567.69	3370.96
567.89	3063.76
568.08	2904.02
568.28	3274.70
568.47	3084.24
568.67	3164.11
568.86	3008.47
569.06	3450.83
569.25	3176.40
569.45	2854.87
569.64	3047.38
569.84	3166.16
570.04	3299.28
570.23	3045.33
570.43	3080.14
570.62	3313.61
570.82	3653.58
571.01	2918.36
571.21	3037.14
571.40	3057.62
571.60	3338.19
571.79	3098.58
571.99	3084.24
572.18	3047.38
572.38	3323.85
572.57	3164.11
572.77	3102.67
572.96	3876.80
573.16	3346.38
573.35	3092.43
573.55	3231.69
573.74	3266.51
573.94	3272.65
574.13	3074.00
574.33	3239.89
574.52	3516.36
574.71	3264.46
574.91	3172.30
575.10	2936.79
575.30	3231.69
575.49	3117.01
575.69	3016.66
575.88	3106.77
576.08	3274.70
576.27	3454.92
576.47	3016.66
576.66	3266.51
576.86	3592.14
577.05	3274.70
577.25	3149.78
577.44	3225.55
577.64	3188.69
577.83	3491.79
578.02	3074.00
578.22	3223.50
578.41	3585.99
578.61	3313.61
578.80	2904.02
579.00	3090.38
579.19	3256.27
579.39	3348.43
579.58	3160.02
579.77	3100.62
579.97	3495.88
580.16	3358.67
580.36	3213.26
580.55	3164.11
580.75	3327.95
580.94	3321.81
581.13	3198.93
581.33	3325.90
581.52	3172.30
581.72	3618.76
581.91	3186.64
582.11	3008.47
582.30	3375.05
582.49	3385.29
582.69	3352.52
582.88	3151.82
583.08	3344.33
583.27	3479.50
583.47	3211.22
583.66	3049.43
583.85	3155.92
584.05	3303.37
584.24	3280.85
584.44	3147.73
584.63	3491.79
584.82	3549.13
585.02	3397.58
585.21	3258.32
585.41	3368.91
585.60	3286.99
585.79	3276.75
585.99	3403.72
586.18	3389.39
586.37	4157.38
586.57	6340.51
586.76	17946.35
586.96	37561.79
587.15	51168.50
587.34	59589.75
587.54	63853.62
587.73	56984.73
587.93	41342.35
588.12	31524.38
588.31	25833.08
588.51	22855.33
588.70	21155.52
588.89	18837.22
589.09	15922.96
589.28	13913.90
589.47	10964.82
589.67	8288.13
589.86	6530.97
590.06	5132.21
590.25	4499.39
590.44	3778.50
590.64	3508.17
590.83	3616.71
591.02	3510.22
591.22	3119.06
591.41	3213.26
591.60	3217.36
591.80	3762.12
591.99	2916.31
592.18	3035.09
592.38	3514.31
592.57	3217.36
592.76	3117.01
592.96	3143.63
593.15	3270.61
593.34	3508.17
593.54	3049.43
593.73	3196.88
593.92	3364.81
594.12	3383.24
594.31	3094.48
594.50	3295.18
594.70	3409.87
594.89	3870.66
595.08	3002.32
595.28	3254.22
595.47	3852.23
595.66	3545.03
595.86	2969.55
596.05	2981.84
596.24	3182.54
596.43	3663.82
596.63	3145.68
596.82	3254.22
597.01	3391.44
597.21	3682.25
597.40	3078.10
597.59	3182.54
597.79	3321.81
597.98	3383.24
598.17	3174.35
598.36	3114.96
598.56	3551.18
598.75	3198.93
598.94	3131.34
599.14	3129.30
599.33	3254.22
599.52	3377.10
599.71	3131.34
599.91	3123.15
600.10	3403.72
600.29	3319.76
600.48	3100.62
600.68	3248.08
600.87	3338.19
601.06	3182.54
601.26	3233.74
601.45	3196.88
601.64	3246.03
601.83	3583.95
602.03	2942.93
602.22	2957.27
602.41	3606.47
602.60	3747.78
602.80	3092.43
602.99	3194.83
603.18	3110.86
603.37	3405.77
603.57	3041.23
603.76	3102.67
603.95	3540.94
604.14	3139.54
604.34	2965.46
604.53	2953.17
604.72	3243.98
604.91	3504.07
605.10	3016.66
605.30	2926.55
605.49	3708.87
605.68	3454.92
605.87	3055.57
606.07	2998.23
606.26	3364.81
606.45	3393.48
606.64	3110.86
606.84	2955.22
607.03	3305.42
607.22	3428.30
607.41	3196.88
607.60	3074.00
607.80	3405.77
607.99	3266.51
608.18	3180.50
608.37	3098.58
608.56	3147.73
608.76	3530.70
608.95	3280.85
609.14	3020.75
609.33	3561.42
609.52	3592.14
609.72	3192.78
609.91	3278.80
610.10	3311.57
610.29	3555.27
610.48	3227.60
610.68	3196.88
610.87	3223.50
611.06	3426.25
611.25	3139.54
611.44	3227.60
611.63	3155.92
611.83	3526.60
612.02	2887.64
612.21	3219.41
612.40	2977.75
612.59	3129.30
612.79	2963.41
612.98	3178.45
613.17	3672.01
613.36	3274.70
613.55	3313.61
613.74	3047.38
613.93	3348.43
614.13	3432.40
614.32	3266.51
614.51	3129.30
614.70	3278.80
614.89	3272.65
615.08	3262.41
615.28	3440.59
615.47	3100.62
615.66	3399.63
615.85	3147.73
616.04	3153.87
616.23	3303.37
616.42	3360.72
616.62	3049.43
616.81	3147.73
617.00	3342.28
617.19	3373.00
617.38	3106.77
617.57	3178.45
617.76	3426.25
617.95	3487.69
618.15	3248.08
618.34	3282.89
618.53	2975.70
618.72	3475.40
618.91	3166.16
619.10	3143.63
619.29	3268.56
619.48	3219.41
619.68	3004.37
619.87	2992.08
620.06	3026.90
620.25	3399.63
620.44	3004.37
620.63	3041.23
620.82	3364.81
621.01	3276.75
621.20	3100.62
621.39	3100.62
621.59	3338.19
621.78	3278.80
621.97	3100.62
622.16	3217.36
622.35	3340.24
622.54	3536.84
622.73	3205.07
622.92	2832.34
623.11	3461.07
623.30	3264.46
623.49	3180.50
623.68	2965.46
623.88	3565.51
624.07	3112.91
624.26	2928.60
624.45	3096.53
624.64	3190.74
624.83	3297.23
625.02	3033.04
625.21	3082.19
625.40	3321.81
625.59	3583.95
625.78	3174.35
625.97	3180.50
626.16	3459.02
626.35	3567.56
626.54	3137.49
626.74	3233.74
626.93	3241.93
627.12	3221.45
627.31	3203.02
627.50	3157.97
627.69	3368.91
627.88	3043.28
628.07	3010.51
628.26	3014.61
628.45	3119.06
628.64	3086.29
628.83	3108.82
629.02	2975.70
629.21	3403.72
629.40	3368.91
629.59	3010.51
629.78	3102.67
629.97	3250.13
630.16	3381.20
630.35	3086.29
630.54	3135.44
630.73	3200.98
630.92	3297.23
631.11	3049.43
631.30	3135.44
631.49	3424.20
631.68	3311.57
631.87	3119.06
632.06	2998.23
632.25	3737.54
632.44	3260.37
632.63	3119.06
632.82	3084.24
633.01	3168.21
633.20	3397.58
633.39	3127.25
633.58	2879.44
633.77	3303.37
633.96	3401.68
634.15	3262.41
634.34	3205.07
634.53	3362.76
634.72	3151.82
634.91	2836.44
635.10	3129.30
635.29	3424.20
635.48	3348.43
635.67	2938.84
635.86	2944.98
636.05	3598.28
636.24	3284.94
636.43	3024.85
636.62	3186.64
636.81	2736.09
637.00	3354.57
637.19	3092.43
637.38	3049.43
637.57	3219.41
637.76	3354.57
637.95	3315.66
638.14	3213.26
638.33	3332.05
638.52	3370.96
638.71	2996.18
638.89	2963.41
639.08	3882.95
639.27	3514.31
639.46	3346.38
639.65	3717.06
639.84	3897.28
640.03	4048.83
640.22	3657.67
640.41	3602.38
640.60	3389.39
640.79	3549.13
640.98	3276.75
641.17	3330.00
641.36	3516.36
641.55	3516.36
641.74	2967.51
641.92	2940.88
642.11	3088.34
642.30	3196.88
642.49	2910.16
642.68	3022.80
642.87	3416.01
643.06	3411.92
643.25	2936.79
643.44	3041.23
643.63	3205.07
643.82	3293.13
644.00	2938.84
644.19	3100.62
644.38	3071.95
644.57	3373.00
644.76	3041.23
644.95	3125.20
645.14	3336.14
645.33	3338.19
645.52	3104.72
645.71	2926.55
645.89	3092.43
646.08	3256.27
646.27	3049.43
646.46	3258.32
646.65	3020.75
646.84	3246.03
647.03	3022.80
647.22	3221.45
647.40	3291.09
647.59	3162.06
647.78	2904.02
647.97	3020.75
648.16	3028.95
648.35	3526.60
648.54	3311.57
648.73	3143.63
648.91	3385.29
649.10	3338.19
649.29	3030.99
649.48	3067.86
649.67	3426.25
649.86	3307.47
650.05	3108.82
650.23	3250.13
650.42	3223.50
650.61	3676.10
650.80	3291.09
650.99	3330.00
651.18	3487.69
651.36	3440.59
651.55	2983.89
651.74	3248.08
651.93	3180.50
652.12	3303.37
652.31	3090.38
652.49	3135.44
652.68	3219.41
652.87	3530.70
653.06	3231.69
653.25	3350.48
653.44	3319.76
653.62	3704.78
653.81	3055.57
654.00	3162.06
654.19	3383.24
654.38	3721.16
654.56	3178.45
654.75	3033.04
654.94	3434.44
655.13	3344.33
655.32	3000.27
655.51	3207.12
655.69	3262.41
655.88	3442.64
656.07	2863.06
656.26	3092.43
656.45	3002.32
656.63	3311.57
656.82	3100.62
657.01	3379.15
657.20	3129.30
657.38	3504.07
657.57	3086.29
657.76	2990.03
657.95	3413.96
658.14	3176.40
658.32	3235.79
658.51	2938.84
658.70	3313.61
658.89	3303.37
659.08	3133.39
659.26	3270.61
659.45	3092.43
659.64	3258.32
659.83	3059.67
660.01	3483.59
660.20	3319.76
660.39	3690.44
660.58	2820.05
660.76	3164.11
660.95	2973.65
661.14	3248.08
661.33	2922.45
661.51	3063.76
661.70	3155.92
661.89	3301.33
662.08	3121.10
662.26	2904.02
662.45	3088.34
662.64	3647.43
662.83	3125.20
663.01	3024.85
663.20	3194.83
663.39	3645.38
663.58	3035.09
663.76	3065.81
663.95	3373.00
664.14	3135.44
664.32	3186.64
664.51	2975.70
664.70	2981.84
664.89	3291.09
665.07	2934.74
665.26	3266.51
665.45	3051.47
665.64	3397.58
665.82	3123.15
666.01	3205.07
666.20	3051.47
666.38	3438.54
666.57	3483.59
666.76	5650.35
666.95	13125.43
667.13	20543.17
667.32	25179.78
667.51	28261.97
667.69	29199.94
667.88	24352.40
668.07	17549.04
668.25	14952.22
668.44	12955.45
668.63	11222.87
668.81	9826.15
669.00	8439.68
669.19	7651.21
669.38	6729.63
669.56	5803.94
669.75	5003.19
669.94	4433.85
670.12	3848.13
670.31	3434.44
670.50	3485.64
670.68	3483.59
670.87	3424.20
671.06	3045.33
671.24	3229.65
671.43	3602.38
671.62	3368.91
671.80	3090.38
671.99	3217.36
672.18	3311.57
672.36	3446.73
672.55	3200.98
672.74	3180.50
672.92	3219.41
673.11	3514.31
673.29	2881.49
673.48	3209.17
673.67	3250.13
673.85	3422.16
674.04	3010.51
674.23	3213.26
674.41	3655.62
674.60	3024.85
674.79	2865.11
674.97	2934.74
675.16	3395.53
675.34	3491.79
675.53	3074.00
675.72	3065.81
675.90	3676.10
676.09	3233.74
676.28	3153.87
676.46	2869.20
676.65	3405.77
676.83	3127.25
677.02	3110.86
677.21	3092.43
677.39	3280.85
677.58	3137.49
677.77	3078.10
677.95	2967.51
678.14	3282.89
678.32	3180.50
678.51	3129.30
678.70	3381.20
678.88	3160.02
679.07	3274.70
679.25	3104.72
679.44	3117.01
679.63	3043.28
679.81	3225.55
680.00	3305.42
680.18	3198.93
680.37	3606.47
680.55	3330.00
680.74	2940.88
680.93	2836.44
681.11	3354.57
681.30	3272.65
681.48	3131.34
681.67	3137.49
681.85	3194.83
682.04	3098.58
682.23	3172.30
682.41	3237.84
682.60	3266.51
682.78	3149.78
682.97	2955.22
683.15	3155.92
683.34	3278.80
683.53	3577.80
683.71	3010.51
683.90	3086.29
684.08	3667.91
684.27	3104.72
684.45	3055.57
684.64	3274.70
684.82	3342.28
685.01	3303.37
685.19	3076.05
685.38	3401.68
685.57	3258.32
685.75	3178.45
685.94	2994.13
686.12	3028.95
686.31	3117.01
686.49	3663.82
686.68	2822.10
686.86	3053.52
687.05	3262.41
687.23	3583.95
687.42	3145.68
687.60	2957.27
687.79	3467.21
687.97	3612.62
688.16	3205.07
688.34	3315.66
688.53	2889.68
688.71	3377.10
688.90	3454.92
689.08	3055.57
689.27	2928.60
689.45	3416.01
689.64	3303.37
689.82	3149.78
690.01	3270.61
690.19	3381.20
690.38	3059.67
690.56	3145.68
690.75	3086.29
690.93	3127.25
691.12	2987.99
691.30	3125.20
691.49	3084.24
691.67	3250.13
691.86	3479.50
692.04	3123.15
692.23	3209.17
692.41	3295.18
692.60	3428.30
692.78	3272.65
692.97	3303.37
693.15	3418.06
693.34	3264.46
693.52	3303.37
693.71	3131.34
693.89	3248.08
694.08	2961.36
694.26	3172.30
694.44	3401.68
694.63	3395.53
694.81	2971.60
695.00	3114.96
695.18	3489.74
695.37	3782.60
695.55	3278.80
695.74	3174.35
695.92	3149.78
696.10	3532.75
696.29	2908.12
696.47	3071.95
696.66	3057.62
696.84	3039.19
697.03	3117.01
697.21	3270.61
697.40	4632.51
697.58	3545.03
697.76	3106.77
697.95	3094.48
698.13	3078.10
698.32	3209.17
698.50	3098.58
698.68	3125.20
698.87	3286.99
699.05	3571.66
699.24	3047.38
699.42	3045.33
699.61	3368.91
699.79	3221.45
699.97	3139.54
700.16	2953.17
700.34	3059.67
700.53	3278.80
700.71	3340.24
700.89	3258.32
701.08	3221.45
701.26	3188.69
701.45	3381.20
701.63	3039.19
701.81	3166.16
702.00	3104.72
702.18	3198.93
702.37	3059.67
702.55	3626.95
702.73	3360.72
702.92	3106.77
703.10	3459.02
703.28	3567.56
703.47	3030.99
703.65	3360.72
703.84	3266.51
704.02	3229.65
704.20	3631.05
704.39	3094.48
704.57	3071.95
704.75	3426.25
704.94	3420.11
705.12	3295.18
705.30	3952.58
705.49	8710.01
705.67	17178.36
705.86	23774.87
706.04	26814.05
706.22	30131.76
706.41	28716.62
706.59	21548.73
706.77	16799.49
706.96	14460.71
707.14	13252.41
707.32	11321.17
707.51	9879.40
707.69	7985.03
707.87	6739.87
708.06	5365.68
708.24	4503.48
708.42	4095.94
708.61	4173.76
708.79	3313.61
708.97	3295.18
709.16	3434.44
709.34	3344.33
709.52	3078.10
709.71	3125.20
709.89	3403.72
710.07	3114.96
710.26	2928.60
710.44	3155.92
710.62	3434.44
710.80	3370.96
710.99	3182.54
711.17	3243.98
711.35	3133.39
711.54	3157.97
711.72	3319.76
711.90	3147.73
712.09	3360.72
712.27	3258.32
712.45	3215.31
712.63	3139.54
712.82	3352.52
713.00	3231.69
713.18	3180.50
713.37	3336.14
713.55	3416.01
713.73	3373.00
713.91	3178.45
714.10	3035.09
714.28	3286.99
714.46	3286.99
714.65	3225.55
714.83	3178.45
715.01	3260.37
715.19	3243.98
715.38	3098.58
715.56	3291.09
715.74	3157.97
715.92	3184.59
716.11	3397.58
716.29	2885.59
716.47	3260.37
716.65	3286.99
716.84	2916.31
717.02	3119.06
717.20	2928.60
717.38	3074.00
717.57	3243.98
717.75	3096.53
717.93	3178.45
718.11	3346.38
718.30	3012.56
718.48	3125.20
718.66	3542.99
718.84	3510.22
719.03	3123.15
719.21	2953.17
719.39	3620.81
719.57	3368.91
719.75	3123.15
719.94	3028.95
720.12	3155.92
720.30	3307.47
720.48	3160.02
720.67	3139.54
720.85	3131.34
721.03	3117.01
721.21	3090.38
721.39	3190.74
721.58	3346.38
721.76	3284.94
721.94	3102.67
722.12	3270.61
722.30	3622.86
722.49	3188.69
722.67	3094.48
722.85	3110.86
723.03	3012.56
723.21	3157.97
723.40	3170.26
723.58	3291.09
723.76	3393.48
723.94	3590.09
724.12	3071.95
724.30	3344.33
724.49	3467.21
724.67	3125.20
724.85	3172.30
725.03	2965.46
725.21	3389.39
725.40	3581.90
725.58	3078.10
725.76	3258.32
725.94	3297.23
726.12	3076.05
726.30	3207.12
726.49	3106.77
726.67	3172.30
726.85	3489.74
727.03	3999.68
727.21	5562.28
727.39	7157.65
727.57	7903.11
727.76	8435.58
727.94	8527.74
728.12	7239.57
728.30	6000.55
728.48	5556.14
728.66	5093.30
728.84	4773.82
729.03	4274.11
729.21	3823.56
729.39	3516.36
729.57	3438.54
729.75	3377.10
729.93	3368.91
730.11	3043.28
730.30	3166.16
730.48	3223.50
730.66	3190.74
730.84	3121.10
731.02	3286.99
731.20	3182.54
731.38	3162.06
731.56	3018.71
731.74	2987.99
731.93	3346.38
732.11	3250.13
732.29	3098.58
732.47	3416.01
732.65	3286.99
732.83	3291.09
733.01	3221.45
733.19	3198.93
733.37	3377.10
733.56	3143.63
733.74	2994.13
733.92	3518.41
734.10	3231.69
734.28	3284.94
734.46	2947.03
734.64	3225.55
734.82	3180.50
735.00	3098.58
735.18	3102.67
735.36	3311.57
735.54	3196.88
735.73	3090.38
735.91	3141.58
736.09	3520.46
736.27	3274.70
736.45	3196.88
736.63	2848.72
736.81	3131.34
736.99	3518.41
737.17	3340.24
737.35	3037.14
737.53	3401.68
737.71	3221.45
737.89	3200.98
738.07	3024.85
738.25	3041.23
738.43	3014.61
738.61	3041.23
738.80	2994.13
738.98	3082.19
739.16	3133.39
739.34	3035.09
739.52	3354.57
739.70	3243.98
739.88	3401.68
740.06	3139.54
740.24	2904.02
740.42	3483.59
740.60	2904.02
740.78	3063.76
740.96	2832.34
741.14	3235.79
741.32	3246.03
741.50	2944.98
741.68	3368.91
741.86	3604.42
742.04	3045.33
742.22	2961.36
742.40	3084.24
742.58	3485.64
742.76	3157.97
742.94	3264.46
743.12	2979.79
743.30	3254.22
743.48	3571.66
743.66	3037.14
743.84	3139.54
744.02	3229.65
744.20	3291.09
744.38	2992.08
744.56	3022.80
744.74	3665.86
744.92	3342.28
745.10	3344.33
745.28	3194.83
745.46	3583.95
745.64	3223.50
745.82	3182.54
746.00	3067.86
746.18	3442.64
746.36	3141.58
746.54	3164.11
746.72	3094.48
746.90	3094.48
747.08	3520.46
747.26	3026.90
747.44	3250.13
747.62	3426.25
747.80	3352.52
747.98	3250.13
748.15	2992.08
748.33	3553.23
748.51	3254.22
748.69	3246.03
748.87	3033.04
749.05	3215.31
749.23	3319.76
749.41	3049.43
749.59	3010.51
749.77	3465.16
749.95	3135.44
750.13	3026.90
750.31	3196.88
750.49	3321.81
750.67	3463.12
750.85	3268.56
751.03	3090.38
751.20	3758.02
751.38	3348.43
751.56	3160.02
751.74	3186.64
751.92	3229.65
752.10	3067.86
752.28	3280.85
752.46	3104.72
752.64	3207.12
752.82	3373.00
753.00	3170.26
753.18	3090.38
753.35	3205.07
753.53	3172.30
753.71	2953.17
753.89	3162.06
754.07	3235.79
754.25	3463.12
754.43	3286.99
754.61	3051.47
754.79	3344.33
754.97	3297.23
755.14	3254.22
755.32	2924.50
755.50	3254.22
755.68	3313.61
755.86	3024.85
756.04	3098.58
756.22	2873.30
756.40	3338.19
756.57	3268.56
756.75	3076.05
756.93	3401.68
757.11	3463.12
757.29	2979.79
757.47	3041.23
757.65	3004.37
757.82	2852.82
758.00	3035.09
758.18	3086.29
758.36	3063.76
758.54	3706.82
758.72	2906.07
758.90	3235.79
759.07	3416.01
759.25	3061.71
759.43	3209.17
759.61	2979.79
759.79	4532.15
759.97	3452.88
760.15	3155.92
760.32	3131.34
760.50	3368.91
760.68	3600.33
760.86	2987.99
761.04	3321.81
761.22	3493.83
761.39	3340.24
761.57	3178.45
761.75	3061.71
761.93	3481.55
762.11	3254.22
762.28	3153.87
762.46	3065.81
762.64	3391.44
762.82	3129.30
763.00	3061.71
763.18	3274.70
763.35	3012.56
763.53	3348.43
763.71	3205.07
763.89	3074.00
764.07	3225.55
764.24	3293.13
764.42	3205.07
764.60	3076.05
764.78	3338.19
764.96	3360.72
765.13	3284.94
765.31	3008.47
765.49	3452.88
765.67	3174.35
765.84	3016.66
766.02	2992.08
766.20	3018.71
766.38	3370.96
766.56	3200.98
766.73	3227.60
766.91	3270.61
767.09	3317.71
767.27	3112.91
767.44	2951.12
767.62	3485.64
767.80	3352.52
767.98	3016.66
768.15	3063.76
768.33	3389.39
768.51	3411.92
768.69	3194.83
768.87	3028.95
769.04	3368.91
769.22	3866.56
769.40	3225.55
769.58	3262.41
769.75	3340.24
769.93	3438.54
770.11	3098.58
770.28	2961.36
770.46	3430.35
770.64	3395.53
770.82	3082.19
770.99	3084.24
771.17	3452.88
771.35	3139.54
771.53	3112.91
771.70	3018.71
771.88	3424.20
772.06	3215.31
772.23	3020.75
772.41	3190.74
772.59	3268.56
772.77	3063.76
772.94	3098.58
773.12	3157.97
773.30	3170.26
773.47	3278.80
773.65	2971.60
773.83	3330.00
774.01	3241.93
774.18	2901.97
774.36	3104.72
774.54	2895.83
774.71	3309.52
774.89	2963.41
775.07	2949.08
775.24	3002.32
775.42	3172.30
775.60	3690.44
775.78	3002.32
775.95	3006.42
776.13	2926.55
776.31	2912.21
776.48	3237.84
776.66	3260.37
776.84	3172.30
777.01	3039.19
777.19	3035.09
777.37	3100.62
777.54	3401.68
777.72	3694.54
777.90	3188.69
778.07	3080.14
778.25	3942.34
778.43	3428.30
778.60	3008.47
778.78	3147.73
778.96	3559.37
779.13	3008.47
779.31	3110.86
779.49	3151.82
779.66	3354.57
779.84	3227.60
780.01	3022.80
780.19	2971.60
780.37	3557.32
780.54	3307.47
780.72	2893.78
780.90	3108.82
781.07	3237.84
781.25	3108.82
781.43	3280.85
781.60	3063.76
781.78	3528.65
781.95	3295.18
782.13	3067.86
782.31	3051.47
782.48	3041.23
782.66	3213.26
782.83	3260.37
783.01	3254.22
783.19	3409.87
783.36	3266.51
783.54	2947.03
783.72	3188.69
783.89	3147.73
784.07	3448.78
784.24	3221.45
784.42	3239.89
784.60	3336.14
784.77	3336.14
784.95	2803.67
785.12	3045.33
785.30	3319.76
785.47	3024.85
785.65	3026.90
785.83	3039.19
786.00	3157.97
786.18	3313.61
786.35	2981.84
786.53	3033.04
786.71	3512.27
786.88	3409.87
787.06	3192.78
787.23	3069.91
787.41	2951.12
787.58	3248.08
787.76	3049.43
787.94	3024.85
788.11	3354.57
788.29	3030.99
788.46	3067.86
788.64	2844.63
788.81	3205.07
788.99	3022.80
789.16	3035.09
789.34	3106.77
789.52	3198.93
789.69	3172.30
789.87	2895.83
790.04	3063.76
790.22	3356.62
790.39	3631.05
790.57	2959.31
790.74	3086.29
790.92	3383.24
791.09	2965.46
791.27	3160.02
791.44	3178.45
791.62	3207.12
791.79	3370.96
791.97	3153.87
792.15	3491.79
792.32	3426.25
792.50	3393.48
792.67	3289.04
792.85	3393.48
793.02	3272.65
793.20	3139.54
793.37	3000.27
793.55	3000.27
793.72	3055.57
793.90	3389.39
794.07	3039.19
794.25	2942.93
794.42	3334.09
794.60	3241.93
794.77	3198.93
794.95	3207.12
795.12	3356.62
795.30	3174.35
795.47	2918.36
795.65	3375.05
795.82	3250.13
796.00	3059.67
796.17	3143.63
796.34	2942.93
796.52	3295.18
796.69	3364.81
796.87	3147.73
797.04	3192.78
797.22	3370.96
797.39	3311.57
797.57	3278.80
797.74	3123.15
797.92	3301.33
798.09	3131.34
798.27	3350.48
798.44	3035.09
798.62	3108.82
798.79	3303.37
798.96	3286.99
799.14	3043.28
799.31	3784.65
799.49	3166.16
799.66	3024.85
799.84	3088.34
800.01	2934.74
800.19	3291.09
800.36	2869.20
800.53	3098.58
800.71	3280.85
800.88	3479.50
801.06	3033.04
801.23	3084.24
801.41	3209.17
801.58	3166.16
801.75	3028.95
801.93	3131.34
802.10	3434.44
802.28	3282.89
802.45	3074.00
802.63	3196.88
802.80	3563.47
802.97	3235.79
803.15	3082.19
803.32	2996.18
803.50	3200.98
803.67	3139.54
803.84	3090.38
804.02	3192.78
804.19	3188.69
804.37	2850.77
804.54	2910.16
804.71	3035.09
804.89	3241.93
805.06	3102.67
805.24	2975.70
805.41	2842.58
805.58	3135.44
805.76	3743.69
805.93	3045.33
806.10	3207.12
806.28	3418.06
806.45	3291.09
806.63	3160.02
806.80	3160.02
806.97	3352.52
807.15	3373.00
807.32	3176.40
807.49	3139.54
807.67	3012.56
807.84	3325.90
808.01	2881.49
808.19	3264.46
808.36	3622.86
808.54	3090.38
808.71	3117.01
808.88	3090.38
809.06	3516.36
809.23	3629.00
809.40	3037.14
809.58	3039.19
809.75	3354.57
809.92	2963.41
810.10	3321.81
810.27	3047.38
810.44	3315.66
810.62	3342.28
810.79	2998.23
810.96	3071.95
811.14	3133.39
811.31	3381.20
811.48	3221.45
811.66	3141.58
811.83	3438.54
812.00	3336.14
812.18	3262.41
812.35	3356.62
812.52	3209.17
812.69	3207.12
812.87	3028.95
813.04	2987.99
813.21	3215.31
813.39	3071.95
813.56	2996.18
813.73	3295.18
813.91	2940.88
814.08	3213.26
814.25	3022.80
814.42	2957.27
814.60	3184.59
814.77	3303.37
814.94	3043.28
815.12	3184.59
815.29	3536.84
815.46	3147.73
815.63	3055.57
815.81	3112.91
815.98	3151.82
816.15	3213.26
816.33	3168.21
816.50	3061.71
816.67	3272.65
816.84	3194.83
817.02	2965.46
817.19	3082.19
817.36	3348.43
817.53	3356.62
817.71	2967.51
817.88	3082.19
818.05	3299.28
818.22	3172.30
818.40	3297.23
818.57	3055.57
818.74	3229.65
818.91	3338.19
819.09	3166.16
819.26	3082.19
819.43	3155.92
819.60	3200.98
819.78	3307.47
819.95	3164.11
820.12	3141.58
820.29	3516.36
820.47	3358.67
820.64	2961.36
820.81	2985.94
820.98	3166.16
821.15	3104.72
821.33	3233.74
821.50	2971.60
821.67	3254.22
821.84	3090.38
822.02	3086.29
822.19	3364.81
822.36	3135.44
822.53	3067.86
822.70	3024.85
822.88	3164.11
823.05	3506.12
823.22	3176.40
823.39	3098.58
823.56	3274.70
823.74	3604.42
823.91	2990.03
824.08	2983.89
824.25	3117.01
824.42	3491.79
824.60	2881.49
824.77	3139.54
824.94	3174.35
825.11	3307.47
825.28	2985.94
825.45	3155.92
825.63	3307.47
825.80	3153.87
825.97	3182.54
826.14	3129.30
826.31	2914.26
826.48	3368.91
826.66	3035.09
826.83	3018.71
827.00	3260.37
827.17	3094.48
827.34	3143.63
827.51	3057.62
827.69	3194.83
827.86	2854.87
828.03	3127.25
828.20	3090.38
828.37	3147.73
828.54	3387.34
828.71	3000.27
828.89	3227.60
829.06	3254.22
829.23	3534.79
829.40	3090.38
829.57	3049.43
829.74	3428.30
829.91	3125.20
830.09	2985.94
830.26	3231.69
830.43	3538.89
830.60	3252.17
830.77	3157.97
830.94	3227.60
831.11	3430.35
831.28	3155.92
831.46	3137.49
831.63	3010.51
831.80	3411.92
831.97	3127.25
832.14	3094.48
832.31	3198.93
832.48	3313.61
832.65	3395.53
832.82	3233.74
832.99	3119.06
833.17	2990.03
833.34	3557.32
833.51	3094.48
833.68	2863.06
833.85	3454.92
834.02	3076.05
834.19	3000.27
834.36	3059.67
834.53	3346.38
834.70	3487.69
834.87	3082.19
835.04	2832.34
835.22	3114.96
835.39	3229.65
835.56	2885.59
835.73	2951.12
835.90	3422.16
836.07	3135.44
836.24	3006.42
836.41	2910.16
836.58	3135.44
836.75	3450.83
836.92	2961.36
837.09	2895.83
837.26	3407.82
837.43	3303.37
837.60	2928.60
837.77	2979.79
837.94	3553.23
838.12	3436.49
838.29	2826.20
838.46	2867.16
838.63	3033.04
838.80	3522.51
838.97	2949.08
839.14	2852.82
839.31	3297.23
839.48	3280.85
839.65	2965.46
839.82	2992.08
839.99	3342.28
840.16	3215.31
840.33	2809.81
840.50	2924.50
840.67	3108.82
840.84	2789.33
841.01	2844.63
841.18	2846.68
841.35	3293.13
841.52	3393.48
841.69	3246.03
841.86	2949.08
842.03	3286.99
842.20	3438.54
842.37	2844.63
842.54	3022.80
842.71	3248.08
842.88	2942.93
843.05	2944.98
843.22	2840.53
843.39	3450.83
843.56	3188.69
843.73	2926.55
843.90	2930.64
844.07	3278.80
844.24	3432.40
844.41	3028.95
844.58	3020.75
844.75	3270.61
844.92	3350.48
845.09	2977.75
845.26	2873.30
845.43	3368.91
845.60	3221.45
845.77	3123.15
845.94	3047.38
846.10	3456.97
846.27	2998.23
846.44	2756.57
846.61	2799.57
846.78	3411.92
846.95	3456.97
847.12	2846.68
847.29	2922.45
847.46	3190.74
847.63	3395.53
847.80	2842.58
847.97	2961.36
848.14	3706.82
848.31	3264.46
848.48	2793.43
848.65	2916.31
848.82	3102.67
848.98	3876.80
849.15	3069.91
849.32	3016.66
849.49	3516.36
849.66	3229.65
849.83	2842.58
850.00	2873.30
850.17	3440.59
850.34	3190.74
850.51	2901.97
850.68	2967.51
850.85	3690.44
851.01	3270.61
851.18	2856.92
851.35	2926.55
851.52	3362.76
851.69	3553.23
851.86	2830.29
852.03	2920.40
852.20	3442.64
852.37	3205.07
852.53	2805.72
852.70	2910.16
852.87	3330.00
853.04	3379.15
853.21	2889.68
853.38	3168.21
853.55	3545.03
853.72	3504.07
853.89	2809.81
854.05	2863.06
854.22	3176.40
854.39	3121.10
854.56	2858.96
854.73	3114.96
854.90	3094.48
855.07	3264.46
855.23	2832.34
855.40	2873.30
855.57	3155.92
855.74	2877.40
855.91	3078.10
856.08	2758.61
856.25	2961.36
856.41	3084.24
856.58	2932.69
856.75	2936.79
856.92	3112.91
857.09	3442.64
857.26	2758.61
857.42	2965.46
857.59	3344.33
857.76	3155.92
857.93	2920.40
858.10	2985.94
858.27	3004.37
858.43	3274.70
858.60	2981.84
858.77	2832.34
858.94	3104.72
859.11	3438.54
859.27	3067.86
859.44	2828.24
859.61	3672.01
859.78	3370.96
859.95	2920.40
860.12	2865.11
860.28	3639.24
860.45	3631.05
860.62	2783.19
860.79	3014.61
860.95	3237.84
861.12	3108.82
861.29	2844.63
861.46	2887.64
861.63	3198.93
861.79	3330.00
861.96	2828.24
862.13	2938.84
862.30	3499.98
862.47	3182.54
862.63	2828.24
862.80	2953.17
862.97	3418.06
863.14	3289.04
863.30	3000.27
863.47	2873.30
863.64	3583.95
863.81	3266.51
863.97	2758.61
864.14	3008.47
864.31	3239.89
864.48	3289.04
864.65	2891.73
864.81	3035.09
864.98	3352.52
865.15	3448.78
865.32	3037.14
865.48	2963.41
865.65	3598.28
865.82	3153.87
865.98	3006.42
866.15	2998.23
866.32	3241.93
866.49	3196.88
866.65	3067.86
866.82	2955.22
866.99	3295.18
867.16	3127.25
867.32	2990.03
867.49	2836.44
867.66	3307.47
867.83	3074.00
867.99	2858.96
868.16	2942.93
868.33	3098.58
868.49	3270.61
868.66	2891.73
868.83	3053.52
868.99	3239.89
869.16	3248.08
869.33	3074.00
869.50	2959.31
869.66	3266.51
869.83	3237.84
870.00	2947.03
870.16	3057.62
870.33	3176.40
870.50	3504.07
870.66	3035.09
870.83	2906.07
871.00	3303.37
871.17	3319.76
871.33	2914.26
871.50	2881.49
871.67	3196.88
871.83	2928.60
872.00	3100.62
872.17	2971.60
872.33	3669.96
872.50	3499.98
872.67	2944.98
872.83	2908.12
873.00	3401.68
873.17	3297.23
873.33	2969.55
873.50	2951.12
873.67	3080.14
873.83	3102.67
874.00	2959.31
874.16	2992.08
874.33	3346.38
874.50	3080.14
874.66	2846.68
874.83	3018.71
875.00	3454.92
875.16	3502.03
875.33	3008.47
875.50	2697.17
875.66	3129.30
875.83	3233.74
875.99	3055.57
876.16	3039.19
876.33	3035.09
876.49	3151.82
876.66	2949.08
876.83	2971.60
876.99	2983.89
877.16	3360.72
877.32	2838.48
877.49	2996.18
877.66	3340.24
877.82	3518.41
877.99	2985.94
878.15	3198.93
878.32	3266.51
878.49	3377.10
878.65	2951.12
878.82	3209.17
878.98	3157.97
879.15	3411.92
879.32	3119.06
879.48	3213.26
879.65	3196.88
879.81	3155.92
879.98	2987.99
880.15	3024.85
880.31	3413.96
880.48	3129.30
880.64	3094.48
880.81	3053.52
880.97	3665.86
881.14	3465.16
881.31	2854.87
881.47	3069.91
881.64	3209.17
881.80	2865.11
881.97	3071.95
882.13	2936.79
882.30	3018.71
882.47	3110.86
882.63	2963.41
882.80	2908.12
882.96	3172.30
883.13	3485.64
883.29	2955.22
883.46	2858.96
883.62	3651.53
883.79	3237.84
883.95	3117.01
884.12	2867.16
884.29	3432.40
884.45	3299.28
884.62	2875.35
884.78	2953.17
884.95	3667.91
885.11	3117.01
885.28	2996.18
885.44	2971.60
885.61	3368.91
885.77	3510.22
885.94	3162.06
886.10	2940.88
886.27	3309.52
886.43	3663.82
886.60	3184.59
886.76	2895.83
886.93	3071.95
887.09	3266.51
887.26	2799.57
887.42	2990.03
887.59	3456.97
887.75	3700.68
887.92	3137.49
888.08	3108.82
888.25	3706.82
888.41	3370.96
888.58	3033.04
888.74	2830.29
888.91	3125.20
>>>>>End Processed Spectral Data<<<<<
