SpectraSuite Data File
++++++++++++++++++++++++++++++++++++
Date: Fri May 06 08:13:42 CEST 2016
User: root
Dark Spectrum Present: No
Reference Spectrum Present: No
Number of Sampled Component Spectra: 1
Spectrometers: USB4C02835
Integration Time (usec): 100000 (USB4C02835)
Spectra Averaged: 1 (USB4C02835)
Boxcar Smoothing: 0 (USB4C02835)
Correct for Electrical Dark: No (USB4C02835)
Strobe/Lamp Enabled: No (USB4C02835)
Correct for Detector Non-linearity: No (USB4C02835)
Correct for Stray Light: No (USB4C02835)
Number of Pixels in Processed Spectrum: 3648
>>>>>Begin Processed Spectral Data<<<<<
177.47	2287.58
177.69	2287.58
177.91	2287.58
178.13	2299.87
178.36	2267.10
178.58	3020.75
178.80	3149.78
179.02	3008.47
179.24	3063.76
179.46	2826.20
179.68	2838.48
179.90	3178.45
180.13	3315.66
180.35	2652.12
180.57	2762.71
180.79	3387.34
181.01	3276.75
181.23	2881.49
181.45	3043.28
181.67	3436.49
181.90	3436.49
182.12	2998.23
182.34	2793.43
182.56	3315.66
182.78	3364.81
183.00	2861.01
183.22	2832.34
183.44	2852.82
183.66	3971.01
183.89	2938.84
184.11	2885.59
184.33	3426.25
184.55	3551.18
184.77	2828.24
184.99	2881.49
185.21	3250.13
185.43	3751.88
185.65	2918.36
185.87	2840.53
186.10	3846.09
186.32	3837.89
186.54	3045.33
186.76	2977.75
186.98	3483.59
187.20	3274.70
187.42	2916.31
187.64	2809.81
187.86	3395.53
188.08	3422.16
188.30	2768.85
188.52	2918.36
188.75	3610.57
188.97	3559.37
189.19	2871.25
189.41	2824.15
189.63	3338.19
189.85	3248.08
190.07	2766.81
190.29	2711.51
190.51	3401.68
190.73	3080.14
190.95	3117.01
191.17	2934.74
191.39	2979.79
191.61	3190.74
191.84	2916.31
192.06	3010.51
192.28	2961.36
192.50	3856.33
192.72	3010.51
192.94	2961.36
193.16	3600.33
193.38	3317.71
193.60	2750.42
193.82	3037.14
194.04	3338.19
194.26	3377.10
194.48	2846.68
194.70	2832.34
194.92	3297.23
195.14	3516.36
195.36	2861.01
195.58	2959.31
195.80	3270.61
196.02	3256.27
196.24	2809.81
196.46	2932.69
196.69	3180.50
196.91	3823.56
197.13	2826.20
197.35	2897.88
197.57	3563.47
197.79	3385.29
198.01	2987.99
198.23	2883.54
198.45	3399.63
198.67	3012.56
198.89	2754.52
199.11	3033.04
199.33	3200.98
199.55	2867.16
199.77	2781.14
199.99	2961.36
200.21	3227.60
200.43	3346.38
200.65	2695.13
200.87	2734.04
201.09	3198.93
201.31	3186.64
201.53	2885.59
201.75	2869.20
201.97	3393.48
202.19	3211.22
202.41	2918.36
202.63	3045.33
202.85	3389.39
203.07	3389.39
203.29	2930.64
203.51	2846.68
203.73	3176.40
203.95	3868.61
204.17	2840.53
204.39	3078.10
204.61	3235.79
204.83	3141.58
205.05	2983.89
205.27	2930.64
205.49	3889.09
205.71	3225.55
205.93	2729.94
206.15	2775.00
206.37	3311.57
206.59	3254.22
206.81	2705.37
207.03	2717.65
207.25	3164.11
207.47	3387.34
207.69	2844.63
207.91	3053.52
208.13	3594.19
208.34	3213.26
208.56	2901.97
208.78	2764.76
209.00	3196.88
209.22	3270.61
209.44	2947.03
209.66	2879.44
209.88	3305.42
210.10	3196.88
210.32	2861.01
210.54	2963.41
210.76	3106.77
210.98	3444.68
211.20	2684.89
211.42	2979.79
211.64	3502.03
211.86	3368.91
212.08	2955.22
212.30	2938.84
212.52	3278.80
212.74	3370.96
212.96	3000.27
213.17	2877.40
213.39	3452.88
213.61	3676.10
213.83	2789.33
214.05	2734.04
214.27	3495.88
214.49	3094.48
214.71	2840.53
214.93	2961.36
215.15	3348.43
215.37	3479.50
215.59	2744.28
215.81	2906.07
216.03	3497.93
216.24	3291.09
216.46	2897.88
216.68	2965.46
216.90	3413.96
217.12	3428.30
217.34	2828.24
217.56	3033.04
217.78	3594.19
218.00	3370.96
218.22	2916.31
218.44	3082.19
218.66	3291.09
218.87	3655.62
219.09	2906.07
219.31	2867.16
219.53	3463.12
219.75	3256.27
219.97	2932.69
220.19	2846.68
220.41	3190.74
220.63	3594.19
220.85	2836.44
221.06	2922.45
221.28	3624.90
221.50	3442.64
221.72	2824.15
221.94	2766.81
222.16	3309.52
222.38	3542.99
222.60	2895.83
222.82	2858.96
223.03	3444.68
223.25	3131.34
223.47	2854.87
223.69	3045.33
223.91	3487.69
224.13	3325.90
224.35	2764.76
224.57	3051.47
224.78	3397.58
225.00	3002.32
225.22	2979.79
225.44	2775.00
225.66	3434.44
225.88	3207.12
226.10	3049.43
226.32	2791.38
226.53	3614.66
226.75	3176.40
226.97	2932.69
227.19	2893.78
227.41	3069.91
227.63	3260.37
227.85	2684.89
228.06	3002.32
228.28	3260.37
228.50	3504.07
228.72	2699.22
228.94	2811.86
229.16	2940.88
229.37	3004.37
229.59	2770.90
229.81	3086.29
230.03	3162.06
230.25	3041.23
230.47	2705.37
230.69	2922.45
230.90	3471.31
231.12	3174.35
231.34	2934.74
231.56	2912.21
231.78	3049.43
232.00	3174.35
232.21	2895.83
232.43	2910.16
232.65	2899.92
232.87	3360.72
233.09	2764.76
233.30	2881.49
233.52	3469.26
233.74	3338.19
233.96	2840.53
234.18	3061.71
234.40	3346.38
234.61	3704.78
234.83	2754.52
235.05	2856.92
235.27	3885.00
235.49	3426.25
235.70	2791.38
235.92	2893.78
236.14	3325.90
236.36	3749.83
236.58	2768.85
236.79	2928.60
237.01	3334.09
237.23	3155.92
237.45	3139.54
237.67	2932.69
237.88	3352.52
238.10	3696.58
238.32	2729.94
238.54	2840.53
238.76	3221.45
238.97	3141.58
239.19	2826.20
239.41	2951.12
239.63	3520.46
239.85	3188.69
240.06	2953.17
240.28	2779.09
240.50	3438.54
240.72	3284.94
240.93	2895.83
241.15	2969.55
241.37	3278.80
241.59	3585.99
241.81	2807.77
242.02	2981.84
242.24	3258.32
242.46	3489.74
242.68	2695.13
242.89	2770.90
243.11	3518.41
243.33	3192.78
243.55	2928.60
243.76	2893.78
243.98	3180.50
244.20	3299.28
244.42	2854.87
244.64	2797.53
244.85	3059.67
245.07	3139.54
245.29	2815.96
245.51	2852.82
245.72	3444.68
245.94	3534.79
246.16	2846.68
246.38	2826.20
246.59	3145.68
246.81	3100.62
247.03	2719.70
247.24	2795.48
247.46	3205.07
247.68	3344.33
247.90	2772.95
248.11	2910.16
248.33	3370.96
248.55	3340.24
248.77	2975.70
248.98	2973.65
249.20	3583.95
249.42	3321.81
249.64	2838.48
249.85	2793.43
250.07	3135.44
250.29	3389.39
250.50	2975.70
250.72	2779.09
250.94	3487.69
251.16	3762.12
251.37	2920.40
251.59	2924.50
251.81	3346.38
252.02	3510.22
252.24	2807.77
252.46	2996.18
252.68	3133.39
252.89	3047.38
253.11	2770.90
253.33	3035.09
253.54	3629.00
253.76	3069.91
253.98	2861.01
254.20	2813.91
254.41	3024.85
254.63	3262.41
254.85	2729.94
255.06	2942.93
255.28	3364.81
255.50	3295.18
255.71	2805.72
255.93	2668.50
256.15	3221.45
256.36	3346.38
256.58	2693.08
256.80	2795.48
257.02	3166.16
257.23	3180.50
257.45	2904.02
257.67	3014.61
257.88	3153.87
258.10	3428.30
258.32	2914.26
258.53	2924.50
258.75	3655.62
258.97	3100.62
259.18	2779.09
259.40	2775.00
259.62	3565.51
259.83	3651.53
260.05	2893.78
260.27	3772.36
260.48	3508.17
260.70	3067.86
260.92	2803.67
261.13	2910.16
261.35	3307.47
261.57	3360.72
261.78	2723.80
262.00	2863.06
262.22	3436.49
262.43	3131.34
262.65	2805.72
262.86	2904.02
263.08	3786.69
263.30	3356.62
263.51	2746.33
263.73	2791.38
263.95	3598.28
264.16	3117.01
264.38	2758.61
264.60	2695.13
264.81	3262.41
265.03	3475.40
265.25	3264.46
265.46	2820.05
265.68	3559.37
265.89	3377.10
266.11	2787.29
266.33	2811.86
266.54	3479.50
266.76	3346.38
266.98	2912.21
267.19	3035.09
267.41	3506.12
267.62	3241.93
267.84	2641.88
268.06	2983.89
268.27	3352.52
268.49	3575.75
268.70	2924.50
268.92	2869.20
269.14	3104.72
269.35	2955.22
269.57	3030.99
269.79	2977.75
270.00	3098.58
270.22	3631.05
270.43	2811.86
270.65	2750.42
270.87	3385.29
271.08	3422.16
271.30	2990.03
271.51	2856.92
271.73	3387.34
271.95	3547.08
272.16	2783.19
272.38	3002.32
272.59	3168.21
272.81	3413.96
273.02	2865.11
273.24	2918.36
273.46	3532.75
273.67	3100.62
273.89	2809.81
274.10	2889.68
274.32	3504.07
274.54	3276.75
274.75	3002.32
274.97	3033.04
275.18	3342.28
275.40	3395.53
275.61	2938.84
275.83	2951.12
276.05	3057.62
276.26	3268.56
276.48	3059.67
276.69	3071.95
276.91	3213.26
277.12	3575.75
277.34	3024.85
277.55	3198.93
277.77	3309.52
277.99	3260.37
278.20	2979.79
278.42	2918.36
278.63	3155.92
278.85	3090.38
279.06	2992.08
279.28	3157.97
279.49	3559.37
279.71	3426.25
279.93	3026.90
280.14	3053.52
280.36	3125.20
280.57	3467.21
280.79	3082.19
281.00	2836.44
281.22	3235.79
281.43	3540.94
281.65	2756.57
281.86	2809.81
282.08	3321.81
282.29	3678.15
282.51	2861.01
282.73	2861.01
282.94	3024.85
283.16	3459.02
283.37	3200.98
283.59	2949.08
283.80	3426.25
284.02	3409.87
284.23	3000.27
284.45	3008.47
284.66	3110.86
284.88	3131.34
285.09	2928.60
285.31	3074.00
285.52	3272.65
285.74	2983.89
285.95	3155.92
286.17	3057.62
286.38	3508.17
286.60	3239.89
286.81	2967.51
287.03	2971.60
287.24	3243.98
287.46	3377.10
287.67	3164.11
287.89	3155.92
288.10	3348.43
288.32	3321.81
288.53	3106.77
288.75	3133.39
288.96	3413.96
289.18	3166.16
289.39	2953.17
289.61	3088.34
289.82	3594.19
290.04	3764.17
290.25	2818.00
290.47	3119.06
290.68	3274.70
290.90	3438.54
291.11	2852.82
291.33	3223.50
291.54	3117.01
291.76	3217.36
291.97	3123.15
292.18	3108.82
292.40	3168.21
292.61	3155.92
292.83	3334.09
293.04	2981.84
293.26	3258.32
293.47	3340.24
293.69	2936.79
293.90	2879.44
294.12	3491.79
294.33	3182.54
294.55	3004.37
294.76	3237.84
294.97	3493.83
295.19	3674.06
295.40	2928.60
295.62	3035.09
295.83	3471.31
296.05	3133.39
296.26	3213.26
296.48	2979.79
296.69	3254.22
296.90	3180.50
297.12	3135.44
297.33	3141.58
297.55	3286.99
297.76	3278.80
297.98	3074.00
298.19	3211.22
298.41	3231.69
298.62	3147.73
298.83	3166.16
299.05	3086.29
299.26	3221.45
299.48	3041.23
299.69	3004.37
299.90	2996.18
300.12	3098.58
300.33	3518.41
300.55	3033.04
300.76	3061.71
300.98	3084.24
301.19	3407.82
301.40	2975.70
301.62	2987.99
301.83	3432.40
302.05	3350.48
302.26	2887.64
302.47	3198.93
302.69	3067.86
302.90	3289.04
303.12	2867.16
303.33	3102.67
303.54	3647.43
303.76	3200.98
303.97	2975.70
304.19	3205.07
304.40	2971.60
304.61	3342.28
304.83	3100.62
305.04	3061.71
305.26	3446.73
305.47	3229.65
305.68	3035.09
305.90	2879.44
306.11	3588.04
306.33	3225.55
306.54	2815.96
306.75	2947.03
306.97	2922.45
307.18	3082.19
307.39	3014.61
307.61	3094.48
307.82	3254.22
308.04	3413.96
308.25	2899.92
308.46	3184.59
308.68	3151.82
308.89	3215.31
309.10	3059.67
309.32	3053.52
309.53	3309.52
309.74	3313.61
309.96	2908.12
310.17	3112.91
310.39	3233.74
310.60	3391.44
310.81	3012.56
311.03	2928.60
311.24	3395.53
311.45	3321.81
311.67	3231.69
311.88	3082.19
312.09	3233.74
312.31	3205.07
312.52	3014.61
312.73	2936.79
312.95	3018.71
313.16	3106.77
313.37	3149.78
313.59	3190.74
313.80	3409.87
314.01	3557.32
314.23	2938.84
314.44	2852.82
314.65	3053.52
314.87	3082.19
315.08	2981.84
315.29	2983.89
315.51	3139.54
315.72	2994.13
315.93	3059.67
316.15	2936.79
316.36	3133.39
316.57	3399.63
316.79	3008.47
317.00	2916.31
317.21	3352.52
317.43	3117.01
317.64	3037.14
317.85	2883.54
318.07	3166.16
318.28	3176.40
318.49	3135.44
318.70	3307.47
318.92	3362.76
319.13	3321.81
319.34	3207.12
319.56	3012.56
319.77	3426.25
319.98	3459.02
320.20	3266.51
320.41	3194.83
320.62	3401.68
320.83	3078.10
321.05	3209.17
321.26	2994.13
321.47	3401.68
321.69	3534.79
321.90	2908.12
322.11	2955.22
322.32	3262.41
322.54	3528.65
322.75	3028.95
322.96	4054.98
323.18	2998.23
323.39	2805.72
323.60	2922.45
323.81	3160.02
324.03	3219.41
324.24	3348.43
324.45	3065.81
324.66	2934.74
324.88	3456.97
325.09	3620.81
325.30	2961.36
325.52	2928.60
325.73	3377.10
325.94	3084.24
326.15	2815.96
326.37	2838.48
326.58	3368.91
326.79	3618.76
327.00	2881.49
327.22	2959.31
327.43	3268.56
327.64	3030.99
327.85	3192.78
328.07	3037.14
328.28	3721.16
328.49	3104.72
328.70	2959.31
328.92	2971.60
329.13	3168.21
329.34	3340.24
329.55	3225.55
329.76	3131.34
329.98	3217.36
330.19	3510.22
330.40	3143.63
330.61	3057.62
330.83	3405.77
331.04	3043.28
331.25	3086.29
331.46	3106.77
331.68	3080.14
331.89	3454.92
332.10	2983.89
332.31	2887.64
332.52	3207.12
332.74	3487.69
332.95	2824.15
333.16	3033.04
333.37	3411.92
333.58	3170.26
333.80	3114.96
334.01	2752.47
334.22	3164.11
334.43	3028.95
334.64	2930.64
334.86	2957.27
335.07	3110.86
335.28	3573.71
335.49	2965.46
335.70	3051.47
335.92	3577.80
336.13	3704.78
336.34	3028.95
336.55	3018.71
336.76	3373.00
336.98	2963.41
337.19	2985.94
337.40	3125.20
337.61	3848.13
337.82	3196.88
338.04	3151.82
338.25	2852.82
338.46	3307.47
338.67	3241.93
338.88	2926.55
339.09	2850.77
339.31	3184.59
339.52	3000.27
339.73	3010.51
339.94	3071.95
340.15	3411.92
340.36	3157.97
340.58	3055.57
340.79	2889.68
341.00	3393.48
341.21	3082.19
341.42	3205.07
341.63	3004.37
341.85	3526.60
342.06	3295.18
342.27	2901.97
342.48	3131.34
342.69	2998.23
342.90	3360.72
343.12	3338.19
343.33	2901.97
343.54	3459.02
343.75	3604.42
343.96	3127.25
344.17	2953.17
344.38	3227.60
344.60	3112.91
344.81	2971.60
345.02	3057.62
345.23	3499.98
345.44	3733.45
345.65	3094.48
345.86	3102.67
346.07	3237.84
346.29	3131.34
346.50	3164.11
346.71	3090.38
346.92	3497.93
347.13	3708.87
347.34	3018.71
347.55	2885.59
347.76	3313.61
347.98	2938.84
348.19	3006.42
348.40	3157.97
348.61	3157.97
348.82	3643.34
349.03	3078.10
349.24	2924.50
349.45	3715.02
349.66	2877.40
349.88	2971.60
350.09	2879.44
350.30	3557.32
350.51	3577.80
350.72	3231.69
350.93	3000.27
351.14	3211.22
351.35	3327.95
351.56	2983.89
351.77	3055.57
351.99	3373.00
352.20	3598.28
352.41	3065.81
352.62	2785.24
352.83	3254.22
353.04	3284.94
353.25	3000.27
353.46	3041.23
353.67	3571.66
353.88	2885.59
354.09	2920.40
354.30	3055.57
354.52	3459.02
354.73	3182.54
354.94	2967.51
355.15	2971.60
355.36	3690.44
355.57	3149.78
355.78	2924.50
355.99	2959.31
356.20	3254.22
356.41	3512.27
356.62	3084.24
356.83	3022.80
357.04	3557.32
357.25	2983.89
357.46	2990.03
357.68	2869.20
357.89	3100.62
358.10	3170.26
358.31	3024.85
358.52	3102.67
358.73	3108.82
358.94	3123.15
359.15	3035.09
359.36	2934.74
359.57	3239.89
359.78	3237.84
359.99	3178.45
360.20	2944.98
360.41	3237.84
360.62	3418.06
360.83	3117.01
361.04	3000.27
361.25	3381.20
361.46	3624.90
361.67	3145.68
361.88	3088.34
362.09	3504.07
362.30	3354.57
362.51	2912.21
362.72	3057.62
362.93	3446.73
363.14	3325.90
363.35	3076.05
363.56	2897.88
363.78	3459.02
363.99	3495.88
364.20	2971.60
364.41	3080.14
364.62	3766.21
364.83	3346.38
365.04	2967.51
365.25	3065.81
365.46	3708.87
365.67	3155.92
365.88	3149.78
366.09	2977.75
366.30	3151.82
366.51	3282.89
366.72	3065.81
366.93	2936.79
367.14	3315.66
367.35	3610.57
367.56	2947.03
367.77	3172.30
367.98	3293.13
368.18	3344.33
368.39	3078.10
368.60	2951.12
368.81	3571.66
369.02	3305.42
369.23	3022.80
369.44	2813.91
369.65	3233.74
369.86	3416.01
370.07	3176.40
370.28	2871.25
370.49	3338.19
370.70	3385.29
370.91	2893.78
371.12	2897.88
371.33	3475.40
371.54	3205.07
371.75	3149.78
371.96	2729.94
372.17	3323.85
372.38	3274.70
372.59	3008.47
372.80	2930.64
373.01	3164.11
373.22	3315.66
373.43	3016.66
373.64	2840.53
373.85	3534.79
374.06	3577.80
374.26	3180.50
374.47	3098.58
374.68	3639.24
374.89	3164.11
375.10	3020.75
375.31	3002.32
375.52	3311.57
375.73	3311.57
375.94	2889.68
376.15	3149.78
376.36	3090.38
376.57	3160.02
376.78	3084.24
376.99	3074.00
377.20	3499.98
377.40	3207.12
377.61	3182.54
377.82	2908.12
378.03	3706.82
378.24	3475.40
378.45	3114.96
378.66	3051.47
378.87	2967.51
379.08	2959.31
379.29	2998.23
379.50	3223.50
379.71	3305.42
379.91	3405.77
380.12	2934.74
380.33	3057.62
380.54	3239.89
380.75	3317.71
380.96	3006.42
381.17	3051.47
381.38	3221.45
381.59	3307.47
381.80	3059.67
382.00	3225.55
382.21	3348.43
382.42	3573.71
382.63	3424.20
382.84	3180.50
383.05	3491.79
383.26	3618.76
383.47	3104.72
383.68	2977.75
383.88	3354.57
384.09	3280.85
384.30	3223.50
384.51	3088.34
384.72	3227.60
384.93	3028.95
385.14	3061.71
385.35	3315.66
385.55	2987.99
385.76	3487.69
385.97	3049.43
386.18	2863.06
386.39	3117.01
386.60	3114.96
386.81	3024.85
387.02	2947.03
387.22	3067.86
387.43	3456.97
387.64	3127.25
387.85	3252.17
388.06	3330.00
388.27	4442.04
388.48	7790.47
388.68	12296.00
388.89	15134.49
389.10	16707.33
389.31	16082.70
389.52	13203.25
389.73	11538.26
389.93	10418.02
390.14	9252.72
390.35	8501.12
390.56	7862.15
390.77	6670.23
390.98	5042.10
391.18	4241.34
391.39	3813.32
391.60	3327.95
391.81	3268.56
392.02	3026.90
392.23	3766.21
392.43	3389.39
392.64	3151.82
392.85	3180.50
393.06	3637.19
393.27	3223.50
393.47	2959.31
393.68	3127.25
393.89	3192.78
394.10	3567.56
394.31	2955.22
394.52	2953.17
394.72	3151.82
394.93	3643.34
395.14	2854.87
395.35	3080.14
395.56	3119.06
395.76	3241.93
395.97	2961.36
396.18	3174.35
396.39	3332.05
396.60	3899.33
396.80	3426.25
397.01	3362.76
397.22	3491.79
397.43	3499.98
397.64	3108.82
397.84	3160.02
398.05	3678.15
398.26	3237.84
398.47	3151.82
398.67	3221.45
398.88	3338.19
399.09	3530.70
399.30	2942.93
399.51	3098.58
399.71	3129.30
399.92	3260.37
400.13	3026.90
400.34	3049.43
400.54	3356.62
400.75	3557.32
400.96	3217.36
401.17	3278.80
401.37	3397.58
401.58	3207.12
401.79	3035.09
402.00	3139.54
402.21	3762.12
402.41	3446.73
402.62	3360.72
402.83	3581.90
403.04	3737.54
403.24	4077.51
403.45	3262.41
403.66	3401.68
403.87	3540.94
404.07	3590.09
404.28	3295.18
404.49	3442.64
404.70	3420.11
404.90	3471.31
405.11	3061.71
405.32	3194.83
405.52	3133.39
405.73	3190.74
405.94	2916.31
406.15	3096.53
406.35	3332.05
406.56	3532.75
406.77	3100.62
406.98	3065.81
407.18	3168.21
407.39	3592.14
407.60	3051.47
407.80	3149.78
408.01	3182.54
408.22	3452.88
408.43	3000.27
408.63	3123.15
408.84	3432.40
409.05	3438.54
409.25	2979.79
409.46	3055.57
409.67	3153.87
409.88	3108.82
410.08	3018.71
410.29	2965.46
410.50	3448.78
410.70	3364.81
410.91	2930.64
411.12	3157.97
411.32	3205.07
411.53	3139.54
411.74	3061.71
411.95	3114.96
412.15	3330.00
412.36	3385.29
412.57	3121.10
412.77	3231.69
412.98	3344.33
413.19	3209.17
413.39	3131.34
413.60	3047.38
413.81	3549.13
414.01	3010.51
414.22	3049.43
414.43	3274.70
414.63	3211.22
414.84	3454.92
415.05	3106.77
415.25	2912.21
415.46	3362.76
415.67	3239.89
415.87	3100.62
416.08	3061.71
416.29	3135.44
416.49	3381.20
416.70	3016.66
416.91	3028.95
417.11	3149.78
417.32	3459.02
417.53	3076.05
417.73	3129.30
417.94	3354.57
418.15	3309.52
418.35	3104.72
418.56	3160.02
418.77	3694.54
418.97	3354.57
419.18	3155.92
419.38	2791.38
419.59	3246.03
419.80	3545.03
420.00	2922.45
420.21	3033.04
420.42	3594.19
420.62	3368.91
420.83	3000.27
421.04	3028.95
421.24	3239.89
421.45	3475.40
421.65	3106.77
421.86	3065.81
422.07	3436.49
422.27	3385.29
422.48	3030.99
422.69	2861.01
422.89	3301.33
423.10	3262.41
423.30	3049.43
423.51	3086.29
423.72	3416.01
423.92	3446.73
424.13	2938.84
424.33	3147.73
424.54	3428.30
424.75	3274.70
424.95	3286.99
425.16	3022.80
425.36	3203.02
425.57	3418.06
425.78	3157.97
425.98	3037.14
426.19	3260.37
426.39	3043.28
426.60	3155.92
426.81	3147.73
427.01	3403.72
427.22	3114.96
427.42	2904.02
427.63	3016.66
427.83	3497.93
428.04	3590.09
428.25	3024.85
428.45	3194.83
428.66	3524.55
428.86	3325.90
429.07	3037.14
429.28	3131.34
429.48	3205.07
429.69	3098.58
429.89	3123.15
430.10	2977.75
430.30	3510.22
430.51	3524.55
430.71	2979.79
430.92	3180.50
431.13	3155.92
431.33	3356.62
431.54	3205.07
431.74	3250.13
431.95	3852.23
432.15	3045.33
432.36	3063.76
432.56	3117.01
432.77	3635.14
432.98	3614.66
433.18	3147.73
433.39	2977.75
433.59	3221.45
433.80	3633.10
434.00	3215.31
434.21	3041.23
434.41	3147.73
434.62	3803.08
434.82	2987.99
435.03	3004.37
435.23	3336.14
435.44	3024.85
435.64	2981.84
435.85	3131.34
436.06	3440.59
436.26	3532.75
436.47	3053.52
436.67	3016.66
436.88	3278.80
437.08	3475.40
437.29	3205.07
437.49	3270.61
437.70	3512.27
437.90	3221.45
438.11	3284.94
438.31	3100.62
438.52	3565.51
438.72	3520.46
438.93	3356.62
439.13	3133.39
439.34	3479.50
439.54	3205.07
439.75	3125.20
439.95	3143.63
440.16	3164.11
440.36	3311.57
440.57	3071.95
440.77	3080.14
440.98	3264.46
441.18	3397.58
441.39	3041.23
441.59	2971.60
441.80	3682.25
442.00	3325.90
442.21	3123.15
442.41	2895.83
442.62	3512.27
442.82	3162.06
443.02	3065.81
443.23	3133.39
443.43	3207.12
443.64	3583.95
443.84	2944.98
444.05	3114.96
444.25	3319.76
444.46	3176.40
444.66	3078.10
444.87	3381.20
445.07	3002.32
445.28	3262.41
445.48	3309.52
445.69	3143.63
445.89	3809.22
446.09	3272.65
446.30	3405.77
446.50	3536.84
446.71	5072.82
446.91	6465.44
447.12	7075.73
447.32	7714.70
447.53	7593.87
447.73	6481.82
447.93	5597.10
448.14	5277.62
448.34	5554.09
448.55	4519.87
448.75	4505.53
448.96	4216.77
449.16	4112.32
449.36	3864.52
449.57	3258.32
449.77	3231.69
449.98	3293.13
450.18	3346.38
450.39	3016.66
450.59	3340.24
450.79	3229.65
451.00	3174.35
451.20	3215.31
451.41	3028.95
451.61	3401.68
451.81	3305.42
452.02	3033.04
452.22	3020.75
452.43	3160.02
452.63	3133.39
452.84	3155.92
453.04	3012.56
453.24	3317.71
453.45	3100.62
453.65	3110.86
453.86	3067.86
454.06	3346.38
454.26	3373.00
454.47	2983.89
454.67	3211.22
454.87	3313.61
455.08	3231.69
455.28	3172.30
455.49	3262.41
455.69	3117.01
455.89	3712.97
456.10	3164.11
456.30	3002.32
456.51	3379.15
456.71	3360.72
456.91	3168.21
457.12	3080.14
457.32	3344.33
457.52	3043.28
457.73	3278.80
457.93	3284.94
458.14	3119.06
458.34	2975.70
458.54	3125.20
458.75	3049.43
458.95	3487.69
459.15	3368.91
459.36	3078.10
459.56	3010.51
459.76	3831.75
459.97	3342.28
460.17	3049.43
460.37	3121.10
460.58	3291.09
460.78	3434.44
460.99	3041.23
461.19	3082.19
461.39	3186.64
461.60	3248.08
461.80	3121.10
462.00	2912.21
462.21	3231.69
462.41	3131.34
462.61	2861.01
462.82	2863.06
463.02	3344.33
463.22	3233.74
463.43	3153.87
463.63	2944.98
463.83	3536.84
464.04	3327.95
464.24	3028.95
464.44	2944.98
464.64	3293.13
464.85	3348.43
465.05	3139.54
465.25	3014.61
465.46	3168.21
465.66	3411.92
465.86	3166.16
466.07	3028.95
466.27	3260.37
466.47	2981.84
466.68	2949.08
466.88	3164.11
467.08	3325.90
467.29	3512.27
467.49	3082.19
467.69	3231.69
467.89	3413.96
468.10	3225.55
468.30	3131.34
468.50	3178.45
468.71	3459.02
468.91	2961.36
469.11	3282.89
469.31	3131.34
469.52	3086.29
469.72	3676.10
469.92	3262.41
470.13	3119.06
470.33	3243.98
470.53	3295.18
470.73	3590.09
470.94	3921.86
471.14	4118.47
471.34	4845.49
471.54	4409.28
471.75	3999.68
471.95	3854.28
472.15	3751.88
472.36	3770.31
472.56	3536.84
472.76	3950.53
472.96	3606.47
473.17	3385.29
473.37	3239.89
473.57	3270.61
473.77	3428.30
473.98	3225.55
474.18	2992.08
474.38	4014.02
474.58	3174.35
474.79	2938.84
474.99	3219.41
475.19	3485.64
475.39	3119.06
475.60	3110.86
475.80	3037.14
476.00	3334.09
476.20	3229.65
476.41	3114.96
476.61	3209.17
476.81	3553.23
477.01	3131.34
477.21	3330.00
477.42	3188.69
477.62	3157.97
477.82	3346.38
478.02	2967.51
478.23	3102.67
478.43	3153.87
478.63	3170.26
478.83	3123.15
479.03	3057.62
479.24	3581.90
479.44	3745.73
479.64	2949.08
479.84	2801.62
480.04	3108.82
480.25	3508.17
480.45	2959.31
480.65	3016.66
480.85	3633.10
481.06	3135.44
481.26	3205.07
481.46	3041.23
481.66	3354.57
481.86	3100.62
482.06	3233.74
482.27	3086.29
482.47	3286.99
482.67	3307.47
482.87	3098.58
483.07	3147.73
483.28	3090.38
483.48	3104.72
483.68	3030.99
483.88	2932.69
484.08	2869.20
484.29	3053.52
484.49	3149.78
484.69	2848.72
484.89	3596.23
485.09	3370.96
485.29	3074.00
485.50	3133.39
485.70	3166.16
485.90	3508.17
486.10	3182.54
486.30	3008.47
486.50	3551.18
486.71	3350.48
486.91	3125.20
487.11	3221.45
487.31	2981.84
487.51	3418.06
487.71	3061.71
487.91	2936.79
488.12	3028.95
488.32	2789.33
488.52	3033.04
488.72	2789.33
488.92	3375.05
489.12	3524.55
489.32	3241.93
489.53	3096.53
489.73	2965.46
489.93	3672.01
490.13	3071.95
490.33	2897.88
490.53	3282.89
490.73	3510.22
490.94	2897.88
491.14	3221.45
491.34	3364.81
491.54	3362.76
491.74	3968.96
491.94	4534.20
492.14	5134.26
492.34	5203.89
492.54	4802.49
492.75	4073.41
492.95	4313.02
493.15	4112.32
493.35	3885.00
493.55	3614.66
493.75	3661.77
493.95	3882.95
494.15	3250.13
494.35	3174.35
494.56	3258.32
494.76	3135.44
494.96	3172.30
495.16	2934.74
495.36	3393.48
495.56	3370.96
495.76	3174.35
495.96	3006.42
496.16	3137.49
496.36	3674.06
496.56	3028.95
496.77	3166.16
496.97	3254.22
497.17	3596.23
497.37	2858.96
497.57	3133.39
497.77	3368.91
497.97	3094.48
498.17	3137.49
498.37	3024.85
498.57	3379.15
498.77	3172.30
498.97	3213.26
499.17	3430.35
499.38	3243.98
499.58	3442.64
499.78	3223.50
499.98	3223.50
500.18	3325.90
500.38	3094.48
500.58	3221.45
500.78	3622.86
500.98	6340.51
501.18	8370.05
501.38	9693.04
501.58	10872.67
501.78	10897.24
501.98	9025.40
502.18	7542.67
502.38	6621.08
502.58	6463.39
502.78	5679.02
502.98	5380.01
503.18	5203.89
503.38	4915.12
503.59	4280.25
503.79	4112.32
503.99	3745.73
504.19	3891.14
504.39	3934.15
504.59	3758.02
504.79	3643.34
504.99	3956.68
505.19	3585.99
505.39	3360.72
505.59	3581.90
505.79	3704.78
505.99	3487.69
506.19	3176.40
506.39	3409.87
506.59	3157.97
506.79	3239.89
506.99	3401.68
507.19	3043.28
507.39	3334.09
507.59	3057.62
507.79	3061.71
507.99	2985.94
508.19	3387.34
508.39	3149.78
508.59	3039.19
508.79	3123.15
508.99	3731.40
509.19	3160.02
509.39	3114.96
509.59	3053.52
509.79	3172.30
509.99	3454.92
510.19	3225.55
510.39	3098.58
510.59	3264.46
510.79	3209.17
510.99	2820.05
511.19	3059.67
511.39	3524.55
511.59	3545.03
511.79	3270.61
511.99	3002.32
512.19	3637.19
512.38	3286.99
512.58	3014.61
512.78	3014.61
512.98	3583.95
513.18	3557.32
513.38	2951.12
513.58	3084.24
513.78	3280.85
513.98	3258.32
514.18	3092.43
514.38	3102.67
514.58	3428.30
514.78	3213.26
514.98	2959.31
515.18	3030.99
515.38	3166.16
515.58	3647.43
515.78	3045.33
515.98	3028.95
516.18	3475.40
516.38	3286.99
516.57	2965.46
516.77	3002.32
516.97	3401.68
517.17	3192.78
517.37	2889.68
517.57	3151.82
517.77	3286.99
517.97	3090.38
518.17	3114.96
518.37	2908.12
518.57	3135.44
518.77	3155.92
518.97	3157.97
519.16	3092.43
519.36	3499.98
519.56	3176.40
519.76	2985.94
519.96	3104.72
520.16	3569.61
520.36	3055.57
520.56	3168.21
520.76	2994.13
520.96	3157.97
521.16	3489.74
521.35	3272.65
521.55	3213.26
521.75	3375.05
521.95	3188.69
522.15	3028.95
522.35	3016.66
522.55	3135.44
522.75	3407.82
522.95	3043.28
523.14	2912.21
523.34	3313.61
523.54	3190.74
523.74	3164.11
523.94	3074.00
524.14	2949.08
524.34	3342.28
524.54	3209.17
524.73	3035.09
524.93	3450.83
525.13	3286.99
525.33	2912.21
525.53	3340.24
525.73	3354.57
525.93	3370.96
526.13	3110.86
526.32	3028.95
526.52	3629.00
526.72	3499.98
526.92	3067.86
527.12	2994.13
527.32	3051.47
527.52	3358.67
527.71	3123.15
527.91	3053.52
528.11	3131.34
528.31	3153.87
528.51	3002.32
528.71	3157.97
528.90	3387.34
529.10	3540.94
529.30	3137.49
529.50	2797.53
529.70	3284.94
529.90	3192.78
530.09	3069.91
530.29	2922.45
530.49	3125.20
530.69	3891.14
530.89	3190.74
531.09	3209.17
531.28	3219.41
531.48	3469.26
531.68	3006.42
531.88	3065.81
532.08	3381.20
532.28	3221.45
532.47	3151.82
532.67	3176.40
532.87	3377.10
533.07	3123.15
533.27	3119.06
533.46	3157.97
533.66	3395.53
533.86	3143.63
534.06	3053.52
534.26	3063.76
534.45	3215.31
534.65	3452.88
534.85	3164.11
535.05	3000.27
535.25	3514.31
535.44	2944.98
535.64	3102.67
535.84	3100.62
536.04	3237.84
536.24	3155.92
536.43	2951.12
536.63	3047.38
536.83	3254.22
537.03	3291.09
537.22	2901.97
537.42	2897.88
537.62	3430.35
537.82	3125.20
538.02	3219.41
538.21	3063.76
538.41	3848.13
538.61	3397.58
538.81	3170.26
539.00	3178.45
539.20	2957.27
539.40	3246.03
539.60	3026.90
539.79	3315.66
539.99	3157.97
540.19	3127.25
540.39	3004.37
540.58	3078.10
540.78	3514.31
540.98	3323.85
541.18	3196.88
541.37	3092.43
541.57	3293.13
541.77	3426.25
541.97	3014.61
542.16	2944.98
542.36	3203.02
542.56	3149.78
542.76	3286.99
542.95	3139.54
543.15	3278.80
543.35	3360.72
543.54	2955.22
543.74	3069.91
543.94	3549.13
544.14	3207.12
544.33	3237.84
544.53	3043.28
544.73	3155.92
544.93	3258.32
545.12	3074.00
545.32	3174.35
545.52	3213.26
545.71	3061.71
545.91	3053.52
546.11	2930.64
546.30	3055.57
546.50	3184.59
546.70	3063.76
546.90	3074.00
547.09	2924.50
547.29	3221.45
547.49	3223.50
547.68	2998.23
547.88	3108.82
548.08	3461.07
548.27	3387.34
548.47	2949.08
548.67	3170.26
548.87	3379.15
549.06	3051.47
549.26	3018.71
549.46	3370.96
549.65	3174.35
549.85	3149.78
550.05	3141.58
550.24	3086.29
550.44	3233.74
550.64	3139.54
550.83	3084.24
551.03	3547.08
551.23	3497.93
551.42	3127.25
551.62	3069.91
551.82	3313.61
552.01	3229.65
552.21	3370.96
552.41	3135.44
552.60	3487.69
552.80	3280.85
553.00	2998.23
553.19	3086.29
553.39	3581.90
553.59	3067.86
553.78	3278.80
553.98	3092.43
554.17	3065.81
554.37	3291.09
554.57	3071.95
554.76	2899.92
554.96	3172.30
555.16	3295.18
555.35	3217.36
555.55	3227.60
555.75	3387.34
555.94	3442.64
556.14	2920.40
556.33	3147.73
556.53	3270.61
556.73	3248.08
556.92	3028.95
557.12	3045.33
557.32	3653.58
557.51	3555.27
557.71	3049.43
557.90	3266.51
558.10	3577.80
558.30	3198.93
558.49	3061.71
558.69	3014.61
558.88	3340.24
559.08	3319.76
559.28	3045.33
559.47	3051.47
559.67	3352.52
559.86	3702.73
560.06	2961.36
560.26	3100.62
560.45	3448.78
560.65	3301.33
560.84	3373.00
561.04	2904.02
561.24	3385.29
561.43	2979.79
561.63	3289.04
561.82	3229.65
562.02	3407.82
562.22	3129.30
562.41	2985.94
562.61	3016.66
562.80	3049.43
563.00	3733.45
563.19	3147.73
563.39	3168.21
563.59	3397.58
563.78	2983.89
563.98	2830.29
564.17	3053.52
564.37	2873.30
564.56	3295.18
564.76	3008.47
564.96	3303.37
565.15	3356.62
565.35	3798.98
565.54	3123.15
565.74	3147.73
565.93	3393.48
566.13	3262.41
566.32	3065.81
566.52	3088.34
566.71	3319.76
566.91	3426.25
567.11	3188.69
567.30	3020.75
567.50	3327.95
567.69	3325.90
567.89	3014.61
568.08	2979.79
568.28	3289.04
568.47	3151.82
568.67	3035.09
568.86	3039.19
569.06	3481.55
569.25	3141.58
569.45	2928.60
569.64	3074.00
569.84	3207.12
570.04	3307.47
570.23	3119.06
570.43	3141.58
570.62	3317.71
570.82	3647.43
571.01	2947.03
571.21	2987.99
571.40	3155.92
571.60	3446.73
571.79	3155.92
571.99	3016.66
572.18	3127.25
572.38	3393.48
572.57	3166.16
572.77	3090.38
572.96	3837.89
573.16	3311.57
573.35	3065.81
573.55	3243.98
573.74	3456.97
573.94	3233.74
574.13	3086.29
574.33	3315.66
574.52	3495.88
574.71	3237.84
574.91	3135.44
575.10	2951.12
575.30	3211.22
575.49	3123.15
575.69	2975.70
575.88	2957.27
576.08	3221.45
576.27	3508.17
576.47	3006.42
576.66	3182.54
576.86	3540.94
577.05	3370.96
577.25	3198.93
577.44	3311.57
577.64	3164.11
577.83	3442.64
578.02	2985.94
578.22	3229.65
578.41	3594.19
578.61	3219.41
578.80	2893.78
579.00	3112.91
579.19	3225.55
579.39	3362.76
579.58	3139.54
579.77	3086.29
579.97	3567.56
580.16	3557.32
580.36	3332.05
580.55	3155.92
580.75	3348.43
580.94	3327.95
581.13	3241.93
581.33	3397.58
581.52	3180.50
581.72	3663.82
581.91	3137.49
582.11	3037.14
582.30	3485.64
582.49	3330.00
582.69	3311.57
582.88	3160.02
583.08	3356.62
583.27	3518.41
583.47	3188.69
583.66	2881.49
583.85	3114.96
584.05	3270.61
584.24	3164.11
584.44	3090.38
584.63	3407.82
584.82	3520.46
585.02	3368.91
585.21	3303.37
585.41	3469.26
585.60	3246.03
585.79	3250.13
585.99	3385.29
586.18	3278.80
586.37	4270.01
586.57	6285.22
586.76	17825.52
586.96	37526.98
587.15	50769.15
587.34	59161.72
587.54	62952.51
587.73	55944.36
587.93	40535.45
588.12	31190.56
588.31	25560.70
588.51	22578.86
588.70	20807.36
588.89	18310.89
589.09	15785.74
589.28	13592.37
589.47	10774.36
589.67	8062.85
589.86	6510.49
590.06	5056.43
590.25	4534.20
590.44	3909.57
590.64	3497.93
590.83	3489.74
591.02	3602.38
591.22	3112.91
591.41	3182.54
591.60	3323.85
591.80	3829.70
591.99	2936.79
592.18	3026.90
592.38	3520.46
592.57	3184.59
592.76	3069.91
592.96	3131.34
593.15	3170.26
593.34	3436.49
593.54	2994.13
593.73	3200.98
593.92	3459.02
594.12	3442.64
594.31	3092.43
594.50	3155.92
594.70	3379.15
594.89	3938.24
595.08	2934.74
595.28	3114.96
595.47	4100.03
595.66	3389.39
595.86	2932.69
596.05	2996.18
596.24	3250.13
596.43	3581.90
596.63	3157.97
596.82	3327.95
597.01	3499.98
597.21	3672.01
597.40	3024.85
597.59	3139.54
597.79	3305.42
597.98	3459.02
598.17	3153.87
598.36	3170.26
598.56	3467.21
598.75	3104.72
598.94	3147.73
599.14	3137.49
599.33	3213.26
599.52	3461.07
599.71	3176.40
599.91	3074.00
600.10	3362.76
600.29	3264.46
600.48	3082.19
600.68	3229.65
600.87	3338.19
601.06	3209.17
601.26	3205.07
601.45	3207.12
601.64	3286.99
601.83	3497.93
602.03	3016.66
602.22	2990.03
602.41	3526.60
602.60	3710.92
602.80	3219.41
602.99	3295.18
603.18	3147.73
603.37	3282.89
603.57	3000.27
603.76	2990.03
603.95	3540.94
604.14	3248.08
604.34	2996.18
604.53	3061.71
604.72	3313.61
604.91	3536.84
605.10	3084.24
605.30	2940.88
605.49	3751.88
605.68	3454.92
605.87	3137.49
606.07	3053.52
606.26	3356.62
606.45	3442.64
606.64	3108.82
606.84	2918.36
607.03	3325.90
607.22	3405.77
607.41	3117.01
607.60	3041.23
607.80	3450.83
607.99	3246.03
608.18	3131.34
608.37	3098.58
608.56	3106.77
608.76	3446.73
608.95	3231.69
609.14	3117.01
609.33	3600.33
609.52	3602.38
609.72	3225.55
609.91	3200.98
610.10	3387.34
610.29	3575.75
610.48	3217.36
610.68	3188.69
610.87	3233.74
611.06	3454.92
611.25	3086.29
611.44	3100.62
611.63	3274.70
611.83	3518.41
612.02	2938.84
612.21	3237.84
612.40	3022.80
612.59	3061.71
612.79	2990.03
612.98	3188.69
613.17	3659.72
613.36	3241.93
613.55	3178.45
613.74	3051.47
613.93	3313.61
614.13	3471.31
614.32	3370.96
614.51	3186.64
614.70	3258.32
614.89	3229.65
615.08	3270.61
615.28	3428.30
615.47	3110.86
615.66	3418.06
615.85	3192.78
616.04	3188.69
616.23	3286.99
616.42	3237.84
616.62	3098.58
616.81	3026.90
617.00	3225.55
617.19	3385.29
617.38	3110.86
617.57	3143.63
617.76	3381.20
617.95	3375.05
618.15	3256.27
618.34	3221.45
618.53	3057.62
618.72	3495.88
618.91	3174.35
619.10	3151.82
619.29	3246.03
619.48	3325.90
619.68	3008.47
619.87	3074.00
620.06	3006.42
620.25	3393.48
620.44	3002.32
620.63	3139.54
620.82	3368.91
621.01	3313.61
621.20	3098.58
621.39	3180.50
621.59	3317.71
621.78	3266.51
621.97	3037.14
622.16	3205.07
622.35	3381.20
622.54	3493.83
622.73	3182.54
622.92	2820.05
623.11	3440.59
623.30	3114.96
623.49	3198.93
623.68	3006.42
623.88	3559.37
624.07	3127.25
624.26	3086.29
624.45	3131.34
624.64	3209.17
624.83	3381.20
625.02	3037.14
625.21	3065.81
625.40	3327.95
625.59	3547.08
625.78	3160.02
625.97	3078.10
626.16	3616.71
626.35	3559.37
626.54	3176.40
626.74	3297.23
626.93	3217.36
627.12	3266.51
627.31	3184.59
627.50	3127.25
627.69	3454.92
627.88	3135.44
628.07	3016.66
628.26	2813.91
628.45	3155.92
628.64	3108.82
628.83	3063.76
629.02	2985.94
629.21	3387.34
629.40	3250.13
629.59	3012.56
629.78	3102.67
629.97	3289.04
630.16	3313.61
630.35	3012.56
630.54	3221.45
630.73	3178.45
630.92	3252.17
631.11	2998.23
631.30	3174.35
631.49	3469.26
631.68	3246.03
631.87	3094.48
632.06	2998.23
632.25	3733.45
632.44	3327.95
632.63	3196.88
632.82	3168.21
633.01	3135.44
633.20	3370.96
633.39	3043.28
633.58	2934.74
633.77	3323.85
633.96	3418.06
634.15	3207.12
634.34	3170.26
634.53	3364.81
634.72	3176.40
634.91	2934.74
635.10	3117.01
635.29	3420.11
635.48	3270.61
635.67	2967.51
635.86	2944.98
636.05	3557.32
636.24	3231.69
636.43	3026.90
636.62	3080.14
636.81	2854.87
637.00	3278.80
637.19	3086.29
637.38	3127.25
637.57	3237.84
637.76	3209.17
637.95	3227.60
638.14	3286.99
638.33	3319.76
638.52	3252.17
638.71	3008.47
638.89	3002.32
639.08	3909.57
639.27	3477.45
639.46	3370.96
639.65	3708.87
639.84	3993.54
640.03	4118.47
640.22	3684.30
640.41	3571.66
640.60	3446.73
640.79	3520.46
640.98	3360.72
641.17	3338.19
641.36	3520.46
641.55	3452.88
641.74	2940.88
641.92	3010.51
642.11	3135.44
642.30	3209.17
642.49	3008.47
642.68	3024.85
642.87	3430.35
643.06	3411.92
643.25	2869.20
643.44	2969.55
643.63	3160.02
643.82	3346.38
644.00	3037.14
644.19	3074.00
644.38	3045.33
644.57	3497.93
644.76	3067.86
644.95	3151.82
645.14	3321.81
645.33	3233.74
645.52	3117.01
645.71	2928.60
645.89	3022.80
646.08	3239.89
646.27	3088.34
646.46	3184.59
646.65	3049.43
646.84	3313.61
647.03	3014.61
647.22	3319.76
647.40	3309.52
647.59	3205.07
647.78	2838.48
647.97	3059.67
648.16	3114.96
648.35	3581.90
648.54	3307.47
648.73	3053.52
648.91	3526.60
649.10	3266.51
649.29	3035.09
649.48	3067.86
649.67	3391.44
649.86	3375.05
650.05	3100.62
650.23	3297.23
650.42	3239.89
650.61	3540.94
650.80	3231.69
650.99	3471.31
651.18	3420.11
651.36	3614.66
651.55	3057.62
651.74	3299.28
651.93	3182.54
652.12	3254.22
652.31	3139.54
652.49	3127.25
652.68	3211.22
652.87	3557.32
653.06	3174.35
653.25	3397.58
653.44	3174.35
653.62	3569.61
653.81	3063.76
654.00	3084.24
654.19	3459.02
654.38	3706.82
654.56	3143.63
654.75	3022.80
654.94	3432.40
655.13	3303.37
655.32	3024.85
655.51	3157.97
655.69	3168.21
655.88	3448.78
656.07	2879.44
656.26	3131.34
656.45	3028.95
656.63	3237.84
656.82	3024.85
657.01	3352.52
657.20	3143.63
657.38	3610.57
657.57	2973.65
657.76	2918.36
657.95	3434.44
658.14	3180.50
658.32	3090.38
658.51	2869.20
658.70	3330.00
658.89	3352.52
659.08	3076.05
659.26	3358.67
659.45	3094.48
659.64	3368.91
659.83	3057.62
660.01	3483.59
660.20	3280.85
660.39	3680.20
660.58	2752.47
660.76	3211.22
660.95	2985.94
661.14	3323.85
661.33	2969.55
661.51	3164.11
661.70	3096.53
661.89	3338.19
662.08	3180.50
662.26	2953.17
662.45	3092.43
662.64	3649.48
662.83	3104.72
663.01	2928.60
663.20	3123.15
663.39	3588.04
663.58	3076.05
663.76	3065.81
663.95	3452.88
664.14	3088.34
664.32	3123.15
664.51	2953.17
664.70	2967.51
664.89	3299.28
665.07	2930.64
665.26	3213.26
665.45	2965.46
665.64	3409.87
665.82	3022.80
666.01	3215.31
666.20	2987.99
666.38	3456.97
666.57	3481.55
666.76	5656.49
666.95	12945.21
667.13	20965.06
667.32	25276.03
667.51	28352.08
667.69	29052.48
667.88	24221.33
668.07	17770.22
668.25	14903.07
668.44	12947.26
668.63	11241.30
668.81	9826.15
669.00	8583.04
669.19	7761.80
669.38	6819.74
669.56	5765.03
669.75	5027.76
669.94	4429.76
670.12	3848.13
670.31	3430.35
670.50	3377.10
670.68	3561.42
670.87	3405.77
671.06	3049.43
671.24	3190.74
671.43	3612.62
671.62	3233.74
671.80	3078.10
671.99	3243.98
672.18	3342.28
672.36	3436.49
672.55	3188.69
672.74	3112.91
672.92	3176.40
673.11	3454.92
673.29	2975.70
673.48	3280.85
673.67	3209.17
673.85	3469.26
674.04	2975.70
674.23	3139.54
674.41	3594.19
674.60	3139.54
674.79	2908.12
674.97	2887.64
675.16	3418.06
675.34	3403.72
675.53	3133.39
675.72	3172.30
675.90	3608.52
676.09	3180.50
676.28	3151.82
676.46	2863.06
676.65	3438.54
676.83	3141.58
677.02	3117.01
677.21	3139.54
677.39	3307.47
677.58	3143.63
677.77	3078.10
677.95	3047.38
678.14	3211.22
678.32	3196.88
678.51	3127.25
678.70	3393.48
678.88	3147.73
679.07	3354.57
679.25	3121.10
679.44	3123.15
679.63	2975.70
679.81	3327.95
680.00	3270.61
680.18	3188.69
680.37	3649.48
680.55	3327.95
680.74	2961.36
680.93	2838.48
681.11	3297.23
681.30	3258.32
681.48	3074.00
681.67	3108.82
681.85	3373.00
682.04	3028.95
682.23	3203.02
682.41	3276.75
682.60	3272.65
682.78	3246.03
682.97	2983.89
683.15	3147.73
683.34	3321.81
683.53	3528.65
683.71	2940.88
683.90	3166.16
684.08	3657.67
684.27	3178.45
684.45	3174.35
684.64	3264.46
684.82	3323.85
685.01	3475.40
685.19	3092.43
685.38	3401.68
685.57	3266.51
685.75	3145.68
685.94	3035.09
686.12	3098.58
686.31	3280.85
686.49	3624.90
686.68	2895.83
686.86	3065.81
687.05	3174.35
687.23	3565.51
687.42	3061.71
687.60	2942.93
687.79	3348.43
687.97	3557.32
688.16	3250.13
688.34	3260.37
688.53	2983.89
688.71	3395.53
688.90	3348.43
689.08	3108.82
689.27	2977.75
689.45	3467.21
689.64	3133.39
689.82	3209.17
690.01	3358.67
690.19	3362.76
690.38	3147.73
690.56	3190.74
690.75	3057.62
690.93	3147.73
691.12	3092.43
691.30	3141.58
691.49	3080.14
691.67	3297.23
691.86	3436.49
692.04	3084.24
692.23	3188.69
692.41	3293.13
692.60	3514.31
692.78	3330.00
692.97	3313.61
693.15	3389.39
693.34	3325.90
693.52	3237.84
693.71	3184.59
693.89	3178.45
694.08	2932.69
694.26	3143.63
694.44	3395.53
694.63	3336.14
694.81	3051.47
695.00	3086.29
695.18	3495.88
695.37	3817.41
695.55	3190.74
695.74	3096.53
695.92	3155.92
696.10	3516.36
696.29	2983.89
696.47	3082.19
696.66	3014.61
696.84	3074.00
697.03	3172.30
697.21	3317.71
697.40	4704.18
697.58	3571.66
697.76	3069.91
697.95	2996.18
698.13	3024.85
698.32	3157.97
698.50	3057.62
698.68	3096.53
698.87	3282.89
699.05	3618.76
699.24	3043.28
699.42	3102.67
699.61	3418.06
699.79	3295.18
699.97	3207.12
700.16	2981.84
700.34	3014.61
700.53	3293.13
700.71	3426.25
700.89	3133.39
701.08	3266.51
701.26	3303.37
701.45	3399.63
701.63	3096.53
701.81	3119.06
702.00	3125.20
702.18	3219.41
702.37	3084.24
702.55	3504.07
702.73	3373.00
702.92	3133.39
703.10	3467.21
703.28	3491.79
703.47	3082.19
703.65	3368.91
703.84	3205.07
704.02	3307.47
704.20	3573.71
704.39	3004.37
704.57	3168.21
704.75	3456.97
704.94	3442.64
705.12	3299.28
705.30	4026.31
705.49	8904.57
705.67	17448.69
705.86	24526.47
706.04	28024.40
706.22	30660.14
706.41	29394.50
706.59	21868.21
706.77	17098.49
706.96	14860.06
707.14	13618.99
707.32	11321.17
707.51	9971.56
707.69	8243.07
707.87	6680.47
708.06	5441.45
708.24	4511.68
708.42	4175.81
708.61	4155.33
708.79	3286.99
708.97	3348.43
709.16	3368.91
709.34	3303.37
709.52	3110.86
709.71	3133.39
709.89	3434.44
710.07	3084.24
710.26	3024.85
710.44	3086.29
710.62	3450.83
710.80	3237.84
710.99	3248.08
711.17	3233.74
711.35	3178.45
711.54	3200.98
711.72	3266.51
711.90	3213.26
712.09	3358.67
712.27	3145.68
712.45	3200.98
712.63	3135.44
712.82	3325.90
713.00	3284.94
713.18	3297.23
713.37	3340.24
713.55	3463.12
713.73	3313.61
713.91	3186.64
714.10	3139.54
714.28	3237.84
714.46	3403.72
714.65	3200.98
714.83	3086.29
715.01	3334.09
715.19	3241.93
715.38	2965.46
715.56	3200.98
715.74	3028.95
715.92	3180.50
716.11	3391.44
716.29	2840.53
716.47	3235.79
716.65	3223.50
716.84	2893.78
717.02	3141.58
717.20	3082.19
717.38	3131.34
717.57	3286.99
717.75	3092.43
717.93	3243.98
718.11	3456.97
718.30	3004.37
718.48	3078.10
718.66	3516.36
718.84	3467.21
719.03	3104.72
719.21	2977.75
719.39	3573.71
719.57	3422.16
719.75	3123.15
719.94	3006.42
720.12	3176.40
720.30	3327.95
720.48	3192.78
720.67	3114.96
720.85	3235.79
721.03	3135.44
721.21	3076.05
721.39	3151.82
721.58	3385.29
721.76	3248.08
721.94	3076.05
722.12	3160.02
722.30	3516.36
722.49	3162.06
722.67	3135.44
722.85	3047.38
723.03	2940.88
723.21	3184.59
723.40	3157.97
723.58	3280.85
723.76	3354.57
723.94	3581.90
724.12	3098.58
724.30	3403.72
724.49	3467.21
724.67	3098.58
724.85	3286.99
725.03	3000.27
725.21	3395.53
725.40	3579.85
725.58	3071.95
725.76	3344.33
725.94	3405.77
726.12	3014.61
726.30	3184.59
726.49	3117.01
726.67	3264.46
726.85	3346.38
727.03	4042.69
727.21	5574.57
727.39	7444.37
727.57	8079.24
727.76	8624.00
727.94	8630.14
728.12	7344.02
728.30	6195.11
728.48	5636.01
728.66	5220.27
728.84	4876.21
729.03	4218.82
729.21	3891.14
729.39	3588.04
729.57	3481.55
729.75	3389.39
729.93	3317.71
730.11	3092.43
730.30	3129.30
730.48	3180.50
730.66	3207.12
730.84	3192.78
731.02	3282.89
731.20	3190.74
731.38	3147.73
731.56	3039.19
731.74	2965.46
731.93	3336.14
732.11	3174.35
732.29	3026.90
732.47	3342.28
732.65	3385.29
732.83	3278.80
733.01	3221.45
733.19	3151.82
733.37	3424.20
733.56	3114.96
733.74	3000.27
733.92	3516.36
734.10	3200.98
734.28	3237.84
734.46	2955.22
734.64	3135.44
734.82	3192.78
735.00	3082.19
735.18	3063.76
735.36	3370.96
735.54	3299.28
735.73	3106.77
735.91	3215.31
736.09	3583.95
736.27	3223.50
736.45	3192.78
736.63	2828.24
736.81	3256.27
736.99	3497.93
737.17	3313.61
737.35	3100.62
737.53	3379.15
737.71	3219.41
737.89	3327.95
738.07	3037.14
738.25	3129.30
738.43	2967.51
738.61	3045.33
738.80	2951.12
738.98	3049.43
739.16	3147.73
739.34	3026.90
739.52	3403.72
739.70	3229.65
739.88	3358.67
740.06	3190.74
740.24	2865.11
740.42	3473.36
740.60	2893.78
740.78	3067.86
740.96	2889.68
741.14	3172.30
741.32	3229.65
741.50	2912.21
741.68	3377.10
741.86	3565.51
742.04	3018.71
742.22	2987.99
742.40	3098.58
742.58	3330.00
742.76	3065.81
742.94	3358.67
743.12	2944.98
743.30	3278.80
743.48	3491.79
743.66	3028.95
743.84	3186.64
744.02	3213.26
744.20	3278.80
744.38	2951.12
744.56	3139.54
744.74	3669.96
744.92	3424.20
745.10	3319.76
745.28	3127.25
745.46	3585.99
745.64	3264.46
745.82	3229.65
746.00	3063.76
746.18	3381.20
746.36	3065.81
746.54	3178.45
746.72	3076.05
746.90	3020.75
747.08	3524.55
747.26	3117.01
747.44	3186.64
747.62	3444.68
747.80	3311.57
747.98	3184.59
748.15	3059.67
748.33	3549.13
748.51	3303.37
748.69	3157.97
748.87	2981.84
749.05	3235.79
749.23	3211.22
749.41	3088.34
749.59	3094.48
749.77	3424.20
749.95	3176.40
750.13	3139.54
750.31	3198.93
750.49	3262.41
750.67	3418.06
750.85	3182.54
751.03	3069.91
751.20	3688.39
751.38	3278.80
751.56	3160.02
751.74	3057.62
751.92	3194.83
752.10	3098.58
752.28	3213.26
752.46	3094.48
752.64	3299.28
752.82	3336.14
753.00	3186.64
753.18	3051.47
753.35	3231.69
753.53	3176.40
753.71	3018.71
753.89	3176.40
754.07	3366.86
754.25	3569.61
754.43	3188.69
754.61	2938.84
754.79	3362.76
754.97	3186.64
755.14	3164.11
755.32	3002.32
755.50	3280.85
755.68	3364.81
755.86	3059.67
756.04	2983.89
756.22	2936.79
756.40	3487.69
756.57	3254.22
756.75	3078.10
756.93	3579.85
757.11	3508.17
757.29	3004.37
757.47	2938.84
757.65	2987.99
757.82	2764.76
758.00	2967.51
758.18	3051.47
758.36	3047.38
758.54	3641.29
758.72	2967.51
758.90	3280.85
759.07	3256.27
759.25	3092.43
759.43	3155.92
759.61	2947.03
759.79	4444.09
759.97	3477.45
760.15	3145.68
760.32	3055.57
760.50	3373.00
760.68	3577.80
760.86	2951.12
761.04	3383.24
761.22	3348.43
761.39	3332.05
761.57	3237.84
761.75	2942.93
761.93	3340.24
762.11	3256.27
762.28	3254.22
762.46	3016.66
762.64	3379.15
762.82	3002.32
763.00	2967.51
763.18	3352.52
763.35	3039.19
763.53	3454.92
763.71	3133.39
763.89	3084.24
764.07	3315.66
764.24	3297.23
764.42	3135.44
764.60	3094.48
764.78	3270.61
764.96	3485.64
765.13	3282.89
765.31	3016.66
765.49	3364.81
765.67	3037.14
765.84	3061.71
766.02	2908.12
766.20	2977.75
766.38	3360.72
766.56	3147.73
766.73	3213.26
766.91	3264.46
767.09	3262.41
767.27	3160.02
767.44	3002.32
767.62	3381.20
767.80	3379.15
767.98	3049.43
768.15	3090.38
768.33	3387.34
768.51	3418.06
768.69	3190.74
768.87	3010.51
769.04	3346.38
769.22	3792.84
769.40	3246.03
769.58	3268.56
769.75	3409.87
769.93	3551.18
770.11	3106.77
770.28	2969.55
770.46	3585.99
770.64	3248.08
770.82	3131.34
770.99	3000.27
771.17	3385.29
771.35	3174.35
771.53	3135.44
771.70	3069.91
771.88	3375.05
772.06	3209.17
772.23	3047.38
772.41	3147.73
772.59	3321.81
772.77	3121.10
772.94	3114.96
773.12	3166.16
773.30	3225.55
773.47	3401.68
773.65	3018.71
773.83	3200.98
774.01	3229.65
774.18	2893.78
774.36	3110.86
774.54	2916.31
774.71	3385.29
774.89	3053.52
775.07	2953.17
775.24	3037.14
775.42	3207.12
775.60	3602.38
775.78	3057.62
775.95	2969.55
776.13	2969.55
776.31	2985.94
776.48	3295.18
776.66	3305.42
776.84	3200.98
777.01	3049.43
777.19	3035.09
777.37	2969.55
777.54	3364.81
777.72	3569.61
777.90	3155.92
778.07	3067.86
778.25	3938.24
778.43	3422.16
778.60	3129.30
778.78	3256.27
778.96	3553.23
779.13	3096.53
779.31	3155.92
779.49	3094.48
779.66	3274.70
779.84	3155.92
780.01	3045.33
780.19	3022.80
780.37	3475.40
780.54	3467.21
780.72	2944.98
780.90	3137.49
781.07	3237.84
781.25	3164.11
781.43	3262.41
781.60	3084.24
781.78	3471.31
781.95	3352.52
782.13	3082.19
782.31	3088.34
782.48	2942.93
782.66	3213.26
782.83	3358.67
783.01	3231.69
783.19	3450.83
783.36	3196.88
783.54	3037.14
783.72	3221.45
783.89	3145.68
784.07	3256.27
784.24	3264.46
784.42	3246.03
784.60	3332.05
784.77	3377.10
784.95	2740.18
785.12	3090.38
785.30	3354.57
785.47	3145.68
785.65	2967.51
785.83	3162.06
786.00	3123.15
786.18	3209.17
786.35	3033.04
786.53	2996.18
786.71	3450.83
786.88	3352.52
787.06	3178.45
787.23	3157.97
787.41	3121.10
787.58	3248.08
787.76	2996.18
787.94	3123.15
788.11	3266.51
788.29	3037.14
788.46	3074.00
788.64	2906.07
788.81	3295.18
788.99	3022.80
789.16	3018.71
789.34	3078.10
789.52	3180.50
789.69	3231.69
789.87	2885.59
790.04	3045.33
790.22	3307.47
790.39	3731.40
790.57	2969.55
790.74	2938.84
790.92	3370.96
791.09	2998.23
791.27	3209.17
791.44	3086.29
791.62	3137.49
791.79	3426.25
791.97	3135.44
792.15	3338.19
792.32	3375.05
792.50	3395.53
792.67	3200.98
792.85	3430.35
793.02	3192.78
793.20	3166.16
793.37	2930.64
793.55	3047.38
793.72	3098.58
793.90	3334.09
794.07	3035.09
794.25	2973.65
794.42	3321.81
794.60	3229.65
794.77	3151.82
794.95	3196.88
795.12	3413.96
795.30	3239.89
795.47	2854.87
795.65	3465.16
795.82	3391.44
796.00	3069.91
796.17	3157.97
796.34	3002.32
796.52	3334.09
796.69	3450.83
796.87	3200.98
797.04	3221.45
797.22	3424.20
797.39	3330.00
797.57	3243.98
797.74	3196.88
797.92	3379.15
798.09	3174.35
798.27	3379.15
798.44	3137.49
798.62	3145.68
798.79	3248.08
798.96	3205.07
799.14	3100.62
799.31	3788.74
799.49	3252.17
799.66	3114.96
799.84	3123.15
800.01	2983.89
800.19	3291.09
800.36	2928.60
800.53	3119.06
800.71	3321.81
800.88	3620.81
801.06	3012.56
801.23	3059.67
801.41	3155.92
801.58	3180.50
801.75	3086.29
801.93	3168.21
802.10	3459.02
802.28	3215.31
802.45	3020.75
802.63	3164.11
802.80	3600.33
802.97	3149.78
803.15	3108.82
803.32	3010.51
803.50	3049.43
803.67	3127.25
803.84	3037.14
804.02	3114.96
804.19	3176.40
804.37	2807.77
804.54	2887.64
804.71	3047.38
804.89	3209.17
805.06	3149.78
805.24	3030.99
805.41	2930.64
805.58	3110.86
805.76	3737.54
805.93	2940.88
806.10	3174.35
806.28	3332.05
806.45	3258.32
806.63	3203.02
806.80	3149.78
806.97	3254.22
807.15	3278.80
807.32	3151.82
807.49	3082.19
807.67	2983.89
807.84	3323.85
808.01	2906.07
808.19	3297.23
808.36	3565.51
808.54	3180.50
808.71	2973.65
808.88	2940.88
809.06	3516.36
809.23	3598.28
809.40	3143.63
809.58	3002.32
809.75	3352.52
809.92	3055.57
810.10	3424.20
810.27	3106.77
810.44	3338.19
810.62	3418.06
810.79	3076.05
810.96	3082.19
811.14	3192.78
811.31	3383.24
811.48	3205.07
811.66	3110.86
811.83	3495.88
812.00	3297.23
812.18	3168.21
812.35	3385.29
812.52	3213.26
812.69	3164.11
812.87	3059.67
813.04	3006.42
813.21	3270.61
813.39	3184.59
813.56	2979.79
813.73	3377.10
813.91	3030.99
814.08	3254.22
814.25	3078.10
814.42	2885.59
814.60	3252.17
814.77	3270.61
814.94	3051.47
815.12	3110.86
815.29	3577.80
815.46	3098.58
815.63	3074.00
815.81	3098.58
815.98	3178.45
816.15	3248.08
816.33	3227.60
816.50	3092.43
816.67	3215.31
816.84	3256.27
817.02	3037.14
817.19	2977.75
817.36	3272.65
817.53	3383.24
817.71	2957.27
817.88	3119.06
818.05	3254.22
818.22	3194.83
818.40	3289.04
818.57	3078.10
818.74	3278.80
818.91	3336.14
819.09	3186.64
819.26	3198.93
819.43	3088.34
819.60	3125.20
819.78	3291.09
819.95	3166.16
820.12	3170.26
820.29	3538.89
820.47	3391.44
820.64	3098.58
820.81	2969.55
820.98	3119.06
821.15	3061.71
821.33	3170.26
821.50	2852.82
821.67	3383.24
821.84	3033.04
822.02	3090.38
822.19	3395.53
822.36	3155.92
822.53	2932.69
822.70	2957.27
822.88	3235.79
823.05	3506.12
823.22	3166.16
823.39	3086.29
823.56	3346.38
823.74	3608.52
823.91	2926.55
824.08	2992.08
824.25	3055.57
824.42	3514.31
824.60	2975.70
824.77	3141.58
824.94	3194.83
825.11	3385.29
825.28	2869.20
825.45	3270.61
825.63	3311.57
825.80	3141.58
825.97	3157.97
826.14	3100.62
826.31	3012.56
826.48	3452.88
826.66	3043.28
826.83	3010.51
827.00	3215.31
827.17	3059.67
827.34	3059.67
827.51	3020.75
827.69	3248.08
827.86	2934.74
828.03	3196.88
828.20	3117.01
828.37	3219.41
828.54	3311.57
828.71	3002.32
828.89	3170.26
829.06	3309.52
829.23	3651.53
829.40	3049.43
829.57	3008.47
829.74	3405.77
829.91	3129.30
830.09	3059.67
830.26	3235.79
830.43	3528.65
830.60	3223.50
830.77	3149.78
830.94	3248.08
831.11	3381.20
831.28	3196.88
831.46	3182.54
831.63	3080.14
831.80	3555.27
831.97	3155.92
832.14	3020.75
832.31	3133.39
832.48	3241.93
832.65	3473.36
832.82	3266.51
832.99	3131.34
833.17	3053.52
833.34	3536.84
833.51	3059.67
833.68	2856.92
833.85	3551.18
834.02	3059.67
834.19	3053.52
834.36	3082.19
834.53	3391.44
834.70	3377.10
834.87	3039.19
835.04	2787.29
835.22	3153.87
835.39	3198.93
835.56	2922.45
835.73	2930.64
835.90	3401.68
836.07	3164.11
836.24	3114.96
836.41	2852.82
836.58	3110.86
836.75	3524.55
836.92	2947.03
837.09	2842.58
837.26	3434.44
837.43	3373.00
837.60	2979.79
837.77	2942.93
837.94	3352.52
838.12	3491.79
838.29	2842.58
838.46	2830.29
838.63	3053.52
838.80	3540.94
838.97	2971.60
839.14	2891.73
839.31	3311.57
839.48	3391.44
839.65	2963.41
839.82	3028.95
839.99	3291.09
840.16	3282.89
840.33	2867.16
840.50	2938.84
840.67	3047.38
840.84	2781.14
841.01	2904.02
841.18	2928.60
841.35	3223.50
841.52	3424.20
841.69	3305.42
841.86	2953.17
842.03	3182.54
842.20	3475.40
842.37	2924.50
842.54	2910.16
842.71	3213.26
842.88	2975.70
843.05	2934.74
843.22	2901.97
843.39	3448.78
843.56	3061.71
843.73	2885.59
843.90	2983.89
844.07	3229.65
844.24	3418.06
844.41	3043.28
844.58	2934.74
844.75	3286.99
844.92	3286.99
845.09	2934.74
845.26	2983.89
845.43	3381.20
845.60	3182.54
845.77	3057.62
845.94	2910.16
846.10	3426.25
846.27	2992.08
846.44	2873.30
846.61	2848.72
846.78	3401.68
846.95	3465.16
847.12	2852.82
847.29	3000.27
847.46	3102.67
847.63	3418.06
847.80	2846.68
847.97	2983.89
848.14	3649.48
848.31	3241.93
848.48	2754.52
848.65	2949.08
848.82	3082.19
848.98	3772.36
849.15	3065.81
849.32	3053.52
849.49	3524.55
849.66	3268.56
849.83	2901.97
850.00	2885.59
850.17	3438.54
850.34	3155.92
850.51	2828.24
850.68	2938.84
850.85	3712.97
851.01	3385.29
851.18	2889.68
851.35	2936.79
851.52	3317.71
851.69	3522.51
851.86	2803.67
852.03	2922.45
852.20	3305.42
852.37	3258.32
852.53	2807.77
852.70	2824.15
852.87	3280.85
853.04	3360.72
853.21	2940.88
853.38	3223.50
853.55	3565.51
853.72	3532.75
853.89	2815.96
854.05	2918.36
854.22	3227.60
854.39	3188.69
854.56	2871.25
854.73	3090.38
854.90	3135.44
855.07	3246.03
855.23	2807.77
855.40	2856.92
855.57	3254.22
855.74	2783.19
855.91	3137.49
856.08	2740.18
856.25	2959.31
856.41	3114.96
856.58	2899.92
856.75	2975.70
856.92	2990.03
857.09	3397.58
857.26	2688.98
857.42	2967.51
857.59	3297.23
857.76	3198.93
857.93	2893.78
858.10	2971.60
858.27	3071.95
858.43	3278.80
858.60	2942.93
858.77	2711.51
858.94	3188.69
859.11	3434.44
859.27	3024.85
859.44	2889.68
859.61	3715.02
859.78	3413.96
859.95	2922.45
860.12	2783.19
860.28	3715.02
860.45	3633.10
860.62	2887.64
860.79	3020.75
860.95	3147.73
861.12	3051.47
861.29	2754.52
861.46	2944.98
861.63	3186.64
861.79	3352.52
861.96	2844.63
862.13	2897.88
862.30	3477.45
862.47	3078.10
862.63	2797.53
862.80	2914.26
862.97	3373.00
863.14	3338.19
863.30	2947.03
863.47	2805.72
863.64	3655.62
863.81	3348.43
863.97	2717.65
864.14	2951.12
864.31	3272.65
864.48	3278.80
864.65	2885.59
864.81	2987.99
864.98	3397.58
865.15	3459.02
865.32	3008.47
865.48	3012.56
865.65	3583.95
865.82	3123.15
865.98	3051.47
866.15	2994.13
866.32	3252.17
866.49	3254.22
866.65	3074.00
866.82	2893.78
866.99	3258.32
867.16	2998.23
867.32	2928.60
867.49	2781.14
867.66	3205.07
867.83	3028.95
867.99	2873.30
868.16	2961.36
868.33	3012.56
868.49	3221.45
868.66	2924.50
868.83	3045.33
868.99	3315.66
869.16	3256.27
869.33	3096.53
869.50	3028.95
869.66	3368.91
869.83	3139.54
870.00	2813.91
870.16	3084.24
870.33	3180.50
870.50	3456.97
870.66	3000.27
870.83	2965.46
871.00	3260.37
871.17	3342.28
871.33	3026.90
871.50	2891.73
871.67	3223.50
871.83	3153.87
872.00	3078.10
872.17	2957.27
872.33	3659.72
872.50	3538.89
872.67	2904.02
872.83	2893.78
873.00	3354.57
873.17	3360.72
873.33	2967.51
873.50	2987.99
873.67	3098.58
873.83	3114.96
874.00	2844.63
874.16	3135.44
874.33	3237.84
874.50	3041.23
874.66	2830.29
874.83	3018.71
875.00	3467.21
875.16	3475.40
875.33	3080.14
875.50	2707.41
875.66	3125.20
875.83	3315.66
875.99	2928.60
876.16	3035.09
876.33	3082.19
876.49	3200.98
876.66	3022.80
876.83	2963.41
876.99	2973.65
877.16	3200.98
877.32	2887.64
877.49	3008.47
877.66	3356.62
877.82	3518.41
877.99	2994.13
878.15	3217.36
878.32	3258.32
878.49	3489.74
878.65	2994.13
878.82	3168.21
878.98	3135.44
879.15	3518.41
879.32	3096.53
879.48	3137.49
879.65	3250.13
879.81	3160.02
879.98	2904.02
880.15	3008.47
880.31	3442.64
880.48	3157.97
880.64	3035.09
880.81	3051.47
880.97	3608.52
881.14	3422.16
881.31	2877.40
881.47	3135.44
881.64	3231.69
881.80	2971.60
881.97	3174.35
882.13	2944.98
882.30	3065.81
882.47	3207.12
882.63	2887.64
882.80	2893.78
882.96	3137.49
883.13	3397.58
883.29	2938.84
883.46	2863.06
883.62	3778.50
883.79	3319.76
883.95	3176.40
884.12	2881.49
884.29	3473.36
884.45	3389.39
884.62	2955.22
884.78	2893.78
884.95	3540.94
885.11	3012.56
885.28	2924.50
885.44	2987.99
885.61	3416.01
885.77	3583.95
885.94	3022.80
886.10	2990.03
886.27	3321.81
886.43	3680.20
886.60	3119.06
886.76	2926.55
886.93	3094.48
887.09	3358.67
887.26	2803.67
887.42	3016.66
887.59	3522.51
887.75	3733.45
887.92	3129.30
888.08	3033.04
888.25	3620.81
888.41	3444.68
888.58	3028.95
888.74	2852.82
888.91	3129.30
>>>>>End Processed Spectral Data<<<<<
