SpectraSuite Data File
++++++++++++++++++++++++++++++++++++
Date: Fri May 06 08:14:00 CEST 2016
User: root
Dark Spectrum Present: No
Reference Spectrum Present: No
Number of Sampled Component Spectra: 1
Spectrometers: USB4C02835
Integration Time (usec): 100000 (USB4C02835)
Spectra Averaged: 1 (USB4C02835)
Boxcar Smoothing: 0 (USB4C02835)
Correct for Electrical Dark: No (USB4C02835)
Strobe/Lamp Enabled: No (USB4C02835)
Correct for Detector Non-linearity: No (USB4C02835)
Correct for Stray Light: No (USB4C02835)
Number of Pixels in Processed Spectrum: 3648
>>>>>Begin Processed Spectral Data<<<<<
177.47	2295.77
177.69	2295.77
177.91	2295.77
178.13	2285.53
178.36	2238.43
178.58	3012.56
178.80	3153.87
179.02	2955.22
179.24	3026.90
179.46	2801.62
179.68	2775.00
179.90	3258.32
180.13	3274.70
180.35	2680.79
180.57	2811.86
180.79	3459.02
181.01	3252.17
181.23	2942.93
181.45	3037.14
181.67	3475.40
181.90	3418.06
182.12	2947.03
182.34	2684.89
182.56	3436.49
182.78	3362.76
183.00	2873.30
183.22	2871.25
183.44	2904.02
183.66	3882.95
183.89	2918.36
184.11	2811.86
184.33	3491.79
184.55	3428.30
184.77	2881.49
184.99	2906.07
185.21	3225.55
185.43	3782.60
185.65	2891.73
185.87	2893.78
186.10	3758.02
186.32	3731.40
186.54	2981.84
186.76	2942.93
186.98	3518.41
187.20	3327.95
187.42	2895.83
187.64	2822.10
187.86	3416.01
188.08	3524.55
188.30	2738.13
188.52	2867.16
188.75	3506.12
188.97	3518.41
189.19	2838.48
189.41	2820.05
189.63	3373.00
189.85	3184.59
190.07	2742.23
190.29	2697.17
190.51	3346.38
190.73	2959.31
190.95	3028.95
191.17	2908.12
191.39	2938.84
191.61	3172.30
191.84	2897.88
192.06	3053.52
192.28	2936.79
192.50	3958.72
192.72	3033.04
192.94	2985.94
193.16	3471.31
193.38	3330.00
193.60	2758.61
193.82	3047.38
194.04	3520.46
194.26	3387.34
194.48	2996.18
194.70	2908.12
194.92	3155.92
195.14	3377.10
195.36	2867.16
195.58	3018.71
195.80	3203.02
196.02	3125.20
196.24	2822.10
196.46	2934.74
196.69	3047.38
196.91	3766.21
197.13	2965.46
197.35	2904.02
197.57	3600.33
197.79	3409.87
198.01	2975.70
198.23	2906.07
198.45	3381.20
198.67	3030.99
198.89	2713.56
199.11	2953.17
199.33	3080.14
199.55	2809.81
199.77	2807.77
199.99	3049.43
200.21	3231.69
200.43	3454.92
200.65	2731.99
200.87	2789.33
201.09	3315.66
201.31	3164.11
201.53	2885.59
201.75	2949.08
201.97	3346.38
202.19	3299.28
202.41	2920.40
202.63	2979.79
202.85	3413.96
203.07	3340.24
203.29	2959.31
203.51	2684.89
203.73	3147.73
203.95	3813.32
204.17	2826.20
204.39	3022.80
204.61	3276.75
204.83	3178.45
205.05	3010.51
205.27	2863.06
205.49	3737.54
205.71	3256.27
205.93	2766.81
206.15	2729.94
206.37	3305.42
206.59	3221.45
206.81	2711.51
207.03	2746.33
207.25	3231.69
207.47	3377.10
207.69	2901.97
207.91	3123.15
208.13	3561.42
208.34	3131.34
208.56	2863.06
208.78	2912.21
209.00	3223.50
209.22	3135.44
209.44	2899.92
209.66	2877.40
209.88	3231.69
210.10	3233.74
210.32	2877.40
210.54	2924.50
210.76	3239.89
210.98	3540.94
211.20	2777.05
211.42	2981.84
211.64	3579.85
211.86	3411.92
212.08	2942.93
212.30	2908.12
212.52	3262.41
212.74	3424.20
212.96	2961.36
213.17	2955.22
213.39	3424.20
213.61	3684.30
213.83	2895.83
214.05	2721.75
214.27	3422.16
214.49	3147.73
214.71	2820.05
214.93	2965.46
215.15	3295.18
215.37	3483.59
215.59	2766.81
215.81	2947.03
216.03	3608.52
216.24	3350.48
216.46	2893.78
216.68	2893.78
216.90	3512.27
217.12	3440.59
217.34	2793.43
217.56	3010.51
217.78	3583.95
218.00	3397.58
218.22	3063.76
218.44	2975.70
218.66	3346.38
218.87	3719.11
219.09	2858.96
219.31	2867.16
219.53	3370.96
219.75	3192.78
219.97	2949.08
220.19	2875.35
220.41	3276.75
220.63	3499.98
220.85	2828.24
221.06	2885.59
221.28	3588.04
221.50	3424.20
221.72	2822.10
221.94	2795.48
222.16	3237.84
222.38	3446.73
222.60	2930.64
222.82	2947.03
223.03	3565.51
223.25	3192.78
223.47	2930.64
223.69	3135.44
223.91	3553.23
224.13	3297.23
224.35	2834.39
224.57	3080.14
224.78	3403.72
225.00	3182.54
225.22	2985.94
225.44	2858.96
225.66	3422.16
225.88	3213.26
226.10	3100.62
226.32	2965.46
226.53	3442.64
226.75	3188.69
226.97	2850.77
227.19	2926.55
227.41	3147.73
227.63	3174.35
227.85	2729.94
228.06	2930.64
228.28	3336.14
228.50	3442.64
228.72	2686.94
228.94	2818.00
229.16	2987.99
229.37	3114.96
229.59	2764.76
229.81	3127.25
230.03	3170.26
230.25	3014.61
230.47	2676.70
230.69	2858.96
230.90	3397.58
231.12	3110.86
231.34	2914.26
231.56	2998.23
231.78	3065.81
232.00	3301.33
232.21	2893.78
232.43	2830.29
232.65	2914.26
232.87	3342.28
233.09	2775.00
233.30	2840.53
233.52	3577.80
233.74	3174.35
233.96	2799.57
234.18	3135.44
234.40	3270.61
234.61	3708.87
234.83	2713.56
235.05	2820.05
235.27	3780.55
235.49	3499.98
235.70	2742.23
235.92	3006.42
236.14	3440.59
236.36	3745.73
236.58	2756.57
236.79	2926.55
237.01	3260.37
237.23	3319.76
237.45	3082.19
237.67	2940.88
237.88	3375.05
238.10	3688.39
238.32	2744.28
238.54	2877.40
238.76	3266.51
238.97	3063.76
239.19	2828.24
239.41	2953.17
239.63	3467.21
239.85	3176.40
240.06	2922.45
240.28	2920.40
240.50	3583.95
240.72	3190.74
240.93	2801.62
241.15	3039.19
241.37	3203.02
241.59	3569.61
241.81	2871.25
242.02	2901.97
242.24	3370.96
242.46	3405.77
242.68	2748.37
242.89	2830.29
243.11	3479.50
243.33	3264.46
243.55	2789.33
243.76	2826.20
243.98	3143.63
244.20	3258.32
244.42	2861.01
244.64	2811.86
244.85	3053.52
245.07	3041.23
245.29	2887.64
245.51	2899.92
245.72	3319.76
245.94	3444.68
246.16	2828.24
246.38	2969.55
246.59	3227.60
246.81	3149.78
247.03	2768.85
247.24	2756.57
247.46	3205.07
247.68	3248.08
247.90	2811.86
248.11	2889.68
248.33	3420.11
248.55	3346.38
248.77	2885.59
248.98	2953.17
249.20	3663.82
249.42	3358.67
249.64	2828.24
249.85	2875.35
250.07	3176.40
250.29	3432.40
250.50	2949.08
250.72	2805.72
250.94	3342.28
251.16	3751.88
251.37	2838.48
251.59	2963.41
251.81	3393.48
252.02	3620.81
252.24	2803.67
252.46	2985.94
252.68	3143.63
252.89	3129.30
253.11	2670.55
253.33	2955.22
253.54	3659.72
253.76	3033.04
253.98	2912.21
254.20	2826.20
254.41	2965.46
254.63	3256.27
254.85	2711.51
255.06	3051.47
255.28	3332.05
255.50	3209.17
255.71	2787.29
255.93	2717.65
256.15	3264.46
256.36	3409.87
256.58	2713.56
256.80	2832.34
257.02	3223.50
257.23	3178.45
257.45	2824.15
257.67	2934.74
257.88	3200.98
258.10	3377.10
258.32	2772.95
258.53	2910.16
258.75	3583.95
258.97	3180.50
259.18	2764.76
259.40	2756.57
259.62	3672.01
259.83	3545.03
260.05	2912.21
260.27	3776.45
260.48	3495.88
260.70	3006.42
260.92	2840.53
261.13	2910.16
261.35	3313.61
261.57	3373.00
261.78	2691.03
262.00	2770.90
262.22	3428.30
262.43	3082.19
262.65	2815.96
262.86	2803.67
263.08	3876.80
263.30	3295.18
263.51	2740.18
263.73	2805.72
263.95	3663.82
264.16	3123.15
264.38	2738.13
264.60	2779.09
264.81	3229.65
265.03	3426.25
265.25	3264.46
265.46	2861.01
265.68	3569.61
265.89	3479.50
266.11	2670.55
266.33	2779.09
266.54	3510.22
266.76	3411.92
266.98	2926.55
267.19	3084.24
267.41	3528.65
267.62	3246.03
267.84	2729.94
268.06	3035.09
268.27	3274.70
268.49	3510.22
268.70	2979.79
268.92	2885.59
269.14	3127.25
269.35	3049.43
269.57	2996.18
269.79	2869.20
270.00	3137.49
270.22	3583.95
270.43	2799.57
270.65	2770.90
270.87	3317.71
271.08	3385.29
271.30	2947.03
271.51	2891.73
271.73	3383.24
271.95	3645.38
272.16	2856.92
272.38	2973.65
272.59	3166.16
272.81	3383.24
273.02	2879.44
273.24	2889.68
273.46	3499.98
273.67	3020.75
273.89	2785.24
274.10	2787.29
274.32	3565.51
274.54	3362.76
274.75	2955.22
274.97	2967.51
275.18	3465.16
275.40	3442.64
275.61	2922.45
275.83	2998.23
276.05	2981.84
276.26	3239.89
276.48	2994.13
276.69	3030.99
276.91	3182.54
277.12	3577.80
277.34	3094.48
277.55	3147.73
277.77	3241.93
277.99	3272.65
278.20	2971.60
278.42	2891.73
278.63	3110.86
278.85	3090.38
279.06	2961.36
279.28	3043.28
279.49	3428.30
279.71	3413.96
279.93	3057.62
280.14	3026.90
280.36	3186.64
280.57	3499.98
280.79	3094.48
281.00	2975.70
281.22	3162.06
281.43	3485.64
281.65	2762.71
281.86	2904.02
282.08	3430.35
282.29	3598.28
282.51	2824.15
282.73	2807.77
282.94	2938.84
283.16	3469.26
283.37	3057.62
283.59	2926.55
283.80	3325.90
284.02	3319.76
284.23	3033.04
284.45	3037.14
284.66	3147.73
284.88	3133.39
285.09	2920.40
285.31	3164.11
285.52	3413.96
285.74	2996.18
285.95	3217.36
286.17	3022.80
286.38	3514.31
286.60	3239.89
286.81	2922.45
287.03	2957.27
287.24	3303.37
287.46	3411.92
287.67	3045.33
287.89	3119.06
288.10	3256.27
288.32	3373.00
288.53	3119.06
288.75	3057.62
288.96	3454.92
289.18	3117.01
289.39	2953.17
289.61	3016.66
289.82	3719.11
290.04	3590.09
290.25	2934.74
290.47	3139.54
290.68	3260.37
290.90	3426.25
291.11	2738.13
291.33	3207.12
291.54	3127.25
291.76	3170.26
291.97	3153.87
292.18	3035.09
292.40	3110.86
292.61	3160.02
292.83	3272.65
293.04	3000.27
293.26	3264.46
293.47	3172.30
293.69	2906.07
293.90	2891.73
294.12	3598.28
294.33	3336.14
294.55	3057.62
294.76	3225.55
294.97	3616.71
295.19	3741.64
295.40	2897.88
295.62	3041.23
295.83	3391.44
296.05	3149.78
296.26	3176.40
296.48	3002.32
296.69	3225.55
296.90	3241.93
297.12	3131.34
297.33	3084.24
297.55	3303.37
297.76	3377.10
297.98	3057.62
298.19	3127.25
298.41	3278.80
298.62	3084.24
298.83	3162.06
299.05	3110.86
299.26	3258.32
299.48	3102.67
299.69	3110.86
299.90	3000.27
300.12	3086.29
300.33	3391.44
300.55	3012.56
300.76	3043.28
300.98	3110.86
301.19	3426.25
301.40	2967.51
301.62	2959.31
301.83	3395.53
302.05	3219.41
302.26	3026.90
302.47	3063.76
302.69	3092.43
302.90	3272.65
303.12	2834.39
303.33	3182.54
303.54	3731.40
303.76	3125.20
303.97	2936.79
304.19	3237.84
304.40	3080.14
304.61	3391.44
304.83	3061.71
305.04	3086.29
305.26	3409.87
305.47	3149.78
305.68	2996.18
305.90	2906.07
306.11	3493.83
306.33	3305.42
306.54	2881.49
306.75	2971.60
306.97	3008.47
307.18	3121.10
307.39	2975.70
307.61	3096.53
307.82	3198.93
308.04	3317.71
308.25	2891.73
308.46	3108.82
308.68	3309.52
308.89	3334.09
309.10	3055.57
309.32	3030.99
309.53	3237.84
309.74	3467.21
309.96	2871.25
310.17	3049.43
310.39	3223.50
310.60	3332.05
310.81	3037.14
311.03	2951.12
311.24	3391.44
311.45	3280.85
311.67	3178.45
311.88	3121.10
312.09	3229.65
312.31	3104.72
312.52	2963.41
312.73	2996.18
312.95	3022.80
313.16	3028.95
313.37	3174.35
313.59	3209.17
313.80	3471.31
314.01	3563.47
314.23	3014.61
314.44	2969.55
314.65	2990.03
314.87	3082.19
315.08	2928.60
315.29	2992.08
315.51	3102.67
315.72	3012.56
315.93	3084.24
316.15	3024.85
316.36	3209.17
316.57	3389.39
316.79	2971.60
317.00	2963.41
317.21	3383.24
317.43	3123.15
317.64	3028.95
317.85	2906.07
318.07	3129.30
318.28	3198.93
318.49	3112.91
318.70	3286.99
318.92	3352.52
319.13	3426.25
319.34	3219.41
319.56	3022.80
319.77	3330.00
319.98	3416.01
320.20	3319.76
320.41	3164.11
320.62	3385.29
320.83	3166.16
321.05	3180.50
321.26	2994.13
321.47	3327.95
321.69	3585.99
321.90	2877.40
322.11	2938.84
322.32	3360.72
322.54	3508.17
322.75	3035.09
322.96	3983.30
323.18	2947.03
323.39	2877.40
323.60	2963.41
323.81	3155.92
324.03	3172.30
324.24	3235.79
324.45	3127.25
324.66	2863.06
324.88	3542.99
325.09	3620.81
325.30	2918.36
325.52	2881.49
325.73	3393.48
325.94	3069.91
326.15	2912.21
326.37	2877.40
326.58	3516.36
326.79	3659.72
327.00	2963.41
327.22	3020.75
327.43	3229.65
327.64	3096.53
327.85	3096.53
328.07	2992.08
328.28	3618.76
328.49	3151.82
328.70	3024.85
328.92	2955.22
329.13	3303.37
329.34	3434.44
329.55	3264.46
329.76	3166.16
329.98	3170.26
330.19	3620.81
330.40	3076.05
330.61	3151.82
330.83	3438.54
331.04	3110.86
331.25	3131.34
331.46	3098.58
331.68	3047.38
331.89	3502.03
332.10	3071.95
332.31	2908.12
332.52	3264.46
332.74	3483.59
332.95	2912.21
333.16	3082.19
333.37	3411.92
333.58	3157.97
333.80	2992.08
334.01	2836.44
334.22	3221.45
334.43	3162.06
334.64	2926.55
334.86	2951.12
335.07	3074.00
335.28	3600.33
335.49	2828.24
335.70	3049.43
335.92	3551.18
336.13	3663.82
336.34	3063.76
336.55	3012.56
336.76	3366.86
336.98	2832.34
337.19	2973.65
337.40	3110.86
337.61	3815.37
337.82	3264.46
338.04	3078.10
338.25	2840.53
338.46	3299.28
338.67	3233.74
338.88	2916.31
339.09	2928.60
339.31	3184.59
339.52	3024.85
339.73	2899.92
339.94	3037.14
340.15	3459.02
340.36	3219.41
340.58	3016.66
340.79	2926.55
341.00	3389.39
341.21	3071.95
341.42	3200.98
341.63	3026.90
341.85	3444.68
342.06	3309.52
342.27	2955.22
342.48	3256.27
342.69	2996.18
342.90	3327.95
343.12	3379.15
343.33	2861.01
343.54	3577.80
343.75	3573.71
343.96	3067.86
344.17	2918.36
344.38	3147.73
344.60	3123.15
344.81	2953.17
345.02	3043.28
345.23	3616.71
345.44	3723.21
345.65	2938.84
345.86	2987.99
346.07	3344.33
346.29	3129.30
346.50	3121.10
346.71	3035.09
346.92	3450.83
347.13	3725.26
347.34	3102.67
347.55	2779.09
347.76	3381.20
347.98	3000.27
348.19	3063.76
348.40	3164.11
348.61	3231.69
348.82	3622.86
349.03	3057.62
349.24	2844.63
349.45	3645.38
349.66	2947.03
349.88	2926.55
350.09	2955.22
350.30	3475.40
350.51	3438.54
350.72	3266.51
350.93	3043.28
351.14	3311.57
351.35	3424.20
351.56	2951.12
351.77	3074.00
351.99	3305.42
352.20	3575.75
352.41	3131.34
352.62	2838.48
352.83	3286.99
353.04	3272.65
353.25	3000.27
353.46	3106.77
353.67	3499.98
353.88	2928.60
354.09	2936.79
354.30	3110.86
354.52	3409.87
354.73	3237.84
354.94	2926.55
355.15	3127.25
355.36	3708.87
355.57	3162.06
355.78	2928.60
355.99	2836.44
356.20	3274.70
356.41	3532.75
356.62	3100.62
356.83	3033.04
357.04	3493.83
357.25	3020.75
357.46	2920.40
357.68	2947.03
357.89	3082.19
358.10	3252.17
358.31	2938.84
358.52	3020.75
358.73	3012.56
358.94	3084.24
359.15	2965.46
359.36	2977.75
359.57	3262.41
359.78	3223.50
359.99	3157.97
360.20	2848.72
360.41	3219.41
360.62	3356.62
360.83	3067.86
361.04	3024.85
361.25	3381.20
361.46	3549.13
361.67	3110.86
361.88	2961.36
362.09	3428.30
362.30	3424.20
362.51	2959.31
362.72	3094.48
362.93	3413.96
363.14	3336.14
363.35	3123.15
363.56	2914.26
363.78	3487.69
363.99	3483.59
364.20	3006.42
364.41	3112.91
364.62	3624.90
364.83	3323.85
365.04	2987.99
365.25	2996.18
365.46	3774.41
365.67	3151.82
365.88	3186.64
366.09	2975.70
366.30	3231.69
366.51	3237.84
366.72	2973.65
366.93	2983.89
367.14	3297.23
367.35	3540.94
367.56	2942.93
367.77	3176.40
367.98	3340.24
368.18	3416.01
368.39	3090.38
368.60	2977.75
368.81	3379.15
369.02	3373.00
369.23	2981.84
369.44	2891.73
369.65	3188.69
369.86	3354.57
370.07	3088.34
370.28	2889.68
370.49	3250.13
370.70	3393.48
370.91	2951.12
371.12	2889.68
371.33	3499.98
371.54	3155.92
371.75	3155.92
371.96	2770.90
372.17	3364.81
372.38	3215.31
372.59	3059.67
372.80	3008.47
373.01	3246.03
373.22	3315.66
373.43	2998.23
373.64	2949.08
373.85	3514.31
374.06	3631.05
374.26	3149.78
374.47	3170.26
374.68	3612.62
374.89	3346.38
375.10	2957.27
375.31	3082.19
375.52	3334.09
375.73	3297.23
375.94	2879.44
376.15	3147.73
376.36	3033.04
376.57	3231.69
376.78	3022.80
376.99	3014.61
377.20	3469.26
377.40	3155.92
377.61	3268.56
377.82	2947.03
378.03	3567.56
378.24	3379.15
378.45	3141.58
378.66	3092.43
378.87	2994.13
379.08	3047.38
379.29	3045.33
379.50	3172.30
379.71	3282.89
379.91	3327.95
380.12	2975.70
380.33	3098.58
380.54	3321.81
380.75	3266.51
380.96	2959.31
381.17	3096.53
381.38	3194.83
381.59	3252.17
381.80	3074.00
382.00	3227.60
382.21	3416.01
382.42	3573.71
382.63	3422.16
382.84	3231.69
383.05	3454.92
383.26	3585.99
383.47	3108.82
383.68	2959.31
383.88	3442.64
384.09	3323.85
384.30	3284.94
384.51	3090.38
384.72	3155.92
384.93	3041.23
385.14	3084.24
385.35	3241.93
385.55	3016.66
385.76	3542.99
385.97	2990.03
386.18	2906.07
386.39	3047.38
386.60	3155.92
386.81	3000.27
387.02	2912.21
387.22	3049.43
387.43	3450.83
387.64	3139.54
387.85	3276.75
388.06	3303.37
388.27	4450.24
388.48	7956.36
388.68	12238.66
388.89	15486.74
389.10	16652.03
389.31	16336.65
389.52	13182.77
389.73	11331.41
389.93	10389.35
390.14	9316.21
390.35	8615.80
390.56	8011.65
390.77	6528.92
390.98	4988.85
391.18	4169.66
391.39	3844.04
391.60	3313.61
391.81	3205.07
392.02	3139.54
392.23	3743.69
392.43	3389.39
392.64	3137.49
392.85	3164.11
393.06	3581.90
393.27	3291.09
393.47	2944.98
393.68	3160.02
393.89	3192.78
394.10	3506.12
394.31	3028.95
394.52	2975.70
394.72	3205.07
394.93	3561.42
395.14	3039.19
395.35	3092.43
395.56	3108.82
395.76	3258.32
395.97	2947.03
396.18	3164.11
396.39	3280.85
396.60	3895.24
396.80	3424.20
397.01	3360.72
397.22	3387.34
397.43	3508.17
397.64	3000.27
397.84	3188.69
398.05	3698.63
398.26	3243.98
398.47	3198.93
398.67	3211.22
398.88	3233.74
399.09	3452.88
399.30	3059.67
399.51	3074.00
399.71	3164.11
399.92	3305.42
400.13	3135.44
400.34	3045.33
400.54	3282.89
400.75	3602.38
400.96	3188.69
401.17	3221.45
401.37	3309.52
401.58	3231.69
401.79	3000.27
402.00	3196.88
402.21	3798.98
402.41	3545.03
402.62	3440.59
402.83	3459.02
403.04	3676.10
403.24	4087.75
403.45	3223.50
403.66	3327.95
403.87	3487.69
404.07	3657.67
404.28	3280.85
404.49	3325.90
404.70	3373.00
404.90	3475.40
405.11	3055.57
405.32	3174.35
405.52	3157.97
405.73	3182.54
405.94	2985.94
406.15	3065.81
406.35	3409.87
406.56	3467.21
406.77	3119.06
406.98	3016.66
407.18	3114.96
407.39	3614.66
407.60	3086.29
407.80	3123.15
408.01	3157.97
408.22	3436.49
408.43	2967.51
408.63	3213.26
408.84	3495.88
409.05	3407.82
409.25	2881.49
409.46	3065.81
409.67	3229.65
409.88	3155.92
410.08	3137.49
410.29	3047.38
410.50	3373.00
410.70	3418.06
410.91	2947.03
411.12	3155.92
411.32	3264.46
411.53	3110.86
411.74	3022.80
411.95	3153.87
412.15	3190.74
412.36	3485.64
412.57	3209.17
412.77	3309.52
412.98	3330.00
413.19	3205.07
413.39	3213.26
413.60	3114.96
413.81	3581.90
414.01	3102.67
414.22	3059.67
414.43	3303.37
414.63	3133.39
414.84	3590.09
415.05	3135.44
415.25	2953.17
415.46	3360.72
415.67	3139.54
415.87	3065.81
416.08	3028.95
416.29	3219.41
416.49	3401.68
416.70	3112.91
416.91	3067.86
417.11	3239.89
417.32	3471.31
417.53	3110.86
417.73	3155.92
417.94	3262.41
418.15	3268.56
418.35	3106.77
418.56	3057.62
418.77	3704.78
418.97	3268.56
419.18	3160.02
419.38	2820.05
419.59	3225.55
419.80	3592.14
420.00	2922.45
420.21	3119.06
420.42	3467.21
420.62	3370.96
420.83	3028.95
421.04	3059.67
421.24	3250.13
421.45	3397.58
421.65	3090.38
421.86	3082.19
422.07	3454.92
422.27	3360.72
422.48	2994.13
422.69	2877.40
422.89	3256.27
423.10	3172.30
423.30	2977.75
423.51	3131.34
423.72	3370.96
423.92	3379.15
424.13	2975.70
424.33	3151.82
424.54	3485.64
424.75	3272.65
424.95	3311.57
425.16	3016.66
425.36	3186.64
425.57	3495.88
425.78	3203.02
425.98	3180.50
426.19	3309.52
426.39	3110.86
426.60	3149.78
426.81	3145.68
427.01	3383.24
427.22	3051.47
427.42	2875.35
427.63	2983.89
427.83	3481.55
428.04	3690.44
428.25	3061.71
428.45	3221.45
428.66	3446.73
428.86	3221.45
429.07	3121.10
429.28	3076.05
429.48	3233.74
429.69	3129.30
429.89	3174.35
430.10	3106.77
430.30	3436.49
430.51	3532.75
430.71	2981.84
430.92	3157.97
431.13	3131.34
431.33	3368.91
431.54	3084.24
431.74	3180.50
431.95	3766.21
432.15	3123.15
432.36	3080.14
432.56	3135.44
432.77	3676.10
432.98	3649.48
433.18	3059.67
433.39	2963.41
433.59	3174.35
433.80	3631.05
434.00	3268.56
434.21	3076.05
434.41	3172.30
434.62	3729.35
434.82	2912.21
435.03	3012.56
435.23	3336.14
435.44	2959.31
435.64	3024.85
435.85	3102.67
436.06	3479.50
436.26	3487.69
436.47	3092.43
436.67	3002.32
436.88	3229.65
437.08	3588.04
437.29	3176.40
437.49	3160.02
437.70	3588.04
437.90	3229.65
438.11	3270.61
438.31	3151.82
438.52	3663.82
438.72	3467.21
438.93	3448.78
439.13	3160.02
439.34	3444.68
439.54	3227.60
439.75	3243.98
439.95	3217.36
440.16	3067.86
440.36	3254.22
440.57	3102.67
440.77	3074.00
440.98	3297.23
441.18	3327.95
441.39	2914.26
441.59	2959.31
441.80	3710.92
442.00	3241.93
442.21	3135.44
442.41	2963.41
442.62	3440.59
442.82	3069.91
443.02	3104.72
443.23	3082.19
443.43	3143.63
443.64	3422.16
443.84	2861.01
444.05	3160.02
444.25	3352.52
444.46	3223.50
444.66	3080.14
444.87	3305.42
445.07	3053.52
445.28	3213.26
445.48	3246.03
445.69	3139.54
445.89	3866.56
446.09	3272.65
446.30	3426.25
446.50	3516.36
446.71	5101.49
446.91	6440.86
447.12	7253.91
447.32	7745.42
447.53	7692.17
447.73	6471.58
447.93	5556.14
448.14	5386.16
448.34	5472.17
448.55	4544.44
448.75	4530.11
448.96	4222.91
449.16	4093.89
449.36	3874.76
449.57	3362.76
449.77	3139.54
449.98	3188.69
450.18	3403.72
450.39	2961.36
450.59	3327.95
450.79	3282.89
451.00	3151.82
451.20	3254.22
451.41	3131.34
451.61	3327.95
451.81	3235.79
452.02	3047.38
452.22	3084.24
452.43	3178.45
452.63	3102.67
452.84	3100.62
453.04	3039.19
453.24	3354.57
453.45	3131.34
453.65	3069.91
453.86	3102.67
454.06	3409.87
454.26	3248.08
454.47	3059.67
454.67	3272.65
454.87	3432.40
455.08	3268.56
455.28	3203.02
455.49	3313.61
455.69	3157.97
455.89	3731.40
456.10	3203.02
456.30	3065.81
456.51	3442.64
456.71	3336.14
456.91	3180.50
457.12	3010.51
457.32	3356.62
457.52	3084.24
457.73	3184.59
457.93	3217.36
458.14	3129.30
458.34	2926.55
458.54	3117.01
458.75	3006.42
458.95	3530.70
459.15	3373.00
459.36	3055.57
459.56	3067.86
459.76	3768.26
459.97	3293.13
460.17	3063.76
460.37	3065.81
460.58	3286.99
460.78	3434.44
460.99	3108.82
461.19	3055.57
461.39	3190.74
461.60	3289.04
461.80	3133.39
462.00	2944.98
462.21	3233.74
462.41	3155.92
462.61	2912.21
462.82	2856.92
463.02	3409.87
463.22	3293.13
463.43	3104.72
463.63	2963.41
463.83	3604.42
464.04	3370.96
464.24	3057.62
464.44	3018.71
464.64	3381.20
464.85	3368.91
465.05	3086.29
465.25	3039.19
465.46	3221.45
465.66	3354.57
465.86	3061.71
466.07	3067.86
466.27	3250.13
466.47	3065.81
466.68	2912.21
466.88	3196.88
467.08	3436.49
467.29	3508.17
467.49	3084.24
467.69	3203.02
467.89	3428.30
468.10	3252.17
468.30	3125.20
468.50	3180.50
468.71	3364.81
468.91	3039.19
469.11	3229.65
469.31	3100.62
469.52	3090.38
469.72	3635.14
469.92	3266.51
470.13	3043.28
470.33	3305.42
470.53	3354.57
470.73	3567.56
470.94	3997.64
471.14	4163.52
471.34	4847.54
471.54	4366.27
471.75	4071.36
471.95	3905.48
472.15	3692.49
472.36	3788.74
472.56	3585.99
472.76	3813.32
472.96	3700.68
473.17	3330.00
473.37	3213.26
473.57	3303.37
473.77	3366.86
473.98	3209.17
474.18	2987.99
474.38	3985.35
474.58	3237.84
474.79	2883.54
474.99	3235.79
475.19	3438.54
475.39	3176.40
475.60	3086.29
475.80	3067.86
476.00	3325.90
476.20	3256.27
476.41	3196.88
476.61	3112.91
476.81	3499.98
477.01	3151.82
477.21	3370.96
477.42	3200.98
477.62	3065.81
477.82	3459.02
478.02	2994.13
478.23	3143.63
478.43	3188.69
478.63	3221.45
478.83	3035.09
479.03	3117.01
479.24	3532.75
479.44	3702.73
479.64	2916.31
479.84	2836.44
480.04	3151.82
480.25	3479.50
480.45	2983.89
480.65	3033.04
480.85	3631.05
481.06	3170.26
481.26	3131.34
481.46	3026.90
481.66	3377.10
481.86	3151.82
482.06	3160.02
482.27	3119.06
482.47	3170.26
482.67	3336.14
482.87	3084.24
483.07	3133.39
483.28	3198.93
483.48	3000.27
483.68	3035.09
483.88	3000.27
484.08	2910.16
484.29	3026.90
484.49	3074.00
484.69	2820.05
484.89	3493.83
485.09	3420.11
485.29	3022.80
485.50	3246.03
485.70	3186.64
485.90	3516.36
486.10	3180.50
486.30	3074.00
486.50	3491.79
486.71	3297.23
486.91	3123.15
487.11	3196.88
487.31	2967.51
487.51	3340.24
487.71	3037.14
487.91	2953.17
488.12	3080.14
488.32	2766.81
488.52	3059.67
488.72	2813.91
488.92	3350.48
489.12	3561.42
489.32	3225.55
489.53	3069.91
489.73	2992.08
489.93	3579.85
490.13	3057.62
490.33	2904.02
490.53	3344.33
490.73	3465.16
490.94	2979.79
491.14	3086.29
491.34	3416.01
491.54	3426.25
491.74	4057.03
491.94	4579.26
492.14	5195.70
492.34	5308.34
492.54	4820.92
492.75	4091.84
492.95	4458.43
493.15	4104.13
493.35	3852.23
493.55	3712.97
493.75	3751.88
493.95	3913.67
494.15	3358.67
494.35	3143.63
494.56	3303.37
494.76	3123.15
494.96	3182.54
495.16	2953.17
495.36	3307.47
495.56	3340.24
495.76	3149.78
495.96	3080.14
496.16	3057.62
496.36	3743.69
496.56	3047.38
496.77	3160.02
496.97	3262.41
497.17	3526.60
497.37	2971.60
497.57	3141.58
497.77	3291.09
497.97	3074.00
498.17	3133.39
498.37	2987.99
498.57	3364.81
498.77	3170.26
498.97	3192.78
499.17	3416.01
499.38	3246.03
499.58	3362.76
499.78	3223.50
499.98	3166.16
500.18	3274.70
500.38	3133.39
500.58	3291.09
500.78	3655.62
500.98	6117.28
501.18	8333.18
501.38	9963.37
501.58	11151.19
501.78	10823.51
501.98	9123.70
502.18	7585.68
502.38	6668.19
502.58	6563.74
502.78	5818.28
502.98	5476.27
503.18	5207.98
503.38	4917.17
503.59	4175.81
503.79	4114.37
503.99	3737.54
504.19	3932.10
504.39	3844.04
504.59	3780.55
504.79	3626.95
504.99	4024.26
505.19	3485.64
505.39	3403.72
505.59	3545.03
505.79	3639.24
505.99	3485.64
506.19	3172.30
506.39	3354.57
506.59	3182.54
506.79	3190.74
506.99	3289.04
507.19	3020.75
507.39	3307.47
507.59	3063.76
507.79	3000.27
507.99	3002.32
508.19	3373.00
508.39	3225.55
508.59	3119.06
508.79	3123.15
508.99	3704.78
509.19	3098.58
509.39	3102.67
509.59	2910.16
509.79	3139.54
509.99	3303.37
510.19	3207.12
510.39	3205.07
510.59	3272.65
510.79	3059.67
510.99	2926.55
511.19	2979.79
511.39	3631.05
511.59	3483.59
511.79	3307.47
511.99	3008.47
512.19	3641.29
512.38	3207.12
512.58	2942.93
512.78	3000.27
512.98	3499.98
513.18	3645.38
513.38	2926.55
513.58	3123.15
513.78	3225.55
513.98	3295.18
514.18	3090.38
514.38	3051.47
514.58	3360.72
514.78	3033.04
514.98	2947.03
515.18	3033.04
515.38	2959.31
515.58	3665.86
515.78	2985.94
515.98	3078.10
516.18	3528.65
516.38	3272.65
516.57	3069.91
516.77	3041.23
516.97	3467.21
517.17	3241.93
517.37	2838.48
517.57	3090.38
517.77	3311.57
517.97	3133.39
518.17	3092.43
518.37	2934.74
518.57	3168.21
518.77	3258.32
518.97	3078.10
519.16	3041.23
519.36	3506.12
519.56	3182.54
519.76	2979.79
519.96	3084.24
520.16	3606.47
520.36	3094.48
520.56	3246.03
520.76	2998.23
520.96	3104.72
521.16	3418.06
521.35	3319.76
521.55	3239.89
521.75	3342.28
521.95	3168.21
522.15	3006.42
522.35	2951.12
522.55	3190.74
522.75	3450.83
522.95	2942.93
523.14	2824.15
523.34	3258.32
523.54	3045.33
523.74	3246.03
523.94	3139.54
524.14	2871.25
524.34	3409.87
524.54	3266.51
524.73	3002.32
524.93	3522.51
525.13	3313.61
525.33	2977.75
525.53	3241.93
525.73	3459.02
525.93	3297.23
526.13	3076.05
526.32	3000.27
526.52	3573.71
526.72	3491.79
526.92	3119.06
527.12	2963.41
527.32	3035.09
527.52	3301.33
527.71	3137.49
527.91	3121.10
528.11	3188.69
528.31	3227.60
528.51	2969.55
528.71	3174.35
528.90	3381.20
529.10	3483.59
529.30	3094.48
529.50	2885.59
529.70	3362.76
529.90	3219.41
530.09	3071.95
530.29	2820.05
530.49	3061.71
530.69	3858.37
530.89	3213.26
531.09	3186.64
531.28	3188.69
531.48	3481.55
531.68	3084.24
531.88	3039.19
532.08	3475.40
532.28	3278.80
532.47	3125.20
532.67	3188.69
532.87	3338.19
533.07	3092.43
533.27	3127.25
533.46	3174.35
533.66	3393.48
533.86	3231.69
534.06	3141.58
534.26	3090.38
534.45	3180.50
534.65	3430.35
534.85	3209.17
535.05	2998.23
535.25	3467.21
535.44	2977.75
535.64	3209.17
535.84	3055.57
536.04	3119.06
536.24	3215.31
536.43	3020.75
536.63	3030.99
536.83	3280.85
537.03	3225.55
537.22	2854.87
537.42	2910.16
537.62	3360.72
537.82	3178.45
538.02	3227.60
538.21	3172.30
538.41	3786.69
538.61	3291.09
538.81	3110.86
539.00	3164.11
539.20	3018.71
539.40	3215.31
539.60	3114.96
539.79	3231.69
539.99	3321.81
540.19	3059.67
540.39	2983.89
540.58	3090.38
540.78	3528.65
540.98	3362.76
541.18	3274.70
541.37	3069.91
541.57	3260.37
541.77	3368.91
541.97	3026.90
542.16	2901.97
542.36	3110.86
542.56	3137.49
542.76	3235.79
542.95	3188.69
543.15	3338.19
543.35	3411.92
543.54	3004.37
543.74	3000.27
543.94	3565.51
544.14	3149.78
544.33	3176.40
544.53	3090.38
544.73	3233.74
544.93	3186.64
545.12	3065.81
545.32	3069.91
545.52	3203.02
545.71	3098.58
545.91	3043.28
546.11	3043.28
546.30	3106.77
546.50	3311.57
546.70	3200.98
546.90	3078.10
547.09	2881.49
547.29	3327.95
547.49	3250.13
547.68	3110.86
547.88	3076.05
548.08	3487.69
548.27	3354.57
548.47	2887.64
548.67	3153.87
548.87	3239.89
549.06	3078.10
549.26	3008.47
549.46	3332.05
549.65	3153.87
549.85	3002.32
550.05	3084.24
550.24	3020.75
550.44	3272.65
550.64	3160.02
550.83	3108.82
551.03	3569.61
551.23	3508.17
551.42	3143.63
551.62	3153.87
551.82	3307.47
552.01	3188.69
552.21	3233.74
552.41	3037.14
552.60	3583.95
552.80	3289.04
553.00	3065.81
553.19	3117.01
553.39	3604.42
553.59	3065.81
553.78	3127.25
553.98	2977.75
554.17	3053.52
554.37	3311.57
554.57	3147.73
554.76	2881.49
554.96	3209.17
555.16	3282.89
555.35	3170.26
555.55	3344.33
555.75	3330.00
555.94	3454.92
556.14	2801.62
556.33	3108.82
556.53	3258.32
556.73	3311.57
556.92	3057.62
557.12	3053.52
557.32	3704.78
557.51	3520.46
557.71	3041.23
557.90	3246.03
558.10	3487.69
558.30	3239.89
558.49	3209.17
558.69	2996.18
558.88	3395.53
559.08	3315.66
559.28	3018.71
559.47	3112.91
559.67	3354.57
559.86	3672.01
560.06	3002.32
560.26	3063.76
560.45	3397.58
560.65	3280.85
560.84	3397.58
561.04	2930.64
561.24	3440.59
561.43	2992.08
561.63	3254.22
561.82	3160.02
562.02	3432.40
562.22	3186.64
562.41	3045.33
562.61	3010.51
562.80	3092.43
563.00	3772.36
563.19	3139.54
563.39	3239.89
563.59	3274.70
563.78	3065.81
563.98	2805.72
564.17	3049.43
564.37	2967.51
564.56	3286.99
564.76	2983.89
564.96	3143.63
565.15	3325.90
565.35	3844.04
565.54	3022.80
565.74	3102.67
565.93	3385.29
566.13	3266.51
566.32	3153.87
566.52	3055.57
566.71	3147.73
566.91	3493.83
567.11	3135.44
567.30	3010.51
567.50	3385.29
567.69	3399.63
567.89	3022.80
568.08	3047.38
568.28	3391.44
568.47	2998.23
568.67	3086.29
568.86	3141.58
569.06	3334.09
569.25	3180.50
569.45	2967.51
569.64	3123.15
569.84	3194.83
570.04	3334.09
570.23	3059.67
570.43	3205.07
570.62	3409.87
570.82	3600.33
571.01	2944.98
571.21	3080.14
571.40	3133.39
571.60	3434.44
571.79	3110.86
571.99	3024.85
572.18	3123.15
572.38	3330.00
572.57	3188.69
572.77	3164.11
572.96	3844.04
573.16	3338.19
573.35	3153.87
573.55	3268.56
573.74	3225.55
573.94	3233.74
574.13	3035.09
574.33	3233.74
574.52	3358.67
574.71	3325.90
574.91	3106.77
575.10	2998.23
575.30	3078.10
575.49	3088.34
575.69	3047.38
575.88	3090.38
576.08	3270.61
576.27	3534.79
576.47	2975.70
576.66	3145.68
576.86	3563.47
577.05	3241.93
577.25	3178.45
577.44	3160.02
577.64	3205.07
577.83	3514.31
578.02	3127.25
578.22	3200.98
578.41	3633.10
578.61	3229.65
578.80	2865.11
579.00	3121.10
579.19	3237.84
579.39	3203.02
579.58	3250.13
579.77	3127.25
579.97	3526.60
580.16	3538.89
580.36	3213.26
580.55	3114.96
580.75	3323.85
580.94	3352.52
581.13	3237.84
581.33	3293.13
581.52	3213.26
581.72	3712.97
581.91	3131.34
582.11	3061.71
582.30	3454.92
582.49	3391.44
582.69	3381.20
582.88	3131.34
583.08	3278.80
583.27	3493.83
583.47	3203.02
583.66	3049.43
583.85	3086.29
584.05	3248.08
584.24	3246.03
584.44	3164.11
584.63	3534.79
584.82	3573.71
585.02	3336.14
585.21	3278.80
585.41	3438.54
585.60	3346.38
585.79	3303.37
585.99	3430.35
586.18	3338.19
586.37	4200.38
586.57	6410.14
586.76	17966.83
586.96	37948.86
587.15	51412.21
587.34	59864.17
587.54	63708.21
587.73	57156.76
587.93	41325.96
588.12	31634.97
588.31	25665.14
588.51	22947.49
588.70	21178.04
588.89	19007.20
589.09	16113.42
589.28	13827.88
589.47	10907.48
589.67	8200.07
589.86	6459.29
590.06	5203.89
590.25	4483.00
590.44	3858.37
590.64	3518.41
590.83	3559.37
591.02	3557.32
591.22	3114.96
591.41	3147.73
591.60	3172.30
591.80	3743.69
591.99	2951.12
592.18	3082.19
592.38	3389.39
592.57	3147.73
592.76	3043.28
592.96	3180.50
593.15	3241.93
593.34	3469.26
593.54	3102.67
593.73	3162.06
593.92	3399.63
594.12	3291.09
594.31	3123.15
594.50	3264.46
594.70	3379.15
594.89	3870.66
595.08	3018.71
595.28	3223.50
595.47	3919.81
595.66	3555.27
595.86	2918.36
596.05	2977.75
596.24	3180.50
596.43	3641.29
596.63	3178.45
596.82	3237.84
597.01	3327.95
597.21	3596.23
597.40	3069.91
597.59	3125.20
597.79	3356.62
597.98	3434.44
598.17	3135.44
598.36	3147.73
598.56	3413.96
598.75	3248.08
598.94	3182.54
599.14	3151.82
599.33	3174.35
599.52	3391.44
599.71	3235.79
599.91	3098.58
600.10	3340.24
600.29	3284.94
600.48	3188.69
600.68	3205.07
600.87	3315.66
601.06	3172.30
601.26	3166.16
601.45	3176.40
601.64	3344.33
601.83	3690.44
602.03	3006.42
602.22	3033.04
602.41	3491.79
602.60	3702.73
602.80	3213.26
602.99	3235.79
603.18	3164.11
603.37	3330.00
603.57	2961.36
603.76	3114.96
603.95	3442.64
604.14	3200.98
604.34	3092.43
604.53	3069.91
604.72	3289.04
604.91	3434.44
605.10	3039.19
605.30	2959.31
605.49	3741.64
605.68	3364.81
605.87	3098.58
606.07	2990.03
606.26	3272.65
606.45	3426.25
606.64	3114.96
606.84	2996.18
607.03	3303.37
607.22	3510.22
607.41	3082.19
607.60	3039.19
607.80	3514.31
607.99	3252.17
608.18	3162.06
608.37	3094.48
608.56	3188.69
608.76	3477.45
608.95	3260.37
609.14	3076.05
609.33	3569.61
609.52	3540.94
609.72	3209.17
609.91	3186.64
610.10	3407.82
610.29	3549.13
610.48	3200.98
610.68	3246.03
610.87	3235.79
611.06	3442.64
611.25	3047.38
611.44	3223.50
611.63	3127.25
611.83	3551.18
612.02	3033.04
612.21	3186.64
612.40	2932.69
612.59	3035.09
612.79	2994.13
612.98	3108.82
613.17	3608.52
613.36	3356.62
613.55	3141.58
613.74	3157.97
613.93	3330.00
614.13	3325.90
614.32	3319.76
614.51	3250.13
614.70	3248.08
614.89	3258.32
615.08	3190.74
615.28	3461.07
615.47	3033.04
615.66	3418.06
615.85	3053.52
616.04	3207.12
616.23	3176.40
616.42	3327.95
616.62	3051.47
616.81	3127.25
617.00	3311.57
617.19	3370.96
617.38	3067.86
617.57	3094.48
617.76	3354.57
617.95	3442.64
618.15	3131.34
618.34	3303.37
618.53	3074.00
618.72	3559.37
618.91	3125.20
619.10	3096.53
619.29	3309.52
619.48	3321.81
619.68	2963.41
619.87	2969.55
620.06	2977.75
620.25	3424.20
620.44	3069.91
620.63	3037.14
620.82	3366.86
621.01	3231.69
621.20	3053.52
621.39	3143.63
621.59	3307.47
621.78	3258.32
621.97	3243.98
622.16	3215.31
622.35	3407.82
622.54	3350.48
622.73	3147.73
622.92	2852.82
623.11	3475.40
623.30	3213.26
623.49	3174.35
623.68	2951.12
623.88	3577.80
624.07	3147.73
624.26	3000.27
624.45	2973.65
624.64	3217.36
624.83	3389.39
625.02	3102.67
625.21	3106.77
625.40	3205.07
625.59	3471.31
625.78	3162.06
625.97	3168.21
626.16	3581.90
626.35	3528.65
626.54	3084.24
626.74	3280.85
626.93	3278.80
627.12	3297.23
627.31	3153.87
627.50	3141.58
627.69	3510.22
627.88	3090.38
628.07	3043.28
628.26	2887.64
628.45	3106.77
628.64	3084.24
628.83	3098.58
629.02	2947.03
629.21	3373.00
629.40	3286.99
629.59	2985.94
629.78	3074.00
629.97	3311.57
630.16	3252.17
630.35	2992.08
630.54	3141.58
630.73	3082.19
630.92	3272.65
631.11	3047.38
631.30	3123.15
631.49	3473.36
631.68	3213.26
631.87	3106.77
632.06	2981.84
632.25	3741.64
632.44	3313.61
632.63	3143.63
632.82	3209.17
633.01	3211.22
633.20	3426.25
633.39	3123.15
633.58	2897.88
633.77	3393.48
633.96	3348.43
634.15	3172.30
634.34	3166.16
634.53	3336.14
634.72	3190.74
634.91	2957.27
635.10	3037.14
635.29	3413.96
635.48	3276.75
635.67	2944.98
635.86	2934.74
636.05	3618.76
636.24	3280.85
636.43	3098.58
636.62	3162.06
636.81	2889.68
637.00	3274.70
637.19	3039.19
637.38	3139.54
637.57	3262.41
637.76	3217.36
637.95	3293.13
638.14	3237.84
638.33	3385.29
638.52	3346.38
638.71	3022.80
638.89	3057.62
639.08	3823.56
639.27	3641.29
639.46	3385.29
639.65	3622.86
639.84	3899.33
640.03	4040.64
640.22	3667.91
640.41	3622.86
640.60	3428.30
640.79	3471.31
640.98	3377.10
641.17	3352.52
641.36	3499.98
641.55	3418.06
641.74	2981.84
641.92	2942.93
642.11	3112.91
642.30	3243.98
642.49	2967.51
642.68	3121.10
642.87	3391.44
643.06	3332.05
643.25	2947.03
643.44	2971.60
643.63	3198.93
643.82	3393.48
644.00	3022.80
644.19	3057.62
644.38	3069.91
644.57	3542.99
644.76	3114.96
644.95	3172.30
645.14	3305.42
645.33	3307.47
645.52	3194.83
645.71	2856.92
645.89	3100.62
646.08	3297.23
646.27	3080.14
646.46	3248.08
646.65	3078.10
646.84	3278.80
647.03	2963.41
647.22	3217.36
647.40	3297.23
647.59	3256.27
647.78	2865.11
647.97	3082.19
648.16	3155.92
648.35	3516.36
648.54	3317.71
648.73	3041.23
648.91	3424.20
649.10	3311.57
649.29	2975.70
649.48	2979.79
649.67	3307.47
649.86	3317.71
650.05	3131.34
650.23	3254.22
650.42	3157.97
650.61	3559.37
650.80	3297.23
650.99	3377.10
651.18	3467.21
651.36	3434.44
651.55	3002.32
651.74	3248.08
651.93	3209.17
652.12	3190.74
652.31	3160.02
652.49	3119.06
652.68	3221.45
652.87	3577.80
653.06	3233.74
653.25	3377.10
653.44	3276.75
653.62	3563.47
653.81	3110.86
654.00	3094.48
654.19	3383.24
654.38	3766.21
654.56	3147.73
654.75	3033.04
654.94	3424.20
655.13	3299.28
655.32	3069.91
655.51	3147.73
655.69	3145.68
655.88	3383.24
656.07	2947.03
656.26	3162.06
656.45	3004.37
656.63	3266.51
656.82	2998.23
657.01	3262.41
657.20	3246.03
657.38	3573.71
657.57	3043.28
657.76	2869.20
657.95	3358.67
658.14	3137.49
658.32	3260.37
658.51	2940.88
658.70	3364.81
658.89	3258.32
659.08	3164.11
659.26	3401.68
659.45	3100.62
659.64	3377.10
659.83	3063.76
660.01	3471.31
660.20	3313.61
660.39	3526.60
660.58	2811.86
660.76	3084.24
660.95	3006.42
661.14	3330.00
661.33	2910.16
661.51	3104.72
661.70	3119.06
661.89	3237.84
662.08	3084.24
662.26	2906.07
662.45	3090.38
662.64	3631.05
662.83	3155.92
663.01	2994.13
663.20	3213.26
663.39	3583.95
663.58	3157.97
663.76	2987.99
663.95	3405.77
664.14	3098.58
664.32	3110.86
664.51	2936.79
664.70	2977.75
664.89	3352.52
665.07	2904.02
665.26	3172.30
665.45	3026.90
665.64	3395.53
665.82	3108.82
666.01	3194.83
666.20	3067.86
666.38	3399.63
666.57	3289.04
666.76	5611.43
666.95	13309.75
667.13	20844.23
667.32	25122.43
667.51	28337.74
667.69	29570.62
667.88	24399.50
668.07	17590.00
668.25	14987.04
668.44	12711.74
668.63	11396.95
668.81	9674.60
669.00	8572.80
669.19	7802.76
669.38	6809.50
669.56	5728.17
669.75	5138.35
669.94	4509.63
670.12	3899.33
670.31	3512.27
670.50	3418.06
670.68	3438.54
670.87	3350.48
671.06	3114.96
671.24	3194.83
671.43	3579.85
671.62	3338.19
671.80	3096.53
671.99	3168.21
672.18	3270.61
672.36	3424.20
672.55	3205.07
672.74	3203.02
672.92	3184.59
673.11	3418.06
673.29	2877.40
673.48	3270.61
673.67	3211.22
673.85	3440.59
674.04	3037.14
674.23	3248.08
674.41	3696.58
674.60	2992.08
674.79	2801.62
674.97	2842.58
675.16	3370.96
675.34	3545.03
675.53	3030.99
675.72	3106.77
675.90	3641.29
676.09	3166.16
676.28	3272.65
676.46	2971.60
676.65	3424.20
676.83	3112.91
677.02	3172.30
677.21	3196.88
677.39	3305.42
677.58	3117.01
677.77	3065.81
677.95	3084.24
678.14	3223.50
678.32	3157.97
678.51	3057.62
678.70	3459.02
678.88	3164.11
679.07	3284.94
679.25	3129.30
679.44	3151.82
679.63	3067.86
679.81	3237.84
680.00	3366.86
680.18	3172.30
680.37	3577.80
680.55	3313.61
680.74	2936.79
680.93	2729.94
681.11	3270.61
681.30	3243.98
681.48	3061.71
681.67	3166.16
681.85	3233.74
682.04	3047.38
682.23	3225.55
682.41	3215.31
682.60	3207.12
682.78	3112.91
682.97	3033.04
683.15	3207.12
683.34	3350.48
683.53	3581.90
683.71	2977.75
683.90	3114.96
684.08	3688.39
684.27	3217.36
684.45	3196.88
684.64	3258.32
684.82	3262.41
685.01	3362.76
685.19	3069.91
685.38	3395.53
685.57	3256.27
685.75	3098.58
685.94	2920.40
686.12	2926.55
686.31	3239.89
686.49	3616.71
686.68	2815.96
686.86	3065.81
687.05	3301.33
687.23	3540.94
687.42	3065.81
687.60	2936.79
687.79	3504.07
687.97	3583.95
688.16	3246.03
688.34	3278.80
688.53	2914.26
688.71	3393.48
688.90	3348.43
689.08	3172.30
689.27	2883.54
689.45	3418.06
689.64	3223.50
689.82	3196.88
690.01	3459.02
690.19	3297.23
690.38	3211.22
690.56	3215.31
690.75	3067.86
690.93	3157.97
691.12	3018.71
691.30	3153.87
691.49	3133.39
691.67	3297.23
691.86	3452.88
692.04	3123.15
692.23	3117.01
692.41	3354.57
692.60	3504.07
692.78	3258.32
692.97	3301.33
693.15	3389.39
693.34	3330.00
693.52	3289.04
693.71	3190.74
693.89	3131.34
694.08	2897.88
694.26	3160.02
694.44	3418.06
694.63	3434.44
694.81	2979.79
695.00	3033.04
695.18	3459.02
695.37	3753.93
695.55	3215.31
695.74	3168.21
695.92	3059.67
696.10	3477.45
696.29	2938.84
696.47	3071.95
696.66	3041.23
696.84	3061.71
697.03	3213.26
697.21	3430.35
697.40	4734.90
697.58	3540.94
697.76	3057.62
697.95	3098.58
698.13	3008.47
698.32	3162.06
698.50	3069.91
698.68	3145.68
698.87	3317.71
699.05	3583.95
699.24	3110.86
699.42	3082.19
699.61	3381.20
699.79	3293.13
699.97	3086.29
700.16	2955.22
700.34	2990.03
700.53	3307.47
700.71	3323.85
700.89	3153.87
701.08	3174.35
701.26	3299.28
701.45	3512.27
701.63	3024.85
701.81	3106.77
702.00	3164.11
702.18	3237.84
702.37	3094.48
702.55	3536.84
702.73	3330.00
702.92	3119.06
703.10	3512.27
703.28	3442.64
703.47	3123.15
703.65	3444.68
703.84	3237.84
704.02	3299.28
704.20	3620.81
704.39	3078.10
704.57	3069.91
704.75	3493.83
704.94	3387.34
705.12	3301.33
705.30	4067.27
705.49	8800.12
705.67	17309.43
705.86	24399.50
706.04	27340.38
706.22	30522.93
706.41	29224.51
706.59	21882.55
706.77	17102.59
706.96	14800.67
707.14	13469.49
707.32	11454.29
707.51	9971.56
707.69	8267.65
707.87	6725.53
708.06	5316.53
708.24	4431.80
708.42	4208.58
708.61	4173.76
708.79	3237.84
708.97	3295.18
709.16	3399.63
709.34	3303.37
709.52	3157.97
709.71	3133.39
709.89	3317.71
710.07	3137.49
710.26	2975.70
710.44	3086.29
710.62	3444.68
710.80	3223.50
710.99	3258.32
711.17	3303.37
711.35	3151.82
711.54	3174.35
711.72	3243.98
711.90	3090.38
712.09	3315.66
712.27	3143.63
712.45	3237.84
712.63	3102.67
712.82	3286.99
713.00	3192.78
713.18	3246.03
713.37	3248.08
713.55	3491.79
713.73	3399.63
713.91	3205.07
714.10	3065.81
714.28	3192.78
714.46	3385.29
714.65	3231.69
714.83	3143.63
715.01	3207.12
715.19	3360.72
715.38	3010.51
715.56	3258.32
715.74	3092.43
715.92	3149.78
716.11	3325.90
716.29	2944.98
716.47	3231.69
716.65	3246.03
716.84	2901.97
717.02	3139.54
717.20	2951.12
717.38	3065.81
717.57	3164.11
717.75	3145.68
717.93	3172.30
718.11	3348.43
718.30	2947.03
718.48	3196.88
718.66	3499.98
718.84	3557.32
719.03	3186.64
719.21	2985.94
719.39	3612.62
719.57	3401.68
719.75	3184.59
719.94	2942.93
720.12	3262.41
720.30	3270.61
720.48	3141.58
720.67	2996.18
720.85	2996.18
721.03	3166.16
721.21	3045.33
721.39	3168.21
721.58	3401.68
721.76	3246.03
721.94	3215.31
722.12	3192.78
722.30	3659.72
722.49	3160.02
722.67	3092.43
722.85	3127.25
723.03	3014.61
723.21	3246.03
723.40	3112.91
723.58	3205.07
723.76	3344.33
723.94	3577.80
724.12	3194.83
724.30	3356.62
724.49	3495.88
724.67	3094.48
724.85	3272.65
725.03	2944.98
725.21	3346.38
725.40	3469.26
725.58	3065.81
725.76	3368.91
725.94	3350.48
726.12	3084.24
726.30	3125.20
726.49	2963.41
726.67	3123.15
726.85	3385.29
727.03	4001.73
727.21	5572.52
727.39	7327.63
727.57	7909.26
727.76	8415.10
727.94	8599.42
728.12	7280.53
728.30	5883.81
728.48	5724.07
728.66	5281.71
728.84	4876.21
729.03	4231.10
729.21	3837.89
729.39	3602.38
729.57	3375.05
729.75	3295.18
729.93	3450.83
730.11	3082.19
730.30	3254.22
730.48	3354.57
730.66	3125.20
730.84	3270.61
731.02	3336.14
731.20	3168.21
731.38	3110.86
731.56	2959.31
731.74	3004.37
731.93	3297.23
732.11	3258.32
732.29	3084.24
732.47	3327.95
732.65	3313.61
732.83	3334.09
733.01	3211.22
733.19	3164.11
733.37	3538.89
733.56	3184.59
733.74	2987.99
733.92	3516.36
734.10	3182.54
734.28	3246.03
734.46	2887.64
734.64	3137.49
734.82	3213.26
735.00	3119.06
735.18	3033.04
735.36	3250.13
735.54	3258.32
735.73	3074.00
735.91	3260.37
736.09	3573.71
736.27	3250.13
736.45	3131.34
736.63	2856.92
736.81	3127.25
736.99	3508.17
737.17	3360.72
737.35	3090.38
737.53	3334.09
737.71	3229.65
737.89	3344.33
738.07	3092.43
738.25	3198.93
738.43	2934.74
738.61	3076.05
738.80	2930.64
738.98	3096.53
739.16	3114.96
739.34	3059.67
739.52	3426.25
739.70	3221.45
739.88	3373.00
740.06	3252.17
740.24	2854.87
740.42	3444.68
740.60	3047.38
740.78	3018.71
740.96	2848.72
741.14	3213.26
741.32	3196.88
741.50	2914.26
741.68	3270.61
741.86	3495.88
742.04	3018.71
742.22	2971.60
742.40	3131.34
742.58	3422.16
742.76	3084.24
742.94	3340.24
743.12	2953.17
743.30	3229.65
743.48	3360.72
743.66	3051.47
743.84	3135.44
744.02	3131.34
744.20	3231.69
744.38	2977.75
744.56	2973.65
744.74	3647.43
744.92	3442.64
745.10	3309.52
745.28	3127.25
745.46	3684.30
745.64	3264.46
745.82	3137.49
746.00	3037.14
746.18	3407.82
746.36	3069.91
746.54	3151.82
746.72	3088.34
746.90	3127.25
747.08	3510.22
747.26	3067.86
747.44	3217.36
747.62	3342.28
747.80	3420.11
747.98	3137.49
748.15	3033.04
748.33	3635.14
748.51	3321.81
748.69	3241.93
748.87	2985.94
749.05	3231.69
749.23	3211.22
749.41	3082.19
749.59	3088.34
749.77	3393.48
749.95	3289.04
750.13	3039.19
750.31	3213.26
750.49	3276.75
750.67	3395.53
750.85	3313.61
751.03	3053.52
751.20	3667.91
751.38	3344.33
751.56	3172.30
751.74	3106.77
751.92	3149.78
752.10	3033.04
752.28	3317.71
752.46	3084.24
752.64	3254.22
752.82	3280.85
753.00	3196.88
753.18	3051.47
753.35	3198.93
753.53	3323.85
753.71	3016.66
753.89	3069.91
754.07	3313.61
754.25	3399.63
754.43	3164.11
754.61	2981.84
754.79	3364.81
754.97	3155.92
755.14	3256.27
755.32	3016.66
755.50	3327.95
755.68	3350.48
755.86	3018.71
756.04	3051.47
756.22	2930.64
756.40	3452.88
756.57	3360.72
756.75	3018.71
756.93	3403.72
757.11	3479.50
757.29	2994.13
757.47	2969.55
757.65	2951.12
757.82	2830.29
758.00	3000.27
758.18	3043.28
758.36	3176.40
758.54	3688.39
758.72	2875.35
758.90	3215.31
759.07	3323.85
759.25	3102.67
759.43	3166.16
759.61	2844.63
759.79	4501.44
759.97	3434.44
760.15	3094.48
760.32	2996.18
760.50	3379.15
760.68	3631.05
760.86	2979.79
761.04	3289.04
761.22	3491.79
761.39	3276.75
761.57	3147.73
761.75	3043.28
761.93	3387.34
762.11	3241.93
762.28	3127.25
762.46	3051.47
762.64	3452.88
762.82	3000.27
763.00	3037.14
763.18	3338.19
763.35	3065.81
763.53	3403.72
763.71	3184.59
763.89	3030.99
764.07	3344.33
764.24	3297.23
764.42	3209.17
764.60	3102.67
764.78	3346.38
764.96	3448.78
765.13	3246.03
765.31	2897.88
765.49	3405.77
765.67	3106.77
765.84	3090.38
766.02	3074.00
766.20	2992.08
766.38	3327.95
766.56	3117.01
766.73	3221.45
766.91	3268.56
767.09	3311.57
767.27	3139.54
767.44	3016.66
767.62	3399.63
767.80	3393.48
767.98	3014.61
768.15	3098.58
768.33	3483.59
768.51	3487.69
768.69	3182.54
768.87	3022.80
769.04	3360.72
769.22	3790.79
769.40	3168.21
769.58	3256.27
769.75	3360.72
769.93	3493.83
770.11	3133.39
770.28	3000.27
770.46	3389.39
770.64	3332.05
770.82	3127.25
770.99	2944.98
771.17	3424.20
771.35	3203.02
771.53	3166.16
771.70	3055.57
771.88	3332.05
772.06	3289.04
772.23	3096.53
772.41	3160.02
772.59	3252.17
772.77	3096.53
772.94	3096.53
773.12	3141.58
773.30	3192.78
773.47	3305.42
773.65	2971.60
773.83	3223.50
774.01	3215.31
774.18	2932.69
774.36	3114.96
774.54	3012.56
774.71	3252.17
774.89	3024.85
775.07	2947.03
775.24	3090.38
775.42	3129.30
775.60	3680.20
775.78	2942.93
775.95	2969.55
776.13	3057.62
776.31	2985.94
776.48	3241.93
776.66	3284.94
776.84	3196.88
777.01	3030.99
777.19	3030.99
777.37	2969.55
777.54	3416.01
777.72	3721.16
777.90	3141.58
778.07	2994.13
778.25	3880.90
778.43	3432.40
778.60	3100.62
778.78	3106.77
778.96	3508.17
779.13	3078.10
779.31	3141.58
779.49	3176.40
779.66	3356.62
779.84	3192.78
780.01	3020.75
780.19	3010.51
780.37	3534.79
780.54	3424.20
780.72	2985.94
780.90	3114.96
781.07	3231.69
781.25	3203.02
781.43	3209.17
781.60	3071.95
781.78	3540.94
781.95	3289.04
782.13	2934.74
782.31	3051.47
782.48	2871.25
782.66	3289.04
782.83	3358.67
783.01	3209.17
783.19	3368.91
783.36	3198.93
783.54	3037.14
783.72	3022.80
783.89	3141.58
784.07	3297.23
784.24	3305.42
784.42	3186.64
784.60	3309.52
784.77	3340.24
784.95	2807.77
785.12	3059.67
785.30	3348.43
785.47	3114.96
785.65	2926.55
785.83	3088.34
786.00	3209.17
786.18	3303.37
786.35	3022.80
786.53	3043.28
786.71	3473.36
786.88	3327.95
787.06	3121.10
787.23	3100.62
787.41	3065.81
787.58	3260.37
787.76	2983.89
787.94	3129.30
788.11	3350.48
788.29	2990.03
788.46	3059.67
788.64	2883.54
788.81	3110.86
788.99	3076.05
789.16	2996.18
789.34	2987.99
789.52	3205.07
789.69	3125.20
789.87	2840.53
790.04	3133.39
790.22	3358.67
790.39	3727.30
790.57	2981.84
790.74	3022.80
790.92	3483.59
791.09	2932.69
791.27	3139.54
791.44	3145.68
791.62	3205.07
791.79	3428.30
791.97	3166.16
792.15	3459.02
792.32	3340.24
792.50	3452.88
792.67	3291.09
792.85	3418.06
793.02	3235.79
793.20	3125.20
793.37	2973.65
793.55	3016.66
793.72	2979.79
793.90	3375.05
794.07	3026.90
794.25	2985.94
794.42	3315.66
794.60	3229.65
794.77	3155.92
794.95	3188.69
795.12	3456.97
795.30	3203.02
795.47	2850.77
795.65	3450.83
795.82	3387.34
796.00	3198.93
796.17	3114.96
796.34	2983.89
796.52	3250.13
796.69	3493.83
796.87	3170.26
797.04	3235.79
797.22	3413.96
797.39	3295.18
797.57	3260.37
797.74	3170.26
797.92	3289.04
798.09	3194.83
798.27	3319.76
798.44	2981.84
798.62	3092.43
798.79	3401.68
798.96	3207.12
799.14	3094.48
799.31	3737.54
799.49	3237.84
799.66	3129.30
799.84	3114.96
800.01	3088.34
800.19	3276.75
800.36	2869.20
800.53	3143.63
800.71	3356.62
800.88	3563.47
801.06	2975.70
801.23	3028.95
801.41	3284.94
801.58	3160.02
801.75	2967.51
801.93	3067.86
802.10	3483.59
802.28	3241.93
802.45	3090.38
802.63	3137.49
802.80	3610.57
802.97	3233.74
803.15	3090.38
803.32	3002.32
803.50	3088.34
803.67	3207.12
803.84	2992.08
804.02	3102.67
804.19	3182.54
804.37	2854.87
804.54	2869.20
804.71	3061.71
804.89	3248.08
805.06	3053.52
805.24	3069.91
805.41	2942.93
805.58	3117.01
805.76	3725.26
805.93	2977.75
806.10	3186.64
806.28	3346.38
806.45	3313.61
806.63	3200.98
806.80	3123.15
806.97	3311.57
807.15	3280.85
807.32	3112.91
807.49	3069.91
807.67	3069.91
807.84	3336.14
808.01	2916.31
808.19	3246.03
808.36	3737.54
808.54	3174.35
808.71	3041.23
808.88	3053.52
809.06	3518.41
809.23	3581.90
809.40	3043.28
809.58	3014.61
809.75	3203.02
809.92	3039.19
810.10	3346.38
810.27	3010.51
810.44	3348.43
810.62	3518.41
810.79	3074.00
810.96	3067.86
811.14	3151.82
811.31	3373.00
811.48	3266.51
811.66	3180.50
811.83	3450.83
812.00	3375.05
812.18	3065.81
812.35	3411.92
812.52	3153.87
812.69	3141.58
812.87	3024.85
813.04	3074.00
813.21	3248.08
813.39	3162.06
813.56	3129.30
813.73	3430.35
813.91	2936.79
814.08	3262.41
814.25	3018.71
814.42	2889.68
814.60	3213.26
814.77	3237.84
814.94	2983.89
815.12	3092.43
815.29	3610.57
815.46	3215.31
815.63	3112.91
815.81	3059.67
815.98	3233.74
816.15	3243.98
816.33	3219.41
816.50	3071.95
816.67	3299.28
816.84	3282.89
817.02	3053.52
817.19	3110.86
817.36	3239.89
817.53	3231.69
817.71	3039.19
817.88	3033.04
818.05	3196.88
818.22	3227.60
818.40	3200.98
818.57	3002.32
818.74	3299.28
818.91	3327.95
819.09	3301.33
819.26	3243.98
819.43	3086.29
819.60	3057.62
819.78	3323.85
819.95	3112.91
820.12	3121.10
820.29	3495.88
820.47	3350.48
820.64	3020.75
820.81	3117.01
820.98	3112.91
821.15	3039.19
821.33	3157.97
821.50	2981.84
821.67	3387.34
821.84	3037.14
822.02	3057.62
822.19	3438.54
822.36	3282.89
822.53	3053.52
822.70	3014.61
822.88	3174.35
823.05	3499.98
823.22	3131.34
823.39	3129.30
823.56	3282.89
823.74	3622.86
823.91	2953.17
824.08	2938.84
824.25	3184.59
824.42	3575.75
824.60	2928.60
824.77	3246.03
824.94	3254.22
825.11	3399.63
825.28	2895.83
825.45	3231.69
825.63	3366.86
825.80	3051.47
825.97	3258.32
826.14	3205.07
826.31	3016.66
826.48	3413.96
826.66	3063.76
826.83	3024.85
827.00	3215.31
827.17	3041.23
827.34	3096.53
827.51	3067.86
827.69	3278.80
827.86	2963.41
828.03	3127.25
828.20	3123.15
828.37	3114.96
828.54	3377.10
828.71	2938.84
828.89	3104.72
829.06	3373.00
829.23	3522.51
829.40	3045.33
829.57	3020.75
829.74	3409.87
829.91	3166.16
830.09	2942.93
830.26	3186.64
830.43	3598.28
830.60	3250.13
830.77	3196.88
830.94	3291.09
831.11	3436.49
831.28	3141.58
831.46	3196.88
831.63	3071.95
831.80	3483.59
831.97	2990.03
832.14	3129.30
832.31	3110.86
832.48	3340.24
832.65	3475.40
832.82	3162.06
832.99	3190.74
833.17	3114.96
833.34	3555.27
833.51	2992.08
833.68	2820.05
833.85	3497.93
834.02	3055.57
834.19	3028.95
834.36	3069.91
834.53	3260.37
834.70	3497.93
834.87	3051.47
835.04	2781.14
835.22	3090.38
835.39	3198.93
835.56	2832.34
835.73	2963.41
835.90	3487.69
836.07	3059.67
836.24	3098.58
836.41	2914.26
836.58	3102.67
836.75	3524.55
836.92	2955.22
837.09	2787.29
837.26	3430.35
837.43	3352.52
837.60	2967.51
837.77	2967.51
837.94	3430.35
838.12	3545.03
838.29	2944.98
838.46	2836.44
838.63	3076.05
838.80	3577.80
838.97	3108.82
839.14	2914.26
839.31	3327.95
839.48	3338.19
839.65	2949.08
839.82	3006.42
839.99	3313.61
840.16	3327.95
840.33	2914.26
840.50	2996.18
840.67	3137.49
840.84	2793.43
841.01	2766.81
841.18	2904.02
841.35	3270.61
841.52	3403.72
841.69	3256.27
841.86	2918.36
842.03	3213.26
842.20	3508.17
842.37	2938.84
842.54	2979.79
842.71	3194.83
842.88	2918.36
843.05	3026.90
843.22	2895.83
843.39	3436.49
843.56	3098.58
843.73	2885.59
843.90	2975.70
844.07	3246.03
844.24	3479.50
844.41	3014.61
844.58	2990.03
844.75	3266.51
844.92	3336.14
845.09	2961.36
845.26	2949.08
845.43	3405.77
845.60	3133.39
845.77	2947.03
845.94	2985.94
846.10	3340.24
846.27	3004.37
846.44	2772.95
846.61	2820.05
846.78	3373.00
846.95	3430.35
847.12	2838.48
847.29	2895.83
847.46	3028.95
847.63	3377.10
847.80	2820.05
847.97	2975.70
848.14	3712.97
848.31	3295.18
848.48	2764.76
848.65	2969.55
848.82	3143.63
848.98	3766.21
849.15	3049.43
849.32	3035.09
849.49	3491.79
849.66	3256.27
849.83	2938.84
850.00	2832.34
850.17	3379.15
850.34	3114.96
850.51	2840.53
850.68	2920.40
850.85	3878.85
851.01	3311.57
851.18	2910.16
851.35	2942.93
851.52	3319.76
851.69	3485.64
851.86	2947.03
852.03	2832.34
852.20	3459.02
852.37	3227.60
852.53	2805.72
852.70	2832.34
852.87	3319.76
853.04	3362.76
853.21	2863.06
853.38	3184.59
853.55	3518.41
853.72	3557.32
853.89	2844.63
854.05	2910.16
854.22	3219.41
854.39	3248.08
854.56	2856.92
854.73	3086.29
854.90	3061.71
855.07	3215.31
855.23	2758.61
855.40	2813.91
855.57	3192.78
855.74	2838.48
855.91	3106.77
856.08	2809.81
856.25	3014.61
856.41	3133.39
856.58	2951.12
856.75	2975.70
856.92	3076.05
857.09	3461.07
857.26	2758.61
857.42	3030.99
857.59	3389.39
857.76	3162.06
857.93	2906.07
858.10	2996.18
858.27	3069.91
858.43	3233.74
858.60	3014.61
858.77	2826.20
858.94	3143.63
859.11	3424.20
859.27	2963.41
859.44	2809.81
859.61	3774.41
859.78	3403.72
859.95	2969.55
860.12	2867.16
860.28	3690.44
860.45	3663.82
860.62	2936.79
860.79	2955.22
860.95	3215.31
861.12	2977.75
861.29	2805.72
861.46	2887.64
861.63	3233.74
861.79	3280.85
861.96	2824.15
862.13	3006.42
862.30	3590.09
862.47	3151.82
862.63	2852.82
862.80	3035.09
862.97	3508.17
863.14	3323.85
863.30	2863.06
863.47	2867.16
863.64	3540.94
863.81	3319.76
863.97	2762.71
864.14	2959.31
864.31	3180.50
864.48	3282.89
864.65	2990.03
864.81	2998.23
864.98	3387.34
865.15	3360.72
865.32	3004.37
865.48	3035.09
865.65	3618.76
865.82	3205.07
865.98	2969.55
866.15	2983.89
866.32	3178.45
866.49	3219.41
866.65	3131.34
866.82	2918.36
866.99	3299.28
867.16	3215.31
867.32	2936.79
867.49	2828.24
867.66	3233.74
867.83	3119.06
867.99	2858.96
868.16	2901.97
868.33	3028.95
868.49	3198.93
868.66	2951.12
868.83	3016.66
868.99	3223.50
869.16	3258.32
869.33	3104.72
869.50	3008.47
869.66	3272.65
869.83	3233.74
870.00	2873.30
870.16	3041.23
870.33	3278.80
870.50	3403.72
870.66	2940.88
870.83	2910.16
871.00	3182.54
871.17	3368.91
871.33	2971.60
871.50	2852.82
871.67	3190.74
871.83	3119.06
872.00	3051.47
872.17	2936.79
872.33	3581.90
872.50	3483.59
872.67	2856.92
872.83	2877.40
873.00	3364.81
873.17	3258.32
873.33	2994.13
873.50	3004.37
873.67	3123.15
873.83	3092.43
874.00	2904.02
874.16	3004.37
874.33	3342.28
874.50	3082.19
874.66	2828.24
874.83	3067.86
875.00	3485.64
875.16	3475.40
875.33	3037.14
875.50	2760.66
875.66	3188.69
875.83	3168.21
875.99	3047.38
876.16	2996.18
876.33	3084.24
876.49	3168.21
876.66	2983.89
876.83	2967.51
876.99	2920.40
877.16	3200.98
877.32	2877.40
877.49	3026.90
877.66	3352.52
877.82	3542.99
877.99	3028.95
878.15	3139.54
878.32	3325.90
878.49	3360.72
878.65	2971.60
878.82	3278.80
878.98	3119.06
879.15	3524.55
879.32	3151.82
879.48	3069.91
879.65	3180.50
879.81	3092.43
879.98	2897.88
880.15	3008.47
880.31	3416.01
880.48	3043.28
880.64	2985.94
880.81	3082.19
880.97	3590.09
881.14	3540.94
881.31	2926.55
881.47	3143.63
881.64	3200.98
881.80	2910.16
881.97	3143.63
882.13	2930.64
882.30	2990.03
882.47	3141.58
882.63	2906.07
882.80	2953.17
882.96	3192.78
883.13	3483.59
883.29	2875.35
883.46	2881.49
883.62	3712.97
883.79	3323.85
883.95	3051.47
884.12	2877.40
884.29	3440.59
884.45	3315.66
884.62	2938.84
884.78	2924.50
884.95	3680.20
885.11	3057.62
885.28	2979.79
885.44	2926.55
885.61	3377.10
885.77	3631.05
885.94	3022.80
886.10	3018.71
886.27	3299.28
886.43	3629.00
886.60	3049.43
886.76	2920.40
886.93	3045.33
887.09	3362.76
887.26	2899.92
887.42	3024.85
887.59	3479.50
887.75	3798.98
887.92	3125.20
888.08	3037.14
888.25	3594.19
888.41	3434.44
888.58	3045.33
888.74	2861.01
888.91	3057.62
>>>>>End Processed Spectral Data<<<<<
