SpectraSuite Data File
++++++++++++++++++++++++++++++++++++
Date: Fri May 06 08:14:20 CEST 2016
User: root
Dark Spectrum Present: No
Reference Spectrum Present: No
Number of Sampled Component Spectra: 1
Spectrometers: USB4C02835
Integration Time (usec): 100000 (USB4C02835)
Spectra Averaged: 1 (USB4C02835)
Boxcar Smoothing: 0 (USB4C02835)
Correct for Electrical Dark: No (USB4C02835)
Strobe/Lamp Enabled: No (USB4C02835)
Correct for Detector Non-linearity: No (USB4C02835)
Correct for Stray Light: No (USB4C02835)
Number of Pixels in Processed Spectrum: 3648
>>>>>Begin Processed Spectral Data<<<<<
177.47	2277.34
177.69	2277.34
177.91	2277.34
178.13	2209.76
178.36	2312.16
178.58	3112.91
178.80	3137.49
179.02	2981.84
179.24	3053.52
179.46	2754.52
179.68	2807.77
179.90	3254.22
180.13	3246.03
180.35	2594.78
180.57	2861.01
180.79	3504.07
181.01	3317.71
181.23	2904.02
181.45	3035.09
181.67	3461.07
181.90	3401.68
182.12	2863.06
182.34	2674.65
182.56	3379.15
182.78	3354.57
183.00	2791.38
183.22	2889.68
183.44	2938.84
183.66	3893.19
183.89	3051.47
184.11	2832.34
184.33	3452.88
184.55	3608.52
184.77	2863.06
184.99	2879.44
185.21	3278.80
185.43	3672.01
185.65	2899.92
185.87	2867.16
186.10	3764.17
186.32	3813.32
186.54	3020.75
186.76	3047.38
186.98	3571.66
187.20	3246.03
187.42	2951.12
187.64	2854.87
187.86	3381.20
188.08	3479.50
188.30	2846.68
188.52	2871.25
188.75	3571.66
188.97	3510.22
189.19	2801.62
189.41	2803.67
189.63	3366.86
189.85	3172.30
190.07	2752.47
190.29	2666.46
190.51	3276.75
190.73	2977.75
190.95	3125.20
191.17	2877.40
191.39	2879.44
191.61	3184.59
191.84	2889.68
192.06	3000.27
192.28	3022.80
192.50	3889.09
192.72	3047.38
192.94	2961.36
193.16	3497.93
193.38	3397.58
193.60	2781.14
193.82	3065.81
194.04	3495.88
194.26	3389.39
194.48	2891.73
194.70	2865.11
194.92	3184.59
195.14	3446.73
195.36	2867.16
195.58	2918.36
195.80	3241.93
196.02	3180.50
196.24	2781.14
196.46	3002.32
196.69	3133.39
196.91	3766.21
197.13	2811.86
197.35	2934.74
197.57	3637.19
197.79	3350.48
198.01	2832.34
198.23	2863.06
198.45	3393.48
198.67	3082.19
198.89	2682.84
199.11	2926.55
199.33	3096.53
199.55	2822.10
199.77	2850.77
199.99	2992.08
200.21	3225.55
200.43	3395.53
200.65	2781.14
200.87	2695.13
201.09	3297.23
201.31	3252.17
201.53	2918.36
201.75	2942.93
201.97	3233.74
202.19	3413.96
202.41	2969.55
202.63	2947.03
202.85	3420.11
203.07	3401.68
203.29	2973.65
203.51	2838.48
203.73	3141.58
203.95	3796.93
204.17	2820.05
204.39	2987.99
204.61	3221.45
204.83	3172.30
205.05	2912.21
205.27	2850.77
205.49	3721.16
205.71	3221.45
205.93	2807.77
206.15	2777.05
206.37	3315.66
206.59	3348.43
206.81	2691.03
207.03	2670.55
207.25	3141.58
207.47	3459.02
207.69	2879.44
207.91	3135.44
208.13	3723.21
208.34	3139.54
208.56	2801.62
208.78	2936.79
209.00	3248.08
209.22	3229.65
209.44	2906.07
209.66	2754.52
209.88	3340.24
210.10	3196.88
210.32	2844.63
210.54	3002.32
210.76	3155.92
210.98	3407.82
211.20	2822.10
211.42	2901.97
211.64	3647.43
211.86	3356.62
212.08	2910.16
212.30	2910.16
212.52	3205.07
212.74	3370.96
212.96	3018.71
213.17	2918.36
213.39	3549.13
213.61	3680.20
213.83	2852.82
214.05	2723.80
214.27	3563.47
214.49	3033.04
214.71	2791.38
214.93	2969.55
215.15	3319.76
215.37	3479.50
215.59	2652.12
215.81	2959.31
216.03	3493.83
216.24	3241.93
216.46	2828.24
216.68	2918.36
216.90	3393.48
217.12	3538.89
217.34	2813.91
217.56	3104.72
217.78	3540.94
218.00	3352.52
218.22	2963.41
218.44	2897.88
218.66	3336.14
218.87	3721.16
219.09	2955.22
219.31	2881.49
219.53	3393.48
219.75	3213.26
219.97	2914.26
220.19	2863.06
220.41	3264.46
220.63	3583.95
220.85	2867.16
221.06	2875.35
221.28	3499.98
221.50	3389.39
221.72	2883.54
221.94	2801.62
222.16	3327.95
222.38	3381.20
222.60	2840.53
222.82	2852.82
223.03	3430.35
223.25	3037.14
223.47	2793.43
223.69	3057.62
223.91	3289.04
224.13	3217.36
224.35	2768.85
224.57	3090.38
224.78	3553.23
225.00	3094.48
225.22	2942.93
225.44	2809.81
225.66	3481.55
225.88	3166.16
226.10	3028.95
226.32	2830.29
226.53	3616.71
226.75	3213.26
226.97	2971.60
227.19	2789.33
227.41	3074.00
227.63	3176.40
227.85	2748.37
228.06	2940.88
228.28	3397.58
228.50	3547.08
228.72	2688.98
228.94	2803.67
229.16	2942.93
229.37	3149.78
229.59	2713.56
229.81	3074.00
230.03	3188.69
230.25	3108.82
230.47	2703.32
230.69	2936.79
230.90	3487.69
231.12	3108.82
231.34	2977.75
231.56	2987.99
231.78	3041.23
232.00	3217.36
232.21	2893.78
232.43	2926.55
232.65	2891.73
232.87	3352.52
233.09	2746.33
233.30	2844.63
233.52	3553.23
233.74	3162.06
233.96	2799.57
234.18	3055.57
234.40	3237.84
234.61	3768.26
234.83	2756.57
235.05	2850.77
235.27	3747.78
235.49	3475.40
235.70	2738.13
235.92	2926.55
236.14	3413.96
236.36	3837.89
236.58	2721.75
236.79	2953.17
237.01	3235.79
237.23	3330.00
237.45	3084.24
237.67	2934.74
237.88	3456.97
238.10	3647.43
238.32	2748.37
238.54	2838.48
238.76	3321.81
238.97	3053.52
239.19	2807.77
239.41	2914.26
239.63	3561.42
239.85	3182.54
240.06	2926.55
240.28	2879.44
240.50	3512.27
240.72	3309.52
240.93	2797.53
241.15	2996.18
241.37	3262.41
241.59	3532.75
241.81	2852.82
242.02	3008.47
242.24	3362.76
242.46	3403.72
242.68	2713.56
242.89	2797.53
243.11	3438.54
243.33	3264.46
243.55	2836.44
243.76	2869.20
243.98	3188.69
244.20	3307.47
244.42	2871.25
244.64	2752.47
244.85	3069.91
245.07	3151.82
245.29	2897.88
245.51	2953.17
245.72	3377.10
245.94	3538.89
246.16	2820.05
246.38	2934.74
246.59	3184.59
246.81	3123.15
247.03	2807.77
247.24	2701.27
247.46	3182.54
247.68	3385.29
247.90	2721.75
248.11	2842.58
248.33	3461.07
248.55	3258.32
248.77	2834.39
248.98	2992.08
249.20	3657.67
249.42	3305.42
249.64	2793.43
249.85	2908.12
250.07	3241.93
250.29	3385.29
250.50	2971.60
250.72	2736.09
250.94	3405.77
251.16	3762.12
251.37	2779.09
251.59	2904.02
251.81	3338.19
252.02	3590.09
252.24	2789.33
252.46	3028.95
252.68	3139.54
252.89	3106.77
253.11	2666.46
253.33	3067.86
253.54	3471.31
253.76	3065.81
253.98	2826.20
254.20	2865.11
254.41	3082.19
254.63	3235.79
254.85	2721.75
255.06	3053.52
255.28	3358.67
255.50	3182.54
255.71	2791.38
255.93	2746.33
256.15	3237.84
256.36	3319.76
256.58	2815.96
256.80	2799.57
257.02	3317.71
257.23	3188.69
257.45	2951.12
257.67	3020.75
257.88	3127.25
258.10	3291.09
258.32	2926.55
258.53	3016.66
258.75	3629.00
258.97	3233.74
259.18	2775.00
259.40	2766.81
259.62	3606.47
259.83	3610.57
260.05	2881.49
260.27	3819.46
260.48	3430.35
260.70	3100.62
260.92	2742.23
261.13	2963.41
261.35	3319.76
261.57	3319.76
261.78	2795.48
262.00	2797.53
262.22	3385.29
262.43	3127.25
262.65	2916.31
262.86	2770.90
263.08	3717.06
263.30	3358.67
263.51	2715.61
263.73	2844.63
263.95	3540.94
264.16	3194.83
264.38	2768.85
264.60	2775.00
264.81	3239.89
265.03	3508.17
265.25	3301.33
265.46	2787.29
265.68	3557.32
265.89	3424.20
266.11	2752.47
266.33	2861.01
266.54	3493.83
266.76	3377.10
266.98	2887.64
267.19	3045.33
267.41	3459.02
267.62	3252.17
267.84	2656.22
268.06	2910.16
268.27	3307.47
268.49	3440.59
268.70	2877.40
268.92	2856.92
269.14	3053.52
269.35	3000.27
269.57	2877.40
269.79	2904.02
270.00	3182.54
270.22	3633.10
270.43	2799.57
270.65	2736.09
270.87	3297.23
271.08	3438.54
271.30	2934.74
271.51	2912.21
271.73	3444.68
271.95	3532.75
272.16	2809.81
272.38	3135.44
272.59	3198.93
272.81	3375.05
273.02	2809.81
273.24	2938.84
273.46	3444.68
273.67	3010.51
273.89	2777.05
274.10	2856.92
274.32	3448.78
274.54	3260.37
274.75	2983.89
274.97	2942.93
275.18	3436.49
275.40	3352.52
275.61	2914.26
275.83	3024.85
276.05	3106.77
276.26	3299.28
276.48	2985.94
276.69	2990.03
276.91	3110.86
277.12	3516.36
277.34	3067.86
277.55	3039.19
277.77	3223.50
277.99	3160.02
278.20	3022.80
278.42	2930.64
278.63	3092.43
278.85	3123.15
279.06	2928.60
279.28	3123.15
279.49	3461.07
279.71	3430.35
279.93	3043.28
280.14	2983.89
280.36	3112.91
280.57	3467.21
280.79	3088.34
281.00	2891.73
281.22	3139.54
281.43	3520.46
281.65	2772.95
281.86	2875.35
282.08	3366.86
282.29	3737.54
282.51	2887.64
282.73	2848.72
282.94	2975.70
283.16	3387.34
283.37	3092.43
283.59	2955.22
283.80	3393.48
284.02	3297.23
284.23	3063.76
284.45	3104.72
284.66	3053.52
284.88	3084.24
285.09	2928.60
285.31	3004.37
285.52	3370.96
285.74	2969.55
285.95	3166.16
286.17	3008.47
286.38	3495.88
286.60	3102.67
286.81	2944.98
287.03	3002.32
287.24	3278.80
287.46	3360.72
287.67	3166.16
287.89	3239.89
288.10	3213.26
288.32	3289.04
288.53	3151.82
288.75	3059.67
288.96	3420.11
289.18	3200.98
289.39	2926.55
289.61	3020.75
289.82	3755.97
290.04	3788.74
290.25	2918.36
290.47	3063.76
290.68	3243.98
290.90	3452.88
291.11	2781.14
291.33	3110.86
291.54	3114.96
291.76	3119.06
291.97	3155.92
292.18	3129.30
292.40	3172.30
292.61	3139.54
292.83	3299.28
293.04	2951.12
293.26	3231.69
293.47	3196.88
293.69	2922.45
293.90	2901.97
294.12	3573.71
294.33	3344.33
294.55	2983.89
294.76	3121.10
294.97	3571.66
295.19	3729.35
295.40	3002.32
295.62	3045.33
295.83	3344.33
296.05	3166.16
296.26	3258.32
296.48	2942.93
296.69	3301.33
296.90	3198.93
297.12	3155.92
297.33	3188.69
297.55	3323.85
297.76	3420.11
297.98	3137.49
298.19	3209.17
298.41	3284.94
298.62	3047.38
298.83	3190.74
299.05	3106.77
299.26	3223.50
299.48	3123.15
299.69	3098.58
299.90	2957.27
300.12	3090.38
300.33	3467.21
300.55	3065.81
300.76	2985.94
300.98	3114.96
301.19	3413.96
301.40	3006.42
301.62	2987.99
301.83	3358.67
302.05	3289.04
302.26	2969.55
302.47	3100.62
302.69	3059.67
302.90	3272.65
303.12	2775.00
303.33	3071.95
303.54	3635.14
303.76	3131.34
303.97	2922.45
304.19	3125.20
304.40	3024.85
304.61	3448.78
304.83	3086.29
305.04	3008.47
305.26	3422.16
305.47	3215.31
305.68	3016.66
305.90	2830.29
306.11	3608.52
306.33	3237.84
306.54	2877.40
306.75	3090.38
306.97	3008.47
307.18	3117.01
307.39	2994.13
307.61	3117.01
307.82	3237.84
308.04	3377.10
308.25	2885.59
308.46	3114.96
308.68	3278.80
308.89	3321.81
309.10	3164.11
309.32	3028.95
309.53	3266.51
309.74	3295.18
309.96	2955.22
310.17	3065.81
310.39	3268.56
310.60	3411.92
310.81	3106.77
311.03	2955.22
311.24	3385.29
311.45	3319.76
311.67	3227.60
311.88	3168.21
312.09	3186.64
312.31	3166.16
312.52	2961.36
312.73	3000.27
312.95	3047.38
313.16	3074.00
313.37	3241.93
313.59	3172.30
313.80	3442.64
314.01	3530.70
314.23	3063.76
314.44	2893.78
314.65	3133.39
314.87	3098.58
315.08	2934.74
315.29	3041.23
315.51	3117.01
315.72	3047.38
315.93	3059.67
316.15	3061.71
316.36	3188.69
316.57	3368.91
316.79	3000.27
317.00	2947.03
317.21	3401.68
317.43	3108.82
317.64	3045.33
317.85	2936.79
318.07	3160.02
318.28	3248.08
318.49	3063.76
318.70	3323.85
318.92	3346.38
319.13	3354.57
319.34	3219.41
319.56	2992.08
319.77	3403.72
319.98	3428.30
320.20	3299.28
320.41	3221.45
320.62	3426.25
320.83	3061.71
321.05	3274.70
321.26	2981.84
321.47	3332.05
321.69	3452.88
321.90	2916.31
322.11	2961.36
322.32	3350.48
322.54	3631.05
322.75	3041.23
322.96	4026.31
323.18	2981.84
323.39	2934.74
323.60	2918.36
323.81	3067.86
324.03	3065.81
324.24	3256.27
324.45	3129.30
324.66	2891.73
324.88	3444.68
325.09	3487.69
325.30	2985.94
325.52	2856.92
325.73	3391.44
325.94	3088.34
326.15	2846.68
326.37	2826.20
326.58	3422.16
326.79	3665.86
327.00	2863.06
327.22	2969.55
327.43	3246.03
327.64	3076.05
327.85	3137.49
328.07	3059.67
328.28	3678.15
328.49	3211.22
328.70	3022.80
328.92	2996.18
329.13	3178.45
329.34	3370.96
329.55	3278.80
329.76	3139.54
329.98	3217.36
330.19	3602.38
330.40	3051.47
330.61	3178.45
330.83	3403.72
331.04	3160.02
331.25	3057.62
331.46	2951.12
331.68	3016.66
331.89	3518.41
332.10	3020.75
332.31	2934.74
332.52	3311.57
332.74	3520.46
332.95	2838.48
333.16	2977.75
333.37	3356.62
333.58	3172.30
333.80	2979.79
334.01	2807.77
334.22	3262.41
334.43	3121.10
334.64	2908.12
334.86	3002.32
335.07	3074.00
335.28	3497.93
335.49	2922.45
335.70	3114.96
335.92	3583.95
336.13	3739.59
336.34	3123.15
336.55	2969.55
336.76	3301.33
336.98	2873.30
337.19	2969.55
337.40	3067.86
337.61	3833.80
337.82	3223.50
338.04	3061.71
338.25	2797.53
338.46	3250.13
338.67	3299.28
338.88	2914.26
339.09	2875.35
339.31	3149.78
339.52	3055.57
339.73	2951.12
339.94	3071.95
340.15	3459.02
340.36	3198.93
340.58	3069.91
340.79	2869.20
341.00	3416.01
341.21	2992.08
341.42	3256.27
341.63	3037.14
341.85	3448.78
342.06	3303.37
342.27	3008.47
342.48	3147.73
342.69	3092.43
342.90	3336.14
343.12	3334.09
343.33	2858.96
343.54	3489.74
343.75	3508.17
343.96	3192.78
344.17	2881.49
344.38	3231.69
344.60	3164.11
344.81	3047.38
345.02	3041.23
345.23	3497.93
345.44	3856.33
345.65	3065.81
345.86	3104.72
346.07	3319.76
346.29	3145.68
346.50	3168.21
346.71	3061.71
346.92	3581.90
347.13	3676.10
347.34	3162.06
347.55	2861.01
347.76	3393.48
347.98	3002.32
348.19	3071.95
348.40	3203.02
348.61	3233.74
348.82	3631.05
349.03	3090.38
349.24	2947.03
349.45	3688.39
349.66	2934.74
349.88	2920.40
350.09	2885.59
350.30	3483.59
350.51	3563.47
350.72	3188.69
350.93	3043.28
351.14	3209.17
351.35	3366.86
351.56	3008.47
351.77	3067.86
351.99	3346.38
352.20	3567.56
352.41	3157.97
352.62	2811.86
352.83	3286.99
353.04	3254.22
353.25	2940.88
353.46	3035.09
353.67	3481.55
353.88	2922.45
354.09	2975.70
354.30	2992.08
354.52	3352.52
354.73	3192.78
354.94	2985.94
355.15	2990.03
355.36	3745.73
355.57	3157.97
355.78	2942.93
355.99	3022.80
356.20	3258.32
356.41	3569.61
356.62	3098.58
356.83	3033.04
357.04	3526.60
357.25	3098.58
357.46	3018.71
357.68	2914.26
357.89	3137.49
358.10	3196.88
358.31	2977.75
358.52	3024.85
358.73	3018.71
358.94	3084.24
359.15	3018.71
359.36	2963.41
359.57	3311.57
359.78	3215.31
359.99	3192.78
360.20	2908.12
360.41	3317.71
360.62	3440.59
360.83	3088.34
361.04	3049.43
361.25	3469.26
361.46	3604.42
361.67	3106.77
361.88	2987.99
362.09	3504.07
362.30	3286.99
362.51	2908.12
362.72	3074.00
362.93	3434.44
363.14	3397.58
363.35	3106.77
363.56	2938.84
363.78	3532.75
363.99	3526.60
364.20	2985.94
364.41	3020.75
364.62	3590.09
364.83	3428.30
365.04	3041.23
365.25	3051.47
365.46	3614.66
365.67	3129.30
365.88	3194.83
366.09	2987.99
366.30	3155.92
366.51	3278.80
366.72	2885.59
366.93	2947.03
367.14	3354.57
367.35	3520.46
367.56	2924.50
367.77	3086.29
367.98	3258.32
368.18	3368.91
368.39	3149.78
368.60	2904.02
368.81	3416.01
369.02	3303.37
369.23	3014.61
369.44	2904.02
369.65	3243.98
369.86	3377.10
370.07	3139.54
370.28	2883.54
370.49	3303.37
370.70	3389.39
370.91	2967.51
371.12	2906.07
371.33	3479.50
371.54	3133.39
371.75	3051.47
371.96	2727.89
372.17	3325.90
372.38	3176.40
372.59	3018.71
372.80	2922.45
373.01	3198.93
373.22	3397.58
373.43	2996.18
373.64	2910.16
373.85	3569.61
374.06	3569.61
374.26	3127.25
374.47	3125.20
374.68	3555.27
374.89	3346.38
375.10	2944.98
375.31	3139.54
375.52	3303.37
375.73	3307.47
375.94	2916.31
376.15	3112.91
376.36	3217.36
376.57	3196.88
376.78	3135.44
376.99	3143.63
377.20	3534.79
377.40	3182.54
377.61	3393.48
377.82	2987.99
378.03	3518.41
378.24	3438.54
378.45	3076.05
378.66	3059.67
378.87	2930.64
379.08	3008.47
379.29	3069.91
379.50	3196.88
379.71	3233.74
379.91	3438.54
380.12	3022.80
380.33	3129.30
380.54	3221.45
380.75	3276.75
380.96	3006.42
381.17	3041.23
381.38	3241.93
381.59	3198.93
381.80	3051.47
382.00	3147.73
382.21	3221.45
382.42	3540.94
382.63	3379.15
382.84	3194.83
383.05	3524.55
383.26	3559.37
383.47	3200.98
383.68	2979.79
383.88	3354.57
384.09	3297.23
384.30	3213.26
384.51	3151.82
384.72	3162.06
384.93	2971.60
385.14	3088.34
385.35	3272.65
385.55	2967.51
385.76	3481.55
385.97	2994.13
386.18	2901.97
386.39	3080.14
386.60	3178.45
386.81	2942.93
387.02	2906.07
387.22	3049.43
387.43	3418.06
387.64	3067.86
387.85	3256.27
388.06	3286.99
388.27	4351.93
388.48	7896.97
388.68	12078.92
388.89	15263.51
389.10	16656.13
389.31	16158.47
389.52	12982.07
389.73	11278.16
389.93	10307.43
390.14	9168.76
390.35	8621.95
390.56	7884.68
390.77	6639.51
390.98	5091.25
391.18	4241.34
391.39	3844.04
391.60	3313.61
391.81	3272.65
392.02	3078.10
392.23	3780.55
392.43	3305.42
392.64	3157.97
392.85	3147.73
393.06	3688.39
393.27	3211.22
393.47	2996.18
393.68	3045.33
393.89	3221.45
394.10	3471.31
394.31	3000.27
394.52	2975.70
394.72	3106.77
394.93	3608.52
395.14	2906.07
395.35	3168.21
395.56	3190.74
395.76	3266.51
395.97	2922.45
396.18	3164.11
396.39	3246.03
396.60	3905.48
396.80	3434.44
397.01	3270.61
397.22	3387.34
397.43	3438.54
397.64	2987.99
397.84	3137.49
398.05	3692.49
398.26	3235.79
398.47	3192.78
398.67	3272.65
398.88	3321.81
399.09	3350.48
399.30	3020.75
399.51	3049.43
399.71	3121.10
399.92	3233.74
400.13	3057.62
400.34	3055.57
400.54	3289.04
400.75	3592.14
400.96	3172.30
401.17	3344.33
401.37	3395.53
401.58	3221.45
401.79	3000.27
402.00	3160.02
402.21	3833.80
402.41	3377.10
402.62	3315.66
402.83	3571.66
403.04	3669.96
403.24	4130.75
403.45	3213.26
403.66	3434.44
403.87	3575.75
404.07	3657.67
404.28	3280.85
404.49	3366.86
404.70	3321.81
404.90	3483.59
405.11	3090.38
405.32	3155.92
405.52	3258.32
405.73	3188.69
405.94	2967.51
406.15	3182.54
406.35	3446.73
406.56	3325.90
406.77	3121.10
406.98	3010.51
407.18	3090.38
407.39	3647.43
407.60	3114.96
407.80	3192.78
408.01	3198.93
408.22	3370.96
408.43	2994.13
408.63	3200.98
408.84	3502.03
409.05	3420.11
409.25	2992.08
409.46	3008.47
409.67	3227.60
409.88	3123.15
410.08	3071.95
410.29	3024.85
410.50	3475.40
410.70	3377.10
410.91	3004.37
411.12	3084.24
411.32	3360.72
411.53	3114.96
411.74	3051.47
411.95	3131.34
412.15	3297.23
412.36	3356.62
412.57	3248.08
412.77	3286.99
412.98	3211.22
413.19	3094.48
413.39	3094.48
413.60	3143.63
413.81	3614.66
414.01	3065.81
414.22	3082.19
414.43	3227.60
414.63	3205.07
414.84	3477.45
415.05	3092.43
415.25	2922.45
415.46	3430.35
415.67	3141.58
415.87	3008.47
416.08	3033.04
416.29	3135.44
416.49	3295.18
416.70	3098.58
416.91	3078.10
417.11	3250.13
417.32	3545.03
417.53	3135.44
417.73	3166.16
417.94	3350.48
418.15	3336.14
418.35	3096.53
418.56	3024.85
418.77	3788.74
418.97	3330.00
419.18	3172.30
419.38	2766.81
419.59	3319.76
419.80	3606.47
420.00	3012.56
420.21	3037.14
420.42	3534.79
420.62	3346.38
420.83	3112.91
421.04	3065.81
421.24	3213.26
421.45	3473.36
421.65	3078.10
421.86	3086.29
422.07	3397.58
422.27	3383.24
422.48	3010.51
422.69	2908.12
422.89	3264.46
423.10	3194.83
423.30	2969.55
423.51	3069.91
423.72	3354.57
423.92	3334.09
424.13	2940.88
424.33	3135.44
424.54	3487.69
424.75	3321.81
424.95	3254.22
425.16	2959.31
425.36	3221.45
425.57	3387.34
425.78	3188.69
425.98	3196.88
426.19	3235.79
426.39	3090.38
426.60	3082.19
426.81	3160.02
427.01	3463.12
427.22	3147.73
427.42	2885.59
427.63	2985.94
427.83	3418.06
428.04	3665.86
428.25	3045.33
428.45	3164.11
428.66	3479.50
428.86	3211.22
429.07	3133.39
429.28	3112.91
429.48	3213.26
429.69	3137.49
429.89	3182.54
430.10	2920.40
430.30	3401.68
430.51	3549.13
430.71	3014.61
430.92	3074.00
431.13	3157.97
431.33	3352.52
431.54	3155.92
431.74	3305.42
431.95	3715.02
432.15	3147.73
432.36	3069.91
432.56	3174.35
432.77	3764.17
432.98	3567.56
433.18	3108.82
433.39	2908.12
433.59	3213.26
433.80	3778.50
434.00	3246.03
434.21	3020.75
434.41	3131.34
434.62	3741.64
434.82	2926.55
435.03	3065.81
435.23	3321.81
435.44	2959.31
435.64	2987.99
435.85	3082.19
436.06	3366.86
436.26	3516.36
436.47	3055.57
436.67	3041.23
436.88	3254.22
437.08	3522.51
437.29	3209.17
437.49	3164.11
437.70	3481.55
437.90	3327.95
438.11	3246.03
438.31	3137.49
438.52	3559.37
438.72	3555.27
438.93	3461.07
439.13	3174.35
439.34	3516.36
439.54	3184.59
439.75	3205.07
439.95	3121.10
440.16	3157.97
440.36	3317.71
440.57	3057.62
440.77	3149.78
440.98	3297.23
441.18	3375.05
441.39	2990.03
441.59	2920.40
441.80	3700.68
442.00	3233.74
442.21	3155.92
442.41	2901.97
442.62	3446.73
442.82	3100.62
443.02	2992.08
443.23	3057.62
443.43	3239.89
443.64	3565.51
443.84	2901.97
444.05	3147.73
444.25	3327.95
444.46	3217.36
444.66	3018.71
444.87	3334.09
445.07	3004.37
445.28	3241.93
445.48	3198.93
445.69	3094.48
445.89	3835.85
446.09	3231.69
446.30	3332.05
446.50	3448.78
446.71	5085.11
446.91	6449.05
447.12	7231.38
447.32	7624.59
447.53	7675.79
447.73	6442.91
447.93	5656.49
448.14	5373.87
448.34	5423.02
448.55	4442.04
448.75	4480.96
448.96	4245.44
449.16	4114.37
449.36	3983.30
449.57	3352.52
449.77	3153.87
449.98	3155.92
450.18	3368.91
450.39	2944.98
450.59	3227.60
450.79	3246.03
451.00	3155.92
451.20	3303.37
451.41	2981.84
451.61	3428.30
451.81	3233.74
452.02	3033.04
452.22	3030.99
452.43	3121.10
452.63	3074.00
452.84	3123.15
453.04	3100.62
453.24	3383.24
453.45	3082.19
453.65	3129.30
453.86	3069.91
454.06	3258.32
454.26	3237.84
454.47	3002.32
454.67	3221.45
454.87	3354.57
455.08	3280.85
455.28	3217.36
455.49	3270.61
455.69	3131.34
455.89	3692.49
456.10	3219.41
456.30	2981.84
456.51	3428.30
456.71	3373.00
456.91	3200.98
457.12	3004.37
457.32	3426.25
457.52	3061.71
457.73	3188.69
457.93	3286.99
458.14	3098.58
458.34	2936.79
458.54	3082.19
458.75	3004.37
458.95	3567.56
459.15	3413.96
459.36	3108.82
459.56	3041.23
459.76	3745.73
459.97	3272.65
460.17	3098.58
460.37	3139.54
460.58	3336.14
460.78	3411.92
460.99	3104.72
461.19	3037.14
461.39	3069.91
461.60	3260.37
461.80	3139.54
462.00	2914.26
462.21	3276.75
462.41	3088.34
462.61	2885.59
462.82	2910.16
463.02	3364.81
463.22	3317.71
463.43	3110.86
463.63	2852.82
463.83	3489.74
464.04	3407.82
464.24	3061.71
464.44	2953.17
464.64	3362.76
464.85	3375.05
465.05	3033.04
465.25	2938.84
465.46	3168.21
465.66	3373.00
465.86	3123.15
466.07	3067.86
466.27	3268.56
466.47	2969.55
466.68	2901.97
466.88	3221.45
467.08	3401.68
467.29	3463.12
467.49	3086.29
467.69	3117.01
467.89	3424.20
468.10	3258.32
468.30	3164.11
468.50	3104.72
468.71	3430.35
468.91	2955.22
469.11	3215.31
469.31	3147.73
469.52	3067.86
469.72	3590.09
469.92	3352.52
470.13	3076.05
470.33	3309.52
470.53	3297.23
470.73	3502.03
470.94	3862.47
471.14	4169.66
471.34	4788.15
471.54	4339.65
471.75	4077.51
471.95	3878.85
472.15	3772.36
472.36	3727.30
472.56	3559.37
472.76	3872.71
472.96	3786.69
473.17	3432.40
473.37	3248.08
473.57	3246.03
473.77	3416.01
473.98	3250.13
474.18	3016.66
474.38	3905.48
474.58	3184.59
474.79	2955.22
474.99	3203.02
475.19	3557.32
475.39	3010.51
475.60	3114.96
475.80	2992.08
476.00	3305.42
476.20	3153.87
476.41	3080.14
476.61	3131.34
476.81	3461.07
477.01	3123.15
477.21	3434.44
477.42	3192.78
477.62	3123.15
477.82	3493.83
478.02	2959.31
478.23	3127.25
478.43	3129.30
478.63	3299.28
478.83	3059.67
479.03	3098.58
479.24	3594.19
479.44	3766.21
479.64	2955.22
479.84	2875.35
480.04	3114.96
480.25	3416.01
480.45	2992.08
480.65	3000.27
480.85	3620.81
481.06	3131.34
481.26	3229.65
481.46	3108.82
481.66	3362.76
481.86	3110.86
482.06	3192.78
482.27	3160.02
482.47	3229.65
482.67	3352.52
482.87	3057.62
483.07	3135.44
483.28	3141.58
483.48	3000.27
483.68	3082.19
483.88	2994.13
484.08	2824.15
484.29	3033.04
484.49	3104.72
484.69	2869.20
484.89	3608.52
485.09	3387.34
485.29	3086.29
485.50	3219.41
485.70	3098.58
485.90	3534.79
486.10	3186.64
486.30	2977.75
486.50	3614.66
486.71	3295.18
486.91	3147.73
487.11	3147.73
487.31	2947.03
487.51	3334.09
487.71	3059.67
487.91	3041.23
488.12	3104.72
488.32	2848.72
488.52	3063.76
488.72	2779.09
488.92	3280.85
489.12	3577.80
489.32	3184.59
489.53	3090.38
489.73	2969.55
489.93	3553.23
490.13	3026.90
490.33	2930.64
490.53	3348.43
490.73	3551.18
490.94	2893.78
491.14	3182.54
491.34	3375.05
491.54	3454.92
491.74	4044.74
491.94	4456.38
492.14	5197.74
492.34	5314.48
492.54	4804.53
492.75	4054.98
492.95	4442.04
493.15	4102.08
493.35	3829.70
493.55	3712.97
493.75	3764.17
493.95	3948.48
494.15	3383.24
494.35	3086.29
494.56	3264.46
494.76	3174.35
494.96	3225.55
495.16	3037.14
495.36	3196.88
495.56	3354.57
495.76	3170.26
495.96	3100.62
496.16	3119.06
496.36	3702.73
496.56	2992.08
496.77	3157.97
496.97	3241.93
497.17	3534.79
497.37	2904.02
497.57	3160.02
497.77	3246.03
497.97	3078.10
498.17	3059.67
498.37	3047.38
498.57	3428.30
498.77	3155.92
498.97	3215.31
499.17	3444.68
499.38	3229.65
499.58	3413.96
499.78	3266.51
499.98	3297.23
500.18	3237.84
500.38	3121.10
500.58	3330.00
500.78	3620.81
500.98	6166.43
501.18	8241.03
501.38	9740.14
501.58	11095.89
501.78	11028.31
501.98	9099.13
502.18	7565.20
502.38	6481.82
502.58	6410.14
502.78	5732.26
502.98	5357.49
503.18	5115.83
503.38	4886.45
503.59	4239.30
503.79	4087.75
503.99	3727.30
504.19	3950.53
504.39	3907.52
504.59	3770.31
504.79	3600.33
504.99	3925.96
505.19	3577.80
505.39	3368.91
505.59	3571.66
505.79	3665.86
505.99	3438.54
506.19	3170.26
506.39	3383.24
506.59	3170.26
506.79	3241.93
506.99	3233.74
507.19	3037.14
507.39	3438.54
507.59	2994.13
507.79	3037.14
507.99	2971.60
508.19	3346.38
508.39	3227.60
508.59	3123.15
508.79	3172.30
508.99	3657.67
509.19	3125.20
509.39	3149.78
509.59	3039.19
509.79	3104.72
509.99	3379.15
510.19	3121.10
510.39	3205.07
510.59	3274.70
510.79	3194.83
510.99	2787.29
511.19	3000.27
511.39	3565.51
511.59	3463.12
511.79	3231.69
511.99	3092.43
512.19	3710.92
512.38	3338.19
512.58	2979.79
512.78	2990.03
512.98	3573.71
513.18	3518.41
513.38	2959.31
513.58	3160.02
513.78	3297.23
513.98	3213.26
514.18	3084.24
514.38	3067.86
514.58	3319.76
514.78	3168.21
514.98	2981.84
515.18	3053.52
515.38	3059.67
515.58	3573.71
515.78	3018.71
515.98	3035.09
516.18	3413.96
516.38	3246.03
516.57	3065.81
516.77	3069.91
516.97	3411.92
517.17	3209.17
517.37	2891.73
517.57	3059.67
517.77	3246.03
517.97	3143.63
518.17	3074.00
518.37	2926.55
518.57	3094.48
518.77	3168.21
518.97	3016.66
519.16	3149.78
519.36	3538.89
519.56	3112.91
519.76	2951.12
519.96	3065.81
520.16	3567.56
520.36	3061.71
520.56	3205.07
520.76	2944.98
520.96	3149.78
521.16	3428.30
521.35	3289.04
521.55	3217.36
521.75	3266.51
521.95	3174.35
522.15	3059.67
522.35	2828.24
522.55	3164.11
522.75	3452.88
522.95	2953.17
523.14	2850.77
523.34	3278.80
523.54	3172.30
523.74	3117.01
523.94	3055.57
524.14	2918.36
524.34	3313.61
524.54	3231.69
524.73	3108.82
524.93	3385.29
525.13	3313.61
525.33	2955.22
525.53	3352.52
525.73	3393.48
525.93	3262.41
526.13	3114.96
526.32	3033.04
526.52	3483.59
526.72	3469.26
526.92	3084.24
527.12	2994.13
527.32	3061.71
527.52	3362.76
527.71	3008.47
527.91	3067.86
528.11	3178.45
528.31	3295.18
528.51	3006.42
528.71	3233.74
528.90	3442.64
529.10	3573.71
529.30	3092.43
529.50	2807.77
529.70	3352.52
529.90	3237.84
530.09	3053.52
530.29	2893.78
530.49	3147.73
530.69	3844.04
530.89	3151.82
531.09	3104.72
531.28	3188.69
531.48	3526.60
531.68	3069.91
531.88	3035.09
532.08	3399.63
532.28	3147.73
532.47	3266.51
532.67	3114.96
532.87	3338.19
533.07	3145.68
533.27	3147.73
533.46	3143.63
533.66	3319.76
533.86	3266.51
534.06	3078.10
534.26	3049.43
534.45	3243.98
534.65	3440.59
534.85	3143.63
535.05	3026.90
535.25	3413.96
535.44	2910.16
535.64	3057.62
535.84	3078.10
536.04	3106.77
536.24	3209.17
536.43	3055.57
536.63	2926.55
536.83	3221.45
537.03	3180.50
537.22	2887.64
537.42	2820.05
537.62	3356.62
537.82	3133.39
538.02	3231.69
538.21	3151.82
538.41	3932.10
538.61	3395.53
538.81	3088.34
539.00	3272.65
539.20	3096.53
539.40	3221.45
539.60	3043.28
539.79	3297.23
539.99	3254.22
540.19	3057.62
540.39	3084.24
540.58	3149.78
540.78	3502.03
540.98	3284.94
541.18	3309.52
541.37	3098.58
541.57	3262.41
541.77	3332.05
541.97	2938.84
542.16	2940.88
542.36	3166.16
542.56	3192.78
542.76	3180.50
542.95	3110.86
543.15	3317.71
543.35	3454.92
543.54	2963.41
543.74	2910.16
543.94	3518.41
544.14	3137.49
544.33	3170.26
544.53	3098.58
544.73	3207.12
544.93	3131.34
545.12	3172.30
545.32	3012.56
545.52	3282.89
545.71	3100.62
545.91	3016.66
546.11	3002.32
546.30	3131.34
546.50	3299.28
546.70	3117.01
546.90	3076.05
547.09	2875.35
547.29	3248.08
547.49	3297.23
547.68	3071.95
547.88	3190.74
548.08	3446.73
548.27	3313.61
548.47	3010.51
548.67	3196.88
548.87	3459.02
549.06	3037.14
549.26	3057.62
549.46	3307.47
549.65	3178.45
549.85	3123.15
550.05	3133.39
550.24	2987.99
550.44	3286.99
550.64	3114.96
550.83	3153.87
551.03	3559.37
551.23	3497.93
551.42	3174.35
551.62	3151.82
551.82	3289.04
552.01	3272.65
552.21	3358.67
552.41	3147.73
552.60	3567.56
552.80	3370.96
553.00	3114.96
553.19	3098.58
553.39	3672.01
553.59	2990.03
553.78	3241.93
553.98	3041.23
554.17	2998.23
554.37	3286.99
554.57	3086.29
554.76	3004.37
554.96	3213.26
555.16	3278.80
555.35	3133.39
555.55	3141.58
555.75	3284.94
555.94	3360.72
556.14	2883.54
556.33	3182.54
556.53	3172.30
556.73	3178.45
556.92	3065.81
557.12	3067.86
557.32	3749.83
557.51	3575.75
557.71	3114.96
557.90	3264.46
558.10	3471.31
558.30	3178.45
558.49	3114.96
558.69	3030.99
558.88	3381.20
559.08	3305.42
559.28	3094.48
559.47	3092.43
559.67	3373.00
559.86	3651.53
560.06	2963.41
560.26	3076.05
560.45	3364.81
560.65	3248.08
560.84	3303.37
561.04	3035.09
561.24	3405.77
561.43	3074.00
561.63	3270.61
561.82	3182.54
562.02	3405.77
562.22	3117.01
562.41	3030.99
562.61	3041.23
562.80	3065.81
563.00	3829.70
563.19	3117.01
563.39	3221.45
563.59	3387.34
563.78	3098.58
563.98	2832.34
564.17	3049.43
564.37	2934.74
564.56	3227.60
564.76	2977.75
564.96	3215.31
565.15	3319.76
565.35	3665.86
565.54	3028.95
565.74	3172.30
565.93	3366.86
566.13	3246.03
566.32	3108.82
566.52	3186.64
566.71	3315.66
566.91	3424.20
567.11	3170.26
567.30	2967.51
567.50	3434.44
567.69	3381.20
567.89	3039.19
568.08	2938.84
568.28	3399.63
568.47	3006.42
568.67	3045.33
568.86	3110.86
569.06	3387.34
569.25	3147.73
569.45	2885.59
569.64	3018.71
569.84	3184.59
570.04	3319.76
570.23	3100.62
570.43	3131.34
570.62	3282.89
570.82	3553.23
571.01	2998.23
571.21	2981.84
571.40	3119.06
571.60	3461.07
571.79	3145.68
571.99	3016.66
572.18	3059.67
572.38	3330.00
572.57	3180.50
572.77	3188.69
572.96	3901.38
573.16	3301.33
573.35	3143.63
573.55	3231.69
573.74	3334.09
573.94	3213.26
574.13	3053.52
574.33	3160.02
574.52	3581.90
574.71	3254.22
574.91	3190.74
575.10	2871.25
575.30	3231.69
575.49	3065.81
575.69	2983.89
575.88	2998.23
576.08	3305.42
576.27	3489.74
576.47	3098.58
576.66	3168.21
576.86	3557.32
577.05	3323.85
577.25	3151.82
577.44	3303.37
577.64	3123.15
577.83	3532.75
578.02	3057.62
578.22	3239.89
578.41	3551.18
578.61	3235.79
578.80	2918.36
579.00	3149.78
579.19	3174.35
579.39	3319.76
579.58	3176.40
579.77	3076.05
579.97	3622.86
580.16	3487.69
580.36	3248.08
580.55	3074.00
580.75	3389.39
580.94	3260.37
581.13	3336.14
581.33	3313.61
581.52	3200.98
581.72	3633.10
581.91	3200.98
582.11	3039.19
582.30	3514.31
582.49	3319.76
582.69	3323.85
582.88	3174.35
583.08	3291.09
583.27	3377.10
583.47	3196.88
583.66	3012.56
583.85	3086.29
584.05	3225.55
584.24	3229.65
584.44	3114.96
584.63	3606.47
584.82	3510.22
585.02	3352.52
585.21	3295.18
585.41	3395.53
585.60	3311.57
585.79	3358.67
585.99	3389.39
586.18	3373.00
586.37	4337.60
586.57	6264.74
586.76	17991.41
586.96	37643.71
587.15	51588.33
587.34	60056.68
587.54	63626.29
587.73	56822.94
587.93	41301.39
588.12	31594.01
588.31	25796.21
588.51	22906.53
588.70	21042.88
588.89	18425.57
589.09	15871.76
589.28	13872.94
589.47	11016.02
589.67	8357.76
589.86	6457.25
590.06	5050.29
590.25	4466.62
590.44	3887.04
590.64	3487.69
590.83	3614.66
591.02	3542.99
591.22	3096.53
591.41	3160.02
591.60	3198.93
591.80	3858.37
591.99	2930.64
592.18	3080.14
592.38	3479.50
592.57	3203.02
592.76	3117.01
592.96	3155.92
593.15	3170.26
593.34	3553.23
593.54	3059.67
593.73	3184.59
593.92	3358.67
594.12	3456.97
594.31	3155.92
594.50	3330.00
594.70	3344.33
594.89	3819.46
595.08	2936.79
595.28	3205.07
595.47	3905.48
595.66	3504.07
595.86	3008.47
596.05	2965.46
596.24	3213.26
596.43	3624.90
596.63	3139.54
596.82	3254.22
597.01	3344.33
597.21	3643.34
597.40	3051.47
597.59	3100.62
597.79	3190.74
597.98	3381.20
598.17	3162.06
598.36	3129.30
598.56	3475.40
598.75	3235.79
598.94	3164.11
599.14	3174.35
599.33	3168.21
599.52	3418.06
599.71	3196.88
599.91	3061.71
600.10	3430.35
600.29	3299.28
600.48	3182.54
600.68	3217.36
600.87	3264.46
601.06	3211.22
601.26	3104.72
601.45	3213.26
601.64	3196.88
601.83	3616.71
602.03	2959.31
602.22	3018.71
602.41	3534.79
602.60	3762.12
602.80	3205.07
602.99	3194.83
603.18	3139.54
603.37	3231.69
603.57	2955.22
603.76	3065.81
603.95	3516.36
604.14	3237.84
604.34	2987.99
604.53	3020.75
604.72	3315.66
604.91	3440.59
605.10	3057.62
605.30	3024.85
605.49	3688.39
605.68	3524.55
605.87	3125.20
606.07	3098.58
606.26	3299.28
606.45	3420.11
606.64	3074.00
606.84	2897.88
607.03	3170.26
607.22	3497.93
607.41	3092.43
607.60	3082.19
607.80	3446.73
607.99	3246.03
608.18	3123.15
608.37	3149.78
608.56	3166.16
608.76	3526.60
608.95	3237.84
609.14	3049.43
609.33	3497.93
609.52	3559.37
609.72	3305.42
609.91	3166.16
610.10	3340.24
610.29	3581.90
610.48	3231.69
610.68	3264.46
610.87	3243.98
611.06	3438.54
611.25	3088.34
611.44	3196.88
611.63	3174.35
611.83	3545.03
612.02	2996.18
612.21	3180.50
612.40	3051.47
612.59	3065.81
612.79	2983.89
612.98	3065.81
613.17	3653.58
613.36	3274.70
613.55	3233.74
613.74	3051.47
613.93	3309.52
614.13	3436.49
614.32	3362.76
614.51	3149.78
614.70	3166.16
614.89	3205.07
615.08	3237.84
615.28	3459.02
615.47	3100.62
615.66	3280.85
615.85	3098.58
616.04	3203.02
616.23	3254.22
616.42	3264.46
616.62	3082.19
616.81	3102.67
617.00	3293.13
617.19	3413.96
617.38	3065.81
617.57	3051.47
617.76	3399.63
617.95	3405.77
618.15	3213.26
618.34	3282.89
618.53	2987.99
618.72	3506.12
618.91	3174.35
619.10	3184.59
619.29	3278.80
619.48	3401.68
619.68	3028.95
619.87	3030.99
620.06	3061.71
620.25	3459.02
620.44	2930.64
620.63	3020.75
620.82	3295.18
621.01	3315.66
621.20	3088.34
621.39	3108.82
621.59	3319.76
621.78	3225.55
621.97	3069.91
622.16	3231.69
622.35	3391.44
622.54	3368.91
622.73	3121.10
622.92	2832.34
623.11	3454.92
623.30	3180.50
623.49	3260.37
623.68	2918.36
623.88	3456.97
624.07	3155.92
624.26	3033.04
624.45	3108.82
624.64	3227.60
624.83	3389.39
625.02	3016.66
625.21	3051.47
625.40	3305.42
625.59	3538.89
625.78	3090.38
625.97	3229.65
626.16	3569.61
626.35	3385.29
626.54	3110.86
626.74	3352.52
626.93	3274.70
627.12	3221.45
627.31	3153.87
627.50	3139.54
627.69	3469.26
627.88	3131.34
628.07	3067.86
628.26	2918.36
628.45	3190.74
628.64	3067.86
628.83	3119.06
629.02	2861.01
629.21	3346.38
629.40	3352.52
629.59	2963.41
629.78	3051.47
629.97	3254.22
630.16	3278.80
630.35	2990.03
630.54	3205.07
630.73	3162.06
630.92	3243.98
631.11	3010.51
631.30	3074.00
631.49	3465.16
631.68	3198.93
631.87	3086.29
632.06	3012.56
632.25	3680.20
632.44	3313.61
632.63	3180.50
632.82	3123.15
633.01	3092.43
633.20	3395.53
633.39	3117.01
633.58	2922.45
633.77	3350.48
633.96	3522.51
634.15	3264.46
634.34	3205.07
634.53	3446.73
634.72	3147.73
634.91	2992.08
635.10	3139.54
635.29	3409.87
635.48	3258.32
635.67	2951.12
635.86	2971.60
636.05	3616.71
636.24	3229.65
636.43	3055.57
636.62	3180.50
636.81	2725.85
637.00	3286.99
637.19	3065.81
637.38	3147.73
637.57	3196.88
637.76	3332.05
637.95	3313.61
638.14	3305.42
638.33	3313.61
638.52	3368.91
638.71	2951.12
638.89	2951.12
639.08	3815.37
639.27	3614.66
639.46	3284.94
639.65	3667.91
639.84	3885.00
640.03	3966.92
640.22	3622.86
640.41	3577.80
640.60	3499.98
640.79	3493.83
640.98	3280.85
641.17	3237.84
641.36	3569.61
641.55	3461.07
641.74	2947.03
641.92	2992.08
642.11	3248.08
642.30	3256.27
642.49	2967.51
642.68	3028.95
642.87	3434.44
643.06	3373.00
643.25	2959.31
643.44	2912.21
643.63	3215.31
643.82	3370.96
644.00	3074.00
644.19	3102.67
644.38	3039.19
644.57	3321.81
644.76	3037.14
644.95	3155.92
645.14	3336.14
645.33	3258.32
645.52	3186.64
645.71	2969.55
645.89	3117.01
646.08	3221.45
646.27	3088.34
646.46	3256.27
646.65	2994.13
646.84	3264.46
647.03	2996.18
647.22	3266.51
647.40	3315.66
647.59	3125.20
647.78	2895.83
647.97	3057.62
648.16	3086.29
648.35	3585.99
648.54	3356.62
648.73	3106.77
648.91	3473.36
649.10	3239.89
649.29	3018.71
649.48	3018.71
649.67	3368.91
649.86	3305.42
650.05	3131.34
650.23	3231.69
650.42	3170.26
650.61	3573.71
650.80	3289.04
650.99	3360.72
651.18	3518.41
651.36	3534.79
651.55	2973.65
651.74	3205.07
651.93	3211.22
652.12	3241.93
652.31	3121.10
652.49	3078.10
652.68	3205.07
652.87	3506.12
653.06	3203.02
653.25	3334.09
653.44	3301.33
653.62	3645.38
653.81	3110.86
654.00	3125.20
654.19	3459.02
654.38	3862.47
654.56	3157.97
654.75	3002.32
654.94	3375.05
655.13	3307.47
655.32	3018.71
655.51	3135.44
655.69	3104.72
655.88	3401.68
656.07	2852.82
656.26	3098.58
656.45	3080.14
656.63	3215.31
656.82	2947.03
657.01	3405.77
657.20	3188.69
657.38	3614.66
657.57	3057.62
657.76	2951.12
657.95	3340.24
658.14	3168.21
658.32	3151.82
658.51	2967.51
658.70	3319.76
658.89	3270.61
659.08	3157.97
659.26	3295.18
659.45	3090.38
659.64	3489.74
659.83	3030.99
660.01	3436.49
660.20	3311.57
660.39	3612.62
660.58	2861.01
660.76	3069.91
660.95	3010.51
661.14	3276.75
661.33	2877.40
661.51	3108.82
661.70	3227.60
661.89	3459.02
662.08	3200.98
662.26	2908.12
662.45	3098.58
662.64	3659.72
662.83	3119.06
663.01	2975.70
663.20	3137.49
663.39	3461.07
663.58	3061.71
663.76	2973.65
663.95	3368.91
664.14	3069.91
664.32	3129.30
664.51	2940.88
664.70	2924.50
664.89	3291.09
665.07	2959.31
665.26	3211.22
665.45	2928.60
665.64	3395.53
665.82	3035.09
666.01	3262.41
666.20	3084.24
666.38	3493.83
666.57	3373.00
666.76	5521.32
666.95	13152.06
667.13	20719.30
667.32	25192.06
667.51	28360.27
667.69	29359.68
667.88	24462.99
668.07	17606.39
668.25	15038.23
668.44	12859.20
668.63	11251.54
668.81	9623.41
669.00	8486.78
669.19	7585.68
669.38	6733.72
669.56	5812.14
669.75	4933.56
669.94	4417.47
670.12	3796.93
670.31	3360.72
670.50	3401.68
670.68	3489.74
670.87	3395.53
671.06	3143.63
671.24	3164.11
671.43	3590.09
671.62	3348.43
671.80	3055.57
671.99	3098.58
672.18	3332.05
672.36	3467.21
672.55	3262.41
672.74	3188.69
672.92	3258.32
673.11	3385.29
673.29	2885.59
673.48	3256.27
673.67	3231.69
673.85	3483.59
674.04	2998.23
674.23	3153.87
674.41	3649.48
674.60	3137.49
674.79	2965.46
674.97	2920.40
675.16	3444.68
675.34	3405.77
675.53	3059.67
675.72	3139.54
675.90	3655.62
676.09	3254.22
676.28	3223.50
676.46	2875.35
676.65	3481.55
676.83	3071.95
677.02	3129.30
677.21	3196.88
677.39	3299.28
677.58	3131.34
677.77	2936.79
677.95	3049.43
678.14	3299.28
678.32	3137.49
678.51	3069.91
678.70	3446.73
678.88	3174.35
679.07	3256.27
679.25	3057.62
679.44	3108.82
679.63	3004.37
679.81	3317.71
680.00	3358.67
680.18	3135.44
680.37	3631.05
680.55	3317.71
680.74	2951.12
680.93	2889.68
681.11	3284.94
681.30	3241.93
681.48	3123.15
681.67	3033.04
681.85	3309.52
682.04	3108.82
682.23	3237.84
682.41	3219.41
682.60	3223.50
682.78	3264.46
682.97	2987.99
683.15	3125.20
683.34	3368.91
683.53	3581.90
683.71	2998.23
683.90	3074.00
684.08	3604.42
684.27	3157.97
684.45	3065.81
684.64	3227.60
684.82	3346.38
685.01	3370.96
685.19	3096.53
685.38	3303.37
685.57	3276.75
685.75	3117.01
685.94	3033.04
686.12	3035.09
686.31	3250.13
686.49	3610.57
686.68	2875.35
686.86	3131.34
687.05	3291.09
687.23	3626.95
687.42	3143.63
687.60	2930.64
687.79	3475.40
687.97	3532.75
688.16	3243.98
688.34	3272.65
688.53	2951.12
688.71	3336.14
688.90	3385.29
689.08	3149.78
689.27	2910.16
689.45	3463.12
689.64	3162.06
689.82	3108.82
690.01	3438.54
690.19	3385.29
690.38	3123.15
690.56	3209.17
690.75	3100.62
690.93	3264.46
691.12	2971.60
691.30	3166.16
691.49	3112.91
691.67	3325.90
691.86	3420.11
692.04	3082.19
692.23	3207.12
692.41	3284.94
692.60	3477.45
692.78	3280.85
692.97	3344.33
693.15	3403.72
693.34	3379.15
693.52	3327.95
693.71	3180.50
693.89	3180.50
694.08	2904.02
694.26	3125.20
694.44	3430.35
694.63	3399.63
694.81	2926.55
695.00	3045.33
695.18	3497.93
695.37	3768.26
695.55	3213.26
695.74	3147.73
695.92	3180.50
696.10	3467.21
696.29	2959.31
696.47	3045.33
696.66	3119.06
696.84	3098.58
697.03	3166.16
697.21	3385.29
697.40	4632.51
697.58	3483.59
697.76	3016.66
697.95	3074.00
698.13	3074.00
698.32	3225.55
698.50	3088.34
698.68	3170.26
698.87	3301.33
699.05	3655.62
699.24	3096.53
699.42	3041.23
699.61	3336.14
699.79	3233.74
699.97	3110.86
700.16	2926.55
700.34	3069.91
700.53	3293.13
700.71	3307.47
700.89	3237.84
701.08	3311.57
701.26	3315.66
701.45	3434.44
701.63	2996.18
701.81	3137.49
702.00	3207.12
702.18	3176.40
702.37	3078.10
702.55	3639.24
702.73	3321.81
702.92	3104.72
703.10	3499.98
703.28	3450.83
703.47	3172.30
703.65	3295.18
703.84	3172.30
704.02	3207.12
704.20	3631.05
704.39	3129.30
704.57	3082.19
704.75	3393.48
704.94	3411.92
705.12	3295.18
705.30	3911.62
705.49	8705.92
705.67	17020.67
705.86	23989.91
706.04	27061.86
706.22	29853.24
706.41	28665.42
706.59	21440.18
706.77	16860.93
706.96	14593.83
707.14	13166.39
707.32	11333.46
707.51	9840.49
707.69	7964.55
707.87	6760.34
708.06	5353.39
708.24	4607.93
708.42	4235.20
708.61	4085.70
708.79	3270.61
708.97	3325.90
709.16	3442.64
709.34	3286.99
709.52	3016.66
709.71	3219.41
709.89	3459.02
710.07	3166.16
710.26	3047.38
710.44	3090.38
710.62	3499.98
710.80	3291.09
710.99	3176.40
711.17	3272.65
711.35	3090.38
711.54	3176.40
711.72	3243.98
711.90	3182.54
712.09	3424.20
712.27	3094.48
712.45	3274.70
712.63	3030.99
712.82	3356.62
713.00	3217.36
713.18	3192.78
713.37	3332.05
713.55	3532.75
713.73	3358.67
713.91	3243.98
714.10	3112.91
714.28	3239.89
714.46	3407.82
714.65	3233.74
714.83	3147.73
715.01	3233.74
715.19	3315.66
715.38	3026.90
715.56	3260.37
715.74	3102.67
715.92	3155.92
716.11	3342.28
716.29	2818.00
716.47	3278.80
716.65	3215.31
716.84	3000.27
717.02	3184.59
717.20	3049.43
717.38	3123.15
717.57	3190.74
717.75	3176.40
717.93	3153.87
718.11	3504.07
718.30	2901.97
718.48	3108.82
718.66	3485.64
718.84	3493.83
719.03	3092.43
719.21	2922.45
719.39	3676.10
719.57	3350.48
719.75	3200.98
719.94	2965.46
720.12	3235.79
720.30	3278.80
720.48	3139.54
720.67	3055.57
720.85	3119.06
721.03	3131.34
721.21	2983.89
721.39	3164.11
721.58	3397.58
721.76	3305.42
721.94	3088.34
722.12	3270.61
722.30	3530.70
722.49	3194.83
722.67	3096.53
722.85	3170.26
723.03	3045.33
723.21	3176.40
723.40	3127.25
723.58	3258.32
723.76	3420.11
723.94	3532.75
724.12	3098.58
724.30	3362.76
724.49	3475.40
724.67	3022.80
724.85	3219.41
725.03	2990.03
725.21	3383.24
725.40	3475.40
725.58	3135.44
725.76	3223.50
725.94	3405.77
726.12	3043.28
726.30	3164.11
726.49	3084.24
726.67	3205.07
726.85	3405.77
727.03	3973.06
727.21	5423.02
727.39	7235.47
727.57	7845.77
727.76	8292.23
727.94	8341.38
728.12	7225.23
728.30	5920.68
728.48	5504.94
728.66	5121.97
728.84	4802.49
729.03	4222.91
729.21	3807.17
729.39	3499.98
729.57	3426.25
729.75	3422.16
729.93	3483.59
730.11	3010.51
730.30	3172.30
730.48	3270.61
730.66	3133.39
730.84	3250.13
731.02	3278.80
731.20	3198.93
731.38	3098.58
731.56	2947.03
731.74	2979.79
731.93	3346.38
732.11	3170.26
732.29	3065.81
732.47	3348.43
732.65	3319.76
732.83	3330.00
733.01	3239.89
733.19	3143.63
733.37	3444.68
733.56	3168.21
733.74	2996.18
733.92	3637.19
734.10	3196.88
734.28	3252.17
734.46	2885.59
734.64	3272.65
734.82	3207.12
735.00	3076.05
735.18	3035.09
735.36	3262.41
735.54	3246.03
735.73	3002.32
735.91	3293.13
736.09	3567.56
736.27	3217.36
736.45	3186.64
736.63	2822.10
736.81	3237.84
736.99	3434.44
737.17	3352.52
737.35	3018.71
737.53	3368.91
737.71	3239.89
737.89	3274.70
738.07	3084.24
738.25	3127.25
738.43	2969.55
738.61	3000.27
738.80	3030.99
738.98	3106.77
739.16	3231.69
739.34	3018.71
739.52	3444.68
739.70	3209.17
739.88	3377.10
740.06	3227.60
740.24	2871.25
740.42	3536.84
740.60	2863.06
740.78	3106.77
740.96	2852.82
741.14	3184.59
741.32	3233.74
741.50	2906.07
741.68	3368.91
741.86	3524.55
742.04	3028.95
742.22	2977.75
742.40	3121.10
742.58	3465.16
742.76	3135.44
742.94	3325.90
743.12	2955.22
743.30	3270.61
743.48	3377.10
743.66	2975.70
743.84	3071.95
744.02	3229.65
744.20	3305.42
744.38	2957.27
744.56	3061.71
744.74	3637.19
744.92	3362.76
745.10	3323.85
745.28	3160.02
745.46	3581.90
745.64	3327.95
745.82	3143.63
746.00	3051.47
746.18	3360.72
746.36	3053.52
746.54	3147.73
746.72	3114.96
746.90	3108.82
747.08	3493.83
747.26	3088.34
747.44	3248.08
747.62	3403.72
747.80	3403.72
747.98	3180.50
748.15	3065.81
748.33	3614.66
748.51	3319.76
748.69	3211.22
748.87	2967.51
749.05	3327.95
749.23	3260.37
749.41	3069.91
749.59	3074.00
749.77	3428.30
749.95	3092.43
750.13	3024.85
750.31	3196.88
750.49	3215.31
750.67	3401.68
750.85	3280.85
751.03	3117.01
751.20	3694.54
751.38	3348.43
751.56	3178.45
751.74	3084.24
751.92	3137.49
752.10	3069.91
752.28	3344.33
752.46	3131.34
752.64	3342.28
752.82	3303.37
753.00	3137.49
753.18	3045.33
753.35	3241.93
753.53	3270.61
753.71	3106.77
753.89	3176.40
754.07	3389.39
754.25	3442.64
754.43	3223.50
754.61	2885.59
754.79	3344.33
754.97	3186.64
755.14	3270.61
755.32	2889.68
755.50	3196.88
755.68	3303.37
755.86	3002.32
756.04	3004.37
756.22	2861.01
756.40	3512.27
756.57	3270.61
756.75	3010.51
756.93	3424.20
757.11	3397.58
757.29	3004.37
757.47	2947.03
757.65	2985.94
757.82	2895.83
758.00	2959.31
758.18	3045.33
758.36	3117.01
758.54	3622.86
758.72	2924.50
758.90	3215.31
759.07	3405.77
759.25	3106.77
759.43	3188.69
759.61	2906.07
759.79	4466.62
759.97	3456.97
760.15	3106.77
760.32	3024.85
760.50	3325.90
760.68	3516.36
760.86	2936.79
761.04	3299.28
761.22	3307.47
761.39	3295.18
761.57	3110.86
761.75	3059.67
761.93	3377.10
762.11	3254.22
762.28	3170.26
762.46	2934.74
762.64	3497.93
762.82	3084.24
763.00	3104.72
763.18	3262.41
763.35	3090.38
763.53	3411.92
763.71	3143.63
763.89	3035.09
764.07	3327.95
764.24	3258.32
764.42	3229.65
764.60	3119.06
764.78	3450.83
764.96	3395.53
765.13	3336.14
765.31	3035.09
765.49	3403.72
765.67	3037.14
765.84	3117.01
766.02	3016.66
766.20	3051.47
766.38	3311.57
766.56	3205.07
766.73	3162.06
766.91	3270.61
767.09	3272.65
767.27	3155.92
767.44	3084.24
767.62	3452.88
767.80	3315.66
767.98	3065.81
768.15	3100.62
768.33	3344.33
768.51	3467.21
768.69	3241.93
768.87	3110.86
769.04	3303.37
769.22	3825.61
769.40	3211.22
769.58	3266.51
769.75	3356.62
769.93	3528.65
770.11	3133.39
770.28	2994.13
770.46	3536.84
770.64	3315.66
770.82	3057.62
770.99	3074.00
771.17	3418.06
771.35	3157.97
771.53	3098.58
771.70	3084.24
771.88	3440.59
772.06	3192.78
772.23	2987.99
772.41	3119.06
772.59	3219.41
772.77	3074.00
772.94	3053.52
773.12	3096.53
773.30	3139.54
773.47	3338.19
773.65	3080.14
773.83	3315.66
774.01	3286.99
774.18	2897.88
774.36	3112.91
774.54	2987.99
774.71	3364.81
774.89	2936.79
775.07	2959.31
775.24	3110.86
775.42	3123.15
775.60	3655.62
775.78	3047.38
775.95	2942.93
776.13	2971.60
776.31	2920.40
776.48	3205.07
776.66	3250.13
776.84	3217.36
777.01	2930.64
777.19	2953.17
777.37	3037.14
777.54	3325.90
777.72	3610.57
777.90	3157.97
778.07	3074.00
778.25	3946.44
778.43	3508.17
778.60	3010.51
778.78	3180.50
778.96	3604.42
779.13	3078.10
779.31	3082.19
779.49	3114.96
779.66	3334.09
779.84	3258.32
780.01	3074.00
780.19	3114.96
780.37	3481.55
780.54	3309.52
780.72	2904.02
780.90	3061.71
781.07	3172.30
781.25	3123.15
781.43	3303.37
781.60	3078.10
781.78	3518.41
781.95	3385.29
782.13	3045.33
782.31	3074.00
782.48	2883.54
782.66	3303.37
782.83	3286.99
783.01	3160.02
783.19	3463.12
783.36	3336.14
783.54	2963.41
783.72	3231.69
783.89	3164.11
784.07	3420.11
784.24	3344.33
784.42	3311.57
784.60	3313.61
784.77	3438.54
784.95	2826.20
785.12	3100.62
785.30	3282.89
785.47	3100.62
785.65	2983.89
785.83	3117.01
786.00	3233.74
786.18	3330.00
786.35	2994.13
786.53	2947.03
786.71	3440.59
786.88	3403.72
787.06	3217.36
787.23	3098.58
787.41	2998.23
787.58	3233.74
787.76	3090.38
787.94	3098.58
788.11	3352.52
788.29	3084.24
788.46	3104.72
788.64	2901.97
788.81	3131.34
788.99	3059.67
789.16	2969.55
789.34	3065.81
789.52	3114.96
789.69	3209.17
789.87	2885.59
790.04	3055.57
790.22	3231.69
790.39	3669.96
790.57	2959.31
790.74	2973.65
790.92	3375.05
791.09	2922.45
791.27	3133.39
791.44	3125.20
791.62	3149.78
791.79	3436.49
791.97	3137.49
792.15	3416.01
792.32	3403.72
792.50	3454.92
792.67	3241.93
792.85	3336.14
793.02	3268.56
793.20	3170.26
793.37	2955.22
793.55	3030.99
793.72	2973.65
793.90	3354.57
794.07	2969.55
794.25	2987.99
794.42	3387.34
794.60	3291.09
794.77	3071.95
794.95	3194.83
795.12	3381.20
795.30	3231.69
795.47	2912.21
795.65	3434.44
795.82	3327.95
796.00	3100.62
796.17	3125.20
796.34	2926.55
796.52	3430.35
796.69	3483.59
796.87	3184.59
797.04	3227.60
797.22	3405.77
797.39	3332.05
797.57	3327.95
797.74	3176.40
797.92	3319.76
798.09	3168.21
798.27	3401.68
798.44	3123.15
798.62	3084.24
798.79	3340.24
798.96	3194.83
799.14	3100.62
799.31	3805.13
799.49	3108.82
799.66	3051.47
799.84	3117.01
800.01	2969.55
800.19	3315.66
800.36	2840.53
800.53	3110.86
800.71	3344.33
800.88	3563.47
801.06	2981.84
801.23	3069.91
801.41	3272.65
801.58	3090.38
801.75	3084.24
801.93	3067.86
802.10	3454.92
802.28	3264.46
802.45	3090.38
802.63	3141.58
802.80	3583.95
802.97	3080.14
803.15	3080.14
803.32	3022.80
803.50	3180.50
803.67	3082.19
803.84	3067.86
804.02	3149.78
804.19	3221.45
804.37	2836.44
804.54	2838.48
804.71	3035.09
804.89	3227.60
805.06	3071.95
805.24	3028.95
805.41	2918.36
805.58	3102.67
805.76	3674.06
805.93	3061.71
806.10	3246.03
806.28	3368.91
806.45	3346.38
806.63	3229.65
806.80	3198.93
806.97	3330.00
807.15	3426.25
807.32	3137.49
807.49	3008.47
807.67	3020.75
807.84	3360.72
808.01	3006.42
808.19	3336.14
808.36	3755.97
808.54	3342.28
808.71	3063.76
808.88	3024.85
809.06	3506.12
809.23	3616.71
809.40	3033.04
809.58	3016.66
809.75	3225.55
809.92	3028.95
810.10	3317.71
810.27	3057.62
810.44	3323.85
810.62	3530.70
810.79	3147.73
810.96	3016.66
811.14	3164.11
811.31	3389.39
811.48	3270.61
811.66	3168.21
811.83	3448.78
812.00	3379.15
812.18	3225.55
812.35	3383.24
812.52	3164.11
812.69	3119.06
812.87	3078.10
813.04	3012.56
813.21	3334.09
813.39	3014.61
813.56	3000.27
813.73	3379.15
813.91	3051.47
814.08	3239.89
814.25	3133.39
814.42	2820.05
814.60	3219.41
814.77	3252.17
814.94	3078.10
815.12	3262.41
815.29	3559.37
815.46	3170.26
815.63	2990.03
815.81	3049.43
815.98	3174.35
816.15	3209.17
816.33	3207.12
816.50	3123.15
816.67	3354.57
816.84	3213.26
817.02	3059.67
817.19	3000.27
817.36	3344.33
817.53	3440.59
817.71	2889.68
817.88	3155.92
818.05	3237.84
818.22	3215.31
818.40	3229.65
818.57	3000.27
818.74	3256.27
818.91	3196.88
819.09	3315.66
819.26	3143.63
819.43	3100.62
819.60	3155.92
819.78	3198.93
819.95	3127.25
820.12	2955.22
820.29	3491.79
820.47	3377.10
820.64	3012.56
820.81	3020.75
820.98	3084.24
821.15	3084.24
821.33	3215.31
821.50	2957.27
821.67	3336.14
821.84	3006.42
822.02	3065.81
822.19	3461.07
822.36	3141.58
822.53	3039.19
822.70	3028.95
822.88	3186.64
823.05	3514.31
823.22	3196.88
823.39	3061.71
823.56	3270.61
823.74	3708.87
823.91	2938.84
824.08	2967.51
824.25	3012.56
824.42	3475.40
824.60	2992.08
824.77	3155.92
824.94	3162.06
825.11	3399.63
825.28	3006.42
825.45	3221.45
825.63	3250.13
825.80	3139.54
825.97	3246.03
826.14	3153.87
826.31	2928.60
826.48	3426.25
826.66	3078.10
826.83	2977.75
827.00	3110.86
827.17	3082.19
827.34	3043.28
827.51	3049.43
827.69	3262.41
827.86	3018.71
828.03	3100.62
828.20	3102.67
828.37	3100.62
828.54	3364.81
828.71	3063.76
828.89	3168.21
829.06	3346.38
829.23	3508.17
829.40	3110.86
829.57	3045.33
829.74	3354.57
829.91	3184.59
830.09	2969.55
830.26	3262.41
830.43	3547.08
830.60	3260.37
830.77	3106.77
830.94	3299.28
831.11	3385.29
831.28	3160.02
831.46	3289.04
831.63	3016.66
831.80	3446.73
831.97	3014.61
832.14	3084.24
832.31	3104.72
832.48	3282.89
832.65	3450.83
832.82	3221.45
832.99	3184.59
833.17	3133.39
833.34	3573.71
833.51	3057.62
833.68	2873.30
833.85	3422.16
834.02	3049.43
834.19	3043.28
834.36	3037.14
834.53	3313.61
834.70	3477.45
834.87	3102.67
835.04	2848.72
835.22	3055.57
835.39	3157.97
835.56	2932.69
835.73	2926.55
835.90	3440.59
836.07	3049.43
836.24	3061.71
836.41	2951.12
836.58	3133.39
836.75	3430.35
836.92	2951.12
837.09	2869.20
837.26	3319.76
837.43	3350.48
837.60	3033.04
837.77	2973.65
837.94	3411.92
838.12	3473.36
838.29	2766.81
838.46	2787.29
838.63	3094.48
838.80	3487.69
838.97	2961.36
839.14	2936.79
839.31	3342.28
839.48	3381.20
839.65	2850.77
839.82	3012.56
839.99	3352.52
840.16	3356.62
840.33	2885.59
840.50	3024.85
840.67	3104.72
840.84	2840.53
841.01	2852.82
841.18	2920.40
841.35	3213.26
841.52	3413.96
841.69	3186.64
841.86	2947.03
842.03	3229.65
842.20	3385.29
842.37	2912.21
842.54	2975.70
842.71	3362.76
842.88	3041.23
843.05	2912.21
843.22	2928.60
843.39	3448.78
843.56	3153.87
843.73	2893.78
843.90	2936.79
844.07	3278.80
844.24	3461.07
844.41	2975.70
844.58	2969.55
844.75	3198.93
844.92	3368.91
845.09	2932.69
845.26	2928.60
845.43	3381.20
845.60	3168.21
845.77	3030.99
845.94	3008.47
846.10	3360.72
846.27	2973.65
846.44	2815.96
846.61	2809.81
846.78	3311.57
846.95	3559.37
847.12	2918.36
847.29	2983.89
847.46	3110.86
847.63	3483.59
847.80	2879.44
847.97	2969.55
848.14	3796.93
848.31	3246.03
848.48	2807.77
848.65	2863.06
848.82	3121.10
848.98	3811.27
849.15	3022.80
849.32	3129.30
849.49	3540.94
849.66	3227.60
849.83	2844.63
850.00	2877.40
850.17	3364.81
850.34	3178.45
850.51	2889.68
850.68	2979.79
850.85	3805.13
851.01	3338.19
851.18	2889.68
851.35	2932.69
851.52	3416.01
851.69	3612.62
851.86	2844.63
852.03	2922.45
852.20	3413.96
852.37	3291.09
852.53	2772.95
852.70	2836.44
852.87	3323.85
853.04	3434.44
853.21	2861.01
853.38	3166.16
853.55	3475.40
853.72	3428.30
853.89	2861.01
854.05	2873.30
854.22	3192.78
854.39	3209.17
854.56	2885.59
854.73	3123.15
854.90	3065.81
855.07	3186.64
855.23	2783.19
855.40	2840.53
855.57	3229.65
855.74	2904.02
855.91	3147.73
856.08	2723.80
856.25	3008.47
856.41	3076.05
856.58	2965.46
856.75	2910.16
856.92	3063.76
857.09	3450.83
857.26	2684.89
857.42	3039.19
857.59	3481.55
857.76	3174.35
857.93	2873.30
858.10	2959.31
858.27	3098.58
858.43	3307.47
858.60	2924.50
858.77	2840.53
858.94	3162.06
859.11	3497.93
859.27	3020.75
859.44	2938.84
859.61	3663.82
859.78	3379.15
859.95	2951.12
860.12	2863.06
860.28	3764.17
860.45	3645.38
860.62	2916.31
860.79	3088.34
860.95	3219.41
861.12	3098.58
861.29	2838.48
861.46	2957.27
861.63	3280.85
861.79	3336.14
861.96	2766.81
862.13	2861.01
862.30	3483.59
862.47	3057.62
862.63	2781.14
862.80	2975.70
862.97	3401.68
863.14	3332.05
863.30	3045.33
863.47	2809.81
863.64	3614.66
863.81	3270.61
863.97	2828.24
864.14	2897.88
864.31	3215.31
864.48	3352.52
864.65	2897.88
864.81	2971.60
864.98	3430.35
865.15	3373.00
865.32	3014.61
865.48	2936.79
865.65	3663.82
865.82	3164.11
865.98	2963.41
866.15	3037.14
866.32	3221.45
866.49	3219.41
866.65	3039.19
866.82	2994.13
866.99	3262.41
867.16	3164.11
867.32	2904.02
867.49	2850.77
867.66	3205.07
867.83	3147.73
867.99	2846.68
868.16	2951.12
868.33	3096.53
868.49	3284.94
868.66	2893.78
868.83	3059.67
868.99	3301.33
869.16	3286.99
869.33	3129.30
869.50	2985.94
869.66	3301.33
869.83	3194.83
870.00	2840.53
870.16	3051.47
870.33	3155.92
870.50	3399.63
870.66	3008.47
870.83	2942.93
871.00	3180.50
871.17	3352.52
871.33	3057.62
871.50	2901.97
871.67	3178.45
871.83	2879.44
872.00	3082.19
872.17	2924.50
872.33	3680.20
872.50	3465.16
872.67	2918.36
872.83	2912.21
873.00	3418.06
873.17	3217.36
873.33	3059.67
873.50	2969.55
873.67	3106.77
873.83	3149.78
874.00	2953.17
874.16	3069.91
874.33	3286.99
874.50	3149.78
874.66	2891.73
874.83	2985.94
875.00	3430.35
875.16	3426.25
875.33	3028.95
875.50	2738.13
875.66	3151.82
875.83	3311.57
875.99	2985.94
876.16	3063.76
876.33	3041.23
876.49	3188.69
876.66	2944.98
876.83	2985.94
876.99	3018.71
877.16	3262.41
877.32	2887.64
877.49	2996.18
877.66	3358.67
877.82	3502.03
877.99	3020.75
878.15	3219.41
878.32	3332.05
878.49	3258.32
878.65	3000.27
878.82	3225.55
878.98	3200.98
879.15	3395.53
879.32	3182.54
879.48	3221.45
879.65	3241.93
879.81	3260.37
879.98	2906.07
880.15	3026.90
880.31	3477.45
880.48	3082.19
880.64	3053.52
880.81	3026.90
880.97	3676.10
881.14	3497.93
881.31	2852.82
881.47	3049.43
881.64	3166.16
881.80	2994.13
881.97	3057.62
882.13	2904.02
882.30	3022.80
882.47	3110.86
882.63	2916.31
882.80	2906.07
882.96	3131.34
883.13	3483.59
883.29	2883.54
883.46	2850.77
883.62	3684.30
883.79	3270.61
883.95	3084.24
884.12	2854.87
884.29	3475.40
884.45	3205.07
884.62	3006.42
884.78	2861.01
884.95	3581.90
885.11	3092.43
885.28	3049.43
885.44	2895.83
885.61	3330.00
885.77	3622.86
885.94	3004.37
886.10	3030.99
886.27	3254.22
886.43	3567.56
886.60	3147.73
886.76	2938.84
886.93	3149.78
887.09	3307.47
887.26	2813.91
887.42	2965.46
887.59	3475.40
887.75	3661.77
887.92	3106.77
888.08	3074.00
888.25	3590.09
888.41	3456.97
888.58	3039.19
888.74	2871.25
888.91	3155.92
>>>>>End Processed Spectral Data<<<<<
