SpectraSuite Data File
++++++++++++++++++++++++++++++++++++
Date: Fri May 06 08:14:24 CEST 2016
User: root
Dark Spectrum Present: No
Reference Spectrum Present: No
Number of Sampled Component Spectra: 1
Spectrometers: USB4C02835
Integration Time (usec): 100000 (USB4C02835)
Spectra Averaged: 1 (USB4C02835)
Boxcar Smoothing: 0 (USB4C02835)
Correct for Electrical Dark: No (USB4C02835)
Strobe/Lamp Enabled: No (USB4C02835)
Correct for Detector Non-linearity: No (USB4C02835)
Correct for Stray Light: No (USB4C02835)
Number of Pixels in Processed Spectrum: 3648
>>>>>Begin Processed Spectral Data<<<<<
177.47	2211.81
177.69	2211.81
177.91	2211.81
178.13	2197.47
178.36	2271.20
178.58	3016.66
178.80	3082.19
179.02	3043.28
179.24	3090.38
179.46	2754.52
179.68	2865.11
179.90	3266.51
180.13	3256.27
180.35	2682.84
180.57	2822.10
180.79	3413.96
181.01	3274.70
181.23	2854.87
181.45	2985.94
181.67	3327.95
181.90	3520.46
182.12	2897.88
182.34	2664.41
182.56	3450.83
182.78	3325.90
183.00	2723.80
183.22	2813.91
183.44	2877.40
183.66	3909.57
183.89	3002.32
184.11	2957.27
184.33	3440.59
184.55	3483.59
184.77	2795.48
184.99	2861.01
185.21	3198.93
185.43	3782.60
185.65	2873.30
185.87	2863.06
186.10	3798.98
186.32	3739.59
186.54	3002.32
186.76	2959.31
186.98	3516.36
187.20	3266.51
187.42	2912.21
187.64	2795.48
187.86	3311.57
188.08	3510.22
188.30	2818.00
188.52	2875.35
188.75	3680.20
188.97	3633.10
189.19	2789.33
189.41	2832.34
189.63	3450.83
189.85	3192.78
190.07	2734.04
190.29	2756.57
190.51	3397.58
190.73	3065.81
190.95	3057.62
191.17	2885.59
191.39	2942.93
191.61	3272.65
191.84	2944.98
192.06	3008.47
192.28	3061.71
192.50	3930.05
192.72	3059.67
192.94	3024.85
193.16	3565.51
193.38	3346.38
193.60	2787.29
193.82	3010.51
194.04	3532.75
194.26	3334.09
194.48	2877.40
194.70	2844.63
194.92	3203.02
195.14	3440.59
195.36	2838.48
195.58	2912.21
195.80	3327.95
196.02	3172.30
196.24	2811.86
196.46	2871.25
196.69	3213.26
196.91	3782.60
197.13	2922.45
197.35	2901.97
197.57	3573.71
197.79	3366.86
198.01	2940.88
198.23	2930.64
198.45	3330.00
198.67	3016.66
198.89	2631.64
199.11	3020.75
199.33	3178.45
199.55	2885.59
199.77	2861.01
199.99	3074.00
200.21	3207.12
200.43	3469.26
200.65	2750.42
200.87	2785.24
201.09	3303.37
201.31	3239.89
201.53	2887.64
201.75	2987.99
201.97	3409.87
202.19	3286.99
202.41	2955.22
202.63	2930.64
202.85	3452.88
203.07	3397.58
203.29	2906.07
203.51	2766.81
203.73	3131.34
203.95	3841.99
204.17	2861.01
204.39	2967.51
204.61	3270.61
204.83	3248.08
205.05	2998.23
205.27	2822.10
205.49	3737.54
205.71	3278.80
205.93	2699.22
206.15	2793.43
206.37	3264.46
206.59	3266.51
206.81	2684.89
207.03	2672.60
207.25	3110.86
207.47	3360.72
207.69	2904.02
207.91	3104.72
208.13	3549.13
208.34	3074.00
208.56	2928.60
208.78	2942.93
209.00	3123.15
209.22	3297.23
209.44	2867.16
209.66	2838.48
209.88	3282.89
210.10	3246.03
210.32	2904.02
210.54	2877.40
210.76	3133.39
210.98	3512.27
211.20	2648.02
211.42	2979.79
211.64	3540.94
211.86	3393.48
212.08	2973.65
212.30	2922.45
212.52	3205.07
212.74	3354.57
212.96	2961.36
213.17	2932.69
213.39	3450.83
213.61	3641.29
213.83	2879.44
214.05	2766.81
214.27	3506.12
214.49	3112.91
214.71	2799.57
214.93	3012.56
215.15	3164.11
215.37	3459.02
215.59	2721.75
215.81	2901.97
216.03	3557.32
216.24	3233.74
216.46	2881.49
216.68	2916.31
216.90	3401.68
217.12	3411.92
217.34	2797.53
217.56	3051.47
217.78	3700.68
218.00	3311.57
218.22	2912.21
218.44	2977.75
218.66	3405.77
218.87	3715.02
219.09	2912.21
219.31	2877.40
219.53	3338.19
219.75	3182.54
219.97	2938.84
220.19	2965.46
220.41	3217.36
220.63	3608.52
220.85	2895.83
221.06	2877.40
221.28	3508.17
221.50	3375.05
221.72	2924.50
221.94	2789.33
222.16	3258.32
222.38	3536.84
222.60	2863.06
222.82	2904.02
223.03	3502.03
223.25	3065.81
223.47	2791.38
223.69	3123.15
223.91	3409.87
224.13	3262.41
224.35	2770.90
224.57	3106.77
224.78	3442.64
225.00	3133.39
225.22	2996.18
225.44	2746.33
225.66	3518.41
225.88	3225.55
226.10	2957.27
226.32	2922.45
226.53	3663.82
226.75	3162.06
226.97	2897.88
227.19	2844.63
227.41	3086.29
227.63	3207.12
227.85	2717.65
228.06	2920.40
228.28	3313.61
228.50	3551.18
228.72	2762.71
228.94	2901.97
229.16	2881.49
229.37	3098.58
229.59	2781.14
229.81	3186.64
230.03	3178.45
230.25	2983.89
230.47	2721.75
230.69	2871.25
230.90	3438.54
231.12	3135.44
231.34	2904.02
231.56	2904.02
231.78	3039.19
232.00	3413.96
232.21	2928.60
232.43	2951.12
232.65	2852.82
232.87	3338.19
233.09	2770.90
233.30	2791.38
233.52	3536.84
233.74	3198.93
233.96	2805.72
234.18	3026.90
234.40	3319.76
234.61	3796.93
234.83	2803.67
235.05	2805.72
235.27	3790.79
235.49	3573.71
235.70	2639.83
235.92	2885.59
236.14	3420.11
236.36	3829.70
236.58	2746.33
236.79	2961.36
237.01	3323.85
237.23	3227.60
237.45	3098.58
237.67	2959.31
237.88	3375.05
238.10	3669.96
238.32	2797.53
238.54	2815.96
238.76	3278.80
238.97	3196.88
239.19	2824.15
239.41	2848.72
239.63	3471.31
239.85	3164.11
240.06	2918.36
240.28	2756.57
240.50	3540.94
240.72	3282.89
240.93	2809.81
241.15	3000.27
241.37	3325.90
241.59	3493.83
241.81	2846.68
242.02	2930.64
242.24	3280.85
242.46	3379.15
242.68	2752.47
242.89	2781.14
243.11	3481.55
243.33	3237.84
243.55	2815.96
243.76	2891.73
243.98	3143.63
244.20	3313.61
244.42	2854.87
244.64	2852.82
244.85	3051.47
245.07	3131.34
245.29	2887.64
245.51	2899.92
245.72	3286.99
245.94	3512.27
246.16	2826.20
246.38	2877.40
246.59	3174.35
246.81	3160.02
247.03	2752.47
247.24	2754.52
247.46	3176.40
247.68	3321.81
247.90	2815.96
248.11	2928.60
248.33	3440.59
248.55	3239.89
248.77	2887.64
248.98	3022.80
249.20	3618.76
249.42	3311.57
249.64	2830.29
249.85	2824.15
250.07	3168.21
250.29	3420.11
250.50	2916.31
250.72	2789.33
250.94	3399.63
251.16	3725.26
251.37	2881.49
251.59	2922.45
251.81	3356.62
252.02	3528.65
252.24	2734.04
252.46	2981.84
252.68	3143.63
252.89	3067.86
253.11	2676.70
253.33	3047.38
253.54	3631.05
253.76	3049.43
253.98	2836.44
254.20	2949.08
254.41	3018.71
254.63	3239.89
254.85	2838.48
255.06	3041.23
255.28	3383.24
255.50	3174.35
255.71	2775.00
255.93	2682.84
256.15	3270.61
256.36	3362.76
256.58	2736.09
256.80	2783.19
257.02	3133.39
257.23	3180.50
257.45	2953.17
257.67	3043.28
257.88	3196.88
258.10	3309.52
258.32	2848.72
258.53	2920.40
258.75	3639.24
258.97	3155.92
259.18	2787.29
259.40	2805.72
259.62	3700.68
259.83	3547.08
260.05	2887.64
260.27	3813.32
260.48	3467.21
260.70	3035.09
260.92	2746.33
261.13	2832.34
261.35	3360.72
261.57	3411.92
261.78	2770.90
262.00	2838.48
262.22	3381.20
262.43	3024.85
262.65	2897.88
262.86	2918.36
263.08	3758.02
263.30	3270.61
263.51	2674.65
263.73	2881.49
263.95	3629.00
264.16	3123.15
264.38	2713.56
264.60	2813.91
264.81	3270.61
265.03	3483.59
265.25	3205.07
265.46	2807.77
265.68	3610.57
265.89	3424.20
266.11	2717.65
266.33	2858.96
266.54	3563.47
266.76	3360.72
266.98	2873.30
267.19	3135.44
267.41	3485.64
267.62	3246.03
267.84	2656.22
268.06	2953.17
268.27	3227.60
268.49	3477.45
268.70	2881.49
268.92	2826.20
269.14	3172.30
269.35	2963.41
269.57	2985.94
269.79	2877.40
270.00	3125.20
270.22	3684.30
270.43	2783.19
270.65	2686.94
270.87	3317.71
271.08	3403.72
271.30	2985.94
271.51	2844.63
271.73	3483.59
271.95	3530.70
272.16	2822.10
272.38	3002.32
272.59	3188.69
272.81	3303.37
273.02	2836.44
273.24	2887.64
273.46	3553.23
273.67	2938.84
273.89	2789.33
274.10	2797.53
274.32	3504.07
274.54	3323.85
274.75	2971.60
274.97	2938.84
275.18	3395.53
275.40	3327.95
275.61	2856.92
275.83	3074.00
276.05	2994.13
276.26	3221.45
276.48	2985.94
276.69	3084.24
276.91	3186.64
277.12	3483.59
277.34	3026.90
277.55	3051.47
277.77	3393.48
277.99	3229.65
278.20	3041.23
278.42	2865.11
278.63	3160.02
278.85	3129.30
279.06	2918.36
279.28	3082.19
279.49	3491.79
279.71	3395.53
279.93	3086.29
280.14	3094.48
280.36	3104.72
280.57	3471.31
280.79	3170.26
281.00	2904.02
281.22	3233.74
281.43	3524.55
281.65	2764.76
281.86	2875.35
282.08	3393.48
282.29	3649.48
282.51	2842.58
282.73	2955.22
282.94	2959.31
283.16	3418.06
283.37	3026.90
283.59	2969.55
283.80	3346.38
284.02	3241.93
284.23	3041.23
284.45	3022.80
284.66	3231.69
284.88	3260.37
285.09	2908.12
285.31	2955.22
285.52	3321.81
285.74	2963.41
285.95	3211.22
286.17	2955.22
286.38	3583.95
286.60	3067.86
286.81	2836.44
287.03	3041.23
287.24	3336.14
287.46	3401.68
287.67	3020.75
287.89	3254.22
288.10	3282.89
288.32	3266.51
288.53	3145.68
288.75	3119.06
288.96	3426.25
289.18	3180.50
289.39	2936.79
289.61	3043.28
289.82	3694.54
290.04	3620.81
290.25	2877.40
290.47	3078.10
290.68	3209.17
290.90	3516.36
291.11	2820.05
291.33	3082.19
291.54	3119.06
291.76	3178.45
291.97	3151.82
292.18	3065.81
292.40	3166.16
292.61	3139.54
292.83	3225.55
293.04	3051.47
293.26	3307.47
293.47	3196.88
293.69	2938.84
293.90	2940.88
294.12	3567.56
294.33	3196.88
294.55	3086.29
294.76	3164.11
294.97	3561.42
295.19	3737.54
295.40	2979.79
295.62	3024.85
295.83	3471.31
296.05	3129.30
296.26	3196.88
296.48	2983.89
296.69	3223.50
296.90	3252.17
297.12	3160.02
297.33	3172.30
297.55	3299.28
297.76	3397.58
297.98	3086.29
298.19	3174.35
298.41	3237.84
298.62	3092.43
298.83	3160.02
299.05	3098.58
299.26	3198.93
299.48	3190.74
299.69	3094.48
299.90	3018.71
300.12	3153.87
300.33	3403.72
300.55	3108.82
300.76	2914.26
300.98	3055.57
301.19	3448.78
301.40	2994.13
301.62	2977.75
301.83	3399.63
302.05	3309.52
302.26	2975.70
302.47	3033.04
302.69	3010.51
302.90	3268.56
303.12	2783.19
303.33	3110.86
303.54	3680.20
303.76	3188.69
303.97	2985.94
304.19	3217.36
304.40	3030.99
304.61	3409.87
304.83	3045.33
305.04	3127.25
305.26	3379.15
305.47	3229.65
305.68	3014.61
305.90	2820.05
306.11	3497.93
306.33	3192.78
306.54	2828.24
306.75	2947.03
306.97	3043.28
307.18	3049.43
307.39	3024.85
307.61	3063.76
307.82	3309.52
308.04	3368.91
308.25	2830.29
308.46	3084.24
308.68	3309.52
308.89	3280.85
309.10	3078.10
309.32	3094.48
309.53	3291.09
309.74	3403.72
309.96	2920.40
310.17	3133.39
310.39	3200.98
310.60	3391.44
310.81	3041.23
311.03	2901.97
311.24	3383.24
311.45	3319.76
311.67	3231.69
311.88	3082.19
312.09	3188.69
312.31	3215.31
312.52	2975.70
312.73	2930.64
312.95	2992.08
313.16	2994.13
313.37	3221.45
313.59	3151.82
313.80	3512.27
314.01	3577.80
314.23	3037.14
314.44	2969.55
314.65	3090.38
314.87	3106.77
315.08	2944.98
315.29	3020.75
315.51	3006.42
315.72	3108.82
315.93	3061.71
316.15	3024.85
316.36	3207.12
316.57	3301.33
316.79	3043.28
317.00	2930.64
317.21	3432.40
317.43	3141.58
317.64	3049.43
317.85	2934.74
318.07	3125.20
318.28	3205.07
318.49	3063.76
318.70	3252.17
318.92	3342.28
319.13	3450.83
319.34	3166.16
319.56	3004.37
319.77	3461.07
319.98	3450.83
320.20	3360.72
320.41	3170.26
320.62	3301.33
320.83	3065.81
321.05	3250.13
321.26	3033.04
321.47	3368.91
321.69	3565.51
321.90	2899.92
322.11	2977.75
322.32	3360.72
322.54	3581.90
322.75	3022.80
322.96	4085.70
323.18	2963.41
323.39	2938.84
323.60	2858.96
323.81	3078.10
324.03	3190.74
324.24	3221.45
324.45	3137.49
324.66	2916.31
324.88	3502.03
325.09	3645.38
325.30	2951.12
325.52	2889.68
325.73	3381.20
325.94	3057.62
326.15	2783.19
326.37	2811.86
326.58	3413.96
326.79	3598.28
327.00	2979.79
327.22	3020.75
327.43	3246.03
327.64	3092.43
327.85	3106.77
328.07	2973.65
328.28	3667.91
328.49	3205.07
328.70	3010.51
328.92	2951.12
329.13	3196.88
329.34	3313.61
329.55	3223.50
329.76	3186.64
329.98	3143.63
330.19	3487.69
330.40	3051.47
330.61	3100.62
330.83	3418.06
331.04	3082.19
331.25	3106.77
331.46	3074.00
331.68	3067.86
331.89	3493.83
332.10	3008.47
332.31	2877.40
332.52	3223.50
332.74	3606.47
332.95	2811.86
333.16	2955.22
333.37	3403.72
333.58	3170.26
333.80	3000.27
334.01	2826.20
334.22	3219.41
334.43	3119.06
334.64	2910.16
334.86	2928.60
335.07	3033.04
335.28	3577.80
335.49	2836.44
335.70	3084.24
335.92	3551.18
336.13	3735.50
336.34	3094.48
336.55	2981.84
336.76	3307.47
336.98	2906.07
337.19	3012.56
337.40	3121.10
337.61	3868.61
337.82	3205.07
338.04	3086.29
338.25	2787.29
338.46	3303.37
338.67	3219.41
338.88	2926.55
339.09	2899.92
339.31	3241.93
339.52	3096.53
339.73	2996.18
339.94	3016.66
340.15	3436.49
340.36	3074.00
340.58	3074.00
340.79	2922.45
341.00	3342.28
341.21	3010.51
341.42	3278.80
341.63	2975.70
341.85	3456.97
342.06	3373.00
342.27	3010.51
342.48	3188.69
342.69	3008.47
342.90	3370.96
343.12	3313.61
343.33	2944.98
343.54	3489.74
343.75	3540.94
343.96	3176.40
344.17	2992.08
344.38	3282.89
344.60	3145.68
344.81	2918.36
345.02	2977.75
345.23	3442.64
345.44	3852.23
345.65	3030.99
345.86	3078.10
346.07	3274.70
346.29	3170.26
346.50	3114.96
346.71	3123.15
346.92	3592.14
347.13	3708.87
347.34	3088.34
347.55	2801.62
347.76	3338.19
347.98	2975.70
348.19	2996.18
348.40	3213.26
348.61	3231.69
348.82	3606.47
349.03	3053.52
349.24	2899.92
349.45	3674.06
349.66	2838.48
349.88	2975.70
350.09	2885.59
350.30	3532.75
350.51	3495.88
350.72	3174.35
350.93	2897.88
351.14	3180.50
351.35	3379.15
351.56	3041.23
351.77	3078.10
351.99	3424.20
352.20	3489.74
352.41	3114.96
352.62	2842.58
352.83	3264.46
353.04	3258.32
353.25	2990.03
353.46	2979.79
353.67	3475.40
353.88	2801.62
354.09	2987.99
354.30	3051.47
354.52	3440.59
354.73	3280.85
354.94	2926.55
355.15	3014.61
355.36	3690.44
355.57	3172.30
355.78	2858.96
355.99	2967.51
356.20	3274.70
356.41	3510.22
356.62	3125.20
356.83	3057.62
357.04	3469.26
357.25	2959.31
357.46	2969.55
357.68	2918.36
357.89	3082.19
358.10	3321.81
358.31	3086.29
358.52	3018.71
358.73	3051.47
358.94	3127.25
359.15	2957.27
359.36	3024.85
359.57	3352.52
359.78	3258.32
359.99	3182.54
360.20	2936.79
360.41	3223.50
360.62	3403.72
360.83	3053.52
361.04	3012.56
361.25	3354.57
361.46	3540.94
361.67	3114.96
361.88	3028.95
362.09	3469.26
362.30	3401.68
362.51	2901.97
362.72	3082.19
362.93	3481.55
363.14	3350.48
363.35	3092.43
363.56	2922.45
363.78	3487.69
363.99	3508.17
364.20	3010.51
364.41	3133.39
364.62	3637.19
364.83	3397.58
365.04	2977.75
365.25	2992.08
365.46	3551.18
365.67	3131.34
365.88	3188.69
366.09	2975.70
366.30	3125.20
366.51	3266.51
366.72	3000.27
366.93	2938.84
367.14	3330.00
367.35	3471.31
367.56	2967.51
367.77	3071.95
367.98	3252.17
368.18	3348.43
368.39	3164.11
368.60	2891.73
368.81	3377.10
369.02	3274.70
369.23	2949.08
369.44	2832.34
369.65	3258.32
369.86	3313.61
370.07	3143.63
370.28	2838.48
370.49	3325.90
370.70	3346.38
370.91	2947.03
371.12	2869.20
371.33	3481.55
371.54	3143.63
371.75	3104.72
371.96	2785.24
372.17	3295.18
372.38	3266.51
372.59	3016.66
372.80	2959.31
373.01	3157.97
373.22	3289.04
373.43	3053.52
373.64	2801.62
373.85	3581.90
374.06	3647.43
374.26	3246.03
374.47	3106.77
374.68	3553.23
374.89	3334.09
375.10	2938.84
375.31	3076.05
375.52	3246.03
375.73	3327.95
375.94	2879.44
376.15	3182.54
376.36	3184.59
376.57	3112.91
376.78	2996.18
376.99	3067.86
377.20	3526.60
377.40	3155.92
377.61	3291.09
377.82	2942.93
378.03	3585.99
378.24	3403.72
378.45	3080.14
378.66	3090.38
378.87	2949.08
379.08	3018.71
379.29	3080.14
379.50	3196.88
379.71	3200.98
379.91	3426.25
380.12	3053.52
380.33	3063.76
380.54	3303.37
380.75	3123.15
380.96	3024.85
381.17	3069.91
381.38	3239.89
381.59	3278.80
381.80	3155.92
382.00	3190.74
382.21	3311.57
382.42	3655.62
382.63	3393.48
382.84	3172.30
383.05	3393.48
383.26	3561.42
383.47	3170.26
383.68	2944.98
383.88	3413.96
384.09	3264.46
384.30	3303.37
384.51	3184.59
384.72	3168.21
384.93	2973.65
385.14	3121.10
385.35	3278.80
385.55	3080.14
385.76	3467.21
385.97	3059.67
386.18	2944.98
386.39	3078.10
386.60	3104.72
386.81	3002.32
387.02	3018.71
387.22	2987.99
387.43	3442.64
387.64	3059.67
387.85	3205.07
388.06	3291.09
388.27	4380.61
388.48	7845.77
388.68	12007.24
388.89	15085.34
389.10	16246.54
389.31	15894.29
389.52	12902.20
389.73	11077.46
389.93	10272.61
390.14	9324.40
390.35	8513.41
390.56	7866.25
390.77	6502.30
390.98	5023.67
391.18	4155.33
391.39	3915.72
391.60	3278.80
391.81	3211.22
392.02	3061.71
392.23	3772.36
392.43	3354.57
392.64	3067.86
392.85	3151.82
393.06	3643.34
393.27	3264.46
393.47	2983.89
393.68	3162.06
393.89	3127.25
394.10	3461.07
394.31	3024.85
394.52	2987.99
394.72	3098.58
394.93	3549.13
395.14	2908.12
395.35	3135.44
395.56	3225.55
395.76	3252.17
395.97	3065.81
396.18	3096.53
396.39	3309.52
396.60	3940.29
396.80	3393.48
397.01	3307.47
397.22	3577.80
397.43	3461.07
397.64	2975.70
397.84	3129.30
398.05	3684.30
398.26	3348.43
398.47	3233.74
398.67	3319.76
398.88	3338.19
399.09	3360.72
399.30	2994.13
399.51	3106.77
399.71	3182.54
399.92	3246.03
400.13	3123.15
400.34	3041.23
400.54	3342.28
400.75	3626.95
400.96	3278.80
401.17	3418.06
401.37	3334.09
401.58	3241.93
401.79	2930.64
402.00	3123.15
402.21	3731.40
402.41	3442.64
402.62	3397.58
402.83	3561.42
403.04	3651.53
403.24	4042.69
403.45	3170.26
403.66	3444.68
403.87	3520.46
404.07	3614.66
404.28	3315.66
404.49	3438.54
404.70	3358.67
404.90	3440.59
405.11	2990.03
405.32	3166.16
405.52	3160.02
405.73	3211.22
405.94	2963.41
406.15	3137.49
406.35	3379.15
406.56	3440.59
406.77	3053.52
406.98	3041.23
407.18	3119.06
407.39	3575.75
407.60	3084.24
407.80	3141.58
408.01	3119.06
408.22	3393.48
408.43	2955.22
408.63	3098.58
408.84	3436.49
409.05	3489.74
409.25	2998.23
409.46	3024.85
409.67	3233.74
409.88	3123.15
410.08	3061.71
410.29	3067.86
410.50	3467.21
410.70	3352.52
410.91	3022.80
411.12	3125.20
411.32	3266.51
411.53	3127.25
411.74	3125.20
411.95	3151.82
412.15	3393.48
412.36	3397.58
412.57	3237.84
412.77	3221.45
412.98	3237.84
413.19	3233.74
413.39	3123.15
413.60	3045.33
413.81	3557.32
414.01	3033.04
414.22	3094.48
414.43	3295.18
414.63	3258.32
414.84	3493.83
415.05	3168.21
415.25	2824.15
415.46	3389.39
415.67	3125.20
415.87	3076.05
416.08	3071.95
416.29	3166.16
416.49	3327.95
416.70	3090.38
416.91	3039.19
417.11	3203.02
417.32	3499.98
417.53	3151.82
417.73	3196.88
417.94	3321.81
418.15	3344.33
418.35	3102.67
418.56	3067.86
418.77	3827.65
418.97	3286.99
419.18	3131.34
419.38	2697.17
419.59	3246.03
419.80	3610.57
420.00	2977.75
420.21	3041.23
420.42	3581.90
420.62	3258.32
420.83	3076.05
421.04	3000.27
421.24	3282.89
421.45	3399.63
421.65	3059.67
421.86	3096.53
422.07	3538.89
422.27	3426.25
422.48	2914.26
422.69	2875.35
422.89	3256.27
423.10	3149.78
423.30	3018.71
423.51	3071.95
423.72	3307.47
423.92	3440.59
424.13	2916.31
424.33	3106.77
424.54	3590.09
424.75	3317.71
424.95	3305.42
425.16	2942.93
425.36	3196.88
425.57	3391.44
425.78	3180.50
425.98	3221.45
426.19	3194.83
426.39	3180.50
426.60	3119.06
426.81	3254.22
427.01	3362.76
427.22	3092.43
427.42	2828.24
427.63	2996.18
427.83	3446.73
428.04	3680.20
428.25	3069.91
428.45	3198.93
428.66	3528.65
428.86	3248.08
429.07	3090.38
429.28	3117.01
429.48	3213.26
429.69	3102.67
429.89	3164.11
430.10	2975.70
430.30	3332.05
430.51	3495.88
430.71	2998.23
430.92	3162.06
431.13	3182.54
431.33	3477.45
431.54	3112.91
431.74	3246.03
431.95	3723.21
432.15	3135.44
432.36	3053.52
432.56	3100.62
432.77	3721.16
432.98	3522.51
433.18	3151.82
433.39	2994.13
433.59	3246.03
433.80	3735.50
434.00	3221.45
434.21	3026.90
434.41	3198.93
434.62	3704.78
434.82	2949.08
435.03	2947.03
435.23	3366.86
435.44	3012.56
435.64	3047.38
435.85	3080.14
436.06	3401.68
436.26	3456.97
436.47	3061.71
436.67	2924.50
436.88	3297.23
437.08	3520.46
437.29	3229.65
437.49	3321.81
437.70	3430.35
437.90	3213.26
438.11	3229.65
438.31	3147.73
438.52	3678.15
438.72	3469.26
438.93	3366.86
439.13	3184.59
439.34	3452.88
439.54	3149.78
439.75	3178.45
439.95	3135.44
440.16	3117.01
440.36	3309.52
440.57	3086.29
440.77	3069.91
440.98	3289.04
441.18	3336.14
441.39	2930.64
441.59	2961.36
441.80	3700.68
442.00	3289.04
442.21	3219.41
442.41	2947.03
442.62	3454.92
442.82	3168.21
443.02	3065.81
443.23	3108.82
443.43	3354.57
443.64	3499.98
443.84	3020.75
444.05	3080.14
444.25	3276.75
444.46	3143.63
444.66	2967.51
444.87	3223.50
445.07	3028.95
445.28	3192.78
445.48	3141.58
445.69	3180.50
445.89	3805.13
446.09	3330.00
446.30	3370.96
446.50	3483.59
446.71	5060.53
446.91	6254.50
447.12	7073.68
447.32	7589.77
447.53	7573.39
447.73	6440.86
447.93	5617.58
448.14	5353.39
448.34	5406.64
448.55	4472.76
448.75	4511.68
448.96	4249.54
449.16	4116.42
449.36	3870.66
449.57	3344.33
449.77	3145.68
449.98	3209.17
450.18	3352.52
450.39	3061.71
450.59	3203.02
450.79	3264.46
451.00	3074.00
451.20	3284.94
451.41	3112.91
451.61	3352.52
451.81	3213.26
452.02	3037.14
452.22	3114.96
452.43	3203.02
452.63	3172.30
452.84	3172.30
453.04	3000.27
453.24	3327.95
453.45	3108.82
453.65	3084.24
453.86	3059.67
454.06	3327.95
454.26	3262.41
454.47	2944.98
454.67	3180.50
454.87	3420.11
455.08	3299.28
455.28	3192.78
455.49	3227.60
455.69	3059.67
455.89	3717.06
456.10	3110.86
456.30	2996.18
456.51	3432.40
456.71	3319.76
456.91	3182.54
457.12	3090.38
457.32	3358.67
457.52	3008.47
457.73	3278.80
457.93	3188.69
458.14	3108.82
458.34	2901.97
458.54	3092.43
458.75	3076.05
458.95	3540.94
459.15	3418.06
459.36	3086.29
459.56	3045.33
459.76	3788.74
459.97	3356.62
460.17	3082.19
460.37	3162.06
460.58	3256.27
460.78	3399.63
460.99	3022.80
461.19	3033.04
461.39	3123.15
461.60	3180.50
461.80	3074.00
462.00	2971.60
462.21	3237.84
462.41	3061.71
462.61	2914.26
462.82	2871.25
463.02	3395.53
463.22	3229.65
463.43	3133.39
463.63	2961.36
463.83	3616.71
464.04	3348.43
464.24	3067.86
464.44	2959.31
464.64	3373.00
464.85	3389.39
465.05	3094.48
465.25	3016.66
465.46	3092.43
465.66	3416.01
465.86	3149.78
466.07	3053.52
466.27	3241.93
466.47	3076.05
466.68	2936.79
466.88	3127.25
467.08	3452.88
467.29	3504.07
467.49	3008.47
467.69	3215.31
467.89	3446.73
468.10	3157.97
468.30	3051.47
468.50	3127.25
468.71	3424.20
468.91	2910.16
469.11	3231.69
469.31	3098.58
469.52	3055.57
469.72	3626.95
469.92	3241.93
470.13	3110.86
470.33	3272.65
470.53	3303.37
470.73	3434.44
470.94	3887.04
471.14	4132.80
471.34	4681.66
471.54	4304.83
471.75	4050.88
471.95	3862.47
472.15	3717.06
472.36	3729.35
472.56	3573.71
472.76	3837.89
472.96	3766.21
473.17	3368.91
473.37	3233.74
473.57	3237.84
473.77	3418.06
473.98	3166.16
474.18	2967.51
474.38	3973.06
474.58	3198.93
474.79	2932.69
474.99	3149.78
475.19	3508.17
475.39	3102.67
475.60	3143.63
475.80	3010.51
476.00	3358.67
476.20	3299.28
476.41	3092.43
476.61	3151.82
476.81	3608.52
477.01	3108.82
477.21	3313.61
477.42	3157.97
477.62	3094.48
477.82	3340.24
478.02	3016.66
478.23	3139.54
478.43	3131.34
478.63	3260.37
478.83	3133.39
479.03	3063.76
479.24	3530.70
479.44	3702.73
479.64	2981.84
479.84	2830.29
480.04	3131.34
480.25	3436.49
480.45	3088.34
480.65	2973.65
480.85	3536.84
481.06	3192.78
481.26	3217.36
481.46	3076.05
481.66	3295.18
481.86	3127.25
482.06	3303.37
482.27	3086.29
482.47	3293.13
482.67	3375.05
482.87	3086.29
483.07	3127.25
483.28	3160.02
483.48	3114.96
483.68	3008.47
483.88	2889.68
484.08	2992.08
484.29	2994.13
484.49	3151.82
484.69	2848.72
484.89	3594.19
485.09	3534.79
485.29	3047.38
485.50	3198.93
485.70	3192.78
485.90	3504.07
486.10	3186.64
486.30	3020.75
486.50	3467.21
486.71	3295.18
486.91	3153.87
487.11	3164.11
487.31	3049.43
487.51	3397.58
487.71	3104.72
487.91	2947.03
488.12	3145.68
488.32	2836.44
488.52	3030.99
488.72	2729.94
488.92	3325.90
489.12	3532.75
489.32	3209.17
489.53	3024.85
489.73	3033.04
489.93	3604.42
490.13	3010.51
490.33	2901.97
490.53	3231.69
490.73	3596.23
490.94	2959.31
491.14	3176.40
491.34	3411.92
491.54	3461.07
491.74	4036.55
491.94	4538.30
492.14	5175.22
492.34	5257.14
492.54	4790.20
492.75	4188.10
492.95	4409.28
493.15	4048.83
493.35	3723.21
493.55	3745.73
493.75	3768.26
493.95	3784.65
494.15	3375.05
494.35	3127.25
494.56	3346.38
494.76	3114.96
494.96	3133.39
495.16	2959.31
495.36	3205.07
495.56	3379.15
495.76	3209.17
495.96	3047.38
496.16	3121.10
496.36	3674.06
496.56	3008.47
496.77	3129.30
496.97	3246.03
497.17	3559.37
497.37	2891.73
497.57	3180.50
497.77	3350.48
497.97	3125.20
498.17	3174.35
498.37	2985.94
498.57	3413.96
498.77	3217.36
498.97	3270.61
499.17	3307.47
499.38	3256.27
499.58	3344.33
499.78	3227.60
499.98	3243.98
500.18	3250.13
500.38	3108.82
500.58	3213.26
500.78	3770.31
500.98	6113.19
501.18	8261.51
501.38	9789.29
501.58	10880.86
501.78	10729.31
501.98	9078.65
502.18	7612.30
502.38	6514.59
502.58	6586.27
502.78	5658.54
502.98	5287.86
503.18	5173.17
503.38	5068.72
503.59	4222.91
503.79	4128.70
503.99	3645.38
504.19	3819.46
504.39	3901.38
504.59	3637.19
504.79	3606.47
504.99	4007.87
505.19	3575.75
505.39	3383.24
505.59	3573.71
505.79	3766.21
505.99	3516.36
506.19	3180.50
506.39	3364.81
506.59	3280.85
506.79	3274.70
506.99	3309.52
507.19	3022.80
507.39	3354.57
507.59	2934.74
507.79	3078.10
507.99	2985.94
508.19	3327.95
508.39	3196.88
508.59	3092.43
508.79	3123.15
508.99	3725.26
509.19	3147.73
509.39	3135.44
509.59	2918.36
509.79	3076.05
509.99	3248.08
510.19	3182.54
510.39	3168.21
510.59	3346.38
510.79	3207.12
510.99	2818.00
511.19	3033.04
511.39	3534.79
511.59	3469.26
511.79	3286.99
511.99	3059.67
512.19	3698.63
512.38	3254.22
512.58	3028.95
512.78	2910.16
512.98	3528.65
513.18	3608.52
513.38	3006.42
513.58	3147.73
513.78	3215.31
513.98	3289.04
514.18	3125.20
514.38	3057.62
514.58	3323.85
514.78	3127.25
514.98	2944.98
515.18	3117.01
515.38	3057.62
515.58	3622.86
515.78	3024.85
515.98	3117.01
516.18	3413.96
516.38	3213.26
516.57	3024.85
516.77	3004.37
516.97	3465.16
517.17	3223.50
517.37	2777.05
517.57	3139.54
517.77	3178.45
517.97	3155.92
518.17	3092.43
518.37	3012.56
518.57	3076.05
518.77	3266.51
518.97	3080.14
519.16	3119.06
519.36	3442.64
519.56	3155.92
519.76	3026.90
519.96	3098.58
520.16	3594.19
520.36	3053.52
520.56	3186.64
520.76	3037.14
520.96	3258.32
521.16	3432.40
521.35	3223.50
521.55	3086.29
521.75	3278.80
521.95	3125.20
522.15	2981.84
522.35	2912.21
522.55	3139.54
522.75	3373.00
522.95	2947.03
523.14	2897.88
523.34	3229.65
523.54	3141.58
523.74	3178.45
523.94	3172.30
524.14	2987.99
524.34	3340.24
524.54	3262.41
524.73	3108.82
524.93	3422.16
525.13	3291.09
525.33	2885.59
525.53	3315.66
525.73	3440.59
525.93	3332.05
526.13	3092.43
526.32	2961.36
526.52	3473.36
526.72	3467.21
526.92	3092.43
527.12	2930.64
527.32	3041.23
527.52	3280.85
527.71	3092.43
527.91	3065.81
528.11	3157.97
528.31	3262.41
528.51	3047.38
528.71	3151.82
528.90	3368.91
529.10	3549.13
529.30	3129.30
529.50	2865.11
529.70	3342.28
529.90	3157.97
530.09	3092.43
530.29	2942.93
530.49	3104.72
530.69	3868.61
530.89	3239.89
531.09	3211.22
531.28	3219.41
531.48	3596.23
531.68	3106.77
531.88	3080.14
532.08	3424.20
532.28	3221.45
532.47	3184.59
532.67	3196.88
532.87	3418.06
533.07	3123.15
533.27	3051.47
533.46	3110.86
533.66	3315.66
533.86	3258.32
534.06	3092.43
534.26	3033.04
534.45	3141.58
534.65	3442.64
534.85	3149.78
535.05	3026.90
535.25	3450.83
535.44	3004.37
535.64	3117.01
535.84	3106.77
536.04	3252.17
536.24	3153.87
536.43	2955.22
536.63	3033.04
536.83	3282.89
537.03	3260.37
537.22	2934.74
537.42	2881.49
537.62	3301.33
537.82	3082.19
538.02	3311.57
538.21	3026.90
538.41	3917.76
538.61	3317.71
538.81	3155.92
539.00	3160.02
539.20	2994.13
539.40	3243.98
539.60	3035.09
539.79	3280.85
539.99	3231.69
540.19	3094.48
540.39	3082.19
540.58	3155.92
540.78	3526.60
540.98	3307.47
541.18	3246.03
541.37	3147.73
541.57	3327.95
541.77	3442.64
541.97	3041.23
542.16	2944.98
542.36	3125.20
542.56	3098.58
542.76	3282.89
542.95	3135.44
543.15	3364.81
543.35	3473.36
543.54	2987.99
543.74	2942.93
543.94	3569.61
544.14	3129.30
544.33	3180.50
544.53	2996.18
544.73	3280.85
544.93	3168.21
545.12	3098.58
545.32	3024.85
545.52	3205.07
545.71	3014.61
545.91	3035.09
546.11	2963.41
546.30	3160.02
546.50	3221.45
546.70	3166.16
546.90	3139.54
547.09	2944.98
547.29	3330.00
547.49	3143.63
547.68	3012.56
547.88	3147.73
548.08	3469.26
548.27	3395.53
548.47	2996.18
548.67	3215.31
548.87	3379.15
549.06	2975.70
549.26	3014.61
549.46	3325.90
549.65	3106.77
549.85	3082.19
550.05	3061.71
550.24	3117.01
550.44	3280.85
550.64	3086.29
550.83	3178.45
551.03	3583.95
551.23	3526.60
551.42	3098.58
551.62	3254.22
551.82	3250.13
552.01	3205.07
552.21	3346.38
552.41	3170.26
552.60	3536.84
552.80	3334.09
553.00	2992.08
553.19	3063.76
553.39	3631.05
553.59	3045.33
553.78	3213.26
553.98	2983.89
554.17	3026.90
554.37	3389.39
554.57	3157.97
554.76	2942.93
554.96	3231.69
555.16	3233.74
555.35	3092.43
555.55	3237.84
555.75	3327.95
555.94	3440.59
556.14	2846.68
556.33	3084.24
556.53	3254.22
556.73	3188.69
556.92	3065.81
557.12	2969.55
557.32	3688.39
557.51	3592.14
557.71	3112.91
557.90	3250.13
558.10	3520.46
558.30	3198.93
558.49	3164.11
558.69	3098.58
558.88	3360.72
559.08	3278.80
559.28	3119.06
559.47	3131.34
559.67	3330.00
559.86	3678.15
560.06	3090.38
560.26	3129.30
560.45	3350.48
560.65	3188.69
560.84	3379.15
561.04	2942.93
561.24	3426.25
561.43	2998.23
561.63	3246.03
561.82	3237.84
562.02	3336.14
562.22	3067.86
562.41	3012.56
562.61	3039.19
562.80	3110.86
563.00	3688.39
563.19	3211.22
563.39	3211.22
563.59	3286.99
563.78	3000.27
563.98	2848.72
564.17	3088.34
564.37	2877.40
564.56	3237.84
564.76	2901.97
564.96	3192.78
565.15	3313.61
565.35	3782.60
565.54	3143.63
565.74	3119.06
565.93	3315.66
566.13	3270.61
566.32	3153.87
566.52	3153.87
566.71	3246.03
566.91	3465.16
567.11	3166.16
567.30	2967.51
567.50	3405.77
567.69	3360.72
567.89	3004.37
568.08	2969.55
568.28	3325.90
568.47	2975.70
568.67	3057.62
568.86	3002.32
569.06	3401.68
569.25	3180.50
569.45	3010.51
569.64	3076.05
569.84	3213.26
570.04	3368.91
570.23	3086.29
570.43	3117.01
570.62	3356.62
570.82	3604.42
571.01	2942.93
571.21	3051.47
571.40	3149.78
571.60	3362.76
571.79	3172.30
571.99	3074.00
572.18	3155.92
572.38	3348.43
572.57	3049.43
572.77	3084.24
572.96	3811.27
573.16	3370.96
573.35	2996.18
573.55	3272.65
573.74	3383.24
573.94	3295.18
574.13	2944.98
574.33	3188.69
574.52	3493.83
574.71	3278.80
574.91	3063.76
575.10	2914.26
575.30	3229.65
575.49	3114.96
575.69	2973.65
575.88	3000.27
576.08	3252.17
576.27	3483.59
576.47	3028.95
576.66	3254.22
576.86	3493.83
577.05	3256.27
577.25	3096.53
577.44	3248.08
577.64	3192.78
577.83	3452.88
578.02	2981.84
578.22	3229.65
578.41	3692.49
578.61	3256.27
578.80	2953.17
579.00	3188.69
579.19	3270.61
579.39	3313.61
579.58	3153.87
579.77	3098.58
579.97	3590.09
580.16	3477.45
580.36	3194.83
580.55	3114.96
580.75	3377.10
580.94	3330.00
581.13	3231.69
581.33	3346.38
581.52	3243.98
581.72	3631.05
581.91	3243.98
582.11	3010.51
582.30	3444.68
582.49	3395.53
582.69	3375.05
582.88	3147.73
583.08	3338.19
583.27	3549.13
583.47	3200.98
583.66	3043.28
583.85	3131.34
584.05	3270.61
584.24	3182.54
584.44	3145.68
584.63	3502.03
584.82	3528.65
585.02	3370.96
585.21	3200.98
585.41	3370.96
585.60	3268.56
585.79	3289.04
585.99	3379.15
586.18	3368.91
586.37	4175.81
586.57	6260.64
586.76	17932.01
586.96	36971.98
587.15	50648.32
587.34	59030.65
587.54	62899.26
587.73	55846.06
587.93	40803.73
588.12	31180.32
588.31	25513.59
588.51	22478.50
588.70	20885.19
588.89	18726.63
589.09	15920.91
589.28	13537.07
589.47	10866.52
589.67	8181.64
589.86	6393.76
590.06	5017.52
590.25	4458.43
590.44	3893.19
590.64	3499.98
590.83	3620.81
591.02	3614.66
591.22	3164.11
591.41	3155.92
591.60	3223.50
591.80	3733.45
591.99	2891.73
592.18	3139.54
592.38	3467.21
592.57	3170.26
592.76	3074.00
592.96	3147.73
593.15	3241.93
593.34	3485.64
593.54	3067.86
593.73	3196.88
593.92	3373.00
594.12	3346.38
594.31	3227.60
594.50	3243.98
594.70	3379.15
594.89	3909.57
595.08	2922.45
595.28	3196.88
595.47	3975.11
595.66	3446.73
595.86	2949.08
596.05	2944.98
596.24	3186.64
596.43	3635.14
596.63	3176.40
596.82	3278.80
597.01	3348.43
597.21	3585.99
597.40	3020.75
597.59	3067.86
597.79	3221.45
597.98	3430.35
598.17	3143.63
598.36	3131.34
598.56	3434.44
598.75	3198.93
598.94	3209.17
599.14	3094.48
599.33	3219.41
599.52	3360.72
599.71	3094.48
599.91	3137.49
600.10	3456.97
600.29	3344.33
600.48	3164.11
600.68	3104.72
600.87	3403.72
601.06	3164.11
601.26	3123.15
601.45	3211.22
601.64	3131.34
601.83	3588.04
602.03	2887.64
602.22	2985.94
602.41	3532.75
602.60	3835.85
602.80	3143.63
602.99	3209.17
603.18	3235.79
603.37	3356.62
603.57	3061.71
603.76	3098.58
603.95	3551.18
604.14	3174.35
604.34	3004.37
604.53	3041.23
604.72	3360.72
604.91	3383.24
605.10	3092.43
605.30	2940.88
605.49	3690.44
605.68	3450.83
605.87	3076.05
606.07	3041.23
606.26	3424.20
606.45	3485.64
606.64	3108.82
606.84	2936.79
607.03	3262.41
607.22	3551.18
607.41	3178.45
607.60	3045.33
607.80	3434.44
607.99	3270.61
608.18	3108.82
608.37	3057.62
608.56	3186.64
608.76	3508.17
608.95	3303.37
609.14	3041.23
609.33	3504.07
609.52	3577.80
609.72	3182.54
609.91	3139.54
610.10	3317.71
610.29	3573.71
610.48	3186.64
610.68	3164.11
610.87	3217.36
611.06	3389.39
611.25	3061.71
611.44	3227.60
611.63	3217.36
611.83	3532.75
612.02	3051.47
612.21	3254.22
612.40	2910.16
612.59	3030.99
612.79	3037.14
612.98	3176.40
613.17	3649.48
613.36	3276.75
613.55	3219.41
613.74	3063.76
613.93	3323.85
614.13	3446.73
614.32	3373.00
614.51	3172.30
614.70	3289.04
614.89	3200.98
615.08	3188.69
615.28	3479.50
615.47	3129.30
615.66	3381.20
615.85	3198.93
616.04	3119.06
616.23	3246.03
616.42	3246.03
616.62	3098.58
616.81	3170.26
617.00	3192.78
617.19	3379.15
617.38	3106.77
617.57	3196.88
617.76	3358.67
617.95	3444.68
618.15	3276.75
618.34	3346.38
618.53	3030.99
618.72	3549.13
618.91	3200.98
619.10	3168.21
619.29	3264.46
619.48	3334.09
619.68	2965.46
619.87	3059.67
620.06	3045.33
620.25	3373.00
620.44	2979.79
620.63	3014.61
620.82	3350.48
621.01	3276.75
621.20	3104.72
621.39	3157.97
621.59	3379.15
621.78	3233.74
621.97	3125.20
622.16	3223.50
622.35	3356.62
622.54	3565.51
622.73	3225.55
622.92	2844.63
623.11	3504.07
623.30	3205.07
623.49	3246.03
623.68	2926.55
623.88	3620.81
624.07	3108.82
624.26	3010.51
624.45	3071.95
624.64	3168.21
624.83	3295.18
625.02	3061.71
625.21	3033.04
625.40	3284.94
625.59	3604.42
625.78	3114.96
625.97	3155.92
626.16	3549.13
626.35	3520.46
626.54	3082.19
626.74	3315.66
626.93	3209.17
627.12	3325.90
627.31	3205.07
627.50	3104.72
627.69	3444.68
627.88	3114.96
628.07	3039.19
628.26	2955.22
628.45	3086.29
628.64	3168.21
628.83	3110.86
629.02	2967.51
629.21	3403.72
629.40	3383.24
629.59	2996.18
629.78	3080.14
629.97	3299.28
630.16	3231.69
630.35	3084.24
630.54	3141.58
630.73	3170.26
630.92	3286.99
631.11	3067.86
631.30	3110.86
631.49	3436.49
631.68	3207.12
631.87	3117.01
632.06	2951.12
632.25	3803.08
632.44	3284.94
632.63	3088.34
632.82	3223.50
633.01	3112.91
633.20	3295.18
633.39	3127.25
633.58	2994.13
633.77	3432.40
633.96	3471.31
634.15	3211.22
634.34	3174.35
634.53	3403.72
634.72	3164.11
634.91	2914.26
635.10	3094.48
635.29	3426.25
635.48	3262.41
635.67	2924.50
635.86	2963.41
636.05	3534.79
636.24	3305.42
636.43	3094.48
636.62	3168.21
636.81	2865.11
637.00	3297.23
637.19	3053.52
637.38	3012.56
637.57	3200.98
637.76	3323.85
637.95	3330.00
638.14	3260.37
638.33	3237.84
638.52	3362.76
638.71	2910.16
638.89	2904.02
639.08	3827.65
639.27	3534.79
639.46	3413.96
639.65	3764.17
639.84	3882.95
640.03	4005.83
640.22	3635.14
640.41	3553.23
640.60	3368.91
640.79	3557.32
640.98	3389.39
641.17	3276.75
641.36	3614.66
641.55	3493.83
641.74	2955.22
641.92	2985.94
642.11	3078.10
642.30	3237.84
642.49	3002.32
642.68	3059.67
642.87	3418.06
643.06	3364.81
643.25	2908.12
643.44	2932.69
643.63	3235.79
643.82	3426.25
644.00	2992.08
644.19	3016.66
644.38	3035.09
644.57	3375.05
644.76	3098.58
644.95	3162.06
645.14	3344.33
645.33	3239.89
645.52	3174.35
645.71	2914.26
645.89	3108.82
646.08	3295.18
646.27	3041.23
646.46	3246.03
646.65	3082.19
646.84	3309.52
647.03	2922.45
647.22	3227.60
647.40	3319.76
647.59	3188.69
647.78	2846.68
647.97	3049.43
648.16	3151.82
648.35	3538.89
648.54	3340.24
648.73	3129.30
648.91	3422.16
649.10	3291.09
649.29	3057.62
649.48	3065.81
649.67	3364.81
649.86	3321.81
650.05	3106.77
650.23	3274.70
650.42	3282.89
650.61	3575.75
650.80	3327.95
650.99	3411.92
651.18	3475.40
651.36	3526.60
651.55	3059.67
651.74	3264.46
651.93	3221.45
652.12	3254.22
652.31	3123.15
652.49	3217.36
652.68	3166.16
652.87	3573.71
653.06	3252.17
653.25	3291.09
653.44	3272.65
653.62	3651.53
653.81	3104.72
654.00	3045.33
654.19	3483.59
654.38	3794.89
654.56	3194.83
654.75	2975.70
654.94	3422.16
655.13	3330.00
655.32	2992.08
655.51	3108.82
655.69	3131.34
655.88	3420.11
656.07	2949.08
656.26	3213.26
656.45	2965.46
656.63	3209.17
656.82	3057.62
657.01	3350.48
657.20	3205.07
657.38	3573.71
657.57	3012.56
657.76	2969.55
657.95	3413.96
658.14	3180.50
658.32	3231.69
658.51	2963.41
658.70	3256.27
658.89	3323.85
659.08	3049.43
659.26	3330.00
659.45	3041.23
659.64	3387.34
659.83	3090.38
660.01	3473.36
660.20	3315.66
660.39	3661.77
660.58	2779.09
660.76	3180.50
660.95	2920.40
661.14	3203.02
661.33	2914.26
661.51	3008.47
661.70	3123.15
661.89	3303.37
662.08	3172.30
662.26	2932.69
662.45	3051.47
662.64	3606.47
662.83	3114.96
663.01	2975.70
663.20	3223.50
663.39	3602.38
663.58	3133.39
663.76	3024.85
663.95	3379.15
664.14	3100.62
664.32	3192.78
664.51	2992.08
664.70	2914.26
664.89	3327.95
665.07	2983.89
665.26	3229.65
665.45	2985.94
665.64	3409.87
665.82	3069.91
666.01	3182.54
666.20	3039.19
666.38	3450.83
666.57	3413.96
666.76	5511.08
666.95	12810.04
667.13	20301.51
667.32	24895.11
667.51	27946.58
667.69	29036.10
667.88	24088.21
668.07	17305.34
668.25	14692.13
668.44	12730.17
668.63	11077.46
668.81	9860.97
669.00	8327.04
669.19	7710.60
669.38	6760.34
669.56	5580.71
669.75	5048.24
669.94	4394.94
670.12	3790.79
670.31	3479.50
670.50	3352.52
670.68	3477.45
670.87	3436.49
671.06	3098.58
671.24	3139.54
671.43	3622.86
671.62	3338.19
671.80	3022.80
671.99	3237.84
672.18	3344.33
672.36	3391.44
672.55	3200.98
672.74	3157.97
672.92	3250.13
673.11	3438.54
673.29	2963.41
673.48	3250.13
673.67	3207.12
673.85	3397.58
674.04	3059.67
674.23	3225.55
674.41	3741.64
674.60	3065.81
674.79	2930.64
674.97	3008.47
675.16	3397.58
675.34	3532.75
675.53	3086.29
675.72	3121.10
675.90	3622.86
676.09	3205.07
676.28	3155.92
676.46	2944.98
676.65	3434.44
676.83	3100.62
677.02	3184.59
677.21	3147.73
677.39	3295.18
677.58	3114.96
677.77	3047.38
677.95	3051.47
678.14	3254.22
678.32	3209.17
678.51	3131.34
678.70	3409.87
678.88	3139.54
679.07	3327.95
679.25	3055.57
679.44	3067.86
679.63	2947.03
679.81	3303.37
680.00	3381.20
680.18	3264.46
680.37	3588.04
680.55	3311.57
680.74	2883.54
680.93	2838.48
681.11	3258.32
681.30	3262.41
681.48	3137.49
681.67	3172.30
681.85	3278.80
682.04	3086.29
682.23	3264.46
682.41	3198.93
682.60	3190.74
682.78	3209.17
682.97	3035.09
683.15	3151.82
683.34	3397.58
683.53	3598.28
683.71	2877.40
683.90	3155.92
684.08	3614.66
684.27	3196.88
684.45	3157.97
684.64	3295.18
684.82	3282.89
685.01	3373.00
685.19	3065.81
685.38	3364.81
685.57	3256.27
685.75	3221.45
685.94	3024.85
686.12	2938.84
686.31	3172.30
686.49	3653.58
686.68	2809.81
686.86	3104.72
687.05	3131.34
687.23	3555.27
687.42	3157.97
687.60	2877.40
687.79	3385.29
687.97	3590.09
688.16	3178.45
688.34	3254.22
688.53	2926.55
688.71	3465.16
688.90	3313.61
689.08	3135.44
689.27	3041.23
689.45	3542.99
689.64	3196.88
689.82	3155.92
690.01	3373.00
690.19	3379.15
690.38	3211.22
690.56	3264.46
690.75	3112.91
690.93	3186.64
691.12	3067.86
691.30	3162.06
691.49	3127.25
691.67	3223.50
691.86	3389.39
692.04	3131.34
692.23	3211.22
692.41	3319.76
692.60	3411.92
692.78	3305.42
692.97	3262.41
693.15	3469.26
693.34	3282.89
693.52	3291.09
693.71	3135.44
693.89	3188.69
694.08	2963.41
694.26	3106.77
694.44	3403.72
694.63	3506.12
694.81	3020.75
695.00	3110.86
695.18	3532.75
695.37	3821.51
695.55	3223.50
695.74	3180.50
695.92	3059.67
696.10	3516.36
696.29	2953.17
696.47	3082.19
696.66	3078.10
696.84	3014.61
697.03	3196.88
697.21	3336.14
697.40	4648.89
697.58	3477.45
697.76	3051.47
697.95	3094.48
698.13	3067.86
698.32	3102.67
698.50	3129.30
698.68	3065.81
698.87	3352.52
699.05	3590.09
699.24	3069.91
699.42	3110.86
699.61	3440.59
699.79	3289.04
699.97	3014.61
700.16	3010.51
700.34	3057.62
700.53	3303.37
700.71	3340.24
700.89	3243.98
701.08	3141.58
701.26	3262.41
701.45	3450.83
701.63	3129.30
701.81	3174.35
702.00	3135.44
702.18	3266.51
702.37	3164.11
702.55	3604.42
702.73	3399.63
702.92	3090.38
703.10	3526.60
703.28	3428.30
703.47	3076.05
703.65	3250.13
703.84	3274.70
704.02	3174.35
704.20	3579.85
704.39	3155.92
704.57	3119.06
704.75	3545.03
704.94	3428.30
705.12	3241.93
705.30	4024.26
705.49	8542.08
705.67	16893.69
705.86	23637.66
706.04	26799.72
706.22	29689.40
706.41	28302.93
706.59	21450.42
706.77	16563.97
706.96	14305.06
707.14	13197.11
707.32	11245.40
707.51	9813.87
707.69	8079.24
707.87	6614.94
708.06	5175.22
708.24	4564.92
708.42	4110.27
708.61	4118.47
708.79	3348.43
708.97	3291.09
709.16	3411.92
709.34	3352.52
709.52	3200.98
709.71	3094.48
709.89	3336.14
710.07	3160.02
710.26	3098.58
710.44	3086.29
710.62	3430.35
710.80	3311.57
710.99	3190.74
711.17	3280.85
711.35	3090.38
711.54	3223.50
711.72	3284.94
711.90	3155.92
712.09	3340.24
712.27	3155.92
712.45	3180.50
712.63	3078.10
712.82	3420.11
713.00	3270.61
713.18	3239.89
713.37	3250.13
713.55	3420.11
713.73	3338.19
713.91	3133.39
714.10	3106.77
714.28	3278.80
714.46	3360.72
714.65	3172.30
714.83	3151.82
715.01	3239.89
715.19	3332.05
715.38	2990.03
715.56	3256.27
715.74	3108.82
715.92	3112.91
716.11	3346.38
716.29	2869.20
716.47	3266.51
716.65	3174.35
716.84	2916.31
717.02	3123.15
717.20	2959.31
717.38	3065.81
717.57	3221.45
717.75	3088.34
717.93	3117.01
718.11	3381.20
718.30	2920.40
718.48	3094.48
718.66	3530.70
718.84	3561.42
719.03	3106.77
719.21	2994.13
719.39	3647.43
719.57	3485.64
719.75	3155.92
719.94	3074.00
720.12	3207.12
720.30	3270.61
720.48	3155.92
720.67	3114.96
720.85	3065.81
721.03	3182.54
721.21	3000.27
721.39	3114.96
721.58	3317.71
721.76	3319.76
721.94	3106.77
722.12	3182.54
722.30	3610.57
722.49	3137.49
722.67	3119.06
722.85	3057.62
723.03	3008.47
723.21	3133.39
723.40	3170.26
723.58	3307.47
723.76	3403.72
723.94	3522.51
724.12	3090.38
724.30	3338.19
724.49	3510.22
724.67	2998.23
724.85	3211.22
725.03	2942.93
725.21	3475.40
725.40	3407.82
725.58	3086.29
725.76	3309.52
725.94	3407.82
726.12	3033.04
726.30	3166.16
726.49	3012.56
726.67	3282.89
726.85	3407.82
727.03	3950.53
727.21	5355.44
727.39	7255.95
727.57	7778.19
727.76	8411.01
727.94	8343.42
728.12	7276.43
728.30	6055.84
728.48	5646.25
728.66	5132.21
728.84	4843.45
729.03	4106.18
729.21	3846.09
729.39	3641.29
729.57	3452.88
729.75	3409.87
729.93	3483.59
730.11	3049.43
730.30	3237.84
730.48	3246.03
730.66	3192.78
730.84	3266.51
731.02	3389.39
731.20	3172.30
731.38	3168.21
731.56	2973.65
731.74	2934.74
731.93	3289.04
732.11	3190.74
732.29	3086.29
732.47	3370.96
732.65	3315.66
732.83	3272.65
733.01	3168.21
733.19	3198.93
733.37	3450.83
733.56	3123.15
733.74	2969.55
733.92	3532.75
734.10	3198.93
734.28	3241.93
734.46	2981.84
734.64	3221.45
734.82	3190.74
735.00	3100.62
735.18	3020.75
735.36	3262.41
735.54	3258.32
735.73	3043.28
735.91	3237.84
736.09	3600.33
736.27	3254.22
736.45	3135.44
736.63	2801.62
736.81	3157.97
736.99	3518.41
737.17	3223.50
737.35	2987.99
737.53	3289.04
737.71	3198.93
737.89	3309.52
738.07	3028.95
738.25	3143.63
738.43	3026.90
738.61	3049.43
738.80	2981.84
738.98	3100.62
739.16	3145.68
739.34	2910.16
739.52	3368.91
739.70	3203.02
739.88	3418.06
740.06	3282.89
740.24	2797.53
740.42	3403.72
740.60	2881.49
740.78	3104.72
740.96	2881.49
741.14	3239.89
741.32	3309.52
741.50	2910.16
741.68	3368.91
741.86	3516.36
742.04	3119.06
742.22	3012.56
742.40	3151.82
742.58	3424.20
742.76	3102.67
742.94	3315.66
743.12	2942.93
743.30	3317.71
743.48	3319.76
743.66	3018.71
743.84	3117.01
744.02	3264.46
744.20	3270.61
744.38	2959.31
744.56	3016.66
744.74	3545.03
744.92	3383.24
745.10	3352.52
745.28	3108.82
745.46	3581.90
745.64	3213.26
745.82	3219.41
746.00	3074.00
746.18	3368.91
746.36	3084.24
746.54	3041.23
746.72	3139.54
746.90	3063.76
747.08	3477.45
747.26	3078.10
747.44	3233.74
747.62	3454.92
747.80	3330.00
747.98	3217.36
748.15	3082.19
748.33	3606.47
748.51	3346.38
748.69	3155.92
748.87	2967.51
749.05	3209.17
749.23	3252.17
749.41	2967.51
749.59	3104.72
749.77	3502.03
749.95	3164.11
750.13	2977.75
750.31	3231.69
750.49	3278.80
750.67	3428.30
750.85	3256.27
751.03	3088.34
751.20	3639.24
751.38	3248.08
751.56	3155.92
751.74	3092.43
751.92	3180.50
752.10	3051.47
752.28	3237.84
752.46	3071.95
752.64	3348.43
752.82	3274.70
753.00	3151.82
753.18	3082.19
753.35	3119.06
753.53	3278.80
753.71	2983.89
753.89	3133.39
754.07	3385.29
754.25	3491.79
754.43	3149.78
754.61	3020.75
754.79	3352.52
754.97	3256.27
755.14	3268.56
755.32	3018.71
755.50	3256.27
755.68	3248.08
755.86	3033.04
756.04	2975.70
756.22	2951.12
756.40	3391.44
756.57	3209.17
756.75	3022.80
756.93	3358.67
757.11	3483.59
757.29	2942.93
757.47	3069.91
757.65	2975.70
757.82	2869.20
758.00	2990.03
758.18	2975.70
758.36	3157.97
758.54	3639.24
758.72	2914.26
758.90	3200.98
759.07	3286.99
759.25	3086.29
759.43	3108.82
759.61	2885.59
759.79	4536.25
759.97	3387.34
760.15	3084.24
760.32	3059.67
760.50	3327.95
760.68	3577.80
760.86	3008.47
761.04	3330.00
761.22	3426.25
761.39	3225.55
761.57	3309.52
761.75	3035.09
761.93	3395.53
762.11	3221.45
762.28	3162.06
762.46	3037.14
762.64	3416.01
762.82	2953.17
763.00	3098.58
763.18	3270.61
763.35	3043.28
763.53	3373.00
763.71	3170.26
763.89	3057.62
764.07	3307.47
764.24	3262.41
764.42	3225.55
764.60	3117.01
764.78	3313.61
764.96	3459.02
765.13	3256.27
765.31	2992.08
765.49	3377.10
765.67	3067.86
765.84	2981.84
766.02	2990.03
766.20	3002.32
766.38	3338.19
766.56	3200.98
766.73	3237.84
766.91	3352.52
767.09	3258.32
767.27	3106.77
767.44	3039.19
767.62	3387.34
767.80	3319.76
767.98	2959.31
768.15	3117.01
768.33	3413.96
768.51	3483.59
768.69	3250.13
768.87	3059.67
769.04	3282.89
769.22	3801.03
769.40	3248.08
769.58	3305.42
769.75	3340.24
769.93	3579.85
770.11	3121.10
770.28	3000.27
770.46	3516.36
770.64	3303.37
770.82	3106.77
770.99	3061.71
771.17	3344.33
771.35	3237.84
771.53	3086.29
771.70	3061.71
771.88	3362.76
772.06	3280.85
772.23	3065.81
772.41	3102.67
772.59	3258.32
772.77	3110.86
772.94	3086.29
773.12	3129.30
773.30	3170.26
773.47	3307.47
773.65	2990.03
773.83	3332.05
774.01	3389.39
774.18	2899.92
774.36	3063.76
774.54	2987.99
774.71	3319.76
774.89	3051.47
775.07	2934.74
775.24	3008.47
775.42	3143.63
775.60	3692.49
775.78	2934.74
775.95	2887.64
776.13	2928.60
776.31	2975.70
776.48	3205.07
776.66	3360.72
776.84	3160.02
777.01	3180.50
777.19	3022.80
777.37	3008.47
777.54	3356.62
777.72	3657.67
777.90	3229.65
778.07	3143.63
778.25	3889.09
778.43	3379.15
778.60	3033.04
778.78	3108.82
778.96	3536.84
779.13	3076.05
779.31	3225.55
779.49	3112.91
779.66	3270.61
779.84	3205.07
780.01	3041.23
780.19	3082.19
780.37	3577.80
780.54	3362.76
780.72	2940.88
780.90	3020.75
781.07	3166.16
781.25	3160.02
781.43	3289.04
781.60	3043.28
781.78	3549.13
781.95	3299.28
782.13	3067.86
782.31	3131.34
782.48	2926.55
782.66	3301.33
782.83	3323.85
783.01	3131.34
783.19	3450.83
783.36	3205.07
783.54	2983.89
783.72	3164.11
783.89	3153.87
784.07	3409.87
784.24	3239.89
784.42	3162.06
784.60	3260.37
784.77	3411.92
784.95	2863.06
785.12	3082.19
785.30	3276.75
785.47	3127.25
785.65	2938.84
785.83	3137.49
786.00	3084.24
786.18	3196.88
786.35	3024.85
786.53	3047.38
786.71	3471.31
786.88	3260.37
787.06	3241.93
787.23	3139.54
787.41	2987.99
787.58	3153.87
787.76	3008.47
787.94	3129.30
788.11	3325.90
788.29	3047.38
788.46	3108.82
788.64	2912.21
788.81	3133.39
788.99	3061.71
789.16	2979.79
789.34	3155.92
789.52	3153.87
789.69	3143.63
789.87	2971.60
790.04	3012.56
790.22	3307.47
790.39	3717.06
790.57	2979.79
790.74	2963.41
790.92	3428.30
791.09	2971.60
791.27	3082.19
791.44	3205.07
791.62	3223.50
791.79	3467.21
791.97	3172.30
792.15	3395.53
792.32	3387.34
792.50	3370.96
792.67	3332.05
792.85	3416.01
793.02	3342.28
793.20	3194.83
793.37	2877.40
793.55	2983.89
793.72	3012.56
793.90	3395.53
794.07	3110.86
794.25	2959.31
794.42	3319.76
794.60	3223.50
794.77	3153.87
794.95	3221.45
795.12	3387.34
795.30	3295.18
795.47	2875.35
795.65	3442.64
795.82	3362.76
796.00	3092.43
796.17	3104.72
796.34	3018.71
796.52	3303.37
796.69	3352.52
796.87	3239.89
797.04	3266.51
797.22	3491.79
797.39	3246.03
797.57	3256.27
797.74	3188.69
797.92	3321.81
798.09	3137.49
798.27	3368.91
798.44	3119.06
798.62	3147.73
798.79	3274.70
798.96	3219.41
799.14	3100.62
799.31	3766.21
799.49	3217.36
799.66	3143.63
799.84	3114.96
800.01	2979.79
800.19	3350.48
800.36	2844.63
800.53	3084.24
800.71	3321.81
800.88	3633.10
801.06	2981.84
801.23	3051.47
801.41	3198.93
801.58	3155.92
801.75	3000.27
801.93	3155.92
802.10	3401.68
802.28	3188.69
802.45	3067.86
802.63	3117.01
802.80	3532.75
802.97	3227.60
803.15	3067.86
803.32	3051.47
803.50	3131.34
803.67	3096.53
803.84	3047.38
804.02	3160.02
804.19	3243.98
804.37	2822.10
804.54	2981.84
804.71	3045.33
804.89	3325.90
805.06	3037.14
805.24	2953.17
805.41	2865.11
805.58	3131.34
805.76	3758.02
805.93	3076.05
806.10	3246.03
806.28	3387.34
806.45	3368.91
806.63	3241.93
806.80	3229.65
806.97	3403.72
807.15	3297.23
807.32	3157.97
807.49	3098.58
807.67	3022.80
807.84	3291.09
808.01	2873.30
808.19	3209.17
808.36	3686.34
808.54	3184.59
808.71	3045.33
808.88	3020.75
809.06	3516.36
809.23	3581.90
809.40	2977.75
809.58	3045.33
809.75	3241.93
809.92	3012.56
810.10	3323.85
810.27	3041.23
810.44	3383.24
810.62	3325.90
810.79	3076.05
810.96	3074.00
811.14	3162.06
811.31	3432.40
811.48	3203.02
811.66	3176.40
811.83	3469.26
812.00	3360.72
812.18	3192.78
812.35	3340.24
812.52	3168.21
812.69	3248.08
812.87	3057.62
813.04	2985.94
813.21	3336.14
813.39	3192.78
813.56	2985.94
813.73	3286.99
813.91	3057.62
814.08	3264.46
814.25	3037.14
814.42	2904.02
814.60	3188.69
814.77	3286.99
814.94	2981.84
815.12	3188.69
815.29	3659.72
815.46	3182.54
815.63	3037.14
815.81	3033.04
815.98	3270.61
816.15	3352.52
816.33	3180.50
816.50	3084.24
816.67	3364.81
816.84	3215.31
817.02	2987.99
817.19	3121.10
817.36	3342.28
817.53	3344.33
817.71	2983.89
817.88	3129.30
818.05	3225.55
818.22	3145.68
818.40	3237.84
818.57	3100.62
818.74	3356.62
818.91	3203.02
819.09	3319.76
819.26	3225.55
819.43	3084.24
819.60	3131.34
819.78	3196.88
819.95	3184.59
820.12	3000.27
820.29	3508.17
820.47	3297.23
820.64	2930.64
820.81	3049.43
820.98	3057.62
821.15	3069.91
821.33	3174.35
821.50	2930.64
821.67	3405.77
821.84	3088.34
822.02	3074.00
822.19	3430.35
822.36	3151.82
822.53	2994.13
822.70	3002.32
822.88	3221.45
823.05	3536.84
823.22	3117.01
823.39	3106.77
823.56	3315.66
823.74	3651.53
823.91	2983.89
824.08	3018.71
824.25	3074.00
824.42	3504.07
824.60	2940.88
824.77	3166.16
824.94	3266.51
825.11	3411.92
825.28	2947.03
825.45	3225.55
825.63	3338.19
825.80	3067.86
825.97	3151.82
826.14	3119.06
826.31	3026.90
826.48	3426.25
826.66	3012.56
826.83	3018.71
827.00	3205.07
827.17	3121.10
827.34	3137.49
827.51	3006.42
827.69	3186.64
827.86	2959.31
828.03	3067.86
828.20	3102.67
828.37	3139.54
828.54	3385.29
828.71	3000.27
828.89	3117.01
829.06	3393.48
829.23	3532.75
829.40	3160.02
829.57	3033.04
829.74	3502.03
829.91	3180.50
830.09	3037.14
830.26	3211.22
830.43	3635.14
830.60	3198.93
830.77	3155.92
830.94	3289.04
831.11	3497.93
831.28	3209.17
831.46	3166.16
831.63	3047.38
831.80	3491.79
831.97	3119.06
832.14	3092.43
832.31	3137.49
832.48	3327.95
832.65	3436.49
832.82	3239.89
832.99	3149.78
833.17	3024.85
833.34	3631.05
833.51	2992.08
833.68	2875.35
833.85	3459.02
834.02	2994.13
834.19	3004.37
834.36	3033.04
834.53	3286.99
834.70	3411.92
834.87	3102.67
835.04	2834.39
835.22	3076.05
835.39	3112.91
835.56	2904.02
835.73	2936.79
835.90	3448.78
836.07	3010.51
836.24	3092.43
836.41	2850.77
836.58	3090.38
836.75	3448.78
836.92	2895.83
837.09	2838.48
837.26	3420.11
837.43	3291.09
837.60	3012.56
837.77	2934.74
837.94	3413.96
838.12	3502.03
838.29	2836.44
838.46	2768.85
838.63	3096.53
838.80	3583.95
838.97	3033.04
839.14	2949.08
839.31	3268.56
839.48	3389.39
839.65	2920.40
839.82	2975.70
839.99	3313.61
840.16	3248.08
840.33	2918.36
840.50	2912.21
840.67	3147.73
840.84	2783.19
841.01	2848.72
841.18	2856.92
841.35	3239.89
841.52	3364.81
841.69	3192.78
841.86	2959.31
842.03	3221.45
842.20	3442.64
842.37	2994.13
842.54	2920.40
842.71	3231.69
842.88	3008.47
843.05	2947.03
843.22	2906.07
843.39	3418.06
843.56	3059.67
843.73	2971.60
843.90	3057.62
844.07	3270.61
844.24	3477.45
844.41	3026.90
844.58	2953.17
844.75	3207.12
844.92	3370.96
845.09	2977.75
845.26	2895.83
845.43	3446.73
845.60	3174.35
845.77	3014.61
845.94	2969.55
846.10	3448.78
846.27	2934.74
846.44	2752.47
846.61	2836.44
846.78	3340.24
846.95	3479.50
847.12	2897.88
847.29	3022.80
847.46	3092.43
847.63	3319.76
847.80	2803.67
847.97	2967.51
848.14	3760.07
848.31	3196.88
848.48	2779.09
848.65	2885.59
848.82	3182.54
848.98	3794.89
849.15	3057.62
849.32	3055.57
849.49	3514.31
849.66	3231.69
849.83	2885.59
850.00	2906.07
850.17	3506.12
850.34	3160.02
850.51	2867.16
850.68	2926.55
850.85	3708.87
851.01	3334.09
851.18	2848.72
851.35	2914.26
851.52	3356.62
851.69	3504.07
851.86	2807.77
852.03	2944.98
852.20	3428.30
852.37	3266.51
852.53	2754.52
852.70	2795.48
852.87	3291.09
853.04	3284.94
853.21	2901.97
853.38	3131.34
853.55	3518.41
853.72	3528.65
853.89	2838.48
854.05	2848.72
854.22	3264.46
854.39	3176.40
854.56	2836.44
854.73	3057.62
854.90	3117.01
855.07	3188.69
855.23	2840.53
855.40	2822.10
855.57	3217.36
855.74	2893.78
855.91	3200.98
856.08	2777.05
856.25	3028.95
856.41	3172.30
856.58	2906.07
856.75	2879.44
856.92	3049.43
857.09	3469.26
857.26	2809.81
857.42	2942.93
857.59	3358.67
857.76	3241.93
857.93	2906.07
858.10	2985.94
858.27	2996.18
858.43	3280.85
858.60	2846.68
858.77	2858.96
858.94	3149.78
859.11	3436.49
859.27	3024.85
859.44	2832.34
859.61	3708.87
859.78	3377.10
859.95	2932.69
860.12	2885.59
860.28	3622.86
860.45	3594.19
860.62	2846.68
860.79	3012.56
860.95	3147.73
861.12	3184.59
861.29	2775.00
861.46	2924.50
861.63	3258.32
861.79	3360.72
861.96	2740.18
862.13	2934.74
862.30	3581.90
862.47	3094.48
862.63	2758.61
862.80	3024.85
862.97	3401.68
863.14	3239.89
863.30	2957.27
863.47	2854.87
863.64	3549.13
863.81	3381.20
863.97	2772.95
864.14	3039.19
864.31	3229.65
864.48	3262.41
864.65	2912.21
864.81	2979.79
864.98	3377.10
865.15	3461.07
865.32	2992.08
865.48	3020.75
865.65	3575.75
865.82	3143.63
865.98	2998.23
866.15	2885.59
866.32	3196.88
866.49	3205.07
866.65	3080.14
866.82	2867.16
866.99	3227.60
867.16	3174.35
867.32	2940.88
867.49	2828.24
867.66	3174.35
867.83	3123.15
867.99	2789.33
868.16	2883.54
868.33	3061.71
868.49	3188.69
868.66	2910.16
868.83	3086.29
868.99	3299.28
869.16	3246.03
869.33	3049.43
869.50	3086.29
869.66	3280.85
869.83	3274.70
870.00	2779.09
870.16	3117.01
870.33	3246.03
870.50	3436.49
870.66	2992.08
870.83	2979.79
871.00	3225.55
871.17	3401.68
871.33	3008.47
871.50	2922.45
871.67	3266.51
871.83	3018.71
872.00	2981.84
872.17	2889.68
872.33	3606.47
872.50	3528.65
872.67	2940.88
872.83	2942.93
873.00	3342.28
873.17	3229.65
873.33	3002.32
873.50	3024.85
873.67	3123.15
873.83	3145.68
874.00	2938.84
874.16	3033.04
874.33	3213.26
874.50	3000.27
874.66	2826.20
874.83	3010.51
875.00	3487.69
875.16	3508.17
875.33	2973.65
875.50	2734.04
875.66	3168.21
875.83	3289.04
875.99	2971.60
876.16	3084.24
876.33	3141.58
876.49	3237.84
876.66	3020.75
876.83	2987.99
876.99	2955.22
877.16	3207.12
877.32	2869.20
877.49	2961.36
877.66	3342.28
877.82	3583.95
877.99	3022.80
878.15	3172.30
878.32	3330.00
878.49	3325.90
878.65	3020.75
878.82	3106.77
878.98	3112.91
879.15	3483.59
879.32	3055.57
879.48	3096.53
879.65	3258.32
879.81	3246.03
879.98	2985.94
880.15	2942.93
880.31	3491.79
880.48	3106.77
880.64	3030.99
880.81	3119.06
880.97	3559.37
881.14	3528.65
881.31	2871.25
881.47	3123.15
881.64	3248.08
881.80	2969.55
881.97	3106.77
882.13	2928.60
882.30	2987.99
882.47	3106.77
882.63	2869.20
882.80	2961.36
882.96	3133.39
883.13	3459.02
883.29	2926.55
883.46	2877.40
883.62	3641.29
883.79	3291.09
883.95	3164.11
884.12	2813.91
884.29	3497.93
884.45	3346.38
884.62	2955.22
884.78	2797.53
884.95	3590.09
885.11	3088.34
885.28	3024.85
885.44	2858.96
885.61	3399.63
885.77	3532.75
885.94	3002.32
886.10	2942.93
886.27	3258.32
886.43	3620.81
886.60	3082.19
886.76	2916.31
886.93	3104.72
887.09	3262.41
887.26	2797.53
887.42	3074.00
887.59	3418.06
887.75	3731.40
887.92	3112.91
888.08	3024.85
888.25	3663.82
888.41	3479.50
888.58	3082.19
888.74	2803.67
888.91	3143.63
>>>>>End Processed Spectral Data<<<<<
