SpectraSuite Data File
++++++++++++++++++++++++++++++++++++
Date: Fri May 06 08:14:31 CEST 2016
User: root
Dark Spectrum Present: No
Reference Spectrum Present: No
Number of Sampled Component Spectra: 1
Spectrometers: USB4C02835
Integration Time (usec): 100000 (USB4C02835)
Spectra Averaged: 1 (USB4C02835)
Boxcar Smoothing: 0 (USB4C02835)
Correct for Electrical Dark: No (USB4C02835)
Strobe/Lamp Enabled: No (USB4C02835)
Correct for Detector Non-linearity: No (USB4C02835)
Correct for Stray Light: No (USB4C02835)
Number of Pixels in Processed Spectrum: 3648
>>>>>Begin Processed Spectral Data<<<<<
177.47	2256.86
177.69	2256.86
177.91	2256.86
178.13	2287.58
178.36	2324.44
178.58	2979.79
178.80	3127.25
179.02	2842.58
179.24	3123.15
179.46	2815.96
179.68	2879.44
179.90	3231.69
180.13	3295.18
180.35	2684.89
180.57	2734.04
180.79	3442.64
181.01	3219.41
181.23	2863.06
181.45	2977.75
181.67	3362.76
181.90	3418.06
182.12	2881.49
182.34	2805.72
182.56	3397.58
182.78	3385.29
183.00	2811.86
183.22	2885.59
183.44	2893.78
183.66	3821.51
183.89	3002.32
184.11	2877.40
184.33	3413.96
184.55	3602.38
184.77	2803.67
184.99	2883.54
185.21	3198.93
185.43	3835.85
185.65	2820.05
185.87	2797.53
186.10	3817.41
186.32	3753.93
186.54	2947.03
186.76	2951.12
186.98	3491.79
187.20	3182.54
187.42	2889.68
187.64	2797.53
187.86	3389.39
188.08	3475.40
188.30	2785.24
188.52	2879.44
188.75	3577.80
188.97	3442.64
189.19	2826.20
189.41	2772.95
189.63	3432.40
189.85	3196.88
190.07	2713.56
190.29	2746.33
190.51	3352.52
190.73	2959.31
190.95	3043.28
191.17	2959.31
191.39	2996.18
191.61	3225.55
191.84	2885.59
192.06	3061.71
192.28	2971.60
192.50	3981.25
192.72	2973.65
192.94	2922.45
193.16	3524.55
193.38	3305.42
193.60	2766.81
193.82	3049.43
194.04	3399.63
194.26	3293.13
194.48	2848.72
194.70	2869.20
194.92	3221.45
195.14	3368.91
195.36	2840.53
195.58	2949.08
195.80	3321.81
196.02	3196.88
196.24	2762.71
196.46	2955.22
196.69	3200.98
196.91	3712.97
197.13	2906.07
197.35	2895.83
197.57	3590.09
197.79	3475.40
198.01	2904.02
198.23	2887.64
198.45	3393.48
198.67	3049.43
198.89	2650.07
199.11	2998.23
199.33	3160.02
199.55	2783.19
199.77	2764.76
199.99	3030.99
200.21	3207.12
200.43	3262.41
200.65	2791.38
200.87	2713.56
201.09	3303.37
201.31	3211.22
201.53	2926.55
201.75	2969.55
201.97	3305.42
202.19	3274.70
202.41	3028.95
202.63	2944.98
202.85	3418.06
203.07	3401.68
203.29	3004.37
203.51	2803.67
203.73	3098.58
203.95	3917.76
204.17	2854.87
204.39	2918.36
204.61	3278.80
204.83	3252.17
205.05	3041.23
205.27	2815.96
205.49	3639.24
205.71	3246.03
205.93	2660.31
206.15	2811.86
206.37	3344.33
206.59	3213.26
206.81	2695.13
207.03	2799.57
207.25	3135.44
207.47	3475.40
207.69	2848.72
207.91	3076.05
208.13	3624.90
208.34	3176.40
208.56	2852.82
208.78	2924.50
209.00	3160.02
209.22	3286.99
209.44	2942.93
209.66	2877.40
209.88	3286.99
210.10	3215.31
210.32	2803.67
210.54	2877.40
210.76	3168.21
210.98	3489.74
211.20	2770.90
211.42	3024.85
211.64	3583.95
211.86	3418.06
212.08	2947.03
212.30	2910.16
212.52	3250.13
212.74	3356.62
212.96	2951.12
213.17	3022.80
213.39	3495.88
213.61	3633.10
213.83	2885.59
214.05	2740.18
214.27	3528.65
214.49	3053.52
214.71	2750.42
214.93	2994.13
215.15	3305.42
215.37	3452.88
215.59	2740.18
215.81	2942.93
216.03	3563.47
216.24	3225.55
216.46	2850.77
216.68	2947.03
216.90	3452.88
217.12	3411.92
217.34	2840.53
217.56	2983.89
217.78	3631.05
218.00	3416.01
218.22	2940.88
218.44	2983.89
218.66	3317.71
218.87	3661.77
219.09	2904.02
219.31	2820.05
219.53	3327.95
219.75	3225.55
219.97	2912.21
220.19	2885.59
220.41	3237.84
220.63	3583.95
220.85	2881.49
221.06	2842.58
221.28	3477.45
221.50	3401.68
221.72	2840.53
221.94	2787.29
222.16	3270.61
222.38	3616.71
222.60	2813.91
222.82	2967.51
223.03	3528.65
223.25	3043.28
223.47	2820.05
223.69	3030.99
223.91	3342.28
224.13	3336.14
224.35	2748.37
224.57	3030.99
224.78	3600.33
225.00	3121.10
225.22	2992.08
225.44	2811.86
225.66	3442.64
225.88	3176.40
226.10	2975.70
226.32	2873.30
226.53	3579.85
226.75	3229.65
226.97	2955.22
227.19	2901.97
227.41	3063.76
227.63	3221.45
227.85	2725.85
228.06	2992.08
228.28	3286.99
228.50	3555.27
228.72	2711.51
228.94	2820.05
229.16	2965.46
229.37	3067.86
229.59	2752.47
229.81	3176.40
230.03	3209.17
230.25	3033.04
230.47	2742.23
230.69	2842.58
230.90	3452.88
231.12	3131.34
231.34	2959.31
231.56	2901.97
231.78	3092.43
232.00	3264.46
232.21	2906.07
232.43	2895.83
232.65	2869.20
232.87	3377.10
233.09	2717.65
233.30	2717.65
233.52	3497.93
233.74	3295.18
233.96	2828.24
234.18	3067.86
234.40	3286.99
234.61	3815.37
234.83	2738.13
235.05	2897.88
235.27	3737.54
235.49	3565.51
235.70	2781.14
235.92	2922.45
236.14	3426.25
236.36	3721.16
236.58	2822.10
236.79	2985.94
237.01	3315.66
237.23	3254.22
237.45	3071.95
237.67	2858.96
237.88	3385.29
238.10	3672.01
238.32	2785.24
238.54	2836.44
238.76	3264.46
238.97	3123.15
239.19	2832.34
239.41	2904.02
239.63	3454.92
239.85	3209.17
240.06	2877.40
240.28	2879.44
240.50	3512.27
240.72	3219.41
240.93	2824.15
241.15	2959.31
241.37	3332.05
241.59	3549.13
241.81	2852.82
242.02	2969.55
242.24	3303.37
242.46	3436.49
242.68	2754.52
242.89	2822.10
243.11	3446.73
243.33	3200.98
243.55	2889.68
243.76	2877.40
243.98	3215.31
244.20	3182.54
244.42	2906.07
244.64	2848.72
244.85	3033.04
245.07	3108.82
245.29	2885.59
245.51	2926.55
245.72	3338.19
245.94	3569.61
246.16	2803.67
246.38	2871.25
246.59	3178.45
246.81	3194.83
247.03	2844.63
247.24	2815.96
247.46	3205.07
247.68	3278.80
247.90	2840.53
248.11	2869.20
248.33	3426.25
248.55	3297.23
248.77	2906.07
248.98	2961.36
249.20	3528.65
249.42	3389.39
249.64	2865.11
249.85	2897.88
250.07	3186.64
250.29	3395.53
250.50	2951.12
250.72	2830.29
250.94	3295.18
251.16	3811.27
251.37	2844.63
251.59	2830.29
251.81	3391.44
252.02	3608.52
252.24	2775.00
252.46	3022.80
252.68	3149.78
252.89	3127.25
253.11	2703.32
253.33	2951.12
253.54	3571.66
253.76	3086.29
253.98	2889.68
254.20	2756.57
254.41	3080.14
254.63	3323.85
254.85	2684.89
255.06	2971.60
255.28	3368.91
255.50	3192.78
255.71	2768.85
255.93	2664.41
256.15	3305.42
256.36	3426.25
256.58	2756.57
256.80	2836.44
257.02	3270.61
257.23	3143.63
257.45	2807.77
257.67	3008.47
257.88	3213.26
258.10	3299.28
258.32	2889.68
258.53	2957.27
258.75	3631.05
258.97	3110.86
259.18	2738.13
259.40	2844.63
259.62	3639.24
259.83	3553.23
260.05	2920.40
260.27	3846.09
260.48	3456.97
260.70	3092.43
260.92	2727.89
261.13	2887.64
261.35	3352.52
261.57	3354.57
261.78	2779.09
262.00	2820.05
262.22	3479.50
262.43	3123.15
262.65	2836.44
262.86	2895.83
263.08	3780.55
263.30	3293.13
263.51	2723.80
263.73	2811.86
263.95	3588.04
264.16	3143.63
264.38	2676.70
264.60	2807.77
264.81	3299.28
265.03	3467.21
265.25	3274.70
265.46	2813.91
265.68	3440.59
265.89	3442.64
266.11	2729.94
266.33	2789.33
266.54	3575.75
266.76	3377.10
266.98	2973.65
267.19	3084.24
267.41	3516.36
267.62	3278.80
267.84	2709.46
268.06	3004.37
268.27	3323.85
268.49	3483.59
268.70	2949.08
268.92	2944.98
269.14	3155.92
269.35	2994.13
269.57	2979.79
269.79	2877.40
270.00	3129.30
270.22	3620.81
270.43	2672.60
270.65	2791.38
270.87	3368.91
271.08	3483.59
271.30	2983.89
271.51	2877.40
271.73	3413.96
271.95	3600.33
272.16	2803.67
272.38	3006.42
272.59	3250.13
272.81	3399.63
273.02	2818.00
273.24	2891.73
273.46	3514.31
273.67	3035.09
273.89	2734.04
274.10	2783.19
274.32	3561.42
274.54	3340.24
274.75	2944.98
274.97	3051.47
275.18	3444.68
275.40	3266.51
275.61	2815.96
275.83	3004.37
276.05	3143.63
276.26	3207.12
276.48	3004.37
276.69	3049.43
276.91	3147.73
277.12	3551.18
277.34	3002.32
277.55	3157.97
277.77	3256.27
277.99	3246.03
278.20	2979.79
278.42	2920.40
278.63	3098.58
278.85	3010.51
279.06	3000.27
279.28	3043.28
279.49	3432.40
279.71	3411.92
279.93	3074.00
280.14	3092.43
280.36	3076.05
280.57	3467.21
280.79	3098.58
281.00	2926.55
281.22	3182.54
281.43	3522.51
281.65	2766.81
281.86	2861.01
282.08	3377.10
282.29	3710.92
282.51	2885.59
282.73	2877.40
282.94	2992.08
283.16	3385.29
283.37	3071.95
283.59	3055.57
283.80	3315.66
284.02	3229.65
284.23	2975.70
284.45	3061.71
284.66	3188.69
284.88	3123.15
285.09	2934.74
285.31	3084.24
285.52	3338.19
285.74	2983.89
285.95	3119.06
286.17	3049.43
286.38	3518.41
286.60	3106.77
286.81	3026.90
287.03	2924.50
287.24	3246.03
287.46	3344.33
287.67	3074.00
287.89	3215.31
288.10	3225.55
288.32	3274.70
288.53	3223.50
288.75	3110.86
288.96	3442.64
289.18	3180.50
289.39	2889.68
289.61	3024.85
289.82	3774.41
290.04	3657.67
290.25	2947.03
290.47	3094.48
290.68	3213.26
290.90	3475.40
291.11	2809.81
291.33	3147.73
291.54	3137.49
291.76	3133.39
291.97	3065.81
292.18	3026.90
292.40	3176.40
292.61	3166.16
292.83	3272.65
293.04	2953.17
293.26	3323.85
293.47	3180.50
293.69	2985.94
293.90	2930.64
294.12	3516.36
294.33	3301.33
294.55	3088.34
294.76	3223.50
294.97	3530.70
295.19	3721.16
295.40	2947.03
295.62	3000.27
295.83	3409.87
296.05	3131.34
296.26	3182.54
296.48	2959.31
296.69	3317.71
296.90	3260.37
297.12	3157.97
297.33	3127.25
297.55	3260.37
297.76	3368.91
297.98	3090.38
298.19	3250.13
298.41	3274.70
298.62	3117.01
298.83	3215.31
299.05	3094.48
299.26	3209.17
299.48	3094.48
299.69	3000.27
299.90	3090.38
300.12	3129.30
300.33	3436.49
300.55	3016.66
300.76	2983.89
300.98	2998.23
301.19	3381.20
301.40	3018.71
301.62	3026.90
301.83	3338.19
302.05	3323.85
302.26	2897.88
302.47	3098.58
302.69	3055.57
302.90	3254.22
303.12	2912.21
303.33	3041.23
303.54	3729.35
303.76	3160.02
303.97	2959.31
304.19	3178.45
304.40	3110.86
304.61	3364.81
304.83	3086.29
305.04	3061.71
305.26	3450.83
305.47	3127.25
305.68	3028.95
305.90	2912.21
306.11	3532.75
306.33	3330.00
306.54	2873.30
306.75	3004.37
306.97	3012.56
307.18	3033.04
307.39	3047.38
307.61	3108.82
307.82	3313.61
308.04	3422.16
308.25	2869.20
308.46	3149.78
308.68	3266.51
308.89	3258.32
309.10	3045.33
309.32	2947.03
309.53	3284.94
309.74	3352.52
309.96	2942.93
310.17	3098.58
310.39	3196.88
310.60	3426.25
310.81	3071.95
311.03	2973.65
311.24	3418.06
311.45	3246.03
311.67	3229.65
311.88	3121.10
312.09	3221.45
312.31	3139.54
312.52	2883.54
312.73	2910.16
312.95	3030.99
313.16	3084.24
313.37	3241.93
313.59	3112.91
313.80	3483.59
314.01	3559.37
314.23	2981.84
314.44	2910.16
314.65	3018.71
314.87	3129.30
315.08	2904.02
315.29	2990.03
315.51	3078.10
315.72	2963.41
315.93	3045.33
316.15	3028.95
316.36	3223.50
316.57	3311.57
316.79	3022.80
317.00	2930.64
317.21	3340.24
317.43	3129.30
317.64	3096.53
317.85	2887.64
318.07	3213.26
318.28	3119.06
318.49	3090.38
318.70	3243.98
318.92	3344.33
319.13	3311.57
319.34	3205.07
319.56	3045.33
319.77	3418.06
319.98	3471.31
320.20	3250.13
320.41	3125.20
320.62	3426.25
320.83	3074.00
321.05	3205.07
321.26	3129.30
321.47	3305.42
321.69	3512.27
321.90	2914.26
322.11	2936.79
322.32	3418.06
322.54	3524.55
322.75	2953.17
322.96	4018.11
323.18	2961.36
323.39	2920.40
323.60	2912.21
323.81	3190.74
324.03	3205.07
324.24	3190.74
324.45	3168.21
324.66	2973.65
324.88	3491.79
325.09	3643.34
325.30	2947.03
325.52	2850.77
325.73	3432.40
325.94	3114.96
326.15	2832.34
326.37	2881.49
326.58	3389.39
326.79	3661.77
327.00	2901.97
327.22	2996.18
327.43	3200.98
327.64	3016.66
327.85	3108.82
328.07	3006.42
328.28	3667.91
328.49	3207.12
328.70	2987.99
328.92	2977.75
329.13	3278.80
329.34	3352.52
329.55	3203.02
329.76	3090.38
329.98	3282.89
330.19	3540.94
330.40	3080.14
330.61	3117.01
330.83	3420.11
331.04	3051.47
331.25	3082.19
331.46	3049.43
331.68	3086.29
331.89	3524.55
332.10	3041.23
332.31	2828.24
332.52	3254.22
332.74	3567.56
332.95	2828.24
333.16	2983.89
333.37	3454.92
333.58	3125.20
333.80	3012.56
334.01	2846.68
334.22	3325.90
334.43	3155.92
334.64	2910.16
334.86	2975.70
335.07	3082.19
335.28	3565.51
335.49	2912.21
335.70	3033.04
335.92	3631.05
336.13	3723.21
336.34	3063.76
336.55	3002.32
336.76	3403.72
336.98	2938.84
337.19	3028.95
337.40	3090.38
337.61	3934.15
337.82	3250.13
338.04	3030.99
338.25	2861.01
338.46	3286.99
338.67	3280.85
338.88	2979.79
339.09	2942.93
339.31	3276.75
339.52	2967.51
339.73	2951.12
339.94	3053.52
340.15	3448.78
340.36	3110.86
340.58	3000.27
340.79	2904.02
341.00	3411.92
341.21	3059.67
341.42	3237.84
341.63	3033.04
341.85	3475.40
342.06	3356.62
342.27	3002.32
342.48	3221.45
342.69	2983.89
342.90	3403.72
343.12	3432.40
343.33	2957.27
343.54	3493.83
343.75	3614.66
343.96	3121.10
344.17	2881.49
344.38	3225.55
344.60	3059.67
344.81	2944.98
345.02	3004.37
345.23	3508.17
345.44	3766.21
345.65	3053.52
345.86	3094.48
346.07	3297.23
346.29	3129.30
346.50	3028.95
346.71	3082.19
346.92	3571.66
347.13	3733.45
347.34	3028.95
347.55	2846.68
347.76	3305.42
347.98	2951.12
348.19	3123.15
348.40	3139.54
348.61	3182.54
348.82	3567.56
349.03	3092.43
349.24	2885.59
349.45	3663.82
349.66	2928.60
349.88	2992.08
350.09	2944.98
350.30	3567.56
350.51	3549.13
350.72	3127.25
350.93	2990.03
351.14	3231.69
351.35	3293.13
351.56	3030.99
351.77	2992.08
351.99	3426.25
352.20	3600.33
352.41	3078.10
352.62	2879.44
352.83	3278.80
353.04	3229.65
353.25	2930.64
353.46	3041.23
353.67	3413.96
353.88	2912.21
354.09	2942.93
354.30	3033.04
354.52	3426.25
354.73	3188.69
354.94	2967.51
355.15	3127.25
355.36	3643.34
355.57	3198.93
355.78	2873.30
355.99	3020.75
356.20	3194.83
356.41	3524.55
356.62	3221.45
356.83	3082.19
357.04	3528.65
357.25	2832.34
357.46	2979.79
357.68	2869.20
357.89	3110.86
358.10	3286.99
358.31	2957.27
358.52	3041.23
358.73	3035.09
358.94	3037.14
359.15	2975.70
359.36	3037.14
359.57	3274.70
359.78	3207.12
359.99	3239.89
360.20	2908.12
360.41	3174.35
360.62	3450.83
360.83	3037.14
361.04	2992.08
361.25	3389.39
361.46	3583.95
361.67	3151.82
361.88	2975.70
362.09	3465.16
362.30	3332.05
362.51	2899.92
362.72	3114.96
362.93	3438.54
363.14	3391.44
363.35	3106.77
363.56	2879.44
363.78	3549.13
363.99	3547.08
364.20	2959.31
364.41	3049.43
364.62	3676.10
364.83	3254.22
365.04	2981.84
365.25	3018.71
365.46	3715.02
365.67	3155.92
365.88	3180.50
366.09	2985.94
366.30	3155.92
366.51	3332.05
366.72	2930.64
366.93	2944.98
367.14	3282.89
367.35	3598.28
367.56	3008.47
367.77	3108.82
367.98	3237.84
368.18	3389.39
368.39	3153.87
368.60	2983.89
368.81	3424.20
369.02	3358.67
369.23	2959.31
369.44	2820.05
369.65	3196.88
369.86	3356.62
370.07	3139.54
370.28	2887.64
370.49	3344.33
370.70	3381.20
370.91	2936.79
371.12	2918.36
371.33	3542.99
371.54	3112.91
371.75	3145.68
371.96	2717.65
372.17	3213.26
372.38	3264.46
372.59	3010.51
372.80	2953.17
373.01	3231.69
373.22	3373.00
373.43	2947.03
373.64	2871.25
373.85	3475.40
374.06	3608.52
374.26	3184.59
374.47	3147.73
374.68	3581.90
374.89	3354.57
375.10	2961.36
375.31	3123.15
375.52	3291.09
375.73	3291.09
375.94	2809.81
376.15	3100.62
376.36	3090.38
376.57	3112.91
376.78	3047.38
376.99	3094.48
377.20	3577.80
377.40	3209.17
377.61	3344.33
377.82	2928.60
378.03	3622.86
378.24	3334.09
378.45	3121.10
378.66	3112.91
378.87	2865.11
379.08	2924.50
379.29	3102.67
379.50	3160.02
379.71	3198.93
379.91	3438.54
380.12	2992.08
380.33	3219.41
380.54	3219.41
380.75	3203.02
380.96	3016.66
381.17	3065.81
381.38	3278.80
381.59	3278.80
381.80	3057.62
382.00	3164.11
382.21	3354.57
382.42	3585.99
382.63	3426.25
382.84	3213.26
383.05	3416.01
383.26	3565.51
383.47	3119.06
383.68	2947.03
383.88	3368.91
384.09	3317.71
384.30	3286.99
384.51	3100.62
384.72	3225.55
384.93	3069.91
385.14	3049.43
385.35	3327.95
385.55	3047.38
385.76	3418.06
385.97	3043.28
386.18	2914.26
386.39	3164.11
386.60	3170.26
386.81	2985.94
387.02	2863.06
387.22	3061.71
387.43	3422.16
387.64	3129.30
387.85	3205.07
388.06	3336.14
388.27	4247.49
388.48	7712.65
388.68	12085.06
388.89	15097.63
389.10	16367.37
389.31	15961.87
389.52	12808.00
389.73	11085.65
389.93	10278.76
390.14	9142.13
390.35	8320.90
390.56	7788.43
390.77	6524.83
390.98	5042.10
391.18	4114.37
391.39	3858.37
391.60	3385.29
391.81	3370.96
392.02	3033.04
392.23	3723.21
392.43	3319.76
392.64	3151.82
392.85	3117.01
393.06	3600.33
393.27	3258.32
393.47	2942.93
393.68	3151.82
393.89	3258.32
394.10	3540.94
394.31	2969.55
394.52	3041.23
394.72	3162.06
394.93	3600.33
395.14	2889.68
395.35	3127.25
395.56	3139.54
395.76	3272.65
395.97	3065.81
396.18	3215.31
396.39	3344.33
396.60	3909.57
396.80	3430.35
397.01	3311.57
397.22	3422.16
397.43	3545.03
397.64	3059.67
397.84	3133.39
398.05	3723.21
398.26	3246.03
398.47	3180.50
398.67	3260.37
398.88	3256.27
399.09	3475.40
399.30	2985.94
399.51	3088.34
399.71	3178.45
399.92	3227.60
400.13	3086.29
400.34	3067.86
400.54	3348.43
400.75	3481.55
400.96	3266.51
401.17	3350.48
401.37	3381.20
401.58	3215.31
401.79	3033.04
402.00	3106.77
402.21	3829.70
402.41	3555.27
402.62	3368.91
402.83	3547.08
403.04	3704.78
403.24	4057.03
403.45	3231.69
403.66	3282.89
403.87	3475.40
404.07	3594.19
404.28	3207.12
404.49	3428.30
404.70	3373.00
404.90	3409.87
405.11	3037.14
405.32	3129.30
405.52	3139.54
405.73	3241.93
405.94	2928.60
406.15	3117.01
406.35	3381.20
406.56	3465.16
406.77	3049.43
406.98	3055.57
407.18	3137.49
407.39	3551.18
407.60	3041.23
407.80	3131.34
408.01	3174.35
408.22	3362.76
408.43	2985.94
408.63	3164.11
408.84	3416.01
409.05	3516.36
409.25	2885.59
409.46	3061.71
409.67	3282.89
409.88	3188.69
410.08	3057.62
410.29	3057.62
410.50	3459.02
410.70	3454.92
410.91	2959.31
411.12	3035.09
411.32	3223.50
411.53	3172.30
411.74	3033.04
411.95	3059.67
412.15	3330.00
412.36	3491.79
412.57	3315.66
412.77	3207.12
412.98	3207.12
413.19	3270.61
413.39	3143.63
413.60	3133.39
413.81	3487.69
414.01	3090.38
414.22	3067.86
414.43	3205.07
414.63	3184.59
414.84	3364.81
415.05	3141.58
415.25	2906.07
415.46	3358.67
415.67	3200.98
415.87	3071.95
416.08	3053.52
416.29	3190.74
416.49	3407.82
416.70	3051.47
416.91	2983.89
417.11	3188.69
417.32	3463.12
417.53	3114.96
417.73	3133.39
417.94	3252.17
418.15	3327.95
418.35	3051.47
418.56	3076.05
418.77	3672.01
418.97	3293.13
419.18	3157.97
419.38	2740.18
419.59	3237.84
419.80	3526.60
420.00	2967.51
420.21	3039.19
420.42	3573.71
420.62	3315.66
420.83	3049.43
421.04	3008.47
421.24	3274.70
421.45	3379.15
421.65	3080.14
421.86	3080.14
422.07	3442.64
422.27	3346.38
422.48	2969.55
422.69	2858.96
422.89	3319.76
423.10	3203.02
423.30	3000.27
423.51	3043.28
423.72	3315.66
423.92	3391.44
424.13	2959.31
424.33	3182.54
424.54	3530.70
424.75	3272.65
424.95	3268.56
425.16	2947.03
425.36	3188.69
425.57	3499.98
425.78	3256.27
425.98	3157.97
426.19	3213.26
426.39	3139.54
426.60	3108.82
426.81	3176.40
427.01	3323.85
427.22	3065.81
427.42	2893.78
427.63	3049.43
427.83	3485.64
428.04	3659.72
428.25	3155.92
428.45	3186.64
428.66	3561.42
428.86	3237.84
429.07	3074.00
429.28	3096.53
429.48	3293.13
429.69	3059.67
429.89	3102.67
430.10	3084.24
430.30	3401.68
430.51	3469.26
430.71	2940.88
430.92	3082.19
431.13	3231.69
431.33	3368.91
431.54	3127.25
431.74	3219.41
431.95	3776.45
432.15	3076.05
432.36	3090.38
432.56	3047.38
432.77	3753.93
432.98	3633.10
433.18	3076.05
433.39	2930.64
433.59	3200.98
433.80	3663.82
434.00	3213.26
434.21	3125.20
434.41	3166.16
434.62	3737.54
434.82	3000.27
435.03	3000.27
435.23	3348.43
435.44	2969.55
435.64	2949.08
435.85	3059.67
436.06	3395.53
436.26	3522.51
436.47	3117.01
436.67	3037.14
436.88	3205.07
437.08	3526.60
437.29	3135.44
437.49	3196.88
437.70	3467.21
437.90	3196.88
438.11	3299.28
438.31	3098.58
438.52	3571.66
438.72	3493.83
438.93	3344.33
439.13	3231.69
439.34	3379.15
439.54	3135.44
439.75	3241.93
439.95	3200.98
440.16	3149.78
440.36	3286.99
440.57	3094.48
440.77	3053.52
440.98	3289.04
441.18	3411.92
441.39	2893.78
441.59	2959.31
441.80	3712.97
442.00	3239.89
442.21	3110.86
442.41	2893.78
442.62	3416.01
442.82	3065.81
443.02	3059.67
443.23	3090.38
443.43	3143.63
443.64	3561.42
443.84	2934.74
444.05	3104.72
444.25	3274.70
444.46	3260.37
444.66	3026.90
444.87	3237.84
445.07	2981.84
445.28	3221.45
445.48	3243.98
445.69	3135.44
445.89	3866.56
446.09	3280.85
446.30	3379.15
446.50	3440.59
446.71	5070.77
446.91	6250.40
447.12	7102.36
447.32	7561.10
447.53	7585.68
447.73	6391.71
447.93	5496.75
448.14	5187.50
448.34	5470.12
448.55	4413.37
448.75	4519.87
448.96	4192.19
449.16	4122.56
449.36	3928.00
449.57	3319.76
449.77	3213.26
449.98	3180.50
450.18	3297.23
450.39	2985.94
450.59	3207.12
450.79	3231.69
451.00	3174.35
451.20	3368.91
451.41	3024.85
451.61	3344.33
451.81	3254.22
452.02	3000.27
452.22	3172.30
452.43	3108.82
452.63	3172.30
452.84	3151.82
453.04	2987.99
453.24	3280.85
453.45	3135.44
453.65	3080.14
453.86	3090.38
454.06	3321.81
454.26	3354.57
454.47	3065.81
454.67	3200.98
454.87	3346.38
455.08	3192.78
455.28	3223.50
455.49	3215.31
455.69	3065.81
455.89	3741.64
456.10	3215.31
456.30	3024.85
456.51	3467.21
456.71	3291.09
456.91	3149.78
457.12	3131.34
457.32	3411.92
457.52	3016.66
457.73	3157.97
457.93	3229.65
458.14	3082.19
458.34	2938.84
458.54	3108.82
458.75	2967.51
458.95	3608.52
459.15	3393.48
459.36	3184.59
459.56	3106.77
459.76	3747.78
459.97	3272.65
460.17	3108.82
460.37	3135.44
460.58	3254.22
460.78	3375.05
460.99	3100.62
461.19	3084.24
461.39	3096.53
461.60	3231.69
461.80	2965.46
462.00	2869.20
462.21	3305.42
462.41	3057.62
462.61	2908.12
462.82	2852.82
463.02	3381.20
463.22	3364.81
463.43	3100.62
463.63	3045.33
463.83	3565.51
464.04	3348.43
464.24	3043.28
464.44	3057.62
464.64	3325.90
464.85	3399.63
465.05	3074.00
465.25	3082.19
465.46	3207.12
465.66	3428.30
465.86	3155.92
466.07	3047.38
466.27	3274.70
466.47	3008.47
466.68	2832.34
466.88	3225.55
467.08	3424.20
467.29	3524.55
467.49	3123.15
467.69	3215.31
467.89	3366.86
468.10	3200.98
468.30	3110.86
468.50	3184.59
468.71	3385.29
468.91	2955.22
469.11	3254.22
469.31	3149.78
469.52	3151.82
469.72	3569.61
469.92	3276.75
470.13	3078.10
470.33	3266.51
470.53	3352.52
470.73	3508.17
470.94	3907.52
471.14	4093.89
471.34	4698.04
471.54	4356.03
471.75	4011.97
471.95	3827.65
472.15	3739.59
472.36	3729.35
472.56	3506.12
472.76	3856.33
472.96	3739.59
473.17	3260.37
473.37	3170.26
473.57	3303.37
473.77	3467.21
473.98	3139.54
474.18	2983.89
474.38	3983.30
474.58	3205.07
474.79	3020.75
474.99	3297.23
475.19	3477.45
475.39	3133.39
475.60	3104.72
475.80	2949.08
476.00	3280.85
476.20	3229.65
476.41	3123.15
476.61	3147.73
476.81	3559.37
477.01	3108.82
477.21	3434.44
477.42	3209.17
477.62	3110.86
477.82	3452.88
478.02	2936.79
478.23	3153.87
478.43	3153.87
478.63	3151.82
478.83	3086.29
479.03	3143.63
479.24	3530.70
479.44	3715.02
479.64	2973.65
479.84	2908.12
480.04	3166.16
480.25	3426.25
480.45	3002.32
480.65	3026.90
480.85	3512.27
481.06	3184.59
481.26	3198.93
481.46	3012.56
481.66	3368.91
481.86	3067.86
482.06	3258.32
482.27	3078.10
482.47	3188.69
482.67	3360.72
482.87	3051.47
483.07	3141.58
483.28	3184.59
483.48	3057.62
483.68	3098.58
483.88	3008.47
484.08	2934.74
484.29	3057.62
484.49	3137.49
484.69	2947.03
484.89	3575.75
485.09	3518.41
485.29	3051.47
485.50	3205.07
485.70	3164.11
485.90	3518.41
486.10	3174.35
486.30	3002.32
486.50	3532.75
486.71	3418.06
486.91	3078.10
487.11	3172.30
487.31	3049.43
487.51	3305.42
487.71	3035.09
487.91	2967.51
488.12	3102.67
488.32	2828.24
488.52	3127.25
488.72	2791.38
488.92	3348.43
489.12	3551.18
489.32	3227.60
489.53	3082.19
489.73	2981.84
489.93	3651.53
490.13	3012.56
490.33	2850.77
490.53	3254.22
490.73	3456.97
490.94	2938.84
491.14	3174.35
491.34	3434.44
491.54	3362.76
491.74	4024.26
491.94	4435.90
492.14	5136.31
492.34	5224.37
492.54	4712.38
492.75	4081.60
492.95	4304.83
493.15	4108.23
493.35	3764.17
493.55	3735.50
493.75	3700.68
493.95	3821.51
494.15	3379.15
494.35	3203.02
494.56	3286.99
494.76	3233.74
494.96	3227.60
495.16	3016.66
495.36	3266.51
495.56	3321.81
495.76	3088.34
495.96	3035.09
496.16	3086.29
496.36	3618.76
496.56	3061.71
496.77	3078.10
496.97	3264.46
497.17	3624.90
497.37	2879.44
497.57	3207.12
497.77	3307.47
497.97	3114.96
498.17	3092.43
498.37	3076.05
498.57	3356.62
498.77	3190.74
498.97	3256.27
499.17	3409.87
499.38	3284.94
499.58	3461.07
499.78	3254.22
499.98	3180.50
500.18	3188.69
500.38	3110.86
500.58	3239.89
500.78	3758.02
500.98	6043.56
501.18	8206.21
501.38	9817.96
501.58	10878.81
501.78	10688.35
501.98	8949.62
502.18	7559.05
502.38	6594.46
502.58	6363.04
502.78	5582.76
502.98	5414.83
503.18	5162.93
503.38	4855.73
503.59	4212.67
503.79	4108.23
503.99	3784.65
504.19	3903.43
504.39	3928.00
504.59	3704.78
504.79	3594.19
504.99	4114.37
505.19	3502.03
505.39	3370.96
505.59	3530.70
505.79	3639.24
505.99	3483.59
506.19	3108.82
506.39	3389.39
506.59	3168.21
506.79	3250.13
506.99	3330.00
507.19	3008.47
507.39	3366.86
507.59	3059.67
507.79	3102.67
507.99	2967.51
508.19	3358.67
508.39	3233.74
508.59	3049.43
508.79	3207.12
508.99	3676.10
509.19	3162.06
509.39	3168.21
509.59	2961.36
509.79	3223.50
509.99	3362.76
510.19	3180.50
510.39	3198.93
510.59	3344.33
510.79	3188.69
510.99	2873.30
511.19	3076.05
511.39	3577.80
511.59	3473.36
511.79	3194.83
511.99	3049.43
512.19	3620.81
512.38	3309.52
512.58	3030.99
512.78	3004.37
512.98	3526.60
513.18	3631.05
513.38	3080.14
513.58	3164.11
513.78	3166.16
513.98	3162.06
514.18	3092.43
514.38	3160.02
514.58	3407.82
514.78	3067.86
514.98	2955.22
515.18	3119.06
515.38	3033.04
515.58	3622.86
515.78	3121.10
515.98	3074.00
516.18	3385.29
516.38	3209.17
516.57	2944.98
516.77	2951.12
516.97	3368.91
517.17	3194.83
517.37	2803.67
517.57	3145.68
517.77	3291.09
517.97	3076.05
518.17	3123.15
518.37	2971.60
518.57	3172.30
518.77	3178.45
518.97	3026.90
519.16	3049.43
519.36	3499.98
519.56	3094.48
519.76	2959.31
519.96	3098.58
520.16	3493.83
520.36	3164.11
520.56	3182.54
520.76	3020.75
520.96	3170.26
521.16	3452.88
521.35	3248.08
521.55	3139.54
521.75	3321.81
521.95	3192.78
522.15	3037.14
522.35	2916.31
522.55	3129.30
522.75	3446.73
522.95	2947.03
523.14	2877.40
523.34	3248.08
523.54	3071.95
523.74	3192.78
523.94	3172.30
524.14	2998.23
524.34	3321.81
524.54	3280.85
524.73	3090.38
524.93	3373.00
525.13	3266.51
525.33	2947.03
525.53	3338.19
525.73	3432.40
525.93	3303.37
526.13	3049.43
526.32	2975.70
526.52	3624.90
526.72	3401.68
526.92	3061.71
527.12	2895.83
527.32	3035.09
527.52	3260.37
527.71	3082.19
527.91	3106.77
528.11	3295.18
528.31	3196.88
528.51	2979.79
528.71	3172.30
528.90	3403.72
529.10	3473.36
529.30	3092.43
529.50	2750.42
529.70	3346.38
529.90	3217.36
530.09	3057.62
530.29	2834.39
530.49	3125.20
530.69	3844.04
530.89	3127.25
531.09	3198.93
531.28	3127.25
531.48	3559.37
531.68	3071.95
531.88	3067.86
532.08	3393.48
532.28	3198.93
532.47	3121.10
532.67	3084.24
532.87	3393.48
533.07	3063.76
533.27	3059.67
533.46	3123.15
533.66	3295.18
533.86	3243.98
534.06	3164.11
534.26	3069.91
534.45	3205.07
534.65	3422.16
534.85	3209.17
535.05	2985.94
535.25	3444.68
535.44	2906.07
535.64	3047.38
535.84	3049.43
536.04	3155.92
536.24	3207.12
536.43	3035.09
536.63	3035.09
536.83	3217.36
537.03	3278.80
537.22	2856.92
537.42	2877.40
537.62	3366.86
537.82	3172.30
538.02	3180.50
538.21	3141.58
538.41	3774.41
538.61	3399.63
538.81	3112.91
539.00	3182.54
539.20	2963.41
539.40	3227.60
539.60	3033.04
539.79	3282.89
539.99	3254.22
540.19	2975.70
540.39	2998.23
540.58	3059.67
540.78	3538.89
540.98	3235.79
541.18	3270.61
541.37	3076.05
541.57	3286.99
541.77	3278.80
541.97	3024.85
542.16	2922.45
542.36	3196.88
542.56	3147.73
542.76	3268.56
542.95	3137.49
543.15	3334.09
543.35	3436.49
543.54	3067.86
543.74	3084.24
543.94	3626.95
544.14	3176.40
544.33	3178.45
544.53	3139.54
544.73	3235.79
544.93	3184.59
545.12	3037.14
545.32	3010.51
545.52	3237.84
545.71	3088.34
545.91	3119.06
546.11	2992.08
546.30	3106.77
546.50	3291.09
546.70	3129.30
546.90	3063.76
547.09	2977.75
547.29	3286.99
547.49	3143.63
547.68	2975.70
547.88	3139.54
548.08	3461.07
548.27	3368.91
548.47	3012.56
548.67	3231.69
548.87	3426.25
549.06	3000.27
549.26	2992.08
549.46	3330.00
549.65	3223.50
549.85	3082.19
550.05	3102.67
550.24	3069.91
550.44	3262.41
550.64	3071.95
550.83	3100.62
551.03	3588.04
551.23	3551.18
551.42	3162.06
551.62	3106.77
551.82	3155.92
552.01	3229.65
552.21	3379.15
552.41	3117.01
552.60	3581.90
552.80	3317.71
553.00	3065.81
553.19	3043.28
553.39	3659.72
553.59	2975.70
553.78	3235.79
553.98	3039.19
554.17	3080.14
554.37	3387.34
554.57	3123.15
554.76	2920.40
554.96	3106.77
555.16	3303.37
555.35	3203.02
555.55	3164.11
555.75	3303.37
555.94	3416.01
556.14	2801.62
556.33	3100.62
556.53	3149.78
556.73	3291.09
556.92	3057.62
557.12	3063.76
557.32	3768.26
557.51	3561.42
557.71	3121.10
557.90	3274.70
558.10	3563.47
558.30	3133.39
558.49	3088.34
558.69	3074.00
558.88	3401.68
559.08	3192.78
559.28	3043.28
559.47	3143.63
559.67	3379.15
559.86	3635.14
560.06	3088.34
560.26	3117.01
560.45	3373.00
560.65	3205.07
560.84	3332.05
561.04	2981.84
561.24	3368.91
561.43	2975.70
561.63	3360.72
561.82	3092.43
562.02	3426.25
562.22	3035.09
562.41	2975.70
562.61	3008.47
562.80	3041.23
563.00	3772.36
563.19	3145.68
563.39	3225.55
563.59	3405.77
563.78	3100.62
563.98	2865.11
564.17	3043.28
564.37	2957.27
564.56	3274.70
564.76	2955.22
564.96	3254.22
565.15	3323.85
565.35	3715.02
565.54	3108.82
565.74	3092.43
565.93	3446.73
566.13	3233.74
566.32	3157.97
566.52	3176.40
566.71	3258.32
566.91	3418.06
567.11	3211.22
567.30	3004.37
567.50	3360.72
567.69	3327.95
567.89	2990.03
568.08	2942.93
568.28	3358.67
568.47	3024.85
568.67	3063.76
568.86	3043.28
569.06	3407.82
569.25	3280.85
569.45	3010.51
569.64	3102.67
569.84	3114.96
570.04	3266.51
570.23	3078.10
570.43	3102.67
570.62	3248.08
570.82	3653.58
571.01	3014.61
571.21	3037.14
571.40	3157.97
571.60	3420.11
571.79	3209.17
571.99	2983.89
572.18	3033.04
572.38	3323.85
572.57	3174.35
572.77	3174.35
572.96	3841.99
573.16	3387.34
573.35	3074.00
573.55	3246.03
573.74	3440.59
573.94	3168.21
574.13	3057.62
574.33	3192.78
574.52	3479.50
574.71	3231.69
574.91	3057.62
575.10	2938.84
575.30	3155.92
575.49	3098.58
575.69	2924.50
575.88	3092.43
576.08	3209.17
576.27	3448.78
576.47	2983.89
576.66	3215.31
576.86	3522.51
577.05	3362.76
577.25	3182.54
577.44	3332.05
577.64	3186.64
577.83	3481.55
578.02	3037.14
578.22	3184.59
578.41	3622.86
578.61	3180.50
578.80	2922.45
579.00	3065.81
579.19	3274.70
579.39	3336.14
579.58	3137.49
579.77	3141.58
579.97	3565.51
580.16	3590.09
580.36	3225.55
580.55	3174.35
580.75	3399.63
580.94	3188.69
581.13	3325.90
581.33	3307.47
581.52	3284.94
581.72	3702.73
581.91	3147.73
582.11	3053.52
582.30	3452.88
582.49	3258.32
582.69	3307.47
582.88	3127.25
583.08	3309.52
583.27	3508.17
583.47	3223.50
583.66	3082.19
583.85	3139.54
584.05	3334.09
584.24	3205.07
584.44	3104.72
584.63	3493.83
584.82	3454.92
585.02	3354.57
585.21	3248.08
585.41	3321.81
585.60	3350.48
585.79	3330.00
585.99	3368.91
586.18	3246.03
586.37	4310.97
586.57	6307.74
586.76	17301.24
586.96	36875.73
587.15	50402.56
587.34	58879.10
587.54	62374.98
587.73	56057.00
587.93	40263.07
588.12	30871.08
588.31	25108.10
588.51	22558.38
588.70	20715.20
588.89	18362.09
589.09	15691.54
589.28	13559.60
589.47	10786.65
589.67	8097.67
589.86	6447.01
590.06	5138.35
590.25	4454.33
590.44	3885.00
590.64	3540.94
590.83	3520.46
591.02	3639.24
591.22	3164.11
591.41	3205.07
591.60	3276.75
591.80	3755.97
591.99	2924.50
592.18	2963.41
592.38	3487.69
592.57	3172.30
592.76	3090.38
592.96	3180.50
593.15	3278.80
593.34	3602.38
593.54	3069.91
593.73	3233.74
593.92	3416.01
594.12	3377.10
594.31	3160.02
594.50	3268.56
594.70	3442.64
594.89	3960.77
595.08	2920.40
595.28	3172.30
595.47	3928.00
595.66	3497.93
595.86	3065.81
596.05	2985.94
596.24	3235.79
596.43	3655.62
596.63	3205.07
596.82	3262.41
597.01	3485.64
597.21	3561.42
597.40	3047.38
597.59	3131.34
597.79	3241.93
597.98	3346.38
598.17	3147.73
598.36	3035.09
598.56	3532.75
598.75	3276.75
598.94	3108.82
599.14	3102.67
599.33	3270.61
599.52	3373.00
599.71	3139.54
599.91	3084.24
600.10	3362.76
600.29	3299.28
600.48	3139.54
600.68	3155.92
600.87	3213.26
601.06	3190.74
601.26	3160.02
601.45	3198.93
601.64	3256.27
601.83	3524.55
602.03	3030.99
602.22	2965.46
602.41	3583.95
602.60	3887.04
602.80	3123.15
602.99	3217.36
603.18	3225.55
603.37	3250.13
603.57	3055.57
603.76	3090.38
603.95	3493.83
604.14	3207.12
604.34	2998.23
604.53	3041.23
604.72	3305.42
604.91	3385.29
605.10	3047.38
605.30	2975.70
605.49	3672.01
605.68	3407.82
605.87	3004.37
606.07	3018.71
606.26	3282.89
606.45	3504.07
606.64	3139.54
606.84	3028.95
607.03	3213.26
607.22	3403.72
607.41	3207.12
607.60	3069.91
607.80	3524.55
607.99	3164.11
608.18	3045.33
608.37	3139.54
608.56	3090.38
608.76	3467.21
608.95	3221.45
609.14	3037.14
609.33	3557.32
609.52	3465.16
609.72	3221.45
609.91	3211.22
610.10	3379.15
610.29	3545.03
610.48	3119.06
610.68	3207.12
610.87	3334.09
611.06	3502.03
611.25	3123.15
611.44	3243.98
611.63	3190.74
611.83	3442.64
612.02	3035.09
612.21	3198.93
612.40	2834.39
612.59	3090.38
612.79	2949.08
612.98	3117.01
613.17	3569.61
613.36	3246.03
613.55	3196.88
613.74	3106.77
613.93	3340.24
614.13	3432.40
614.32	3323.85
614.51	3162.06
614.70	3319.76
614.89	3211.22
615.08	3196.88
615.28	3487.69
615.47	3076.05
615.66	3330.00
615.85	3090.38
616.04	3092.43
616.23	3291.09
616.42	3368.91
616.62	3135.44
616.81	3098.58
617.00	3258.32
617.19	3467.21
617.38	3184.59
617.57	3207.12
617.76	3426.25
617.95	3373.00
618.15	3221.45
618.34	3348.43
618.53	3018.71
618.72	3499.98
618.91	3125.20
619.10	3205.07
619.29	3303.37
619.48	3346.38
619.68	3004.37
619.87	2975.70
620.06	3002.32
620.25	3356.62
620.44	3065.81
620.63	3016.66
620.82	3241.93
621.01	3299.28
621.20	3061.71
621.39	3168.21
621.59	3338.19
621.78	3223.50
621.97	3014.61
622.16	3237.84
622.35	3362.76
622.54	3465.16
622.73	3198.93
622.92	2934.74
623.11	3463.12
623.30	3178.45
623.49	3192.78
623.68	2963.41
623.88	3567.56
624.07	3155.92
624.26	3004.37
624.45	3049.43
624.64	3352.52
624.83	3405.77
625.02	3094.48
625.21	3018.71
625.40	3315.66
625.59	3579.85
625.78	3155.92
625.97	3143.63
626.16	3532.75
626.35	3450.83
626.54	3057.62
626.74	3348.43
626.93	3213.26
627.12	3198.93
627.31	3141.58
627.50	3049.43
627.69	3442.64
627.88	3155.92
628.07	2979.79
628.26	2813.91
628.45	3231.69
628.64	3002.32
628.83	3057.62
629.02	2918.36
629.21	3438.54
629.40	3368.91
629.59	3051.47
629.78	2992.08
629.97	3280.85
630.16	3323.85
630.35	3071.95
630.54	3104.72
630.73	3209.17
630.92	3215.31
631.11	3004.37
631.30	3157.97
631.49	3411.92
631.68	3264.46
631.87	3112.91
632.06	2967.51
632.25	3747.78
632.44	3258.32
632.63	3106.77
632.82	3145.68
633.01	3168.21
633.20	3323.85
633.39	3194.83
633.58	2871.25
633.77	3334.09
633.96	3383.24
634.15	3172.30
634.34	3227.60
634.53	3262.41
634.72	3074.00
634.91	2869.20
635.10	3086.29
635.29	3483.59
635.48	3336.14
635.67	2961.36
635.86	2918.36
636.05	3622.86
636.24	3229.65
636.43	3125.20
636.62	3137.49
636.81	2830.29
637.00	3291.09
637.19	3090.38
637.38	3065.81
637.57	3153.87
637.76	3266.51
637.95	3266.51
638.14	3270.61
638.33	3330.00
638.52	3297.23
638.71	2965.46
638.89	3004.37
639.08	3837.89
639.27	3522.51
639.46	3293.13
639.65	3698.63
639.84	3833.80
640.03	3985.35
640.22	3614.66
640.41	3559.37
640.60	3434.44
640.79	3475.40
640.98	3282.89
641.17	3346.38
641.36	3485.64
641.55	3561.42
641.74	2922.45
641.92	3016.66
642.11	3057.62
642.30	3237.84
642.49	2992.08
642.68	2957.27
642.87	3375.05
643.06	3364.81
643.25	2975.70
643.44	2947.03
643.63	3254.22
643.82	3411.92
644.00	3010.51
644.19	3176.40
644.38	3123.15
644.57	3461.07
644.76	3110.86
644.95	3170.26
645.14	3280.85
645.33	3317.71
645.52	3139.54
645.71	2969.55
645.89	3057.62
646.08	3237.84
646.27	3096.53
646.46	3174.35
646.65	3057.62
646.84	3334.09
647.03	2977.75
647.22	3196.88
647.40	3434.44
647.59	3246.03
647.78	2861.01
647.97	3067.86
648.16	3022.80
648.35	3555.27
648.54	3284.94
648.73	3069.91
648.91	3459.02
649.10	3327.95
649.29	3022.80
649.48	2979.79
649.67	3416.01
649.86	3264.46
650.05	3180.50
650.23	3286.99
650.42	3237.84
650.61	3528.65
650.80	3268.56
650.99	3327.95
651.18	3512.27
651.36	3626.95
651.55	3065.81
651.74	3293.13
651.93	3241.93
652.12	3209.17
652.31	3172.30
652.49	3145.68
652.68	3174.35
652.87	3581.90
653.06	3121.10
653.25	3340.24
653.44	3250.13
653.62	3569.61
653.81	3121.10
654.00	3086.29
654.19	3516.36
654.38	3858.37
654.56	3147.73
654.75	3018.71
654.94	3499.98
655.13	3272.65
655.32	3090.38
655.51	3176.40
655.69	3178.45
655.88	3413.96
656.07	2920.40
656.26	3117.01
656.45	3041.23
656.63	3264.46
656.82	3041.23
657.01	3375.05
657.20	3141.58
657.38	3596.23
657.57	3059.67
657.76	2955.22
657.95	3403.72
658.14	3155.92
658.32	3125.20
658.51	3012.56
658.70	3340.24
658.89	3356.62
659.08	3147.73
659.26	3305.42
659.45	3090.38
659.64	3450.83
659.83	3033.04
660.01	3461.07
660.20	3284.94
660.39	3596.23
660.58	2824.15
660.76	3139.54
660.95	3020.75
661.14	3260.37
661.33	2944.98
661.51	3141.58
661.70	3172.30
661.89	3346.38
662.08	3119.06
662.26	2889.68
662.45	3071.95
662.64	3655.62
662.83	3172.30
663.01	3018.71
663.20	3194.83
663.39	3608.52
663.58	3028.95
663.76	3078.10
663.95	3432.40
664.14	3065.81
664.32	3102.67
664.51	2926.55
664.70	2901.97
664.89	3323.85
665.07	2877.40
665.26	3192.78
665.45	2965.46
665.64	3305.42
665.82	2994.13
666.01	3243.98
666.20	3035.09
666.38	3377.10
666.57	3418.06
666.76	5492.65
666.95	12982.07
667.13	20238.03
667.32	24749.70
667.51	27604.57
667.69	28841.54
667.88	23844.50
668.07	17301.24
668.25	14647.07
668.44	12783.42
668.63	11145.05
668.81	9607.02
669.00	8406.91
669.19	7579.53
669.38	6703.00
669.56	5613.48
669.75	4947.89
669.94	4374.46
670.12	3788.74
670.31	3512.27
670.50	3409.87
670.68	3475.40
670.87	3375.05
671.06	3012.56
671.24	3176.40
671.43	3588.04
671.62	3389.39
671.80	3100.62
671.99	3184.59
672.18	3289.04
672.36	3354.57
672.55	3248.08
672.74	3205.07
672.92	3219.41
673.11	3311.57
673.29	2947.03
673.48	3327.95
673.67	3209.17
673.85	3452.88
674.04	3028.95
674.23	3086.29
674.41	3715.02
674.60	3049.43
674.79	2963.41
674.97	2918.36
675.16	3483.59
675.34	3542.99
675.53	3078.10
675.72	3108.82
675.90	3688.39
676.09	3198.93
676.28	3190.74
676.46	2861.01
676.65	3469.26
676.83	3131.34
677.02	3078.10
677.21	3190.74
677.39	3274.70
677.58	3200.98
677.77	3057.62
677.95	3076.05
678.14	3188.69
678.32	3198.93
678.51	3184.59
678.70	3426.25
678.88	3248.08
679.07	3293.13
679.25	3069.91
679.44	3080.14
679.63	3012.56
679.81	3338.19
680.00	3350.48
680.18	3205.07
680.37	3614.66
680.55	3256.27
680.74	2865.11
680.93	2869.20
681.11	3274.70
681.30	3291.09
681.48	3108.82
681.67	3137.49
681.85	3327.95
682.04	3051.47
682.23	3231.69
682.41	3270.61
682.60	3225.55
682.78	3246.03
682.97	2977.75
683.15	3114.96
683.34	3350.48
683.53	3520.46
683.71	2944.98
683.90	3135.44
684.08	3659.72
684.27	3203.02
684.45	3162.06
684.64	3246.03
684.82	3274.70
685.01	3344.33
685.19	3067.86
685.38	3352.52
685.57	3313.61
685.75	3164.11
685.94	3069.91
686.12	3030.99
686.31	3155.92
686.49	3655.62
686.68	2875.35
686.86	3102.67
687.05	3225.55
687.23	3616.71
687.42	3024.85
687.60	2836.44
687.79	3426.25
687.97	3569.61
688.16	3203.02
688.34	3266.51
688.53	2936.79
688.71	3362.76
688.90	3418.06
689.08	3049.43
689.27	2838.48
689.45	3459.02
689.64	3231.69
689.82	3219.41
690.01	3338.19
690.19	3444.68
690.38	3221.45
690.56	3221.45
690.75	3059.67
690.93	3272.65
691.12	3053.52
691.30	3123.15
691.49	3155.92
691.67	3276.75
691.86	3430.35
692.04	3092.43
692.23	3164.11
692.41	3221.45
692.60	3428.30
692.78	3356.62
692.97	3295.18
693.15	3418.06
693.34	3299.28
693.52	3254.22
693.71	3108.82
693.89	3186.64
694.08	2893.78
694.26	3182.54
694.44	3330.00
694.63	3461.07
694.81	2992.08
695.00	3153.87
695.18	3504.07
695.37	3817.41
695.55	3205.07
695.74	3194.83
695.92	3092.43
696.10	3473.36
696.29	2887.64
696.47	3074.00
696.66	3102.67
696.84	2971.60
697.03	3088.34
697.21	3303.37
697.40	4685.75
697.58	3495.88
697.76	3004.37
697.95	3123.15
698.13	3026.90
698.32	3139.54
698.50	3065.81
698.68	3141.58
698.87	3364.81
699.05	3483.59
699.24	3090.38
699.42	3041.23
699.61	3346.38
699.79	3336.14
699.97	3123.15
700.16	2975.70
700.34	3020.75
700.53	3274.70
700.71	3276.75
700.89	3164.11
701.08	3217.36
701.26	3303.37
701.45	3432.40
701.63	3022.80
701.81	3123.15
702.00	3151.82
702.18	3143.63
702.37	3112.91
702.55	3506.12
702.73	3444.68
702.92	3123.15
703.10	3405.77
703.28	3493.83
703.47	3155.92
703.65	3260.37
703.84	3213.26
704.02	3125.20
704.20	3571.66
704.39	3006.42
704.57	3108.82
704.75	3444.68
704.94	3450.83
705.12	3209.17
705.30	3930.05
705.49	8578.94
705.67	16850.69
705.86	23373.47
706.04	26396.27
706.22	29337.15
706.41	28126.80
706.59	21165.76
706.77	16568.07
706.96	14296.87
707.14	13111.10
707.32	11110.23
707.51	9564.01
707.69	7950.21
707.87	6567.84
708.06	5330.86
708.24	4499.39
708.42	4120.51
708.61	4155.33
708.79	3270.61
708.97	3231.69
709.16	3459.02
709.34	3387.34
709.52	3176.40
709.71	3147.73
709.89	3448.78
710.07	3131.34
710.26	3061.71
710.44	3110.86
710.62	3467.21
710.80	3319.76
710.99	3274.70
711.17	3256.27
711.35	3102.67
711.54	3119.06
711.72	3213.26
711.90	3096.53
712.09	3246.03
712.27	3248.08
712.45	3235.79
712.63	3145.68
712.82	3317.71
713.00	3225.55
713.18	3196.88
713.37	3254.22
713.55	3411.92
713.73	3430.35
713.91	3168.21
714.10	3143.63
714.28	3248.08
714.46	3291.09
714.65	3178.45
714.83	3192.78
715.01	3256.27
715.19	3293.13
715.38	3008.47
715.56	3184.59
715.74	3149.78
715.92	3137.49
716.11	3397.58
716.29	2869.20
716.47	3270.61
716.65	3188.69
716.84	2955.22
717.02	3198.93
717.20	2930.64
717.38	3114.96
717.57	3237.84
717.75	3082.19
717.93	3235.79
718.11	3383.24
718.30	3033.04
718.48	3147.73
718.66	3516.36
718.84	3442.64
719.03	3074.00
719.21	2883.54
719.39	3651.53
719.57	3395.53
719.75	3200.98
719.94	3006.42
720.12	3268.56
720.30	3205.07
720.48	3178.45
720.67	3119.06
720.85	3114.96
721.03	3108.82
721.21	2983.89
721.39	3205.07
721.58	3385.29
721.76	3272.65
721.94	3184.59
722.12	3149.78
722.30	3643.34
722.49	3143.63
722.67	3131.34
722.85	3106.77
723.03	2977.75
723.21	3108.82
723.40	3131.34
723.58	3223.50
723.76	3383.24
723.94	3532.75
724.12	3110.86
724.30	3395.53
724.49	3479.50
724.67	3119.06
724.85	3188.69
725.03	2998.23
725.21	3389.39
725.40	3520.46
725.58	3096.53
725.76	3352.52
725.94	3430.35
726.12	3108.82
726.30	3127.25
726.49	3110.86
726.67	3190.74
726.85	3463.12
727.03	3956.68
727.21	5552.04
727.39	7157.65
727.57	7753.61
727.76	8458.11
727.94	8234.88
728.12	7278.48
728.30	5900.20
728.48	5535.66
728.66	5097.39
728.84	4777.91
729.03	4202.43
729.21	3807.17
729.39	3622.86
729.57	3514.31
729.75	3403.72
729.93	3377.10
730.11	3084.24
730.30	3241.93
730.48	3225.55
730.66	3200.98
730.84	3188.69
731.02	3305.42
731.20	3170.26
731.38	3155.92
731.56	3078.10
731.74	2998.23
731.93	3397.58
732.11	3217.36
732.29	3074.00
732.47	3395.53
732.65	3356.62
732.83	3268.56
733.01	3196.88
733.19	3182.54
733.37	3381.20
733.56	3117.01
733.74	2994.13
733.92	3547.08
734.10	3205.07
734.28	3235.79
734.46	2953.17
734.64	3286.99
734.82	3260.37
735.00	3024.85
735.18	3035.09
735.36	3221.45
735.54	3157.97
735.73	3037.14
735.91	3246.03
736.09	3588.04
736.27	3319.76
736.45	3157.97
736.63	2824.15
736.81	3155.92
736.99	3499.98
737.17	3297.23
737.35	2996.18
737.53	3342.28
737.71	3200.98
737.89	3276.75
738.07	3114.96
738.25	3065.81
738.43	3000.27
738.61	3084.24
738.80	2994.13
738.98	3104.72
739.16	3157.97
739.34	3059.67
739.52	3368.91
739.70	3180.50
739.88	3399.63
740.06	3211.22
740.24	2832.34
740.42	3516.36
740.60	2863.06
740.78	2994.13
740.96	2861.01
741.14	3045.33
741.32	3280.85
741.50	2967.51
741.68	3346.38
741.86	3631.05
742.04	3133.39
742.22	2977.75
742.40	3078.10
742.58	3461.07
742.76	3147.73
742.94	3325.90
743.12	2893.78
743.30	3346.38
743.48	3368.91
743.66	2979.79
743.84	3090.38
744.02	3235.79
744.20	3282.89
744.38	2938.84
744.56	3018.71
744.74	3635.14
744.92	3360.72
745.10	3330.00
745.28	3131.34
745.46	3645.38
745.64	3280.85
745.82	3160.02
746.00	3037.14
746.18	3387.34
746.36	3096.53
746.54	3127.25
746.72	3096.53
746.90	3098.58
747.08	3557.32
747.26	3051.47
747.44	3272.65
747.62	3405.77
747.80	3352.52
747.98	3198.93
748.15	3082.19
748.33	3676.10
748.51	3213.26
748.69	3135.44
748.87	2959.31
749.05	3262.41
749.23	3256.27
749.41	3061.71
749.59	3078.10
749.77	3418.06
749.95	3254.22
750.13	3069.91
750.31	3237.84
750.49	3268.56
750.67	3418.06
750.85	3301.33
751.03	3033.04
751.20	3667.91
751.38	3256.27
751.56	3127.25
751.74	3078.10
751.92	3162.06
752.10	3041.23
752.28	3225.55
752.46	3061.71
752.64	3188.69
752.82	3239.89
753.00	3207.12
753.18	2953.17
753.35	3248.08
753.53	3237.84
753.71	3014.61
753.89	3041.23
754.07	3321.81
754.25	3401.68
754.43	3233.74
754.61	2926.55
754.79	3389.39
754.97	3221.45
755.14	3299.28
755.32	3022.80
755.50	3321.81
755.68	3297.23
755.86	3010.51
756.04	2994.13
756.22	3059.67
756.40	3409.87
756.57	3299.28
756.75	3106.77
756.93	3446.73
757.11	3532.75
757.29	2979.79
757.47	2992.08
757.65	3012.56
757.82	2811.86
758.00	2936.79
758.18	3043.28
758.36	3125.20
758.54	3651.53
758.72	2906.07
758.90	3221.45
759.07	3358.67
759.25	3076.05
759.43	3200.98
759.61	2944.98
759.79	4497.34
759.97	3534.79
760.15	3104.72
760.32	3059.67
760.50	3274.70
760.68	3590.09
760.86	2901.97
761.04	3319.76
761.22	3383.24
761.39	3266.51
761.57	3205.07
761.75	3012.56
761.93	3379.15
762.11	3280.85
762.28	3139.54
762.46	3004.37
762.64	3471.31
762.82	3039.19
763.00	3022.80
763.18	3354.57
763.35	3028.95
763.53	3377.10
763.71	3155.92
763.89	3057.62
764.07	3319.76
764.24	3321.81
764.42	3215.31
764.60	3108.82
764.78	3325.90
764.96	3399.63
765.13	3221.45
765.31	2908.12
765.49	3356.62
765.67	3065.81
765.84	3041.23
766.02	2983.89
766.20	2904.02
766.38	3379.15
766.56	3172.30
766.73	3213.26
766.91	3225.55
767.09	3231.69
767.27	3176.40
767.44	3086.29
767.62	3401.68
767.80	3311.57
767.98	2938.84
768.15	3037.14
768.33	3448.78
768.51	3446.73
768.69	3184.59
768.87	3051.47
769.04	3254.22
769.22	3833.80
769.40	3301.33
769.58	3207.12
769.75	3375.05
769.93	3463.12
770.11	3090.38
770.28	2992.08
770.46	3475.40
770.64	3395.53
770.82	3098.58
770.99	2971.60
771.17	3416.01
771.35	3131.34
771.53	3065.81
771.70	3080.14
771.88	3389.39
772.06	3262.41
772.23	2987.99
772.41	3151.82
772.59	3229.65
772.77	3071.95
772.94	3098.58
773.12	3135.44
773.30	3254.22
773.47	3278.80
773.65	2969.55
773.83	3264.46
774.01	3237.84
774.18	2928.60
774.36	3053.52
774.54	2926.55
774.71	3401.68
774.89	2934.74
775.07	2987.99
775.24	3129.30
775.42	3186.64
775.60	3678.15
775.78	3059.67
775.95	3016.66
776.13	2897.88
776.31	3008.47
776.48	3188.69
776.66	3327.95
776.84	3256.27
777.01	3131.34
777.19	3053.52
777.37	3045.33
777.54	3420.11
777.72	3700.68
777.90	3217.36
778.07	2951.12
778.25	3968.96
778.43	3428.30
778.60	3067.86
778.78	3147.73
778.96	3508.17
779.13	3061.71
779.31	3198.93
779.49	3157.97
779.66	3282.89
779.84	3180.50
780.01	3055.57
780.19	3084.24
780.37	3592.14
780.54	3344.33
780.72	2922.45
780.90	3164.11
781.07	3205.07
781.25	3094.48
781.43	3278.80
781.60	3086.29
781.78	3467.21
781.95	3330.00
782.13	2959.31
782.31	3057.62
782.48	2906.07
782.66	3299.28
782.83	3327.95
783.01	3198.93
783.19	3487.69
783.36	3299.28
783.54	2969.55
783.72	3131.34
783.89	3190.74
784.07	3250.13
784.24	3172.30
784.42	3207.12
784.60	3340.24
784.77	3375.05
784.95	2908.12
785.12	3155.92
785.30	3336.14
785.47	3131.34
785.65	2973.65
785.83	3082.19
786.00	3155.92
786.18	3215.31
786.35	3012.56
786.53	3016.66
786.71	3475.40
786.88	3307.47
787.06	3203.02
787.23	3098.58
787.41	2998.23
787.58	3225.55
787.76	3000.27
787.94	3176.40
788.11	3338.19
788.29	3157.97
788.46	3008.47
788.64	2879.44
788.81	3217.36
788.99	3067.86
789.16	3010.51
789.34	3119.06
789.52	3102.67
789.69	3172.30
789.87	2852.82
790.04	3088.34
790.22	3332.05
790.39	3647.43
790.57	2938.84
790.74	3018.71
790.92	3309.52
791.09	2904.02
791.27	3053.52
791.44	3127.25
791.62	3241.93
791.79	3385.29
791.97	3143.63
792.15	3477.45
792.32	3381.20
792.50	3459.02
792.67	3332.05
792.85	3395.53
793.02	3303.37
793.20	3164.11
793.37	2914.26
793.55	3102.67
793.72	3078.10
793.90	3377.10
794.07	3172.30
794.25	3020.75
794.42	3397.58
794.60	3182.54
794.77	3092.43
794.95	3246.03
795.12	3459.02
795.30	3246.03
795.47	2852.82
795.65	3397.58
795.82	3348.43
796.00	3100.62
796.17	3168.21
796.34	2967.51
796.52	3340.24
796.69	3450.83
796.87	3180.50
797.04	3196.88
797.22	3405.77
797.39	3330.00
797.57	3198.93
797.74	3133.39
797.92	3362.76
798.09	3168.21
798.27	3426.25
798.44	3049.43
798.62	3141.58
798.79	3303.37
798.96	3246.03
799.14	3076.05
799.31	3835.85
799.49	3182.54
799.66	3069.91
799.84	3143.63
800.01	2983.89
800.19	3346.38
800.36	2887.64
800.53	3174.35
800.71	3297.23
800.88	3618.76
801.06	3002.32
801.23	3049.43
801.41	3229.65
801.58	3125.20
801.75	3024.85
801.93	3172.30
802.10	3424.20
802.28	3274.70
802.45	3094.48
802.63	3076.05
802.80	3467.21
802.97	3203.02
803.15	3055.57
803.32	3004.37
803.50	3114.96
803.67	3141.58
803.84	2994.13
804.02	3114.96
804.19	3254.22
804.37	2826.20
804.54	2895.83
804.71	3000.27
804.89	3246.03
805.06	3069.91
805.24	2969.55
805.41	2873.30
805.58	3100.62
805.76	3794.89
805.93	3102.67
806.10	3180.50
806.28	3338.19
806.45	3291.09
806.63	3211.22
806.80	3200.98
806.97	3358.67
807.15	3297.23
807.32	3198.93
807.49	3082.19
807.67	3030.99
807.84	3373.00
808.01	2918.36
808.19	3219.41
808.36	3665.86
808.54	3141.58
808.71	3045.33
808.88	3088.34
809.06	3473.36
809.23	3567.56
809.40	3055.57
809.58	3055.57
809.75	3239.89
809.92	3053.52
810.10	3319.76
810.27	3078.10
810.44	3299.28
810.62	3373.00
810.79	3061.71
810.96	3149.78
811.14	3266.51
811.31	3459.02
811.48	3256.27
811.66	3131.34
811.83	3483.59
812.00	3338.19
812.18	3262.41
812.35	3368.91
812.52	3215.31
812.69	3090.38
812.87	3110.86
813.04	3008.47
813.21	3297.23
813.39	3147.73
813.56	3018.71
813.73	3344.33
813.91	3037.14
814.08	3237.84
814.25	3098.58
814.42	2885.59
814.60	3227.60
814.77	3299.28
814.94	3074.00
815.12	3164.11
815.29	3485.64
815.46	3160.02
815.63	3106.77
815.81	3067.86
815.98	3106.77
816.15	3284.94
816.33	3260.37
816.50	3057.62
816.67	3321.81
816.84	3164.11
817.02	3016.66
817.19	3065.81
817.36	3385.29
817.53	3274.70
817.71	3020.75
817.88	3133.39
818.05	3184.59
818.22	3160.02
818.40	3327.95
818.57	3145.68
818.74	3286.99
818.91	3241.93
819.09	3186.64
819.26	3213.26
819.43	3176.40
819.60	3180.50
819.78	3260.37
819.95	3098.58
820.12	3160.02
820.29	3516.36
820.47	3348.43
820.64	3037.14
820.81	3022.80
820.98	3174.35
821.15	3041.23
821.33	3174.35
821.50	2926.55
821.67	3393.48
821.84	3037.14
822.02	3086.29
822.19	3360.72
822.36	3084.24
822.53	3057.62
822.70	2983.89
822.88	3225.55
823.05	3526.60
823.22	3129.30
823.39	3174.35
823.56	3270.61
823.74	3600.33
823.91	2869.20
824.08	2971.60
824.25	3098.58
824.42	3581.90
824.60	3006.42
824.77	3178.45
824.94	3174.35
825.11	3311.57
825.28	2906.07
825.45	3231.69
825.63	3246.03
825.80	3020.75
825.97	3207.12
826.14	3151.82
826.31	2920.40
826.48	3418.06
826.66	3117.01
826.83	3057.62
827.00	3172.30
827.17	3045.33
827.34	3147.73
827.51	2969.55
827.69	3286.99
827.86	2990.03
828.03	3096.53
828.20	3149.78
828.37	3121.10
828.54	3356.62
828.71	3059.67
828.89	3110.86
829.06	3266.51
829.23	3557.32
829.40	3172.30
829.57	3094.48
829.74	3413.96
829.91	3162.06
830.09	3002.32
830.26	3196.88
830.43	3536.84
830.60	3172.30
830.77	3164.11
830.94	3348.43
831.11	3370.96
831.28	3215.31
831.46	3213.26
831.63	3102.67
831.80	3432.40
831.97	3127.25
832.14	3190.74
832.31	3090.38
832.48	3286.99
832.65	3395.53
832.82	3188.69
832.99	3112.91
833.17	3063.76
833.34	3571.66
833.51	3061.71
833.68	2795.48
833.85	3397.58
834.02	3026.90
834.19	3041.23
834.36	3014.61
834.53	3272.65
834.70	3385.29
834.87	3067.86
835.04	2908.12
835.22	3186.64
835.39	3254.22
835.56	2783.19
835.73	2942.93
835.90	3502.03
836.07	3008.47
836.24	3045.33
836.41	2959.31
836.58	3135.44
836.75	3428.30
836.92	2897.88
837.09	2861.01
837.26	3325.90
837.43	3413.96
837.60	2959.31
837.77	2914.26
837.94	3444.68
838.12	3518.41
838.29	2850.77
838.46	2836.44
838.63	3110.86
838.80	3569.61
838.97	2934.74
839.14	2918.36
839.31	3246.03
839.48	3461.07
839.65	2916.31
839.82	3102.67
839.99	3332.05
840.16	3368.91
840.33	2850.77
840.50	2893.78
840.67	3110.86
840.84	2836.44
841.01	2818.00
841.18	2906.07
841.35	3235.79
841.52	3373.00
841.69	3250.13
841.86	3012.56
842.03	3217.36
842.20	3477.45
842.37	2891.73
842.54	3061.71
842.71	3211.22
842.88	2936.79
843.05	2985.94
843.22	2910.16
843.39	3442.64
843.56	3213.26
843.73	2889.68
843.90	2973.65
844.07	3264.46
844.24	3358.67
844.41	2987.99
844.58	2918.36
844.75	3286.99
844.92	3373.00
845.09	2947.03
845.26	2885.59
845.43	3393.48
845.60	3153.87
845.77	2992.08
845.94	3045.33
846.10	3330.00
846.27	2965.46
846.44	2834.39
846.61	2756.57
846.78	3444.68
846.95	3461.07
847.12	2920.40
847.29	2938.84
847.46	3151.82
847.63	3428.30
847.80	2844.63
847.97	2959.31
848.14	3639.24
848.31	3203.02
848.48	2777.05
848.65	2856.92
848.82	3190.74
848.98	3733.45
849.15	3074.00
849.32	3037.14
849.49	3491.79
849.66	3340.24
849.83	2940.88
850.00	2836.44
850.17	3446.73
850.34	3229.65
850.51	2846.68
850.68	2961.36
850.85	3684.30
851.01	3260.37
851.18	2897.88
851.35	2942.93
851.52	3356.62
851.69	3461.07
851.86	2867.16
852.03	2879.44
852.20	3450.83
852.37	3254.22
852.53	2828.24
852.70	2926.55
852.87	3354.57
853.04	3321.81
853.21	2889.68
853.38	3217.36
853.55	3514.31
853.72	3516.36
853.89	2807.77
854.05	2922.45
854.22	3209.17
854.39	3196.88
854.56	2873.30
854.73	3076.05
854.90	3117.01
855.07	3182.54
855.23	2824.15
855.40	2844.63
855.57	3303.37
855.74	2818.00
855.91	3082.19
856.08	2764.76
856.25	2983.89
856.41	3160.02
856.58	2914.26
856.75	2906.07
856.92	3037.14
857.09	3452.88
857.26	2828.24
857.42	2971.60
857.59	3403.72
857.76	3127.25
857.93	2914.26
858.10	2992.08
858.27	3047.38
858.43	3266.51
858.60	2928.60
858.77	2861.01
858.94	3045.33
859.11	3452.88
859.27	3016.66
859.44	2805.72
859.61	3672.01
859.78	3319.76
859.95	2975.70
860.12	2879.44
860.28	3696.58
860.45	3618.76
860.62	2840.53
860.79	3020.75
860.95	3270.61
861.12	3086.29
861.29	2777.05
861.46	2891.73
861.63	3291.09
861.79	3293.13
861.96	2838.48
862.13	2938.84
862.30	3475.40
862.47	3190.74
862.63	2863.06
862.80	2951.12
862.97	3432.40
863.14	3264.46
863.30	2930.64
863.47	2889.68
863.64	3590.09
863.81	3250.13
863.97	2783.19
864.14	2979.79
864.31	3207.12
864.48	3297.23
864.65	2826.20
864.81	2990.03
864.98	3325.90
865.15	3428.30
865.32	2897.88
865.48	3010.51
865.65	3647.43
865.82	3194.83
865.98	2944.98
866.15	3010.51
866.32	3248.08
866.49	3160.02
866.65	3057.62
866.82	2975.70
866.99	3295.18
867.16	3133.39
867.32	2942.93
867.49	2811.86
867.66	3219.41
867.83	3137.49
867.99	2858.96
868.16	2987.99
868.33	3018.71
868.49	3223.50
868.66	2934.74
868.83	3045.33
868.99	3266.51
869.16	3246.03
869.33	3037.14
869.50	3033.04
869.66	3346.38
869.83	3205.07
870.00	2912.21
870.16	3086.29
870.33	3205.07
870.50	3456.97
870.66	3012.56
870.83	2932.69
871.00	3233.74
871.17	3321.81
871.33	2942.93
871.50	2867.16
871.67	3248.08
871.83	3002.32
872.00	3051.47
872.17	2934.74
872.33	3641.29
872.50	3454.92
872.67	2887.64
872.83	2871.25
873.00	3391.44
873.17	3311.57
873.33	2959.31
873.50	2998.23
873.67	3106.77
873.83	3090.38
874.00	2889.68
874.16	3096.53
874.33	3313.61
874.50	3026.90
874.66	2846.68
874.83	3112.91
875.00	3459.02
875.16	3465.16
875.33	3065.81
875.50	2754.52
875.66	3168.21
875.83	3295.18
875.99	2979.79
876.16	2934.74
876.33	2977.75
876.49	3196.88
876.66	2969.55
876.83	2904.02
876.99	3002.32
877.16	3188.69
877.32	2912.21
877.49	2998.23
877.66	3364.81
877.82	3616.71
877.99	2951.12
878.15	3194.83
878.32	3305.42
878.49	3246.03
878.65	2977.75
878.82	3190.74
878.98	3162.06
879.15	3389.39
879.32	3110.86
879.48	3162.06
879.65	3243.98
879.81	3157.97
879.98	2942.93
880.15	3051.47
880.31	3491.79
880.48	3135.44
880.64	3063.76
880.81	3026.90
880.97	3553.23
881.14	3569.61
881.31	2893.78
881.47	3090.38
881.64	3203.02
881.80	3006.42
881.97	3063.76
882.13	2973.65
882.30	2953.17
882.47	3188.69
882.63	2975.70
882.80	2961.36
882.96	3231.69
883.13	3481.55
883.29	2887.64
883.46	2893.78
883.62	3661.77
883.79	3225.55
883.95	3125.20
884.12	2785.24
884.29	3524.55
884.45	3211.22
884.62	2904.02
884.78	2873.30
884.95	3618.76
885.11	3135.44
885.28	3004.37
885.44	3000.27
885.61	3491.79
885.77	3497.93
885.94	2996.18
886.10	2979.79
886.27	3330.00
886.43	3592.14
886.60	3114.96
886.76	3022.80
886.93	3123.15
887.09	3321.81
887.26	2783.19
887.42	2947.03
887.59	3514.31
887.75	3776.45
887.92	3188.69
888.08	3084.24
888.25	3655.62
888.41	3444.68
888.58	3071.95
888.74	2852.82
888.91	3254.22
>>>>>End Processed Spectral Data<<<<<
