SpectraSuite Data File
++++++++++++++++++++++++++++++++++++
Date: Fri May 06 08:14:38 CEST 2016
User: root
Dark Spectrum Present: No
Reference Spectrum Present: No
Number of Sampled Component Spectra: 1
Spectrometers: USB4C02835
Integration Time (usec): 100000 (USB4C02835)
Spectra Averaged: 1 (USB4C02835)
Boxcar Smoothing: 0 (USB4C02835)
Correct for Electrical Dark: No (USB4C02835)
Strobe/Lamp Enabled: No (USB4C02835)
Correct for Detector Non-linearity: No (USB4C02835)
Correct for Stray Light: No (USB4C02835)
Number of Pixels in Processed Spectrum: 3648
>>>>>Begin Processed Spectral Data<<<<<
177.47	2301.92
177.69	2301.92
177.91	2301.92
178.13	2281.44
178.36	2238.43
178.58	2942.93
178.80	3168.21
179.02	2957.27
179.24	2994.13
179.46	2721.75
179.68	2783.19
179.90	3223.50
180.13	3295.18
180.35	2672.60
180.57	2789.33
180.79	3395.53
181.01	3194.83
181.23	2869.20
181.45	3026.90
181.67	3424.20
181.90	3364.81
182.12	2994.13
182.34	2713.56
182.56	3471.31
182.78	3377.10
183.00	2791.38
183.22	2854.87
183.44	2901.97
183.66	3934.15
183.89	2975.70
184.11	2865.11
184.33	3389.39
184.55	3520.46
184.77	2836.44
184.99	2846.68
185.21	3110.86
185.43	3870.66
185.65	2867.16
185.87	2869.20
186.10	3782.60
186.32	3893.19
186.54	3030.99
186.76	3026.90
186.98	3549.13
187.20	3305.42
187.42	2926.55
187.64	2861.01
187.86	3334.09
188.08	3401.68
188.30	2781.14
188.52	2951.12
188.75	3663.82
188.97	3518.41
189.19	2828.24
189.41	2836.44
189.63	3373.00
189.85	3282.89
190.07	2770.90
190.29	2654.17
190.51	3325.90
190.73	3024.85
190.95	3119.06
191.17	2881.49
191.39	2936.79
191.61	3246.03
191.84	2793.43
192.06	3043.28
192.28	2938.84
192.50	3968.96
192.72	3084.24
192.94	2938.84
193.16	3549.13
193.38	3289.04
193.60	2803.67
193.82	2977.75
194.04	3473.36
194.26	3278.80
194.48	2854.87
194.70	2848.72
194.92	3237.84
195.14	3485.64
195.36	2891.73
195.58	2918.36
195.80	3248.08
196.02	3131.34
196.24	2856.92
196.46	2942.93
196.69	3110.86
196.91	3809.22
197.13	2899.92
197.35	2901.97
197.57	3610.57
197.79	3407.82
198.01	2901.97
198.23	2871.25
198.45	3352.52
198.67	3086.29
198.89	2654.17
199.11	2977.75
199.33	3213.26
199.55	2787.29
199.77	2836.44
199.99	3033.04
200.21	3225.55
200.43	3418.06
200.65	2797.53
200.87	2643.93
201.09	3360.72
201.31	3223.50
201.53	2877.40
201.75	2971.60
201.97	3397.58
202.19	3291.09
202.41	2924.50
202.63	2975.70
202.85	3301.33
203.07	3356.62
203.29	3016.66
203.51	2754.52
203.73	3121.10
203.95	3850.18
204.17	2838.48
204.39	2998.23
204.61	3385.29
204.83	3131.34
205.05	2996.18
205.27	2877.40
205.49	3733.45
205.71	3260.37
205.93	2721.75
206.15	2762.71
206.37	3295.18
206.59	3207.12
206.81	2783.19
207.03	2731.99
207.25	3024.85
207.47	3403.72
207.69	2901.97
207.91	3094.48
208.13	3581.90
208.34	3160.02
208.56	2824.15
208.78	2879.44
209.00	3241.93
209.22	3264.46
209.44	2869.20
209.66	2809.81
209.88	3387.34
210.10	3270.61
210.32	2891.73
210.54	2957.27
210.76	3211.22
210.98	3540.94
211.20	2764.76
211.42	2951.12
211.64	3600.33
211.86	3301.33
212.08	2949.08
212.30	2844.63
212.52	3155.92
212.74	3330.00
212.96	2983.89
213.17	3000.27
213.39	3465.16
213.61	3657.67
213.83	2797.53
214.05	2729.94
214.27	3495.88
214.49	2983.89
214.71	2807.77
214.93	2951.12
215.15	3258.32
215.37	3444.68
215.59	2709.46
215.81	2983.89
216.03	3672.01
216.24	3248.08
216.46	2908.12
216.68	2883.54
216.90	3391.44
217.12	3444.68
217.34	2791.38
217.56	3035.09
217.78	3612.62
218.00	3379.15
218.22	2910.16
218.44	2969.55
218.66	3321.81
218.87	3534.79
219.09	2891.73
219.31	2844.63
219.53	3315.66
219.75	3164.11
219.97	2824.15
220.19	2803.67
220.41	3241.93
220.63	3569.61
220.85	2830.29
221.06	2901.97
221.28	3508.17
221.50	3399.63
221.72	2865.11
221.94	2799.57
222.16	3264.46
222.38	3379.15
222.60	2770.90
222.82	2871.25
223.03	3467.21
223.25	3063.76
223.47	2838.48
223.69	3076.05
223.91	3370.96
224.13	3262.41
224.35	2766.81
224.57	3143.63
224.78	3459.02
225.00	3090.38
225.22	2955.22
225.44	2791.38
225.66	3454.92
225.88	3188.69
226.10	2981.84
226.32	2873.30
226.53	3575.75
226.75	3151.82
226.97	3008.47
227.19	2867.16
227.41	3225.55
227.63	3196.88
227.85	2619.35
228.06	2934.74
228.28	3315.66
228.50	3428.30
228.72	2652.12
228.94	2828.24
229.16	2910.16
229.37	3074.00
229.59	2842.58
229.81	3209.17
230.03	3137.49
230.25	2985.94
230.47	2705.37
230.69	2815.96
230.90	3403.72
231.12	3092.43
231.34	3047.38
231.56	2944.98
231.78	3078.10
232.00	3303.37
232.21	2887.64
232.43	2967.51
232.65	2875.35
232.87	3352.52
233.09	2740.18
233.30	2815.96
233.52	3448.78
233.74	3293.13
233.96	2785.24
234.18	3033.04
234.40	3227.60
234.61	3762.12
234.83	2791.38
235.05	2836.44
235.27	3739.59
235.49	3573.71
235.70	2779.09
235.92	2934.74
236.14	3409.87
236.36	3755.97
236.58	2803.67
236.79	2992.08
237.01	3291.09
237.23	3221.45
237.45	3057.62
237.67	2922.45
237.88	3278.80
238.10	3641.29
238.32	2717.65
238.54	2813.91
238.76	3246.03
238.97	3033.04
239.19	2715.61
239.41	3010.51
239.63	3481.55
239.85	3203.02
240.06	2955.22
240.28	2858.96
240.50	3450.83
240.72	3246.03
240.93	2731.99
241.15	2963.41
241.37	3327.95
241.59	3588.04
241.81	2877.40
242.02	2918.36
242.24	3373.00
242.46	3368.91
242.68	2697.17
242.89	2744.28
243.11	3444.68
243.33	3280.85
243.55	2854.87
243.76	2875.35
243.98	3117.01
244.20	3221.45
244.42	2852.82
244.64	2795.48
244.85	3002.32
245.07	3108.82
245.29	2881.49
245.51	2932.69
245.72	3307.47
245.94	3502.03
246.16	2832.34
246.38	2885.59
246.59	3221.45
246.81	3108.82
247.03	2703.32
247.24	2717.65
247.46	3207.12
247.68	3274.70
247.90	2777.05
248.11	2889.68
248.33	3512.27
248.55	3258.32
248.77	2942.93
248.98	2951.12
249.20	3553.23
249.42	3393.48
249.64	2809.81
249.85	2803.67
250.07	3170.26
250.29	3475.40
250.50	2938.84
250.72	2815.96
250.94	3416.01
251.16	3706.82
251.37	2836.44
251.59	2893.78
251.81	3291.09
252.02	3631.05
252.24	2779.09
252.46	3002.32
252.68	3194.83
252.89	3106.77
253.11	2744.28
253.33	3028.95
253.54	3567.56
253.76	3049.43
253.98	2850.77
254.20	2844.63
254.41	3055.57
254.63	3301.33
254.85	2738.13
255.06	2975.70
255.28	3499.98
255.50	3248.08
255.71	2854.87
255.93	2734.04
256.15	3284.94
256.36	3352.52
256.58	2731.99
256.80	2811.86
257.02	3274.70
257.23	3227.60
257.45	2858.96
257.67	2955.22
257.88	3233.74
258.10	3389.39
258.32	2791.38
258.53	2942.93
258.75	3590.09
258.97	3235.79
259.18	2713.56
259.40	2838.48
259.62	3616.71
259.83	3606.47
260.05	2830.29
260.27	3739.59
260.48	3463.12
260.70	3129.30
260.92	2750.42
261.13	2836.44
261.35	3362.76
261.57	3299.28
261.78	2705.37
262.00	2764.76
262.22	3370.96
262.43	3129.30
262.65	2834.39
262.86	2873.30
263.08	3688.39
263.30	3340.24
263.51	2703.32
263.73	2764.76
263.95	3618.76
264.16	3082.19
264.38	2836.44
264.60	2760.66
264.81	3215.31
265.03	3491.79
265.25	3297.23
265.46	2848.72
265.68	3499.98
265.89	3530.70
266.11	2695.13
266.33	2754.52
266.54	3495.88
266.76	3422.16
266.98	2996.18
267.19	3100.62
267.41	3452.88
267.62	3243.98
267.84	2639.83
268.06	2961.36
268.27	3311.57
268.49	3499.98
268.70	2869.20
268.92	2893.78
269.14	3188.69
269.35	2998.23
269.57	3012.56
269.79	2934.74
270.00	3237.84
270.22	3622.86
270.43	2717.65
270.65	2658.26
270.87	3293.13
271.08	3418.06
271.30	3000.27
271.51	2912.21
271.73	3397.58
271.95	3575.75
272.16	2828.24
272.38	3092.43
272.59	3198.93
272.81	3346.38
273.02	2846.68
273.24	2928.60
273.46	3491.79
273.67	3067.86
273.89	2729.94
274.10	2844.63
274.32	3487.69
274.54	3393.48
274.75	2944.98
274.97	2969.55
275.18	3411.92
275.40	3420.11
275.61	2947.03
275.83	3024.85
276.05	3129.30
276.26	3192.78
276.48	2922.45
276.69	3012.56
276.91	3182.54
277.12	3581.90
277.34	3010.51
277.55	3196.88
277.77	3153.87
277.99	3145.68
278.20	2957.27
278.42	2873.30
278.63	3012.56
278.85	3117.01
279.06	2967.51
279.28	3049.43
279.49	3448.78
279.71	3397.58
279.93	3090.38
280.14	3114.96
280.36	3188.69
280.57	3413.96
280.79	3069.91
281.00	2914.26
281.22	3270.61
281.43	3520.46
281.65	2770.90
281.86	2815.96
282.08	3352.52
282.29	3657.67
282.51	2824.15
282.73	2891.73
282.94	3016.66
283.16	3385.29
283.37	3098.58
283.59	3039.19
283.80	3264.46
284.02	3274.70
284.23	3074.00
284.45	3016.66
284.66	3149.78
284.88	3127.25
285.09	2893.78
285.31	3137.49
285.52	3370.96
285.74	2906.07
285.95	3153.87
286.17	3098.58
286.38	3506.12
286.60	3170.26
286.81	3008.47
287.03	2930.64
287.24	3248.08
287.46	3301.33
287.67	3157.97
287.89	3198.93
288.10	3192.78
288.32	3346.38
288.53	3155.92
288.75	2992.08
288.96	3450.83
289.18	3174.35
289.39	2947.03
289.61	3110.86
289.82	3682.25
290.04	3723.21
290.25	2901.97
290.47	3035.09
290.68	3252.17
290.90	3413.96
291.11	2854.87
291.33	3143.63
291.54	3092.43
291.76	3151.82
291.97	3041.23
292.18	3049.43
292.40	3141.58
292.61	3172.30
292.83	3278.80
293.04	2983.89
293.26	3309.52
293.47	3203.02
293.69	2916.31
293.90	2881.49
294.12	3555.27
294.33	3272.65
294.55	2998.23
294.76	3121.10
294.97	3516.36
295.19	3727.30
295.40	3088.34
295.62	3110.86
295.83	3407.82
296.05	3123.15
296.26	3198.93
296.48	3049.43
296.69	3266.51
296.90	3209.17
297.12	3180.50
297.33	3147.73
297.55	3284.94
297.76	3385.29
297.98	3082.19
298.19	3213.26
298.41	3213.26
298.62	3106.77
298.83	3164.11
299.05	3125.20
299.26	3219.41
299.48	3112.91
299.69	3098.58
299.90	2961.36
300.12	3147.73
300.33	3442.64
300.55	3014.61
300.76	3102.67
300.98	3092.43
301.19	3397.58
301.40	3033.04
301.62	2992.08
301.83	3389.39
302.05	3344.33
302.26	2936.79
302.47	3055.57
302.69	3086.29
302.90	3305.42
303.12	2772.95
303.33	3127.25
303.54	3592.14
303.76	3164.11
303.97	2959.31
304.19	3227.60
304.40	3090.38
304.61	3377.10
304.83	3114.96
305.04	3131.34
305.26	3393.48
305.47	3235.79
305.68	3022.80
305.90	2957.27
306.11	3471.31
306.33	3262.41
306.54	2877.40
306.75	2965.46
306.97	2983.89
307.18	3088.34
307.39	2965.46
307.61	3033.04
307.82	3254.22
308.04	3424.20
308.25	2838.48
308.46	3160.02
308.68	3252.17
308.89	3327.95
309.10	3117.01
309.32	3082.19
309.53	3293.13
309.74	3434.44
309.96	2938.84
310.17	3114.96
310.39	3178.45
310.60	3395.53
310.81	3049.43
311.03	2904.02
311.24	3377.10
311.45	3223.50
311.67	3229.65
311.88	3076.05
312.09	3221.45
312.31	3239.89
312.52	2998.23
312.73	2955.22
312.95	3002.32
313.16	3114.96
313.37	3139.54
313.59	3205.07
313.80	3436.49
314.01	3542.99
314.23	2955.22
314.44	2914.26
314.65	3065.81
314.87	3004.37
315.08	2944.98
315.29	3018.71
315.51	3100.62
315.72	2951.12
315.93	2961.36
316.15	3090.38
316.36	3135.44
316.57	3237.84
316.79	3020.75
317.00	2914.26
317.21	3422.16
317.43	3129.30
317.64	3033.04
317.85	2932.69
318.07	3139.54
318.28	3160.02
318.49	3137.49
318.70	3268.56
318.92	3375.05
319.13	3370.96
319.34	3184.59
319.56	3047.38
319.77	3436.49
319.98	3397.58
320.20	3325.90
320.41	3098.58
320.62	3293.13
320.83	3037.14
321.05	3176.40
321.26	3057.62
321.47	3280.85
321.69	3454.92
321.90	2848.72
322.11	2947.03
322.32	3291.09
322.54	3577.80
322.75	2994.13
322.96	3913.67
323.18	2928.60
323.39	3008.47
323.60	2928.60
323.81	3194.83
324.03	3092.43
324.24	3332.05
324.45	3084.24
324.66	2914.26
324.88	3411.92
325.09	3626.95
325.30	3065.81
325.52	2879.44
325.73	3438.54
325.94	3123.15
326.15	2895.83
326.37	2887.64
326.58	3413.96
326.79	3567.56
327.00	2914.26
327.22	2963.41
327.43	3264.46
327.64	3170.26
327.85	3037.14
328.07	3053.52
328.28	3731.40
328.49	3074.00
328.70	3016.66
328.92	3002.32
329.13	3205.07
329.34	3354.57
329.55	3213.26
329.76	3162.06
329.98	3289.04
330.19	3540.94
330.40	3076.05
330.61	3065.81
330.83	3493.83
331.04	3102.67
331.25	3143.63
331.46	3049.43
331.68	3117.01
331.89	3592.14
332.10	3010.51
332.31	2881.49
332.52	3315.66
332.74	3631.05
332.95	2777.05
333.16	3018.71
333.37	3540.94
333.58	3205.07
333.80	2990.03
334.01	2801.62
334.22	3200.98
334.43	3207.12
334.64	2944.98
334.86	2942.93
335.07	3082.19
335.28	3588.04
335.49	2867.16
335.70	3018.71
335.92	3487.69
336.13	3743.69
336.34	3078.10
336.55	3030.99
336.76	3342.28
336.98	2861.01
337.19	2971.60
337.40	3049.43
337.61	3864.52
337.82	3256.27
338.04	3102.67
338.25	2844.63
338.46	3160.02
338.67	3313.61
338.88	2887.64
339.09	2889.68
339.31	3112.91
339.52	3026.90
339.73	2942.93
339.94	3008.47
340.15	3389.39
340.36	3192.78
340.58	3010.51
340.79	2897.88
341.00	3446.73
341.21	3033.04
341.42	3268.56
341.63	2975.70
341.85	3473.36
342.06	3313.61
342.27	2893.78
342.48	3149.78
342.69	3030.99
342.90	3422.16
343.12	3385.29
343.33	2863.06
343.54	3495.88
343.75	3622.86
343.96	3143.63
344.17	2934.74
344.38	3258.32
344.60	3047.38
344.81	2908.12
345.02	3086.29
345.23	3577.80
345.44	3794.89
345.65	3059.67
345.86	3033.04
346.07	3282.89
346.29	3127.25
346.50	3180.50
346.71	3114.96
346.92	3551.18
347.13	3655.62
347.34	3065.81
347.55	2834.39
347.76	3373.00
347.98	2959.31
348.19	3125.20
348.40	3211.22
348.61	3258.32
348.82	3684.30
349.03	3127.25
349.24	2967.51
349.45	3672.01
349.66	2836.44
349.88	2992.08
350.09	2944.98
350.30	3540.94
350.51	3479.50
350.72	3143.63
350.93	3041.23
351.14	3293.13
351.35	3340.24
351.56	2998.23
351.77	3117.01
351.99	3440.59
352.20	3549.13
352.41	3076.05
352.62	2740.18
352.83	3274.70
353.04	3231.69
353.25	2967.51
353.46	3026.90
353.67	3516.36
353.88	2850.77
354.09	2893.78
354.30	3051.47
354.52	3377.10
354.73	3256.27
354.94	2926.55
355.15	3053.52
355.36	3758.02
355.57	3123.15
355.78	2926.55
355.99	2998.23
356.20	3246.03
356.41	3444.68
356.62	3119.06
356.83	2985.94
357.04	3512.27
357.25	2977.75
357.46	2985.94
357.68	2842.58
357.89	3098.58
358.10	3278.80
358.31	3045.33
358.52	3016.66
358.73	3022.80
358.94	3049.43
359.15	2994.13
359.36	3094.48
359.57	3243.98
359.78	3250.13
359.99	3188.69
360.20	2809.81
360.41	3250.13
360.62	3450.83
360.83	3071.95
361.04	3100.62
361.25	3358.67
361.46	3534.79
361.67	3112.91
361.88	3004.37
362.09	3495.88
362.30	3325.90
362.51	2969.55
362.72	3018.71
362.93	3430.35
363.14	3303.37
363.35	3082.19
363.56	3004.37
363.78	3483.59
363.99	3557.32
364.20	3043.28
364.41	3092.43
364.62	3590.09
364.83	3360.72
365.04	2953.17
365.25	3030.99
365.46	3665.86
365.67	3065.81
365.88	3221.45
366.09	2949.08
366.30	3231.69
366.51	3319.76
366.72	2899.92
366.93	3051.47
367.14	3393.48
367.35	3504.07
367.56	2949.08
367.77	3164.11
367.98	3246.03
368.18	3346.38
368.39	3196.88
368.60	2918.36
368.81	3385.29
369.02	3383.24
369.23	3008.47
369.44	2877.40
369.65	3213.26
369.86	3379.15
370.07	3123.15
370.28	2947.03
370.49	3362.76
370.70	3452.88
370.91	2895.83
371.12	2875.35
371.33	3538.89
371.54	3143.63
371.75	3065.81
371.96	2779.09
372.17	3303.37
372.38	3221.45
372.59	3041.23
372.80	2951.12
373.01	3250.13
373.22	3297.23
373.43	2994.13
373.64	2885.59
373.85	3553.23
374.06	3665.86
374.26	3143.63
374.47	3065.81
374.68	3618.76
374.89	3278.80
375.10	2967.51
375.31	3176.40
375.52	3334.09
375.73	3188.69
375.94	2885.59
376.15	3139.54
376.36	3123.15
376.57	3166.16
376.78	3082.19
376.99	3074.00
377.20	3563.47
377.40	3200.98
377.61	3346.38
377.82	2959.31
378.03	3532.75
378.24	3424.20
378.45	3153.87
378.66	3098.58
378.87	2922.45
379.08	3000.27
379.29	3084.24
379.50	3069.91
379.71	3305.42
379.91	3295.18
380.12	2918.36
380.33	3053.52
380.54	3313.61
380.75	3196.88
380.96	3012.56
381.17	3055.57
381.38	3362.76
381.59	3346.38
381.80	3016.66
382.00	3268.56
382.21	3282.89
382.42	3590.09
382.63	3411.92
382.84	3153.87
383.05	3481.55
383.26	3635.14
383.47	3151.82
383.68	2926.55
383.88	3420.11
384.09	3205.07
384.30	3266.51
384.51	3139.54
384.72	3155.92
384.93	3098.58
385.14	3100.62
385.35	3276.75
385.55	2990.03
385.76	3479.50
385.97	3078.10
386.18	2861.01
386.39	3045.33
386.60	3155.92
386.81	3033.04
387.02	2963.41
387.22	3061.71
387.43	3395.53
387.64	3061.71
387.85	3268.56
388.06	3401.68
388.27	4255.68
388.48	7784.33
388.68	11972.43
388.89	14835.49
389.10	16074.51
389.31	15691.54
389.52	12558.14
389.73	11216.72
389.93	10145.64
390.14	9187.19
390.35	8431.49
390.56	7831.43
390.77	6639.51
390.98	4927.41
391.18	4126.66
391.39	3895.24
391.60	3301.33
391.81	3346.38
392.02	3065.81
392.23	3725.26
392.43	3336.14
392.64	3190.74
392.85	3086.29
393.06	3610.57
393.27	3293.13
393.47	2930.64
393.68	3117.01
393.89	3164.11
394.10	3551.18
394.31	2992.08
394.52	2996.18
394.72	3110.86
394.93	3489.74
395.14	2914.26
395.35	3129.30
395.56	3213.26
395.76	3205.07
395.97	3024.85
396.18	3170.26
396.39	3332.05
396.60	3866.56
396.80	3373.00
397.01	3315.66
397.22	3471.31
397.43	3444.68
397.64	3051.47
397.84	3180.50
398.05	3669.96
398.26	3198.93
398.47	3135.44
398.67	3291.09
398.88	3344.33
399.09	3407.82
399.30	2983.89
399.51	3114.96
399.71	3104.72
399.92	3221.45
400.13	3086.29
400.34	3035.09
400.54	3319.76
400.75	3536.84
400.96	3196.88
401.17	3338.19
401.37	3428.30
401.58	3233.74
401.79	2998.23
402.00	3162.06
402.21	3835.85
402.41	3428.30
402.62	3407.82
402.83	3598.28
403.04	3739.59
403.24	4100.03
403.45	3239.89
403.66	3403.72
403.87	3532.75
404.07	3639.24
404.28	3358.67
404.49	3385.29
404.70	3366.86
404.90	3446.73
405.11	3020.75
405.32	3162.06
405.52	3135.44
405.73	3227.60
405.94	2901.97
406.15	3098.58
406.35	3444.68
406.56	3438.54
406.77	3102.67
406.98	3051.47
407.18	3153.87
407.39	3504.07
407.60	2983.89
407.80	3217.36
408.01	3114.96
408.22	3467.21
408.43	2975.70
408.63	3137.49
408.84	3409.87
409.05	3434.44
409.25	2985.94
409.46	3160.02
409.67	3180.50
409.88	3190.74
410.08	3065.81
410.29	2965.46
410.50	3459.02
410.70	3405.77
410.91	2973.65
411.12	3137.49
411.32	3319.76
411.53	3149.78
411.74	2983.89
411.95	3141.58
412.15	3311.57
412.36	3459.02
412.57	3203.02
412.77	3233.74
412.98	3241.93
413.19	3209.17
413.39	3166.16
413.60	3049.43
413.81	3520.46
414.01	3123.15
414.22	3129.30
414.43	3284.94
414.63	3241.93
414.84	3450.83
415.05	3041.23
415.25	2967.51
415.46	3452.88
415.67	3172.30
415.87	3035.09
416.08	3041.23
416.29	3178.45
416.49	3295.18
416.70	3082.19
416.91	2955.22
417.11	3246.03
417.32	3534.79
417.53	3041.23
417.73	3157.97
417.94	3319.76
418.15	3221.45
418.35	3114.96
418.56	3074.00
418.77	3735.50
418.97	3368.91
419.18	3221.45
419.38	2734.04
419.59	3313.61
419.80	3618.76
420.00	2951.12
420.21	3051.47
420.42	3499.98
420.62	3350.48
420.83	3004.37
421.04	3020.75
421.24	3198.93
421.45	3403.72
421.65	3143.63
421.86	3037.14
422.07	3491.79
422.27	3368.91
422.48	3024.85
422.69	2910.16
422.89	3286.99
423.10	3205.07
423.30	2977.75
423.51	3065.81
423.72	3354.57
423.92	3446.73
424.13	2926.55
424.33	3133.39
424.54	3405.77
424.75	3305.42
424.95	3311.57
425.16	3061.71
425.36	3213.26
425.57	3512.27
425.78	3135.44
425.98	3219.41
426.19	3237.84
426.39	3063.76
426.60	3112.91
426.81	3176.40
427.01	3311.57
427.22	3137.49
427.42	2926.55
427.63	3059.67
427.83	3487.69
428.04	3585.99
428.25	3172.30
428.45	3166.16
428.66	3561.42
428.86	3217.36
429.07	3098.58
429.28	3043.28
429.48	3352.52
429.69	3151.82
429.89	3147.73
430.10	2934.74
430.30	3430.35
430.51	3510.22
430.71	2973.65
430.92	3016.66
431.13	3286.99
431.33	3370.96
431.54	3053.52
431.74	3250.13
431.95	3647.43
432.15	3110.86
432.36	3051.47
432.56	3117.01
432.77	3733.45
432.98	3643.34
433.18	3102.67
433.39	2996.18
433.59	3307.47
433.80	3680.20
434.00	3147.73
434.21	3018.71
434.41	3121.10
434.62	3805.13
434.82	2949.08
435.03	2959.31
435.23	3289.04
435.44	2897.88
435.64	2971.60
435.85	3041.23
436.06	3442.64
436.26	3426.25
436.47	3074.00
436.67	3045.33
436.88	3225.55
437.08	3538.89
437.29	3188.69
437.49	3186.64
437.70	3469.26
437.90	3235.79
438.11	3229.65
438.31	3139.54
438.52	3526.60
438.72	3413.96
438.93	3399.63
439.13	3196.88
439.34	3516.36
439.54	3272.65
439.75	3254.22
439.95	3155.92
440.16	3096.53
440.36	3297.23
440.57	3049.43
440.77	3067.86
440.98	3379.15
441.18	3424.20
441.39	2967.51
441.59	2867.16
441.80	3733.45
442.00	3270.61
442.21	3063.76
442.41	2908.12
442.62	3491.79
442.82	3172.30
443.02	2959.31
443.23	3117.01
443.43	3237.84
443.64	3573.71
443.84	2936.79
444.05	3127.25
444.25	3315.66
444.46	3133.39
444.66	3028.95
444.87	3305.42
445.07	3002.32
445.28	3221.45
445.48	3248.08
445.69	3137.49
445.89	3807.17
446.09	3239.89
446.30	3352.52
446.50	3549.13
446.71	5025.72
446.91	6197.15
447.12	7204.75
447.32	7411.60
447.53	7534.48
447.73	6467.49
447.93	5492.65
448.14	5205.94
448.34	5494.70
448.55	4452.28
448.75	4493.24
448.96	4272.06
449.16	4036.55
449.36	4052.93
449.57	3274.70
449.77	3127.25
449.98	3250.13
450.18	3325.90
450.39	3037.14
450.59	3258.32
450.79	3340.24
451.00	3061.71
451.20	3282.89
451.41	3088.34
451.61	3397.58
451.81	3301.33
452.02	2992.08
452.22	3131.34
452.43	3143.63
452.63	3149.78
452.84	3086.29
453.04	2981.84
453.24	3260.37
453.45	3104.72
453.65	3135.44
453.86	3018.71
454.06	3373.00
454.26	3229.65
454.47	3004.37
454.67	3231.69
454.87	3370.96
455.08	3188.69
455.28	3151.82
455.49	3213.26
455.69	3168.21
455.89	3657.67
456.10	3129.30
456.30	3030.99
456.51	3444.68
456.71	3295.18
456.91	3280.85
457.12	3065.81
457.32	3370.96
457.52	3026.90
457.73	3178.45
457.93	3198.93
458.14	3190.74
458.34	2975.70
458.54	3098.58
458.75	3043.28
458.95	3499.98
459.15	3446.73
459.36	3094.48
459.56	3065.81
459.76	3809.22
459.97	3338.19
460.17	3082.19
460.37	3055.57
460.58	3262.41
460.78	3438.54
460.99	3082.19
461.19	3063.76
461.39	3147.73
461.60	3237.84
461.80	3112.91
462.00	2932.69
462.21	3198.93
462.41	3114.96
462.61	2897.88
462.82	2838.48
463.02	3368.91
463.22	3352.52
463.43	3114.96
463.63	2879.44
463.83	3561.42
464.04	3375.05
464.24	3051.47
464.44	3065.81
464.64	3266.51
464.85	3362.76
465.05	3076.05
465.25	2987.99
465.46	3143.63
465.66	3405.77
465.86	3145.68
466.07	3041.23
466.27	3317.71
466.47	2963.41
466.68	2891.73
466.88	3223.50
467.08	3352.52
467.29	3487.69
467.49	3086.29
467.69	3213.26
467.89	3383.24
468.10	3254.22
468.30	3076.05
468.50	3207.12
468.71	3383.24
468.91	2934.74
469.11	3205.07
469.31	3080.14
469.52	3078.10
469.72	3604.42
469.92	3332.05
470.13	2971.60
470.33	3325.90
470.53	3321.81
470.73	3463.12
470.94	3938.24
471.14	4210.62
471.34	4759.48
471.54	4339.65
471.75	4040.64
471.95	3942.34
472.15	3825.61
472.36	3686.34
472.56	3559.37
472.76	3878.85
472.96	3712.97
473.17	3405.77
473.37	3264.46
473.57	3215.31
473.77	3350.48
473.98	3164.11
474.18	2951.12
474.38	3966.92
474.58	3141.58
474.79	2955.22
474.99	3135.44
475.19	3573.71
475.39	3110.86
475.60	3162.06
475.80	2942.93
476.00	3348.43
476.20	3280.85
476.41	3157.97
476.61	3074.00
476.81	3565.51
477.01	3162.06
477.21	3387.34
477.42	3227.60
477.62	3088.34
477.82	3399.63
478.02	2955.22
478.23	3045.33
478.43	3051.47
478.63	3243.98
478.83	2998.23
479.03	3104.72
479.24	3616.71
479.44	3692.49
479.64	3033.04
479.84	2832.34
480.04	3106.77
480.25	3440.59
480.45	2951.12
480.65	3071.95
480.85	3547.08
481.06	3180.50
481.26	3125.20
481.46	3108.82
481.66	3311.57
481.86	3131.34
482.06	3241.93
482.27	3139.54
482.47	3246.03
482.67	3401.68
482.87	3041.23
483.07	3133.39
483.28	3205.07
483.48	3067.86
483.68	3090.38
483.88	2979.79
484.08	2889.68
484.29	3102.67
484.49	3112.91
484.69	2858.96
484.89	3616.71
485.09	3508.17
485.29	3141.58
485.50	3149.78
485.70	3141.58
485.90	3585.99
486.10	3141.58
486.30	3065.81
486.50	3426.25
486.71	3352.52
486.91	3147.73
487.11	3110.86
487.31	2985.94
487.51	3409.87
487.71	2893.78
487.91	2940.88
488.12	3098.58
488.32	2793.43
488.52	3100.62
488.72	2775.00
488.92	3346.38
489.12	3549.13
489.32	3162.06
489.53	3045.33
489.73	3041.23
489.93	3680.20
490.13	3051.47
490.33	2924.50
490.53	3403.72
490.73	3479.50
490.94	2901.97
491.14	3172.30
491.34	3395.53
491.54	3454.92
491.74	4007.87
491.94	4646.84
492.14	5140.40
492.34	5171.12
492.54	4804.53
492.75	4120.51
492.95	4478.91
493.15	3997.64
493.35	3854.28
493.55	3727.30
493.75	3727.30
493.95	3956.68
494.15	3317.71
494.35	3059.67
494.56	3258.32
494.76	3123.15
494.96	3233.74
495.16	2887.64
495.36	3319.76
495.56	3348.43
495.76	3141.58
495.96	3002.32
496.16	3127.25
496.36	3643.34
496.56	2953.17
496.77	3131.34
496.97	3297.23
497.17	3553.23
497.37	2969.55
497.57	3174.35
497.77	3321.81
497.97	3082.19
498.17	3129.30
498.37	3018.71
498.57	3356.62
498.77	3176.40
498.97	3246.03
499.17	3459.02
499.38	3176.40
499.58	3389.39
499.78	3286.99
499.98	3258.32
500.18	3274.70
500.38	3157.97
500.58	3295.18
500.78	3690.44
500.98	6080.42
501.18	8109.96
501.38	9684.84
501.58	10874.71
501.78	10745.69
501.98	8961.91
502.18	7516.05
502.38	6582.17
502.58	6408.09
502.78	5722.02
502.98	5363.63
503.18	5169.07
503.38	4974.52
503.59	4227.01
503.79	4018.11
503.99	3719.11
504.19	3913.67
504.39	3907.52
504.59	3739.59
504.79	3545.03
504.99	3903.43
505.19	3581.90
505.39	3303.37
505.59	3489.74
505.79	3579.85
505.99	3563.47
506.19	3166.16
506.39	3438.54
506.59	3182.54
506.79	3246.03
506.99	3323.85
507.19	3071.95
507.39	3336.14
507.59	2924.50
507.79	3086.29
507.99	2992.08
508.19	3303.37
508.39	3262.41
508.59	3100.62
508.79	3213.26
508.99	3661.77
509.19	3151.82
509.39	3094.48
509.59	2924.50
509.79	3155.92
509.99	3311.57
510.19	3241.93
510.39	3162.06
510.59	3319.76
510.79	3264.46
510.99	2924.50
511.19	3057.62
511.39	3676.10
511.59	3483.59
511.79	3276.75
511.99	3041.23
512.19	3678.15
512.38	3305.42
512.58	3041.23
512.78	2969.55
512.98	3491.79
513.18	3663.82
513.38	2953.17
513.58	3160.02
513.78	3125.20
513.98	3147.73
514.18	3117.01
514.38	3033.04
514.58	3352.52
514.78	3172.30
514.98	2981.84
515.18	3098.58
515.38	3026.90
515.58	3604.42
515.78	3082.19
515.98	3076.05
516.18	3405.77
516.38	3237.84
516.57	3002.32
516.77	3012.56
516.97	3377.10
517.17	3131.34
517.37	2828.24
517.57	3102.67
517.77	3286.99
517.97	3131.34
518.17	3151.82
518.37	2889.68
518.57	3196.88
518.77	3170.26
518.97	3061.71
519.16	3102.67
519.36	3573.71
519.56	3198.93
519.76	3000.27
519.96	3088.34
520.16	3522.51
520.36	3033.04
520.56	3239.89
520.76	3010.51
520.96	3131.34
521.16	3452.88
521.35	3215.31
521.55	3121.10
521.75	3313.61
521.95	3176.40
522.15	3051.47
522.35	2879.44
522.55	3160.02
522.75	3467.21
522.95	2955.22
523.14	2861.01
523.34	3194.83
523.54	3100.62
523.74	3217.36
523.94	3080.14
524.14	2969.55
524.34	3342.28
524.54	3243.98
524.73	3090.38
524.93	3399.63
525.13	3364.81
525.33	2924.50
525.53	3286.99
525.73	3409.87
525.93	3278.80
526.13	3098.58
526.32	2977.75
526.52	3418.06
526.72	3485.64
526.92	3067.86
527.12	3074.00
527.32	2990.03
527.52	3315.66
527.71	3069.91
527.91	3043.28
528.11	3254.22
528.31	3221.45
528.51	3074.00
528.71	3282.89
528.90	3389.39
529.10	3422.16
529.30	3065.81
529.50	2852.82
529.70	3270.61
529.90	3190.74
530.09	3088.34
530.29	2947.03
530.49	3151.82
530.69	3801.03
530.89	3121.10
531.09	3155.92
531.28	3147.73
531.48	3448.78
531.68	3094.48
531.88	3016.66
532.08	3409.87
532.28	3178.45
532.47	3176.40
532.67	3229.65
532.87	3418.06
533.07	3094.48
533.27	3119.06
533.46	3231.69
533.66	3381.20
533.86	3223.50
534.06	3151.82
534.26	3080.14
534.45	3182.54
534.65	3538.89
534.85	3180.50
535.05	2969.55
535.25	3403.72
535.44	2893.78
535.64	3250.13
535.84	3043.28
536.04	3131.34
536.24	3229.65
536.43	3061.71
536.63	2959.31
536.83	3217.36
537.03	3225.55
537.22	2924.50
537.42	2842.58
537.62	3426.25
537.82	3051.47
538.02	3266.51
538.21	3219.41
538.41	3846.09
538.61	3373.00
538.81	3049.43
539.00	3215.31
539.20	3028.95
539.40	3184.59
539.60	2994.13
539.79	3266.51
539.99	3319.76
540.19	3082.19
540.39	3020.75
540.58	3131.34
540.78	3504.07
540.98	3352.52
541.18	3231.69
541.37	3092.43
541.57	3295.18
541.77	3409.87
541.97	2944.98
542.16	2871.25
542.36	3221.45
542.56	3137.49
542.76	3188.69
542.95	3233.74
543.15	3379.15
543.35	3422.16
543.54	2977.75
543.74	3039.19
543.94	3598.28
544.14	3223.50
544.33	3106.77
544.53	3074.00
544.73	3254.22
544.93	3088.34
545.12	3033.04
545.32	3051.47
545.52	3215.31
545.71	3037.14
545.91	3016.66
546.11	2981.84
546.30	3127.25
546.50	3243.98
546.70	3157.97
546.90	3149.78
547.09	2942.93
547.29	3188.69
547.49	3243.98
547.68	2992.08
547.88	3153.87
548.08	3377.10
548.27	3313.61
548.47	3033.04
548.67	3133.39
548.87	3250.13
549.06	3035.09
549.26	2947.03
549.46	3327.95
549.65	3119.06
549.85	3086.29
550.05	3098.58
550.24	2973.65
550.44	3248.08
550.64	3123.15
550.83	3094.48
551.03	3553.23
551.23	3448.78
551.42	3127.25
551.62	3164.11
551.82	3266.51
552.01	3217.36
552.21	3336.14
552.41	3186.64
552.60	3536.84
552.80	3239.89
553.00	3010.51
553.19	3067.86
553.39	3684.30
553.59	3018.71
553.78	3098.58
553.98	2971.60
554.17	2979.79
554.37	3280.85
554.57	3114.96
554.76	2998.23
554.96	3090.38
555.16	3327.95
555.35	3035.09
555.55	3311.57
555.75	3272.65
555.94	3401.68
556.14	2879.44
556.33	3076.05
556.53	3241.93
556.73	3254.22
556.92	3030.99
557.12	3018.71
557.32	3805.13
557.51	3583.95
557.71	3078.10
557.90	3258.32
558.10	3565.51
558.30	3205.07
558.49	3110.86
558.69	3030.99
558.88	3358.67
559.08	3342.28
559.28	3082.19
559.47	3108.82
559.67	3332.05
559.86	3698.63
560.06	3057.62
560.26	3119.06
560.45	3368.91
560.65	3246.03
560.84	3330.00
561.04	3049.43
561.24	3508.17
561.43	3018.71
561.63	3381.20
561.82	3135.44
562.02	3467.21
562.22	3100.62
562.41	3078.10
562.61	3104.72
562.80	3104.72
563.00	3745.73
563.19	3205.07
563.39	3155.92
563.59	3352.52
563.78	3114.96
563.98	2848.72
564.17	3004.37
564.37	2920.40
564.56	3217.36
564.76	3020.75
564.96	3157.97
565.15	3278.80
565.35	3737.54
565.54	3024.85
565.74	3139.54
565.93	3377.10
566.13	3266.51
566.32	3184.59
566.52	3133.39
566.71	3278.80
566.91	3454.92
567.11	3174.35
567.30	3010.51
567.50	3362.76
567.69	3334.09
567.89	3041.23
568.08	2947.03
568.28	3364.81
568.47	2971.60
568.67	3127.25
568.86	3133.39
569.06	3510.22
569.25	3215.31
569.45	2938.84
569.64	3069.91
569.84	3274.70
570.04	3346.38
570.23	3016.66
570.43	3129.30
570.62	3319.76
570.82	3542.99
571.01	2934.74
571.21	3043.28
571.40	3092.43
571.60	3393.48
571.79	3282.89
571.99	3067.86
572.18	3059.67
572.38	3241.93
572.57	3106.77
572.77	3117.01
572.96	3704.78
573.16	3332.05
573.35	3094.48
573.55	3272.65
573.74	3504.07
573.94	3223.50
574.13	3067.86
574.33	3176.40
574.52	3489.74
574.71	3256.27
574.91	3086.29
575.10	2912.21
575.30	3155.92
575.49	3057.62
575.69	3069.91
575.88	3041.23
576.08	3268.56
576.27	3430.35
576.47	2971.60
576.66	3231.69
576.86	3545.03
577.05	3305.42
577.25	3049.43
577.44	3280.85
577.64	3209.17
577.83	3434.44
578.02	3041.23
578.22	3229.65
578.41	3631.05
578.61	3248.08
578.80	2973.65
579.00	3172.30
579.19	3262.41
579.39	3356.62
579.58	3170.26
579.77	3172.30
579.97	3483.59
580.16	3518.41
580.36	3233.74
580.55	3131.34
580.75	3405.77
580.94	3254.22
581.13	3237.84
581.33	3299.28
581.52	3237.84
581.72	3672.01
581.91	3092.43
582.11	3074.00
582.30	3508.17
582.49	3291.09
582.69	3342.28
582.88	3166.16
583.08	3311.57
583.27	3477.45
583.47	3289.04
583.66	3059.67
583.85	3067.86
584.05	3266.51
584.24	3168.21
584.44	3117.01
584.63	3463.12
584.82	3456.97
585.02	3370.96
585.21	3207.12
585.41	3407.82
585.60	3330.00
585.79	3352.52
585.99	3403.72
586.18	3360.72
586.37	4243.39
586.57	6270.88
586.76	17473.27
586.96	37025.23
587.15	50183.43
587.34	58852.48
587.54	62579.78
587.73	56116.39
587.93	40242.59
588.12	31211.04
588.31	25138.82
588.51	22494.89
588.70	20881.09
588.89	18450.15
589.09	15644.43
589.28	13707.05
589.47	10649.44
589.67	8310.66
589.86	6533.02
590.06	5146.55
590.25	4532.15
590.44	3864.52
590.64	3479.50
590.83	3620.81
591.02	3493.83
591.22	3121.10
591.41	3188.69
591.60	3250.13
591.80	3782.60
591.99	2942.93
592.18	3104.72
592.38	3426.25
592.57	3106.77
592.76	3076.05
592.96	3209.17
593.15	3278.80
593.34	3518.41
593.54	3051.47
593.73	3231.69
593.92	3463.12
594.12	3362.76
594.31	3071.95
594.50	3219.41
594.70	3346.38
594.89	3899.33
595.08	3071.95
595.28	3237.84
595.47	3958.72
595.66	3467.21
595.86	2975.70
596.05	2975.70
596.24	3188.69
596.43	3606.47
596.63	3207.12
596.82	3262.41
597.01	3327.95
597.21	3659.72
597.40	3014.61
597.59	3131.34
597.79	3348.43
597.98	3393.48
598.17	3149.78
598.36	3094.48
598.56	3416.01
598.75	3182.54
598.94	3223.50
599.14	3145.68
599.33	3219.41
599.52	3418.06
599.71	3168.21
599.91	3045.33
600.10	3467.21
600.29	3307.47
600.48	3254.22
600.68	3297.23
600.87	3237.84
601.06	3143.63
601.26	3203.02
601.45	3274.70
601.64	3299.28
601.83	3633.10
602.03	2963.41
602.22	2934.74
602.41	3497.93
602.60	3772.36
602.80	3076.05
602.99	3291.09
603.18	3225.55
603.37	3260.37
603.57	2983.89
603.76	3094.48
603.95	3547.08
604.14	3178.45
604.34	2942.93
604.53	3035.09
604.72	3344.33
604.91	3467.21
605.10	3100.62
605.30	2904.02
605.49	3743.69
605.68	3442.64
605.87	3110.86
606.07	3108.82
606.26	3319.76
606.45	3356.62
606.64	3067.86
606.84	2967.51
607.03	3323.85
607.22	3473.36
607.41	3106.77
607.60	3012.56
607.80	3428.30
607.99	3198.93
608.18	3141.58
608.37	3121.10
608.56	3127.25
608.76	3506.12
608.95	3297.23
609.14	3106.77
609.33	3465.16
609.52	3514.31
609.72	3209.17
609.91	3215.31
610.10	3346.38
610.29	3549.13
610.48	3200.98
610.68	3211.22
610.87	3321.81
611.06	3467.21
611.25	3102.67
611.44	3194.83
611.63	3246.03
611.83	3594.19
612.02	2944.98
612.21	3207.12
612.40	2922.45
612.59	3076.05
612.79	2975.70
612.98	3096.53
613.17	3682.25
613.36	3250.13
613.55	3170.26
613.74	3170.26
613.93	3364.81
614.13	3422.16
614.32	3282.89
614.51	3166.16
614.70	3291.09
614.89	3198.93
615.08	3139.54
615.28	3504.07
615.47	3039.19
615.66	3434.44
615.85	3170.26
616.04	3119.06
616.23	3260.37
616.42	3254.22
616.62	3153.87
616.81	3035.09
617.00	3211.22
617.19	3446.73
617.38	3106.77
617.57	3170.26
617.76	3420.11
617.95	3401.68
618.15	3207.12
618.34	3303.37
618.53	3067.86
618.72	3536.84
618.91	3305.42
619.10	3117.01
619.29	3207.12
619.48	3313.61
619.68	2971.60
619.87	2963.41
620.06	3010.51
620.25	3315.66
620.44	3033.04
620.63	3035.09
620.82	3278.80
621.01	3344.33
621.20	3110.86
621.39	3082.19
621.59	3377.10
621.78	3246.03
621.97	3145.68
622.16	3215.31
622.35	3385.29
622.54	3452.88
622.73	3139.54
622.92	2897.88
623.11	3483.59
623.30	3190.74
623.49	3252.17
623.68	2916.31
623.88	3655.62
624.07	3061.71
624.26	3000.27
624.45	3051.47
624.64	3248.08
624.83	3366.86
625.02	3030.99
625.21	3065.81
625.40	3321.81
625.59	3471.31
625.78	3217.36
625.97	3219.41
626.16	3499.98
626.35	3518.41
626.54	3096.53
626.74	3301.33
626.93	3172.30
627.12	3272.65
627.31	3145.68
627.50	3155.92
627.69	3489.74
627.88	3121.10
628.07	3002.32
628.26	2951.12
628.45	3211.22
628.64	3141.58
628.83	3086.29
629.02	2940.88
629.21	3411.92
629.40	3295.18
629.59	3028.95
629.78	3026.90
629.97	3321.81
630.16	3311.57
630.35	3102.67
630.54	3217.36
630.73	3223.50
630.92	3196.88
631.11	2992.08
631.30	3151.82
631.49	3524.55
631.68	3170.26
631.87	3149.78
632.06	2992.08
632.25	3798.98
632.44	3360.72
632.63	3157.97
632.82	3135.44
633.01	3123.15
633.20	3348.43
633.39	3057.62
633.58	2901.97
633.77	3297.23
633.96	3524.55
634.15	3192.78
634.34	3221.45
634.53	3352.52
634.72	3225.55
634.91	2908.12
635.10	3147.73
635.29	3536.84
635.48	3289.04
635.67	2967.51
635.86	2990.03
636.05	3631.05
636.24	3276.75
636.43	3049.43
636.62	3200.98
636.81	2768.85
637.00	3387.34
637.19	3026.90
637.38	3033.04
637.57	3274.70
637.76	3276.75
637.95	3262.41
638.14	3254.22
638.33	3344.33
638.52	3309.52
638.71	3022.80
638.89	2910.16
639.08	3870.66
639.27	3487.69
639.46	3352.52
639.65	3698.63
639.84	3854.28
640.03	4003.78
640.22	3657.67
640.41	3639.24
640.60	3426.25
640.79	3518.41
640.98	3282.89
641.17	3258.32
641.36	3551.18
641.55	3444.68
641.74	2934.74
641.92	2897.88
642.11	3160.02
642.30	3239.89
642.49	2994.13
642.68	3016.66
642.87	3237.84
643.06	3475.40
643.25	2906.07
643.44	3041.23
643.63	3194.83
643.82	3393.48
644.00	2934.74
644.19	3092.43
644.38	3065.81
644.57	3354.57
644.76	3076.05
644.95	3147.73
645.14	3352.52
645.33	3229.65
645.52	3172.30
645.71	2949.08
645.89	3047.38
646.08	3291.09
646.27	3123.15
646.46	3256.27
646.65	3022.80
646.84	3282.89
647.03	3020.75
647.22	3241.93
647.40	3274.70
647.59	3215.31
647.78	2932.69
647.97	3028.95
648.16	3100.62
648.35	3573.71
648.54	3403.72
648.73	3024.85
648.91	3479.50
649.10	3211.22
649.29	3014.61
649.48	3030.99
649.67	3319.76
649.86	3311.57
650.05	3063.76
650.23	3297.23
650.42	3143.63
650.61	3542.99
650.80	3387.34
650.99	3356.62
651.18	3434.44
651.36	3516.36
651.55	2990.03
651.74	3260.37
651.93	3200.98
652.12	3225.55
652.31	3209.17
652.49	3131.34
652.68	3166.16
652.87	3637.19
653.06	3194.83
653.25	3379.15
653.44	3309.52
653.62	3549.13
653.81	3090.38
654.00	3000.27
654.19	3477.45
654.38	3794.89
654.56	3133.39
654.75	3098.58
654.94	3446.73
655.13	3338.19
655.32	3037.14
655.51	3153.87
655.69	3098.58
655.88	3342.28
656.07	2961.36
656.26	3098.58
656.45	3035.09
656.63	3301.33
656.82	3041.23
657.01	3379.15
657.20	3207.12
657.38	3663.82
657.57	3016.66
657.76	2901.97
657.95	3403.72
658.14	3149.78
658.32	3155.92
658.51	2994.13
658.70	3295.18
658.89	3354.57
659.08	3147.73
659.26	3272.65
659.45	3114.96
659.64	3434.44
659.83	3090.38
660.01	3444.68
660.20	3241.93
660.39	3592.14
660.58	2783.19
660.76	3090.38
660.95	3094.48
661.14	3274.70
661.33	2938.84
661.51	3074.00
661.70	3147.73
661.89	3389.39
662.08	3043.28
662.26	2926.55
662.45	3049.43
662.64	3604.42
662.83	3184.59
663.01	2996.18
663.20	3141.58
663.39	3567.56
663.58	3129.30
663.76	3016.66
663.95	3330.00
664.14	3090.38
664.32	3221.45
664.51	2987.99
664.70	2916.31
664.89	3330.00
665.07	2977.75
665.26	3237.84
665.45	3078.10
665.64	3297.23
665.82	3074.00
666.01	3237.84
666.20	3014.61
666.38	3409.87
666.57	3356.62
666.76	5568.43
666.95	12898.11
667.13	20399.82
667.32	24843.91
667.51	28040.79
667.69	28728.91
667.88	23793.30
668.07	17274.62
668.25	14905.12
668.44	12816.19
668.63	11073.37
668.81	9635.69
669.00	8357.76
669.19	7702.41
669.38	6586.27
669.56	5810.09
669.75	4966.32
669.94	4427.71
670.12	3739.59
670.31	3375.05
670.50	3344.33
670.68	3504.07
670.87	3393.48
671.06	3020.75
671.24	3229.65
671.43	3622.86
671.62	3356.62
671.80	3098.58
671.99	3313.61
672.18	3305.42
672.36	3383.24
672.55	3168.21
672.74	3090.38
672.92	3143.63
673.11	3358.67
673.29	2893.78
673.48	3264.46
673.67	3237.84
673.85	3454.92
674.04	2977.75
674.23	3133.39
674.41	3649.48
674.60	2975.70
674.79	2897.88
674.97	2975.70
675.16	3385.29
675.34	3520.46
675.53	3065.81
675.72	3092.43
675.90	3710.92
676.09	3147.73
676.28	3254.22
676.46	2881.49
676.65	3356.62
676.83	3082.19
677.02	3147.73
677.21	3112.91
677.39	3299.28
677.58	3114.96
677.77	3037.14
677.95	3024.85
678.14	3256.27
678.32	3276.75
678.51	3069.91
678.70	3430.35
678.88	3233.74
679.07	3254.22
679.25	3076.05
679.44	3096.53
679.63	3071.95
679.81	3256.27
680.00	3340.24
680.18	3123.15
680.37	3631.05
680.55	3246.03
680.74	2918.36
680.93	2846.68
681.11	3237.84
681.30	3291.09
681.48	3057.62
681.67	3133.39
681.85	3291.09
682.04	3139.54
682.23	3264.46
682.41	3229.65
682.60	3117.01
682.78	3272.65
682.97	3061.71
683.15	3125.20
683.34	3346.38
683.53	3631.05
683.71	2895.83
683.90	3143.63
684.08	3588.04
684.27	3164.11
684.45	3082.19
684.64	3198.93
684.82	3293.13
685.01	3368.91
685.19	3127.25
685.38	3434.44
685.57	3338.19
685.75	3114.96
685.94	2994.13
686.12	3016.66
686.31	3135.44
686.49	3639.24
686.68	2877.40
686.86	3108.82
687.05	3262.41
687.23	3413.96
687.42	3051.47
687.60	2912.21
687.79	3450.83
687.97	3493.83
688.16	3250.13
688.34	3307.47
688.53	2951.12
688.71	3323.85
688.90	3368.91
689.08	3074.00
689.27	2942.93
689.45	3391.44
689.64	3250.13
689.82	3184.59
690.01	3366.86
690.19	3311.57
690.38	3209.17
690.56	3213.26
690.75	3123.15
690.93	3172.30
691.12	3110.86
691.30	3117.01
691.49	3164.11
691.67	3262.41
691.86	3379.15
692.04	3125.20
692.23	3209.17
692.41	3293.13
692.60	3418.06
692.78	3286.99
692.97	3319.76
693.15	3481.55
693.34	3336.14
693.52	3250.13
693.71	3104.72
693.89	3188.69
694.08	2914.26
694.26	3117.01
694.44	3356.62
694.63	3475.40
694.81	3084.24
695.00	3053.52
695.18	3495.88
695.37	3803.08
695.55	3160.02
695.74	3098.58
695.92	3074.00
696.10	3452.88
696.29	2934.74
696.47	3119.06
696.66	3100.62
696.84	3100.62
697.03	3139.54
697.21	3360.72
697.40	4667.32
697.58	3473.36
697.76	3000.27
697.95	3125.20
698.13	3004.37
698.32	3155.92
698.50	3086.29
698.68	3037.14
698.87	3436.49
699.05	3581.90
699.24	3008.47
699.42	3051.47
699.61	3270.61
699.79	3323.85
699.97	3213.26
700.16	2990.03
700.34	3008.47
700.53	3334.09
700.71	3325.90
700.89	3198.93
701.08	3225.55
701.26	3270.61
701.45	3483.59
701.63	3026.90
701.81	3172.30
702.00	3067.86
702.18	3192.78
702.37	3143.63
702.55	3585.99
702.73	3354.57
702.92	3114.96
703.10	3442.64
703.28	3438.54
703.47	3098.58
703.65	3346.38
703.84	3190.74
704.02	3141.58
704.20	3663.82
704.39	3067.86
704.57	3078.10
704.75	3397.58
704.94	3368.91
705.12	3305.42
705.30	3983.30
705.49	8607.61
705.67	16674.56
705.86	23193.25
706.04	26676.84
706.22	29431.36
706.41	28071.51
706.59	21049.02
706.77	16525.06
706.96	14309.16
707.14	13066.04
707.32	11200.34
707.51	9602.93
707.69	7966.60
707.87	6551.45
708.06	5279.66
708.24	4564.92
708.42	4130.75
708.61	4161.47
708.79	3225.55
708.97	3297.23
709.16	3489.74
709.34	3364.81
709.52	3180.50
709.71	3108.82
709.89	3387.34
710.07	3024.85
710.26	3039.19
710.44	3147.73
710.62	3452.88
710.80	3254.22
710.99	3270.61
711.17	3231.69
711.35	3139.54
711.54	3186.64
711.72	3340.24
711.90	3123.15
712.09	3370.96
712.27	3184.59
712.45	3180.50
712.63	3119.06
712.82	3338.19
713.00	3262.41
713.18	3119.06
713.37	3229.65
713.55	3487.69
713.73	3360.72
713.91	3172.30
714.10	3174.35
714.28	3254.22
714.46	3428.30
714.65	3198.93
714.83	3194.83
715.01	3301.33
715.19	3258.32
715.38	3018.71
715.56	3237.84
715.74	3149.78
715.92	3108.82
716.11	3399.63
716.29	2899.92
716.47	3332.05
716.65	3139.54
716.84	2934.74
717.02	3153.87
717.20	2953.17
717.38	3110.86
717.57	3196.88
717.75	3123.15
717.93	3080.14
718.11	3379.15
718.30	2977.75
718.48	3164.11
718.66	3409.87
718.84	3545.03
719.03	3131.34
719.21	2930.64
719.39	3651.53
719.57	3373.00
719.75	3172.30
719.94	3059.67
720.12	3178.45
720.30	3348.43
720.48	3190.74
720.67	3084.24
720.85	3043.28
721.03	3069.91
721.21	3008.47
721.39	3188.69
721.58	3321.81
721.76	3346.38
721.94	3141.58
722.12	3162.06
722.30	3626.95
722.49	3166.16
722.67	3063.76
722.85	3102.67
723.03	3000.27
723.21	3174.35
723.40	3108.82
723.58	3213.26
723.76	3375.05
723.94	3497.93
724.12	3143.63
724.30	3373.00
724.49	3518.41
724.67	3098.58
724.85	3151.82
725.03	2985.94
725.21	3348.43
725.40	3438.54
725.58	3112.91
725.76	3327.95
725.94	3370.96
726.12	2973.65
726.30	3078.10
726.49	3090.38
726.67	3182.54
726.85	3442.64
727.03	4003.78
727.21	5519.28
727.39	7128.98
727.57	7563.15
727.76	8152.96
727.94	8406.91
728.12	7088.02
728.30	5881.77
728.48	5492.65
728.66	5136.31
728.84	4810.68
729.03	4122.56
729.21	3717.06
729.39	3581.90
729.57	3409.87
729.75	3434.44
729.93	3418.06
730.11	3024.85
730.30	3203.02
730.48	3198.93
730.66	3135.44
730.84	3207.12
731.02	3215.31
731.20	3209.17
731.38	3133.39
731.56	2844.63
731.74	2996.18
731.93	3286.99
732.11	3164.11
732.29	3094.48
732.47	3403.72
732.65	3323.85
732.83	3266.51
733.01	3174.35
733.19	3119.06
733.37	3456.97
733.56	3160.02
733.74	2965.46
733.92	3608.52
734.10	3117.01
734.28	3205.07
734.46	2877.40
734.64	3196.88
734.82	3155.92
735.00	3127.25
735.18	2998.23
735.36	3319.76
735.54	3229.65
735.73	3059.67
735.91	3286.99
736.09	3573.71
736.27	3246.03
736.45	3086.29
736.63	2838.48
736.81	3203.02
736.99	3446.73
737.17	3321.81
737.35	3065.81
737.53	3383.24
737.71	3278.80
737.89	3313.61
738.07	3049.43
738.25	3190.74
738.43	3004.37
738.61	3014.61
738.80	2959.31
738.98	3037.14
739.16	3049.43
739.34	3043.28
739.52	3432.40
739.70	3180.50
739.88	3393.48
740.06	3231.69
740.24	2850.77
740.42	3528.65
740.60	2992.08
740.78	3084.24
740.96	2811.86
741.14	3270.61
741.32	3391.44
741.50	2938.84
741.68	3389.39
741.86	3473.36
742.04	3069.91
742.22	2971.60
742.40	3121.10
742.58	3430.35
742.76	3241.93
742.94	3305.42
743.12	2947.03
743.30	3246.03
743.48	3385.29
743.66	3002.32
743.84	3114.96
744.02	3241.93
744.20	3223.50
744.38	3041.23
744.56	2990.03
744.74	3672.01
744.92	3330.00
745.10	3323.85
745.28	3145.68
745.46	3567.56
745.64	3295.18
745.82	3164.11
746.00	3078.10
746.18	3375.05
746.36	3057.62
746.54	3102.67
746.72	3182.54
746.90	3026.90
747.08	3545.03
747.26	3086.29
747.44	3205.07
747.62	3411.92
747.80	3381.20
747.98	3289.04
748.15	3098.58
748.33	3585.99
748.51	3313.61
748.69	3157.97
748.87	3051.47
749.05	3151.82
749.23	3223.50
749.41	3057.62
749.59	2957.27
749.77	3459.02
749.95	3155.92
750.13	3090.38
750.31	3200.98
750.49	3233.74
750.67	3450.83
750.85	3121.10
751.03	3088.34
751.20	3612.62
751.38	3264.46
751.56	3098.58
751.74	3114.96
751.92	3256.27
752.10	3053.52
752.28	3237.84
752.46	3037.14
752.64	3272.65
752.82	3297.23
753.00	3276.75
753.18	2967.51
753.35	3174.35
753.53	3221.45
753.71	3010.51
753.89	3229.65
754.07	3340.24
754.25	3411.92
754.43	3155.92
754.61	2979.79
754.79	3342.28
754.97	3215.31
755.14	3284.94
755.32	2869.20
755.50	3256.27
755.68	3303.37
755.86	3069.91
756.04	3033.04
756.22	2887.64
756.40	3454.92
756.57	3321.81
756.75	3092.43
756.93	3456.97
757.11	3510.22
757.29	2953.17
757.47	2981.84
757.65	2971.60
757.82	2824.15
758.00	3020.75
758.18	3006.42
758.36	3127.25
758.54	3565.51
758.72	2867.16
758.90	3196.88
759.07	3319.76
759.25	3057.62
759.43	3178.45
759.61	2957.27
759.79	4505.53
759.97	3493.83
760.15	3078.10
760.32	3160.02
760.50	3456.97
760.68	3690.44
760.86	3002.32
761.04	3348.43
761.22	3499.98
761.39	3252.17
761.57	3231.69
761.75	3035.09
761.93	3348.43
762.11	3239.89
762.28	3151.82
762.46	3041.23
762.64	3456.97
762.82	2967.51
763.00	2987.99
763.18	3377.10
763.35	3024.85
763.53	3463.12
763.71	3131.34
763.89	2961.36
764.07	3323.85
764.24	3325.90
764.42	3250.13
764.60	3067.86
764.78	3362.76
764.96	3381.20
765.13	3289.04
765.31	2959.31
765.49	3448.78
765.67	3049.43
765.84	3092.43
766.02	3020.75
766.20	2940.88
766.38	3395.53
766.56	3162.06
766.73	3254.22
766.91	3219.41
767.09	3188.69
767.27	3160.02
767.44	2914.26
767.62	3373.00
767.80	3356.62
767.98	3016.66
768.15	3127.25
768.33	3358.67
768.51	3463.12
768.69	3153.87
768.87	3119.06
769.04	3375.05
769.22	3872.71
769.40	3268.56
769.58	3241.93
769.75	3426.25
769.93	3547.08
770.11	3039.19
770.28	2994.13
770.46	3385.29
770.64	3352.52
770.82	3057.62
770.99	2947.03
771.17	3520.46
771.35	3223.50
771.53	3114.96
771.70	3067.86
771.88	3346.38
772.06	3305.42
772.23	3014.61
772.41	3188.69
772.59	3207.12
772.77	3121.10
772.94	3090.38
773.12	3147.73
773.30	3117.01
773.47	3278.80
773.65	3049.43
773.83	3297.23
774.01	3211.22
774.18	2897.88
774.36	3024.85
774.54	3004.37
774.71	3313.61
774.89	2904.02
775.07	3028.95
775.24	3041.23
775.42	3170.26
775.60	3592.14
775.78	2979.79
775.95	2938.84
776.13	2914.26
776.31	2897.88
776.48	3190.74
776.66	3327.95
776.84	3168.21
777.01	3010.51
777.19	3024.85
777.37	3069.91
777.54	3362.76
777.72	3719.11
777.90	3274.70
778.07	3071.95
778.25	3887.04
778.43	3377.10
778.60	3008.47
778.78	3151.82
778.96	3487.69
779.13	2996.18
779.31	3190.74
779.49	3106.77
779.66	3317.71
779.84	3196.88
780.01	3049.43
780.19	3010.51
780.37	3518.41
780.54	3389.39
780.72	2930.64
780.90	3098.58
781.07	3241.93
781.25	3121.10
781.43	3272.65
781.60	3102.67
781.78	3465.16
781.95	3256.27
782.13	3014.61
782.31	3123.15
782.48	2916.31
782.66	3286.99
782.83	3289.04
783.01	3205.07
783.19	3481.55
783.36	3274.70
783.54	2957.27
783.72	3203.02
783.89	3186.64
784.07	3354.57
784.24	3207.12
784.42	3217.36
784.60	3340.24
784.77	3434.44
784.95	2848.72
785.12	3119.06
785.30	3330.00
785.47	3117.01
785.65	2990.03
785.83	3100.62
786.00	3174.35
786.18	3235.79
786.35	3010.51
786.53	3028.95
786.71	3497.93
786.88	3330.00
787.06	3166.16
787.23	3112.91
787.41	3051.47
787.58	3190.74
787.76	2990.03
787.94	3112.91
788.11	3368.91
788.29	3084.24
788.46	3028.95
788.64	2994.13
788.81	3121.10
788.99	3141.58
789.16	3037.14
789.34	3088.34
789.52	3139.54
789.69	3137.49
789.87	2834.39
790.04	3049.43
790.22	3211.22
790.39	3626.95
790.57	3043.28
790.74	2969.55
790.92	3518.41
791.09	2977.75
791.27	3127.25
791.44	3106.77
791.62	3215.31
791.79	3411.92
791.97	3143.63
792.15	3389.39
792.32	3438.54
792.50	3446.73
792.67	3280.85
792.85	3323.85
793.02	3373.00
793.20	3067.86
793.37	2897.88
793.55	2908.12
793.72	3018.71
793.90	3352.52
794.07	3030.99
794.25	2994.13
794.42	3344.33
794.60	3123.15
794.77	3180.50
794.95	3172.30
795.12	3428.30
795.30	3297.23
795.47	2899.92
795.65	3368.91
795.82	3319.76
796.00	3160.02
796.17	3196.88
796.34	2904.02
796.52	3362.76
796.69	3512.27
796.87	3125.20
797.04	3157.97
797.22	3356.62
797.39	3383.24
797.57	3325.90
797.74	3135.44
797.92	3366.86
798.09	3135.44
798.27	3375.05
798.44	3061.71
798.62	3174.35
798.79	3272.65
798.96	3223.50
799.14	3117.01
799.31	3846.09
799.49	3213.26
799.66	3043.28
799.84	3117.01
800.01	2985.94
800.19	3356.62
800.36	2949.08
800.53	3110.86
800.71	3250.13
800.88	3565.51
801.06	2912.21
801.23	3055.57
801.41	3213.26
801.58	3160.02
801.75	3178.45
801.93	3106.77
802.10	3475.40
802.28	3260.37
802.45	3119.06
802.63	3069.91
802.80	3588.04
802.97	3102.67
803.15	2998.23
803.32	3033.04
803.50	3055.57
803.67	3108.82
803.84	3067.86
804.02	3143.63
804.19	3215.31
804.37	2791.38
804.54	2983.89
804.71	3084.24
804.89	3250.13
805.06	3182.54
805.24	3016.66
805.41	2852.82
805.58	3139.54
805.76	3833.80
805.93	2981.84
806.10	3172.30
806.28	3366.86
806.45	3344.33
806.63	3336.14
806.80	3182.54
806.97	3264.46
807.15	3284.94
807.32	3121.10
807.49	3020.75
807.67	3041.23
807.84	3424.20
808.01	2850.77
808.19	3229.65
808.36	3723.21
808.54	3219.41
808.71	3024.85
808.88	3049.43
809.06	3475.40
809.23	3532.75
809.40	3182.54
809.58	3106.77
809.75	3356.62
809.92	2969.55
810.10	3323.85
810.27	3039.19
810.44	3346.38
810.62	3401.68
810.79	3078.10
810.96	3098.58
811.14	3135.44
811.31	3332.05
811.48	3250.13
811.66	3168.21
811.83	3440.59
812.00	3364.81
812.18	3160.02
812.35	3405.77
812.52	3098.58
812.69	3139.54
812.87	3014.61
813.04	3004.37
813.21	3229.65
813.39	3121.10
813.56	3030.99
813.73	3340.24
813.91	2969.55
814.08	3286.99
814.25	3139.54
814.42	2854.87
814.60	3184.59
814.77	3303.37
814.94	3012.56
815.12	3114.96
815.29	3571.66
815.46	3041.23
815.63	3063.76
815.81	3119.06
815.98	3235.79
816.15	3186.64
816.33	3215.31
816.50	3080.14
816.67	3188.69
816.84	3141.58
817.02	2975.70
817.19	3063.76
817.36	3370.96
817.53	3336.14
817.71	2957.27
817.88	3174.35
818.05	3211.22
818.22	3176.40
818.40	3303.37
818.57	3067.86
818.74	3305.42
818.91	3221.45
819.09	3209.17
819.26	3225.55
819.43	3153.87
819.60	3125.20
819.78	3248.08
819.95	3221.45
820.12	2981.84
820.29	3456.97
820.47	3393.48
820.64	2926.55
820.81	2996.18
820.98	3071.95
821.15	3100.62
821.33	3205.07
821.50	2926.55
821.67	3274.70
821.84	3030.99
822.02	3045.33
822.19	3467.21
822.36	3196.88
822.53	2990.03
822.70	2910.16
822.88	3119.06
823.05	3526.60
823.22	3129.30
823.39	3112.91
823.56	3256.27
823.74	3700.68
823.91	2959.31
824.08	3026.90
824.25	3098.58
824.42	3596.23
824.60	2944.98
824.77	3147.73
824.94	3215.31
825.11	3395.53
825.28	2951.12
825.45	3264.46
825.63	3334.09
825.80	3028.95
825.97	3157.97
826.14	3147.73
826.31	2934.74
826.48	3375.05
826.66	3098.58
826.83	3129.30
827.00	3243.98
827.17	3139.54
827.34	3067.86
827.51	2979.79
827.69	3286.99
827.86	3024.85
828.03	3063.76
828.20	3092.43
828.37	3123.15
828.54	3416.01
828.71	2973.65
828.89	3182.54
829.06	3289.04
829.23	3491.79
829.40	3026.90
829.57	3053.52
829.74	3395.53
829.91	3139.54
830.09	2994.13
830.26	3282.89
830.43	3545.03
830.60	3157.97
830.77	3172.30
830.94	3217.36
831.11	3413.96
831.28	3139.54
831.46	3291.09
831.63	3061.71
831.80	3426.25
831.97	3041.23
832.14	3043.28
832.31	3108.82
832.48	3340.24
832.65	3510.22
832.82	3166.16
832.99	3151.82
833.17	3096.53
833.34	3557.32
833.51	3092.43
833.68	2836.44
833.85	3401.68
834.02	3100.62
834.19	2969.55
834.36	3114.96
834.53	3311.57
834.70	3469.26
834.87	3059.67
835.04	2815.96
835.22	3104.72
835.39	3164.11
835.56	2842.58
835.73	2969.55
835.90	3424.20
836.07	3133.39
836.24	3049.43
836.41	2885.59
836.58	3104.72
836.75	3528.65
836.92	2914.26
837.09	2938.84
837.26	3413.96
837.43	3373.00
837.60	2975.70
837.77	2926.55
837.94	3426.25
838.12	3456.97
838.29	2858.96
838.46	2777.05
838.63	2971.60
838.80	3493.83
838.97	3020.75
839.14	2844.63
839.31	3381.20
839.48	3422.16
839.65	2899.92
839.82	2981.84
839.99	3395.53
840.16	3323.85
840.33	2885.59
840.50	2969.55
840.67	3104.72
840.84	2822.10
841.01	2815.96
841.18	2934.74
841.35	3278.80
841.52	3399.63
841.69	3215.31
841.86	2987.99
842.03	3194.83
842.20	3403.72
842.37	2875.35
842.54	3016.66
842.71	3192.78
842.88	3074.00
843.05	2852.82
843.22	2942.93
843.39	3348.43
843.56	3153.87
843.73	2861.01
843.90	3035.09
844.07	3278.80
844.24	3432.40
844.41	2994.13
844.58	2947.03
844.75	3305.42
844.92	3284.94
845.09	2977.75
845.26	2865.11
845.43	3403.72
845.60	3164.11
845.77	3045.33
845.94	2992.08
846.10	3409.87
846.27	2930.64
846.44	2815.96
846.61	2813.91
846.78	3446.73
846.95	3403.72
847.12	2826.20
847.29	2942.93
847.46	3061.71
847.63	3471.31
847.80	2869.20
847.97	2856.92
848.14	3725.26
848.31	3164.11
848.48	2799.57
848.65	2893.78
848.82	3151.82
848.98	3778.50
849.15	3106.77
849.32	3049.43
849.49	3379.15
849.66	3264.46
849.83	2957.27
850.00	2852.82
850.17	3373.00
850.34	3076.05
850.51	2846.68
850.68	2969.55
850.85	3698.63
851.01	3311.57
851.18	2889.68
851.35	2942.93
851.52	3356.62
851.69	3499.98
851.86	2805.72
852.03	2801.62
852.20	3420.11
852.37	3295.18
852.53	2777.05
852.70	2910.16
852.87	3385.29
853.04	3418.06
853.21	2879.44
853.38	3139.54
853.55	3506.12
853.72	3553.23
853.89	2832.34
854.05	2836.44
854.22	3280.85
854.39	3209.17
854.56	2830.29
854.73	2963.41
854.90	3119.06
855.07	3235.79
855.23	2783.19
855.40	2881.49
855.57	3209.17
855.74	2746.33
855.91	3119.06
856.08	2822.10
856.25	3000.27
856.41	3200.98
856.58	2951.12
856.75	2922.45
856.92	3080.14
857.09	3448.78
857.26	2697.17
857.42	2963.41
857.59	3473.36
857.76	3117.01
857.93	2858.96
858.10	3002.32
858.27	3049.43
858.43	3237.84
858.60	2885.59
858.77	2770.90
858.94	3176.40
859.11	3450.83
859.27	3055.57
859.44	2797.53
859.61	3721.16
859.78	3323.85
859.95	2887.64
860.12	2846.68
860.28	3680.20
860.45	3583.95
860.62	2877.40
860.79	2977.75
860.95	3184.59
861.12	3096.53
861.29	2875.35
861.46	2832.34
861.63	3223.50
861.79	3313.61
861.96	2811.86
862.13	2910.16
862.30	3542.99
862.47	3084.24
862.63	2828.24
862.80	2963.41
862.97	3393.48
863.14	3332.05
863.30	2936.79
863.47	2856.92
863.64	3610.57
863.81	3284.94
863.97	2731.99
864.14	2942.93
864.31	3246.03
864.48	3336.14
864.65	2918.36
864.81	3086.29
864.98	3385.29
865.15	3348.43
865.32	3008.47
865.48	2987.99
865.65	3641.29
865.82	3188.69
865.98	2977.75
866.15	2885.59
866.32	3260.37
866.49	3151.82
866.65	3090.38
866.82	2912.21
866.99	3203.02
867.16	3157.97
867.32	2918.36
867.49	2818.00
867.66	3186.64
867.83	3258.32
867.99	2867.16
868.16	2940.88
868.33	3074.00
868.49	3262.41
868.66	2961.36
868.83	2977.75
868.99	3303.37
869.16	3272.65
869.33	3098.58
869.50	2996.18
869.66	3282.89
869.83	3217.36
870.00	2873.30
870.16	3063.76
870.33	3219.41
870.50	3362.76
870.66	2969.55
870.83	2940.88
871.00	3278.80
871.17	3364.81
871.33	3008.47
871.50	2904.02
871.67	3182.54
871.83	3194.83
872.00	2955.22
872.17	2895.83
872.33	3665.86
872.50	3452.88
872.67	2873.30
872.83	2883.54
873.00	3295.18
873.17	3233.74
873.33	3012.56
873.50	2967.51
873.67	3092.43
873.83	3188.69
874.00	2897.88
874.16	3086.29
874.33	3272.65
874.50	3024.85
874.66	2914.26
874.83	2981.84
875.00	3493.83
875.16	3475.40
875.33	3035.09
875.50	2754.52
875.66	3143.63
875.83	3383.24
875.99	2987.99
876.16	3045.33
876.33	3112.91
876.49	3188.69
876.66	3041.23
876.83	2971.60
876.99	2899.92
877.16	3217.36
877.32	2928.60
877.49	3033.04
877.66	3342.28
877.82	3524.55
877.99	2992.08
878.15	3151.82
878.32	3270.61
878.49	3307.47
878.65	3002.32
878.82	3147.73
878.98	3205.07
879.15	3483.59
879.32	3055.57
879.48	3090.38
879.65	3256.27
879.81	3211.22
879.98	2953.17
880.15	2975.70
880.31	3356.62
880.48	3055.57
880.64	3000.27
880.81	3024.85
880.97	3522.51
881.14	3493.83
881.31	2887.64
881.47	3041.23
881.64	3178.45
881.80	2951.12
881.97	3133.39
882.13	2983.89
882.30	3074.00
882.47	3129.30
882.63	2914.26
882.80	2871.25
882.96	3213.26
883.13	3475.40
883.29	2889.68
883.46	2879.44
883.62	3676.10
883.79	3176.40
883.95	3069.91
884.12	2852.82
884.29	3434.44
884.45	3243.98
884.62	2947.03
884.78	2897.88
884.95	3493.83
885.11	3037.14
885.28	3033.04
885.44	2938.84
885.61	3491.79
885.77	3583.95
885.94	3049.43
886.10	2928.60
886.27	3268.56
886.43	3645.38
886.60	3119.06
886.76	2920.40
886.93	3098.58
887.09	3317.71
887.26	2820.05
887.42	2949.08
887.59	3405.77
887.75	3745.73
887.92	3157.97
888.08	3160.02
888.25	3577.80
888.41	3348.43
888.58	3041.23
888.74	2834.39
888.91	3112.91
>>>>>End Processed Spectral Data<<<<<
