SpectraSuite Data File
++++++++++++++++++++++++++++++++++++
Date: Fri May 06 08:13:54 CEST 2016
User: root
Dark Spectrum Present: No
Reference Spectrum Present: No
Number of Sampled Component Spectra: 1
Spectrometers: USB4C02835
Integration Time (usec): 100000 (USB4C02835)
Spectra Averaged: 1 (USB4C02835)
Boxcar Smoothing: 0 (USB4C02835)
Correct for Electrical Dark: No (USB4C02835)
Strobe/Lamp Enabled: No (USB4C02835)
Correct for Detector Non-linearity: No (USB4C02835)
Correct for Stray Light: No (USB4C02835)
Number of Pixels in Processed Spectrum: 3648
>>>>>Begin Processed Spectral Data<<<<<
177.47	2207.71
177.69	2207.71
177.91	2207.71
178.13	2265.05
178.36	2263.01
178.58	3063.76
178.80	3094.48
179.02	2975.70
179.24	3071.95
179.46	2707.41
179.68	2881.49
179.90	3256.27
180.13	3272.65
180.35	2721.75
180.57	2809.81
180.79	3401.68
181.01	3299.28
181.23	2836.44
181.45	2940.88
181.67	3463.12
181.90	3459.02
182.12	2932.69
182.34	2627.54
182.56	3409.87
182.78	3368.91
183.00	2789.33
183.22	2914.26
183.44	2951.12
183.66	3950.53
183.89	3057.62
184.11	2869.20
184.33	3352.52
184.55	3547.08
184.77	2856.92
184.99	2820.05
185.21	3229.65
185.43	3803.08
185.65	2869.20
185.87	2863.06
186.10	3796.93
186.32	3778.50
186.54	2981.84
186.76	2977.75
186.98	3465.16
187.20	3346.38
187.42	2875.35
187.64	2893.78
187.86	3370.96
188.08	3506.12
188.30	2756.57
188.52	2871.25
188.75	3487.69
188.97	3461.07
189.19	2764.76
189.41	2871.25
189.63	3434.44
189.85	3241.93
190.07	2752.47
190.29	2731.99
190.51	3401.68
190.73	3082.19
190.95	3090.38
191.17	2826.20
191.39	2990.03
191.61	3205.07
191.84	2869.20
192.06	3035.09
192.28	2983.89
192.50	4050.88
192.72	3055.57
192.94	2944.98
193.16	3616.71
193.38	3438.54
193.60	2742.23
193.82	3014.61
194.04	3518.41
194.26	3438.54
194.48	2877.40
194.70	2848.72
194.92	3194.83
195.14	3428.30
195.36	2801.62
195.58	2996.18
195.80	3219.41
196.02	3155.92
196.24	2830.29
196.46	2912.21
196.69	3184.59
196.91	3715.02
197.13	2947.03
197.35	2967.51
197.57	3557.32
197.79	3385.29
198.01	2994.13
198.23	2934.74
198.45	3479.50
198.67	3057.62
198.89	2697.17
199.11	2961.36
199.33	3225.55
199.55	2809.81
199.77	2801.62
199.99	3063.76
200.21	3248.08
200.43	3418.06
200.65	2787.29
200.87	2680.79
201.09	3280.85
201.31	3246.03
201.53	2869.20
201.75	2924.50
201.97	3368.91
202.19	3377.10
202.41	2987.99
202.63	2983.89
202.85	3403.72
203.07	3440.59
203.29	2918.36
203.51	2777.05
203.73	3205.07
203.95	3852.23
204.17	2832.34
204.39	3000.27
204.61	3209.17
204.83	3221.45
205.05	2996.18
205.27	2861.01
205.49	3743.69
205.71	3286.99
205.93	2715.61
206.15	2811.86
206.37	3325.90
206.59	3239.89
206.81	2721.75
207.03	2793.43
207.25	3088.34
207.47	3409.87
207.69	2850.77
207.91	3108.82
208.13	3708.87
208.34	3192.78
208.56	2830.29
208.78	2893.78
209.00	3209.17
209.22	3129.30
209.44	2893.78
209.66	2797.53
209.88	3260.37
210.10	3237.84
210.32	2865.11
210.54	2936.79
210.76	3172.30
210.98	3504.07
211.20	2756.57
211.42	2953.17
211.64	3481.55
211.86	3397.58
212.08	2947.03
212.30	2811.86
212.52	3237.84
212.74	3459.02
212.96	2990.03
213.17	2951.12
213.39	3418.06
213.61	3590.09
213.83	2826.20
214.05	2738.13
214.27	3514.31
214.49	3082.19
214.71	2846.68
214.93	2981.84
215.15	3327.95
215.37	3526.60
215.59	2654.17
215.81	2981.84
216.03	3567.56
216.24	3358.67
216.46	2861.01
216.68	2899.92
216.90	3454.92
217.12	3508.17
217.34	2875.35
217.56	3043.28
217.78	3622.86
218.00	3373.00
218.22	2897.88
218.44	3045.33
218.66	3373.00
218.87	3637.19
219.09	2883.54
219.31	2820.05
219.53	3377.10
219.75	3170.26
219.97	2879.44
220.19	2893.78
220.41	3307.47
220.63	3604.42
220.85	2779.09
221.06	2848.72
221.28	3524.55
221.50	3403.72
221.72	2861.01
221.94	2707.41
222.16	3348.43
222.38	3471.31
222.60	2779.09
222.82	2899.92
223.03	3454.92
223.25	3030.99
223.47	2863.06
223.69	3172.30
223.91	3430.35
224.13	3254.22
224.35	2746.33
224.57	3074.00
224.78	3465.16
225.00	3114.96
225.22	2987.99
225.44	2781.14
225.66	3434.44
225.88	3055.57
226.10	3004.37
226.32	2893.78
226.53	3565.51
226.75	3213.26
226.97	2897.88
227.19	2828.24
227.41	3125.20
227.63	3219.41
227.85	2754.52
228.06	2838.48
228.28	3356.62
228.50	3514.31
228.72	2725.85
228.94	2844.63
229.16	2881.49
229.37	3071.95
229.59	2688.98
229.81	3155.92
230.03	3147.73
230.25	3002.32
230.47	2758.61
230.69	2805.72
230.90	3444.68
231.12	3178.45
231.34	3004.37
231.56	2992.08
231.78	3049.43
232.00	3403.72
232.21	2920.40
232.43	2856.92
232.65	2854.87
232.87	3358.67
233.09	2717.65
233.30	2797.53
233.52	3528.65
233.74	3221.45
233.96	2795.48
234.18	3151.82
234.40	3278.80
234.61	3731.40
234.83	2756.57
235.05	2850.77
235.27	3815.37
235.49	3536.84
235.70	2803.67
235.92	2926.55
236.14	3401.68
236.36	3852.23
236.58	2783.19
236.79	2969.55
237.01	3338.19
237.23	3260.37
237.45	3092.43
237.67	2934.74
237.88	3315.66
238.10	3622.86
238.32	2881.49
238.54	2795.48
238.76	3237.84
238.97	3098.58
239.19	2801.62
239.41	2899.92
239.63	3502.03
239.85	3207.12
240.06	2832.34
240.28	2848.72
240.50	3520.46
240.72	3299.28
240.93	2811.86
241.15	3014.61
241.37	3309.52
241.59	3508.17
241.81	2789.33
242.02	2926.55
242.24	3420.11
242.46	3387.34
242.68	2715.61
242.89	2750.42
243.11	3461.07
243.33	3272.65
243.55	2842.58
243.76	2891.73
243.98	3188.69
244.20	3192.78
244.42	2838.48
244.64	2846.68
244.85	2987.99
245.07	3065.81
245.29	2815.96
245.51	2844.63
245.72	3330.00
245.94	3483.59
246.16	2867.16
246.38	2840.53
246.59	3090.38
246.81	3092.43
247.03	2791.38
247.24	2691.03
247.46	3168.21
247.68	3321.81
247.90	2801.62
248.11	2836.44
248.33	3432.40
248.55	3266.51
248.77	2934.74
248.98	2987.99
249.20	3504.07
249.42	3297.23
249.64	2832.34
249.85	2842.58
250.07	3174.35
250.29	3438.54
250.50	2885.59
250.72	2754.52
250.94	3377.10
251.16	3751.88
251.37	2850.77
251.59	2938.84
251.81	3432.40
252.02	3643.34
252.24	2828.24
252.46	3016.66
252.68	3059.67
252.89	3190.74
253.11	2709.46
253.33	2953.17
253.54	3590.09
253.76	3024.85
253.98	2869.20
254.20	2887.64
254.41	3135.44
254.63	3213.26
254.85	2746.33
255.06	3008.47
255.28	3330.00
255.50	3262.41
255.71	2820.05
255.93	2768.85
256.15	3239.89
256.36	3373.00
256.58	2766.81
256.80	2760.66
257.02	3198.93
257.23	3174.35
257.45	2891.73
257.67	3002.32
257.88	3172.30
258.10	3307.47
258.32	2891.73
258.53	2977.75
258.75	3573.71
258.97	3078.10
259.18	2754.52
259.40	2822.10
259.62	3655.62
259.83	3526.60
260.05	2815.96
260.27	3676.10
260.48	3479.50
260.70	3033.04
260.92	2729.94
261.13	2932.69
261.35	3301.33
261.57	3348.43
261.78	2711.51
262.00	2856.92
262.22	3393.48
262.43	3041.23
262.65	2824.15
262.86	2944.98
263.08	3745.73
263.30	3295.18
263.51	2738.13
263.73	2797.53
263.95	3610.57
264.16	3188.69
264.38	2676.70
264.60	2723.80
264.81	3147.73
265.03	3471.31
265.25	3258.32
265.46	2848.72
265.68	3495.88
265.89	3377.10
266.11	2731.99
266.33	2885.59
266.54	3512.27
266.76	3330.00
266.98	2979.79
267.19	3106.77
267.41	3489.74
267.62	3186.64
267.84	2615.26
268.06	2951.12
268.27	3307.47
268.49	3469.26
268.70	2979.79
268.92	2922.45
269.14	3233.74
269.35	3026.90
269.57	2955.22
269.79	2979.79
270.00	3065.81
270.22	3620.81
270.43	2705.37
270.65	2731.99
270.87	3340.24
271.08	3391.44
271.30	3020.75
271.51	2818.00
271.73	3442.64
271.95	3479.50
272.16	2738.13
272.38	3008.47
272.59	3215.31
272.81	3393.48
273.02	2844.63
273.24	2987.99
273.46	3561.42
273.67	3004.37
273.89	2721.75
274.10	2934.74
274.32	3643.34
274.54	3354.57
274.75	2975.70
274.97	2983.89
275.18	3307.47
275.40	3401.68
275.61	2916.31
275.83	2987.99
276.05	3076.05
276.26	3215.31
276.48	2973.65
276.69	3047.38
276.91	3117.01
277.12	3645.38
277.34	3053.52
277.55	3092.43
277.77	3246.03
277.99	3229.65
278.20	2992.08
278.42	2871.25
278.63	3100.62
278.85	3082.19
279.06	2949.08
279.28	3053.52
279.49	3444.68
279.71	3344.33
279.93	3028.95
280.14	3026.90
280.36	3149.78
280.57	3495.88
280.79	3065.81
281.00	2922.45
281.22	3078.10
281.43	3506.12
281.65	2820.05
281.86	2899.92
282.08	3407.82
282.29	3651.53
282.51	2848.72
282.73	2871.25
282.94	2973.65
283.16	3389.39
283.37	3061.71
283.59	3018.71
283.80	3373.00
284.02	3278.80
284.23	3047.38
284.45	3045.33
284.66	3096.53
284.88	3033.04
285.09	2940.88
285.31	3043.28
285.52	3307.47
285.74	3043.28
285.95	3166.16
286.17	3047.38
286.38	3448.78
286.60	3151.82
286.81	2942.93
287.03	2928.60
287.24	3256.27
287.46	3409.87
287.67	3047.38
287.89	3231.69
288.10	3268.56
288.32	3278.80
288.53	3123.15
288.75	3022.80
288.96	3446.73
289.18	3272.65
289.39	2914.26
289.61	3047.38
289.82	3698.63
290.04	3657.67
290.25	2944.98
290.47	3098.58
290.68	3229.65
290.90	3467.21
291.11	2756.57
291.33	3133.39
291.54	3117.01
291.76	3098.58
291.97	3149.78
292.18	3055.57
292.40	3196.88
292.61	3127.25
292.83	3270.61
293.04	3018.71
293.26	3317.71
293.47	3268.56
293.69	2961.36
293.90	2914.26
294.12	3569.61
294.33	3252.17
294.55	3022.80
294.76	3205.07
294.97	3641.29
295.19	3583.95
295.40	3022.80
295.62	3057.62
295.83	3481.55
296.05	3131.34
296.26	3127.25
296.48	3000.27
296.69	3282.89
296.90	3213.26
297.12	3071.95
297.33	3188.69
297.55	3307.47
297.76	3393.48
297.98	3110.86
298.19	3121.10
298.41	3203.02
298.62	3096.53
298.83	3160.02
299.05	3098.58
299.26	3270.61
299.48	3078.10
299.69	3102.67
299.90	3004.37
300.12	3139.54
300.33	3409.87
300.55	3037.14
300.76	3100.62
300.98	3112.91
301.19	3465.16
301.40	3004.37
301.62	2967.51
301.83	3362.76
302.05	3295.18
302.26	2963.41
302.47	3018.71
302.69	3123.15
302.90	3286.99
303.12	2758.61
303.33	3094.48
303.54	3708.87
303.76	3106.77
303.97	2985.94
304.19	3237.84
304.40	3053.52
304.61	3403.72
304.83	3114.96
305.04	3067.86
305.26	3454.92
305.47	3237.84
305.68	2961.36
305.90	2875.35
306.11	3512.27
306.33	3258.32
306.54	2803.67
306.75	3028.95
306.97	2949.08
307.18	3155.92
307.39	2987.99
307.61	3063.76
307.82	3270.61
308.04	3373.00
308.25	2899.92
308.46	3184.59
308.68	3278.80
308.89	3243.98
309.10	3153.87
309.32	3084.24
309.53	3237.84
309.74	3422.16
309.96	2942.93
310.17	3098.58
310.39	3139.54
310.60	3424.20
310.81	3078.10
311.03	2838.48
311.24	3430.35
311.45	3272.65
311.67	3229.65
311.88	3110.86
312.09	3145.68
312.31	3114.96
312.52	2893.78
312.73	2967.51
312.95	2977.75
313.16	3010.51
313.37	3178.45
313.59	3168.21
313.80	3559.37
314.01	3651.53
314.23	2959.31
314.44	2944.98
314.65	3065.81
314.87	3094.48
315.08	3047.38
315.29	3026.90
315.51	3119.06
315.72	3002.32
315.93	3020.75
316.15	3000.27
316.36	3184.59
316.57	3338.19
316.79	2979.79
317.00	2910.16
317.21	3332.05
317.43	3166.16
317.64	2969.55
317.85	2926.55
318.07	3123.15
318.28	3147.73
318.49	3078.10
318.70	3264.46
318.92	3338.19
319.13	3375.05
319.34	3121.10
319.56	2990.03
319.77	3362.76
319.98	3409.87
320.20	3260.37
320.41	3205.07
320.62	3432.40
320.83	3069.91
321.05	3205.07
321.26	3006.42
321.47	3340.24
321.69	3577.80
321.90	2951.12
322.11	2953.17
322.32	3280.85
322.54	3622.86
322.75	3065.81
322.96	3928.00
323.18	2975.70
323.39	2899.92
323.60	2867.16
323.81	3092.43
324.03	3082.19
324.24	3248.08
324.45	3067.86
324.66	2926.55
324.88	3487.69
325.09	3567.56
325.30	2947.03
325.52	2951.12
325.73	3373.00
325.94	3123.15
326.15	2811.86
326.37	2826.20
326.58	3389.39
326.79	3579.85
327.00	2944.98
327.22	2930.64
327.43	3172.30
327.64	3078.10
327.85	3192.78
328.07	3004.37
328.28	3657.67
328.49	3198.93
328.70	3033.04
328.92	2973.65
329.13	3196.88
329.34	3430.35
329.55	3184.59
329.76	3219.41
329.98	3151.82
330.19	3475.40
330.40	3067.86
330.61	3151.82
330.83	3319.76
331.04	3104.72
331.25	3086.29
331.46	3123.15
331.68	3041.23
331.89	3504.07
332.10	3006.42
332.31	2930.64
332.52	3266.51
332.74	3497.93
332.95	2807.77
333.16	3000.27
333.37	3465.16
333.58	3160.02
333.80	3057.62
334.01	2869.20
334.22	3291.09
334.43	3164.11
334.64	2942.93
334.86	2953.17
335.07	3141.58
335.28	3622.86
335.49	2912.21
335.70	3082.19
335.92	3545.03
336.13	3721.16
336.34	2971.60
336.55	2992.08
336.76	3442.64
336.98	2861.01
337.19	3016.66
337.40	3123.15
337.61	3885.00
337.82	3203.02
338.04	3188.69
338.25	2815.96
338.46	3205.07
338.67	3215.31
338.88	2910.16
339.09	2897.88
339.31	3143.63
339.52	3039.19
339.73	2916.31
339.94	3024.85
340.15	3366.86
340.36	3174.35
340.58	3094.48
340.79	2936.79
341.00	3387.34
341.21	3014.61
341.42	3258.32
341.63	2998.23
341.85	3456.97
342.06	3342.28
342.27	2983.89
342.48	3170.26
342.69	3047.38
342.90	3352.52
343.12	3405.77
343.33	2885.59
343.54	3506.12
343.75	3588.04
343.96	3137.49
344.17	2942.93
344.38	3180.50
344.60	3121.10
344.81	2887.64
345.02	3051.47
345.23	3471.31
345.44	3758.02
345.65	3071.95
345.86	3139.54
346.07	3358.67
346.29	3198.93
346.50	3203.02
346.71	3039.19
346.92	3520.46
347.13	3698.63
347.34	2985.94
347.55	2926.55
347.76	3428.30
347.98	2940.88
348.19	2951.12
348.40	3200.98
348.61	3143.63
348.82	3598.28
349.03	3123.15
349.24	2938.84
349.45	3798.98
349.66	2975.70
349.88	2906.07
350.09	2949.08
350.30	3459.02
350.51	3504.07
350.72	3176.40
350.93	3010.51
351.14	3207.12
351.35	3379.15
351.56	3037.14
351.77	3049.43
351.99	3364.81
352.20	3649.48
352.41	3157.97
352.62	2854.87
352.83	3424.20
353.04	3317.71
353.25	2983.89
353.46	2985.94
353.67	3493.83
353.88	2955.22
354.09	2920.40
354.30	3084.24
354.52	3409.87
354.73	3225.55
354.94	2942.93
355.15	3018.71
355.36	3737.54
355.57	3200.98
355.78	2895.83
355.99	2906.07
356.20	3303.37
356.41	3555.27
356.62	3037.14
356.83	3012.56
357.04	3506.12
357.25	2885.59
357.46	2953.17
357.68	2899.92
357.89	3047.38
358.10	3205.07
358.31	2985.94
358.52	3033.04
358.73	2983.89
358.94	3069.91
359.15	3006.42
359.36	3094.48
359.57	3291.09
359.78	3262.41
359.99	3162.06
360.20	2916.31
360.41	3231.69
360.62	3413.96
360.83	3102.67
361.04	3078.10
361.25	3356.62
361.46	3590.09
361.67	3129.30
361.88	3041.23
362.09	3432.40
362.30	3260.37
362.51	2992.08
362.72	3061.71
362.93	3368.91
363.14	3356.62
363.35	3053.52
363.56	2983.89
363.78	3512.27
363.99	3528.65
364.20	2932.69
364.41	3053.52
364.62	3641.29
364.83	3373.00
365.04	2975.70
365.25	2977.75
365.46	3741.64
365.67	3182.54
365.88	3200.98
366.09	2963.41
366.30	3200.98
366.51	3297.23
366.72	2951.12
366.93	3004.37
367.14	3299.28
367.35	3590.09
367.56	2893.78
367.77	3137.49
367.98	3323.85
368.18	3334.09
368.39	3192.78
368.60	2947.03
368.81	3440.59
369.02	3350.48
369.23	3026.90
369.44	2840.53
369.65	3217.36
369.86	3311.57
370.07	3131.34
370.28	2936.79
370.49	3366.86
370.70	3317.71
370.91	2912.21
371.12	2887.64
371.33	3461.07
371.54	3141.58
371.75	3123.15
371.96	2750.42
372.17	3262.41
372.38	3211.22
372.59	3022.80
372.80	2895.83
373.01	3164.11
373.22	3340.24
373.43	2920.40
373.64	2959.31
373.85	3493.83
374.06	3616.71
374.26	3229.65
374.47	3119.06
374.68	3508.17
374.89	3364.81
375.10	2994.13
375.31	3092.43
375.52	3307.47
375.73	3325.90
375.94	2820.05
376.15	3119.06
376.36	3188.69
376.57	3243.98
376.78	3014.61
376.99	2996.18
377.20	3590.09
377.40	3268.56
377.61	3356.62
377.82	2947.03
378.03	3596.23
378.24	3395.53
378.45	3108.82
378.66	3147.73
378.87	2901.97
379.08	2990.03
379.29	2994.13
379.50	3127.25
379.71	3258.32
379.91	3383.24
380.12	3024.85
380.33	3035.09
380.54	3336.14
380.75	3293.13
380.96	3000.27
381.17	3076.05
381.38	3176.40
381.59	3344.33
381.80	3041.23
382.00	3205.07
382.21	3352.52
382.42	3635.14
382.63	3403.72
382.84	3186.64
383.05	3477.45
383.26	3577.80
383.47	3190.74
383.68	2922.45
383.88	3362.76
384.09	3293.13
384.30	3162.06
384.51	3135.44
384.72	3155.92
384.93	2996.18
385.14	3123.15
385.35	3258.32
385.55	3008.47
385.76	3463.12
385.97	3035.09
386.18	2912.21
386.39	3186.64
386.60	3184.59
386.81	2983.89
387.02	2877.40
387.22	3051.47
387.43	3438.54
387.64	3143.63
387.85	3307.47
388.06	3405.77
388.27	4431.80
388.48	7819.14
388.68	12193.61
388.89	14991.13
389.10	16520.96
389.31	16287.50
389.52	12957.50
389.73	11155.29
389.93	10510.18
390.14	9183.09
390.35	8583.04
390.56	8054.66
390.77	6543.26
390.98	4939.70
391.18	4153.28
391.39	3971.01
391.60	3323.85
391.81	3248.08
392.02	3078.10
392.23	3794.89
392.43	3278.80
392.64	3127.25
392.85	3106.77
393.06	3620.81
393.27	3313.61
393.47	2979.79
393.68	3055.57
393.89	3227.60
394.10	3469.26
394.31	2985.94
394.52	2981.84
394.72	3092.43
394.93	3608.52
395.14	2877.40
395.35	3200.98
395.56	3176.40
395.76	3237.84
395.97	3012.56
396.18	3194.83
396.39	3377.10
396.60	3930.05
396.80	3424.20
397.01	3315.66
397.22	3442.64
397.43	3499.98
397.64	3098.58
397.84	3209.17
398.05	3704.78
398.26	3301.33
398.47	3184.59
398.67	3274.70
398.88	3241.93
399.09	3426.25
399.30	3000.27
399.51	3108.82
399.71	3141.58
399.92	3239.89
400.13	3133.39
400.34	3080.14
400.54	3311.57
400.75	3604.42
400.96	3241.93
401.17	3370.96
401.37	3383.24
401.58	3286.99
401.79	3008.47
402.00	3178.45
402.21	3821.51
402.41	3438.54
402.62	3389.39
402.83	3475.40
403.04	3704.78
403.24	4112.32
403.45	3227.60
403.66	3377.10
403.87	3542.99
404.07	3706.82
404.28	3276.75
404.49	3407.82
404.70	3344.33
404.90	3518.41
405.11	3033.04
405.32	3139.54
405.52	3211.22
405.73	3168.21
405.94	3067.86
406.15	3082.19
406.35	3323.85
406.56	3403.72
406.77	3045.33
406.98	3049.43
407.18	3129.30
407.39	3614.66
407.60	3061.71
407.80	3127.25
408.01	3145.68
408.22	3481.55
408.43	2959.31
408.63	3196.88
408.84	3403.72
409.05	3407.82
409.25	2994.13
409.46	3016.66
409.67	3129.30
409.88	3190.74
410.08	3061.71
410.29	3035.09
410.50	3475.40
410.70	3387.34
410.91	3014.61
411.12	3082.19
411.32	3266.51
411.53	3010.51
411.74	3112.91
411.95	3117.01
412.15	3311.57
412.36	3504.07
412.57	3293.13
412.77	3274.70
412.98	3239.89
413.19	3190.74
413.39	3133.39
413.60	3069.91
413.81	3585.99
414.01	3033.04
414.22	3039.19
414.43	3272.65
414.63	3295.18
414.84	3440.59
415.05	3131.34
415.25	2934.74
415.46	3508.17
415.67	3221.45
415.87	3108.82
416.08	2987.99
416.29	3147.73
416.49	3362.76
416.70	3131.34
416.91	3002.32
417.11	3225.55
417.32	3506.12
417.53	3225.55
417.73	3057.62
417.94	3188.69
418.15	3346.38
418.35	3100.62
418.56	3100.62
418.77	3717.06
418.97	3309.52
419.18	3227.60
419.38	2779.09
419.59	3184.59
419.80	3545.03
420.00	2967.51
420.21	3078.10
420.42	3467.21
420.62	3450.83
420.83	3012.56
421.04	3008.47
421.24	3307.47
421.45	3444.68
421.65	3041.23
421.86	3053.52
422.07	3364.81
422.27	3321.81
422.48	2961.36
422.69	2893.78
422.89	3282.89
423.10	3209.17
423.30	3022.80
423.51	3055.57
423.72	3362.76
423.92	3434.44
424.13	2965.46
424.33	3139.54
424.54	3438.54
424.75	3284.94
424.95	3325.90
425.16	2973.65
425.36	3246.03
425.57	3405.77
425.78	3184.59
425.98	3151.82
426.19	3241.93
426.39	3039.19
426.60	3139.54
426.81	3219.41
427.01	3379.15
427.22	3098.58
427.42	2879.44
427.63	2994.13
427.83	3522.51
428.04	3721.16
428.25	3188.69
428.45	3137.49
428.66	3569.61
428.86	3274.70
429.07	3045.33
429.28	3106.77
429.48	3264.46
429.69	3086.29
429.89	3172.30
430.10	3059.67
430.30	3340.24
430.51	3475.40
430.71	3024.85
430.92	3170.26
431.13	3225.55
431.33	3395.53
431.54	3139.54
431.74	3221.45
431.95	3727.30
432.15	3121.10
432.36	3143.63
432.56	3102.67
432.77	3764.17
432.98	3704.78
433.18	3119.06
433.39	2994.13
433.59	3340.24
433.80	3696.58
434.00	3213.26
434.21	3135.44
434.41	3104.72
434.62	3737.54
434.82	2951.12
435.03	3012.56
435.23	3325.90
435.44	3014.61
435.64	3024.85
435.85	3094.48
436.06	3416.01
436.26	3555.27
436.47	3071.95
436.67	2981.84
436.88	3225.55
437.08	3506.12
437.29	3170.26
437.49	3215.31
437.70	3477.45
437.90	3205.07
438.11	3276.75
438.31	3180.50
438.52	3510.22
438.72	3471.31
438.93	3452.88
439.13	3108.82
439.34	3491.79
439.54	3200.98
439.75	3221.45
439.95	3213.26
440.16	3090.38
440.36	3221.45
440.57	3133.39
440.77	3076.05
440.98	3270.61
441.18	3383.24
441.39	3074.00
441.59	2963.41
441.80	3778.50
442.00	3286.99
442.21	3143.63
442.41	2938.84
442.62	3436.49
442.82	3123.15
443.02	3057.62
443.23	3188.69
443.43	3186.64
443.64	3583.95
443.84	2938.84
444.05	3172.30
444.25	3225.55
444.46	3157.97
444.66	3008.47
444.87	3258.32
445.07	3008.47
445.28	3178.45
445.48	3213.26
445.69	3137.49
445.89	3762.12
446.09	3139.54
446.30	3373.00
446.50	3545.03
446.71	5152.69
446.91	6303.65
447.12	7266.19
447.32	7612.30
447.53	7640.97
447.73	6295.46
447.93	5478.32
448.14	5314.48
448.34	5453.74
448.55	4556.73
448.75	4390.84
448.96	4229.06
449.16	4024.26
449.36	3936.20
449.57	3370.96
449.77	3157.97
449.98	3231.69
450.18	3430.35
450.39	2977.75
450.59	3164.11
450.79	3344.33
451.00	3190.74
451.20	3180.50
451.41	3026.90
451.61	3420.11
451.81	3286.99
452.02	2971.60
452.22	3067.86
452.43	3223.50
452.63	3065.81
452.84	3094.48
453.04	3053.52
453.24	3315.66
453.45	3024.85
453.65	3139.54
453.86	3090.38
454.06	3321.81
454.26	3315.66
454.47	2975.70
454.67	3352.52
454.87	3323.85
455.08	3231.69
455.28	3221.45
455.49	3270.61
455.69	3086.29
455.89	3702.73
456.10	3155.92
456.30	3041.23
456.51	3420.11
456.71	3297.23
456.91	3307.47
457.12	3035.09
457.32	3356.62
457.52	2996.18
457.73	3231.69
457.93	3319.76
458.14	3166.16
458.34	2977.75
458.54	3098.58
458.75	2994.13
458.95	3485.64
459.15	3387.34
459.36	3084.24
459.56	3012.56
459.76	3844.04
459.97	3354.57
460.17	3069.91
460.37	3188.69
460.58	3407.82
460.78	3444.68
460.99	3119.06
461.19	3084.24
461.39	3180.50
461.60	3239.89
461.80	3106.77
462.00	2953.17
462.21	3272.65
462.41	3074.00
462.61	2918.36
462.82	2877.40
463.02	3354.57
463.22	3262.41
463.43	3110.86
463.63	2975.70
463.83	3561.42
464.04	3282.89
464.24	2985.94
464.44	3028.95
464.64	3338.19
464.85	3338.19
465.05	3141.58
465.25	2951.12
465.46	3157.97
465.66	3375.05
465.86	3047.38
466.07	2992.08
466.27	3200.98
466.47	2985.94
466.68	2955.22
466.88	3133.39
467.08	3444.68
467.29	3446.73
467.49	3180.50
467.69	3114.96
467.89	3385.29
468.10	3270.61
468.30	3100.62
468.50	3139.54
468.71	3416.01
468.91	2971.60
469.11	3284.94
469.31	3147.73
469.52	3149.78
469.72	3622.86
469.92	3313.61
470.13	3065.81
470.33	3198.93
470.53	3426.25
470.73	3477.45
470.94	3852.23
471.14	4175.81
471.34	4679.61
471.54	4372.41
471.75	4001.73
471.95	3780.55
472.15	3776.45
472.36	3737.54
472.56	3557.32
472.76	3878.85
472.96	3710.92
473.17	3383.24
473.37	3151.82
473.57	3289.04
473.77	3434.44
473.98	3315.66
474.18	2942.93
474.38	3942.34
474.58	3192.78
474.79	2906.07
474.99	3170.26
475.19	3555.27
475.39	3135.44
475.60	3157.97
475.80	3028.95
476.00	3295.18
476.20	3217.36
476.41	3112.91
476.61	3178.45
476.81	3561.42
477.01	3084.24
477.21	3346.38
477.42	3067.86
477.62	3086.29
477.82	3305.42
478.02	2918.36
478.23	3182.54
478.43	3098.58
478.63	3200.98
478.83	3125.20
479.03	3049.43
479.24	3590.09
479.44	3688.39
479.64	3026.90
479.84	2863.06
480.04	3192.78
480.25	3391.44
480.45	3033.04
480.65	3045.33
480.85	3542.99
481.06	3117.01
481.26	3180.50
481.46	3016.66
481.66	3344.33
481.86	3117.01
482.06	3282.89
482.27	3078.10
482.47	3166.16
482.67	3319.76
482.87	3049.43
483.07	3104.72
483.28	3190.74
483.48	3043.28
483.68	3074.00
483.88	2977.75
484.08	2926.55
484.29	2947.03
484.49	3131.34
484.69	2906.07
484.89	3575.75
485.09	3495.88
485.29	3028.95
485.50	3217.36
485.70	3198.93
485.90	3542.99
486.10	3198.93
486.30	3002.32
486.50	3524.55
486.71	3366.86
486.91	3043.28
487.11	3168.21
487.31	3004.37
487.51	3399.63
487.71	3039.19
487.91	3022.80
488.12	3084.24
488.32	2789.33
488.52	3028.95
488.72	2795.48
488.92	3385.29
489.12	3475.40
489.32	3176.40
489.53	3094.48
489.73	3053.52
489.93	3639.24
490.13	2942.93
490.33	2867.16
490.53	3295.18
490.73	3606.47
490.94	2889.68
491.14	3274.70
491.34	3422.16
491.54	3381.20
491.74	4034.50
491.94	4564.92
492.14	5076.91
492.34	5373.87
492.54	4845.49
492.75	4138.94
492.95	4388.80
493.15	4028.35
493.35	3776.45
493.55	3729.35
493.75	3651.53
493.95	3917.76
494.15	3436.49
494.35	3194.83
494.56	3344.33
494.76	3225.55
494.96	3278.80
495.16	3033.04
495.36	3299.28
495.56	3323.85
495.76	3076.05
495.96	3016.66
496.16	3041.23
496.36	3715.02
496.56	2996.18
496.77	3112.91
496.97	3325.90
497.17	3659.72
497.37	2836.44
497.57	3106.77
497.77	3286.99
497.97	3133.39
498.17	3155.92
498.37	2967.51
498.57	3479.50
498.77	3184.59
498.97	3217.36
499.17	3407.82
499.38	3248.08
499.58	3354.57
499.78	3246.03
499.98	3207.12
500.18	3155.92
500.38	3035.09
500.58	3278.80
500.78	3743.69
500.98	6229.92
501.18	8228.74
501.38	9811.82
501.58	10843.99
501.78	10772.32
501.98	8961.91
502.18	7606.16
502.38	6606.75
502.58	6580.12
502.78	5603.24
502.98	5357.49
503.18	5228.46
503.38	4945.84
503.59	4237.25
503.79	4118.47
503.99	3704.78
504.19	3932.10
504.39	3854.28
504.59	3631.05
504.79	3643.34
504.99	3983.30
505.19	3497.93
505.39	3336.14
505.59	3532.75
505.79	3723.21
505.99	3514.31
506.19	3106.77
506.39	3348.43
506.59	3149.78
506.79	3248.08
506.99	3342.28
507.19	3033.04
507.39	3416.01
507.59	3084.24
507.79	3035.09
507.99	3086.29
508.19	3250.13
508.39	3190.74
508.59	3074.00
508.79	3184.59
508.99	3647.43
509.19	3106.77
509.39	3090.38
509.59	3055.57
509.79	3110.86
509.99	3330.00
510.19	3211.22
510.39	3119.06
510.59	3297.23
510.79	3141.58
510.99	2889.68
511.19	2992.08
511.39	3647.43
511.59	3508.17
511.79	3231.69
511.99	3106.77
512.19	3665.86
512.38	3260.37
512.58	2942.93
512.78	2994.13
512.98	3469.26
513.18	3590.09
513.38	2961.36
513.58	3153.87
513.78	3223.50
513.98	3256.27
514.18	3084.24
514.38	3084.24
514.58	3366.86
514.78	3135.44
514.98	2992.08
515.18	3172.30
515.38	3043.28
515.58	3702.73
515.78	3008.47
515.98	3076.05
516.18	3370.96
516.38	3180.50
516.57	3053.52
516.77	3008.47
516.97	3395.53
517.17	3149.78
517.37	2930.64
517.57	3092.43
517.77	3217.36
517.97	3188.69
518.17	3184.59
518.37	2975.70
518.57	3188.69
518.77	3157.97
518.97	3086.29
519.16	3053.52
519.36	3540.94
519.56	3221.45
519.76	2957.27
519.96	3147.73
520.16	3598.28
520.36	3096.53
520.56	3135.44
520.76	3076.05
520.96	3209.17
521.16	3424.20
521.35	3315.66
521.55	3203.02
521.75	3336.14
521.95	3258.32
522.15	3014.61
522.35	2897.88
522.55	3100.62
522.75	3401.68
522.95	2930.64
523.14	2920.40
523.34	3237.84
523.54	3135.44
523.74	3170.26
523.94	3135.44
524.14	3065.81
524.34	3356.62
524.54	3280.85
524.73	3084.24
524.93	3440.59
525.13	3336.14
525.33	2920.40
525.53	3268.56
525.73	3420.11
525.93	3272.65
526.13	3065.81
526.32	2998.23
526.52	3477.45
526.72	3422.16
526.92	3096.53
527.12	2967.51
527.32	3022.80
527.52	3295.18
527.71	3020.75
527.91	3090.38
528.11	3176.40
528.31	3239.89
528.51	3047.38
528.71	3196.88
528.90	3385.29
529.10	3510.22
529.30	3149.78
529.50	2777.05
529.70	3280.85
529.90	3205.07
530.09	3098.58
530.29	2908.12
530.49	3086.29
530.69	3841.99
530.89	3274.70
531.09	3164.11
531.28	3207.12
531.48	3555.27
531.68	3000.27
531.88	3086.29
532.08	3436.49
532.28	3237.84
532.47	3241.93
532.67	3235.79
532.87	3315.66
533.07	3067.86
533.27	3057.62
533.46	3082.19
533.66	3291.09
533.86	3215.31
534.06	3155.92
534.26	3063.76
534.45	3205.07
534.65	3506.12
534.85	3186.64
535.05	2998.23
535.25	3418.06
535.44	2961.36
535.64	3145.68
535.84	3119.06
536.04	3241.93
536.24	3170.26
536.43	3008.47
536.63	3002.32
536.83	3332.05
537.03	3258.32
537.22	2861.01
537.42	2770.90
537.62	3293.13
537.82	3131.34
538.02	3211.22
538.21	3123.15
538.41	3841.99
538.61	3426.25
538.81	3125.20
539.00	3131.34
539.20	3024.85
539.40	3135.44
539.60	3012.56
539.79	3342.28
539.99	3327.95
540.19	3084.24
540.39	2987.99
540.58	3106.77
540.78	3499.98
540.98	3280.85
541.18	3344.33
541.37	3172.30
541.57	3241.93
541.77	3364.81
541.97	2955.22
542.16	2928.60
542.36	3151.82
542.56	3102.67
542.76	3266.51
542.95	3127.25
543.15	3483.59
543.35	3358.67
543.54	3012.56
543.74	3090.38
543.94	3561.42
544.14	3121.10
544.33	3139.54
544.53	2967.51
544.73	3200.98
544.93	3227.60
545.12	3039.19
545.32	3045.33
545.52	3196.88
545.71	3059.67
545.91	3106.77
546.11	3057.62
546.30	3100.62
546.50	3237.84
546.70	3205.07
546.90	3067.86
547.09	2930.64
547.29	3254.22
547.49	3196.88
547.68	2977.75
547.88	3237.84
548.08	3422.16
548.27	3358.67
548.47	3033.04
548.67	3139.54
548.87	3342.28
549.06	3033.04
549.26	2961.36
549.46	3336.14
549.65	3170.26
549.85	3143.63
550.05	3123.15
550.24	3065.81
550.44	3215.31
550.64	3160.02
550.83	3143.63
551.03	3549.13
551.23	3436.49
551.42	3198.93
551.62	3125.20
551.82	3323.85
552.01	3237.84
552.21	3346.38
552.41	3094.48
552.60	3532.75
552.80	3379.15
553.00	3010.51
553.19	3125.20
553.39	3680.20
553.59	3049.43
553.78	3192.78
553.98	3078.10
554.17	3076.05
554.37	3360.72
554.57	3082.19
554.76	2971.60
554.96	3141.58
555.16	3321.81
555.35	3166.16
555.55	3211.22
555.75	3340.24
555.94	3442.64
556.14	2822.10
556.33	3129.30
556.53	3270.61
556.73	3215.31
556.92	3065.81
557.12	3049.43
557.32	3708.87
557.51	3549.13
557.71	3024.85
557.90	3221.45
558.10	3565.51
558.30	3190.74
558.49	3155.92
558.69	3074.00
558.88	3403.72
559.08	3338.19
559.28	3139.54
559.47	3164.11
559.67	3334.09
559.86	3729.35
560.06	3033.04
560.26	3084.24
560.45	3387.34
560.65	3229.65
560.84	3413.96
561.04	2985.94
561.24	3336.14
561.43	3057.62
561.63	3297.23
561.82	3192.78
562.02	3360.72
562.22	3098.58
562.41	2953.17
562.61	2994.13
562.80	3092.43
563.00	3803.08
563.19	3174.35
563.39	3147.73
563.59	3307.47
563.78	3090.38
563.98	2799.57
564.17	3012.56
564.37	2965.46
564.56	3250.13
564.76	2987.99
564.96	3213.26
565.15	3274.70
565.35	3745.73
565.54	3045.33
565.74	3053.52
565.93	3477.45
566.13	3291.09
566.32	3246.03
566.52	3074.00
566.71	3315.66
566.91	3405.77
567.11	3149.78
567.30	3016.66
567.50	3442.64
567.69	3332.05
567.89	3008.47
568.08	2959.31
568.28	3235.79
568.47	3026.90
568.67	3129.30
568.86	3016.66
569.06	3379.15
569.25	3215.31
569.45	2953.17
569.64	3098.58
569.84	3112.91
570.04	3336.14
570.23	3088.34
570.43	3114.96
570.62	3366.86
570.82	3579.85
571.01	2953.17
571.21	3041.23
571.40	3112.91
571.60	3395.53
571.79	3166.16
571.99	3117.01
572.18	3039.19
572.38	3295.18
572.57	3100.62
572.77	3184.59
572.96	3778.50
573.16	3289.04
573.35	3096.53
573.55	3280.85
573.74	3418.06
573.94	3119.06
574.13	3030.99
574.33	3231.69
574.52	3446.73
574.71	3225.55
574.91	3139.54
575.10	2973.65
575.30	3086.29
575.49	3057.62
575.69	2998.23
575.88	3086.29
576.08	3205.07
576.27	3489.74
576.47	2955.22
576.66	3213.26
576.86	3577.80
577.05	3422.16
577.25	3119.06
577.44	3293.13
577.64	3235.79
577.83	3459.02
578.02	3051.47
578.22	3200.98
578.41	3686.34
578.61	3258.32
578.80	2987.99
579.00	3086.29
579.19	3340.24
579.39	3336.14
579.58	3217.36
579.77	3129.30
579.97	3624.90
580.16	3559.37
580.36	3272.65
580.55	3123.15
580.75	3364.81
580.94	3354.57
581.13	3266.51
581.33	3266.51
581.52	3229.65
581.72	3721.16
581.91	3157.97
582.11	3088.34
582.30	3397.58
582.49	3426.25
582.69	3368.91
582.88	3125.20
583.08	3373.00
583.27	3516.36
583.47	3180.50
583.66	3074.00
583.85	3049.43
584.05	3270.61
584.24	3225.55
584.44	3121.10
584.63	3465.16
584.82	3547.08
585.02	3258.32
585.21	3157.97
585.41	3434.44
585.60	3295.18
585.79	3373.00
585.99	3272.65
586.18	3401.68
586.37	4270.01
586.57	6358.94
586.76	17874.67
586.96	37352.90
587.15	50586.88
587.34	59272.31
587.54	63145.02
587.73	56122.54
587.93	40576.40
588.12	31012.39
588.31	25638.52
588.51	22767.27
588.70	21003.97
588.89	18570.98
589.09	15789.84
589.28	13770.54
589.47	10561.37
589.67	8130.44
589.86	6469.53
590.06	5105.59
590.25	4509.63
590.44	3872.71
590.64	3442.64
590.83	3631.05
591.02	3506.12
591.22	3143.63
591.41	3194.83
591.60	3231.69
591.80	3854.28
591.99	2836.44
592.18	3084.24
592.38	3422.16
592.57	3233.74
592.76	3065.81
592.96	3127.25
593.15	3160.02
593.34	3481.55
593.54	3041.23
593.73	3229.65
593.92	3416.01
594.12	3418.06
594.31	3176.40
594.50	3278.80
594.70	3379.15
594.89	3862.47
595.08	2914.26
595.28	3172.30
595.47	3934.15
595.66	3452.88
595.86	2959.31
596.05	2983.89
596.24	3209.17
596.43	3588.04
596.63	3231.69
596.82	3215.31
597.01	3461.07
597.21	3653.58
597.40	3059.67
597.59	3160.02
597.79	3243.98
597.98	3461.07
598.17	3262.41
598.36	3067.86
598.56	3516.36
598.75	3143.63
598.94	3139.54
599.14	3071.95
599.33	3225.55
599.52	3499.98
599.71	3184.59
599.91	3084.24
600.10	3354.57
600.29	3231.69
600.48	3174.35
600.68	3153.87
600.87	3403.72
601.06	3108.82
601.26	3243.98
601.45	3239.89
601.64	3254.22
601.83	3592.14
602.03	2949.08
602.22	3018.71
602.41	3530.70
602.60	3868.61
602.80	3213.26
602.99	3264.46
603.18	3104.72
603.37	3332.05
603.57	2973.65
603.76	3121.10
603.95	3512.27
604.14	3135.44
604.34	2965.46
604.53	3041.23
604.72	3307.47
604.91	3452.88
605.10	3080.14
605.30	2912.21
605.49	3700.68
605.68	3420.11
605.87	3061.71
606.07	3006.42
606.26	3348.43
606.45	3489.74
606.64	3143.63
606.84	2908.12
607.03	3311.57
607.22	3473.36
607.41	3108.82
607.60	3074.00
607.80	3522.51
607.99	3260.37
608.18	3106.77
608.37	3010.51
608.56	3139.54
608.76	3491.79
608.95	3256.27
609.14	3076.05
609.33	3499.98
609.52	3633.10
609.72	3164.11
609.91	3176.40
610.10	3327.95
610.29	3579.85
610.48	3209.17
610.68	3182.54
610.87	3235.79
611.06	3436.49
611.25	3071.95
611.44	3215.31
611.63	3194.83
611.83	3649.48
612.02	2947.03
612.21	3092.43
612.40	2936.79
612.59	3114.96
612.79	3074.00
612.98	3143.63
613.17	3596.23
613.36	3274.70
613.55	3254.22
613.74	3160.02
613.93	3272.65
614.13	3416.01
614.32	3313.61
614.51	3192.78
614.70	3297.23
614.89	3248.08
615.08	3284.94
615.28	3452.88
615.47	3114.96
615.66	3362.76
615.85	3139.54
616.04	3092.43
616.23	3252.17
616.42	3205.07
616.62	3061.71
616.81	3178.45
617.00	3317.71
617.19	3436.49
617.38	3074.00
617.57	3215.31
617.76	3407.82
617.95	3504.07
618.15	3182.54
618.34	3252.17
618.53	3033.04
618.72	3471.31
618.91	3180.50
619.10	3143.63
619.29	3258.32
619.48	3381.20
619.68	3000.27
619.87	2920.40
620.06	3028.95
620.25	3389.39
620.44	2934.74
620.63	2990.03
620.82	3307.47
621.01	3260.37
621.20	3098.58
621.39	3127.25
621.59	3362.76
621.78	3268.56
621.97	3110.86
622.16	3221.45
622.35	3385.29
622.54	3444.68
622.73	3192.78
622.92	2877.40
623.11	3471.31
623.30	3151.82
623.49	3270.61
623.68	2869.20
623.88	3561.42
624.07	3157.97
624.26	3004.37
624.45	3061.71
624.64	3231.69
624.83	3377.10
625.02	3090.38
625.21	3010.51
625.40	3334.09
625.59	3471.31
625.78	3241.93
625.97	3227.60
626.16	3506.12
626.35	3405.77
626.54	3033.04
626.74	3280.85
626.93	3182.54
627.12	3256.27
627.31	3172.30
627.50	3061.71
627.69	3483.59
627.88	3078.10
628.07	2979.79
628.26	2893.78
628.45	3186.64
628.64	3110.86
628.83	3086.29
629.02	2963.41
629.21	3377.10
629.40	3373.00
629.59	2944.98
629.78	3014.61
629.97	3360.72
630.16	3325.90
630.35	3002.32
630.54	3184.59
630.73	3119.06
630.92	3301.33
631.11	3006.42
631.30	3106.77
631.49	3516.36
631.68	3223.50
631.87	3157.97
632.06	3139.54
632.25	3704.78
632.44	3254.22
632.63	3131.34
632.82	3172.30
633.01	3243.98
633.20	3344.33
633.39	2996.18
633.58	2951.12
633.77	3432.40
633.96	3393.48
634.15	3209.17
634.34	3098.58
634.53	3352.52
634.72	3180.50
634.91	2893.78
635.10	3074.00
635.29	3444.68
635.48	3305.42
635.67	2912.21
635.86	2938.84
636.05	3592.14
636.24	3284.94
636.43	3082.19
636.62	3188.69
636.81	2869.20
637.00	3264.46
637.19	3026.90
637.38	3160.02
637.57	3182.54
637.76	3272.65
637.95	3297.23
638.14	3291.09
638.33	3358.67
638.52	3317.71
638.71	2936.79
638.89	3002.32
639.08	3749.83
639.27	3461.07
639.46	3413.96
639.65	3614.66
639.84	3901.38
640.03	4016.07
640.22	3667.91
640.41	3596.23
640.60	3499.98
640.79	3463.12
640.98	3289.04
641.17	3264.46
641.36	3547.08
641.55	3520.46
641.74	2930.64
641.92	2979.79
642.11	3139.54
642.30	3246.03
642.49	3010.51
642.68	3100.62
642.87	3373.00
643.06	3426.25
643.25	2977.75
643.44	2901.97
643.63	3338.19
643.82	3332.05
644.00	3002.32
644.19	3094.48
644.38	3157.97
644.57	3377.10
644.76	3096.53
644.95	3135.44
645.14	3366.86
645.33	3233.74
645.52	3149.78
645.71	2951.12
645.89	3074.00
646.08	3155.92
646.27	3037.14
646.46	3223.50
646.65	2975.70
646.84	3246.03
647.03	3010.51
647.22	3272.65
647.40	3389.39
647.59	3307.47
647.78	2957.27
647.97	3117.01
648.16	3133.39
648.35	3528.65
648.54	3422.16
648.73	3090.38
648.91	3409.87
649.10	3327.95
649.29	3119.06
649.48	3024.85
649.67	3350.48
649.86	3301.33
650.05	3153.87
650.23	3262.41
650.42	3155.92
650.61	3534.79
650.80	3375.05
650.99	3375.05
651.18	3524.55
651.36	3497.93
651.55	3039.19
651.74	3276.75
651.93	3205.07
652.12	3291.09
652.31	3188.69
652.49	3155.92
652.68	3182.54
652.87	3657.67
653.06	3215.31
653.25	3383.24
653.44	3278.80
653.62	3614.66
653.81	3155.92
654.00	3104.72
654.19	3463.12
654.38	3764.17
654.56	3067.86
654.75	3008.47
654.94	3436.49
655.13	3342.28
655.32	2953.17
655.51	3139.54
655.69	3198.93
655.88	3467.21
656.07	2895.83
656.26	3065.81
656.45	3098.58
656.63	3307.47
656.82	3024.85
657.01	3291.09
657.20	3160.02
657.38	3600.33
657.57	3024.85
657.76	2887.64
657.95	3495.88
658.14	3196.88
658.32	3184.59
658.51	2926.55
658.70	3325.90
658.89	3352.52
659.08	3160.02
659.26	3272.65
659.45	3106.77
659.64	3430.35
659.83	3002.32
660.01	3459.02
660.20	3389.39
660.39	3575.75
660.58	2822.10
660.76	3180.50
660.95	3030.99
661.14	3315.66
661.33	2971.60
661.51	3061.71
661.70	3129.30
661.89	3393.48
662.08	3129.30
662.26	2881.49
662.45	3117.01
662.64	3604.42
662.83	3080.14
663.01	2963.41
663.20	3112.91
663.39	3602.38
663.58	3020.75
663.76	3076.05
663.95	3471.31
664.14	3098.58
664.32	3137.49
664.51	3041.23
664.70	2930.64
664.89	3479.50
665.07	3024.85
665.26	3160.02
665.45	3067.86
665.64	3358.67
665.82	3057.62
666.01	3291.09
666.20	2994.13
666.38	3526.60
666.57	3368.91
666.76	5646.25
666.95	13135.67
667.13	20729.54
667.32	24981.12
667.51	28218.96
667.69	29247.04
667.88	24217.23
668.07	17364.73
668.25	14864.16
668.44	12924.73
668.63	11022.17
668.81	9791.34
669.00	8499.07
669.19	7696.27
669.38	6756.25
669.56	5754.79
669.75	5011.38
669.94	4483.00
670.12	3897.28
670.31	3407.82
670.50	3393.48
670.68	3493.83
670.87	3377.10
671.06	3104.72
671.24	3166.16
671.43	3622.86
671.62	3264.46
671.80	3082.19
671.99	3248.08
672.18	3272.65
672.36	3413.96
672.55	3243.98
672.74	3180.50
672.92	3149.78
673.11	3373.00
673.29	2906.07
673.48	3264.46
673.67	3176.40
673.85	3463.12
674.04	3039.19
674.23	3229.65
674.41	3622.86
674.60	3084.24
674.79	2889.68
674.97	2975.70
675.16	3491.79
675.34	3561.42
675.53	3059.67
675.72	3100.62
675.90	3596.23
676.09	3131.34
676.28	3102.67
676.46	2975.70
676.65	3352.52
676.83	3123.15
677.02	3039.19
677.21	3110.86
677.39	3407.82
677.58	3149.78
677.77	3086.29
677.95	2992.08
678.14	3221.45
678.32	3291.09
678.51	3151.82
678.70	3409.87
678.88	3166.16
679.07	3225.55
679.25	3090.38
679.44	3082.19
679.63	3004.37
679.81	3286.99
680.00	3295.18
680.18	3182.54
680.37	3590.09
680.55	3350.48
680.74	2983.89
680.93	2901.97
681.11	3309.52
681.30	3250.13
681.48	3088.34
681.67	3102.67
681.85	3274.70
682.04	3104.72
682.23	3340.24
682.41	3235.79
682.60	3241.93
682.78	3274.70
682.97	2949.08
683.15	3205.07
683.34	3438.54
683.53	3563.47
683.71	2959.31
683.90	3151.82
684.08	3667.91
684.27	3213.26
684.45	3147.73
684.64	3233.74
684.82	3315.66
685.01	3393.48
685.19	3051.47
685.38	3393.48
685.57	3229.65
685.75	3106.77
685.94	2998.23
686.12	3074.00
686.31	3190.74
686.49	3551.18
686.68	2881.49
686.86	3035.09
687.05	3205.07
687.23	3563.47
687.42	3061.71
687.60	2955.22
687.79	3473.36
687.97	3547.08
688.16	3147.73
688.34	3227.60
688.53	3006.42
688.71	3373.00
688.90	3397.58
689.08	3080.14
689.27	2985.94
689.45	3438.54
689.64	3254.22
689.82	3157.97
690.01	3461.07
690.19	3303.37
690.38	3153.87
690.56	3188.69
690.75	3098.58
690.93	3153.87
691.12	3041.23
691.30	3119.06
691.49	3186.64
691.67	3280.85
691.86	3459.02
692.04	3078.10
692.23	3194.83
692.41	3223.50
692.60	3479.50
692.78	3350.48
692.97	3305.42
693.15	3475.40
693.34	3362.76
693.52	3348.43
693.71	3155.92
693.89	3139.54
694.08	2959.31
694.26	3147.73
694.44	3450.83
694.63	3407.82
694.81	2987.99
695.00	3074.00
695.18	3481.55
695.37	3663.82
695.55	3174.35
695.74	3160.02
695.92	3205.07
696.10	3512.27
696.29	2963.41
696.47	3123.15
696.66	3090.38
696.84	3088.34
697.03	3147.73
697.21	3260.37
697.40	4609.98
697.58	3565.51
697.76	3078.10
697.95	3035.09
698.13	3084.24
698.32	3207.12
698.50	3024.85
698.68	3106.77
698.87	3362.76
699.05	3708.87
699.24	3147.73
699.42	3067.86
699.61	3307.47
699.79	3194.83
699.97	3008.47
700.16	2975.70
700.34	3078.10
700.53	3219.41
700.71	3274.70
700.89	3278.80
701.08	3129.30
701.26	3211.22
701.45	3456.97
701.63	3035.09
701.81	3131.34
702.00	3151.82
702.18	3176.40
702.37	3102.67
702.55	3553.23
702.73	3405.77
702.92	3139.54
703.10	3602.38
703.28	3452.88
703.47	3106.77
703.65	3286.99
703.84	3262.41
704.02	3260.37
704.20	3637.19
704.39	3065.81
704.57	3100.62
704.75	3401.68
704.94	3409.87
705.12	3336.14
705.30	4020.16
705.49	8671.10
705.67	17207.03
705.86	23977.62
706.04	27412.06
706.22	30119.48
706.41	28909.13
706.59	21866.16
706.77	17008.38
706.96	14640.93
707.14	13162.30
707.32	11147.09
707.51	10002.28
707.69	8124.29
707.87	6588.32
708.06	5318.57
708.24	4501.44
708.42	4155.33
708.61	4163.52
708.79	3262.41
708.97	3278.80
709.16	3348.43
709.34	3327.95
709.52	3131.34
709.71	3141.58
709.89	3452.88
710.07	3102.67
710.26	2951.12
710.44	3119.06
710.62	3428.30
710.80	3344.33
710.99	3135.44
711.17	3205.07
711.35	3172.30
711.54	3182.54
711.72	3276.75
711.90	3164.11
712.09	3248.08
712.27	3057.62
712.45	3282.89
712.63	3094.48
712.82	3313.61
713.00	3278.80
713.18	3223.50
713.37	3323.85
713.55	3502.03
713.73	3411.92
713.91	3194.83
714.10	3033.04
714.28	3311.57
714.46	3377.10
714.65	3225.55
714.83	3147.73
715.01	3258.32
715.19	3311.57
715.38	3037.14
715.56	3233.74
715.74	3184.59
715.92	3104.72
716.11	3354.57
716.29	2809.81
716.47	3200.98
716.65	3274.70
716.84	2967.51
717.02	3155.92
717.20	2965.46
717.38	3139.54
717.57	3258.32
717.75	3172.30
717.93	3250.13
718.11	3340.24
718.30	3045.33
718.48	3071.95
718.66	3440.59
718.84	3448.78
719.03	3057.62
719.21	2975.70
719.39	3712.97
719.57	3340.24
719.75	3092.43
719.94	3014.61
720.12	3147.73
720.30	3219.41
720.48	3139.54
720.67	3067.86
720.85	3151.82
721.03	3125.20
721.21	3057.62
721.39	3164.11
721.58	3358.67
721.76	3364.81
721.94	3141.58
722.12	3174.35
722.30	3565.51
722.49	3164.11
722.67	3100.62
722.85	3131.34
723.03	3024.85
723.21	3106.77
723.40	3155.92
723.58	3254.22
723.76	3499.98
723.94	3477.45
724.12	3155.92
724.30	3413.96
724.49	3508.17
724.67	3057.62
724.85	3254.22
725.03	2992.08
725.21	3377.10
725.40	3436.49
725.58	3157.97
725.76	3286.99
725.94	3377.10
726.12	3084.24
726.30	3108.82
726.49	3119.06
726.67	3182.54
726.85	3438.54
727.03	4009.92
727.21	5521.32
727.39	7378.83
727.57	7944.07
727.76	8398.72
727.94	8593.28
728.12	7450.51
728.30	6064.04
728.48	5638.06
728.66	5201.84
728.84	4816.82
729.03	4210.62
729.21	3725.26
729.39	3594.19
729.57	3340.24
729.75	3467.21
729.93	3344.33
730.11	3057.62
730.30	3303.37
730.48	3291.09
730.66	3241.93
730.84	3182.54
731.02	3299.28
731.20	3219.41
731.38	3131.34
731.56	2961.36
731.74	2967.51
731.93	3311.57
732.11	3256.27
732.29	3170.26
732.47	3436.49
732.65	3454.92
732.83	3354.57
733.01	3180.50
733.19	3092.43
733.37	3401.68
733.56	3170.26
733.74	2994.13
733.92	3596.23
734.10	3229.65
734.28	3182.54
734.46	2899.92
734.64	3266.51
734.82	3213.26
735.00	3033.04
735.18	3049.43
735.36	3219.41
735.54	3248.08
735.73	3069.91
735.91	3211.22
736.09	3524.55
736.27	3286.99
736.45	3137.49
736.63	2879.44
736.81	3219.41
736.99	3487.69
737.17	3315.66
737.35	3096.53
737.53	3366.86
737.71	3266.51
737.89	3235.79
738.07	3084.24
738.25	3106.77
738.43	2936.79
738.61	3117.01
738.80	2973.65
738.98	3125.20
739.16	3180.50
739.34	3020.75
739.52	3471.31
739.70	3250.13
739.88	3430.35
740.06	3233.74
740.24	2813.91
740.42	3454.92
740.60	2877.40
740.78	3010.51
740.96	2844.63
741.14	3223.50
741.32	3262.41
741.50	2932.69
741.68	3332.05
741.86	3575.75
742.04	3059.67
742.22	2947.03
742.40	3074.00
742.58	3473.36
742.76	3178.45
742.94	3315.66
743.12	2942.93
743.30	3342.28
743.48	3395.53
743.66	3041.23
743.84	3145.68
744.02	3299.28
744.20	3262.41
744.38	3061.71
744.56	3125.20
744.74	3569.61
744.92	3325.90
745.10	3274.70
745.28	3172.30
745.46	3606.47
745.64	3170.26
745.82	3153.87
746.00	3084.24
746.18	3346.38
746.36	3090.38
746.54	3108.82
746.72	3117.01
746.90	3100.62
747.08	3571.66
747.26	3090.38
747.44	3250.13
747.62	3373.00
747.80	3368.91
747.98	3166.16
748.15	3084.24
748.33	3688.39
748.51	3395.53
748.69	3213.26
748.87	2922.45
749.05	3295.18
749.23	3174.35
749.41	3088.34
749.59	3080.14
749.77	3456.97
749.95	3164.11
750.13	3090.38
750.31	3233.74
750.49	3213.26
750.67	3368.91
750.85	3207.12
751.03	3162.06
751.20	3706.82
751.38	3282.89
751.56	3129.30
751.74	3004.37
751.92	3198.93
752.10	3090.38
752.28	3223.50
752.46	2981.84
752.64	3252.17
752.82	3241.93
753.00	3174.35
753.18	3014.61
753.35	3231.69
753.53	3231.69
753.71	3049.43
753.89	3090.38
754.07	3264.46
754.25	3434.44
754.43	3164.11
754.61	3033.04
754.79	3362.76
754.97	3196.88
755.14	3313.61
755.32	3018.71
755.50	3278.80
755.68	3340.24
755.86	3004.37
756.04	3051.47
756.22	2865.11
756.40	3477.45
756.57	3282.89
756.75	3061.71
756.93	3473.36
757.11	3444.68
757.29	3086.29
757.47	2973.65
757.65	2985.94
757.82	2766.81
758.00	3037.14
758.18	3033.04
758.36	3200.98
758.54	3614.66
758.72	2955.22
758.90	3180.50
759.07	3377.10
759.25	3090.38
759.43	3231.69
759.61	2959.31
759.79	4425.66
759.97	3463.12
760.15	3129.30
760.32	3065.81
760.50	3340.24
760.68	3626.95
760.86	3047.38
761.04	3358.67
761.22	3504.07
761.39	3270.61
761.57	3235.79
761.75	3155.92
761.93	3368.91
762.11	3270.61
762.28	3151.82
762.46	2955.22
762.64	3514.31
762.82	3037.14
763.00	2996.18
763.18	3274.70
763.35	3080.14
763.53	3352.52
763.71	3145.68
763.89	2985.94
764.07	3321.81
764.24	3286.99
764.42	3063.76
764.60	3069.91
764.78	3420.11
764.96	3409.87
765.13	3198.93
765.31	2998.23
765.49	3452.88
765.67	3086.29
765.84	3061.71
766.02	3051.47
766.20	2969.55
766.38	3321.81
766.56	3119.06
766.73	3205.07
766.91	3317.71
767.09	3426.25
767.27	3141.58
767.44	3024.85
767.62	3321.81
767.80	3241.93
767.98	3059.67
768.15	3043.28
768.33	3477.45
768.51	3393.48
768.69	3192.78
768.87	3067.86
769.04	3315.66
769.22	3823.56
769.40	3252.17
769.58	3164.11
769.75	3422.16
769.93	3459.02
770.11	3102.67
770.28	2965.46
770.46	3446.73
770.64	3327.95
770.82	3117.01
770.99	3018.71
771.17	3385.29
771.35	3200.98
771.53	3149.78
771.70	3012.56
771.88	3452.88
772.06	3286.99
772.23	3141.58
772.41	3127.25
772.59	3194.83
772.77	3133.39
772.94	3053.52
773.12	3149.78
773.30	3172.30
773.47	3295.18
773.65	2942.93
773.83	3229.65
774.01	3246.03
774.18	2963.41
774.36	3074.00
774.54	3043.28
774.71	3352.52
774.89	2947.03
775.07	2889.68
775.24	3037.14
775.42	3176.40
775.60	3585.99
775.78	3041.23
775.95	2922.45
776.13	2918.36
776.31	2906.07
776.48	3278.80
776.66	3229.65
776.84	3233.74
777.01	3100.62
777.19	2983.89
777.37	3024.85
777.54	3317.71
777.72	3608.52
777.90	3213.26
778.07	3012.56
778.25	3917.76
778.43	3459.02
778.60	3012.56
778.78	3182.54
778.96	3536.84
779.13	3010.51
779.31	3139.54
779.49	3100.62
779.66	3291.09
779.84	3205.07
780.01	3026.90
780.19	2996.18
780.37	3629.00
780.54	3454.92
780.72	2920.40
780.90	3074.00
781.07	3190.74
781.25	3168.21
781.43	3258.32
781.60	3033.04
781.78	3549.13
781.95	3280.85
782.13	3057.62
782.31	3119.06
782.48	2926.55
782.66	3221.45
782.83	3272.65
783.01	3266.51
783.19	3377.10
783.36	3239.89
783.54	3018.71
783.72	3184.59
783.89	3164.11
784.07	3264.46
784.24	3239.89
784.42	3213.26
784.60	3332.05
784.77	3340.24
784.95	2791.38
785.12	3084.24
785.30	3233.74
785.47	3004.37
785.65	3008.47
785.83	3123.15
786.00	3135.44
786.18	3299.28
786.35	3022.80
786.53	2953.17
786.71	3559.37
786.88	3373.00
787.06	3168.21
787.23	3139.54
787.41	3061.71
787.58	3254.22
787.76	3086.29
787.94	3041.23
788.11	3299.28
788.29	3024.85
788.46	3012.56
788.64	2887.64
788.81	3184.59
788.99	3020.75
789.16	2967.51
789.34	3117.01
789.52	3192.78
789.69	3211.22
789.87	2838.48
790.04	3127.25
790.22	3342.28
790.39	3626.95
790.57	2955.22
790.74	2985.94
790.92	3483.59
791.09	2977.75
791.27	3213.26
791.44	3172.30
791.62	3196.88
791.79	3420.11
791.97	3135.44
792.15	3475.40
792.32	3420.11
792.50	3442.64
792.67	3264.46
792.85	3385.29
793.02	3270.61
793.20	3164.11
793.37	2910.16
793.55	3012.56
793.72	3061.71
793.90	3373.00
794.07	3108.82
794.25	2975.70
794.42	3362.76
794.60	3250.13
794.77	3074.00
794.95	3194.83
795.12	3373.00
795.30	3289.04
795.47	2920.40
795.65	3459.02
795.82	3379.15
796.00	3129.30
796.17	3106.77
796.34	2992.08
796.52	3323.85
796.69	3440.59
796.87	3196.88
797.04	3155.92
797.22	3485.64
797.39	3291.09
797.57	3309.52
797.74	3112.91
797.92	3393.48
798.09	3153.87
798.27	3397.58
798.44	3080.14
798.62	3190.74
798.79	3336.14
798.96	3198.93
799.14	3133.39
799.31	3835.85
799.49	3276.75
799.66	3117.01
799.84	3151.82
800.01	2975.70
800.19	3289.04
800.36	2846.68
800.53	3141.58
800.71	3301.33
800.88	3553.23
801.06	3033.04
801.23	3004.37
801.41	3188.69
801.58	3174.35
801.75	3049.43
801.93	3149.78
802.10	3448.78
802.28	3166.16
802.45	3108.82
802.63	3184.59
802.80	3520.46
802.97	3141.58
803.15	3094.48
803.32	3028.95
803.50	3125.20
803.67	3131.34
803.84	2992.08
804.02	3192.78
804.19	3215.31
804.37	2840.53
804.54	2951.12
804.71	3092.43
804.89	3286.99
805.06	3065.81
805.24	2992.08
805.41	2938.84
805.58	3094.48
805.76	3801.03
805.93	3127.25
806.10	3215.31
806.28	3368.91
806.45	3248.08
806.63	3270.61
806.80	3141.58
806.97	3194.83
807.15	3282.89
807.32	3147.73
807.49	3074.00
807.67	3110.86
807.84	3303.37
808.01	2979.79
808.19	3280.85
808.36	3753.93
808.54	3207.12
808.71	3110.86
808.88	2975.70
809.06	3547.08
809.23	3600.33
809.40	3053.52
809.58	3055.57
809.75	3200.98
809.92	3047.38
810.10	3338.19
810.27	3049.43
810.44	3346.38
810.62	3385.29
810.79	3166.16
810.96	3108.82
811.14	3131.34
811.31	3391.44
811.48	3203.02
811.66	3129.30
811.83	3522.51
812.00	3348.43
812.18	3188.69
812.35	3342.28
812.52	3217.36
812.69	3203.02
812.87	3053.52
813.04	3006.42
813.21	3180.50
813.39	3125.20
813.56	3096.53
813.73	3303.37
813.91	3008.47
814.08	3272.65
814.25	3114.96
814.42	2873.30
814.60	3231.69
814.77	3235.79
814.94	3006.42
815.12	3180.50
815.29	3567.56
815.46	3057.62
815.63	3041.23
815.81	3076.05
815.98	3174.35
816.15	3258.32
816.33	3149.78
816.50	3076.05
816.67	3299.28
816.84	3233.74
817.02	3041.23
817.19	2936.79
817.36	3356.62
817.53	3170.26
817.71	2926.55
817.88	3153.87
818.05	3194.83
818.22	3213.26
818.40	3246.03
818.57	3051.47
818.74	3256.27
818.91	3235.79
819.09	3188.69
819.26	3125.20
819.43	3104.72
819.60	3082.19
819.78	3264.46
819.95	3110.86
820.12	3057.62
820.29	3592.14
820.47	3403.72
820.64	3080.14
820.81	3016.66
820.98	3174.35
821.15	3096.53
821.33	3174.35
821.50	2979.79
821.67	3395.53
821.84	3037.14
822.02	3018.71
822.19	3489.74
822.36	3203.02
822.53	3014.61
822.70	2904.02
822.88	3246.03
823.05	3532.75
823.22	3153.87
823.39	3153.87
823.56	3225.55
823.74	3614.66
823.91	2897.88
824.08	3020.75
824.25	3090.38
824.42	3581.90
824.60	2955.22
824.77	3225.55
824.94	3237.84
825.11	3411.92
825.28	2963.41
825.45	3237.84
825.63	3254.22
825.80	3071.95
825.97	3102.67
826.14	3188.69
826.31	3037.14
826.48	3373.00
826.66	3065.81
826.83	3057.62
827.00	3256.27
827.17	3061.71
827.34	3041.23
827.51	2959.31
827.69	3270.61
827.86	2985.94
828.03	3067.86
828.20	3049.43
828.37	3114.96
828.54	3395.53
828.71	3082.19
828.89	3164.11
829.06	3295.18
829.23	3581.90
829.40	3088.34
829.57	3053.52
829.74	3397.58
829.91	3123.15
830.09	3063.76
830.26	3237.84
830.43	3600.33
830.60	3180.50
830.77	3168.21
830.94	3260.37
831.11	3487.69
831.28	3139.54
831.46	3270.61
831.63	3071.95
831.80	3393.48
831.97	3096.53
832.14	3162.06
832.31	3145.68
832.48	3319.76
832.65	3553.23
832.82	3219.41
832.99	3117.01
833.17	3049.43
833.34	3577.80
833.51	3045.33
833.68	2846.68
833.85	3385.29
834.02	3045.33
834.19	3061.71
834.36	3123.15
834.53	3315.66
834.70	3524.55
834.87	3069.91
835.04	2844.63
835.22	3166.16
835.39	3153.87
835.56	2820.05
835.73	2869.20
835.90	3420.11
836.07	3049.43
836.24	3082.19
836.41	2977.75
836.58	3086.29
836.75	3454.92
836.92	2918.36
837.09	2801.62
837.26	3504.07
837.43	3264.46
837.60	2961.36
837.77	2906.07
837.94	3426.25
838.12	3450.83
838.29	2885.59
838.46	2842.58
838.63	3039.19
838.80	3549.13
838.97	3028.95
839.14	2832.34
839.31	3295.18
839.48	3368.91
839.65	2901.97
839.82	3020.75
839.99	3336.14
840.16	3305.42
840.33	2883.54
840.50	3028.95
840.67	3047.38
840.84	2787.29
841.01	2844.63
841.18	2858.96
841.35	3315.66
841.52	3463.12
841.69	3270.61
841.86	3010.51
842.03	3205.07
842.20	3370.96
842.37	2889.68
842.54	2926.55
842.71	3262.41
842.88	2910.16
843.05	2926.55
843.22	2944.98
843.39	3444.68
843.56	3160.02
843.73	2918.36
843.90	2924.50
844.07	3270.61
844.24	3420.11
844.41	3047.38
844.58	2904.02
844.75	3258.32
844.92	3338.19
845.09	2961.36
845.26	2955.22
845.43	3422.16
845.60	3211.22
845.77	3094.48
845.94	3000.27
846.10	3407.82
846.27	2975.70
846.44	2805.72
846.61	2826.20
846.78	3356.62
846.95	3487.69
847.12	2840.53
847.29	2992.08
847.46	3164.11
847.63	3364.81
847.80	2850.77
847.97	2936.79
848.14	3717.06
848.31	3256.27
848.48	2746.33
848.65	2934.74
848.82	3184.59
848.98	3805.13
849.15	3000.27
849.32	3061.71
849.49	3510.22
849.66	3241.93
849.83	2869.20
850.00	2813.91
850.17	3424.20
850.34	3194.83
850.51	2910.16
850.68	2994.13
850.85	3678.15
851.01	3305.42
851.18	2877.40
851.35	2951.12
851.52	3354.57
851.69	3612.62
851.86	2901.97
852.03	2869.20
852.20	3442.64
852.37	3286.99
852.53	2830.29
852.70	2908.12
852.87	3370.96
853.04	3450.83
853.21	2852.82
853.38	3286.99
853.55	3524.55
853.72	3459.02
853.89	2836.44
854.05	2893.78
854.22	3262.41
854.39	3104.72
854.56	2912.21
854.73	3059.67
854.90	3065.81
855.07	3182.54
855.23	2813.91
855.40	2801.62
855.57	3151.82
855.74	2838.48
855.91	3160.02
856.08	2795.48
856.25	3033.04
856.41	3223.50
856.58	2910.16
856.75	2932.69
856.92	3049.43
857.09	3516.36
857.26	2779.09
857.42	2932.69
857.59	3397.58
857.76	3076.05
857.93	2893.78
858.10	2992.08
858.27	3059.67
858.43	3274.70
858.60	2930.64
858.77	2772.95
858.94	3180.50
859.11	3491.79
859.27	3022.80
859.44	2893.78
859.61	3676.10
859.78	3418.06
859.95	2942.93
860.12	2936.79
860.28	3774.41
860.45	3614.66
860.62	2822.10
860.79	3018.71
860.95	3235.79
861.12	3106.77
861.29	2811.86
861.46	2893.78
861.63	3233.74
861.79	3373.00
861.96	2772.95
862.13	2914.26
862.30	3518.41
862.47	3205.07
862.63	2824.15
862.80	3000.27
862.97	3487.69
863.14	3274.70
863.30	2963.41
863.47	2879.44
863.64	3512.27
863.81	3301.33
863.97	2824.15
864.14	2930.64
864.31	3243.98
864.48	3248.08
864.65	2869.20
864.81	3131.34
864.98	3358.67
865.15	3485.64
865.32	2959.31
865.48	2985.94
865.65	3502.03
865.82	3139.54
865.98	3057.62
866.15	2992.08
866.32	3155.92
866.49	3153.87
866.65	3106.77
866.82	2936.79
866.99	3233.74
867.16	3086.29
867.32	3012.56
867.49	2875.35
867.66	3164.11
867.83	3092.43
867.99	2844.63
868.16	2990.03
868.33	3088.34
868.49	3168.21
868.66	2930.64
868.83	3055.57
868.99	3262.41
869.16	3307.47
869.33	3086.29
869.50	2936.79
869.66	3330.00
869.83	3164.11
870.00	2840.53
870.16	3006.42
870.33	3198.93
870.50	3493.83
870.66	2957.27
870.83	2934.74
871.00	3250.13
871.17	3403.72
871.33	2971.60
871.50	2930.64
871.67	3229.65
871.83	3205.07
872.00	2922.45
872.17	2938.84
872.33	3651.53
872.50	3561.42
872.67	2879.44
872.83	2961.36
873.00	3405.77
873.17	3289.04
873.33	2953.17
873.50	2920.40
873.67	3131.34
873.83	3180.50
874.00	2942.93
874.16	3041.23
874.33	3313.61
874.50	2961.36
874.66	2856.92
874.83	3010.51
875.00	3411.92
875.16	3493.83
875.33	2932.69
875.50	2742.23
875.66	3188.69
875.83	3360.72
875.99	2889.68
876.16	3041.23
876.33	3051.47
876.49	3231.69
876.66	2994.13
876.83	2971.60
876.99	2924.50
877.16	3200.98
877.32	2940.88
877.49	3016.66
877.66	3325.90
877.82	3614.66
877.99	3030.99
878.15	3233.74
878.32	3291.09
878.49	3305.42
878.65	3016.66
878.82	3194.83
878.98	3127.25
879.15	3506.12
879.32	3143.63
879.48	3129.30
879.65	3254.22
879.81	3246.03
879.98	2938.84
880.15	2998.23
880.31	3362.76
880.48	3022.80
880.64	3061.71
880.81	3090.38
880.97	3645.38
881.14	3594.19
881.31	2992.08
881.47	3096.53
881.64	3276.75
881.80	2926.55
881.97	3084.24
882.13	2957.27
882.30	3049.43
882.47	3096.53
882.63	2942.93
882.80	2865.11
882.96	3121.10
883.13	3583.95
883.29	2992.08
883.46	2858.96
883.62	3690.44
883.79	3217.36
883.95	3084.24
884.12	2850.77
884.29	3465.16
884.45	3270.61
884.62	2981.84
884.78	2897.88
884.95	3645.38
885.11	3067.86
885.28	3049.43
885.44	3010.51
885.61	3348.43
885.77	3538.89
885.94	3139.54
886.10	2967.51
886.27	3340.24
886.43	3698.63
886.60	3106.77
886.76	2944.98
886.93	3037.14
887.09	3233.74
887.26	2840.53
887.42	2965.46
887.59	3502.03
887.75	3729.35
887.92	3024.85
888.08	3074.00
888.25	3708.87
888.41	3446.73
888.58	3033.04
888.74	2897.88
888.91	3180.50
>>>>>End Processed Spectral Data<<<<<
