SpectraSuite Data File
++++++++++++++++++++++++++++++++++++
Date: Fri May 06 08:14:17 CEST 2016
User: root
Dark Spectrum Present: No
Reference Spectrum Present: No
Number of Sampled Component Spectra: 1
Spectrometers: USB4C02835
Integration Time (usec): 100000 (USB4C02835)
Spectra Averaged: 1 (USB4C02835)
Boxcar Smoothing: 0 (USB4C02835)
Correct for Electrical Dark: No (USB4C02835)
Strobe/Lamp Enabled: No (USB4C02835)
Correct for Detector Non-linearity: No (USB4C02835)
Correct for Stray Light: No (USB4C02835)
Number of Pixels in Processed Spectrum: 3648
>>>>>Begin Processed Spectral Data<<<<<
177.47	2228.19
177.69	2228.19
177.91	2228.19
178.13	2222.05
178.36	2299.87
178.58	3082.19
178.80	3100.62
179.02	3004.37
179.24	3100.62
179.46	2740.18
179.68	2807.77
179.90	3227.60
180.13	3237.84
180.35	2699.22
180.57	2799.57
180.79	3368.91
181.01	3164.11
181.23	2832.34
181.45	2973.65
181.67	3461.07
181.90	3409.87
182.12	2985.94
182.34	2691.03
182.56	3397.58
182.78	3327.95
183.00	2820.05
183.22	2850.77
183.44	2928.60
183.66	3852.23
183.89	2990.03
184.11	2869.20
184.33	3422.16
184.55	3559.37
184.77	2869.20
184.99	2889.68
185.21	3198.93
185.43	3815.37
185.65	2887.64
185.87	2852.82
186.10	3821.51
186.32	3747.78
186.54	2973.65
186.76	2936.79
186.98	3522.51
187.20	3192.78
187.42	2899.92
187.64	2852.82
187.86	3442.64
188.08	3475.40
188.30	2820.05
188.52	2881.49
188.75	3620.81
188.97	3573.71
189.19	2887.64
189.41	2768.85
189.63	3452.88
189.85	3225.55
190.07	2754.52
190.29	2693.08
190.51	3336.14
190.73	3065.81
190.95	3053.52
191.17	2899.92
191.39	3022.80
191.61	3192.78
191.84	2809.81
192.06	3008.47
192.28	2901.97
192.50	3790.79
192.72	2957.27
192.94	2910.16
193.16	3528.65
193.38	3368.91
193.60	2731.99
193.82	3065.81
194.04	3534.79
194.26	3299.28
194.48	2828.24
194.70	2889.68
194.92	3184.59
195.14	3497.93
195.36	2918.36
195.58	2944.98
195.80	3219.41
196.02	3221.45
196.24	2824.15
196.46	2969.55
196.69	3258.32
196.91	3758.02
197.13	2938.84
197.35	2904.02
197.57	3565.51
197.79	3450.83
198.01	2942.93
198.23	2836.44
198.45	3358.67
198.67	3065.81
198.89	2693.08
199.11	3006.42
199.33	3131.34
199.55	2748.37
199.77	2809.81
199.99	2959.31
200.21	3227.60
200.43	3332.05
200.65	2734.04
200.87	2709.46
201.09	3231.69
201.31	3198.93
201.53	2942.93
201.75	2967.51
201.97	3344.33
202.19	3289.04
202.41	2944.98
202.63	3014.61
202.85	3391.44
203.07	3342.28
203.29	3008.47
203.51	2791.38
203.73	3174.35
203.95	3876.80
204.17	2842.58
204.39	3004.37
204.61	3198.93
204.83	3141.58
205.05	3008.47
205.27	2809.81
205.49	3737.54
205.71	3293.13
205.93	2699.22
206.15	2811.86
206.37	3266.51
206.59	3200.98
206.81	2643.93
207.03	2746.33
207.25	3123.15
207.47	3469.26
207.69	2863.06
207.91	3078.10
208.13	3626.95
208.34	3049.43
208.56	2815.96
208.78	2770.90
209.00	3198.93
209.22	3194.83
209.44	2820.05
209.66	2871.25
209.88	3237.84
210.10	3149.78
210.32	2822.10
210.54	2961.36
210.76	3207.12
210.98	3475.40
211.20	2648.02
211.42	2877.40
211.64	3585.99
211.86	3446.73
212.08	2910.16
212.30	2836.44
212.52	3141.58
212.74	3344.33
212.96	2889.68
213.17	2965.46
213.39	3499.98
213.61	3610.57
213.83	2893.78
214.05	2738.13
214.27	3534.79
214.49	3061.71
214.71	2770.90
214.93	2938.84
215.15	3268.56
215.37	3487.69
215.59	2719.70
215.81	2865.11
216.03	3606.47
216.24	3211.22
216.46	2887.64
216.68	2955.22
216.90	3463.12
217.12	3506.12
217.34	2791.38
217.56	3026.90
217.78	3633.10
218.00	3350.48
218.22	2955.22
218.44	2951.12
218.66	3307.47
218.87	3616.71
219.09	2928.60
219.31	2844.63
219.53	3299.28
219.75	3205.07
219.97	3008.47
220.19	2850.77
220.41	3268.56
220.63	3631.05
220.85	2846.68
221.06	2885.59
221.28	3545.03
221.50	3499.98
221.72	2826.20
221.94	2781.14
222.16	3284.94
222.38	3475.40
222.60	2809.81
222.82	2885.59
223.03	3422.16
223.25	3028.95
223.47	2869.20
223.69	3030.99
223.91	3399.63
224.13	3368.91
224.35	2797.53
224.57	3030.99
224.78	3454.92
225.00	3002.32
225.22	2951.12
225.44	2877.40
225.66	3504.07
225.88	3182.54
226.10	3012.56
226.32	2887.64
226.53	3620.81
226.75	3209.17
226.97	2990.03
227.19	2869.20
227.41	3133.39
227.63	3188.69
227.85	2660.31
228.06	2906.07
228.28	3340.24
228.50	3557.32
228.72	2684.89
228.94	2791.38
229.16	2893.78
229.37	2975.70
229.59	2766.81
229.81	3211.22
230.03	3190.74
230.25	3082.19
230.47	2697.17
230.69	2901.97
230.90	3467.21
231.12	3186.64
231.34	2973.65
231.56	2965.46
231.78	3078.10
232.00	3377.10
232.21	3014.61
232.43	2877.40
232.65	2856.92
232.87	3387.34
233.09	2715.61
233.30	2824.15
233.52	3510.22
233.74	3264.46
233.96	2787.29
234.18	3067.86
234.40	3243.98
234.61	3811.27
234.83	2738.13
235.05	2820.05
235.27	3788.74
235.49	3504.07
235.70	2713.56
235.92	2910.16
236.14	3409.87
236.36	3817.41
236.58	2713.56
236.79	2979.79
237.01	3252.17
237.23	3272.65
237.45	3108.82
237.67	2963.41
237.88	3401.68
238.10	3661.77
238.32	2906.07
238.54	2793.43
238.76	3182.54
238.97	3100.62
239.19	2772.95
239.41	2877.40
239.63	3491.79
239.85	3200.98
240.06	2914.26
240.28	2861.01
240.50	3516.36
240.72	3362.76
240.93	2772.95
241.15	2926.55
241.37	3262.41
241.59	3512.27
241.81	2926.55
242.02	2944.98
242.24	3346.38
242.46	3448.78
242.68	2756.57
242.89	2828.24
243.11	3481.55
243.33	3256.27
243.55	2895.83
243.76	2832.34
243.98	3082.19
244.20	3264.46
244.42	2832.34
244.64	2791.38
244.85	3039.19
245.07	3010.51
245.29	2850.77
245.51	2953.17
245.72	3311.57
245.94	3489.74
246.16	2869.20
246.38	2877.40
246.59	3180.50
246.81	3174.35
247.03	2799.57
247.24	2650.07
247.46	3217.36
247.68	3385.29
247.90	2842.58
248.11	2885.59
248.33	3391.44
248.55	3262.41
248.77	2977.75
248.98	2977.75
249.20	3549.13
249.42	3301.33
249.64	2768.85
249.85	2793.43
250.07	3188.69
250.29	3409.87
250.50	3000.27
250.72	2734.04
250.94	3409.87
251.16	3809.22
251.37	2799.57
251.59	2918.36
251.81	3352.52
252.02	3549.13
252.24	2723.80
252.46	2938.84
252.68	3084.24
252.89	3106.77
253.11	2705.37
253.33	2922.45
253.54	3594.19
253.76	3008.47
253.98	2803.67
254.20	2830.29
254.41	3078.10
254.63	3315.66
254.85	2674.65
255.06	3061.71
255.28	3348.43
255.50	3293.13
255.71	2711.51
255.93	2697.17
256.15	3248.08
256.36	3438.54
256.58	2707.41
256.80	2836.44
257.02	3196.88
257.23	3137.49
257.45	2873.30
257.67	2985.94
257.88	3166.16
258.10	3303.37
258.32	2799.57
258.53	2914.26
258.75	3561.42
258.97	3143.63
259.18	2754.52
259.40	2785.24
259.62	3612.62
259.83	3559.37
260.05	3020.75
260.27	3803.08
260.48	3518.41
260.70	3010.51
260.92	2791.38
261.13	2926.55
261.35	3352.52
261.57	3330.00
261.78	2691.03
262.00	2779.09
262.22	3377.10
262.43	3090.38
262.65	2897.88
262.86	2918.36
263.08	3825.61
263.30	3270.61
263.51	2738.13
263.73	2818.00
263.95	3608.52
264.16	3098.58
264.38	2738.13
264.60	2799.57
264.81	3293.13
265.03	3528.65
265.25	3338.19
265.46	2793.43
265.68	3485.64
265.89	3481.55
266.11	2772.95
266.33	2834.39
266.54	3559.37
266.76	3360.72
266.98	2942.93
267.19	2971.60
267.41	3491.79
267.62	3305.42
267.84	2641.88
268.06	2938.84
268.27	3352.52
268.49	3491.79
268.70	2889.68
268.92	2871.25
269.14	3127.25
269.35	3002.32
269.57	3057.62
269.79	2967.51
270.00	3114.96
270.22	3626.95
270.43	2787.29
270.65	2746.33
270.87	3366.86
271.08	3405.77
271.30	2987.99
271.51	2828.24
271.73	3387.34
271.95	3583.95
272.16	2768.85
272.38	2998.23
272.59	3256.27
272.81	3418.06
273.02	2795.48
273.24	2926.55
273.46	3485.64
273.67	3026.90
273.89	2760.66
274.10	2844.63
274.32	3456.97
274.54	3325.90
274.75	2967.51
274.97	2971.60
275.18	3467.21
275.40	3354.57
275.61	2904.02
275.83	3078.10
276.05	2981.84
276.26	3311.57
276.48	2942.93
276.69	3086.29
276.91	3098.58
277.12	3631.05
277.34	3047.38
277.55	3196.88
277.77	3319.76
277.99	3223.50
278.20	2967.51
278.42	2858.96
278.63	3098.58
278.85	3047.38
279.06	2942.93
279.28	3096.53
279.49	3493.83
279.71	3360.72
279.93	3004.37
280.14	2996.18
280.36	3119.06
280.57	3495.88
280.79	3041.23
281.00	2836.44
281.22	3209.17
281.43	3536.84
281.65	2758.61
281.86	2867.16
282.08	3395.53
282.29	3715.02
282.51	2836.44
282.73	2795.48
282.94	2861.01
283.16	3520.46
283.37	3125.20
283.59	3049.43
283.80	3375.05
284.02	3332.05
284.23	3033.04
284.45	3000.27
284.66	3123.15
284.88	3127.25
285.09	2887.64
285.31	3033.04
285.52	3297.23
285.74	3010.51
285.95	3186.64
286.17	3100.62
286.38	3514.31
286.60	3160.02
286.81	2971.60
287.03	2936.79
287.24	3313.61
287.46	3454.92
287.67	3067.86
287.89	3192.78
288.10	3313.61
288.32	3256.27
288.53	3219.41
288.75	2901.97
288.96	3407.82
289.18	3157.97
289.39	2961.36
289.61	3094.48
289.82	3768.26
290.04	3629.00
290.25	2895.83
290.47	3125.20
290.68	3221.45
290.90	3481.55
291.11	2801.62
291.33	3182.54
291.54	3225.55
291.76	3209.17
291.97	3051.47
292.18	3067.86
292.40	3213.26
292.61	3086.29
292.83	3284.94
293.04	3008.47
293.26	3342.28
293.47	3248.08
293.69	2906.07
293.90	2846.68
294.12	3551.18
294.33	3258.32
294.55	3039.19
294.76	3207.12
294.97	3516.36
295.19	3723.21
295.40	2926.55
295.62	3059.67
295.83	3379.15
296.05	3180.50
296.26	3119.06
296.48	2947.03
296.69	3291.09
296.90	3301.33
297.12	3147.73
297.33	3127.25
297.55	3260.37
297.76	3405.77
297.98	3112.91
298.19	3135.44
298.41	3219.41
298.62	3028.95
298.83	3278.80
299.05	3166.16
299.26	3258.32
299.48	3090.38
299.69	3053.52
299.90	2971.60
300.12	3137.49
300.33	3407.82
300.55	3002.32
300.76	3039.19
300.98	3119.06
301.19	3446.73
301.40	2967.51
301.62	2969.55
301.83	3393.48
302.05	3332.05
302.26	2973.65
302.47	3065.81
302.69	3010.51
302.90	3190.74
303.12	2762.71
303.33	3137.49
303.54	3667.91
303.76	3217.36
303.97	2938.84
304.19	3139.54
304.40	3135.44
304.61	3450.83
304.83	3117.01
305.04	3045.33
305.26	3370.96
305.47	3231.69
305.68	2947.03
305.90	2822.10
306.11	3538.89
306.33	3311.57
306.54	2893.78
306.75	2953.17
306.97	2975.70
307.18	3153.87
307.39	3028.95
307.61	3074.00
307.82	3321.81
308.04	3356.62
308.25	2885.59
308.46	3127.25
308.68	3332.05
308.89	3295.18
309.10	3018.71
309.32	2983.89
309.53	3221.45
309.74	3418.06
309.96	2912.21
310.17	3108.82
310.39	3250.13
310.60	3493.83
310.81	3000.27
311.03	2883.54
311.24	3479.50
311.45	3313.61
311.67	3295.18
311.88	3088.34
312.09	3223.50
312.31	3233.74
312.52	2908.12
312.73	2873.30
312.95	2961.36
313.16	3074.00
313.37	3180.50
313.59	3211.22
313.80	3381.20
314.01	3569.61
314.23	3004.37
314.44	2863.06
314.65	3157.97
314.87	3149.78
315.08	3004.37
315.29	3030.99
315.51	3123.15
315.72	3020.75
315.93	3039.19
316.15	3010.51
316.36	3155.92
316.57	3407.82
316.79	2938.84
317.00	2955.22
317.21	3473.36
317.43	3117.01
317.64	3094.48
317.85	2944.98
318.07	3020.75
318.28	3239.89
318.49	3200.98
318.70	3246.03
318.92	3323.85
319.13	3272.65
319.34	3188.69
319.56	2947.03
319.77	3377.10
319.98	3360.72
320.20	3334.09
320.41	3137.49
320.62	3405.77
320.83	3057.62
321.05	3180.50
321.26	3094.48
321.47	3274.70
321.69	3600.33
321.90	2912.21
322.11	3012.56
322.32	3399.63
322.54	3588.04
322.75	3004.37
322.96	4007.87
323.18	3020.75
323.39	2856.92
323.60	2947.03
323.81	3133.39
324.03	3065.81
324.24	3270.61
324.45	3137.49
324.66	2942.93
324.88	3436.49
325.09	3590.09
325.30	2930.64
325.52	2861.01
325.73	3383.24
325.94	3026.90
326.15	2893.78
326.37	2889.68
326.58	3377.10
326.79	3594.19
327.00	2910.16
327.22	3114.96
327.43	3192.78
327.64	3049.43
327.85	3104.72
328.07	3039.19
328.28	3657.67
328.49	3274.70
328.70	2983.89
328.92	2953.17
329.13	3233.74
329.34	3416.01
329.55	3254.22
329.76	3168.21
329.98	3203.02
330.19	3526.60
330.40	3043.28
330.61	3143.63
330.83	3481.55
331.04	3149.78
331.25	3028.95
331.46	3024.85
331.68	3033.04
331.89	3526.60
332.10	3053.52
332.31	2867.16
332.52	3239.89
332.74	3565.51
332.95	2848.72
333.16	2981.84
333.37	3483.59
333.58	3229.65
333.80	3033.04
334.01	2781.14
334.22	3207.12
334.43	3147.73
334.64	2932.69
334.86	2963.41
335.07	3131.34
335.28	3553.23
335.49	2877.40
335.70	3024.85
335.92	3514.31
336.13	3702.73
336.34	3114.96
336.55	3043.28
336.76	3426.25
336.98	2822.10
337.19	3002.32
337.40	3074.00
337.61	3753.93
337.82	3225.55
338.04	3129.30
338.25	2901.97
338.46	3274.70
338.67	3250.13
338.88	2863.06
339.09	2887.64
339.31	3194.83
339.52	3059.67
339.73	2985.94
339.94	2983.89
340.15	3381.20
340.36	3125.20
340.58	3082.19
340.79	2906.07
341.00	3393.48
341.21	3051.47
341.42	3284.94
341.63	3016.66
341.85	3426.25
342.06	3370.96
342.27	2969.55
342.48	3276.75
342.69	3049.43
342.90	3270.61
343.12	3409.87
343.33	2842.58
343.54	3536.84
343.75	3614.66
343.96	3067.86
344.17	2865.11
344.38	3211.22
344.60	3182.54
344.81	2928.60
345.02	3010.51
345.23	3471.31
345.44	3839.94
345.65	3051.47
345.86	3053.52
346.07	3323.85
346.29	3182.54
346.50	3106.77
346.71	3086.29
346.92	3420.11
347.13	3692.49
347.34	3018.71
347.55	2904.02
347.76	3440.59
347.98	2996.18
348.19	3014.61
348.40	3143.63
348.61	3182.54
348.82	3651.53
349.03	3106.77
349.24	2840.53
349.45	3727.30
349.66	2871.25
349.88	2951.12
350.09	2899.92
350.30	3581.90
350.51	3534.79
350.72	3186.64
350.93	2975.70
351.14	3227.60
351.35	3438.54
351.56	3045.33
351.77	3026.90
351.99	3397.58
352.20	3588.04
352.41	3100.62
352.62	2811.86
352.83	3260.37
353.04	3286.99
353.25	2975.70
353.46	2987.99
353.67	3545.03
353.88	2861.01
354.09	2951.12
354.30	3000.27
354.52	3416.01
354.73	3160.02
354.94	2949.08
355.15	3049.43
355.36	3762.12
355.57	3100.62
355.78	2955.22
355.99	3033.04
356.20	3231.69
356.41	3590.09
356.62	3010.51
356.83	3030.99
357.04	3545.03
357.25	2961.36
357.46	3002.32
357.68	2901.97
357.89	3047.38
358.10	3291.09
358.31	3004.37
358.52	3049.43
358.73	2996.18
358.94	3030.99
359.15	3030.99
359.36	3028.95
359.57	3266.51
359.78	3286.99
359.99	3112.91
360.20	2869.20
360.41	3203.02
360.62	3399.63
360.83	3106.77
361.04	3047.38
361.25	3332.05
361.46	3672.01
361.67	3178.45
361.88	3055.57
362.09	3545.03
362.30	3389.39
362.51	2951.12
362.72	3125.20
362.93	3411.92
363.14	3344.33
363.35	3143.63
363.56	2934.74
363.78	3450.83
363.99	3512.27
364.20	3057.62
364.41	3106.77
364.62	3629.00
364.83	3336.14
365.04	2965.46
365.25	2969.55
365.46	3643.34
365.67	3139.54
365.88	3198.93
366.09	2975.70
366.30	3188.69
366.51	3315.66
366.72	2979.79
366.93	2924.50
367.14	3256.27
367.35	3524.55
367.56	2848.72
367.77	3196.88
367.98	3176.40
368.18	3354.57
368.39	3088.34
368.60	2990.03
368.81	3405.77
369.02	3407.82
369.23	3010.51
369.44	2840.53
369.65	3143.63
369.86	3266.51
370.07	3104.72
370.28	2895.83
370.49	3405.77
370.70	3401.68
370.91	2861.01
371.12	2910.16
371.33	3518.41
371.54	3098.58
371.75	3082.19
371.96	2840.53
372.17	3260.37
372.38	3256.27
372.59	2977.75
372.80	2930.64
373.01	3252.17
373.22	3309.52
373.43	2944.98
373.64	2955.22
373.85	3479.50
374.06	3680.20
374.26	3166.16
374.47	3082.19
374.68	3618.76
374.89	3332.05
375.10	2938.84
375.31	3086.29
375.52	3303.37
375.73	3282.89
375.94	2893.78
376.15	3110.86
376.36	3135.44
376.57	3166.16
376.78	3041.23
376.99	3098.58
377.20	3549.13
377.40	3239.89
377.61	3342.28
377.82	2967.51
378.03	3553.23
378.24	3389.39
378.45	3100.62
378.66	3041.23
378.87	2971.60
379.08	2977.75
379.29	3018.71
379.50	3174.35
379.71	3293.13
379.91	3411.92
380.12	2994.13
380.33	3112.91
380.54	3198.93
380.75	3272.65
380.96	3041.23
381.17	3024.85
381.38	3200.98
381.59	3182.54
381.80	3094.48
382.00	3205.07
382.21	3346.38
382.42	3612.62
382.63	3407.82
382.84	3209.17
383.05	3393.48
383.26	3547.08
383.47	3137.49
383.68	2979.79
383.88	3360.72
384.09	3299.28
384.30	3246.03
384.51	3082.19
384.72	3211.22
384.93	3030.99
385.14	3098.58
385.35	3319.76
385.55	3014.61
385.76	3551.18
385.97	3004.37
386.18	2865.11
386.39	3104.72
386.60	3168.21
386.81	2936.79
387.02	2926.55
387.22	2938.84
387.43	3409.87
387.64	3106.77
387.85	3246.03
388.06	3370.96
388.27	4456.38
388.48	7694.22
388.68	12101.45
388.89	14982.94
389.10	16408.33
389.31	16260.87
389.52	13010.75
389.73	11249.49
389.93	10405.73
390.14	9138.04
390.35	8417.15
390.56	7776.14
390.77	6481.82
390.98	4935.60
391.18	4179.90
391.39	3952.58
391.60	3311.57
391.81	3252.17
392.02	3022.80
392.23	3737.54
392.43	3389.39
392.64	3217.36
392.85	3125.20
393.06	3561.42
393.27	3192.78
393.47	2949.08
393.68	3151.82
393.89	3237.84
394.10	3557.32
394.31	2938.84
394.52	2996.18
394.72	3114.96
394.93	3647.43
395.14	2914.26
395.35	3094.48
395.56	3176.40
395.76	3264.46
395.97	3096.53
396.18	3256.27
396.39	3301.33
396.60	3981.25
396.80	3495.88
397.01	3307.47
397.22	3389.39
397.43	3444.68
397.64	3051.47
397.84	3129.30
398.05	3704.78
398.26	3223.50
398.47	3135.44
398.67	3237.84
398.88	3282.89
399.09	3450.83
399.30	2942.93
399.51	3041.23
399.71	3131.34
399.92	3233.74
400.13	3139.54
400.34	3049.43
400.54	3307.47
400.75	3602.38
400.96	3203.02
401.17	3319.76
401.37	3301.33
401.58	3299.28
401.79	3041.23
402.00	3129.30
402.21	3811.27
402.41	3483.59
402.62	3395.53
402.83	3557.32
403.04	3768.26
403.24	4134.85
403.45	3241.93
403.66	3348.43
403.87	3530.70
404.07	3637.19
404.28	3358.67
404.49	3266.51
404.70	3413.96
404.90	3393.48
405.11	3035.09
405.32	3141.58
405.52	3186.64
405.73	3188.69
405.94	2887.64
406.15	3123.15
406.35	3456.97
406.56	3428.30
406.77	3078.10
406.98	3096.53
407.18	3168.21
407.39	3592.14
407.60	3135.44
407.80	3123.15
408.01	3209.17
408.22	3416.01
408.43	2979.79
408.63	3166.16
408.84	3450.83
409.05	3520.46
409.25	2932.69
409.46	3053.52
409.67	3170.26
409.88	3168.21
410.08	3086.29
410.29	3000.27
410.50	3459.02
410.70	3323.85
410.91	2910.16
411.12	3121.10
411.32	3272.65
411.53	3084.24
411.74	3102.67
411.95	3078.10
412.15	3291.09
412.36	3436.49
412.57	3223.50
412.77	3192.78
412.98	3237.84
413.19	3168.21
413.39	3192.78
413.60	3094.48
413.81	3534.79
414.01	3078.10
414.22	3131.34
414.43	3190.74
414.63	3299.28
414.84	3481.55
415.05	3102.67
415.25	2848.72
415.46	3459.02
415.67	3207.12
415.87	3012.56
416.08	3020.75
416.29	3225.55
416.49	3362.76
416.70	3155.92
416.91	3004.37
417.11	3170.26
417.32	3497.93
417.53	3155.92
417.73	3190.74
417.94	3375.05
418.15	3381.20
418.35	3030.99
418.56	3088.34
418.77	3737.54
418.97	3254.22
419.18	3166.16
419.38	2824.15
419.59	3286.99
419.80	3592.14
420.00	2944.98
420.21	3100.62
420.42	3563.47
420.62	3291.09
420.83	3092.43
421.04	3106.77
421.24	3297.23
421.45	3364.81
421.65	3004.37
421.86	3024.85
422.07	3510.22
422.27	3381.20
422.48	2910.16
422.69	2895.83
422.89	3362.76
423.10	3180.50
423.30	3035.09
423.51	3028.95
423.72	3436.49
423.92	3391.44
424.13	2971.60
424.33	3149.78
424.54	3393.48
424.75	3336.14
424.95	3295.18
425.16	2961.36
425.36	3246.03
425.57	3473.36
425.78	3188.69
425.98	3147.73
426.19	3260.37
426.39	3182.54
426.60	3135.44
426.81	3119.06
427.01	3303.37
427.22	3090.38
427.42	2914.26
427.63	3035.09
427.83	3430.35
428.04	3614.66
428.25	3123.15
428.45	3102.67
428.66	3467.21
428.86	3176.40
429.07	3157.97
429.28	3104.72
429.48	3207.12
429.69	3049.43
429.89	3213.26
430.10	2944.98
430.30	3360.72
430.51	3540.94
430.71	2992.08
430.92	3088.34
431.13	3180.50
431.33	3379.15
431.54	3129.30
431.74	3289.04
431.95	3643.34
432.15	3074.00
432.36	3012.56
432.56	3139.54
432.77	3680.20
432.98	3647.43
433.18	3127.25
433.39	2893.78
433.59	3147.73
433.80	3770.31
434.00	3170.26
434.21	3098.58
434.41	3057.62
434.62	3784.65
434.82	2904.02
435.03	2977.75
435.23	3370.96
435.44	3069.91
435.64	2965.46
435.85	3049.43
436.06	3436.49
436.26	3418.06
436.47	3051.47
436.67	3000.27
436.88	3348.43
437.08	3545.03
437.29	3211.22
437.49	3180.50
437.70	3528.65
437.90	3231.69
438.11	3334.09
438.31	3141.58
438.52	3477.45
438.72	3563.47
438.93	3344.33
439.13	3184.59
439.34	3426.25
439.54	3235.79
439.75	3147.73
439.95	3207.12
440.16	3026.90
440.36	3278.80
440.57	3125.20
440.77	2977.75
440.98	3227.60
441.18	3393.48
441.39	2914.26
441.59	2895.83
441.80	3653.58
442.00	3262.41
442.21	3164.11
442.41	2893.78
442.62	3493.83
442.82	3221.45
443.02	3049.43
443.23	3090.38
443.43	3184.59
443.64	3606.47
443.84	3045.33
444.05	3110.86
444.25	3276.75
444.46	3149.78
444.66	3026.90
444.87	3311.57
445.07	3002.32
445.28	3239.89
445.48	3266.51
445.69	3162.06
445.89	3762.12
446.09	3231.69
446.30	3401.68
446.50	3463.12
446.71	5109.68
446.91	6305.70
447.12	7311.25
447.32	7643.02
447.53	7636.88
447.73	6414.24
447.93	5621.67
448.14	5324.72
448.34	5449.64
448.55	4552.63
448.75	4442.04
448.96	4253.63
449.16	4097.99
449.36	3885.00
449.57	3348.43
449.77	3233.74
449.98	3215.31
450.18	3348.43
450.39	2942.93
450.59	3297.23
450.79	3319.76
451.00	3172.30
451.20	3215.31
451.41	2940.88
451.61	3334.09
451.81	3231.69
452.02	3057.62
452.22	3041.23
452.43	3246.03
452.63	3102.67
452.84	3151.82
453.04	2981.84
453.24	3330.00
453.45	3141.58
453.65	3104.72
453.86	3059.67
454.06	3305.42
454.26	3274.70
454.47	2998.23
454.67	3217.36
454.87	3346.38
455.08	3172.30
455.28	3139.54
455.49	3295.18
455.69	3123.15
455.89	3639.24
456.10	3131.34
456.30	3067.86
456.51	3420.11
456.71	3360.72
456.91	3198.93
457.12	3061.71
457.32	3395.53
457.52	3074.00
457.73	3258.32
457.93	3215.31
458.14	3178.45
458.34	2987.99
458.54	3160.02
458.75	3106.77
458.95	3450.83
459.15	3420.11
459.36	3065.81
459.56	3123.15
459.76	3725.26
459.97	3319.76
460.17	3067.86
460.37	3147.73
460.58	3346.38
460.78	3452.88
460.99	3057.62
461.19	3065.81
461.39	3256.27
461.60	3135.44
461.80	3110.86
462.00	2969.55
462.21	3229.65
462.41	3061.71
462.61	2901.97
462.82	2875.35
463.02	3403.72
463.22	3278.80
463.43	3053.52
463.63	2934.74
463.83	3479.50
464.04	3309.52
464.24	3043.28
464.44	2992.08
464.64	3284.94
464.85	3446.73
465.05	3108.82
465.25	2977.75
465.46	3217.36
465.66	3450.83
465.86	3231.69
466.07	3100.62
466.27	3200.98
466.47	2981.84
466.68	2826.20
466.88	3196.88
467.08	3401.68
467.29	3549.13
467.49	3078.10
467.69	3219.41
467.89	3344.33
468.10	3227.60
468.30	3147.73
468.50	3250.13
468.71	3379.15
468.91	2877.40
469.11	3200.98
469.31	3114.96
469.52	3125.20
469.72	3614.66
469.92	3330.00
470.13	2998.23
470.33	3325.90
470.53	3405.77
470.73	3495.88
470.94	3831.75
471.14	4143.04
471.34	4743.10
471.54	4335.55
471.75	4034.50
471.95	3782.60
472.15	3801.03
472.36	3815.37
472.56	3557.32
472.76	3821.51
472.96	3731.40
473.17	3391.44
473.37	3190.74
473.57	3332.05
473.77	3397.58
473.98	3182.54
474.18	2934.74
474.38	4073.41
474.58	3074.00
474.79	2957.27
474.99	3233.74
475.19	3528.65
475.39	3117.01
475.60	3125.20
475.80	2949.08
476.00	3350.48
476.20	3246.03
476.41	3135.44
476.61	3133.39
476.81	3618.76
477.01	3057.62
477.21	3364.81
477.42	3172.30
477.62	3090.38
477.82	3434.44
478.02	3057.62
478.23	3127.25
478.43	3172.30
478.63	3219.41
478.83	3043.28
479.03	3213.26
479.24	3596.23
479.44	3647.43
479.64	3004.37
479.84	2912.21
480.04	3151.82
480.25	3520.46
480.45	3016.66
480.65	2992.08
480.85	3547.08
481.06	3082.19
481.26	3135.44
481.46	3057.62
481.66	3303.37
481.86	3176.40
482.06	3321.81
482.27	3106.77
482.47	3149.78
482.67	3426.25
482.87	3106.77
483.07	3108.82
483.28	3139.54
483.48	3004.37
483.68	3123.15
483.88	2953.17
484.08	2920.40
484.29	3094.48
484.49	3143.63
484.69	2936.79
484.89	3522.51
485.09	3461.07
485.29	3067.86
485.50	3223.50
485.70	3184.59
485.90	3422.16
486.10	3123.15
486.30	3014.61
486.50	3538.89
486.71	3411.92
486.91	3129.30
487.11	3155.92
487.31	3016.66
487.51	3409.87
487.71	3033.04
487.91	2955.22
488.12	3137.49
488.32	2719.70
488.52	3092.43
488.72	2848.72
488.92	3352.52
489.12	3573.71
489.32	3174.35
489.53	3078.10
489.73	3041.23
489.93	3657.67
490.13	3078.10
490.33	2912.21
490.53	3344.33
490.73	3504.07
490.94	2869.20
491.14	3147.73
491.34	3418.06
491.54	3362.76
491.74	3928.00
491.94	4542.39
492.14	5183.41
492.34	5214.13
492.54	4749.24
492.75	4169.66
492.95	4448.19
493.15	4089.79
493.35	3835.85
493.55	3712.97
493.75	3719.11
493.95	3893.19
494.15	3409.87
494.35	3252.17
494.56	3317.71
494.76	3203.02
494.96	3282.89
495.16	2965.46
495.36	3248.08
495.56	3213.26
495.76	3127.25
495.96	3057.62
496.16	3026.90
496.36	3694.54
496.56	3004.37
496.77	3092.43
496.97	3282.89
497.17	3551.18
497.37	2895.83
497.57	3182.54
497.77	3323.85
497.97	3074.00
498.17	3174.35
498.37	3012.56
498.57	3481.55
498.77	3155.92
498.97	3284.94
499.17	3385.29
499.38	3233.74
499.58	3403.72
499.78	3260.37
499.98	3184.59
500.18	3153.87
500.38	3166.16
500.58	3297.23
500.78	3702.73
500.98	6113.19
501.18	8134.53
501.38	9830.25
501.58	11077.46
501.78	10813.28
501.98	9015.16
502.18	7378.83
502.38	6514.59
502.58	6447.01
502.78	5664.68
502.98	5373.87
503.18	5183.41
503.38	4937.65
503.59	4286.40
503.79	4071.36
503.99	3700.68
504.19	3921.86
504.39	3966.92
504.59	3633.10
504.79	3616.71
504.99	3979.20
505.19	3579.85
505.39	3338.19
505.59	3448.78
505.79	3712.97
505.99	3508.17
506.19	3200.98
506.39	3420.11
506.59	3141.58
506.79	3317.71
506.99	3315.66
507.19	3024.85
507.39	3282.89
507.59	3074.00
507.79	3028.95
507.99	3016.66
508.19	3278.80
508.39	3225.55
508.59	3022.80
508.79	3184.59
508.99	3708.87
509.19	3135.44
509.39	3170.26
509.59	3065.81
509.79	3119.06
509.99	3276.75
510.19	3180.50
510.39	3119.06
510.59	3309.52
510.79	3239.89
510.99	2983.89
511.19	2975.70
511.39	3561.42
511.59	3522.51
511.79	3278.80
511.99	2987.99
512.19	3596.23
512.38	3241.93
512.58	3016.66
512.78	2992.08
512.98	3542.99
513.18	3626.95
513.38	3053.52
513.58	3198.93
513.78	3254.22
513.98	3219.41
514.18	3157.97
514.38	3065.81
514.58	3305.42
514.78	3133.39
514.98	3002.32
515.18	3108.82
515.38	3143.63
515.58	3631.05
515.78	3022.80
515.98	3074.00
516.18	3508.17
516.38	3194.83
516.57	2990.03
516.77	2994.13
516.97	3411.92
517.17	3233.74
517.37	2781.14
517.57	3123.15
517.77	3282.89
517.97	3182.54
518.17	3123.15
518.37	2928.60
518.57	3147.73
518.77	3256.27
518.97	3055.57
519.16	3112.91
519.36	3465.16
519.56	3125.20
519.76	3010.51
519.96	3155.92
520.16	3532.75
520.36	3033.04
520.56	3254.22
520.76	2981.84
520.96	3106.77
521.16	3416.01
521.35	3311.57
521.55	3211.22
521.75	3289.04
521.95	3168.21
522.15	3053.52
522.35	2965.46
522.55	3192.78
522.75	3373.00
522.95	2961.36
523.14	2922.45
523.34	3227.60
523.54	3172.30
523.74	3139.54
523.94	3192.78
524.14	3024.85
524.34	3297.23
524.54	3346.38
524.73	3061.71
524.93	3465.16
525.13	3370.96
525.33	2869.20
525.53	3239.89
525.73	3360.72
525.93	3198.93
526.13	3041.23
526.32	3002.32
526.52	3506.12
526.72	3334.09
526.92	3135.44
527.12	3000.27
527.32	3037.14
527.52	3332.05
527.71	3172.30
527.91	3123.15
528.11	3168.21
528.31	3203.02
528.51	3057.62
528.71	3145.68
528.90	3358.67
529.10	3493.83
529.30	3104.72
529.50	2793.43
529.70	3303.37
529.90	3135.44
530.09	3020.75
530.29	2836.44
530.49	3076.05
530.69	3753.93
530.89	3248.08
531.09	3274.70
531.28	3151.82
531.48	3538.89
531.68	3059.67
531.88	3002.32
532.08	3459.02
532.28	3250.13
532.47	3147.73
532.67	3157.97
532.87	3389.39
533.07	3131.34
533.27	3061.71
533.46	3110.86
533.66	3307.47
533.86	3258.32
534.06	3160.02
534.26	3067.86
534.45	3229.65
534.65	3506.12
534.85	3229.65
535.05	2914.26
535.25	3448.78
535.44	2985.94
535.64	3088.34
535.84	2981.84
536.04	3194.83
536.24	3162.06
536.43	3061.71
536.63	3033.04
536.83	3198.93
537.03	3284.94
537.22	2861.01
537.42	2787.29
537.62	3301.33
537.82	3143.63
538.02	3289.04
538.21	3145.68
538.41	3856.33
538.61	3463.12
538.81	3186.64
539.00	3176.40
539.20	2987.99
539.40	3205.07
539.60	3059.67
539.79	3272.65
539.99	3231.69
540.19	3127.25
540.39	2979.79
540.58	3127.25
540.78	3502.03
540.98	3227.60
541.18	3319.76
541.37	3127.25
541.57	3403.72
541.77	3395.53
541.97	2963.41
542.16	2899.92
542.36	3129.30
542.56	3149.78
542.76	3319.76
542.95	3096.53
543.15	3303.37
543.35	3442.64
543.54	3006.42
543.74	3010.51
543.94	3598.28
544.14	3131.34
544.33	3162.06
544.53	3117.01
544.73	3168.21
544.93	3190.74
545.12	3014.61
545.32	3119.06
545.52	3188.69
545.71	3004.37
545.91	3033.04
546.11	3026.90
546.30	2961.36
546.50	3266.51
546.70	3162.06
546.90	3162.06
547.09	2940.88
547.29	3278.80
547.49	3170.26
547.68	3012.56
547.88	3147.73
548.08	3350.48
548.27	3381.20
548.47	3039.19
548.67	3200.98
548.87	3373.00
549.06	3078.10
549.26	2942.93
549.46	3387.34
549.65	3119.06
549.85	3053.52
550.05	3135.44
550.24	3002.32
550.44	3233.74
550.64	3135.44
550.83	3133.39
551.03	3514.31
551.23	3549.13
551.42	3098.58
551.62	3205.07
551.82	3270.61
552.01	3174.35
552.21	3381.20
552.41	3108.82
552.60	3485.64
552.80	3413.96
553.00	2994.13
553.19	3082.19
553.39	3653.58
553.59	2965.46
553.78	3198.93
553.98	3039.19
554.17	3051.47
554.37	3295.18
554.57	3168.21
554.76	2916.31
554.96	3200.98
555.16	3223.50
555.35	3123.15
555.55	3209.17
555.75	3358.67
555.94	3491.79
556.14	2879.44
556.33	3160.02
556.53	3192.78
556.73	3205.07
556.92	3119.06
557.12	3035.09
557.32	3743.69
557.51	3553.23
557.71	3131.34
557.90	3256.27
558.10	3553.23
558.30	3151.82
558.49	3067.86
558.69	3010.51
558.88	3330.00
559.08	3379.15
559.28	3067.86
559.47	3155.92
559.67	3393.48
559.86	3694.54
560.06	3037.14
560.26	3192.78
560.45	3452.88
560.65	3221.45
560.84	3373.00
561.04	2959.31
561.24	3463.12
561.43	3119.06
561.63	3325.90
561.82	3090.38
562.02	3377.10
562.22	3162.06
562.41	3035.09
562.61	3020.75
562.80	2971.60
563.00	3758.02
563.19	3135.44
563.39	3153.87
563.59	3385.29
563.78	3063.76
563.98	2795.48
564.17	2942.93
564.37	2940.88
564.56	3219.41
564.76	2998.23
564.96	3141.58
565.15	3403.72
565.35	3729.35
565.54	3035.09
565.74	3117.01
565.93	3452.88
566.13	3217.36
566.32	3157.97
566.52	3143.63
566.71	3301.33
566.91	3370.96
567.11	3137.49
567.30	3016.66
567.50	3391.44
567.69	3362.76
567.89	2977.75
568.08	2932.69
568.28	3293.13
568.47	3033.04
568.67	3071.95
568.86	3047.38
569.06	3418.06
569.25	3264.46
569.45	2928.60
569.64	3078.10
569.84	3211.22
570.04	3401.68
570.23	3069.91
570.43	3129.30
570.62	3268.56
570.82	3667.91
571.01	2955.22
571.21	3059.67
571.40	3114.96
571.60	3442.64
571.79	3172.30
571.99	3063.76
572.18	3145.68
572.38	3352.52
572.57	3143.63
572.77	3125.20
572.96	3862.47
573.16	3336.14
573.35	3078.10
573.55	3180.50
573.74	3364.81
573.94	3205.07
574.13	2987.99
574.33	3284.94
574.52	3555.27
574.71	3323.85
574.91	3092.43
575.10	2928.60
575.30	3196.88
575.49	3104.72
575.69	2977.75
575.88	3012.56
576.08	3284.94
576.27	3483.59
576.47	2998.23
576.66	3330.00
576.86	3612.62
577.05	3379.15
577.25	3221.45
577.44	3241.93
577.64	3229.65
577.83	3485.64
578.02	3078.10
578.22	3241.93
578.41	3581.90
578.61	3155.92
578.80	2944.98
579.00	3104.72
579.19	3278.80
579.39	3397.58
579.58	3223.50
579.77	3067.86
579.97	3495.88
580.16	3502.03
580.36	3289.04
580.55	3112.91
580.75	3454.92
580.94	3268.56
581.13	3270.61
581.33	3313.61
581.52	3282.89
581.72	3616.71
581.91	3149.78
582.11	3012.56
582.30	3487.69
582.49	3299.28
582.69	3463.12
582.88	3086.29
583.08	3291.09
583.27	3467.21
583.47	3231.69
583.66	3053.52
583.85	3137.49
584.05	3205.07
584.24	3233.74
584.44	3121.10
584.63	3516.36
584.82	3555.27
585.02	3381.20
585.21	3258.32
585.41	3301.33
585.60	3295.18
585.79	3321.81
585.99	3401.68
586.18	3334.09
586.37	4245.44
586.57	6254.50
586.76	17714.93
586.96	37258.70
587.15	50828.54
587.34	58780.80
587.54	62985.28
587.73	56521.89
587.93	40809.87
588.12	31374.88
588.31	25644.66
588.51	22580.90
588.70	20778.69
588.89	18433.77
589.09	15703.82
589.28	13467.44
589.47	10794.84
589.67	8161.16
589.86	6533.02
590.06	5121.97
590.25	4433.85
590.44	3936.20
590.64	3491.79
590.83	3557.32
591.02	3510.22
591.22	3067.86
591.41	3227.60
591.60	3309.52
591.80	3807.17
591.99	2861.01
592.18	3041.23
592.38	3489.74
592.57	3125.20
592.76	3088.34
592.96	3166.16
593.15	3276.75
593.34	3487.69
593.54	3028.95
593.73	3262.41
593.92	3321.81
594.12	3377.10
594.31	3119.06
594.50	3256.27
594.70	3336.14
594.89	3844.04
595.08	2971.60
595.28	3276.75
595.47	3962.82
595.66	3422.16
595.86	2942.93
596.05	2979.79
596.24	3262.41
596.43	3612.62
596.63	3125.20
596.82	3227.60
597.01	3461.07
597.21	3620.81
597.40	3098.58
597.59	3074.00
597.79	3262.41
597.98	3456.97
598.17	3186.64
598.36	3088.34
598.56	3377.10
598.75	3102.67
598.94	3129.30
599.14	3127.25
599.33	3241.93
599.52	3491.79
599.71	3143.63
599.91	3082.19
600.10	3426.25
600.29	3360.72
600.48	3102.67
600.68	3254.22
600.87	3385.29
601.06	3098.58
601.26	3227.60
601.45	3196.88
601.64	3315.66
601.83	3469.26
602.03	2959.31
602.22	2977.75
602.41	3549.13
602.60	3739.59
602.80	3225.55
602.99	3235.79
603.18	3213.26
603.37	3350.48
603.57	3000.27
603.76	3180.50
603.95	3545.03
604.14	3155.92
604.34	3055.57
604.53	3008.47
604.72	3278.80
604.91	3381.20
605.10	3018.71
605.30	2916.31
605.49	3782.60
605.68	3418.06
605.87	3033.04
606.07	2932.69
606.26	3393.48
606.45	3321.81
606.64	3112.91
606.84	3057.62
607.03	3299.28
607.22	3438.54
607.41	3209.17
607.60	3102.67
607.80	3510.22
607.99	3377.10
608.18	3114.96
608.37	3192.78
608.56	3190.74
608.76	3442.64
608.95	3348.43
609.14	3047.38
609.33	3502.03
609.52	3567.56
609.72	3301.33
609.91	3174.35
610.10	3266.51
610.29	3622.86
610.48	3164.11
610.68	3227.60
610.87	3278.80
611.06	3352.52
611.25	3108.82
611.44	3168.21
611.63	3186.64
611.83	3573.71
612.02	3012.56
612.21	3151.82
612.40	2955.22
612.59	3067.86
612.79	2928.60
612.98	3155.92
613.17	3583.95
613.36	3311.57
613.55	3164.11
613.74	3143.63
613.93	3413.96
614.13	3434.44
614.32	3246.03
614.51	3078.10
614.70	3256.27
614.89	3241.93
615.08	3248.08
615.28	3446.73
615.47	3110.86
615.66	3418.06
615.85	3170.26
616.04	3123.15
616.23	3295.18
616.42	3295.18
616.62	3078.10
616.81	3119.06
617.00	3264.46
617.19	3440.59
617.38	3053.52
617.57	3198.93
617.76	3407.82
617.95	3456.97
618.15	3254.22
618.34	3254.22
618.53	3098.58
618.72	3430.35
618.91	3194.83
619.10	3164.11
619.29	3272.65
619.48	3289.04
619.68	2953.17
619.87	3024.85
620.06	3037.14
620.25	3342.28
620.44	3037.14
620.63	3014.61
620.82	3397.58
621.01	3289.04
621.20	3145.68
621.39	3117.01
621.59	3383.24
621.78	3205.07
621.97	3114.96
622.16	3317.71
622.35	3332.05
622.54	3516.36
622.73	3100.62
622.92	2871.25
623.11	3497.93
623.30	3194.83
623.49	3219.41
623.68	2908.12
623.88	3631.05
624.07	3147.73
624.26	3074.00
624.45	2998.23
624.64	3200.98
624.83	3387.34
625.02	3133.39
625.21	3098.58
625.40	3356.62
625.59	3583.95
625.78	3114.96
625.97	3295.18
626.16	3510.22
626.35	3532.75
626.54	3123.15
626.74	3262.41
626.93	3233.74
627.12	3270.61
627.31	3184.59
627.50	3178.45
627.69	3502.03
627.88	3178.45
628.07	3092.43
628.26	2934.74
628.45	3168.21
628.64	2983.89
628.83	3080.14
629.02	2942.93
629.21	3407.82
629.40	3330.00
629.59	3037.14
629.78	3037.14
629.97	3332.05
630.16	3321.81
630.35	3004.37
630.54	3198.93
630.73	3155.92
630.92	3246.03
631.11	2973.65
631.30	3127.25
631.49	3522.51
631.68	3239.89
631.87	3043.28
632.06	2985.94
632.25	3753.93
632.44	3246.03
632.63	3131.34
632.82	3092.43
633.01	3252.17
633.20	3321.81
633.39	3004.37
633.58	2877.40
633.77	3286.99
633.96	3379.15
634.15	3131.34
634.34	3209.17
634.53	3389.39
634.72	3217.36
634.91	2934.74
635.10	3024.85
635.29	3434.44
635.48	3239.89
635.67	2936.79
635.86	2897.88
636.05	3549.13
636.24	3231.69
636.43	3080.14
636.62	3153.87
636.81	2795.48
637.00	3303.37
637.19	3039.19
637.38	3157.97
637.57	3117.01
637.76	3280.85
637.95	3315.66
638.14	3295.18
638.33	3241.93
638.52	3377.10
638.71	3008.47
638.89	3000.27
639.08	3805.13
639.27	3518.41
639.46	3299.28
639.65	3604.42
639.84	3907.52
640.03	3960.77
640.22	3639.24
640.41	3532.75
640.60	3454.92
640.79	3442.64
640.98	3315.66
641.17	3348.43
641.36	3475.40
641.55	3555.27
641.74	2987.99
641.92	3014.61
642.11	3117.01
642.30	3266.51
642.49	2987.99
642.68	3051.47
642.87	3250.13
643.06	3401.68
643.25	2961.36
643.44	2987.99
643.63	3223.50
643.82	3461.07
644.00	2914.26
644.19	3059.67
644.38	3090.38
644.57	3456.97
644.76	3131.34
644.95	3168.21
645.14	3309.52
645.33	3254.22
645.52	3182.54
645.71	2981.84
645.89	2979.79
646.08	3160.02
646.27	3082.19
646.46	3196.88
646.65	3106.77
646.84	3276.75
647.03	3020.75
647.22	3239.89
647.40	3364.81
647.59	3282.89
647.78	2836.44
647.97	3030.99
648.16	3086.29
648.35	3536.84
648.54	3327.95
648.73	3117.01
648.91	3411.92
649.10	3280.85
649.29	3033.04
649.48	3057.62
649.67	3389.39
649.86	3354.57
650.05	3190.74
650.23	3278.80
650.42	3246.03
650.61	3526.60
650.80	3235.79
650.99	3375.05
651.18	3522.51
651.36	3506.12
651.55	3016.66
651.74	3254.22
651.93	3186.64
652.12	3276.75
652.31	3119.06
652.49	3176.40
652.68	3200.98
652.87	3540.94
653.06	3092.43
653.25	3385.29
653.44	3266.51
653.62	3598.28
653.81	3170.26
654.00	3076.05
654.19	3440.59
654.38	3760.07
654.56	3180.50
654.75	3053.52
654.94	3469.26
655.13	3305.42
655.32	3102.67
655.51	3092.43
655.69	3198.93
655.88	3401.68
656.07	2951.12
656.26	3057.62
656.45	2975.70
656.63	3327.95
656.82	3045.33
657.01	3340.24
657.20	3104.72
657.38	3616.71
657.57	3043.28
657.76	2963.41
657.95	3473.36
658.14	3248.08
658.32	3282.89
658.51	2924.50
658.70	3340.24
658.89	3262.41
659.08	3139.54
659.26	3321.81
659.45	3078.10
659.64	3469.26
659.83	3119.06
660.01	3524.55
660.20	3352.52
660.39	3532.75
660.58	2828.24
660.76	3102.67
660.95	3010.51
661.14	3246.03
661.33	2881.49
661.51	3018.71
661.70	3231.69
661.89	3356.62
662.08	3125.20
662.26	2887.64
662.45	3049.43
662.64	3620.81
662.83	3098.58
663.01	2963.41
663.20	3207.12
663.39	3651.53
663.58	3125.20
663.76	3059.67
663.95	3340.24
664.14	3092.43
664.32	3098.58
664.51	2985.94
664.70	2936.79
664.89	3286.99
665.07	2897.88
665.26	3166.16
665.45	3039.19
665.64	3330.00
665.82	3037.14
666.01	3256.27
666.20	2944.98
666.38	3459.02
666.57	3442.64
666.76	5492.65
666.95	13059.90
667.13	20647.62
667.32	24864.39
667.51	27909.72
667.69	28999.24
667.88	23928.47
668.07	17503.99
668.25	14843.68
668.44	12851.00
668.63	11183.96
668.81	9824.11
669.00	8423.30
669.19	7696.27
669.38	6698.91
669.56	5631.91
669.75	4880.31
669.94	4450.24
670.12	3737.54
670.31	3508.17
670.50	3397.58
670.68	3397.58
670.87	3360.72
671.06	3065.81
671.24	3106.77
671.43	3737.54
671.62	3373.00
671.80	3084.24
671.99	3153.87
672.18	3348.43
672.36	3440.59
672.55	3178.45
672.74	3151.82
672.92	3180.50
673.11	3344.33
673.29	2914.26
673.48	3264.46
673.67	3186.64
673.85	3485.64
674.04	3092.43
674.23	3172.30
674.41	3676.10
674.60	3059.67
674.79	2965.46
674.97	2990.03
675.16	3403.72
675.34	3463.12
675.53	3100.62
675.72	3137.49
675.90	3577.80
676.09	3112.91
676.28	3178.45
676.46	3024.85
676.65	3469.26
676.83	3147.73
677.02	3086.29
677.21	3264.46
677.39	3348.43
677.58	3035.09
677.77	3004.37
677.95	2990.03
678.14	3196.88
678.32	3221.45
678.51	3196.88
678.70	3385.29
678.88	3198.93
679.07	3307.47
679.25	3086.29
679.44	3131.34
679.63	3012.56
679.81	3254.22
680.00	3389.39
680.18	3160.02
680.37	3583.95
680.55	3303.37
680.74	2867.16
680.93	2813.91
681.11	3278.80
681.30	3239.89
681.48	3076.05
681.67	3133.39
681.85	3264.46
682.04	3178.45
682.23	3217.36
682.41	3184.59
682.60	3227.60
682.78	3237.84
682.97	3006.42
683.15	3168.21
683.34	3284.94
683.53	3508.17
683.71	2928.60
683.90	3100.62
684.08	3647.43
684.27	3282.89
684.45	3147.73
684.64	3186.64
684.82	3368.91
685.01	3258.32
685.19	3098.58
685.38	3360.72
685.57	3291.09
685.75	3151.82
685.94	2979.79
686.12	2965.46
686.31	3205.07
686.49	3635.14
686.68	2854.87
686.86	3123.15
687.05	3258.32
687.23	3614.66
687.42	3028.95
687.60	2949.08
687.79	3483.59
687.97	3596.23
688.16	3174.35
688.34	3309.52
688.53	3033.04
688.71	3360.72
688.90	3321.81
689.08	3055.57
689.27	2867.16
689.45	3405.77
689.64	3209.17
689.82	3205.07
690.01	3344.33
690.19	3393.48
690.38	3196.88
690.56	3168.21
690.75	3147.73
690.93	3143.63
691.12	3059.67
691.30	3110.86
691.49	3125.20
691.67	3227.60
691.86	3428.30
692.04	3141.58
692.23	3213.26
692.41	3295.18
692.60	3395.53
692.78	3254.22
692.97	3254.22
693.15	3368.91
693.34	3330.00
693.52	3311.57
693.71	3131.34
693.89	3147.73
694.08	2969.55
694.26	3217.36
694.44	3407.82
694.63	3432.40
694.81	3000.27
695.00	3117.01
695.18	3448.78
695.37	3717.06
695.55	3168.21
695.74	3166.16
695.92	3153.87
696.10	3422.16
696.29	2975.70
696.47	3074.00
696.66	3053.52
696.84	3035.09
697.03	3117.01
697.21	3409.87
697.40	4681.66
697.58	3559.37
697.76	3024.85
697.95	2975.70
698.13	3030.99
698.32	3119.06
698.50	3010.51
698.68	3067.86
698.87	3307.47
699.05	3616.71
699.24	3033.04
699.42	3074.00
699.61	3325.90
699.79	3264.46
699.97	3074.00
700.16	2992.08
700.34	3082.19
700.53	3311.57
700.71	3381.20
700.89	3209.17
701.08	3125.20
701.26	3213.26
701.45	3405.77
701.63	3110.86
701.81	3164.11
702.00	3106.77
702.18	3239.89
702.37	3033.04
702.55	3547.08
702.73	3354.57
702.92	3096.53
703.10	3448.78
703.28	3446.73
703.47	3098.58
703.65	3346.38
703.84	3295.18
704.02	3215.31
704.20	3551.18
704.39	3053.52
704.57	3084.24
704.75	3444.68
704.94	3325.90
705.12	3284.94
705.30	3946.44
705.49	8744.83
705.67	16729.86
705.86	23946.90
706.04	26764.90
706.22	29660.73
706.41	28655.18
706.59	21415.61
706.77	16723.71
706.96	14427.94
707.14	13088.57
707.32	11224.92
707.51	9797.48
707.69	8163.20
707.87	6703.00
708.06	5353.39
708.24	4562.87
708.42	4038.59
708.61	4198.34
708.79	3282.89
708.97	3248.08
709.16	3418.06
709.34	3344.33
709.52	3166.16
709.71	3172.30
709.89	3418.06
710.07	3094.48
710.26	3037.14
710.44	3094.48
710.62	3426.25
710.80	3280.85
710.99	3229.65
711.17	3180.50
711.35	3153.87
711.54	3184.59
711.72	3305.42
711.90	3172.30
712.09	3409.87
712.27	3237.84
712.45	3155.92
712.63	3022.80
712.82	3282.89
713.00	3229.65
713.18	3215.31
713.37	3248.08
713.55	3428.30
713.73	3375.05
713.91	3160.02
714.10	3061.71
714.28	3229.65
714.46	3385.29
714.65	3186.64
714.83	3207.12
715.01	3321.81
715.19	3278.80
715.38	3022.80
715.56	3155.92
715.74	3203.02
715.92	3106.77
716.11	3395.53
716.29	2879.44
716.47	3270.61
716.65	3254.22
716.84	2992.08
717.02	3170.26
717.20	2916.31
717.38	3104.72
717.57	3215.31
717.75	3131.34
717.93	3131.34
718.11	3416.01
718.30	2953.17
718.48	3200.98
718.66	3518.41
718.84	3516.36
719.03	3055.57
719.21	2969.55
719.39	3626.95
719.57	3401.68
719.75	3246.03
719.94	3088.34
720.12	3196.88
720.30	3299.28
720.48	3135.44
720.67	3049.43
720.85	3065.81
721.03	3147.73
721.21	3090.38
721.39	3266.51
721.58	3370.96
721.76	3256.27
721.94	3110.86
722.12	3157.97
722.30	3573.71
722.49	3164.11
722.67	3108.82
722.85	3139.54
723.03	3033.04
723.21	3233.74
723.40	3178.45
723.58	3270.61
723.76	3438.54
723.94	3479.50
724.12	3114.96
724.30	3469.26
724.49	3405.77
724.67	3131.34
724.85	3270.61
725.03	3010.51
725.21	3395.53
725.40	3502.03
725.58	3090.38
725.76	3299.28
725.94	3360.72
726.12	3141.58
726.30	3082.19
726.49	3057.62
726.67	3184.59
726.85	3442.64
727.03	4020.16
727.21	5433.26
727.39	7380.88
727.57	7743.37
727.76	8204.16
727.94	8505.21
728.12	7370.64
728.30	5969.83
728.48	5564.33
728.66	5138.35
728.84	4777.91
729.03	4245.44
729.21	3827.65
729.39	3577.80
729.57	3424.20
729.75	3368.91
729.93	3381.20
730.11	3065.81
730.30	3166.16
730.48	3221.45
730.66	3076.05
730.84	3176.40
731.02	3373.00
731.20	3112.91
731.38	3145.68
731.56	2985.94
731.74	2985.94
731.93	3352.52
732.11	3149.78
732.29	3041.23
732.47	3381.20
732.65	3401.68
732.83	3282.89
733.01	3274.70
733.19	3192.78
733.37	3395.53
733.56	3157.97
733.74	2998.23
733.92	3547.08
734.10	3221.45
734.28	3303.37
734.46	2889.68
734.64	3231.69
734.82	3266.51
735.00	3069.91
735.18	2979.79
735.36	3198.93
735.54	3272.65
735.73	3143.63
735.91	3213.26
736.09	3551.18
736.27	3293.13
736.45	3192.78
736.63	2772.95
736.81	3117.01
736.99	3422.16
737.17	3282.89
737.35	2975.70
737.53	3364.81
737.71	3166.16
737.89	3340.24
738.07	3084.24
738.25	3123.15
738.43	2983.89
738.61	3166.16
738.80	2908.12
738.98	3047.38
739.16	3149.78
739.34	3047.38
739.52	3401.68
739.70	3260.37
739.88	3389.39
740.06	3149.78
740.24	2869.20
740.42	3438.54
740.60	2914.26
740.78	3086.29
740.96	2854.87
741.14	3131.34
741.32	3268.56
741.50	2899.92
741.68	3295.18
741.86	3549.13
742.04	3039.19
742.22	2944.98
742.40	3092.43
742.58	3463.12
742.76	3084.24
742.94	3346.38
743.12	2869.20
743.30	3284.94
743.48	3315.66
743.66	3078.10
743.84	3137.49
744.02	3383.24
744.20	3219.41
744.38	3024.85
744.56	3098.58
744.74	3624.90
744.92	3377.10
745.10	3360.72
745.28	3139.54
745.46	3596.23
745.64	3264.46
745.82	3239.89
746.00	2990.03
746.18	3334.09
746.36	3092.43
746.54	3071.95
746.72	3090.38
746.90	3090.38
747.08	3540.94
747.26	3086.29
747.44	3225.55
747.62	3383.24
747.80	3391.44
747.98	3196.88
748.15	3016.66
748.33	3616.71
748.51	3225.55
748.69	3221.45
748.87	2983.89
749.05	3233.74
749.23	3219.41
749.41	3028.95
749.59	3051.47
749.77	3428.30
749.95	3172.30
750.13	3090.38
750.31	3248.08
750.49	3250.13
750.67	3459.02
750.85	3237.84
751.03	3074.00
751.20	3651.53
751.38	3321.81
751.56	3172.30
751.74	3080.14
751.92	3166.16
752.10	3063.76
752.28	3268.56
752.46	2981.84
752.64	3348.43
752.82	3354.57
753.00	3227.60
753.18	3069.91
753.35	3160.02
753.53	3262.41
753.71	3004.37
753.89	3131.34
754.07	3397.58
754.25	3467.21
754.43	3190.74
754.61	2920.40
754.79	3356.62
754.97	3243.98
755.14	3227.60
755.32	3043.28
755.50	3342.28
755.68	3336.14
755.86	3006.42
756.04	3010.51
756.22	2834.39
756.40	3401.68
756.57	3338.19
756.75	3071.95
756.93	3540.94
757.11	3379.15
757.29	3039.19
757.47	3026.90
757.65	2967.51
757.82	2795.48
758.00	2994.13
758.18	3043.28
758.36	3098.58
758.54	3639.24
758.72	2957.27
758.90	3248.08
759.07	3338.19
759.25	3096.53
759.43	3209.17
759.61	3008.47
759.79	4499.39
759.97	3540.94
760.15	3082.19
760.32	3033.04
760.50	3305.42
760.68	3577.80
760.86	2926.55
761.04	3268.56
761.22	3397.58
761.39	3278.80
761.57	3237.84
761.75	3030.99
761.93	3450.83
762.11	3231.69
762.28	3196.88
762.46	3028.95
762.64	3459.02
762.82	3004.37
763.00	3059.67
763.18	3282.89
763.35	3041.23
763.53	3370.96
763.71	3108.82
763.89	3082.19
764.07	3297.23
764.24	3352.52
764.42	3243.98
764.60	3018.71
764.78	3297.23
764.96	3477.45
765.13	3264.46
765.31	2908.12
765.49	3422.16
765.67	3045.33
765.84	3022.80
766.02	2979.79
766.20	2906.07
766.38	3350.48
766.56	3157.97
766.73	3155.92
766.91	3338.19
767.09	3354.57
767.27	3196.88
767.44	2942.93
767.62	3454.92
767.80	3375.05
767.98	3016.66
768.15	3119.06
768.33	3473.36
768.51	3420.11
768.69	3151.82
768.87	3114.96
769.04	3305.42
769.22	3755.97
769.40	3237.84
769.58	3321.81
769.75	3403.72
769.93	3540.94
770.11	3123.15
770.28	3006.42
770.46	3401.68
770.64	3334.09
770.82	3123.15
770.99	3033.04
771.17	3377.10
771.35	3184.59
771.53	3164.11
771.70	3041.23
771.88	3327.95
772.06	3196.88
772.23	3053.52
772.41	3137.49
772.59	3282.89
772.77	3084.24
772.94	3112.91
773.12	3157.97
773.30	3084.24
773.47	3256.27
773.65	3008.47
773.83	3309.52
774.01	3221.45
774.18	2901.97
774.36	3076.05
774.54	3035.09
774.71	3321.81
774.89	3026.90
775.07	2953.17
775.24	3016.66
775.42	3145.68
775.60	3561.42
775.78	3041.23
775.95	2963.41
776.13	2848.72
776.31	3008.47
776.48	3299.28
776.66	3284.94
776.84	3139.54
777.01	3121.10
777.19	2944.98
777.37	2967.51
777.54	3348.43
777.72	3727.30
777.90	3180.50
778.07	3037.14
778.25	3909.57
778.43	3416.01
778.60	3065.81
778.78	3123.15
778.96	3465.16
779.13	2983.89
779.31	3086.29
779.49	3119.06
779.66	3205.07
779.84	3239.89
780.01	3008.47
780.19	3014.61
780.37	3588.04
780.54	3416.01
780.72	2930.64
780.90	3125.20
781.07	3252.17
781.25	3106.77
781.43	3330.00
781.60	3049.43
781.78	3506.12
781.95	3307.47
782.13	3065.81
782.31	3094.48
782.48	3022.80
782.66	3246.03
782.83	3323.85
783.01	3178.45
783.19	3428.30
783.36	3160.02
783.54	3061.71
783.72	3100.62
783.89	3205.07
784.07	3272.65
784.24	3250.13
784.42	3239.89
784.60	3411.92
784.77	3350.48
784.95	2861.01
785.12	3094.48
785.30	3323.85
785.47	3092.43
785.65	3033.04
785.83	3102.67
786.00	3149.78
786.18	3250.13
786.35	3020.75
786.53	2979.79
786.71	3514.31
786.88	3397.58
787.06	3184.59
787.23	3155.92
787.41	3090.38
787.58	3250.13
787.76	2987.99
787.94	3147.73
788.11	3358.67
788.29	3000.27
788.46	3035.09
788.64	2885.59
788.81	3260.37
788.99	3106.77
789.16	2965.46
789.34	3092.43
789.52	3170.26
789.69	3221.45
789.87	2889.68
790.04	3051.47
790.22	3254.22
790.39	3614.66
790.57	2963.41
790.74	2959.31
790.92	3430.35
791.09	3008.47
791.27	3190.74
791.44	3166.16
791.62	3227.60
791.79	3483.59
791.97	3119.06
792.15	3373.00
792.32	3373.00
792.50	3405.77
792.67	3248.08
792.85	3362.76
793.02	3360.72
793.20	3215.31
793.37	3012.56
793.55	3090.38
793.72	3016.66
793.90	3395.53
794.07	3090.38
794.25	2977.75
794.42	3344.33
794.60	3246.03
794.77	3155.92
794.95	3164.11
795.12	3434.44
795.30	3143.63
795.47	2856.92
795.65	3456.97
795.82	3405.77
796.00	3104.72
796.17	3143.63
796.34	2957.27
796.52	3375.05
796.69	3442.64
796.87	3198.93
797.04	3168.21
797.22	3467.21
797.39	3344.33
797.57	3227.60
797.74	3207.12
797.92	3307.47
798.09	3117.01
798.27	3373.00
798.44	3117.01
798.62	3188.69
798.79	3282.89
798.96	3237.84
799.14	3137.49
799.31	3764.17
799.49	3190.74
799.66	2998.23
799.84	3176.40
800.01	3016.66
800.19	3330.00
800.36	2871.25
800.53	3137.49
800.71	3338.19
800.88	3561.42
801.06	3051.47
801.23	3047.38
801.41	3180.50
801.58	3139.54
801.75	3016.66
801.93	3100.62
802.10	3483.59
802.28	3176.40
802.45	3094.48
802.63	3104.72
802.80	3446.73
802.97	3221.45
803.15	3139.54
803.32	3002.32
803.50	3129.30
803.67	3104.72
803.84	3004.37
804.02	3030.99
804.19	3270.61
804.37	2885.59
804.54	2934.74
804.71	3094.48
804.89	3278.80
805.06	3061.71
805.24	2983.89
805.41	2799.57
805.58	3190.74
805.76	3721.16
805.93	3000.27
806.10	3143.63
806.28	3420.11
806.45	3291.09
806.63	3342.28
806.80	3143.63
806.97	3368.91
807.15	3325.90
807.32	3194.83
807.49	3006.42
807.67	2977.75
807.84	3352.52
808.01	2858.96
808.19	3246.03
808.36	3655.62
808.54	3192.78
808.71	3086.29
808.88	3065.81
809.06	3487.69
809.23	3545.03
809.40	3110.86
809.58	3098.58
809.75	3262.41
809.92	3014.61
810.10	3332.05
810.27	3069.91
810.44	3291.09
810.62	3446.73
810.79	3071.95
810.96	3047.38
811.14	3184.59
811.31	3319.76
811.48	3303.37
811.66	3123.15
811.83	3512.27
812.00	3393.48
812.18	3194.83
812.35	3340.24
812.52	3200.98
812.69	3166.16
812.87	3104.72
813.04	3035.09
813.21	3215.31
813.39	3092.43
813.56	3016.66
813.73	3377.10
813.91	3018.71
814.08	3262.41
814.25	3106.77
814.42	2899.92
814.60	3147.73
814.77	3278.80
814.94	3014.61
815.12	3139.54
815.29	3549.13
815.46	3192.78
815.63	3096.53
815.81	3067.86
815.98	3209.17
816.15	3256.27
816.33	3188.69
816.50	3082.19
816.67	3301.33
816.84	3174.35
817.02	3004.37
817.19	3041.23
817.36	3397.58
817.53	3332.05
817.71	3018.71
817.88	3008.47
818.05	3264.46
818.22	3164.11
818.40	3295.18
818.57	2996.18
818.74	3403.72
818.91	3352.52
819.09	3239.89
819.26	3160.02
819.43	3155.92
819.60	3168.21
819.78	3327.95
819.95	3160.02
820.12	3108.82
820.29	3545.03
820.47	3354.57
820.64	3022.80
820.81	2947.03
820.98	3164.11
821.15	3074.00
821.33	3305.42
821.50	3008.47
821.67	3373.00
821.84	3057.62
822.02	3026.90
822.19	3485.64
822.36	3205.07
822.53	2994.13
822.70	2955.22
822.88	3229.65
823.05	3483.59
823.22	3127.25
823.39	3123.15
823.56	3250.13
823.74	3682.25
823.91	2910.16
824.08	2932.69
824.25	3030.99
824.42	3573.71
824.60	2856.92
824.77	3153.87
824.94	3143.63
825.11	3338.19
825.28	2938.84
825.45	3276.75
825.63	3246.03
825.80	3162.06
825.97	3149.78
826.14	3190.74
826.31	2908.12
826.48	3379.15
826.66	3016.66
826.83	3004.37
827.00	3284.94
827.17	3043.28
827.34	3121.10
827.51	3010.51
827.69	3284.94
827.86	2910.16
828.03	3123.15
828.20	3106.77
828.37	3160.02
828.54	3321.81
828.71	3067.86
828.89	3211.22
829.06	3295.18
829.23	3542.99
829.40	3033.04
829.57	3041.23
829.74	3487.69
829.91	3106.77
830.09	2987.99
830.26	3203.02
830.43	3557.32
830.60	3184.59
830.77	3258.32
830.94	3282.89
831.11	3368.91
831.28	3160.02
831.46	3162.06
831.63	3061.71
831.80	3499.98
831.97	3063.76
832.14	3135.44
832.31	3108.82
832.48	3368.91
832.65	3461.07
832.82	3149.78
832.99	3147.73
833.17	3041.23
833.34	3606.47
833.51	2979.79
833.68	2877.40
833.85	3473.36
834.02	3035.09
834.19	3002.32
834.36	3108.82
834.53	3286.99
834.70	3379.15
834.87	3033.04
835.04	2854.87
835.22	3065.81
835.39	3188.69
835.56	2926.55
835.73	2893.78
835.90	3424.20
836.07	3047.38
836.24	3100.62
836.41	2955.22
836.58	2990.03
836.75	3426.25
836.92	2873.30
837.09	2834.39
837.26	3377.10
837.43	3368.91
837.60	2959.31
837.77	2891.73
837.94	3385.29
838.12	3477.45
838.29	2869.20
838.46	2850.77
838.63	3061.71
838.80	3530.70
838.97	2947.03
839.14	2889.68
839.31	3303.37
839.48	3301.33
839.65	2932.69
839.82	3063.76
839.99	3243.98
840.16	3282.89
840.33	2861.01
840.50	2967.51
840.67	3139.54
840.84	2742.23
841.01	2926.55
841.18	2879.44
841.35	3237.84
841.52	3348.43
841.69	3264.46
841.86	2994.13
842.03	3250.13
842.20	3450.83
842.37	2947.03
842.54	2957.27
842.71	3256.27
842.88	2949.08
843.05	2979.79
843.22	2893.78
843.39	3442.64
843.56	3190.74
843.73	2944.98
843.90	2969.55
844.07	3266.51
844.24	3397.58
844.41	2949.08
844.58	2977.75
844.75	3262.41
844.92	3393.48
845.09	2994.13
845.26	2895.83
845.43	3391.44
845.60	3268.56
845.77	3012.56
845.94	3065.81
846.10	3471.31
846.27	3016.66
846.44	2801.62
846.61	2877.40
846.78	3411.92
846.95	3428.30
847.12	2934.74
847.29	2912.21
847.46	3114.96
847.63	3356.62
847.80	2856.92
847.97	2893.78
848.14	3700.68
848.31	3227.60
848.48	2799.57
848.65	2842.58
848.82	3127.25
848.98	3786.69
849.15	3112.91
849.32	2994.13
849.49	3409.87
849.66	3196.88
849.83	2844.63
850.00	2887.64
850.17	3471.31
850.34	3196.88
850.51	2904.02
850.68	2930.64
850.85	3672.01
851.01	3280.85
851.18	2910.16
851.35	3000.27
851.52	3274.70
851.69	3602.38
851.86	2822.10
852.03	2861.01
852.20	3428.30
852.37	3241.93
852.53	2807.77
852.70	2842.58
852.87	3344.33
853.04	3366.86
853.21	2983.89
853.38	3221.45
853.55	3467.21
853.72	3502.03
853.89	2824.15
854.05	2881.49
854.22	3180.50
854.39	3164.11
854.56	2914.26
854.73	3092.43
854.90	3127.25
855.07	3250.13
855.23	2836.44
855.40	2910.16
855.57	3108.82
855.74	2850.77
855.91	3104.72
856.08	2729.94
856.25	3000.27
856.41	3117.01
856.58	2904.02
856.75	2955.22
856.92	3006.42
857.09	3499.98
857.26	2729.94
857.42	2996.18
857.59	3350.48
857.76	3127.25
857.93	2969.55
858.10	3035.09
858.27	3069.91
858.43	3311.57
858.60	2965.46
858.77	2828.24
858.94	3106.77
859.11	3428.30
859.27	2928.60
859.44	2803.67
859.61	3645.38
859.78	3270.61
859.95	2928.60
860.12	2787.29
860.28	3776.45
860.45	3663.82
860.62	2912.21
860.79	3096.53
860.95	3155.92
861.12	3190.74
861.29	2840.53
861.46	2893.78
861.63	3235.79
861.79	3239.89
861.96	2799.57
862.13	2928.60
862.30	3631.05
862.47	3102.67
862.63	2824.15
862.80	2977.75
862.97	3424.20
863.14	3332.05
863.30	2959.31
863.47	2928.60
863.64	3499.98
863.81	3370.96
863.97	2799.57
864.14	2934.74
864.31	3119.06
864.48	3317.71
864.65	2934.74
864.81	3125.20
864.98	3319.76
865.15	3495.88
865.32	2979.79
865.48	2985.94
865.65	3561.42
865.82	3176.40
865.98	3000.27
866.15	3041.23
866.32	3166.16
866.49	3137.49
866.65	3047.38
866.82	2947.03
866.99	3231.69
867.16	3090.38
867.32	2996.18
867.49	2875.35
867.66	3200.98
867.83	3119.06
867.99	2815.96
868.16	2983.89
868.33	3028.95
868.49	3143.63
868.66	2908.12
868.83	2963.41
868.99	3246.03
869.16	3289.04
869.33	3092.43
869.50	3090.38
869.66	3188.69
869.83	3217.36
870.00	2869.20
870.16	3039.19
870.33	3270.61
870.50	3450.83
870.66	2963.41
870.83	2951.12
871.00	3221.45
871.17	3336.14
871.33	2961.36
871.50	2914.26
871.67	3299.28
871.83	2936.79
872.00	3030.99
872.17	2916.31
872.33	3680.20
872.50	3366.86
872.67	2871.25
872.83	2883.54
873.00	3293.13
873.17	3172.30
873.33	2955.22
873.50	2994.13
873.67	3102.67
873.83	3145.68
874.00	2963.41
874.16	3092.43
874.33	3252.17
874.50	2975.70
874.66	2818.00
874.83	3014.61
875.00	3508.17
875.16	3459.02
875.33	3051.47
875.50	2688.98
875.66	3090.38
875.83	3270.61
875.99	3033.04
876.16	3123.15
876.33	3096.53
876.49	3289.04
876.66	2975.70
876.83	2944.98
876.99	2981.84
877.16	3194.83
877.32	2957.27
877.49	2998.23
877.66	3360.72
877.82	3469.26
877.99	2963.41
878.15	3198.93
878.32	3356.62
878.49	3211.22
878.65	3041.23
878.82	3182.54
878.98	3160.02
879.15	3575.75
879.32	3049.43
879.48	3086.29
879.65	3252.17
879.81	3172.30
879.98	2955.22
880.15	3033.04
880.31	3487.69
880.48	3049.43
880.64	3041.23
880.81	3078.10
880.97	3594.19
881.14	3530.70
881.31	2840.53
881.47	3123.15
881.64	3170.26
881.80	2885.59
881.97	3121.10
882.13	2932.69
882.30	2918.36
882.47	3141.58
882.63	2963.41
882.80	2838.48
882.96	3147.73
883.13	3426.25
883.29	2889.68
883.46	2869.20
883.62	3794.89
883.79	3221.45
883.95	3168.21
884.12	2881.49
884.29	3502.03
884.45	3266.51
884.62	2897.88
884.78	2901.97
884.95	3567.56
885.11	3094.48
885.28	3022.80
885.44	3010.51
885.61	3469.26
885.77	3473.36
885.94	3002.32
886.10	2975.70
886.27	3262.41
886.43	3719.11
886.60	3145.68
886.76	2998.23
886.93	3082.19
887.09	3256.27
887.26	2904.02
887.42	2983.89
887.59	3536.84
887.75	3676.10
887.92	3135.44
888.08	2998.23
888.25	3682.25
888.41	3393.48
888.58	3028.95
888.74	2879.44
888.91	3129.30
>>>>>End Processed Spectral Data<<<<<
