SpectraSuite Data File
++++++++++++++++++++++++++++++++++++
Date: Fri May 06 08:14:06 CEST 2016
User: root
Dark Spectrum Present: No
Reference Spectrum Present: No
Number of Sampled Component Spectra: 1
Spectrometers: USB4C02835
Integration Time (usec): 100000 (USB4C02835)
Spectra Averaged: 1 (USB4C02835)
Boxcar Smoothing: 0 (USB4C02835)
Correct for Electrical Dark: No (USB4C02835)
Strobe/Lamp Enabled: No (USB4C02835)
Correct for Detector Non-linearity: No (USB4C02835)
Correct for Stray Light: No (USB4C02835)
Number of Pixels in Processed Spectrum: 3648
>>>>>Begin Processed Spectral Data<<<<<
177.47	2310.11
177.69	2310.11
177.91	2310.11
178.13	2359.26
178.36	2330.59
178.58	2990.03
178.80	3166.16
179.02	2967.51
179.24	2961.36
179.46	2760.66
179.68	2793.43
179.90	3246.03
180.13	3291.09
180.35	2658.26
180.57	2807.77
180.79	3418.06
181.01	3160.02
181.23	2863.06
181.45	2994.13
181.67	3340.24
181.90	3491.79
182.12	2910.16
182.34	2717.65
182.56	3360.72
182.78	3430.35
183.00	2813.91
183.22	2848.72
183.44	2981.84
183.66	3942.34
183.89	2959.31
184.11	2942.93
184.33	3409.87
184.55	3512.27
184.77	2879.44
184.99	2791.38
185.21	3194.83
185.43	3798.98
185.65	2947.03
185.87	2844.63
186.10	3708.87
186.32	3786.69
186.54	2951.12
186.76	2971.60
186.98	3528.65
187.20	3200.98
187.42	2885.59
187.64	2918.36
187.86	3366.86
188.08	3502.03
188.30	2801.62
188.52	2871.25
188.75	3532.75
188.97	3626.95
189.19	2869.20
189.41	2840.53
189.63	3303.37
189.85	3180.50
190.07	2705.37
190.29	2775.00
190.51	3354.57
190.73	3106.77
190.95	3002.32
191.17	2852.82
191.39	2985.94
191.61	3209.17
191.84	2797.53
192.06	3033.04
192.28	2910.16
192.50	3887.04
192.72	3020.75
192.94	2975.70
193.16	3526.60
193.38	3405.77
193.60	2772.95
193.82	3094.48
194.04	3567.56
194.26	3375.05
194.48	2893.78
194.70	2904.02
194.92	3139.54
195.14	3467.21
195.36	2842.58
195.58	2879.44
195.80	3297.23
196.02	3137.49
196.24	2836.44
196.46	2901.97
196.69	3162.06
196.91	3827.65
197.13	2877.40
197.35	2947.03
197.57	3616.71
197.79	3502.03
198.01	2969.55
198.23	2936.79
198.45	3434.44
198.67	3041.23
198.89	2703.32
199.11	2934.74
199.33	3094.48
199.55	2863.06
199.77	2811.86
199.99	3020.75
200.21	3174.35
200.43	3348.43
200.65	2709.46
200.87	2715.61
201.09	3301.33
201.31	3278.80
201.53	2918.36
201.75	2961.36
201.97	3413.96
202.19	3299.28
202.41	2906.07
202.63	2918.36
202.85	3391.44
203.07	3411.92
203.29	3049.43
203.51	2762.71
203.73	3145.68
203.95	3854.28
204.17	2928.60
204.39	2971.60
204.61	3282.89
204.83	3157.97
205.05	3092.43
205.27	2879.44
205.49	3686.34
205.71	3301.33
205.93	2775.00
206.15	2828.24
206.37	3268.56
206.59	3188.69
206.81	2729.94
207.03	2748.37
207.25	3131.34
207.47	3504.07
207.69	2955.22
207.91	3137.49
208.13	3692.49
208.34	3151.82
208.56	2805.72
208.78	2893.78
209.00	3213.26
209.22	3127.25
209.44	2914.26
209.66	2842.58
209.88	3299.28
210.10	3286.99
210.32	2879.44
210.54	2985.94
210.76	3217.36
210.98	3508.17
211.20	2729.94
211.42	2955.22
211.64	3561.42
211.86	3461.07
212.08	2906.07
212.30	2854.87
212.52	3225.55
212.74	3497.93
212.96	3014.61
213.17	2928.60
213.39	3450.83
213.61	3581.90
213.83	2873.30
214.05	2740.18
214.27	3483.59
214.49	3102.67
214.71	2844.63
214.93	3002.32
215.15	3299.28
215.37	3383.24
215.59	2705.37
215.81	2914.26
216.03	3579.85
216.24	3289.04
216.46	2869.20
216.68	3010.51
216.90	3448.78
217.12	3530.70
217.34	2795.48
217.56	2971.60
217.78	3571.66
218.00	3360.72
218.22	2871.25
218.44	2975.70
218.66	3356.62
218.87	3651.53
219.09	2942.93
219.31	2918.36
219.53	3274.70
219.75	3260.37
219.97	2928.60
220.19	2861.01
220.41	3209.17
220.63	3567.56
220.85	2967.51
221.06	2869.20
221.28	3524.55
221.50	3418.06
221.72	2881.49
221.94	2734.04
222.16	3223.50
222.38	3448.78
222.60	2856.92
222.82	2836.44
223.03	3532.75
223.25	3028.95
223.47	2820.05
223.69	3051.47
223.91	3452.88
224.13	3350.48
224.35	2781.14
224.57	3043.28
224.78	3452.88
225.00	3110.86
225.22	2979.79
225.44	2813.91
225.66	3442.64
225.88	3188.69
226.10	2951.12
226.32	2928.60
226.53	3565.51
226.75	3198.93
226.97	2959.31
227.19	2877.40
227.41	3065.81
227.63	3190.74
227.85	2731.99
228.06	2906.07
228.28	3303.37
228.50	3467.21
228.72	2766.81
228.94	2818.00
229.16	2914.26
229.37	3100.62
229.59	2725.85
229.81	3125.20
230.03	3174.35
230.25	3049.43
230.47	2744.28
230.69	2854.87
230.90	3549.13
231.12	3143.63
231.34	2949.08
231.56	2947.03
231.78	3010.51
232.00	3264.46
232.21	2893.78
232.43	2834.39
232.65	2881.49
232.87	3309.52
233.09	2740.18
233.30	2818.00
233.52	3649.48
233.74	3352.52
233.96	2785.24
234.18	3057.62
234.40	3278.80
234.61	3768.26
234.83	2740.18
235.05	2838.48
235.27	3749.83
235.49	3530.70
235.70	2705.37
235.92	2834.39
236.14	3418.06
236.36	3749.83
236.58	2793.43
236.79	2916.31
237.01	3338.19
237.23	3241.93
237.45	3071.95
237.67	2861.01
237.88	3289.04
238.10	3639.24
238.32	2738.13
238.54	2803.67
238.76	3248.08
238.97	3057.62
239.19	2852.82
239.41	2920.40
239.63	3469.26
239.85	3180.50
240.06	3000.27
240.28	2865.11
240.50	3475.40
240.72	3381.20
240.93	2764.76
241.15	3000.27
241.37	3291.09
241.59	3532.75
241.81	2844.63
242.02	2904.02
242.24	3358.67
242.46	3446.73
242.68	2676.70
242.89	2895.83
243.11	3342.28
243.33	3262.41
243.55	2828.24
243.76	2924.50
243.98	3117.01
244.20	3231.69
244.42	2877.40
244.64	2805.72
244.85	3024.85
245.07	3106.77
245.29	2875.35
245.51	2875.35
245.72	3336.14
245.94	3450.83
246.16	2762.71
246.38	2922.45
246.59	3182.54
246.81	3151.82
247.03	2811.86
247.24	2734.04
247.46	3225.55
247.68	3248.08
247.90	2736.09
248.11	2910.16
248.33	3444.68
248.55	3157.97
248.77	2940.88
248.98	2981.84
249.20	3657.67
249.42	3289.04
249.64	2850.77
249.85	2836.44
250.07	3145.68
250.29	3356.62
250.50	2938.84
250.72	2852.82
250.94	3428.30
251.16	3733.45
251.37	2801.62
251.59	2942.93
251.81	3420.11
252.02	3620.81
252.24	2791.38
252.46	3018.71
252.68	3098.58
252.89	3119.06
253.11	2656.22
253.33	3035.09
253.54	3532.75
253.76	2983.89
253.98	2938.84
254.20	2752.47
254.41	3051.47
254.63	3207.12
254.85	2787.29
255.06	3022.80
255.28	3350.48
255.50	3170.26
255.71	2820.05
255.93	2701.27
256.15	3291.09
256.36	3395.53
256.58	2662.36
256.80	2785.24
257.02	3188.69
257.23	3196.88
257.45	2858.96
257.67	2996.18
257.88	3139.54
258.10	3428.30
258.32	2842.58
258.53	2975.70
258.75	3606.47
258.97	3127.25
259.18	2772.95
259.40	2781.14
259.62	3672.01
259.83	3643.34
260.05	2867.16
260.27	3755.97
260.48	3526.60
260.70	3028.95
260.92	2785.24
261.13	2904.02
261.35	3327.95
261.57	3403.72
261.78	2746.33
262.00	2828.24
262.22	3370.96
262.43	3192.78
262.65	2787.29
262.86	2842.58
263.08	3786.69
263.30	3237.84
263.51	2688.98
263.73	2768.85
263.95	3592.14
264.16	3035.09
264.38	2746.33
264.60	2772.95
264.81	3229.65
265.03	3518.41
265.25	3237.84
265.46	2783.19
265.68	3469.26
265.89	3413.96
266.11	2748.37
266.33	2885.59
266.54	3448.78
266.76	3379.15
266.98	2885.59
267.19	3092.43
267.41	3547.08
267.62	3241.93
267.84	2686.94
268.06	2947.03
268.27	3317.71
268.49	3522.51
268.70	2975.70
268.92	2883.54
269.14	3143.63
269.35	3002.32
269.57	2957.27
269.79	2957.27
270.00	3172.30
270.22	3663.82
270.43	2746.33
270.65	2734.04
270.87	3231.69
271.08	3504.07
271.30	2912.21
271.51	2914.26
271.73	3436.49
271.95	3596.23
272.16	2828.24
272.38	3018.71
272.59	3237.84
272.81	3434.44
273.02	2775.00
273.24	2906.07
273.46	3499.98
273.67	2998.23
273.89	2768.85
274.10	2879.44
274.32	3536.84
274.54	3295.18
274.75	2922.45
274.97	2994.13
275.18	3446.73
275.40	3360.72
275.61	2914.26
275.83	3069.91
276.05	3037.14
276.26	3254.22
276.48	2996.18
276.69	2998.23
276.91	3139.54
277.12	3571.66
277.34	3002.32
277.55	3100.62
277.77	3291.09
277.99	3160.02
278.20	2979.79
278.42	2836.44
278.63	3164.11
278.85	3098.58
279.06	2951.12
279.28	3170.26
279.49	3489.74
279.71	3497.93
279.93	3092.43
280.14	3094.48
280.36	3051.47
280.57	3401.68
280.79	3067.86
281.00	2856.92
281.22	3188.69
281.43	3600.33
281.65	2772.95
281.86	2938.84
282.08	3401.68
282.29	3590.09
282.51	2836.44
282.73	2951.12
282.94	2942.93
283.16	3426.25
283.37	3065.81
283.59	2992.08
283.80	3362.76
284.02	3174.35
284.23	2994.13
284.45	2926.55
284.66	2992.08
284.88	3139.54
285.09	2910.16
285.31	3080.14
285.52	3338.19
285.74	2944.98
285.95	3131.34
286.17	2942.93
286.38	3549.13
286.60	3065.81
286.81	2973.65
287.03	2938.84
287.24	3299.28
287.46	3426.25
287.67	3108.82
287.89	3219.41
288.10	3188.69
288.32	3313.61
288.53	3104.72
288.75	2983.89
288.96	3428.30
289.18	3100.62
289.39	2920.40
289.61	3059.67
289.82	3770.31
290.04	3719.11
290.25	2838.48
290.47	3061.71
290.68	3174.35
290.90	3467.21
291.11	2861.01
291.33	3125.20
291.54	3125.20
291.76	3131.34
291.97	3164.11
292.18	3051.47
292.40	3229.65
292.61	3155.92
292.83	3344.33
293.04	3030.99
293.26	3377.10
293.47	3229.65
293.69	2904.02
293.90	2893.78
294.12	3506.12
294.33	3338.19
294.55	3006.42
294.76	3237.84
294.97	3600.33
295.19	3680.20
295.40	2963.41
295.62	3114.96
295.83	3430.35
296.05	3131.34
296.26	3225.55
296.48	2963.41
296.69	3246.03
296.90	3196.88
297.12	3067.86
297.33	3174.35
297.55	3284.94
297.76	3418.06
297.98	3127.25
298.19	3260.37
298.41	3311.57
298.62	3053.52
298.83	3164.11
299.05	3065.81
299.26	3149.78
299.48	3114.96
299.69	3022.80
299.90	2990.03
300.12	3014.61
300.33	3373.00
300.55	3002.32
300.76	3051.47
300.98	3051.47
301.19	3499.98
301.40	2983.89
301.62	2992.08
301.83	3327.95
302.05	3289.04
302.26	3026.90
302.47	3030.99
302.69	3067.86
302.90	3174.35
303.12	2840.53
303.33	3098.58
303.54	3661.77
303.76	3246.03
303.97	2981.84
304.19	3192.78
304.40	3000.27
304.61	3385.29
304.83	3117.01
305.04	3047.38
305.26	3413.96
305.47	3184.59
305.68	2977.75
305.90	2881.49
306.11	3532.75
306.33	3229.65
306.54	2822.10
306.75	2926.55
306.97	2975.70
307.18	3106.77
307.39	3004.37
307.61	3057.62
307.82	3289.04
308.04	3426.25
308.25	2861.01
308.46	3178.45
308.68	3248.08
308.89	3272.65
309.10	3104.72
309.32	2967.51
309.53	3368.91
309.74	3409.87
309.96	2912.21
310.17	3104.72
310.39	3205.07
310.60	3385.29
310.81	3078.10
311.03	3018.71
311.24	3391.44
311.45	3221.45
311.67	3282.89
311.88	3129.30
312.09	3200.98
312.31	3207.12
312.52	2887.64
312.73	2824.15
312.95	2955.22
313.16	3000.27
313.37	3114.96
313.59	3117.01
313.80	3479.50
314.01	3643.34
314.23	3018.71
314.44	2926.55
314.65	3030.99
314.87	3127.25
315.08	3086.29
315.29	3043.28
315.51	3190.74
315.72	2926.55
315.93	3047.38
316.15	3065.81
316.36	3168.21
316.57	3248.08
316.79	2975.70
317.00	2955.22
317.21	3397.58
317.43	3090.38
317.64	3016.66
317.85	2897.88
318.07	3086.29
318.28	3172.30
318.49	3104.72
318.70	3200.98
318.92	3358.67
319.13	3381.20
319.34	3233.74
319.56	2985.94
319.77	3377.10
319.98	3409.87
320.20	3213.26
320.41	3233.74
320.62	3442.64
320.83	3051.47
321.05	3147.73
321.26	3121.10
321.47	3264.46
321.69	3514.31
321.90	2947.03
322.11	2973.65
322.32	3282.89
322.54	3534.79
322.75	3047.38
322.96	3917.76
323.18	3020.75
323.39	2906.07
323.60	2877.40
323.81	3100.62
324.03	3063.76
324.24	3252.17
324.45	3051.47
324.66	2928.60
324.88	3436.49
325.09	3655.62
325.30	3018.71
325.52	2957.27
325.73	3319.76
325.94	3098.58
326.15	2844.63
326.37	2873.30
326.58	3426.25
326.79	3616.71
327.00	2951.12
327.22	3008.47
327.43	3241.93
327.64	3143.63
327.85	3135.44
328.07	3053.52
328.28	3626.95
328.49	3164.11
328.70	3030.99
328.92	2973.65
329.13	3225.55
329.34	3342.28
329.55	3299.28
329.76	3147.73
329.98	3184.59
330.19	3598.28
330.40	3082.19
330.61	3098.58
330.83	3424.20
331.04	3059.67
331.25	3067.86
331.46	3100.62
331.68	2992.08
331.89	3487.69
332.10	3059.67
332.31	2830.29
332.52	3280.85
332.74	3483.59
332.95	2865.11
333.16	3057.62
333.37	3493.83
333.58	3139.54
333.80	3002.32
334.01	2813.91
334.22	3260.37
334.43	3121.10
334.64	2985.94
334.86	2983.89
335.07	3043.28
335.28	3635.14
335.49	2967.51
335.70	3061.71
335.92	3510.22
336.13	3700.68
336.34	3067.86
336.55	3047.38
336.76	3352.52
336.98	2867.16
337.19	2983.89
337.40	3100.62
337.61	3798.98
337.82	3250.13
338.04	3129.30
338.25	2873.30
338.46	3241.93
338.67	3299.28
338.88	2871.25
339.09	2934.74
339.31	3188.69
339.52	3080.14
339.73	2959.31
339.94	3035.09
340.15	3377.10
340.36	3217.36
340.58	3108.82
340.79	2858.96
341.00	3370.96
341.21	3045.33
341.42	3270.61
341.63	3006.42
341.85	3499.98
342.06	3346.38
342.27	2932.69
342.48	3192.78
342.69	3086.29
342.90	3317.71
343.12	3321.81
343.33	2994.13
343.54	3483.59
343.75	3534.79
343.96	3078.10
344.17	2877.40
344.38	3303.37
344.60	3045.33
344.81	2910.16
345.02	2918.36
345.23	3491.79
345.44	3850.18
345.65	3067.86
345.86	3082.19
346.07	3360.72
346.29	3182.54
346.50	3114.96
346.71	2975.70
346.92	3563.47
347.13	3700.68
347.34	3094.48
347.55	2910.16
347.76	3442.64
347.98	2926.55
348.19	3002.32
348.40	3182.54
348.61	3301.33
348.82	3624.90
349.03	3076.05
349.24	2910.16
349.45	3657.67
349.66	2863.06
349.88	2998.23
350.09	2947.03
350.30	3590.09
350.51	3499.98
350.72	3207.12
350.93	3071.95
351.14	3200.98
351.35	3342.28
351.56	3033.04
351.77	3067.86
351.99	3360.72
352.20	3569.61
352.41	3129.30
352.62	2885.59
352.83	3276.75
353.04	3239.89
353.25	2977.75
353.46	3135.44
353.67	3461.07
353.88	2807.77
354.09	2897.88
354.30	2965.46
354.52	3413.96
354.73	3280.85
354.94	2967.51
355.15	3104.72
355.36	3723.21
355.57	3125.20
355.78	2891.73
355.99	2906.07
356.20	3239.89
356.41	3600.33
356.62	3078.10
356.83	3008.47
357.04	3553.23
357.25	2918.36
357.46	2951.12
357.68	2924.50
357.89	3127.25
358.10	3243.98
358.31	2987.99
358.52	3008.47
358.73	3088.34
358.94	3098.58
359.15	2981.84
359.36	3010.51
359.57	3270.61
359.78	3250.13
359.99	3213.26
360.20	2875.35
360.41	3307.47
360.62	3401.68
360.83	3051.47
361.04	3028.95
361.25	3348.43
361.46	3641.29
361.67	3153.87
361.88	2938.84
362.09	3430.35
362.30	3250.13
362.51	2963.41
362.72	3020.75
362.93	3381.20
363.14	3305.42
363.35	3110.86
363.56	2924.50
363.78	3516.36
363.99	3454.92
364.20	3063.76
364.41	3100.62
364.62	3622.86
364.83	3344.33
365.04	3016.66
365.25	3071.95
365.46	3635.14
365.67	3074.00
365.88	3190.74
366.09	2955.22
366.30	3231.69
366.51	3342.28
366.72	2942.93
366.93	2973.65
367.14	3225.55
367.35	3542.99
367.56	2967.51
367.77	3100.62
367.98	3307.47
368.18	3424.20
368.39	3121.10
368.60	2926.55
368.81	3407.82
369.02	3303.37
369.23	3051.47
369.44	2887.64
369.65	3289.04
369.86	3409.87
370.07	3176.40
370.28	2906.07
370.49	3389.39
370.70	3450.83
370.91	3016.66
371.12	2906.07
371.33	3520.46
371.54	3252.17
371.75	3170.26
371.96	2734.04
372.17	3356.62
372.38	3301.33
372.59	3010.51
372.80	2942.93
373.01	3266.51
373.22	3387.34
373.43	3004.37
373.64	2877.40
373.85	3532.75
374.06	3600.33
374.26	3223.50
374.47	3133.39
374.68	3569.61
374.89	3344.33
375.10	2987.99
375.31	3065.81
375.52	3307.47
375.73	3344.33
375.94	2805.72
376.15	3078.10
376.36	3117.01
376.57	3233.74
376.78	3037.14
376.99	3055.57
377.20	3522.51
377.40	3127.25
377.61	3350.48
377.82	2996.18
378.03	3598.28
378.24	3442.64
378.45	3098.58
378.66	3084.24
378.87	2947.03
379.08	2969.55
379.29	3028.95
379.50	3205.07
379.71	3295.18
379.91	3428.30
380.12	2987.99
380.33	3108.82
380.54	3321.81
380.75	3223.50
380.96	2998.23
381.17	3067.86
381.38	3393.48
381.59	3370.96
381.80	3114.96
382.00	3162.06
382.21	3227.60
382.42	3512.27
382.63	3373.00
382.84	3188.69
383.05	3475.40
383.26	3592.14
383.47	3121.10
383.68	3002.32
383.88	3432.40
384.09	3256.27
384.30	3246.03
384.51	3198.93
384.72	3254.22
384.93	3002.32
385.14	3074.00
385.35	3360.72
385.55	2963.41
385.76	3528.65
385.97	3098.58
386.18	2893.78
386.39	3137.49
386.60	3135.44
386.81	2947.03
387.02	2912.21
387.22	3004.37
387.43	3409.87
387.64	3125.20
387.85	3223.50
388.06	3276.75
388.27	4394.94
388.48	7849.86
388.68	12076.87
388.89	14804.77
389.10	16488.20
389.31	16160.52
389.52	13084.47
389.73	11327.32
389.93	10362.72
390.14	9146.23
390.35	8449.92
390.56	8017.80
390.77	6557.60
390.98	5013.43
391.18	4145.09
391.39	3944.39
391.60	3299.28
391.81	3379.15
392.02	3016.66
392.23	3823.56
392.43	3323.85
392.64	3127.25
392.85	3133.39
393.06	3637.19
393.27	3272.65
393.47	3053.52
393.68	3164.11
393.89	3196.88
394.10	3545.03
394.31	3022.80
394.52	3041.23
394.72	3098.58
394.93	3557.32
395.14	2967.51
395.35	3084.24
395.56	3155.92
395.76	3192.78
395.97	3033.04
396.18	3180.50
396.39	3342.28
396.60	3944.39
396.80	3393.48
397.01	3270.61
397.22	3456.97
397.43	3426.25
397.64	3041.23
397.84	3143.63
398.05	3723.21
398.26	3342.28
398.47	3186.64
398.67	3280.85
398.88	3289.04
399.09	3411.92
399.30	2987.99
399.51	3074.00
399.71	3135.44
399.92	3147.73
400.13	3131.34
400.34	3098.58
400.54	3262.41
400.75	3581.90
400.96	3145.68
401.17	3338.19
401.37	3397.58
401.58	3270.61
401.79	3102.67
402.00	3131.34
402.21	3909.57
402.41	3420.11
402.62	3344.33
402.83	3483.59
403.04	3725.26
403.24	4122.56
403.45	3192.78
403.66	3330.00
403.87	3454.92
404.07	3596.23
404.28	3327.95
404.49	3430.35
404.70	3373.00
404.90	3444.68
405.11	3006.42
405.32	3157.97
405.52	3184.59
405.73	3180.50
405.94	2994.13
406.15	3157.97
406.35	3440.59
406.56	3452.88
406.77	3078.10
406.98	3074.00
407.18	3190.74
407.39	3491.79
407.60	3074.00
407.80	3096.53
408.01	3145.68
408.22	3350.48
408.43	2914.26
408.63	3176.40
408.84	3477.45
409.05	3510.22
409.25	3018.71
409.46	3084.24
409.67	3217.36
409.88	3127.25
410.08	3094.48
410.29	3045.33
410.50	3405.77
410.70	3399.63
410.91	2951.12
411.12	3084.24
411.32	3323.85
411.53	3153.87
411.74	3086.29
411.95	3117.01
412.15	3297.23
412.36	3391.44
412.57	3311.57
412.77	3203.02
412.98	3231.69
413.19	3272.65
413.39	3082.19
413.60	3174.35
413.81	3614.66
414.01	3041.23
414.22	3102.67
414.43	3217.36
414.63	3248.08
414.84	3497.93
415.05	3094.48
415.25	2887.64
415.46	3416.01
415.67	3094.48
415.87	3082.19
416.08	3010.51
416.29	3225.55
416.49	3348.43
416.70	3125.20
416.91	3067.86
417.11	3192.78
417.32	3467.21
417.53	3094.48
417.73	3104.72
417.94	3311.57
418.15	3340.24
418.35	3119.06
418.56	3049.43
418.77	3801.03
418.97	3305.42
419.18	3041.23
419.38	2760.66
419.59	3258.32
419.80	3583.95
420.00	3004.37
420.21	3069.91
420.42	3559.37
420.62	3368.91
420.83	2979.79
421.04	3041.23
421.24	3235.79
421.45	3438.54
421.65	3063.76
421.86	3125.20
422.07	3362.76
422.27	3348.43
422.48	2918.36
422.69	2904.02
422.89	3393.48
423.10	3278.80
423.30	3026.90
423.51	3086.29
423.72	3399.63
423.92	3360.72
424.13	2996.18
424.33	3102.67
424.54	3497.93
424.75	3276.75
424.95	3286.99
425.16	2973.65
425.36	3250.13
425.57	3442.64
425.78	3225.55
425.98	3145.68
426.19	3170.26
426.39	3110.86
426.60	3127.25
426.81	3164.11
427.01	3368.91
427.22	3147.73
427.42	2889.68
427.63	2983.89
427.83	3456.97
428.04	3571.66
428.25	3094.48
428.45	3166.16
428.66	3524.55
428.86	3286.99
429.07	3131.34
429.28	3026.90
429.48	3192.78
429.69	3149.78
429.89	3131.34
430.10	2955.22
430.30	3446.73
430.51	3461.07
430.71	2987.99
430.92	3205.07
431.13	3213.26
431.33	3344.33
431.54	3192.78
431.74	3215.31
431.95	3741.64
432.15	3059.67
432.36	3037.14
432.56	3123.15
432.77	3680.20
432.98	3674.06
433.18	3153.87
433.39	2918.36
433.59	3270.61
433.80	3766.21
434.00	3254.22
434.21	3117.01
434.41	3180.50
434.62	3747.78
434.82	2947.03
435.03	2983.89
435.23	3319.76
435.44	2985.94
435.64	3092.43
435.85	3114.96
436.06	3409.87
436.26	3399.63
436.47	3041.23
436.67	2992.08
436.88	3260.37
437.08	3495.88
437.29	3205.07
437.49	3123.15
437.70	3524.55
437.90	3178.45
438.11	3295.18
438.31	3209.17
438.52	3540.94
438.72	3461.07
438.93	3456.97
439.13	3143.63
439.34	3428.30
439.54	3137.49
439.75	3162.06
439.95	3102.67
440.16	3184.59
440.36	3248.08
440.57	3076.05
440.77	3041.23
440.98	3301.33
441.18	3338.19
441.39	2985.94
441.59	2904.02
441.80	3760.07
442.00	3291.09
442.21	3168.21
442.41	2920.40
442.62	3508.17
442.82	3231.69
443.02	3123.15
443.23	3076.05
443.43	3239.89
443.64	3602.38
443.84	2953.17
444.05	3147.73
444.25	3270.61
444.46	3157.97
444.66	3026.90
444.87	3217.36
445.07	2981.84
445.28	3223.50
445.48	3342.28
445.69	3110.86
445.89	3829.70
446.09	3211.22
446.30	3364.81
446.50	3420.11
446.71	5048.24
446.91	6389.66
447.12	7239.57
447.32	7700.36
447.53	7780.23
447.73	6514.59
447.93	5506.99
448.14	5296.05
448.34	5506.99
448.55	4534.20
448.75	4521.92
448.96	4204.48
449.16	4075.46
449.36	3954.63
449.57	3385.29
449.77	3196.88
449.98	3178.45
450.18	3299.28
450.39	2979.79
450.59	3297.23
450.79	3252.17
451.00	3110.86
451.20	3319.76
451.41	3030.99
451.61	3385.29
451.81	3207.12
452.02	2928.60
452.22	3063.76
452.43	3155.92
452.63	3096.53
452.84	3121.10
453.04	2992.08
453.24	3280.85
453.45	3182.54
453.65	3022.80
453.86	3114.96
454.06	3311.57
454.26	3340.24
454.47	3010.51
454.67	3264.46
454.87	3389.39
455.08	3235.79
455.28	3170.26
455.49	3221.45
455.69	3172.30
455.89	3739.59
456.10	3143.63
456.30	3037.14
456.51	3444.68
456.71	3311.57
456.91	3133.39
457.12	3094.48
457.32	3346.38
457.52	3119.06
457.73	3209.17
457.93	3264.46
458.14	3182.54
458.34	2901.97
458.54	3043.28
458.75	3045.33
458.95	3440.59
459.15	3358.67
459.36	3094.48
459.56	3096.53
459.76	3784.65
459.97	3295.18
460.17	3041.23
460.37	3080.14
460.58	3286.99
460.78	3403.72
460.99	3131.34
461.19	3000.27
461.39	3272.65
461.60	3205.07
461.80	3164.11
462.00	2977.75
462.21	3299.28
462.41	3114.96
462.61	2885.59
462.82	2873.30
463.02	3418.06
463.22	3332.05
463.43	3147.73
463.63	2990.03
463.83	3520.46
464.04	3424.20
464.24	3049.43
464.44	2998.23
464.64	3321.81
464.85	3338.19
465.05	3076.05
465.25	2994.13
465.46	3211.22
465.66	3504.07
465.86	3102.67
466.07	2969.55
466.27	3286.99
466.47	2949.08
466.68	2852.82
466.88	3119.06
467.08	3413.96
467.29	3438.54
467.49	3059.67
467.69	3268.56
467.89	3413.96
468.10	3260.37
468.30	3112.91
468.50	3188.69
468.71	3420.11
468.91	2990.03
469.11	3254.22
469.31	3207.12
469.52	3053.52
469.72	3588.04
469.92	3286.99
470.13	3141.58
470.33	3327.95
470.53	3379.15
470.73	3549.13
470.94	3864.52
471.14	4136.90
471.34	4771.77
471.54	4323.26
471.75	4116.42
471.95	3854.28
472.15	3844.04
472.36	3678.15
472.56	3606.47
472.76	3911.62
472.96	3725.26
473.17	3473.36
473.37	3278.80
473.57	3190.74
473.77	3485.64
473.98	3221.45
474.18	2992.08
474.38	4057.03
474.58	3180.50
474.79	2985.94
474.99	3176.40
475.19	3536.84
475.39	3182.54
475.60	3157.97
475.80	3080.14
476.00	3389.39
476.20	3260.37
476.41	3106.77
476.61	3080.14
476.81	3577.80
477.01	3147.73
477.21	3282.89
477.42	3147.73
477.62	3176.40
477.82	3499.98
478.02	3022.80
478.23	3045.33
478.43	3129.30
478.63	3192.78
478.83	3117.01
479.03	3053.52
479.24	3602.38
479.44	3620.81
479.64	2994.13
479.84	2742.23
480.04	3057.62
480.25	3487.69
480.45	3061.71
480.65	2953.17
480.85	3641.29
481.06	3164.11
481.26	3114.96
481.46	3016.66
481.66	3270.61
481.86	3106.77
482.06	3239.89
482.27	3106.77
482.47	3133.39
482.67	3381.20
482.87	3010.51
483.07	3094.48
483.28	3246.03
483.48	2940.88
483.68	3078.10
483.88	2934.74
484.08	2908.12
484.29	3035.09
484.49	3151.82
484.69	2865.11
484.89	3573.71
485.09	3485.64
485.29	3065.81
485.50	3139.54
485.70	3098.58
485.90	3581.90
486.10	3129.30
486.30	3012.56
486.50	3504.07
486.71	3319.76
486.91	3141.58
487.11	3135.44
487.31	3006.42
487.51	3350.48
487.71	3047.38
487.91	3006.42
488.12	3053.52
488.32	2895.83
488.52	3067.86
488.72	2791.38
488.92	3356.62
489.12	3538.89
489.32	3225.55
489.53	3024.85
489.73	3033.04
489.93	3690.44
490.13	3010.51
490.33	2953.17
490.53	3319.76
490.73	3405.77
490.94	2869.20
491.14	3196.88
491.34	3512.27
491.54	3446.73
491.74	4001.73
491.94	4591.55
492.14	5109.68
492.34	5287.86
492.54	4720.57
492.75	4210.62
492.95	4411.32
493.15	4057.03
493.35	3766.21
493.55	3637.19
493.75	3706.82
493.95	3866.56
494.15	3315.66
494.35	3233.74
494.56	3237.84
494.76	3196.88
494.96	3231.69
495.16	3049.43
495.36	3266.51
495.56	3297.23
495.76	3106.77
495.96	3030.99
496.16	3100.62
496.36	3655.62
496.56	2969.55
496.77	3194.83
496.97	3268.56
497.17	3540.94
497.37	2928.60
497.57	3213.26
497.77	3325.90
497.97	3086.29
498.17	3028.95
498.37	3059.67
498.57	3432.40
498.77	3205.07
498.97	3186.64
499.17	3510.22
499.38	3160.02
499.58	3366.86
499.78	3217.36
499.98	3221.45
500.18	3299.28
500.38	3063.76
500.58	3301.33
500.78	3692.49
500.98	6264.74
501.18	8259.46
501.38	9742.19
501.58	10829.66
501.78	10960.73
501.98	9078.65
502.18	7505.81
502.38	6520.73
502.58	6492.06
502.78	5728.17
502.98	5416.88
503.18	5267.38
503.38	4951.99
503.59	4220.86
503.79	4005.83
503.99	3749.83
504.19	3925.96
504.39	3909.57
504.59	3629.00
504.79	3610.57
504.99	3981.25
505.19	3598.28
505.39	3336.14
505.59	3542.99
505.79	3710.92
505.99	3426.25
506.19	3127.25
506.39	3346.38
506.59	3180.50
506.79	3127.25
506.99	3368.91
507.19	3012.56
507.39	3321.81
507.59	2983.89
507.79	3084.24
507.99	3037.14
508.19	3381.20
508.39	3145.68
508.59	3061.71
508.79	3172.30
508.99	3768.26
509.19	3108.82
509.39	3100.62
509.59	2936.79
509.79	3149.78
509.99	3334.09
510.19	3114.96
510.39	3209.17
510.59	3258.32
510.79	3225.55
510.99	2895.83
511.19	3074.00
511.39	3549.13
511.59	3528.65
511.79	3229.65
511.99	3061.71
512.19	3690.44
512.38	3284.94
512.58	3051.47
512.78	2899.92
512.98	3592.14
513.18	3633.10
513.38	2928.60
513.58	3180.50
513.78	3213.26
513.98	3200.98
514.18	3086.29
514.38	3084.24
514.58	3291.09
514.78	3174.35
514.98	2963.41
515.18	3071.95
515.38	2963.41
515.58	3672.01
515.78	3030.99
515.98	3121.10
516.18	3405.77
516.38	3278.80
516.57	3035.09
516.77	3069.91
516.97	3471.31
517.17	3117.01
517.37	2795.48
517.57	3082.19
517.77	3276.75
517.97	3172.30
518.17	3137.49
518.37	2920.40
518.57	3188.69
518.77	3151.82
518.97	3151.82
519.16	3139.54
519.36	3473.36
519.56	3272.65
519.76	3024.85
519.96	3110.86
520.16	3592.14
520.36	3071.95
520.56	3262.41
520.76	2967.51
520.96	3262.41
521.16	3532.75
521.35	3221.45
521.55	3135.44
521.75	3319.76
521.95	3164.11
522.15	3039.19
522.35	2887.64
522.55	3121.10
522.75	3381.20
522.95	2949.08
523.14	2918.36
523.34	3293.13
523.54	3106.77
523.74	3225.55
523.94	3112.91
524.14	3000.27
524.34	3385.29
524.54	3192.78
524.73	3063.76
524.93	3438.54
525.13	3295.18
525.33	2973.65
525.53	3319.76
525.73	3438.54
525.93	3284.94
526.13	3131.34
526.32	3002.32
526.52	3497.93
526.72	3448.78
526.92	3096.53
527.12	3014.61
527.32	3008.47
527.52	3352.52
527.71	3139.54
527.91	3051.47
528.11	3207.12
528.31	3196.88
528.51	2996.18
528.71	3254.22
528.90	3325.90
529.10	3506.12
529.30	3059.67
529.50	2758.61
529.70	3303.37
529.90	3225.55
530.09	3055.57
530.29	2942.93
530.49	3139.54
530.69	3798.98
530.89	3274.70
531.09	3127.25
531.28	3233.74
531.48	3485.64
531.68	3014.61
531.88	3057.62
532.08	3448.78
532.28	3151.82
532.47	3112.91
532.67	3160.02
532.87	3389.39
533.07	3080.14
533.27	3082.19
533.46	3166.16
533.66	3387.34
533.86	3272.65
534.06	3102.67
534.26	3065.81
534.45	3250.13
534.65	3426.25
534.85	3196.88
535.05	2969.55
535.25	3495.88
535.44	3004.37
535.64	3153.87
535.84	3119.06
536.04	3135.44
536.24	3192.78
536.43	2975.70
536.63	3039.19
536.83	3237.84
537.03	3203.02
537.22	2871.25
537.42	2865.11
537.62	3313.61
537.82	3074.00
538.02	3155.92
538.21	3110.86
538.41	3811.27
538.61	3330.00
538.81	3086.29
539.00	3241.93
539.20	3006.42
539.40	3246.03
539.60	3033.04
539.79	3215.31
539.99	3289.04
540.19	3162.06
540.39	2961.36
540.58	3164.11
540.78	3475.40
540.98	3303.37
541.18	3258.32
541.37	3088.34
541.57	3229.65
541.77	3375.05
541.97	2957.27
542.16	2922.45
542.36	3196.88
542.56	3139.54
542.76	3221.45
542.95	3160.02
543.15	3450.83
543.35	3348.43
543.54	2944.98
543.74	3071.95
543.94	3495.88
544.14	3106.77
544.33	3178.45
544.53	2959.31
544.73	3264.46
544.93	3106.77
545.12	3018.71
545.32	3033.04
545.52	3231.69
545.71	3065.81
545.91	2981.84
546.11	2975.70
546.30	3166.16
546.50	3211.22
546.70	3135.44
546.90	3155.92
547.09	2869.20
547.29	3377.10
547.49	3215.31
547.68	3094.48
547.88	3164.11
548.08	3366.86
548.27	3387.34
548.47	3010.51
548.67	3200.98
548.87	3413.96
549.06	3002.32
549.26	2985.94
549.46	3307.47
549.65	3153.87
549.85	3127.25
550.05	3119.06
550.24	3018.71
550.44	3286.99
550.64	3110.86
550.83	3164.11
551.03	3555.27
551.23	3416.01
551.42	3121.10
551.62	3086.29
551.82	3233.74
552.01	3239.89
552.21	3352.52
552.41	3192.78
552.60	3549.13
552.80	3237.84
553.00	3061.71
553.19	3088.34
553.39	3647.43
553.59	3047.38
553.78	3180.50
553.98	3043.28
554.17	3041.23
554.37	3338.19
554.57	3153.87
554.76	2977.75
554.96	3123.15
555.16	3250.13
555.35	3213.26
555.55	3270.61
555.75	3330.00
555.94	3338.19
556.14	2842.58
556.33	3157.97
556.53	3327.95
556.73	3223.50
556.92	2990.03
557.12	3082.19
557.32	3696.58
557.51	3532.75
557.71	3125.20
557.90	3164.11
558.10	3520.46
558.30	3211.22
558.49	3039.19
558.69	3082.19
558.88	3416.01
559.08	3336.14
559.28	3045.33
559.47	3092.43
559.67	3413.96
559.86	3721.16
560.06	2959.31
560.26	3057.62
560.45	3373.00
560.65	3235.79
560.84	3305.42
561.04	2906.07
561.24	3495.88
561.43	3090.38
561.63	3309.52
561.82	3186.64
562.02	3420.11
562.22	3149.78
562.41	2959.31
562.61	3039.19
562.80	3049.43
563.00	3704.78
563.19	3168.21
563.39	3219.41
563.59	3315.66
563.78	3008.47
563.98	2822.10
564.17	3014.61
564.37	2885.59
564.56	3239.89
564.76	2951.12
564.96	3203.02
565.15	3391.44
565.35	3815.37
565.54	3090.38
565.74	3172.30
565.93	3305.42
566.13	3274.70
566.32	3094.48
566.52	3182.54
566.71	3286.99
566.91	3450.83
567.11	3209.17
567.30	3002.32
567.50	3416.01
567.69	3319.76
567.89	2994.13
568.08	2938.84
568.28	3383.24
568.47	3057.62
568.67	3092.43
568.86	3090.38
569.06	3471.31
569.25	3205.07
569.45	2934.74
569.64	3133.39
569.84	3237.84
570.04	3319.76
570.23	3041.23
570.43	3135.44
570.62	3327.95
570.82	3631.05
571.01	2877.40
571.21	3039.19
571.40	3119.06
571.60	3397.58
571.79	3131.34
571.99	3096.53
572.18	3137.49
572.38	3323.85
572.57	3207.12
572.77	3074.00
572.96	3807.17
573.16	3360.72
573.35	3082.19
573.55	3196.88
573.74	3403.72
573.94	3225.55
574.13	3043.28
574.33	3155.92
574.52	3497.93
574.71	3307.47
574.91	3209.17
575.10	2947.03
575.30	3223.50
575.49	3067.86
575.69	2938.84
575.88	3129.30
576.08	3176.40
576.27	3422.16
576.47	3002.32
576.66	3246.03
576.86	3606.47
577.05	3305.42
577.25	3143.63
577.44	3291.09
577.64	3164.11
577.83	3497.93
578.02	3037.14
578.22	3237.84
578.41	3676.10
578.61	3215.31
578.80	2932.69
579.00	3096.53
579.19	3282.89
579.39	3315.66
579.58	3086.29
579.77	3160.02
579.97	3573.71
580.16	3635.14
580.36	3264.46
580.55	3074.00
580.75	3403.72
580.94	3262.41
581.13	3309.52
581.33	3340.24
581.52	3315.66
581.72	3616.71
581.91	3182.54
582.11	2957.27
582.30	3379.15
582.49	3346.38
582.69	3504.07
582.88	3172.30
583.08	3370.96
583.27	3469.26
583.47	3131.34
583.66	3102.67
583.85	3119.06
584.05	3262.41
584.24	3254.22
584.44	3170.26
584.63	3424.20
584.82	3575.75
585.02	3317.71
585.21	3307.47
585.41	3401.68
585.60	3325.90
585.79	3327.95
585.99	3434.44
586.18	3340.24
586.37	4380.61
586.57	6393.76
586.76	17901.29
586.96	37418.44
587.15	50957.56
587.34	59382.90
587.54	63589.43
587.73	56640.67
587.93	40629.65
588.12	31391.26
588.31	25656.95
588.51	22888.10
588.70	21020.35
588.89	18419.43
589.09	15810.32
589.28	13580.08
589.47	10661.73
589.67	8343.42
589.86	6334.37
590.06	5150.64
590.25	4532.15
590.44	3868.61
590.64	3479.50
590.83	3602.38
591.02	3540.94
591.22	3129.30
591.41	3162.06
591.60	3258.32
591.80	3831.75
591.99	2883.54
592.18	3016.66
592.38	3444.68
592.57	3145.68
592.76	3063.76
592.96	3188.69
593.15	3172.30
593.34	3528.65
593.54	3123.15
593.73	3117.01
593.92	3416.01
594.12	3370.96
594.31	3219.41
594.50	3260.37
594.70	3393.48
594.89	3803.08
595.08	2953.17
595.28	3241.93
595.47	3993.54
595.66	3463.12
595.86	2924.50
596.05	2901.97
596.24	3157.97
596.43	3608.52
596.63	3225.55
596.82	3307.47
597.01	3475.40
597.21	3608.52
597.40	3141.58
597.59	3098.58
597.79	3278.80
597.98	3389.39
598.17	3110.86
598.36	3106.77
598.56	3512.27
598.75	3196.88
598.94	3223.50
599.14	3151.82
599.33	3174.35
599.52	3563.47
599.71	3153.87
599.91	3078.10
600.10	3416.01
600.29	3321.81
600.48	3237.84
600.68	3246.03
600.87	3354.57
601.06	3133.39
601.26	3231.69
601.45	3178.45
601.64	3237.84
601.83	3602.38
602.03	3035.09
602.22	2949.08
602.41	3520.46
602.60	3764.17
602.80	3114.96
602.99	3274.70
603.18	3160.02
603.37	3346.38
603.57	2963.41
603.76	3090.38
603.95	3559.37
604.14	3248.08
604.34	3018.71
604.53	3090.38
604.72	3352.52
604.91	3391.44
605.10	3117.01
605.30	2977.75
605.49	3780.55
605.68	3467.21
605.87	3086.29
606.07	2973.65
606.26	3295.18
606.45	3375.05
606.64	3166.16
606.84	2955.22
607.03	3321.81
607.22	3547.08
607.41	3141.58
607.60	3100.62
607.80	3545.03
607.99	3241.93
608.18	3114.96
608.37	3096.53
608.56	3125.20
608.76	3528.65
608.95	3305.42
609.14	3004.37
609.33	3512.27
609.52	3526.60
609.72	3221.45
609.91	3129.30
610.10	3377.10
610.29	3647.43
610.48	3274.70
610.68	3131.34
610.87	3272.65
611.06	3387.34
611.25	3082.19
611.44	3229.65
611.63	3194.83
611.83	3442.64
612.02	2992.08
612.21	3180.50
612.40	2959.31
612.59	3033.04
612.79	2959.31
612.98	3084.24
613.17	3624.90
613.36	3248.08
613.55	3215.31
613.74	3106.77
613.93	3346.38
614.13	3377.10
614.32	3307.47
614.51	3176.40
614.70	3270.61
614.89	3205.07
615.08	3276.75
615.28	3356.62
615.47	3098.58
615.66	3422.16
615.85	3061.71
616.04	3121.10
616.23	3327.95
616.42	3325.90
616.62	3078.10
616.81	3049.43
617.00	3289.04
617.19	3319.76
617.38	3086.29
617.57	3256.27
617.76	3454.92
617.95	3452.88
618.15	3200.98
618.34	3315.66
618.53	3053.52
618.72	3540.94
618.91	3205.07
619.10	3123.15
619.29	3248.08
619.48	3336.14
619.68	2969.55
619.87	3010.51
620.06	3010.51
620.25	3434.44
620.44	3012.56
620.63	3057.62
620.82	3409.87
621.01	3323.85
621.20	3153.87
621.39	3106.77
621.59	3303.37
621.78	3258.32
621.97	3127.25
622.16	3223.50
622.35	3340.24
622.54	3446.73
622.73	3123.15
622.92	2836.44
623.11	3565.51
623.30	3237.84
623.49	3123.15
623.68	2936.79
623.88	3631.05
624.07	3088.34
624.26	2994.13
624.45	3047.38
624.64	3192.78
624.83	3354.57
625.02	3098.58
625.21	3082.19
625.40	3377.10
625.59	3475.40
625.78	3188.69
625.97	3131.34
626.16	3524.55
626.35	3477.45
626.54	3178.45
626.74	3260.37
626.93	3229.65
627.12	3205.07
627.31	3069.91
627.50	3131.34
627.69	3499.98
627.88	3155.92
628.07	2987.99
628.26	2961.36
628.45	3137.49
628.64	3160.02
628.83	3063.76
629.02	2926.55
629.21	3549.13
629.40	3340.24
629.59	2969.55
629.78	3004.37
629.97	3258.32
630.16	3295.18
630.35	3131.34
630.54	3209.17
630.73	3239.89
630.92	3356.62
631.11	3020.75
631.30	3160.02
631.49	3456.97
631.68	3180.50
631.87	3182.54
632.06	3080.14
632.25	3731.40
632.44	3270.61
632.63	3137.49
632.82	3108.82
633.01	3151.82
633.20	3321.81
633.39	3104.72
633.58	2928.60
633.77	3303.37
633.96	3383.24
634.15	3229.65
634.34	3170.26
634.53	3395.53
634.72	3106.77
634.91	2959.31
635.10	3030.99
635.29	3434.44
635.48	3321.81
635.67	3004.37
635.86	3014.61
636.05	3555.27
636.24	3307.47
636.43	3067.86
636.62	3119.06
636.81	2877.40
637.00	3323.85
637.19	3080.14
637.38	3114.96
637.57	3157.97
637.76	3141.58
637.95	3241.93
638.14	3221.45
638.33	3336.14
638.52	3442.64
638.71	3026.90
638.89	3016.66
639.08	3835.85
639.27	3456.97
639.46	3344.33
639.65	3639.24
639.84	3938.24
640.03	4110.27
640.22	3553.23
640.41	3598.28
640.60	3383.24
640.79	3479.50
640.98	3293.13
641.17	3350.48
641.36	3444.68
641.55	3495.88
641.74	2990.03
641.92	3033.04
642.11	3164.11
642.30	3200.98
642.49	3065.81
642.68	3059.67
642.87	3354.57
643.06	3399.63
643.25	2914.26
643.44	2961.36
643.63	3264.46
643.82	3426.25
644.00	2942.93
644.19	3106.77
644.38	3147.73
644.57	3557.32
644.76	3131.34
644.95	3186.64
645.14	3282.89
645.33	3340.24
645.52	3155.92
645.71	2953.17
645.89	3082.19
646.08	3190.74
646.27	3051.47
646.46	3243.98
646.65	2975.70
646.84	3270.61
647.03	2963.41
647.22	3209.17
647.40	3272.65
647.59	3256.27
647.78	2824.15
647.97	3076.05
648.16	2987.99
648.35	3530.70
648.54	3311.57
648.73	3076.05
648.91	3459.02
649.10	3297.23
649.29	2983.89
649.48	2955.22
649.67	3348.43
649.86	3311.57
650.05	3147.73
650.23	3272.65
650.42	3215.31
650.61	3645.38
650.80	3383.24
650.99	3360.72
651.18	3510.22
651.36	3510.22
651.55	3049.43
651.74	3254.22
651.93	3110.86
652.12	3241.93
652.31	3084.24
652.49	3135.44
652.68	3192.78
652.87	3655.62
653.06	3129.30
653.25	3364.81
653.44	3295.18
653.62	3602.38
653.81	3110.86
654.00	3106.77
654.19	3448.78
654.38	3782.60
654.56	3086.29
654.75	2944.98
654.94	3477.45
655.13	3319.76
655.32	2955.22
655.51	3114.96
655.69	3137.49
655.88	3391.44
656.07	2942.93
656.26	3133.39
656.45	3057.62
656.63	3215.31
656.82	3041.23
657.01	3350.48
657.20	3200.98
657.38	3608.52
657.57	3043.28
657.76	2893.78
657.95	3438.54
658.14	3219.41
658.32	3123.15
658.51	2926.55
658.70	3366.86
658.89	3291.09
659.08	3061.71
659.26	3289.04
659.45	3149.78
659.64	3352.52
659.83	3059.67
660.01	3461.07
660.20	3364.81
660.39	3588.04
660.58	2748.37
660.76	3172.30
660.95	2969.55
661.14	3291.09
661.33	2912.21
661.51	3049.43
661.70	3205.07
661.89	3362.76
662.08	3110.86
662.26	2975.70
662.45	3045.33
662.64	3672.01
662.83	3110.86
663.01	2996.18
663.20	3121.10
663.39	3643.34
663.58	3188.69
663.76	3057.62
663.95	3444.68
664.14	3108.82
664.32	3133.39
664.51	2967.51
664.70	2922.45
664.89	3319.76
665.07	2875.35
665.26	3225.55
665.45	3053.52
665.64	3418.06
665.82	3074.00
666.01	3188.69
666.20	3043.28
666.38	3426.25
666.57	3434.44
666.76	5517.23
666.95	12914.49
667.13	20668.10
667.32	24798.85
667.51	28132.95
667.69	29029.96
667.88	24061.58
668.07	17383.16
668.25	14782.24
668.44	12787.52
668.63	11069.27
668.81	9746.28
669.00	8484.73
669.19	7704.46
669.38	6672.28
669.56	5656.49
669.75	4849.59
669.94	4376.51
670.12	3788.74
670.31	3454.92
670.50	3469.26
670.68	3504.07
670.87	3401.68
671.06	3104.72
671.24	3123.15
671.43	3592.14
671.62	3303.37
671.80	3127.25
671.99	3162.06
672.18	3286.99
672.36	3336.14
672.55	3182.54
672.74	3082.19
672.92	3162.06
673.11	3395.53
673.29	3037.14
673.48	3278.80
673.67	3198.93
673.85	3495.88
674.04	3045.33
674.23	3174.35
674.41	3694.54
674.60	3051.47
674.79	2844.63
674.97	2920.40
675.16	3397.58
675.34	3553.23
675.53	3090.38
675.72	3172.30
675.90	3626.95
676.09	3198.93
676.28	3114.96
676.46	2895.83
676.65	3387.34
676.83	3086.29
677.02	3151.82
677.21	3182.54
677.39	3284.94
677.58	3139.54
677.77	3059.67
677.95	2977.75
678.14	3217.36
678.32	3225.55
678.51	3086.29
678.70	3428.30
678.88	3137.49
679.07	3385.29
679.25	3090.38
679.44	3133.39
679.63	3084.24
679.81	3340.24
680.00	3330.00
680.18	3123.15
680.37	3581.90
680.55	3315.66
680.74	2951.12
680.93	2836.44
681.11	3243.98
681.30	3229.65
681.48	3000.27
681.67	3108.82
681.85	3354.57
682.04	3155.92
682.23	3209.17
682.41	3227.60
682.60	3250.13
682.78	3223.50
682.97	2959.31
683.15	3063.76
683.34	3237.84
683.53	3575.75
683.71	2996.18
683.90	3166.16
684.08	3641.29
684.27	3147.73
684.45	3100.62
684.64	3203.02
684.82	3254.22
685.01	3389.39
685.19	3104.72
685.38	3362.76
685.57	3299.28
685.75	3170.26
685.94	2938.84
686.12	3065.81
686.31	3200.98
686.49	3624.90
686.68	2852.82
686.86	3131.34
687.05	3237.84
687.23	3702.73
687.42	3121.10
687.60	2944.98
687.79	3520.46
687.97	3620.81
688.16	3168.21
688.34	3286.99
688.53	2932.69
688.71	3454.92
688.90	3450.83
689.08	3078.10
689.27	2983.89
689.45	3463.12
689.64	3264.46
689.82	3129.30
690.01	3393.48
690.19	3274.70
690.38	3188.69
690.56	3225.55
690.75	3119.06
690.93	3145.68
691.12	3026.90
691.30	3162.06
691.49	3172.30
691.67	3289.04
691.86	3436.49
692.04	3229.65
692.23	3196.88
692.41	3272.65
692.60	3436.49
692.78	3364.81
692.97	3274.70
693.15	3379.15
693.34	3270.61
693.52	3344.33
693.71	3125.20
693.89	3231.69
694.08	2930.64
694.26	3180.50
694.44	3393.48
694.63	3315.66
694.81	2996.18
695.00	3074.00
695.18	3454.92
695.37	3755.97
695.55	3180.50
695.74	3164.11
695.92	3090.38
696.10	3475.40
696.29	2883.54
696.47	3133.39
696.66	3028.95
696.84	3114.96
697.03	3131.34
697.21	3407.82
697.40	4716.47
697.58	3526.60
697.76	3049.43
697.95	3090.38
698.13	3033.04
698.32	3133.39
698.50	3002.32
698.68	3102.67
698.87	3344.33
699.05	3631.05
699.24	3096.53
699.42	3053.52
699.61	3319.76
699.79	3295.18
699.97	3137.49
700.16	2908.12
700.34	3039.19
700.53	3237.84
700.71	3416.01
700.89	3205.07
701.08	3221.45
701.26	3239.89
701.45	3416.01
701.63	3049.43
701.81	3237.84
702.00	3143.63
702.18	3233.74
702.37	3033.04
702.55	3499.98
702.73	3377.10
702.92	3213.26
703.10	3426.25
703.28	3471.31
703.47	3096.53
703.65	3342.28
703.84	3270.61
704.02	3256.27
704.20	3663.82
704.39	3121.10
704.57	3049.43
704.75	3442.64
704.94	3401.68
705.12	3231.69
705.30	3973.06
705.49	8689.53
705.67	17393.40
705.86	23975.57
706.04	27082.34
706.22	30094.90
706.41	28970.57
706.59	21626.55
706.77	16707.33
706.96	14546.72
707.14	13195.06
707.32	11339.60
707.51	9793.39
707.69	7939.97
707.87	6729.63
708.06	5328.81
708.24	4478.91
708.42	4069.31
708.61	4270.01
708.79	3280.85
708.97	3286.99
709.16	3456.97
709.34	3379.15
709.52	3143.63
709.71	3057.62
709.89	3418.06
710.07	3198.93
710.26	3039.19
710.44	3078.10
710.62	3413.96
710.80	3225.55
710.99	3184.59
711.17	3215.31
711.35	3088.34
711.54	3141.58
711.72	3237.84
711.90	3168.21
712.09	3348.43
712.27	3139.54
712.45	3207.12
712.63	3102.67
712.82	3395.53
713.00	3303.37
713.18	3295.18
713.37	3293.13
713.55	3387.34
713.73	3403.72
713.91	3176.40
714.10	3020.75
714.28	3270.61
714.46	3356.62
714.65	3239.89
714.83	3104.72
715.01	3291.09
715.19	3295.18
715.38	3053.52
715.56	3237.84
715.74	3100.62
715.92	3110.86
716.11	3430.35
716.29	2904.02
716.47	3227.60
716.65	3215.31
716.84	2893.78
717.02	3139.54
717.20	2938.84
717.38	3088.34
717.57	3211.22
717.75	3151.82
717.93	3225.55
718.11	3422.16
718.30	3071.95
718.48	3164.11
718.66	3459.02
718.84	3450.83
719.03	3071.95
719.21	2895.83
719.39	3590.09
719.57	3403.72
719.75	3180.50
719.94	2998.23
720.12	3182.54
720.30	3207.12
720.48	3131.34
720.67	3110.86
720.85	3186.64
721.03	3155.92
721.21	3037.14
721.39	3192.78
721.58	3360.72
721.76	3266.51
721.94	3096.53
722.12	3186.64
722.30	3569.61
722.49	3166.16
722.67	3096.53
722.85	3098.58
723.03	2990.03
723.21	3174.35
723.40	3213.26
723.58	3270.61
723.76	3459.02
723.94	3569.61
724.12	3129.30
724.30	3278.80
724.49	3426.25
724.67	3092.43
724.85	3164.11
725.03	2977.75
725.21	3411.92
725.40	3516.36
725.58	3178.45
725.76	3307.47
725.94	3416.01
726.12	3131.34
726.30	3164.11
726.49	3000.27
726.67	3149.78
726.85	3461.07
727.03	3968.96
727.21	5541.80
727.39	7260.05
727.57	7905.16
727.76	8482.69
727.94	8384.38
728.12	7270.29
728.30	5920.68
728.48	5615.53
728.66	5171.12
728.84	4749.24
729.03	4145.09
729.21	3717.06
729.39	3581.90
729.57	3393.48
729.75	3442.64
729.93	3360.72
730.11	3114.96
730.30	3092.43
730.48	3252.17
730.66	3121.10
730.84	3135.44
731.02	3340.24
731.20	3133.39
731.38	3102.67
731.56	3076.05
731.74	3004.37
731.93	3348.43
732.11	3256.27
732.29	3069.91
732.47	3430.35
732.65	3358.67
732.83	3233.74
733.01	3190.74
733.19	3137.49
733.37	3475.40
733.56	3082.19
733.74	2969.55
733.92	3499.98
734.10	3219.41
734.28	3301.33
734.46	2838.48
734.64	3155.92
734.82	3225.55
735.00	3041.23
735.18	3008.47
735.36	3229.65
735.54	3258.32
735.73	3063.76
735.91	3196.88
736.09	3477.45
736.27	3289.04
736.45	3166.16
736.63	2873.30
736.81	3166.16
736.99	3528.65
737.17	3278.80
737.35	3037.14
737.53	3356.62
737.71	3241.93
737.89	3266.51
738.07	3092.43
738.25	3162.06
738.43	2979.79
738.61	3049.43
738.80	2957.27
738.98	3141.58
739.16	3133.39
739.34	3033.04
739.52	3348.43
739.70	3254.22
739.88	3426.25
740.06	3239.89
740.24	2811.86
740.42	3522.51
740.60	2918.36
740.78	3067.86
740.96	2897.88
741.14	3227.60
741.32	3258.32
741.50	2867.16
741.68	3385.29
741.86	3510.22
742.04	3010.51
742.22	3004.37
742.40	3147.73
742.58	3448.78
742.76	3090.38
742.94	3387.34
743.12	2920.40
743.30	3178.45
743.48	3395.53
743.66	3033.04
743.84	3100.62
744.02	3235.79
744.20	3280.85
744.38	2961.36
744.56	3024.85
744.74	3514.31
744.92	3401.68
745.10	3356.62
745.28	3108.82
745.46	3604.42
745.64	3221.45
745.82	3155.92
746.00	3114.96
746.18	3307.47
746.36	3100.62
746.54	3198.93
746.72	3139.54
746.90	3149.78
747.08	3465.16
747.26	3063.76
747.44	3256.27
747.62	3489.74
747.80	3346.38
747.98	3196.88
748.15	3102.67
748.33	3704.78
748.51	3254.22
748.69	3231.69
748.87	3002.32
749.05	3219.41
749.23	3164.11
749.41	3057.62
749.59	3074.00
749.77	3401.68
749.95	3125.20
750.13	3074.00
750.31	3213.26
750.49	3252.17
750.67	3479.50
750.85	3196.88
751.03	3057.62
751.20	3635.14
751.38	3299.28
751.56	3119.06
751.74	3106.77
751.92	3227.60
752.10	3039.19
752.28	3254.22
752.46	3082.19
752.64	3215.31
752.82	3297.23
753.00	3243.98
753.18	3045.33
753.35	3184.59
753.53	3295.18
753.71	2955.22
753.89	3186.64
754.07	3370.96
754.25	3469.26
754.43	3209.17
754.61	2996.18
754.79	3362.76
754.97	3223.50
755.14	3295.18
755.32	3033.04
755.50	3291.09
755.68	3344.33
755.86	2953.17
756.04	3059.67
756.22	2877.40
756.40	3405.77
756.57	3262.41
756.75	3043.28
756.93	3495.88
757.11	3475.40
757.29	3004.37
757.47	3020.75
757.65	2963.41
757.82	2803.67
758.00	3000.27
758.18	3004.37
758.36	3090.38
758.54	3616.71
758.72	2897.88
758.90	3207.12
759.07	3270.61
759.25	3084.24
759.43	3143.63
759.61	2918.36
759.79	4440.00
759.97	3346.38
760.15	3024.85
760.32	3098.58
760.50	3366.86
760.68	3635.14
760.86	3004.37
761.04	3413.96
761.22	3377.10
761.39	3297.23
761.57	3207.12
761.75	3100.62
761.93	3368.91
762.11	3205.07
762.28	3188.69
762.46	3028.95
762.64	3418.06
762.82	3024.85
763.00	3117.01
763.18	3250.13
763.35	3051.47
763.53	3459.02
763.71	3106.77
763.89	3098.58
764.07	3424.20
764.24	3233.74
764.42	3176.40
764.60	3086.29
764.78	3362.76
764.96	3452.88
765.13	3262.41
765.31	2969.55
765.49	3442.64
765.67	3022.80
765.84	2981.84
766.02	3041.23
766.20	2951.12
766.38	3381.20
766.56	3143.63
766.73	3209.17
766.91	3225.55
767.09	3280.85
767.27	3182.54
767.44	2947.03
767.62	3389.39
767.80	3418.06
767.98	3039.19
768.15	3076.05
768.33	3444.68
768.51	3473.36
768.69	3174.35
768.87	3033.04
769.04	3327.95
769.22	3745.73
769.40	3203.02
769.58	3168.21
769.75	3364.81
769.93	3436.49
770.11	3010.51
770.28	2926.55
770.46	3422.16
770.64	3387.34
770.82	3119.06
770.99	3041.23
771.17	3395.53
771.35	3155.92
771.53	3121.10
771.70	3133.39
771.88	3446.73
772.06	3327.95
772.23	3100.62
772.41	3180.50
772.59	3174.35
772.77	3121.10
772.94	3028.95
773.12	3176.40
773.30	3143.63
773.47	3416.01
773.65	3004.37
773.83	3258.32
774.01	3198.93
774.18	2944.98
774.36	3059.67
774.54	3008.47
774.71	3319.76
774.89	3033.04
775.07	3002.32
775.24	3082.19
775.42	3241.93
775.60	3608.52
775.78	2996.18
775.95	2918.36
776.13	2918.36
776.31	3002.32
776.48	3284.94
776.66	3278.80
776.84	3254.22
777.01	3033.04
777.19	2936.79
777.37	2998.23
777.54	3434.44
777.72	3633.10
777.90	3164.11
778.07	3110.86
778.25	3874.76
778.43	3436.49
778.60	3065.81
778.78	3196.88
778.96	3629.00
779.13	3033.04
779.31	3096.53
779.49	3172.30
779.66	3348.43
779.84	3229.65
780.01	3076.05
780.19	3057.62
780.37	3418.06
780.54	3401.68
780.72	2918.36
780.90	3225.55
781.07	3123.15
781.25	3280.85
781.43	3262.41
781.60	3057.62
781.78	3545.03
781.95	3321.81
782.13	3059.67
782.31	3096.53
782.48	2901.97
782.66	3286.99
782.83	3360.72
783.01	3276.75
783.19	3524.55
783.36	3264.46
783.54	2916.31
783.72	3127.25
783.89	3076.05
784.07	3289.04
784.24	3178.45
784.42	3237.84
784.60	3340.24
784.77	3362.76
784.95	2824.15
785.12	2961.36
785.30	3315.66
785.47	3022.80
785.65	3006.42
785.83	3147.73
786.00	3125.20
786.18	3246.03
786.35	2942.93
786.53	2944.98
786.71	3569.61
786.88	3364.81
787.06	3209.17
787.23	3135.44
787.41	3086.29
787.58	3235.79
787.76	2979.79
787.94	3188.69
788.11	3418.06
788.29	3098.58
788.46	3020.75
788.64	2926.55
788.81	3157.97
788.99	3078.10
789.16	2996.18
789.34	3121.10
789.52	3112.91
789.69	3186.64
789.87	2850.77
790.04	3108.82
790.22	3299.28
790.39	3629.00
790.57	2971.60
790.74	2934.74
790.92	3471.31
791.09	3000.27
791.27	3213.26
791.44	3147.73
791.62	3295.18
791.79	3420.11
791.97	3188.69
792.15	3393.48
792.32	3438.54
792.50	3442.64
792.67	3286.99
792.85	3387.34
793.02	3250.13
793.20	3160.02
793.37	2938.84
793.55	2998.23
793.72	3065.81
793.90	3438.54
794.07	3063.76
794.25	2967.51
794.42	3284.94
794.60	3243.98
794.77	3098.58
794.95	3213.26
795.12	3512.27
795.30	3219.41
795.47	2883.54
795.65	3491.79
795.82	3330.00
796.00	3131.34
796.17	3123.15
796.34	3061.71
796.52	3399.63
796.69	3407.82
796.87	3157.97
797.04	3243.98
797.22	3387.34
797.39	3313.61
797.57	3196.88
797.74	3166.16
797.92	3383.24
798.09	3172.30
798.27	3397.58
798.44	3084.24
798.62	3094.48
798.79	3307.47
798.96	3293.13
799.14	3084.24
799.31	3930.05
799.49	3188.69
799.66	3076.05
799.84	3098.58
800.01	2994.13
800.19	3313.61
800.36	2885.59
800.53	3168.21
800.71	3284.94
800.88	3567.56
801.06	3119.06
801.23	3045.33
801.41	3166.16
801.58	3200.98
801.75	3086.29
801.93	3188.69
802.10	3502.03
802.28	3203.02
802.45	3117.01
802.63	3133.39
802.80	3540.94
802.97	3176.40
803.15	3080.14
803.32	3018.71
803.50	3188.69
803.67	3133.39
803.84	2994.13
804.02	3092.43
804.19	3196.88
804.37	2844.63
804.54	2881.49
804.71	3090.38
804.89	3276.75
805.06	3168.21
805.24	3022.80
805.41	2904.02
805.58	3180.50
805.76	3774.41
805.93	2947.03
806.10	3262.41
806.28	3379.15
806.45	3270.61
806.63	3223.50
806.80	3141.58
806.97	3354.57
807.15	3254.22
807.32	3233.74
807.49	3117.01
807.67	3020.75
807.84	3278.80
808.01	2861.01
808.19	3262.41
808.36	3690.44
808.54	3233.74
808.71	2987.99
808.88	3057.62
809.06	3504.07
809.23	3553.23
809.40	3119.06
809.58	3039.19
809.75	3305.42
809.92	3061.71
810.10	3344.33
810.27	3065.81
810.44	3389.39
810.62	3370.96
810.79	3106.77
810.96	3106.77
811.14	3090.38
811.31	3352.52
811.48	3219.41
811.66	3166.16
811.83	3600.33
812.00	3379.15
812.18	3106.77
812.35	3336.14
812.52	3184.59
812.69	3182.54
812.87	3057.62
813.04	3037.14
813.21	3166.16
813.39	3123.15
813.56	2985.94
813.73	3315.66
813.91	3020.75
814.08	3196.88
814.25	3028.95
814.42	2820.05
814.60	3190.74
814.77	3246.03
814.94	3026.90
815.12	3094.48
815.29	3553.23
815.46	3125.20
815.63	3080.14
815.81	2985.94
815.98	3186.64
816.15	3286.99
816.33	3172.30
816.50	3131.34
816.67	3205.07
816.84	3248.08
817.02	2947.03
817.19	3071.95
817.36	3327.95
817.53	3338.19
817.71	2965.46
817.88	3149.78
818.05	3237.84
818.22	3190.74
818.40	3289.04
818.57	3094.48
818.74	3348.43
818.91	3307.47
819.09	3266.51
819.26	3164.11
819.43	3080.14
819.60	3106.77
819.78	3186.64
819.95	3086.29
820.12	3063.76
820.29	3502.03
820.47	3342.28
820.64	2996.18
820.81	3049.43
820.98	3098.58
821.15	3057.62
821.33	3246.03
821.50	3026.90
821.67	3364.81
821.84	3071.95
822.02	3084.24
822.19	3282.89
822.36	3239.89
822.53	3053.52
822.70	2940.88
822.88	3145.68
823.05	3536.84
823.22	3135.44
823.39	3119.06
823.56	3239.89
823.74	3583.95
823.91	2910.16
824.08	2959.31
824.25	3014.61
824.42	3583.95
824.60	3012.56
824.77	3200.98
824.94	3133.39
825.11	3418.06
825.28	2875.35
825.45	3209.17
825.63	3270.61
825.80	3110.86
825.97	3213.26
826.14	3190.74
826.31	2934.74
826.48	3387.34
826.66	3108.82
826.83	3016.66
827.00	3188.69
827.17	3067.86
827.34	3129.30
827.51	3008.47
827.69	3172.30
827.86	2955.22
828.03	3074.00
828.20	3127.25
828.37	3100.62
828.54	3411.92
828.71	2957.27
828.89	3241.93
829.06	3399.63
829.23	3598.28
829.40	3049.43
829.57	3002.32
829.74	3332.05
829.91	3166.16
830.09	3043.28
830.26	3198.93
830.43	3635.14
830.60	3149.78
830.77	3106.77
830.94	3262.41
831.11	3467.21
831.28	3155.92
831.46	3205.07
831.63	3078.10
831.80	3444.68
831.97	3028.95
832.14	3119.06
832.31	3104.72
832.48	3246.03
832.65	3536.84
832.82	3262.41
832.99	3123.15
833.17	3024.85
833.34	3563.47
833.51	2992.08
833.68	2852.82
833.85	3469.26
834.02	3061.71
834.19	3012.56
834.36	3063.76
834.53	3334.09
834.70	3413.96
834.87	3074.00
835.04	2856.92
835.22	3168.21
835.39	3182.54
835.56	2949.08
835.73	2979.79
835.90	3499.98
836.07	3047.38
836.24	3131.34
836.41	2932.69
836.58	3155.92
836.75	3471.31
836.92	2936.79
837.09	2838.48
837.26	3332.05
837.43	3336.14
837.60	2924.50
837.77	2910.16
837.94	3456.97
838.12	3553.23
838.29	2838.48
838.46	2811.86
838.63	3108.82
838.80	3639.24
838.97	2947.03
839.14	2869.20
839.31	3278.80
839.48	3332.05
839.65	2990.03
839.82	2975.70
839.99	3297.23
840.16	3254.22
840.33	2904.02
840.50	3014.61
840.67	3139.54
840.84	2795.48
841.01	2861.01
841.18	2910.16
841.35	3182.54
841.52	3370.96
841.69	3248.08
841.86	2949.08
842.03	3203.02
842.20	3428.30
842.37	2799.57
842.54	2990.03
842.71	3221.45
842.88	3106.77
843.05	2983.89
843.22	2875.35
843.39	3442.64
843.56	3059.67
843.73	2967.51
843.90	3110.86
844.07	3291.09
844.24	3463.12
844.41	2975.70
844.58	2934.74
844.75	3164.11
844.92	3342.28
845.09	3039.19
845.26	2885.59
845.43	3395.53
845.60	3196.88
845.77	3061.71
845.94	3033.04
846.10	3491.79
846.27	2928.60
846.44	2764.76
846.61	2858.96
846.78	3358.67
846.95	3450.83
847.12	2869.20
847.29	2924.50
847.46	3123.15
847.63	3465.16
847.80	2897.88
847.97	2951.12
848.14	3768.26
848.31	3291.09
848.48	2787.29
848.65	2912.21
848.82	3088.34
848.98	3825.61
849.15	2963.41
849.32	3067.86
849.49	3442.64
849.66	3305.42
849.83	2848.72
850.00	2820.05
850.17	3481.55
850.34	3250.13
850.51	2924.50
850.68	3026.90
850.85	3749.83
851.01	3225.55
851.18	2942.93
851.35	2979.79
851.52	3395.53
851.69	3549.13
851.86	2797.53
852.03	2881.49
852.20	3393.48
852.37	3323.85
852.53	2766.81
852.70	2797.53
852.87	3266.51
853.04	3471.31
853.21	2901.97
853.38	3162.06
853.55	3540.94
853.72	3495.88
853.89	2803.67
854.05	2910.16
854.22	3274.70
854.39	3258.32
854.56	2967.51
854.73	3074.00
854.90	3139.54
855.07	3246.03
855.23	2887.64
855.40	2854.87
855.57	3092.43
855.74	2854.87
855.91	3157.97
856.08	2811.86
856.25	3028.95
856.41	3176.40
856.58	2973.65
856.75	2973.65
856.92	2998.23
857.09	3512.27
857.26	2762.71
857.42	2996.18
857.59	3418.06
857.76	3282.89
857.93	2891.73
858.10	3016.66
858.27	3133.39
858.43	3293.13
858.60	2953.17
858.77	2795.48
858.94	3188.69
859.11	3504.07
859.27	3016.66
859.44	2881.49
859.61	3684.30
859.78	3368.91
859.95	2897.88
860.12	2848.72
860.28	3712.97
860.45	3672.01
860.62	2842.58
860.79	2998.23
860.95	3180.50
861.12	3166.16
861.29	2729.94
861.46	2811.86
861.63	3151.82
861.79	3327.95
861.96	2772.95
862.13	2942.93
862.30	3577.80
862.47	3102.67
862.63	2756.57
862.80	2973.65
862.97	3473.36
863.14	3225.55
863.30	2947.03
863.47	2893.78
863.64	3557.32
863.81	3233.74
863.97	2828.24
864.14	2965.46
864.31	3274.70
864.48	3340.24
864.65	2912.21
864.81	2990.03
864.98	3334.09
865.15	3422.16
865.32	3020.75
865.48	2983.89
865.65	3600.33
865.82	3074.00
865.98	3012.56
866.15	2926.55
866.32	3139.54
866.49	3196.88
866.65	3030.99
866.82	2877.40
866.99	3235.79
867.16	3084.24
867.32	2951.12
867.49	2811.86
867.66	3280.85
867.83	3117.01
867.99	2848.72
868.16	2875.35
868.33	3076.05
868.49	3282.89
868.66	2930.64
868.83	3041.23
868.99	3225.55
869.16	3313.61
869.33	3082.19
869.50	2983.89
869.66	3270.61
869.83	3297.23
870.00	2879.44
870.16	3117.01
870.33	3291.09
870.50	3461.07
870.66	2918.36
870.83	2912.21
871.00	3235.79
871.17	3293.13
871.33	3057.62
871.50	2942.93
871.67	3239.89
871.83	3168.21
872.00	2951.12
872.17	2957.27
872.33	3762.12
872.50	3491.79
872.67	2883.54
872.83	2938.84
873.00	3381.20
873.17	3348.43
873.33	3028.95
873.50	2967.51
873.67	3194.83
873.83	3033.04
874.00	2981.84
874.16	3016.66
874.33	3223.50
874.50	3020.75
874.66	2873.30
874.83	3047.38
875.00	3467.21
875.16	3534.79
875.33	3092.43
875.50	2744.28
875.66	3157.97
875.83	3315.66
875.99	3078.10
876.16	3041.23
876.33	3076.05
876.49	3188.69
876.66	2975.70
876.83	3033.04
876.99	3059.67
877.16	3174.35
877.32	2844.63
877.49	3004.37
877.66	3311.57
877.82	3481.55
877.99	2981.84
878.15	3207.12
878.32	3352.52
878.49	3311.57
878.65	3030.99
878.82	3235.79
878.98	3215.31
879.15	3487.69
879.32	3104.72
879.48	3219.41
879.65	3297.23
879.81	3239.89
879.98	3049.43
880.15	3000.27
880.31	3456.97
880.48	3063.76
880.64	2985.94
880.81	3033.04
880.97	3635.14
881.14	3520.46
881.31	2873.30
881.47	3065.81
881.64	3157.97
881.80	3030.99
881.97	3104.72
882.13	2901.97
882.30	3010.51
882.47	3110.86
882.63	2922.45
882.80	2863.06
882.96	3209.17
883.13	3508.17
883.29	2979.79
883.46	2975.70
883.62	3624.90
883.79	3323.85
883.95	3071.95
884.12	2838.48
884.29	3508.17
884.45	3366.86
884.62	3016.66
884.78	2842.58
884.95	3659.72
885.11	3067.86
885.28	3098.58
885.44	2998.23
885.61	3465.16
885.77	3483.59
885.94	2979.79
886.10	3004.37
886.27	3243.98
886.43	3618.76
886.60	3117.01
886.76	2908.12
886.93	3123.15
887.09	3213.26
887.26	2770.90
887.42	3012.56
887.59	3454.92
887.75	3723.21
887.92	3123.15
888.08	3026.90
888.25	3667.91
888.41	3479.50
888.58	3004.37
888.74	2883.54
888.91	3137.49
>>>>>End Processed Spectral Data<<<<<
