SpectraSuite Data File
++++++++++++++++++++++++++++++++++++
Date: Fri May 06 08:14:05 CEST 2016
User: root
Dark Spectrum Present: No
Reference Spectrum Present: No
Number of Sampled Component Spectra: 1
Spectrometers: USB4C02835
Integration Time (usec): 100000 (USB4C02835)
Spectra Averaged: 1 (USB4C02835)
Boxcar Smoothing: 0 (USB4C02835)
Correct for Electrical Dark: No (USB4C02835)
Strobe/Lamp Enabled: No (USB4C02835)
Correct for Detector Non-linearity: No (USB4C02835)
Correct for Stray Light: No (USB4C02835)
Number of Pixels in Processed Spectrum: 3648
>>>>>Begin Processed Spectral Data<<<<<
177.47	2279.39
177.69	2279.39
177.91	2279.39
178.13	2275.29
178.36	2246.62
178.58	2998.23
178.80	3112.91
179.02	3033.04
179.24	3129.30
179.46	2834.39
179.68	2887.64
179.90	3237.84
180.13	3227.60
180.35	2717.65
180.57	2756.57
180.79	3434.44
181.01	3266.51
181.23	2854.87
181.45	3008.47
181.67	3438.54
181.90	3422.16
182.12	2805.72
182.34	2648.02
182.56	3344.33
182.78	3377.10
183.00	2824.15
183.22	2906.07
183.44	2910.16
183.66	3938.24
183.89	3020.75
184.11	2832.34
184.33	3360.72
184.55	3530.70
184.77	2838.48
184.99	2869.20
185.21	3190.74
185.43	3753.93
185.65	2848.72
185.87	2889.68
186.10	3780.55
186.32	3737.54
186.54	3076.05
186.76	2957.27
186.98	3420.11
187.20	3207.12
187.42	2959.31
187.64	2840.53
187.86	3356.62
188.08	3479.50
188.30	2777.05
188.52	2852.82
188.75	3573.71
188.97	3532.75
189.19	2840.53
189.41	2760.66
189.63	3448.78
189.85	3239.89
190.07	2627.54
190.29	2740.18
190.51	3311.57
190.73	3047.38
190.95	3131.34
191.17	2885.59
191.39	2955.22
191.61	3250.13
191.84	2797.53
192.06	2994.13
192.28	2994.13
192.50	3866.56
192.72	3090.38
192.94	3043.28
193.16	3467.21
193.38	3303.37
193.60	2777.05
193.82	3084.24
194.04	3450.83
194.26	3397.58
194.48	2883.54
194.70	2813.91
194.92	3209.17
195.14	3499.98
195.36	2803.67
195.58	3016.66
195.80	3291.09
196.02	3143.63
196.24	2803.67
196.46	2951.12
196.69	3157.97
196.91	3823.56
197.13	2994.13
197.35	2987.99
197.57	3618.76
197.79	3395.53
198.01	2967.51
198.23	2873.30
198.45	3303.37
198.67	3069.91
198.89	2746.33
199.11	2990.03
199.33	3117.01
199.55	2865.11
199.77	2713.56
199.99	3041.23
200.21	3141.58
200.43	3313.61
200.65	2693.08
200.87	2736.09
201.09	3297.23
201.31	3241.93
201.53	2871.25
201.75	2863.06
201.97	3237.84
202.19	3207.12
202.41	2912.21
202.63	2971.60
202.85	3373.00
203.07	3346.38
203.29	2979.79
203.51	2760.66
203.73	3160.02
203.95	3946.44
204.17	2815.96
204.39	2944.98
204.61	3268.56
204.83	3174.35
205.05	3065.81
205.27	2947.03
205.49	3735.50
205.71	3338.19
205.93	2703.32
206.15	2772.95
206.37	3360.72
206.59	3280.85
206.81	2715.61
207.03	2731.99
207.25	3174.35
207.47	3360.72
207.69	2854.87
207.91	3200.98
208.13	3581.90
208.34	3203.02
208.56	2861.01
208.78	2873.30
209.00	3248.08
209.22	3252.17
209.44	2959.31
209.66	2787.29
209.88	3278.80
210.10	3270.61
210.32	2820.05
210.54	2977.75
210.76	3172.30
210.98	3481.55
211.20	2686.94
211.42	2955.22
211.64	3577.80
211.86	3387.34
212.08	2934.74
212.30	2877.40
212.52	3221.45
212.74	3426.25
212.96	2953.17
213.17	2901.97
213.39	3481.55
213.61	3674.06
213.83	2877.40
214.05	2772.95
214.27	3483.59
214.49	3088.34
214.71	2822.10
214.93	2951.12
215.15	3327.95
215.37	3393.48
215.59	2721.75
215.81	2918.36
216.03	3577.80
216.24	3289.04
216.46	2836.44
216.68	2871.25
216.90	3514.31
217.12	3551.18
217.34	2826.20
217.56	3084.24
217.78	3534.79
218.00	3393.48
218.22	2959.31
218.44	3000.27
218.66	3383.24
218.87	3696.58
219.09	2938.84
219.31	2883.54
219.53	3289.04
219.75	3123.15
219.97	2930.64
220.19	2893.78
220.41	3286.99
220.63	3647.43
220.85	2932.69
221.06	2865.11
221.28	3549.13
221.50	3444.68
221.72	2836.44
221.94	2783.19
222.16	3291.09
222.38	3469.26
222.60	2822.10
222.82	2975.70
223.03	3522.51
223.25	3100.62
223.47	2815.96
223.69	3047.38
223.91	3434.44
224.13	3286.99
224.35	2770.90
224.57	3016.66
224.78	3491.79
225.00	3172.30
225.22	2969.55
225.44	2842.58
225.66	3422.16
225.88	3190.74
226.10	3008.47
226.32	2873.30
226.53	3592.14
226.75	3291.09
226.97	2953.17
227.19	2951.12
227.41	3151.82
227.63	3252.17
227.85	2705.37
228.06	2922.45
228.28	3346.38
228.50	3448.78
228.72	2731.99
228.94	2918.36
229.16	2947.03
229.37	3086.29
229.59	2795.48
229.81	3055.57
230.03	3211.22
230.25	2951.12
230.47	2772.95
230.69	2895.83
230.90	3479.50
231.12	3100.62
231.34	2924.50
231.56	2904.02
231.78	3028.95
232.00	3262.41
232.21	2881.49
232.43	2854.87
232.65	2842.58
232.87	3332.05
233.09	2717.65
233.30	2826.20
233.52	3563.47
233.74	3346.38
233.96	2777.05
234.18	3102.67
234.40	3237.84
234.61	3737.54
234.83	2725.85
235.05	2877.40
235.27	3817.41
235.49	3542.99
235.70	2725.85
235.92	2858.96
236.14	3373.00
236.36	3721.16
236.58	2744.28
236.79	2969.55
237.01	3289.04
237.23	3266.51
237.45	3112.91
237.67	2918.36
237.88	3424.20
238.10	3592.14
238.32	2813.91
238.54	2820.05
238.76	3182.54
238.97	3098.58
239.19	2799.57
239.41	2967.51
239.63	3456.97
239.85	3188.69
240.06	2922.45
240.28	2889.68
240.50	3508.17
240.72	3364.81
240.93	2754.52
241.15	2977.75
241.37	3301.33
241.59	3563.47
241.81	2803.67
242.02	2869.20
242.24	3307.47
242.46	3499.98
242.68	2672.60
242.89	2736.09
243.11	3485.64
243.33	3221.45
243.55	2852.82
243.76	2854.87
243.98	3241.93
244.20	3289.04
244.42	2846.68
244.64	2809.81
244.85	3061.71
245.07	3092.43
245.29	2863.06
245.51	2873.30
245.72	3315.66
245.94	3475.40
246.16	2883.54
246.38	2885.59
246.59	3176.40
246.81	3047.38
247.03	2725.85
247.24	2789.33
247.46	3170.26
247.68	3311.57
247.90	2787.29
248.11	2803.67
248.33	3373.00
248.55	3231.69
248.77	2871.25
248.98	2951.12
249.20	3520.46
249.42	3350.48
249.64	2795.48
249.85	2815.96
250.07	3182.54
250.29	3479.50
250.50	2938.84
250.72	2766.81
250.94	3364.81
251.16	3755.97
251.37	2906.07
251.59	2955.22
251.81	3401.68
252.02	3559.37
252.24	2738.13
252.46	2951.12
252.68	3172.30
252.89	3225.55
253.11	2709.46
253.33	3076.05
253.54	3583.95
253.76	2979.79
253.98	2942.93
254.20	2904.02
254.41	3049.43
254.63	3274.70
254.85	2705.37
255.06	3041.23
255.28	3356.62
255.50	3155.92
255.71	2764.76
255.93	2746.33
256.15	3274.70
256.36	3399.63
256.58	2717.65
256.80	2836.44
257.02	3229.65
257.23	3256.27
257.45	2926.55
257.67	2928.60
257.88	3127.25
258.10	3397.58
258.32	2863.06
258.53	2861.01
258.75	3651.53
258.97	3131.34
259.18	2809.81
259.40	2844.63
259.62	3651.53
259.83	3557.32
260.05	2924.50
260.27	3891.14
260.48	3508.17
260.70	3010.51
260.92	2676.70
261.13	2832.34
261.35	3221.45
261.57	3434.44
261.78	2777.05
262.00	2854.87
262.22	3397.58
262.43	3114.96
262.65	2861.01
262.86	2897.88
263.08	3784.65
263.30	3303.37
263.51	2676.70
263.73	2877.40
263.95	3612.62
264.16	3041.23
264.38	2797.53
264.60	2777.05
264.81	3260.37
265.03	3424.20
265.25	3291.09
265.46	2838.48
265.68	3551.18
265.89	3373.00
266.11	2766.81
266.33	2861.01
266.54	3477.45
266.76	3409.87
266.98	2963.41
267.19	3004.37
267.41	3536.84
267.62	3280.85
267.84	2701.27
268.06	2990.03
268.27	3227.60
268.49	3514.31
268.70	2981.84
268.92	2840.53
269.14	3094.48
269.35	2994.13
269.57	3061.71
269.79	2910.16
270.00	3184.59
270.22	3559.37
270.43	2711.51
270.65	2725.85
270.87	3289.04
271.08	3420.11
271.30	2979.79
271.51	2889.68
271.73	3418.06
271.95	3547.08
272.16	2803.67
272.38	3098.58
272.59	3172.30
272.81	3446.73
273.02	2779.09
273.24	2918.36
273.46	3516.36
273.67	3033.04
273.89	2721.75
274.10	2838.48
274.32	3518.41
274.54	3307.47
274.75	2934.74
274.97	3065.81
275.18	3477.45
275.40	3377.10
275.61	2926.55
275.83	3037.14
276.05	3059.67
276.26	3297.23
276.48	3043.28
276.69	2975.70
276.91	3176.40
277.12	3590.09
277.34	3020.75
277.55	3106.77
277.77	3327.95
277.99	3229.65
278.20	3043.28
278.42	2899.92
278.63	3186.64
278.85	3076.05
279.06	2953.17
279.28	3053.52
279.49	3585.99
279.71	3422.16
279.93	2998.23
280.14	2987.99
280.36	3254.22
280.57	3452.88
280.79	3018.71
281.00	2824.15
281.22	3233.74
281.43	3565.51
281.65	2736.09
281.86	2912.21
282.08	3268.56
282.29	3725.26
282.51	2918.36
282.73	2904.02
282.94	3074.00
283.16	3360.72
283.37	3071.95
283.59	2983.89
283.80	3508.17
284.02	3198.93
284.23	2975.70
284.45	3041.23
284.66	3057.62
284.88	3080.14
285.09	2957.27
285.31	3043.28
285.52	3268.56
285.74	2959.31
285.95	3104.72
286.17	3059.67
286.38	3563.47
286.60	3225.55
286.81	2949.08
287.03	2889.68
287.24	3336.14
287.46	3313.61
287.67	3098.58
287.89	3168.21
288.10	3276.75
288.32	3297.23
288.53	3131.34
288.75	3057.62
288.96	3444.68
289.18	3190.74
289.39	2926.55
289.61	2973.65
289.82	3684.30
290.04	3721.16
290.25	2926.55
290.47	3037.14
290.68	3233.74
290.90	3452.88
291.11	2770.90
291.33	3172.30
291.54	3117.01
291.76	3160.02
291.97	3123.15
292.18	2990.03
292.40	3157.97
292.61	3106.77
292.83	3213.26
293.04	3030.99
293.26	3313.61
293.47	3231.69
293.69	2885.59
293.90	2850.77
294.12	3602.38
294.33	3282.89
294.55	3162.06
294.76	3196.88
294.97	3583.95
295.19	3739.59
295.40	2934.74
295.62	3125.20
295.83	3381.20
296.05	3200.98
296.26	3196.88
296.48	2975.70
296.69	3301.33
296.90	3278.80
297.12	3176.40
297.33	3069.91
297.55	3272.65
297.76	3411.92
297.98	3098.58
298.19	3196.88
298.41	3295.18
298.62	3110.86
298.83	3254.22
299.05	3082.19
299.26	3235.79
299.48	3061.71
299.69	3151.82
299.90	2973.65
300.12	3043.28
300.33	3487.69
300.55	2996.18
300.76	2994.13
300.98	3188.69
301.19	3444.68
301.40	3026.90
301.62	2998.23
301.83	3401.68
302.05	3303.37
302.26	3028.95
302.47	3043.28
302.69	3000.27
302.90	3223.50
303.12	2848.72
303.33	3164.11
303.54	3684.30
303.76	3223.50
303.97	2904.02
304.19	3174.35
304.40	3096.53
304.61	3403.72
304.83	3110.86
305.04	3065.81
305.26	3485.64
305.47	3106.77
305.68	3039.19
305.90	2910.16
306.11	3557.32
306.33	3213.26
306.54	2844.63
306.75	2942.93
306.97	2951.12
307.18	3086.29
307.39	2992.08
307.61	3121.10
307.82	3293.13
308.04	3436.49
308.25	2875.35
308.46	3139.54
308.68	3252.17
308.89	3338.19
309.10	3092.43
309.32	3014.61
309.53	3243.98
309.74	3368.91
309.96	2861.01
310.17	3160.02
310.39	3100.62
310.60	3327.95
310.81	2963.41
311.03	2910.16
311.24	3454.92
311.45	3258.32
311.67	3174.35
311.88	3112.91
312.09	3149.78
312.31	3211.22
312.52	2959.31
312.73	2936.79
312.95	3012.56
313.16	3041.23
313.37	3135.44
313.59	3227.60
313.80	3434.44
314.01	3569.61
314.23	2996.18
314.44	2873.30
314.65	3033.04
314.87	3129.30
315.08	2979.79
315.29	3018.71
315.51	3045.33
315.72	2977.75
315.93	3037.14
316.15	3041.23
316.36	3262.41
316.57	3346.38
316.79	3049.43
317.00	2856.92
317.21	3344.33
317.43	3102.67
317.64	3080.14
317.85	2961.36
318.07	3135.44
318.28	3203.02
318.49	3067.86
318.70	3274.70
318.92	3332.05
319.13	3420.11
319.34	3227.60
319.56	3000.27
319.77	3420.11
319.98	3409.87
320.20	3272.65
320.41	3180.50
320.62	3340.24
320.83	3039.19
321.05	3170.26
321.26	3010.51
321.47	3336.14
321.69	3467.21
321.90	2953.17
322.11	2953.17
322.32	3248.08
322.54	3549.13
322.75	3033.04
322.96	3991.49
323.18	2965.46
323.39	2926.55
323.60	2916.31
323.81	3141.58
324.03	3114.96
324.24	3373.00
324.45	3157.97
324.66	2942.93
324.88	3450.83
325.09	3588.04
325.30	3020.75
325.52	2963.41
325.73	3336.14
325.94	3065.81
326.15	2920.40
326.37	2830.29
326.58	3450.83
326.79	3651.53
327.00	2947.03
327.22	2992.08
327.43	3164.11
327.64	3074.00
327.85	3084.24
328.07	2979.79
328.28	3672.01
328.49	3129.30
328.70	3026.90
328.92	2987.99
329.13	3205.07
329.34	3405.77
329.55	3254.22
329.76	3069.91
329.98	3280.85
330.19	3385.29
330.40	3100.62
330.61	3174.35
330.83	3469.26
331.04	3076.05
331.25	3094.48
331.46	3147.73
331.68	2996.18
331.89	3471.31
332.10	3026.90
332.31	2869.20
332.52	3260.37
332.74	3465.16
332.95	2807.77
333.16	2985.94
333.37	3475.40
333.58	3155.92
333.80	3049.43
334.01	2752.47
334.22	3213.26
334.43	3168.21
334.64	2897.88
334.86	2936.79
335.07	3078.10
335.28	3530.70
335.49	2893.78
335.70	3026.90
335.92	3571.66
336.13	3772.36
336.34	3067.86
336.55	3008.47
336.76	3299.28
336.98	2869.20
337.19	2983.89
337.40	3151.82
337.61	3798.98
337.82	3246.03
338.04	3028.95
338.25	2785.24
338.46	3276.75
338.67	3243.98
338.88	2944.98
339.09	2949.08
339.31	3162.06
339.52	3106.77
339.73	2953.17
339.94	2965.46
340.15	3411.92
340.36	3164.11
340.58	3088.34
340.79	2904.02
341.00	3352.52
341.21	3143.63
341.42	3248.08
341.63	2975.70
341.85	3448.78
342.06	3313.61
342.27	2957.27
342.48	3123.15
342.69	2992.08
342.90	3356.62
343.12	3403.72
343.33	2953.17
343.54	3553.23
343.75	3577.80
343.96	3127.25
344.17	2987.99
344.38	3221.45
344.60	3069.91
344.81	2934.74
345.02	2992.08
345.23	3448.78
345.44	3715.02
345.65	3043.28
345.86	3053.52
346.07	3340.24
346.29	3137.49
346.50	3168.21
346.71	3030.99
346.92	3633.10
347.13	3639.24
347.34	3084.24
347.55	2865.11
347.76	3323.85
347.98	2904.02
348.19	3067.86
348.40	3061.71
348.61	3256.27
348.82	3590.09
349.03	3094.48
349.24	2936.79
349.45	3579.85
349.66	2944.98
349.88	2959.31
350.09	2930.64
350.30	3530.70
350.51	3547.08
350.72	3205.07
350.93	2957.27
351.14	3186.64
351.35	3342.28
351.56	3000.27
351.77	3098.58
351.99	3334.09
352.20	3626.95
352.41	3112.91
352.62	2820.05
352.83	3362.76
353.04	3260.37
353.25	2977.75
353.46	3063.76
353.67	3559.37
353.88	2887.64
354.09	2969.55
354.30	3018.71
354.52	3377.10
354.73	3268.56
354.94	2971.60
355.15	3074.00
355.36	3760.07
355.57	3250.13
355.78	2904.02
355.99	2985.94
356.20	3243.98
356.41	3606.47
356.62	3164.11
356.83	3041.23
357.04	3463.12
357.25	2934.74
357.46	2969.55
357.68	2844.63
357.89	3119.06
358.10	3246.03
358.31	2985.94
358.52	3016.66
358.73	3059.67
358.94	3127.25
359.15	3000.27
359.36	3014.61
359.57	3213.26
359.78	3241.93
359.99	3078.10
360.20	2936.79
360.41	3309.52
360.62	3420.11
360.83	3078.10
361.04	3026.90
361.25	3426.25
361.46	3524.55
361.67	3180.50
361.88	3016.66
362.09	3524.55
362.30	3286.99
362.51	2983.89
362.72	3051.47
362.93	3358.67
363.14	3352.52
363.35	3119.06
363.56	2895.83
363.78	3575.75
363.99	3409.87
364.20	3014.61
364.41	3157.97
364.62	3674.06
364.83	3358.67
365.04	2977.75
365.25	2934.74
365.46	3661.77
365.67	3123.15
365.88	3188.69
366.09	2992.08
366.30	3237.84
366.51	3241.93
366.72	2990.03
366.93	2979.79
367.14	3305.42
367.35	3567.56
367.56	2895.83
367.77	3098.58
367.98	3291.09
368.18	3409.87
368.39	3229.65
368.60	2918.36
368.81	3454.92
369.02	3370.96
369.23	2992.08
369.44	2840.53
369.65	3164.11
369.86	3368.91
370.07	3131.34
370.28	2944.98
370.49	3418.06
370.70	3344.33
370.91	2867.16
371.12	2901.97
371.33	3497.93
371.54	3174.35
371.75	3205.07
371.96	2820.05
372.17	3297.23
372.38	3246.03
372.59	3010.51
372.80	2959.31
373.01	3243.98
373.22	3297.23
373.43	2959.31
373.64	2930.64
373.85	3569.61
374.06	3606.47
374.26	3250.13
374.47	3112.91
374.68	3561.42
374.89	3358.67
375.10	2936.79
375.31	3139.54
375.52	3289.04
375.73	3299.28
375.94	2840.53
376.15	3123.15
376.36	3102.67
376.57	3164.11
376.78	3037.14
376.99	2994.13
377.20	3559.37
377.40	3160.02
377.61	3280.85
377.82	2959.31
378.03	3569.61
378.24	3418.06
378.45	3084.24
378.66	3049.43
378.87	2947.03
379.08	2955.22
379.29	3002.32
379.50	3147.73
379.71	3246.03
379.91	3385.29
380.12	3080.14
380.33	3076.05
380.54	3182.54
380.75	3278.80
380.96	3002.32
381.17	3045.33
381.38	3221.45
381.59	3250.13
381.80	3059.67
382.00	3192.78
382.21	3299.28
382.42	3598.28
382.63	3373.00
382.84	3243.98
383.05	3459.02
383.26	3583.95
383.47	3143.63
383.68	2953.17
383.88	3424.20
384.09	3327.95
384.30	3289.04
384.51	3098.58
384.72	3200.98
384.93	2963.41
385.14	3186.64
385.35	3278.80
385.55	3020.75
385.76	3583.95
385.97	3061.71
386.18	2899.92
386.39	3170.26
386.60	3139.54
386.81	2932.69
387.02	2951.12
387.22	3149.78
387.43	3366.86
387.64	3125.20
387.85	3286.99
388.06	3311.57
388.27	4335.55
388.48	7901.06
388.68	12128.07
388.89	14917.40
389.10	16473.86
389.31	16363.27
389.52	13055.80
389.73	11089.75
389.93	10262.37
390.14	9312.11
390.35	8531.84
390.56	8032.13
390.77	6645.66
390.98	4947.89
391.18	4196.29
391.39	3891.14
391.60	3360.72
391.81	3303.37
392.02	3067.86
392.23	3778.50
392.43	3262.41
392.64	3067.86
392.85	3069.91
393.06	3641.29
393.27	3297.23
393.47	3028.95
393.68	3096.53
393.89	3194.83
394.10	3549.13
394.31	3078.10
394.52	2977.75
394.72	3176.40
394.93	3602.38
395.14	2926.55
395.35	3112.91
395.56	3200.98
395.76	3311.57
395.97	3022.80
396.18	3108.82
396.39	3295.18
396.60	4024.26
396.80	3495.88
397.01	3293.13
397.22	3508.17
397.43	3428.30
397.64	2994.13
397.84	3129.30
398.05	3733.45
398.26	3227.60
398.47	3065.81
398.67	3311.57
398.88	3278.80
399.09	3467.21
399.30	3022.80
399.51	3131.34
399.71	3157.97
399.92	3305.42
400.13	3168.21
400.34	3057.62
400.54	3344.33
400.75	3575.75
400.96	3170.26
401.17	3432.40
401.37	3422.16
401.58	3330.00
401.79	2971.60
402.00	3114.96
402.21	3696.58
402.41	3497.93
402.62	3413.96
402.83	3616.71
403.04	3766.21
403.24	4032.45
403.45	3200.98
403.66	3377.10
403.87	3569.61
404.07	3633.10
404.28	3315.66
404.49	3411.92
404.70	3358.67
404.90	3434.44
405.11	3037.14
405.32	3164.11
405.52	3139.54
405.73	3209.17
405.94	3018.71
406.15	3145.68
406.35	3438.54
406.56	3469.26
406.77	3129.30
406.98	3090.38
407.18	3155.92
407.39	3610.57
407.60	3022.80
407.80	3127.25
408.01	3104.72
408.22	3463.12
408.43	3016.66
408.63	3188.69
408.84	3444.68
409.05	3362.76
409.25	2961.36
409.46	3020.75
409.67	3090.38
409.88	3168.21
410.08	3045.33
410.29	3043.28
410.50	3475.40
410.70	3354.57
410.91	3069.91
411.12	3129.30
411.32	3276.75
411.53	3129.30
411.74	3061.71
411.95	3145.68
412.15	3342.28
412.36	3411.92
412.57	3262.41
412.77	3266.51
412.98	3299.28
413.19	3168.21
413.39	3125.20
413.60	3051.47
413.81	3647.43
414.01	3094.48
414.22	3112.91
414.43	3280.85
414.63	3243.98
414.84	3487.69
415.05	3078.10
415.25	2877.40
415.46	3379.15
415.67	3096.53
415.87	3053.52
416.08	2959.31
416.29	3149.78
416.49	3366.86
416.70	3117.01
416.91	3012.56
417.11	3129.30
417.32	3483.59
417.53	3061.71
417.73	3147.73
417.94	3346.38
418.15	3344.33
418.35	3086.29
418.56	3139.54
418.77	3737.54
418.97	3334.09
419.18	3125.20
419.38	2721.75
419.59	3278.80
419.80	3508.17
420.00	2959.31
420.21	3049.43
420.42	3602.38
420.62	3354.57
420.83	2957.27
421.04	3035.09
421.24	3305.42
421.45	3393.48
421.65	3057.62
421.86	3059.67
422.07	3440.59
422.27	3456.97
422.48	3012.56
422.69	2869.20
422.89	3262.41
423.10	3282.89
423.30	3067.86
423.51	3104.72
423.72	3352.52
423.92	3446.73
424.13	2947.03
424.33	3155.92
424.54	3495.88
424.75	3348.43
424.95	3299.28
425.16	2990.03
425.36	3282.89
425.57	3475.40
425.78	3164.11
425.98	3188.69
426.19	3241.93
426.39	3102.67
426.60	3117.01
426.81	3250.13
427.01	3473.36
427.22	3149.78
427.42	2828.24
427.63	3000.27
427.83	3459.02
428.04	3620.81
428.25	3012.56
428.45	3127.25
428.66	3520.46
428.86	3211.22
429.07	3082.19
429.28	3016.66
429.48	3293.13
429.69	3080.14
429.89	3049.43
430.10	2961.36
430.30	3475.40
430.51	3499.98
430.71	3002.32
430.92	3166.16
431.13	3164.11
431.33	3387.34
431.54	3139.54
431.74	3338.19
431.95	3766.21
432.15	3049.43
432.36	3059.67
432.56	3123.15
432.77	3674.06
432.98	3588.04
433.18	3151.82
433.39	2983.89
433.59	3268.56
433.80	3829.70
434.00	3215.31
434.21	3131.34
434.41	3200.98
434.62	3786.69
434.82	2893.78
435.03	2987.99
435.23	3418.06
435.44	2920.40
435.64	2985.94
435.85	3016.66
436.06	3499.98
436.26	3499.98
436.47	3045.33
436.67	3061.71
436.88	3260.37
437.08	3536.84
437.29	3188.69
437.49	3180.50
437.70	3588.04
437.90	3256.27
438.11	3237.84
438.31	3088.34
438.52	3594.19
438.72	3493.83
438.93	3456.97
439.13	3131.34
439.34	3436.49
439.54	3160.02
439.75	3164.11
439.95	3166.16
440.16	3162.06
440.36	3297.23
440.57	3114.96
440.77	3018.71
440.98	3270.61
441.18	3373.00
441.39	2959.31
441.59	3026.90
441.80	3708.87
442.00	3293.13
442.21	3121.10
442.41	2912.21
442.62	3446.73
442.82	3112.91
443.02	3000.27
443.23	3051.47
443.43	3209.17
443.64	3583.95
443.84	2881.49
444.05	3184.59
444.25	3286.99
444.46	3166.16
444.66	3020.75
444.87	3301.33
445.07	2985.94
445.28	3213.26
445.48	3286.99
445.69	3246.03
445.89	3866.56
446.09	3241.93
446.30	3395.53
446.50	3440.59
446.71	5064.63
446.91	6420.38
447.12	7176.08
447.32	7544.72
447.53	7798.66
447.73	6387.61
447.93	5470.12
448.14	5304.24
448.34	5363.63
448.55	4536.25
448.75	4442.04
448.96	4241.34
449.16	4106.18
449.36	3938.24
449.57	3366.86
449.77	3209.17
449.98	3235.79
450.18	3375.05
450.39	3016.66
450.59	3301.33
450.79	3284.94
451.00	3168.21
451.20	3368.91
451.41	3106.77
451.61	3387.34
451.81	3196.88
452.02	3041.23
452.22	3133.39
452.43	3211.22
452.63	3160.02
452.84	3117.01
453.04	2987.99
453.24	3223.50
453.45	3147.73
453.65	3084.24
453.86	3035.09
454.06	3299.28
454.26	3282.89
454.47	2951.12
454.67	3293.13
454.87	3366.86
455.08	3209.17
455.28	3135.44
455.49	3295.18
455.69	3170.26
455.89	3678.15
456.10	3110.86
456.30	3010.51
456.51	3340.24
456.71	3387.34
456.91	3190.74
457.12	3082.19
457.32	3389.39
457.52	3074.00
457.73	3200.98
457.93	3256.27
458.14	3182.54
458.34	2906.07
458.54	3026.90
458.75	2981.84
458.95	3409.87
459.15	3409.87
459.36	3082.19
459.56	3084.24
459.76	3735.50
459.97	3260.37
460.17	3055.57
460.37	3086.29
460.58	3270.61
460.78	3364.81
460.99	3172.30
461.19	3106.77
461.39	3180.50
461.60	3241.93
461.80	3119.06
462.00	2871.25
462.21	3276.75
462.41	3055.57
462.61	2897.88
462.82	2826.20
463.02	3319.76
463.22	3321.81
463.43	3131.34
463.63	3000.27
463.83	3559.37
464.04	3311.57
464.24	2992.08
464.44	3053.52
464.64	3338.19
464.85	3377.10
465.05	3211.22
465.25	3059.67
465.46	3188.69
465.66	3413.96
465.86	3172.30
466.07	3033.04
466.27	3246.03
466.47	3018.71
466.68	2887.64
466.88	3192.78
467.08	3364.81
467.29	3450.83
467.49	3084.24
467.69	3147.73
467.89	3336.14
468.10	3241.93
468.30	3157.97
468.50	3188.69
468.71	3426.25
468.91	2883.54
469.11	3209.17
469.31	3123.15
469.52	3074.00
469.72	3631.05
469.92	3330.00
470.13	3110.86
470.33	3291.09
470.53	3401.68
470.73	3487.69
470.94	3919.81
471.14	4130.75
471.34	4698.04
471.54	4284.35
471.75	4026.31
471.95	3770.31
472.15	3729.35
472.36	3784.65
472.56	3598.28
472.76	3885.00
472.96	3735.50
473.17	3395.53
473.37	3196.88
473.57	3295.18
473.77	3428.30
473.98	3227.60
474.18	2971.60
474.38	4091.84
474.58	3149.78
474.79	2938.84
474.99	3166.16
475.19	3553.23
475.39	3162.06
475.60	3215.31
475.80	3076.05
476.00	3356.62
476.20	3225.55
476.41	3049.43
476.61	3141.58
476.81	3583.95
477.01	3157.97
477.21	3289.04
477.42	3190.74
477.62	3205.07
477.82	3418.06
478.02	2987.99
478.23	3127.25
478.43	3147.73
478.63	3246.03
478.83	3114.96
479.03	3127.25
479.24	3567.56
479.44	3590.09
479.64	3016.66
479.84	2885.59
480.04	3100.62
480.25	3491.79
480.45	3010.51
480.65	2975.70
480.85	3555.27
481.06	3260.37
481.26	3088.34
481.46	2998.23
481.66	3387.34
481.86	3069.91
482.06	3243.98
482.27	3164.11
482.47	3266.51
482.67	3360.72
482.87	3188.69
483.07	3182.54
483.28	3200.98
483.48	2938.84
483.68	3043.28
483.88	2979.79
484.08	2934.74
484.29	3008.47
484.49	3139.54
484.69	2889.68
484.89	3620.81
485.09	3495.88
485.29	3082.19
485.50	3278.80
485.70	3104.72
485.90	3528.65
486.10	3196.88
486.30	3049.43
486.50	3528.65
486.71	3256.27
486.91	3090.38
487.11	3141.58
487.31	3018.71
487.51	3364.81
487.71	3074.00
487.91	2996.18
488.12	3172.30
488.32	2858.96
488.52	3008.47
488.72	2811.86
488.92	3303.37
489.12	3497.93
489.32	3233.74
489.53	3016.66
489.73	2908.12
489.93	3641.29
490.13	3041.23
490.33	2891.73
490.53	3286.99
490.73	3393.48
490.94	2977.75
491.14	3237.84
491.34	3434.44
491.54	3381.20
491.74	4091.84
491.94	4599.74
492.14	5105.59
492.34	5255.09
492.54	4747.19
492.75	4173.76
492.95	4413.37
493.15	4118.47
493.35	3811.27
493.55	3692.49
493.75	3672.01
493.95	3925.96
494.15	3393.48
494.35	3170.26
494.56	3241.93
494.76	3143.63
494.96	3248.08
495.16	2920.40
495.36	3254.22
495.56	3327.95
495.76	3143.63
495.96	3092.43
496.16	3098.58
496.36	3686.34
496.56	3041.23
496.77	3024.85
496.97	3325.90
497.17	3518.41
497.37	2977.75
497.57	3170.26
497.77	3364.81
497.97	3055.57
498.17	3090.38
498.37	3024.85
498.57	3364.81
498.77	3133.39
498.97	3211.22
499.17	3473.36
499.38	3198.93
499.58	3330.00
499.78	3192.78
499.98	3272.65
500.18	3327.95
500.38	3114.96
500.58	3217.36
500.78	3739.59
500.98	6061.99
501.18	8230.79
501.38	9860.97
501.58	10923.87
501.78	10860.38
501.98	9078.65
502.18	7534.48
502.38	6610.84
502.58	6375.33
502.78	5621.67
502.98	5384.11
503.18	5298.10
503.38	4882.36
503.59	4251.58
503.79	4067.27
503.99	3672.01
504.19	3848.13
504.39	3887.04
504.59	3721.16
504.79	3608.52
504.99	3948.48
505.19	3561.42
505.39	3383.24
505.59	3497.93
505.79	3665.86
505.99	3502.03
506.19	3151.82
506.39	3342.28
506.59	3311.57
506.79	3248.08
506.99	3354.57
507.19	2983.89
507.39	3270.61
507.59	3082.19
507.79	2973.65
507.99	3059.67
508.19	3278.80
508.39	3166.16
508.59	3076.05
508.79	3207.12
508.99	3760.07
509.19	3112.91
509.39	3110.86
509.59	3051.47
509.79	3221.45
509.99	3286.99
510.19	3207.12
510.39	3239.89
510.59	3286.99
510.79	3229.65
510.99	2861.01
511.19	3024.85
511.39	3561.42
511.59	3475.40
511.79	3203.02
511.99	3024.85
512.19	3641.29
512.38	3221.45
512.58	2973.65
512.78	3026.90
512.98	3588.04
513.18	3598.28
513.38	2985.94
513.58	3102.67
513.78	3274.70
513.98	3190.74
514.18	3078.10
514.38	3131.34
514.58	3295.18
514.78	3155.92
514.98	2969.55
515.18	3084.24
515.38	3024.85
515.58	3530.70
515.78	3114.96
515.98	3076.05
516.18	3401.68
516.38	3262.41
516.57	3018.71
516.77	3018.71
516.97	3422.16
517.17	3102.67
517.37	2908.12
517.57	3094.48
517.77	3248.08
517.97	3139.54
518.17	3131.34
518.37	2912.21
518.57	3176.40
518.77	3258.32
518.97	3020.75
519.16	3049.43
519.36	3485.64
519.56	3194.83
519.76	2979.79
519.96	3131.34
520.16	3512.27
520.36	3041.23
520.56	3250.13
520.76	2908.12
520.96	3188.69
521.16	3491.79
521.35	3196.88
521.55	3182.54
521.75	3301.33
521.95	3258.32
522.15	3026.90
522.35	2942.93
522.55	3121.10
522.75	3420.11
522.95	2967.51
523.14	2924.50
523.34	3270.61
523.54	3108.82
523.74	3141.58
523.94	3086.29
524.14	2955.22
524.34	3370.96
524.54	3334.09
524.73	3110.86
524.93	3428.30
525.13	3338.19
525.33	2869.20
525.53	3327.95
525.73	3403.72
525.93	3327.95
526.13	3098.58
526.32	2963.41
526.52	3510.22
526.72	3413.96
526.92	2985.94
527.12	3024.85
527.32	3037.14
527.52	3383.24
527.71	3069.91
527.91	3049.43
528.11	3131.34
528.31	3317.71
528.51	2969.55
528.71	3172.30
528.90	3370.96
529.10	3502.03
529.30	3174.35
529.50	2756.57
529.70	3393.48
529.90	3100.62
530.09	2985.94
530.29	2959.31
530.49	3098.58
530.69	3852.23
530.89	3200.98
531.09	3147.73
531.28	3176.40
531.48	3569.61
531.68	3065.81
531.88	3069.91
532.08	3489.74
532.28	3207.12
532.47	3223.50
532.67	3205.07
532.87	3426.25
533.07	3076.05
533.27	3096.53
533.46	3106.77
533.66	3278.80
533.86	3252.17
534.06	3141.58
534.26	3074.00
534.45	3184.59
534.65	3436.49
534.85	3166.16
535.05	2959.31
535.25	3510.22
535.44	2992.08
535.64	3098.58
535.84	3157.97
536.04	3139.54
536.24	3217.36
536.43	3012.56
536.63	2990.03
536.83	3286.99
537.03	3272.65
537.22	2914.26
537.42	2856.92
537.62	3373.00
537.82	3112.91
538.02	3229.65
538.21	3180.50
538.41	3815.37
538.61	3327.95
538.81	3131.34
539.00	3196.88
539.20	2975.70
539.40	3260.37
539.60	3004.37
539.79	3256.27
539.99	3305.42
540.19	3108.82
540.39	2987.99
540.58	3182.54
540.78	3555.27
540.98	3196.88
541.18	3338.19
541.37	3117.01
541.57	3325.90
541.77	3354.57
541.97	2998.23
542.16	2926.55
542.36	3237.84
542.56	3168.21
542.76	3207.12
542.95	3153.87
543.15	3321.81
543.35	3387.34
543.54	3057.62
543.74	3018.71
543.94	3528.65
544.14	3207.12
544.33	3141.58
544.53	3074.00
544.73	3254.22
544.93	3258.32
545.12	3059.67
545.32	3069.91
545.52	3164.11
545.71	3041.23
545.91	3024.85
546.11	2930.64
546.30	3227.60
546.50	3266.51
546.70	3096.53
546.90	3086.29
547.09	2891.73
547.29	3276.75
547.49	3229.65
547.68	3055.57
547.88	3166.16
548.08	3444.68
548.27	3370.96
548.47	3067.86
548.67	3172.30
548.87	3364.81
549.06	2967.51
549.26	3004.37
549.46	3354.57
549.65	3100.62
549.85	3145.68
550.05	3108.82
550.24	3012.56
550.44	3180.50
550.64	3143.63
550.83	3147.73
551.03	3561.42
551.23	3536.84
551.42	3112.91
551.62	3094.48
551.82	3315.66
552.01	3217.36
552.21	3332.05
552.41	3205.07
552.60	3639.24
552.80	3268.56
553.00	2985.94
553.19	3096.53
553.39	3633.10
553.59	3041.23
553.78	3160.02
553.98	3053.52
554.17	3000.27
554.37	3270.61
554.57	3049.43
554.76	2936.79
554.96	3221.45
555.16	3354.57
555.35	3078.10
555.55	3198.93
555.75	3311.57
555.94	3450.83
556.14	2904.02
556.33	3114.96
556.53	3295.18
556.73	3209.17
556.92	3098.58
557.12	2975.70
557.32	3678.15
557.51	3542.99
557.71	3049.43
557.90	3282.89
558.10	3487.69
558.30	3246.03
558.49	3041.23
558.69	3026.90
558.88	3385.29
559.08	3309.52
559.28	3166.16
559.47	3133.39
559.67	3360.72
559.86	3672.01
560.06	3041.23
560.26	3067.86
560.45	3395.53
560.65	3151.82
560.84	3413.96
561.04	2996.18
561.24	3393.48
561.43	2985.94
561.63	3397.58
561.82	3207.12
562.02	3350.48
562.22	3106.77
562.41	3051.47
562.61	3090.38
562.80	2994.13
563.00	3796.93
563.19	3135.44
563.39	3170.26
563.59	3434.44
563.78	3037.14
563.98	2791.38
564.17	3092.43
564.37	2998.23
564.56	3172.30
564.76	2961.36
564.96	3246.03
565.15	3366.86
565.35	3755.97
565.54	3112.91
565.74	3092.43
565.93	3315.66
566.13	3207.12
566.32	3117.01
566.52	3086.29
566.71	3270.61
566.91	3450.83
567.11	3170.26
567.30	3033.04
567.50	3393.48
567.69	3373.00
567.89	2971.60
568.08	2934.74
568.28	3348.43
568.47	3010.51
568.67	3082.19
568.86	3051.47
569.06	3461.07
569.25	3198.93
569.45	2973.65
569.64	3094.48
569.84	3239.89
570.04	3330.00
570.23	3094.48
570.43	3110.86
570.62	3260.37
570.82	3633.10
571.01	3024.85
571.21	3018.71
571.40	3119.06
571.60	3434.44
571.79	3080.14
571.99	3123.15
572.18	3100.62
572.38	3358.67
572.57	3112.91
572.77	3157.97
572.96	3934.15
573.16	3309.52
573.35	3043.28
573.55	3135.44
573.74	3391.44
573.94	3270.61
574.13	3076.05
574.33	3317.71
574.52	3483.59
574.71	3334.09
574.91	3135.44
575.10	2942.93
575.30	3110.86
575.49	3117.01
575.69	2959.31
575.88	3000.27
576.08	3311.57
576.27	3504.07
576.47	2951.12
576.66	3239.89
576.86	3545.03
577.05	3270.61
577.25	3223.50
577.44	3262.41
577.64	3215.31
577.83	3508.17
578.02	3100.62
578.22	3194.83
578.41	3676.10
578.61	3217.36
578.80	2934.74
579.00	3028.95
579.19	3342.28
579.39	3352.52
579.58	3090.38
579.77	3114.96
579.97	3538.89
580.16	3581.90
580.36	3268.56
580.55	3151.82
580.75	3379.15
580.94	3256.27
581.13	3282.89
581.33	3315.66
581.52	3284.94
581.72	3751.88
581.91	3194.83
582.11	3106.77
582.30	3465.16
582.49	3399.63
582.69	3364.81
582.88	3151.82
583.08	3323.85
583.27	3491.79
583.47	3229.65
583.66	2992.08
583.85	3088.34
584.05	3157.97
584.24	3225.55
584.44	3074.00
584.63	3551.18
584.82	3559.37
585.02	3307.47
585.21	3221.45
585.41	3438.54
585.60	3330.00
585.79	3309.52
585.99	3286.99
586.18	3373.00
586.37	4306.88
586.57	6244.26
586.76	17985.26
586.96	37719.49
587.15	50867.45
587.34	59710.58
587.54	63220.80
587.73	56753.31
587.93	40828.30
588.12	31309.35
588.31	25497.21
588.51	22693.54
588.70	21046.97
588.89	18532.07
589.09	15709.97
589.28	13645.62
589.47	10807.13
589.67	8253.31
589.86	6504.35
590.06	5083.06
590.25	4489.15
590.44	3813.32
590.64	3536.84
590.83	3573.71
591.02	3522.51
591.22	3086.29
591.41	3127.25
591.60	3227.60
591.80	3885.00
591.99	2942.93
592.18	3104.72
592.38	3508.17
592.57	3250.13
592.76	3024.85
592.96	3198.93
593.15	3217.36
593.34	3504.07
593.54	3059.67
593.73	3264.46
593.92	3352.52
594.12	3444.68
594.31	3168.21
594.50	3327.95
594.70	3368.91
594.89	3762.12
595.08	2967.51
595.28	3217.36
595.47	3895.24
595.66	3493.83
595.86	2942.93
596.05	2906.07
596.24	3174.35
596.43	3698.63
596.63	3229.65
596.82	3268.56
597.01	3344.33
597.21	3661.77
597.40	3135.44
597.59	3082.19
597.79	3280.85
597.98	3487.69
598.17	3160.02
598.36	3125.20
598.56	3469.26
598.75	3104.72
598.94	3186.64
599.14	3129.30
599.33	3182.54
599.52	3459.02
599.71	3192.78
599.91	3074.00
600.10	3368.91
600.29	3268.56
600.48	3127.25
600.68	3176.40
600.87	3313.61
601.06	3160.02
601.26	3194.83
601.45	3207.12
601.64	3231.69
601.83	3528.65
602.03	2987.99
602.22	2977.75
602.41	3528.65
602.60	3745.73
602.80	3168.21
602.99	3219.41
603.18	3174.35
603.37	3323.85
603.57	2944.98
603.76	3180.50
603.95	3489.74
604.14	3221.45
604.34	3006.42
604.53	3008.47
604.72	3323.85
604.91	3409.87
605.10	3094.48
605.30	3004.37
605.49	3706.82
605.68	3416.01
605.87	3121.10
606.07	2971.60
606.26	3250.13
606.45	3418.06
606.64	3088.34
606.84	2936.79
607.03	3256.27
607.22	3520.46
607.41	3114.96
607.60	3063.76
607.80	3540.94
607.99	3246.03
608.18	3047.38
608.37	3117.01
608.56	3162.06
608.76	3532.75
608.95	3325.90
609.14	3121.10
609.33	3547.08
609.52	3557.32
609.72	3223.50
609.91	3170.26
610.10	3307.47
610.29	3629.00
610.48	3145.68
610.68	3205.07
610.87	3258.32
611.06	3303.37
611.25	3092.43
611.44	3258.32
611.63	3223.50
611.83	3483.59
612.02	3018.71
612.21	3264.46
612.40	2963.41
612.59	3059.67
612.79	2955.22
612.98	3143.63
613.17	3590.09
613.36	3286.99
613.55	3225.55
613.74	3022.80
613.93	3360.72
614.13	3577.80
614.32	3227.60
614.51	3139.54
614.70	3377.10
614.89	3303.37
615.08	3258.32
615.28	3493.83
615.47	3110.86
615.66	3409.87
615.85	3141.58
616.04	3149.78
616.23	3295.18
616.42	3260.37
616.62	3047.38
616.81	3067.86
617.00	3303.37
617.19	3338.19
617.38	3069.91
617.57	3160.02
617.76	3567.56
617.95	3463.12
618.15	3229.65
618.34	3309.52
618.53	3035.09
618.72	3508.17
618.91	3227.60
619.10	3203.02
619.29	3286.99
619.48	3256.27
619.68	2942.93
619.87	3067.86
620.06	2955.22
620.25	3399.63
620.44	3022.80
620.63	3010.51
620.82	3219.41
621.01	3323.85
621.20	3110.86
621.39	3108.82
621.59	3377.10
621.78	3289.04
621.97	3026.90
622.16	3164.11
622.35	3364.81
622.54	3428.30
622.73	3170.26
622.92	2844.63
623.11	3483.59
623.30	3262.41
623.49	3246.03
623.68	2949.08
623.88	3520.46
624.07	3205.07
624.26	3002.32
624.45	3047.38
624.64	3246.03
624.83	3307.47
625.02	3045.33
625.21	3078.10
625.40	3305.42
625.59	3579.85
625.78	3098.58
625.97	3217.36
626.16	3549.13
626.35	3424.20
626.54	3149.78
626.74	3362.76
626.93	3260.37
627.12	3227.60
627.31	3182.54
627.50	3106.77
627.69	3459.02
627.88	3104.72
628.07	2994.13
628.26	2928.60
628.45	3143.63
628.64	3098.58
628.83	3037.14
629.02	2852.82
629.21	3426.25
629.40	3395.53
629.59	2987.99
629.78	3035.09
629.97	3289.04
630.16	3311.57
630.35	3049.43
630.54	3205.07
630.73	3135.44
630.92	3307.47
631.11	3039.19
631.30	3067.86
631.49	3477.45
631.68	3229.65
631.87	3129.30
632.06	3012.56
632.25	3823.56
632.44	3317.71
632.63	3110.86
632.82	3131.34
633.01	3196.88
633.20	3327.95
633.39	3059.67
633.58	2975.70
633.77	3373.00
633.96	3459.02
634.15	3266.51
634.34	3200.98
634.53	3428.30
634.72	3125.20
634.91	2912.21
635.10	3074.00
635.29	3422.16
635.48	3319.76
635.67	2977.75
635.86	2938.84
636.05	3502.03
636.24	3229.65
636.43	3108.82
636.62	3071.95
636.81	2779.09
637.00	3231.69
637.19	2994.13
637.38	3141.58
637.57	3172.30
637.76	3262.41
637.95	3305.42
638.14	3188.69
638.33	3274.70
638.52	3346.38
638.71	2942.93
638.89	3030.99
639.08	3782.60
639.27	3483.59
639.46	3395.53
639.65	3715.02
639.84	3841.99
640.03	3977.16
640.22	3672.01
640.41	3557.32
640.60	3450.83
640.79	3547.08
640.98	3370.96
641.17	3321.81
641.36	3561.42
641.55	3495.88
641.74	3000.27
641.92	3059.67
642.11	3186.64
642.30	3184.59
642.49	2926.55
642.68	3092.43
642.87	3391.44
643.06	3436.49
643.25	2955.22
643.44	3018.71
643.63	3221.45
643.82	3416.01
644.00	2959.31
644.19	3117.01
644.38	3053.52
644.57	3385.29
644.76	3059.67
644.95	3160.02
645.14	3362.76
645.33	3225.55
645.52	3164.11
645.71	2967.51
645.89	3039.19
646.08	3239.89
646.27	3088.34
646.46	3266.51
646.65	3000.27
646.84	3286.99
647.03	2922.45
647.22	3243.98
647.40	3303.37
647.59	3223.50
647.78	2820.05
647.97	3030.99
648.16	3078.10
648.35	3534.79
648.54	3368.91
648.73	3108.82
648.91	3479.50
649.10	3256.27
649.29	2990.03
649.48	3016.66
649.67	3399.63
649.86	3352.52
650.05	3098.58
650.23	3268.56
650.42	3213.26
650.61	3606.47
650.80	3387.34
650.99	3319.76
651.18	3577.80
651.36	3604.42
651.55	3002.32
651.74	3264.46
651.93	3207.12
652.12	3338.19
652.31	3129.30
652.49	3127.25
652.68	3194.83
652.87	3604.42
653.06	3174.35
653.25	3348.43
653.44	3198.93
653.62	3571.66
653.81	3112.91
654.00	3041.23
654.19	3409.87
654.38	3807.17
654.56	3119.06
654.75	2985.94
654.94	3450.83
655.13	3319.76
655.32	3063.76
655.51	3207.12
655.69	3157.97
655.88	3499.98
656.07	2955.22
656.26	3047.38
656.45	3020.75
656.63	3231.69
656.82	3028.95
657.01	3373.00
657.20	3231.69
657.38	3620.81
657.57	3004.37
657.76	2887.64
657.95	3489.74
658.14	3166.16
658.32	3198.93
658.51	2875.35
658.70	3368.91
658.89	3307.47
659.08	3104.72
659.26	3295.18
659.45	3133.39
659.64	3442.64
659.83	3114.96
660.01	3450.83
660.20	3334.09
660.39	3581.90
660.58	2779.09
660.76	3196.88
660.95	2979.79
661.14	3356.62
661.33	2856.92
661.51	3000.27
661.70	3223.50
661.89	3354.57
662.08	3071.95
662.26	2885.59
662.45	2981.84
662.64	3596.23
662.83	3104.72
663.01	2934.74
663.20	3155.92
663.39	3667.91
663.58	3049.43
663.76	3082.19
663.95	3373.00
664.14	3074.00
664.32	3145.68
664.51	2975.70
664.70	3018.71
664.89	3370.96
665.07	2934.74
665.26	3274.70
665.45	3008.47
665.64	3444.68
665.82	3059.67
666.01	3211.22
666.20	3039.19
666.38	3475.40
666.57	3448.78
666.76	5586.86
666.95	12930.87
667.13	20561.61
667.32	24893.06
667.51	28128.85
667.69	29120.07
667.88	24245.90
668.07	17506.04
668.25	14774.05
668.44	12709.69
668.63	11366.23
668.81	9891.69
669.00	8466.30
669.19	7712.65
669.38	6727.58
669.56	5769.13
669.75	5050.29
669.94	4396.99
670.12	3831.75
670.31	3403.72
670.50	3393.48
670.68	3573.71
670.87	3436.49
671.06	3051.47
671.24	3213.26
671.43	3561.42
671.62	3254.22
671.80	3110.86
671.99	3217.36
672.18	3313.61
672.36	3426.25
672.55	3147.73
672.74	3176.40
672.92	3274.70
673.11	3454.92
673.29	2895.83
673.48	3254.22
673.67	3213.26
673.85	3487.69
674.04	2951.12
674.23	3160.02
674.41	3641.29
674.60	3020.75
674.79	2881.49
674.97	2940.88
675.16	3393.48
675.34	3536.84
675.53	3053.52
675.72	3225.55
675.90	3637.19
676.09	3243.98
676.28	3196.88
676.46	2922.45
676.65	3377.10
676.83	3174.35
677.02	3074.00
677.21	3162.06
677.39	3217.36
677.58	3098.58
677.77	3002.32
677.95	2920.40
678.14	3321.81
678.32	3131.34
678.51	3086.29
678.70	3393.48
678.88	3223.50
679.07	3393.48
679.25	3094.48
679.44	3106.77
679.63	2992.08
679.81	3362.76
680.00	3409.87
680.18	3151.82
680.37	3618.76
680.55	3274.70
680.74	2883.54
680.93	2842.58
681.11	3309.52
681.30	3264.46
681.48	3049.43
681.67	3065.81
681.85	3278.80
682.04	3114.96
682.23	3168.21
682.41	3246.03
682.60	3241.93
682.78	3213.26
682.97	2883.54
683.15	3100.62
683.34	3342.28
683.53	3538.89
683.71	2961.36
683.90	3102.67
684.08	3565.51
684.27	3221.45
684.45	3217.36
684.64	3266.51
684.82	3303.37
685.01	3325.90
685.19	3117.01
685.38	3323.85
685.57	3297.23
685.75	3114.96
685.94	3067.86
686.12	2953.17
686.31	3186.64
686.49	3700.68
686.68	2850.77
686.86	3192.78
687.05	3295.18
687.23	3540.94
687.42	3119.06
687.60	2807.77
687.79	3530.70
687.97	3704.78
688.16	3160.02
688.34	3293.13
688.53	2944.98
688.71	3350.48
688.90	3354.57
689.08	3117.01
689.27	2969.55
689.45	3518.41
689.64	3254.22
689.82	3149.78
690.01	3475.40
690.19	3389.39
690.38	3153.87
690.56	3182.54
690.75	3114.96
690.93	3207.12
691.12	3090.38
691.30	3069.91
691.49	3147.73
691.67	3289.04
691.86	3436.49
692.04	3155.92
692.23	3188.69
692.41	3348.43
692.60	3387.34
692.78	3278.80
692.97	3330.00
693.15	3452.88
693.34	3237.84
693.52	3332.05
693.71	3174.35
693.89	3112.91
694.08	2877.40
694.26	3082.19
694.44	3428.30
694.63	3426.25
694.81	2975.70
695.00	3055.57
695.18	3489.74
695.37	3704.78
695.55	3166.16
695.74	3135.44
695.92	3147.73
696.10	3508.17
696.29	3004.37
696.47	3133.39
696.66	3055.57
696.84	3049.43
697.03	3219.41
697.21	3356.62
697.40	4687.80
697.58	3551.18
697.76	3049.43
697.95	3067.86
698.13	3012.56
698.32	3170.26
698.50	3090.38
698.68	3166.16
698.87	3256.27
699.05	3643.34
699.24	3053.52
699.42	3024.85
699.61	3311.57
699.79	3325.90
699.97	3155.92
700.16	2971.60
700.34	3129.30
700.53	3155.92
700.71	3346.38
700.89	3237.84
701.08	3235.79
701.26	3280.85
701.45	3401.68
701.63	3123.15
701.81	3141.58
702.00	3131.34
702.18	3258.32
702.37	3037.14
702.55	3487.69
702.73	3356.62
702.92	3164.11
703.10	3512.27
703.28	3456.97
703.47	3127.25
703.65	3342.28
703.84	3289.04
704.02	3241.93
704.20	3717.06
704.39	3127.25
704.57	3084.24
704.75	3491.79
704.94	3348.43
705.12	3319.76
705.30	4001.73
705.49	8726.39
705.67	17268.47
705.86	23998.10
706.04	27199.07
706.22	30039.61
706.41	28876.36
706.59	21561.02
706.77	16807.68
706.96	14612.26
707.14	13231.93
707.32	11229.01
707.51	9895.78
707.69	7907.21
707.87	6576.03
708.06	5281.71
708.24	4483.00
708.42	4073.41
708.61	4306.88
708.79	3323.85
708.97	3231.69
709.16	3358.67
709.34	3243.98
709.52	3078.10
709.71	3180.50
709.89	3379.15
710.07	3094.48
710.26	3033.04
710.44	3135.44
710.62	3428.30
710.80	3264.46
710.99	3194.83
711.17	3233.74
711.35	3182.54
711.54	3160.02
711.72	3274.70
711.90	3207.12
712.09	3321.81
712.27	3172.30
712.45	3264.46
712.63	3112.91
712.82	3350.48
713.00	3221.45
713.18	3260.37
713.37	3172.30
713.55	3401.68
713.73	3356.62
713.91	3188.69
714.10	3172.30
714.28	3223.50
714.46	3260.37
714.65	3164.11
714.83	3020.75
715.01	3307.47
715.19	3297.23
715.38	2992.08
715.56	3151.82
715.74	3190.74
715.92	3006.42
716.11	3364.81
716.29	2871.25
716.47	3307.47
716.65	3241.93
716.84	2938.84
717.02	3162.06
717.20	2983.89
717.38	3129.30
717.57	3217.36
717.75	3108.82
717.93	3205.07
718.11	3354.57
718.30	2983.89
718.48	3190.74
718.66	3446.73
718.84	3450.83
719.03	3088.34
719.21	2871.25
719.39	3639.24
719.57	3344.33
719.75	3170.26
719.94	3026.90
720.12	3184.59
720.30	3319.76
720.48	3176.40
720.67	2996.18
720.85	3082.19
721.03	3227.60
721.21	3041.23
721.39	3125.20
721.58	3354.57
721.76	3401.68
721.94	3088.34
722.12	3200.98
722.30	3565.51
722.49	3239.89
722.67	3039.19
722.85	3184.59
723.03	3002.32
723.21	3117.01
723.40	3192.78
723.58	3205.07
723.76	3475.40
723.94	3581.90
724.12	3094.48
724.30	3319.76
724.49	3545.03
724.67	3026.90
724.85	3221.45
725.03	3000.27
725.21	3557.32
725.40	3495.88
725.58	3200.98
725.76	3323.85
725.94	3313.61
726.12	3024.85
726.30	3096.53
726.49	3096.53
726.67	3133.39
726.85	3452.88
727.03	3977.16
727.21	5541.80
727.39	7368.59
727.57	8034.18
727.76	8480.64
727.94	8376.19
728.12	7391.12
728.30	5965.73
728.48	5672.87
728.66	5072.82
728.84	4808.63
729.03	4216.77
729.21	3778.50
729.39	3528.65
729.57	3454.92
729.75	3401.68
729.93	3403.72
730.11	3084.24
730.30	3178.45
730.48	3254.22
730.66	3133.39
730.84	3182.54
731.02	3223.50
731.20	3170.26
731.38	3094.48
731.56	3041.23
731.74	3082.19
731.93	3387.34
732.11	3188.69
732.29	3067.86
732.47	3426.25
732.65	3348.43
732.83	3301.33
733.01	3160.02
733.19	3213.26
733.37	3397.58
733.56	3037.14
733.74	2959.31
733.92	3622.86
734.10	3174.35
734.28	3286.99
734.46	2893.78
734.64	3192.78
734.82	3207.12
735.00	3041.23
735.18	3045.33
735.36	3250.13
735.54	3291.09
735.73	3082.19
735.91	3258.32
736.09	3522.51
736.27	3305.42
736.45	3174.35
736.63	2738.13
736.81	3213.26
736.99	3452.88
737.17	3344.33
737.35	2987.99
737.53	3221.45
737.71	3209.17
737.89	3313.61
738.07	3004.37
738.25	3086.29
738.43	2975.70
738.61	3094.48
738.80	2992.08
738.98	3129.30
739.16	3227.60
739.34	3039.19
739.52	3428.30
739.70	3170.26
739.88	3338.19
740.06	3221.45
740.24	2809.81
740.42	3514.31
740.60	2977.75
740.78	3102.67
740.96	2897.88
741.14	3203.02
741.32	3225.55
741.50	3006.42
741.68	3332.05
741.86	3545.03
742.04	3147.73
742.22	2949.08
742.40	3155.92
742.58	3430.35
742.76	3084.24
742.94	3366.86
743.12	2932.69
743.30	3213.26
743.48	3438.54
743.66	3024.85
743.84	3071.95
744.02	3217.36
744.20	3268.56
744.38	2949.08
744.56	3057.62
744.74	3618.76
744.92	3364.81
745.10	3346.38
745.28	3086.29
745.46	3565.51
745.64	3241.93
745.82	3229.65
746.00	3055.57
746.18	3409.87
746.36	3104.72
746.54	3176.40
746.72	3096.53
746.90	3049.43
747.08	3510.22
747.26	3084.24
747.44	3260.37
747.62	3370.96
747.80	3348.43
747.98	3137.49
748.15	3090.38
748.33	3557.32
748.51	3336.14
748.69	3237.84
748.87	3008.47
749.05	3229.65
749.23	3366.86
749.41	3053.52
749.59	3096.53
749.77	3389.39
749.95	3272.65
750.13	3035.09
750.31	3241.93
750.49	3297.23
750.67	3497.93
750.85	3313.61
751.03	3051.47
751.20	3672.01
751.38	3286.99
751.56	3133.39
751.74	3084.24
751.92	3188.69
752.10	3014.61
752.28	3246.03
752.46	3074.00
752.64	3186.64
752.82	3289.04
753.00	3254.22
753.18	3039.19
753.35	3207.12
753.53	3266.51
753.71	3047.38
753.89	3164.11
754.07	3315.66
754.25	3434.44
754.43	3119.06
754.61	3059.67
754.79	3338.19
754.97	3166.16
755.14	3278.80
755.32	3043.28
755.50	3381.20
755.68	3385.29
755.86	3041.23
756.04	3104.72
756.22	2940.88
756.40	3360.72
756.57	3344.33
756.75	3090.38
756.93	3524.55
757.11	3454.92
757.29	2996.18
757.47	3090.38
757.65	3008.47
757.82	2830.29
758.00	3000.27
758.18	3016.66
758.36	3096.53
758.54	3592.14
758.72	2942.93
758.90	3203.02
759.07	3344.33
759.25	3086.29
759.43	3149.78
759.61	2953.17
759.79	4528.06
759.97	3481.55
760.15	3164.11
760.32	3059.67
760.50	3338.19
760.68	3594.19
760.86	2885.59
761.04	3370.96
761.22	3389.39
761.39	3289.04
761.57	3188.69
761.75	3074.00
761.93	3344.33
762.11	3217.36
762.28	3184.59
762.46	2922.45
762.64	3420.11
762.82	3049.43
763.00	3033.04
763.18	3282.89
763.35	3026.90
763.53	3418.06
763.71	3135.44
763.89	3012.56
764.07	3362.76
764.24	3272.65
764.42	3174.35
764.60	3125.20
764.78	3373.00
764.96	3362.76
765.13	3303.37
765.31	2920.40
765.49	3409.87
765.67	3127.25
765.84	2992.08
766.02	2998.23
766.20	3033.04
766.38	3338.19
766.56	3180.50
766.73	3174.35
766.91	3311.57
767.09	3250.13
767.27	3160.02
767.44	3020.75
767.62	3377.10
767.80	3289.04
767.98	3022.80
768.15	3047.38
768.33	3346.38
768.51	3420.11
768.69	3237.84
768.87	3043.28
769.04	3307.47
769.22	3815.37
769.40	3239.89
769.58	3223.50
769.75	3342.28
769.93	3508.17
770.11	3082.19
770.28	2969.55
770.46	3448.78
770.64	3360.72
770.82	3041.23
770.99	2963.41
771.17	3442.64
771.35	3168.21
771.53	3114.96
771.70	3010.51
771.88	3401.68
772.06	3223.50
772.23	3018.71
772.41	3139.54
772.59	3229.65
772.77	3127.25
772.94	3164.11
773.12	3145.68
773.30	3166.16
773.47	3336.14
773.65	3012.56
773.83	3291.09
774.01	3231.69
774.18	3004.37
774.36	3176.40
774.54	2940.88
774.71	3321.81
774.89	2918.36
775.07	2965.46
775.24	3123.15
775.42	3112.91
775.60	3641.29
775.78	2977.75
775.95	2893.78
776.13	2920.40
776.31	2955.22
776.48	3143.63
776.66	3325.90
776.84	3241.93
777.01	3067.86
777.19	3035.09
777.37	2994.13
777.54	3432.40
777.72	3655.62
777.90	3209.17
778.07	3018.71
778.25	3903.43
778.43	3420.11
778.60	3016.66
778.78	3127.25
778.96	3604.42
779.13	3010.51
779.31	3121.10
779.49	3147.73
779.66	3330.00
779.84	3194.83
780.01	3037.14
780.19	3106.77
780.37	3506.12
780.54	3424.20
780.72	2947.03
780.90	3049.43
781.07	3203.02
781.25	3057.62
781.43	3319.76
781.60	3037.14
781.78	3487.69
781.95	3246.03
782.13	3037.14
782.31	3119.06
782.48	2887.64
782.66	3243.98
782.83	3291.09
783.01	3250.13
783.19	3420.11
783.36	3203.02
783.54	3037.14
783.72	3098.58
783.89	3198.93
784.07	3342.28
784.24	3217.36
784.42	3276.75
784.60	3342.28
784.77	3330.00
784.95	2844.63
785.12	3059.67
785.30	3256.27
785.47	3086.29
785.65	2955.22
785.83	3147.73
786.00	3221.45
786.18	3252.17
786.35	3047.38
786.53	3041.23
786.71	3430.35
786.88	3332.05
787.06	3180.50
787.23	3114.96
787.41	3096.53
787.58	3207.12
787.76	2959.31
787.94	3108.82
788.11	3418.06
788.29	3018.71
788.46	3125.20
788.64	2897.88
788.81	3184.59
788.99	3033.04
789.16	3010.51
789.34	3141.58
789.52	3164.11
789.69	3106.77
789.87	2832.34
790.04	3119.06
790.22	3188.69
790.39	3614.66
790.57	3016.66
790.74	2967.51
790.92	3483.59
791.09	2953.17
791.27	3117.01
791.44	3221.45
791.62	3211.22
791.79	3399.63
791.97	3153.87
792.15	3459.02
792.32	3379.15
792.50	3475.40
792.67	3321.81
792.85	3383.24
793.02	3235.79
793.20	3139.54
793.37	2871.25
793.55	3035.09
793.72	3043.28
793.90	3409.87
794.07	3057.62
794.25	3051.47
794.42	3270.61
794.60	3215.31
794.77	3164.11
794.95	3237.84
795.12	3379.15
795.30	3241.93
795.47	2871.25
795.65	3354.57
795.82	3373.00
796.00	3119.06
796.17	3149.78
796.34	2975.70
796.52	3352.52
796.69	3405.77
796.87	3125.20
797.04	3246.03
797.22	3493.83
797.39	3434.44
797.57	3250.13
797.74	3223.50
797.92	3344.33
798.09	3190.74
798.27	3373.00
798.44	3164.11
798.62	3227.60
798.79	3297.23
798.96	3248.08
799.14	3059.67
799.31	3909.57
799.49	3297.23
799.66	3094.48
799.84	3063.76
800.01	2934.74
800.19	3293.13
800.36	2869.20
800.53	3086.29
800.71	3321.81
800.88	3637.19
801.06	3010.51
801.23	2985.94
801.41	3233.74
801.58	3186.64
801.75	3030.99
801.93	3168.21
802.10	3409.87
802.28	3213.26
802.45	3030.99
802.63	3196.88
802.80	3549.13
802.97	3227.60
803.15	3102.67
803.32	2996.18
803.50	3117.01
803.67	3082.19
803.84	3055.57
804.02	3194.83
804.19	3264.46
804.37	2856.92
804.54	2854.87
804.71	3016.66
804.89	3229.65
805.06	3084.24
805.24	2987.99
805.41	2928.60
805.58	3065.81
805.76	3753.93
805.93	2990.03
806.10	3215.31
806.28	3393.48
806.45	3293.13
806.63	3233.74
806.80	3102.67
806.97	3379.15
807.15	3248.08
807.32	3209.17
807.49	3098.58
807.67	3143.63
807.84	3336.14
808.01	2969.55
808.19	3157.97
808.36	3690.44
808.54	3102.67
808.71	3051.47
808.88	3086.29
809.06	3559.37
809.23	3598.28
809.40	3129.30
809.58	3123.15
809.75	3231.69
809.92	3041.23
810.10	3344.33
810.27	3000.27
810.44	3325.90
810.62	3409.87
810.79	3076.05
810.96	3041.23
811.14	3078.10
811.31	3360.72
811.48	3241.93
811.66	3121.10
811.83	3573.71
812.00	3352.52
812.18	3233.74
812.35	3391.44
812.52	3188.69
812.69	3119.06
812.87	3016.66
813.04	3049.43
813.21	3268.56
813.39	3049.43
813.56	2998.23
813.73	3358.67
813.91	3008.47
814.08	3250.13
814.25	3106.77
814.42	2844.63
814.60	3209.17
814.77	3307.47
814.94	3137.49
815.12	3203.02
815.29	3549.13
815.46	3090.38
815.63	3069.91
815.81	3092.43
815.98	3151.82
816.15	3231.69
816.33	3221.45
816.50	3086.29
816.67	3229.65
816.84	3176.40
817.02	2971.60
817.19	3012.56
817.36	3387.34
817.53	3442.64
817.71	2865.11
817.88	3018.71
818.05	3207.12
818.22	3237.84
818.40	3243.98
818.57	2983.89
818.74	3313.61
818.91	3254.22
819.09	3246.03
819.26	3182.54
819.43	3172.30
819.60	3141.58
819.78	3274.70
819.95	3114.96
820.12	3090.38
820.29	3499.98
820.47	3379.15
820.64	2971.60
820.81	2936.79
820.98	3143.63
821.15	3067.86
821.33	3141.58
821.50	2934.74
821.67	3405.77
821.84	3035.09
822.02	3108.82
822.19	3379.15
822.36	3198.93
822.53	3045.33
822.70	2940.88
822.88	3194.83
823.05	3551.18
823.22	3147.73
823.39	3098.58
823.56	3225.55
823.74	3661.77
823.91	2992.08
824.08	2920.40
824.25	3043.28
824.42	3594.19
824.60	2901.97
824.77	3239.89
824.94	3168.21
825.11	3383.24
825.28	2959.31
825.45	3164.11
825.63	3252.17
825.80	3082.19
825.97	3106.77
826.14	3129.30
826.31	3008.47
826.48	3309.52
826.66	3090.38
826.83	2975.70
827.00	3219.41
827.17	3080.14
827.34	3157.97
827.51	3028.95
827.69	3233.74
827.86	3000.27
828.03	3153.87
828.20	3121.10
828.37	3157.97
828.54	3381.20
828.71	3049.43
828.89	3157.97
829.06	3311.57
829.23	3547.08
829.40	3008.47
829.57	3078.10
829.74	3387.34
829.91	3137.49
830.09	3028.95
830.26	3213.26
830.43	3559.37
830.60	3192.78
830.77	3215.31
830.94	3262.41
831.11	3401.68
831.28	3178.45
831.46	3184.59
831.63	3117.01
831.80	3397.58
831.97	3059.67
832.14	3086.29
832.31	3061.71
832.48	3323.85
832.65	3430.35
832.82	3166.16
832.99	3168.21
833.17	3123.15
833.34	3598.28
833.51	2994.13
833.68	2877.40
833.85	3428.30
834.02	3076.05
834.19	3053.52
834.36	3082.19
834.53	3327.95
834.70	3436.49
834.87	3067.86
835.04	2787.29
835.22	3135.44
835.39	3137.49
835.56	2893.78
835.73	2930.64
835.90	3413.96
836.07	3143.63
836.24	3098.58
836.41	3041.23
836.58	3135.44
836.75	3483.59
836.92	3035.09
837.09	2922.45
837.26	3375.05
837.43	3280.85
837.60	2926.55
837.77	2906.07
837.94	3418.06
838.12	3583.95
838.29	2932.69
838.46	2789.33
838.63	3127.25
838.80	3557.32
838.97	3002.32
839.14	2951.12
839.31	3260.37
839.48	3348.43
839.65	2942.93
839.82	3057.62
839.99	3243.98
840.16	3409.87
840.33	2861.01
840.50	2985.94
840.67	3139.54
840.84	2848.72
841.01	2838.48
841.18	2906.07
841.35	3356.62
841.52	3395.53
841.69	3299.28
841.86	3035.09
842.03	3229.65
842.20	3409.87
842.37	2869.20
842.54	2969.55
842.71	3319.76
842.88	2992.08
843.05	2906.07
843.22	2912.21
843.39	3497.93
843.56	3145.68
843.73	2899.92
843.90	3026.90
844.07	3260.37
844.24	3461.07
844.41	2987.99
844.58	2981.84
844.75	3217.36
844.92	3409.87
845.09	2947.03
845.26	2904.02
845.43	3430.35
845.60	3166.16
845.77	2985.94
845.94	3125.20
846.10	3475.40
846.27	2961.36
846.44	2797.53
846.61	2766.81
846.78	3381.20
846.95	3467.21
847.12	2895.83
847.29	2897.88
847.46	3041.23
847.63	3403.72
847.80	2875.35
847.97	2947.03
848.14	3626.95
848.31	3184.59
848.48	2779.09
848.65	2932.69
848.82	3102.67
848.98	3772.36
849.15	3028.95
849.32	2944.98
849.49	3463.12
849.66	3297.23
849.83	2889.68
850.00	2901.97
850.17	3381.20
850.34	3123.15
850.51	2840.53
850.68	2996.18
850.85	3745.73
851.01	3344.33
851.18	2793.43
851.35	2938.84
851.52	3254.22
851.69	3606.47
851.86	2944.98
852.03	2897.88
852.20	3506.12
852.37	3295.18
852.53	2783.19
852.70	2852.82
852.87	3270.61
853.04	3385.29
853.21	2951.12
853.38	3168.21
853.55	3540.94
853.72	3471.31
853.89	2813.91
854.05	2885.59
854.22	3223.50
854.39	3174.35
854.56	2875.35
854.73	3094.48
854.90	3112.91
855.07	3182.54
855.23	2828.24
855.40	2820.05
855.57	3284.94
855.74	2832.34
855.91	3063.76
856.08	2768.85
856.25	3037.14
856.41	3135.44
856.58	2873.30
856.75	2951.12
856.92	3049.43
857.09	3461.07
857.26	2729.94
857.42	2932.69
857.59	3420.11
857.76	3114.96
857.93	2938.84
858.10	3065.81
858.27	3002.32
858.43	3293.13
858.60	2861.01
858.77	2850.77
858.94	3145.68
859.11	3471.31
859.27	3055.57
859.44	2805.72
859.61	3704.78
859.78	3434.44
859.95	2910.16
860.12	2846.68
860.28	3739.59
860.45	3581.90
860.62	2881.49
860.79	3024.85
860.95	3248.08
861.12	3123.15
861.29	2844.63
861.46	2883.54
861.63	3307.47
861.79	3325.90
861.96	2701.27
862.13	2887.64
862.30	3647.43
862.47	3045.33
862.63	2779.09
862.80	2965.46
862.97	3479.50
863.14	3299.28
863.30	2961.36
863.47	2858.96
863.64	3557.32
863.81	3348.43
863.97	2770.90
864.14	2891.73
864.31	3194.83
864.48	3340.24
864.65	2836.44
864.81	3010.51
864.98	3403.72
865.15	3510.22
865.32	3000.27
865.48	3043.28
865.65	3565.51
865.82	3262.41
865.98	2961.36
866.15	2953.17
866.32	3188.69
866.49	3248.08
866.65	3106.77
866.82	2979.79
866.99	3266.51
867.16	3209.17
867.32	2918.36
867.49	2805.72
867.66	3153.87
867.83	3117.01
867.99	2828.24
868.16	2940.88
868.33	2996.18
868.49	3264.46
868.66	2891.73
868.83	3024.85
868.99	3233.74
869.16	3274.70
869.33	3049.43
869.50	2928.60
869.66	3209.17
869.83	3297.23
870.00	2885.59
870.16	3114.96
870.33	3237.84
870.50	3387.34
870.66	2949.08
870.83	2914.26
871.00	3278.80
871.17	3401.68
871.33	3006.42
871.50	2852.82
871.67	3227.60
871.83	3184.59
872.00	3092.43
872.17	2908.12
872.33	3635.14
872.50	3495.88
872.67	2861.01
872.83	2914.26
873.00	3424.20
873.17	3280.85
873.33	3012.56
873.50	3000.27
873.67	3104.72
873.83	3053.52
874.00	2947.03
874.16	2979.79
874.33	3340.24
874.50	3067.86
874.66	2844.63
874.83	3129.30
875.00	3418.06
875.16	3459.02
875.33	2994.13
875.50	2656.22
875.66	3119.06
875.83	3274.70
875.99	2969.55
876.16	3047.38
876.33	3114.96
876.49	3182.54
876.66	2987.99
876.83	2971.60
876.99	2912.21
877.16	3207.12
877.32	2893.78
877.49	3067.86
877.66	3381.20
877.82	3561.42
877.99	2963.41
878.15	3231.69
878.32	3311.57
878.49	3319.76
878.65	2990.03
878.82	3141.58
878.98	3123.15
879.15	3416.01
879.32	3137.49
879.48	3196.88
879.65	3219.41
879.81	3248.08
879.98	2920.40
880.15	3000.27
880.31	3463.12
880.48	2977.75
880.64	2971.60
880.81	3026.90
880.97	3665.86
881.14	3504.07
881.31	2832.34
881.47	3117.01
881.64	3256.27
881.80	2881.49
881.97	3110.86
882.13	2953.17
882.30	3041.23
882.47	3069.91
882.63	2918.36
882.80	2848.72
882.96	3256.27
883.13	3405.77
883.29	2938.84
883.46	2895.83
883.62	3737.54
883.79	3213.26
883.95	3131.34
884.12	2916.31
884.29	3454.92
884.45	3282.89
884.62	3012.56
884.78	2828.24
884.95	3604.42
885.11	3014.61
885.28	3119.06
885.44	2936.79
885.61	3364.81
885.77	3510.22
885.94	2981.84
886.10	3035.09
886.27	3260.37
886.43	3616.71
886.60	3065.81
886.76	2910.16
886.93	3076.05
887.09	3303.37
887.26	2858.96
887.42	3063.76
887.59	3360.72
887.75	3733.45
887.92	3102.67
888.08	3045.33
888.25	3575.75
888.41	3477.45
888.58	3014.61
888.74	2832.34
888.91	3262.41
>>>>>End Processed Spectral Data<<<<<
