SpectraSuite Data File
++++++++++++++++++++++++++++++++++++
Date: Fri May 06 08:14:21 CEST 2016
User: root
Dark Spectrum Present: No
Reference Spectrum Present: No
Number of Sampled Component Spectra: 1
Spectrometers: USB4C02835
Integration Time (usec): 100000 (USB4C02835)
Spectra Averaged: 1 (USB4C02835)
Boxcar Smoothing: 0 (USB4C02835)
Correct for Electrical Dark: No (USB4C02835)
Strobe/Lamp Enabled: No (USB4C02835)
Correct for Detector Non-linearity: No (USB4C02835)
Correct for Stray Light: No (USB4C02835)
Number of Pixels in Processed Spectrum: 3648
>>>>>Begin Processed Spectral Data<<<<<
177.47	2197.47
177.69	2197.47
177.91	2197.47
178.13	2324.44
178.36	2265.05
178.58	3006.42
178.80	3094.48
179.02	2955.22
179.24	3028.95
179.46	2779.09
179.68	2777.05
179.90	3176.40
180.13	3241.93
180.35	2621.40
180.57	2731.99
180.79	3381.20
181.01	3205.07
181.23	2852.82
181.45	3008.47
181.67	3389.39
181.90	3432.40
182.12	2863.06
182.34	2656.22
182.56	3366.86
182.78	3352.52
183.00	2813.91
183.22	2940.88
183.44	2967.51
183.66	3852.23
183.89	3008.47
184.11	2924.50
184.33	3502.03
184.55	3479.50
184.77	2906.07
184.99	2836.44
185.21	3172.30
185.43	3801.03
185.65	2906.07
185.87	2781.14
186.10	3772.36
186.32	3807.17
186.54	3014.61
186.76	2899.92
186.98	3448.78
187.20	3305.42
187.42	2867.16
187.64	2826.20
187.86	3330.00
188.08	3479.50
188.30	2803.67
188.52	2944.98
188.75	3549.13
188.97	3585.99
189.19	2775.00
189.41	2879.44
189.63	3448.78
189.85	3168.21
190.07	2725.85
190.29	2756.57
190.51	3401.68
190.73	2977.75
190.95	3074.00
191.17	2848.72
191.39	2977.75
191.61	3270.61
191.84	2852.82
192.06	3010.51
192.28	3016.66
192.50	3971.01
192.72	3020.75
192.94	3024.85
193.16	3475.40
193.38	3401.68
193.60	2797.53
193.82	3041.23
194.04	3528.65
194.26	3323.85
194.48	2836.44
194.70	2848.72
194.92	3229.65
195.14	3424.20
195.36	2850.77
195.58	2899.92
195.80	3184.59
196.02	3067.86
196.24	2818.00
196.46	2940.88
196.69	3250.13
196.91	3794.89
197.13	2783.19
197.35	2922.45
197.57	3649.48
197.79	3393.48
198.01	2938.84
198.23	2813.91
198.45	3413.96
198.67	3076.05
198.89	2666.46
199.11	3057.62
199.33	3074.00
199.55	2844.63
199.77	2770.90
199.99	3059.67
200.21	3139.54
200.43	3295.18
200.65	2775.00
200.87	2699.22
201.09	3366.86
201.31	3241.93
201.53	2893.78
201.75	2926.55
201.97	3385.29
202.19	3284.94
202.41	2922.45
202.63	3002.32
202.85	3452.88
203.07	3327.95
203.29	2971.60
203.51	2822.10
203.73	3129.30
203.95	3817.41
204.17	2818.00
204.39	3006.42
204.61	3305.42
204.83	3198.93
205.05	3045.33
205.27	2897.88
205.49	3706.82
205.71	3221.45
205.93	2719.70
206.15	2807.77
206.37	3278.80
206.59	3182.54
206.81	2629.59
207.03	2762.71
207.25	3209.17
207.47	3375.05
207.69	2856.92
207.91	3106.77
208.13	3643.34
208.34	3180.50
208.56	2779.09
208.78	2912.21
209.00	3237.84
209.22	3174.35
209.44	2875.35
209.66	2762.71
209.88	3293.13
210.10	3319.76
210.32	2785.24
210.54	2971.60
210.76	3217.36
210.98	3491.79
211.20	2748.37
211.42	3041.23
211.64	3569.61
211.86	3469.26
212.08	2947.03
212.30	2967.51
212.52	3223.50
212.74	3403.72
212.96	2975.70
213.17	2944.98
213.39	3442.64
213.61	3688.39
213.83	2850.77
214.05	2738.13
214.27	3555.27
214.49	3014.61
214.71	2887.64
214.93	3008.47
215.15	3286.99
215.37	3454.92
215.59	2750.42
215.81	2926.55
216.03	3606.47
216.24	3385.29
216.46	2830.29
216.68	2893.78
216.90	3413.96
217.12	3520.46
217.34	2846.68
217.56	3051.47
217.78	3540.94
218.00	3434.44
218.22	3008.47
218.44	2992.08
218.66	3280.85
218.87	3665.86
219.09	2965.46
219.31	2863.06
219.53	3362.76
219.75	3172.30
219.97	2928.60
220.19	2906.07
220.41	3266.51
220.63	3616.71
220.85	2959.31
221.06	2834.39
221.28	3516.36
221.50	3440.59
221.72	2895.83
221.94	2799.57
222.16	3309.52
222.38	3518.41
222.60	2836.44
222.82	2963.41
223.03	3510.22
223.25	3045.33
223.47	2811.86
223.69	3135.44
223.91	3330.00
224.13	3243.98
224.35	2852.82
224.57	3057.62
224.78	3350.48
225.00	2990.03
225.22	2965.46
225.44	2813.91
225.66	3393.48
225.88	3155.92
226.10	2983.89
226.32	2914.26
226.53	3532.75
226.75	3172.30
226.97	2949.08
227.19	2947.03
227.41	3180.50
227.63	3157.97
227.85	2650.07
228.06	2918.36
228.28	3360.72
228.50	3450.83
228.72	2680.79
228.94	2813.91
229.16	3012.56
229.37	3045.33
229.59	2799.57
229.81	3067.86
230.03	3254.22
230.25	3008.47
230.47	2674.65
230.69	2887.64
230.90	3510.22
231.12	3121.10
231.34	2893.78
231.56	2934.74
231.78	3049.43
232.00	3223.50
232.21	2918.36
232.43	2932.69
232.65	2856.92
232.87	3524.55
233.09	2762.71
233.30	2840.53
233.52	3465.16
233.74	3264.46
233.96	2844.63
234.18	3088.34
234.40	3260.37
234.61	3794.89
234.83	2768.85
235.05	2809.81
235.27	3815.37
235.49	3596.23
235.70	2770.90
235.92	2928.60
236.14	3416.01
236.36	3731.40
236.58	2734.04
236.79	2992.08
237.01	3213.26
237.23	3180.50
237.45	3067.86
237.67	2914.26
237.88	3428.30
238.10	3682.25
238.32	2781.14
238.54	2846.68
238.76	3344.33
238.97	3108.82
239.19	2682.84
239.41	2891.73
239.63	3520.46
239.85	3145.68
240.06	2940.88
240.28	2856.92
240.50	3491.79
240.72	3350.48
240.93	2807.77
241.15	2979.79
241.37	3258.32
241.59	3590.09
241.81	2912.21
242.02	2949.08
242.24	3387.34
242.46	3469.26
242.68	2682.84
242.89	2781.14
243.11	3436.49
243.33	3209.17
243.55	2910.16
243.76	2793.43
243.98	3160.02
244.20	3291.09
244.42	2811.86
244.64	2871.25
244.85	3006.42
245.07	3133.39
245.29	2867.16
245.51	2949.08
245.72	3332.05
245.94	3352.52
246.16	2777.05
246.38	2904.02
246.59	3121.10
246.81	3164.11
247.03	2803.67
247.24	2750.42
247.46	3190.74
247.68	3313.61
247.90	2787.29
248.11	2904.02
248.33	3475.40
248.55	3260.37
248.77	2883.54
248.98	2963.41
249.20	3491.79
249.42	3340.24
249.64	2854.87
249.85	2762.71
250.07	3170.26
250.29	3459.02
250.50	3000.27
250.72	2848.72
250.94	3393.48
251.16	3700.68
251.37	2793.43
251.59	3014.61
251.81	3426.25
252.02	3536.84
252.24	2766.81
252.46	3014.61
252.68	3184.59
252.89	3143.63
253.11	2742.23
253.33	2985.94
253.54	3545.03
253.76	3065.81
253.98	2795.48
254.20	2799.57
254.41	3047.38
254.63	3266.51
254.85	2777.05
255.06	2981.84
255.28	3336.14
255.50	3231.69
255.71	2807.77
255.93	2725.85
256.15	3121.10
256.36	3311.57
256.58	2772.95
256.80	2797.53
257.02	3266.51
257.23	3223.50
257.45	2824.15
257.67	2983.89
257.88	3221.45
258.10	3360.72
258.32	2865.11
258.53	2883.54
258.75	3608.52
258.97	3119.06
259.18	2824.15
259.40	2811.86
259.62	3618.76
259.83	3571.66
260.05	2828.24
260.27	3682.25
260.48	3473.36
260.70	3051.47
260.92	2709.46
261.13	2942.93
261.35	3377.10
261.57	3330.00
261.78	2731.99
262.00	2797.53
262.22	3413.96
262.43	3117.01
262.65	2875.35
262.86	2897.88
263.08	3827.65
263.30	3268.56
263.51	2731.99
263.73	2803.67
263.95	3483.59
264.16	3033.04
264.38	2740.18
264.60	2762.71
264.81	3215.31
265.03	3485.64
265.25	3356.62
265.46	2803.67
265.68	3538.89
265.89	3436.49
266.11	2803.67
266.33	2824.15
266.54	3497.93
266.76	3358.67
266.98	2977.75
267.19	3049.43
267.41	3565.51
267.62	3227.60
267.84	2691.03
268.06	2977.75
268.27	3237.84
268.49	3497.93
268.70	2914.26
268.92	2879.44
269.14	3104.72
269.35	3053.52
269.57	2955.22
269.79	2996.18
270.00	3178.45
270.22	3592.14
270.43	2822.10
270.65	2607.06
270.87	3286.99
271.08	3497.93
271.30	3026.90
271.51	2852.82
271.73	3362.76
271.95	3590.09
272.16	2729.94
272.38	2992.08
272.59	3186.64
272.81	3393.48
273.02	2801.62
273.24	2930.64
273.46	3516.36
273.67	3090.38
273.89	2729.94
274.10	2906.07
274.32	3473.36
274.54	3289.04
274.75	2867.16
274.97	2979.79
275.18	3420.11
275.40	3407.82
275.61	2852.82
275.83	3043.28
276.05	3067.86
276.26	3330.00
276.48	2965.46
276.69	3002.32
276.91	3147.73
277.12	3626.95
277.34	3069.91
277.55	3172.30
277.77	3377.10
277.99	3135.44
278.20	3016.66
278.42	2920.40
278.63	3069.91
278.85	3059.67
279.06	2961.36
279.28	3067.86
279.49	3475.40
279.71	3497.93
279.93	3028.95
280.14	3006.42
280.36	3071.95
280.57	3538.89
280.79	2949.08
281.00	2867.16
281.22	3131.34
281.43	3409.87
281.65	2768.85
281.86	2877.40
282.08	3393.48
282.29	3721.16
282.51	2889.68
282.73	2883.54
282.94	3010.51
283.16	3502.03
283.37	3117.01
283.59	2983.89
283.80	3368.91
284.02	3229.65
284.23	2983.89
284.45	3012.56
284.66	3166.16
284.88	3153.87
285.09	2910.16
285.31	3123.15
285.52	3368.91
285.74	2985.94
285.95	3168.21
286.17	2959.31
286.38	3510.22
286.60	3231.69
286.81	2912.21
287.03	2942.93
287.24	3215.31
287.46	3319.76
287.67	3155.92
287.89	3209.17
288.10	3299.28
288.32	3356.62
288.53	3141.58
288.75	3041.23
288.96	3477.45
289.18	3121.10
289.39	2947.03
289.61	3026.90
289.82	3710.92
290.04	3676.10
290.25	2867.16
290.47	3057.62
290.68	3225.55
290.90	3387.34
291.11	2785.24
291.33	3119.06
291.54	3174.35
291.76	3194.83
291.97	3155.92
292.18	3088.34
292.40	3188.69
292.61	3157.97
292.83	3219.41
293.04	3002.32
293.26	3311.57
293.47	3256.27
293.69	2901.97
293.90	2901.97
294.12	3672.01
294.33	3250.13
294.55	3114.96
294.76	3133.39
294.97	3577.80
295.19	3682.25
295.40	3061.71
295.62	3045.33
295.83	3426.25
296.05	3176.40
296.26	3221.45
296.48	2899.92
296.69	3252.17
296.90	3260.37
297.12	3192.78
297.33	3151.82
297.55	3295.18
297.76	3389.39
297.98	3055.57
298.19	3213.26
298.41	3215.31
298.62	3086.29
298.83	3190.74
299.05	3030.99
299.26	3180.50
299.48	3162.06
299.69	3102.67
299.90	2934.74
300.12	3098.58
300.33	3395.53
300.55	3022.80
300.76	3035.09
300.98	3059.67
301.19	3356.62
301.40	2944.98
301.62	2963.41
301.83	3350.48
302.05	3381.20
302.26	3006.42
302.47	3166.16
302.69	3053.52
302.90	3223.50
303.12	2758.61
303.33	3213.26
303.54	3719.11
303.76	3049.43
303.97	2916.31
304.19	3194.83
304.40	3153.87
304.61	3246.03
304.83	3033.04
305.04	3045.33
305.26	3463.12
305.47	3192.78
305.68	2967.51
305.90	2926.55
306.11	3499.98
306.33	3223.50
306.54	2750.42
306.75	2985.94
306.97	2987.99
307.18	3055.57
307.39	3094.48
307.61	3178.45
307.82	3278.80
308.04	3393.48
308.25	2867.16
308.46	3088.34
308.68	3317.71
308.89	3241.93
309.10	3133.39
309.32	3018.71
309.53	3315.66
309.74	3489.74
309.96	2813.91
310.17	3110.86
310.39	3254.22
310.60	3434.44
310.81	3086.29
311.03	2967.51
311.24	3497.93
311.45	3307.47
311.67	3246.03
311.88	3012.56
312.09	3227.60
312.31	3166.16
312.52	2854.87
312.73	2899.92
312.95	3053.52
313.16	3055.57
313.37	3123.15
313.59	3127.25
313.80	3442.64
314.01	3594.19
314.23	3002.32
314.44	2899.92
314.65	3022.80
314.87	3114.96
315.08	3018.71
315.29	3014.61
315.51	3086.29
315.72	2975.70
315.93	3049.43
316.15	2987.99
316.36	3233.74
316.57	3246.03
316.79	2994.13
317.00	2992.08
317.21	3409.87
317.43	3164.11
317.64	3012.56
317.85	2885.59
318.07	3121.10
318.28	3190.74
318.49	3112.91
318.70	3215.31
318.92	3346.38
319.13	3383.24
319.34	3074.00
319.56	3059.67
319.77	3411.92
319.98	3434.44
320.20	3325.90
320.41	3141.58
320.62	3387.34
320.83	3037.14
321.05	3188.69
321.26	3057.62
321.47	3377.10
321.69	3491.79
321.90	2848.72
322.11	2885.59
322.32	3354.57
322.54	3618.76
322.75	3020.75
322.96	4059.07
323.18	2959.31
323.39	2928.60
323.60	2885.59
323.81	3047.38
324.03	3155.92
324.24	3235.79
324.45	3104.72
324.66	2963.41
324.88	3485.64
325.09	3588.04
325.30	3002.32
325.52	2893.78
325.73	3393.48
325.94	3041.23
326.15	2938.84
326.37	2942.93
326.58	3456.97
326.79	3635.14
327.00	2951.12
327.22	3016.66
327.43	3194.83
327.64	3026.90
327.85	3135.44
328.07	3067.86
328.28	3661.77
328.49	3188.69
328.70	3035.09
328.92	3008.47
329.13	3254.22
329.34	3373.00
329.55	3278.80
329.76	3139.54
329.98	3239.89
330.19	3520.46
330.40	3071.95
330.61	3162.06
330.83	3436.49
331.04	3047.38
331.25	3100.62
331.46	3033.04
331.68	3092.43
331.89	3428.30
332.10	2979.79
332.31	2885.59
332.52	3258.32
332.74	3465.16
332.95	2772.95
333.16	3063.76
333.37	3321.81
333.58	3170.26
333.80	2957.27
334.01	2856.92
334.22	3256.27
334.43	3184.59
334.64	2934.74
334.86	2959.31
335.07	3086.29
335.28	3510.22
335.49	2844.63
335.70	3059.67
335.92	3653.58
336.13	3809.22
336.34	3022.80
336.55	2959.31
336.76	3299.28
336.98	2887.64
337.19	3057.62
337.40	3117.01
337.61	3792.84
337.82	3221.45
338.04	3100.62
338.25	2904.02
338.46	3227.60
338.67	3172.30
338.88	2883.54
339.09	2947.03
339.31	3137.49
339.52	3065.81
339.73	2998.23
339.94	3071.95
340.15	3354.57
340.36	3106.77
340.58	3098.58
340.79	2901.97
341.00	3377.10
341.21	3049.43
341.42	3319.76
341.63	3074.00
341.85	3411.92
342.06	3284.94
342.27	2920.40
342.48	3133.39
342.69	3014.61
342.90	3375.05
343.12	3350.48
343.33	2947.03
343.54	3526.60
343.75	3549.13
343.96	3133.39
344.17	2914.26
344.38	3225.55
344.60	3035.09
344.81	3045.33
345.02	3010.51
345.23	3510.22
345.44	3868.61
345.65	3114.96
345.86	3065.81
346.07	3420.11
346.29	3180.50
346.50	3123.15
346.71	3002.32
346.92	3569.61
347.13	3649.48
347.34	3028.95
347.55	2922.45
347.76	3459.02
347.98	2973.65
348.19	3086.29
348.40	3207.12
348.61	3162.06
348.82	3557.32
349.03	3049.43
349.24	2994.13
349.45	3622.86
349.66	2803.67
349.88	2981.84
350.09	2971.60
350.30	3549.13
350.51	3459.02
350.72	3151.82
350.93	3055.57
351.14	3225.55
351.35	3344.33
351.56	3053.52
351.77	3076.05
351.99	3385.29
352.20	3631.05
352.41	3110.86
352.62	2871.25
352.83	3188.69
353.04	3319.76
353.25	2971.60
353.46	3080.14
353.67	3448.78
353.88	2965.46
354.09	2926.55
354.30	3071.95
354.52	3444.68
354.73	3227.60
354.94	2944.98
355.15	3074.00
355.36	3598.28
355.57	3188.69
355.78	2994.13
355.99	2930.64
356.20	3289.04
356.41	3452.88
356.62	3098.58
356.83	3022.80
357.04	3553.23
357.25	2951.12
357.46	3026.90
357.68	2879.44
357.89	3119.06
358.10	3280.85
358.31	3006.42
358.52	2985.94
358.73	3094.48
358.94	3164.11
359.15	2969.55
359.36	3141.58
359.57	3250.13
359.78	3246.03
359.99	3178.45
360.20	2887.64
360.41	3209.17
360.62	3522.51
360.83	3045.33
361.04	3090.38
361.25	3276.75
361.46	3651.53
361.67	3119.06
361.88	2987.99
362.09	3516.36
362.30	3373.00
362.51	2936.79
362.72	3114.96
362.93	3395.53
363.14	3375.05
363.35	3143.63
363.56	2932.69
363.78	3422.16
363.99	3506.12
364.20	3014.61
364.41	3080.14
364.62	3659.72
364.83	3260.37
365.04	3022.80
365.25	2996.18
365.46	3721.16
365.67	3246.03
365.88	3180.50
366.09	2928.60
366.30	3225.55
366.51	3223.50
366.72	2924.50
366.93	2938.84
367.14	3344.33
367.35	3491.79
367.56	2947.03
367.77	3153.87
367.98	3307.47
368.18	3332.05
368.39	3094.48
368.60	3012.56
368.81	3459.02
369.02	3370.96
369.23	3053.52
369.44	2815.96
369.65	3198.93
369.86	3321.81
370.07	3100.62
370.28	2871.25
370.49	3416.01
370.70	3334.09
370.91	2971.60
371.12	2852.82
371.33	3506.12
371.54	3139.54
371.75	3123.15
371.96	2709.46
372.17	3305.42
372.38	3286.99
372.59	2985.94
372.80	2924.50
373.01	3215.31
373.22	3321.81
373.43	3035.09
373.64	2959.31
373.85	3540.94
374.06	3567.56
374.26	3149.78
374.47	3155.92
374.68	3555.27
374.89	3332.05
375.10	2967.51
375.31	3225.55
375.52	3330.00
375.73	3284.94
375.94	2885.59
376.15	3059.67
376.36	3155.92
376.57	3112.91
376.78	3004.37
376.99	3102.67
377.20	3467.21
377.40	3235.79
377.61	3278.80
377.82	2987.99
378.03	3702.73
378.24	3364.81
378.45	3039.19
378.66	3057.62
378.87	2973.65
379.08	2942.93
379.29	2983.89
379.50	3147.73
379.71	3227.60
379.91	3430.35
380.12	3030.99
380.33	3100.62
380.54	3219.41
380.75	3252.17
380.96	3041.23
381.17	3000.27
381.38	3311.57
381.59	3323.85
381.80	3112.91
382.00	3196.88
382.21	3340.24
382.42	3661.77
382.63	3418.06
382.84	3194.83
383.05	3409.87
383.26	3473.36
383.47	3139.54
383.68	2955.22
383.88	3381.20
384.09	3297.23
384.30	3262.41
384.51	3102.67
384.72	3254.22
384.93	3041.23
385.14	3114.96
385.35	3321.81
385.55	3012.56
385.76	3502.03
385.97	3117.01
386.18	2912.21
386.39	3071.95
386.60	3190.74
386.81	3049.43
387.02	2955.22
387.22	3059.67
387.43	3364.81
387.64	3059.67
387.85	3315.66
388.06	3352.52
388.27	4376.51
388.48	7862.15
388.68	12154.69
388.89	15337.24
389.10	16557.83
389.31	16140.04
389.52	13072.18
389.73	11202.39
389.93	10286.95
390.14	9234.29
390.35	8478.59
390.56	8001.41
390.77	6598.56
390.98	4999.09
391.18	4110.27
391.39	3848.13
391.60	3346.38
391.81	3313.61
392.02	3088.34
392.23	3760.07
392.43	3334.09
392.64	3133.39
392.85	3114.96
393.06	3645.38
393.27	3258.32
393.47	2971.60
393.68	3133.39
393.89	3227.60
394.10	3516.36
394.31	2998.23
394.52	2961.36
394.72	3198.93
394.93	3577.80
395.14	2971.60
395.35	3114.96
395.56	3117.01
395.76	3239.89
395.97	2975.70
396.18	3172.30
396.39	3327.95
396.60	3911.62
396.80	3330.00
397.01	3205.07
397.22	3436.49
397.43	3475.40
397.64	3084.24
397.84	3135.44
398.05	3649.48
398.26	3254.22
398.47	3190.74
398.67	3262.41
398.88	3256.27
399.09	3426.25
399.30	2990.03
399.51	3033.04
399.71	3090.38
399.92	3235.79
400.13	3147.73
400.34	2967.51
400.54	3321.81
400.75	3502.03
400.96	3221.45
401.17	3379.15
401.37	3360.72
401.58	3164.11
401.79	3016.66
402.00	3207.12
402.21	3915.72
402.41	3461.07
402.62	3377.10
402.83	3477.45
403.04	3717.06
403.24	4026.31
403.45	3239.89
403.66	3473.36
403.87	3516.36
404.07	3778.50
404.28	3313.61
404.49	3358.67
404.70	3336.14
404.90	3434.44
405.11	3010.51
405.32	3119.06
405.52	3088.34
405.73	3123.15
405.94	2961.36
406.15	3100.62
406.35	3448.78
406.56	3491.79
406.77	3125.20
406.98	3049.43
407.18	3084.24
407.39	3588.04
407.60	3055.57
407.80	3145.68
408.01	3164.11
408.22	3393.48
408.43	2922.45
408.63	3121.10
408.84	3373.00
409.05	3532.75
409.25	2951.12
409.46	3020.75
409.67	3264.46
409.88	3237.84
410.08	3114.96
410.29	3028.95
410.50	3442.64
410.70	3385.29
410.91	3024.85
411.12	3063.76
411.32	3266.51
411.53	3106.77
411.74	3067.86
411.95	3133.39
412.15	3284.94
412.36	3430.35
412.57	3198.93
412.77	3250.13
412.98	3305.42
413.19	3155.92
413.39	3114.96
413.60	3012.56
413.81	3614.66
414.01	3114.96
414.22	3125.20
414.43	3289.04
414.63	3237.84
414.84	3434.44
415.05	3141.58
415.25	2879.44
415.46	3428.30
415.67	3246.03
415.87	3102.67
416.08	3114.96
416.29	3203.02
416.49	3399.63
416.70	2992.08
416.91	3041.23
417.11	3336.14
417.32	3532.75
417.53	3182.54
417.73	3174.35
417.94	3262.41
418.15	3258.32
418.35	3112.91
418.56	3112.91
418.77	3782.60
418.97	3270.61
419.18	3180.50
419.38	2781.14
419.59	3334.09
419.80	3561.42
420.00	2969.55
420.21	3028.95
420.42	3506.12
420.62	3278.80
420.83	3047.38
421.04	3041.23
421.24	3254.22
421.45	3467.21
421.65	3053.52
421.86	3078.10
422.07	3489.74
422.27	3346.38
422.48	2881.49
422.69	2840.53
422.89	3248.08
423.10	3170.26
423.30	3016.66
423.51	3063.76
423.72	3422.16
423.92	3393.48
424.13	3049.43
424.33	3139.54
424.54	3432.40
424.75	3266.51
424.95	3356.62
425.16	2983.89
425.36	3235.79
425.57	3450.83
425.78	3180.50
425.98	3133.39
426.19	3198.93
426.39	3129.30
426.60	3147.73
426.81	3131.34
427.01	3368.91
427.22	3149.78
427.42	2901.97
427.63	3000.27
427.83	3495.88
428.04	3674.06
428.25	3123.15
428.45	3108.82
428.66	3512.27
428.86	3258.32
429.07	3117.01
429.28	3037.14
429.48	3188.69
429.69	3147.73
429.89	3176.40
430.10	2953.17
430.30	3418.06
430.51	3454.92
430.71	2938.84
430.92	3149.78
431.13	3170.26
431.33	3368.91
431.54	3182.54
431.74	3252.17
431.95	3725.26
432.15	3104.72
432.36	3020.75
432.56	3078.10
432.77	3626.95
432.98	3594.19
433.18	3188.69
433.39	2922.45
433.59	3270.61
433.80	3727.30
434.00	3256.27
434.21	3141.58
434.41	3123.15
434.62	3729.35
434.82	2944.98
435.03	2977.75
435.23	3438.54
435.44	2967.51
435.64	3030.99
435.85	3137.49
436.06	3516.36
436.26	3456.97
436.47	3002.32
436.67	2967.51
436.88	3266.51
437.08	3485.64
437.29	3192.78
437.49	3121.10
437.70	3536.84
437.90	3305.42
438.11	3178.45
438.31	3176.40
438.52	3553.23
438.72	3477.45
438.93	3497.93
439.13	3217.36
439.34	3448.78
439.54	3174.35
439.75	3239.89
439.95	3112.91
440.16	3074.00
440.36	3254.22
440.57	3039.19
440.77	3065.81
440.98	3215.31
441.18	3446.73
441.39	2906.07
441.59	3004.37
441.80	3753.93
442.00	3258.32
442.21	3129.30
442.41	3012.56
442.62	3461.07
442.82	3192.78
443.02	3035.09
443.23	3147.73
443.43	3153.87
443.64	3450.83
443.84	2922.45
444.05	3129.30
444.25	3389.39
444.46	3196.88
444.66	3063.76
444.87	3276.75
445.07	2897.88
445.28	3147.73
445.48	3270.61
445.69	3108.82
445.89	3852.23
446.09	3164.11
446.30	3389.39
446.50	3532.75
446.71	5033.91
446.91	6373.28
447.12	6967.19
447.32	7661.45
447.53	7632.78
447.73	6416.29
447.93	5603.24
448.14	5343.15
448.34	5441.45
448.55	4476.86
448.75	4454.33
448.96	4151.23
449.16	4106.18
449.36	3954.63
449.57	3307.47
449.77	3104.72
449.98	3207.12
450.18	3370.96
450.39	3022.80
450.59	3368.91
450.79	3258.32
451.00	3135.44
451.20	3256.27
451.41	3049.43
451.61	3364.81
451.81	3284.94
452.02	2940.88
452.22	3053.52
452.43	3139.54
452.63	3139.54
452.84	3127.25
453.04	2975.70
453.24	3221.45
453.45	3137.49
453.65	3045.33
453.86	3059.67
454.06	3362.76
454.26	3317.71
454.47	3051.47
454.67	3260.37
454.87	3364.81
455.08	3252.17
455.28	3241.93
455.49	3188.69
455.69	3133.39
455.89	3794.89
456.10	3166.16
456.30	3082.19
456.51	3434.44
456.71	3370.96
456.91	3133.39
457.12	3065.81
457.32	3299.28
457.52	3088.34
457.73	3256.27
457.93	3254.22
458.14	3160.02
458.34	2895.83
458.54	3102.67
458.75	3016.66
458.95	3555.27
459.15	3438.54
459.36	3071.95
459.56	3088.34
459.76	3747.78
459.97	3401.68
460.17	3076.05
460.37	3086.29
460.58	3270.61
460.78	3377.10
460.99	3168.21
461.19	3008.47
461.39	3194.83
461.60	3243.98
461.80	3135.44
462.00	2934.74
462.21	3268.56
462.41	3170.26
462.61	2914.26
462.82	2889.68
463.02	3360.72
463.22	3313.61
463.43	3166.16
463.63	2992.08
463.83	3483.59
464.04	3346.38
464.24	3016.66
464.44	2992.08
464.64	3307.47
464.85	3428.30
465.05	3057.62
465.25	2897.88
465.46	3205.07
465.66	3430.35
465.86	3153.87
466.07	2930.64
466.27	3246.03
466.47	2994.13
466.68	2854.87
466.88	3219.41
467.08	3434.44
467.29	3510.22
467.49	3074.00
467.69	3117.01
467.89	3375.05
468.10	3184.59
468.30	3131.34
468.50	3176.40
468.71	3407.82
468.91	2983.89
469.11	3215.31
469.31	3106.77
469.52	3074.00
469.72	3663.82
469.92	3303.37
470.13	3129.30
470.33	3166.16
470.53	3311.57
470.73	3463.12
470.94	3913.67
471.14	4151.23
471.34	4757.43
471.54	4372.41
471.75	4061.12
471.95	3823.56
472.15	3801.03
472.36	3704.78
472.56	3559.37
472.76	3825.61
472.96	3807.17
473.17	3368.91
473.37	3229.65
473.57	3278.80
473.77	3381.20
473.98	3172.30
474.18	2895.83
474.38	4018.11
474.58	3270.61
474.79	3039.19
474.99	3129.30
475.19	3469.26
475.39	3039.19
475.60	3209.17
475.80	3037.14
476.00	3471.31
476.20	3231.69
476.41	3102.67
476.61	3172.30
476.81	3565.51
477.01	3125.20
477.21	3332.05
477.42	3157.97
477.62	3108.82
477.82	3368.91
478.02	3012.56
478.23	3059.67
478.43	3100.62
478.63	3237.84
478.83	3071.95
479.03	3170.26
479.24	3577.80
479.44	3786.69
479.64	2961.36
479.84	2869.20
480.04	3131.34
480.25	3428.30
480.45	3033.04
480.65	3063.76
480.85	3649.48
481.06	3147.73
481.26	3139.54
481.46	3059.67
481.66	3383.24
481.86	3131.34
482.06	3205.07
482.27	3129.30
482.47	3289.04
482.67	3434.44
482.87	3106.77
483.07	3008.47
483.28	3149.78
483.48	3028.95
483.68	2971.60
483.88	2928.60
484.08	2863.06
484.29	3010.51
484.49	3112.91
484.69	2856.92
484.89	3559.37
485.09	3407.82
485.29	3102.67
485.50	3147.73
485.70	3182.54
485.90	3524.55
486.10	3067.86
486.30	2979.79
486.50	3471.31
486.71	3338.19
486.91	3096.53
487.11	3205.07
487.31	2996.18
487.51	3442.64
487.71	2985.94
487.91	3026.90
488.12	3030.99
488.32	2824.15
488.52	3127.25
488.72	2848.72
488.92	3299.28
489.12	3583.95
489.32	3135.44
489.53	3090.38
489.73	3049.43
489.93	3536.84
490.13	3039.19
490.33	2916.31
490.53	3350.48
490.73	3479.50
490.94	2922.45
491.14	3170.26
491.34	3401.68
491.54	3387.34
491.74	3991.49
491.94	4521.92
492.14	5097.39
492.34	5224.37
492.54	4720.57
492.75	4071.36
492.95	4382.65
493.15	4153.28
493.35	3794.89
493.55	3745.73
493.75	3719.11
493.95	3831.75
494.15	3340.24
494.35	3205.07
494.56	3311.57
494.76	3133.39
494.96	3221.45
495.16	3006.42
495.36	3282.89
495.56	3303.37
495.76	3160.02
495.96	3057.62
496.16	3160.02
496.36	3721.16
496.56	2985.94
496.77	3092.43
496.97	3254.22
497.17	3598.28
497.37	2869.20
497.57	3133.39
497.77	3325.90
497.97	3123.15
498.17	3102.67
498.37	3053.52
498.57	3364.81
498.77	3194.83
498.97	3184.59
499.17	3405.77
499.38	3246.03
499.58	3368.91
499.78	3262.41
499.98	3198.93
500.18	3209.17
500.38	3106.77
500.58	3239.89
500.78	3770.31
500.98	6297.50
501.18	8374.14
501.38	9824.11
501.58	10876.76
501.78	10731.36
501.98	8947.58
502.18	7559.05
502.38	6535.07
502.58	6348.70
502.78	5820.33
502.98	5318.57
503.18	5347.25
503.38	4927.41
503.59	4272.06
503.79	4018.11
503.99	3745.73
504.19	3909.57
504.39	3946.44
504.59	3725.26
504.79	3651.53
504.99	3934.15
505.19	3577.80
505.39	3274.70
505.59	3452.88
505.79	3694.54
505.99	3471.31
506.19	3102.67
506.39	3327.95
506.59	3215.31
506.79	3223.50
506.99	3229.65
507.19	2947.03
507.39	3286.99
507.59	2992.08
507.79	3000.27
507.99	3071.95
508.19	3450.83
508.39	3121.10
508.59	3143.63
508.79	3160.02
508.99	3643.34
509.19	3155.92
509.39	3061.71
509.59	2920.40
509.79	3137.49
509.99	3348.43
510.19	3153.87
510.39	3192.78
510.59	3319.76
510.79	3166.16
510.99	2861.01
511.19	2977.75
511.39	3545.03
511.59	3467.21
511.79	3235.79
511.99	3061.71
512.19	3561.42
512.38	3280.85
512.58	3000.27
512.78	2963.41
512.98	3516.36
513.18	3643.34
513.38	2973.65
513.58	3098.58
513.78	3196.88
513.98	3176.40
514.18	3125.20
514.38	3106.77
514.58	3221.45
514.78	3188.69
514.98	2973.65
515.18	3074.00
515.38	3055.57
515.58	3608.52
515.78	3039.19
515.98	3076.05
516.18	3393.48
516.38	3215.31
516.57	3041.23
516.77	3094.48
516.97	3395.53
517.17	3168.21
517.37	2779.09
517.57	3125.20
517.77	3235.79
517.97	3104.72
518.17	3092.43
518.37	2953.17
518.57	3098.58
518.77	3221.45
518.97	3164.11
519.16	3076.05
519.36	3530.70
519.56	3168.21
519.76	2979.79
519.96	3090.38
520.16	3588.04
520.36	3080.14
520.56	3221.45
520.76	3012.56
520.96	3299.28
521.16	3434.44
521.35	3293.13
521.55	3213.26
521.75	3330.00
521.95	3117.01
522.15	3000.27
522.35	2957.27
522.55	3141.58
522.75	3532.75
522.95	2967.51
523.14	2940.88
523.34	3258.32
523.54	3147.73
523.74	3164.11
523.94	3131.34
524.14	2977.75
524.34	3332.05
524.54	3221.45
524.73	3098.58
524.93	3397.58
525.13	3336.14
525.33	3010.51
525.53	3319.76
525.73	3438.54
525.93	3323.85
526.13	3108.82
526.32	3000.27
526.52	3514.31
526.72	3434.44
526.92	3164.11
527.12	3024.85
527.32	2979.79
527.52	3399.63
527.71	3045.33
527.91	3127.25
528.11	3133.39
528.31	3272.65
528.51	3078.10
528.71	3155.92
528.90	3297.23
529.10	3454.92
529.30	3139.54
529.50	2799.57
529.70	3413.96
529.90	3190.74
530.09	3033.04
530.29	2963.41
530.49	3100.62
530.69	3887.04
530.89	3184.59
531.09	3153.87
531.28	3141.58
531.48	3565.51
531.68	3086.29
531.88	3135.44
532.08	3401.68
532.28	3276.75
532.47	3180.50
532.67	3194.83
532.87	3280.85
533.07	3155.92
533.27	3139.54
533.46	3090.38
533.66	3399.63
533.86	3260.37
534.06	3094.48
534.26	2996.18
534.45	3229.65
534.65	3465.16
534.85	3186.64
535.05	2949.08
535.25	3557.32
535.44	2914.26
535.64	3119.06
535.84	3051.47
536.04	3164.11
536.24	3188.69
536.43	2918.36
536.63	3004.37
536.83	3203.02
537.03	3223.50
537.22	2924.50
537.42	2891.73
537.62	3317.71
537.82	3172.30
538.02	3227.60
538.21	3098.58
538.41	3850.18
538.61	3428.30
538.81	3160.02
539.00	3235.79
539.20	2975.70
539.40	3205.07
539.60	3004.37
539.79	3258.32
539.99	3225.55
540.19	3166.16
540.39	3033.04
540.58	3172.30
540.78	3475.40
540.98	3315.66
541.18	3272.65
541.37	3108.82
541.57	3278.80
541.77	3377.10
541.97	3010.51
542.16	2893.78
542.36	3102.67
542.56	3096.53
542.76	3323.85
542.95	3262.41
543.15	3418.06
543.35	3420.11
543.54	3024.85
543.74	3002.32
543.94	3561.42
544.14	3205.07
544.33	3178.45
544.53	3096.53
544.73	3172.30
544.93	3209.17
545.12	3043.28
545.32	3049.43
545.52	3180.50
545.71	2979.79
545.91	3065.81
546.11	3086.29
546.30	3135.44
546.50	3223.50
546.70	3135.44
546.90	3057.62
547.09	2949.08
547.29	3338.19
547.49	3215.31
547.68	2971.60
547.88	3104.72
548.08	3403.72
548.27	3336.14
548.47	3018.71
548.67	3270.61
548.87	3370.96
549.06	3102.67
549.26	2981.84
549.46	3420.11
549.65	3125.20
549.85	3098.58
550.05	3131.34
550.24	3063.76
550.44	3215.31
550.64	3067.86
550.83	3133.39
551.03	3520.46
551.23	3428.30
551.42	3065.81
551.62	3125.20
551.82	3241.93
552.01	3192.78
552.21	3381.20
552.41	3108.82
552.60	3583.95
552.80	3280.85
553.00	2967.51
553.19	3090.38
553.39	3581.90
553.59	3037.14
553.78	3237.84
553.98	3057.62
554.17	3049.43
554.37	3299.28
554.57	3200.98
554.76	2957.27
554.96	3100.62
555.16	3278.80
555.35	3082.19
555.55	3321.81
555.75	3321.81
555.94	3497.93
556.14	2848.72
556.33	3084.24
556.53	3252.17
556.73	3229.65
556.92	3086.29
557.12	3022.80
557.32	3698.63
557.51	3432.40
557.71	3082.19
557.90	3223.50
558.10	3516.36
558.30	3221.45
558.49	3127.25
558.69	3037.14
558.88	3389.39
559.08	3317.71
559.28	3098.58
559.47	3117.01
559.67	3381.20
559.86	3715.02
560.06	2992.08
560.26	3053.52
560.45	3334.09
560.65	3166.16
560.84	3262.41
561.04	3026.90
561.24	3430.35
561.43	3016.66
561.63	3362.76
561.82	3207.12
562.02	3381.20
562.22	3082.19
562.41	3041.23
562.61	3057.62
562.80	3024.85
563.00	3796.93
563.19	3192.78
563.39	3186.64
563.59	3411.92
563.78	3086.29
563.98	2842.58
564.17	3125.20
564.37	2904.02
564.56	3229.65
564.76	3002.32
564.96	3074.00
565.15	3362.76
565.35	3768.26
565.54	3149.78
565.74	3006.42
565.93	3395.53
566.13	3362.76
566.32	3198.93
566.52	3196.88
566.71	3303.37
566.91	3430.35
567.11	3196.88
567.30	2983.89
567.50	3256.27
567.69	3323.85
567.89	3026.90
568.08	3012.56
568.28	3403.72
568.47	3041.23
568.67	3112.91
568.86	3000.27
569.06	3456.97
569.25	3246.03
569.45	2951.12
569.64	3123.15
569.84	3221.45
570.04	3389.39
570.23	3074.00
570.43	3135.44
570.62	3377.10
570.82	3626.95
571.01	2953.17
571.21	3096.53
571.40	3033.04
571.60	3479.50
571.79	3192.78
571.99	3030.99
572.18	3110.86
572.38	3321.81
572.57	3145.68
572.77	3184.59
572.96	3852.23
573.16	3229.65
573.35	3002.32
573.55	3286.99
573.74	3309.52
573.94	3153.87
574.13	3082.19
574.33	3229.65
574.52	3485.64
574.71	3278.80
574.91	3188.69
575.10	2914.26
575.30	3162.06
575.49	3141.58
575.69	3016.66
575.88	3020.75
576.08	3272.65
576.27	3479.50
576.47	3002.32
576.66	3209.17
576.86	3467.21
577.05	3336.14
577.25	3213.26
577.44	3246.03
577.64	3164.11
577.83	3375.05
578.02	3028.95
578.22	3221.45
578.41	3729.35
578.61	3162.06
578.80	2926.55
579.00	3186.64
579.19	3243.98
579.39	3373.00
579.58	3139.54
579.77	3203.02
579.97	3567.56
580.16	3524.55
580.36	3286.99
580.55	3104.72
580.75	3454.92
580.94	3293.13
581.13	3262.41
581.33	3297.23
581.52	3282.89
581.72	3657.67
581.91	3133.39
582.11	3051.47
582.30	3424.20
582.49	3270.61
582.69	3383.24
582.88	3074.00
583.08	3293.13
583.27	3456.97
583.47	3209.17
583.66	3024.85
583.85	3123.15
584.05	3221.45
584.24	3178.45
584.44	3147.73
584.63	3483.59
584.82	3471.31
585.02	3295.18
585.21	3219.41
585.41	3336.14
585.60	3297.23
585.79	3373.00
585.99	3397.58
586.18	3299.28
586.37	4304.83
586.57	6234.02
586.76	18040.56
586.96	37588.42
587.15	50947.32
587.34	59401.33
587.54	63491.13
587.73	56855.71
587.93	40863.12
588.12	31731.23
588.31	25675.38
588.51	22918.82
588.70	21089.98
588.89	18523.88
589.09	15896.33
589.28	13842.22
589.47	10762.08
589.67	8312.71
589.86	6481.82
590.06	4954.04
590.25	4487.10
590.44	3909.57
590.64	3489.74
590.83	3567.56
591.02	3583.95
591.22	3143.63
591.41	3114.96
591.60	3317.71
591.80	3821.51
591.99	2910.16
592.18	3088.34
592.38	3401.68
592.57	3180.50
592.76	2957.27
592.96	3090.38
593.15	3315.66
593.34	3557.32
593.54	3166.16
593.73	3221.45
593.92	3430.35
594.12	3377.10
594.31	3172.30
594.50	3370.96
594.70	3352.52
594.89	3870.66
595.08	3016.66
595.28	3190.74
595.47	3860.42
595.66	3547.08
595.86	2987.99
596.05	3002.32
596.24	3235.79
596.43	3639.24
596.63	3149.78
596.82	3309.52
597.01	3317.71
597.21	3534.79
597.40	3059.67
597.59	3145.68
597.79	3305.42
597.98	3444.68
598.17	3119.06
598.36	3114.96
598.56	3459.02
598.75	3280.85
598.94	3176.40
599.14	3205.07
599.33	3168.21
599.52	3450.83
599.71	3080.14
599.91	3114.96
600.10	3373.00
600.29	3286.99
600.48	3190.74
600.68	3147.73
600.87	3311.57
601.06	3153.87
601.26	3137.49
601.45	3162.06
601.64	3143.63
601.83	3520.46
602.03	3002.32
602.22	3016.66
602.41	3579.85
602.60	3841.99
602.80	3137.49
602.99	3233.74
603.18	3209.17
603.37	3248.08
603.57	2944.98
603.76	3125.20
603.95	3463.12
604.14	3157.97
604.34	2942.93
604.53	3084.24
604.72	3330.00
604.91	3448.78
605.10	3012.56
605.30	2920.40
605.49	3729.35
605.68	3467.21
605.87	3059.67
606.07	3100.62
606.26	3381.20
606.45	3342.28
606.64	3176.40
606.84	2957.27
607.03	3231.69
607.22	3477.45
607.41	3125.20
607.60	3028.95
607.80	3502.03
607.99	3258.32
608.18	3086.29
608.37	3069.91
608.56	3074.00
608.76	3483.59
608.95	3274.70
609.14	3078.10
609.33	3526.60
609.52	3618.76
609.72	3223.50
609.91	3176.40
610.10	3256.27
610.29	3598.28
610.48	3217.36
610.68	3225.55
610.87	3166.16
611.06	3428.30
611.25	3053.52
611.44	3246.03
611.63	3186.64
611.83	3522.51
612.02	2951.12
612.21	3090.38
612.40	2918.36
612.59	3018.71
612.79	3002.32
612.98	3123.15
613.17	3606.47
613.36	3241.93
613.55	3211.22
613.74	3049.43
613.93	3377.10
614.13	3416.01
614.32	3358.67
614.51	3207.12
614.70	3196.88
614.89	3198.93
615.08	3147.73
615.28	3401.68
615.47	3057.62
615.66	3420.11
615.85	3108.82
616.04	3213.26
616.23	3325.90
616.42	3334.09
616.62	3053.52
616.81	3162.06
617.00	3239.89
617.19	3379.15
617.38	3065.81
617.57	3233.74
617.76	3403.72
617.95	3389.39
618.15	3237.84
618.34	3450.83
618.53	3002.32
618.72	3368.91
618.91	3143.63
619.10	3151.82
619.29	3305.42
619.48	3264.46
619.68	2912.21
619.87	2928.60
620.06	3035.09
620.25	3395.53
620.44	3020.75
620.63	3035.09
620.82	3307.47
621.01	3327.95
621.20	3102.67
621.39	3084.24
621.59	3463.12
621.78	3215.31
621.97	3051.47
622.16	3166.16
622.35	3360.72
622.54	3456.97
622.73	3200.98
622.92	2840.53
623.11	3491.79
623.30	3254.22
623.49	3217.36
623.68	2990.03
623.88	3614.66
624.07	3170.26
624.26	3051.47
624.45	3137.49
624.64	3272.65
624.83	3311.57
625.02	2996.18
625.21	3121.10
625.40	3397.58
625.59	3600.33
625.78	3153.87
625.97	3176.40
626.16	3581.90
626.35	3420.11
626.54	3155.92
626.74	3280.85
626.93	3117.01
627.12	3246.03
627.31	3094.48
627.50	3035.09
627.69	3454.92
627.88	3133.39
628.07	3022.80
628.26	2932.69
628.45	3129.30
628.64	3121.10
628.83	3045.33
629.02	2850.77
629.21	3379.15
629.40	3311.57
629.59	2961.36
629.78	3041.23
629.97	3327.95
630.16	3321.81
630.35	3071.95
630.54	3151.82
630.73	3262.41
630.92	3258.32
631.11	3008.47
631.30	3119.06
631.49	3485.64
631.68	3188.69
631.87	3069.91
632.06	2969.55
632.25	3708.87
632.44	3289.04
632.63	3098.58
632.82	3180.50
633.01	3164.11
633.20	3401.68
633.39	3153.87
633.58	2836.44
633.77	3268.56
633.96	3426.25
634.15	3149.78
634.34	3133.39
634.53	3327.95
634.72	3127.25
634.91	2957.27
635.10	3041.23
635.29	3506.12
635.48	3303.37
635.67	3016.66
635.86	2922.45
636.05	3661.77
636.24	3188.69
636.43	3069.91
636.62	3143.63
636.81	2840.53
637.00	3327.95
637.19	3078.10
637.38	3002.32
637.57	3209.17
637.76	3258.32
637.95	3297.23
638.14	3151.82
638.33	3395.53
638.52	3252.17
638.71	3030.99
638.89	2942.93
639.08	3815.37
639.27	3481.55
639.46	3256.27
639.65	3708.87
639.84	3887.04
640.03	3966.92
640.22	3569.61
640.41	3665.86
640.60	3424.20
640.79	3499.98
640.98	3336.14
641.17	3248.08
641.36	3557.32
641.55	3497.93
641.74	3012.56
641.92	3057.62
642.11	3063.76
642.30	3215.31
642.49	3028.95
642.68	3006.42
642.87	3323.85
643.06	3362.76
643.25	2889.68
643.44	2949.08
643.63	3303.37
643.82	3485.64
644.00	2990.03
644.19	3110.86
644.38	3100.62
644.57	3389.39
644.76	3114.96
644.95	3131.34
645.14	3246.03
645.33	3239.89
645.52	3149.78
645.71	2961.36
645.89	3123.15
646.08	3207.12
646.27	3069.91
646.46	3256.27
646.65	3012.56
646.84	3303.37
647.03	2951.12
647.22	3293.13
647.40	3428.30
647.59	3254.22
647.78	2818.00
647.97	3043.28
648.16	3045.33
648.35	3512.27
648.54	3268.56
648.73	3065.81
648.91	3497.93
649.10	3325.90
649.29	2959.31
649.48	3000.27
649.67	3303.37
649.86	3407.82
650.05	3155.92
650.23	3307.47
650.42	3180.50
650.61	3651.53
650.80	3340.24
650.99	3325.90
651.18	3514.31
651.36	3510.22
651.55	3043.28
651.74	3192.78
651.93	3180.50
652.12	3237.84
652.31	3057.62
652.49	3061.71
652.68	3184.59
652.87	3571.66
653.06	3250.13
653.25	3352.52
653.44	3325.90
653.62	3659.72
653.81	3086.29
654.00	3106.77
654.19	3407.82
654.38	3874.76
654.56	3211.22
654.75	3033.04
654.94	3526.60
655.13	3282.89
655.32	3033.04
655.51	3071.95
655.69	3209.17
655.88	3409.87
656.07	2934.74
656.26	3141.58
656.45	3094.48
656.63	3309.52
656.82	3024.85
657.01	3411.92
657.20	3149.78
657.38	3540.94
657.57	2996.18
657.76	2887.64
657.95	3397.58
658.14	3168.21
658.32	3133.39
658.51	2967.51
658.70	3315.66
658.89	3319.76
659.08	3067.86
659.26	3272.65
659.45	3119.06
659.64	3479.50
659.83	3035.09
660.01	3405.77
660.20	3354.57
660.39	3573.71
660.58	2787.29
660.76	3117.01
660.95	3024.85
661.14	3256.27
661.33	2975.70
661.51	3061.71
661.70	3170.26
661.89	3430.35
662.08	3114.96
662.26	2934.74
662.45	3209.17
662.64	3688.39
662.83	3153.87
663.01	2963.41
663.20	3153.87
663.39	3534.79
663.58	3172.30
663.76	3086.29
663.95	3373.00
664.14	3106.77
664.32	3145.68
664.51	2992.08
664.70	2932.69
664.89	3297.23
665.07	2973.65
665.26	3286.99
665.45	3033.04
665.64	3428.30
665.82	3088.34
666.01	3141.58
666.20	3049.43
666.38	3549.13
666.57	3420.11
666.76	5656.49
666.95	12867.39
667.13	20856.51
667.32	24974.98
667.51	28245.58
667.69	29228.61
667.88	24215.18
668.07	17561.33
668.25	15071.00
668.44	12949.31
668.63	11261.78
668.81	9772.91
669.00	8441.73
669.19	7786.38
669.38	6703.00
669.56	5601.19
669.75	4908.98
669.94	4458.43
670.12	3895.24
670.31	3356.62
670.50	3409.87
670.68	3565.51
670.87	3377.10
671.06	3149.78
671.24	3149.78
671.43	3655.62
671.62	3307.47
671.80	3051.47
671.99	3160.02
672.18	3409.87
672.36	3467.21
672.55	3147.73
672.74	3160.02
672.92	3180.50
673.11	3319.76
673.29	2969.55
673.48	3274.70
673.67	3188.69
673.85	3467.21
674.04	2979.79
674.23	3213.26
674.41	3606.47
674.60	3139.54
674.79	2963.41
674.97	2930.64
675.16	3459.02
675.34	3520.46
675.53	3024.85
675.72	3133.39
675.90	3643.34
676.09	3223.50
676.28	3194.83
676.46	2983.89
676.65	3403.72
676.83	3143.63
677.02	3098.58
677.21	3104.72
677.39	3344.33
677.58	3090.38
677.77	3057.62
677.95	2992.08
678.14	3270.61
678.32	3155.92
678.51	3049.43
678.70	3434.44
678.88	3114.96
679.07	3340.24
679.25	3086.29
679.44	3110.86
679.63	2967.51
679.81	3266.51
680.00	3282.89
680.18	3196.88
680.37	3659.72
680.55	3352.52
680.74	2918.36
680.93	2906.07
681.11	3397.58
681.30	3276.75
681.48	3030.99
681.67	3147.73
681.85	3311.57
682.04	3117.01
682.23	3217.36
682.41	3188.69
682.60	3110.86
682.78	3221.45
682.97	3010.51
683.15	3155.92
683.34	3295.18
683.53	3510.22
683.71	2934.74
683.90	3110.86
684.08	3745.73
684.27	3213.26
684.45	3166.16
684.64	3235.79
684.82	3264.46
685.01	3354.57
685.19	2994.13
685.38	3385.29
685.57	3262.41
685.75	3108.82
685.94	3035.09
686.12	2969.55
686.31	3123.15
686.49	3508.17
686.68	2889.68
686.86	3127.25
687.05	3219.41
687.23	3590.09
687.42	3094.48
687.60	2961.36
687.79	3502.03
687.97	3522.51
688.16	3246.03
688.34	3342.28
688.53	2963.41
688.71	3381.20
688.90	3375.05
689.08	3229.65
689.27	2973.65
689.45	3479.50
689.64	3270.61
689.82	3127.25
690.01	3416.01
690.19	3430.35
690.38	3190.74
690.56	3188.69
690.75	2967.51
690.93	3266.51
691.12	3096.53
691.30	3153.87
691.49	3211.22
691.67	3317.71
691.86	3389.39
692.04	3065.81
692.23	3166.16
692.41	3233.74
692.60	3442.64
692.78	3180.50
692.97	3241.93
693.15	3405.77
693.34	3346.38
693.52	3319.76
693.71	3168.21
693.89	3164.11
694.08	2961.36
694.26	3153.87
694.44	3413.96
694.63	3473.36
694.81	3033.04
695.00	3016.66
695.18	3514.31
695.37	3706.82
695.55	3239.89
695.74	3166.16
695.92	3094.48
696.10	3524.55
696.29	2955.22
696.47	3117.01
696.66	3114.96
696.84	3065.81
697.03	3157.97
697.21	3401.68
697.40	4669.37
697.58	3459.02
697.76	3051.47
697.95	3037.14
698.13	2965.46
698.32	3147.73
698.50	3022.80
698.68	3080.14
698.87	3409.87
699.05	3626.95
699.24	3155.92
699.42	3065.81
699.61	3362.76
699.79	3356.62
699.97	3104.72
700.16	2959.31
700.34	2979.79
700.53	3393.48
700.71	3346.38
700.89	3274.70
701.08	3264.46
701.26	3282.89
701.45	3491.79
701.63	3065.81
701.81	3166.16
702.00	3121.10
702.18	3203.02
702.37	3137.49
702.55	3551.18
702.73	3426.25
702.92	3086.29
703.10	3442.64
703.28	3485.64
703.47	3114.96
703.65	3327.95
703.84	3307.47
704.02	3250.13
704.20	3669.96
704.39	3139.54
704.57	3082.19
704.75	3459.02
704.94	3366.86
705.12	3260.37
705.30	3958.72
705.49	8560.51
705.67	16975.61
705.86	23557.78
706.04	27188.83
706.22	29701.69
706.41	28804.68
706.59	21515.96
706.77	16600.83
706.96	14552.87
707.14	13203.25
707.32	11286.36
707.51	9668.46
707.69	8185.73
707.87	6528.92
708.06	5314.48
708.24	4415.42
708.42	4089.79
708.61	4202.43
708.79	3233.74
708.97	3319.76
709.16	3377.10
709.34	3334.09
709.52	3082.19
709.71	3162.06
709.89	3401.68
710.07	3117.01
710.26	2983.89
710.44	3059.67
710.62	3540.94
710.80	3262.41
710.99	3155.92
711.17	3205.07
711.35	3164.11
711.54	3090.38
711.72	3293.13
711.90	3213.26
712.09	3354.57
712.27	3110.86
712.45	3243.98
712.63	3049.43
712.82	3352.52
713.00	3221.45
713.18	3223.50
713.37	3229.65
713.55	3422.16
713.73	3422.16
713.91	3188.69
714.10	3033.04
714.28	3278.80
714.46	3364.81
714.65	3186.64
714.83	3151.82
715.01	3303.37
715.19	3295.18
715.38	3037.14
715.56	3241.93
715.74	3166.16
715.92	3127.25
716.11	3393.48
716.29	2834.39
716.47	3213.26
716.65	3239.89
716.84	2953.17
717.02	3098.58
717.20	2965.46
717.38	3084.24
717.57	3221.45
717.75	3184.59
717.93	3176.40
718.11	3350.48
718.30	2934.74
718.48	3186.64
718.66	3528.65
718.84	3448.78
719.03	3057.62
719.21	2875.35
719.39	3604.42
719.57	3397.58
719.75	3157.97
719.94	3039.19
720.12	3225.55
720.30	3246.03
720.48	3248.08
720.67	3028.95
720.85	3184.59
721.03	3188.69
721.21	3071.95
721.39	3143.63
721.58	3430.35
721.76	3190.74
721.94	3129.30
722.12	3211.22
722.30	3573.71
722.49	3153.87
722.67	3149.78
722.85	3182.54
723.03	2979.79
723.21	3147.73
723.40	3088.34
723.58	3254.22
723.76	3506.12
723.94	3557.32
724.12	3139.54
724.30	3370.96
724.49	3502.03
724.67	3110.86
724.85	3182.54
725.03	2934.74
725.21	3395.53
725.40	3506.12
725.58	3080.14
725.76	3319.76
725.94	3377.10
726.12	3020.75
726.30	3221.45
726.49	3000.27
726.67	3198.93
726.85	3502.03
727.03	4057.03
727.21	5400.49
727.39	7247.76
727.57	7964.55
727.76	8580.99
727.94	8345.47
728.12	7341.97
728.30	6023.08
728.48	5623.72
728.66	5093.30
728.84	4900.79
729.03	4218.82
729.21	3887.04
729.39	3526.60
729.57	3405.77
729.75	3385.29
729.93	3407.82
730.11	3102.67
730.30	3305.42
730.48	3168.21
730.66	3141.58
730.84	3246.03
731.02	3330.00
731.20	3194.83
731.38	3108.82
731.56	2918.36
731.74	2973.65
731.93	3325.90
732.11	3213.26
732.29	3098.58
732.47	3418.06
732.65	3319.76
732.83	3278.80
733.01	3223.50
733.19	3157.97
733.37	3405.77
733.56	3090.38
733.74	2961.36
733.92	3524.55
734.10	3166.16
734.28	3291.09
734.46	2985.94
734.64	3182.54
734.82	3223.50
735.00	3076.05
735.18	3080.14
735.36	3278.80
735.54	3262.41
735.73	3094.48
735.91	3254.22
736.09	3545.03
736.27	3221.45
736.45	3166.16
736.63	2824.15
736.81	3219.41
736.99	3426.25
737.17	3354.57
737.35	2996.18
737.53	3289.04
737.71	3205.07
737.89	3235.79
738.07	2969.55
738.25	3125.20
738.43	2963.41
738.61	3104.72
738.80	2992.08
738.98	3155.92
739.16	3151.82
739.34	3041.23
739.52	3362.76
739.70	3145.68
739.88	3430.35
740.06	3299.28
740.24	2854.87
740.42	3526.60
740.60	2895.83
740.78	3043.28
740.96	2848.72
741.14	3143.63
741.32	3203.02
741.50	2967.51
741.68	3360.72
741.86	3493.83
742.04	3076.05
742.22	2971.60
742.40	2979.79
742.58	3426.25
742.76	3106.77
742.94	3370.96
743.12	2910.16
743.30	3297.23
743.48	3348.43
743.66	3065.81
743.84	3117.01
744.02	3258.32
744.20	3190.74
744.38	2973.65
744.56	3010.51
744.74	3604.42
744.92	3338.19
745.10	3315.66
745.28	3100.62
745.46	3585.99
745.64	3176.40
745.82	3207.12
746.00	3033.04
746.18	3348.43
746.36	3112.91
746.54	3174.35
746.72	3098.58
746.90	3080.14
747.08	3532.75
747.26	3119.06
747.44	3217.36
747.62	3426.25
747.80	3362.76
747.98	3168.21
748.15	3080.14
748.33	3567.56
748.51	3246.03
748.69	3190.74
748.87	3078.10
749.05	3233.74
749.23	3274.70
749.41	3053.52
749.59	3082.19
749.77	3497.93
749.95	3162.06
750.13	3037.14
750.31	3160.02
750.49	3284.94
750.67	3450.83
750.85	3289.04
751.03	3117.01
751.20	3743.69
751.38	3278.80
751.56	3174.35
751.74	3094.48
751.92	3117.01
752.10	3059.67
752.28	3299.28
752.46	3000.27
752.64	3336.14
752.82	3235.79
753.00	3184.59
753.18	2983.89
753.35	3180.50
753.53	3239.89
753.71	2987.99
753.89	3092.43
754.07	3303.37
754.25	3506.12
754.43	3194.83
754.61	3008.47
754.79	3338.19
754.97	3291.09
755.14	3334.09
755.32	3012.56
755.50	3260.37
755.68	3280.85
755.86	3020.75
756.04	3039.19
756.22	2879.44
756.40	3399.63
756.57	3233.74
756.75	2977.75
756.93	3428.30
757.11	3442.64
757.29	3024.85
757.47	2967.51
757.65	2938.84
757.82	2789.33
758.00	3041.23
758.18	3098.58
758.36	3184.59
758.54	3655.62
758.72	2904.02
758.90	3180.50
759.07	3342.28
759.25	3041.23
759.43	3151.82
759.61	2912.21
759.79	4454.33
759.97	3471.31
760.15	3119.06
760.32	3100.62
760.50	3309.52
760.68	3551.18
760.86	2910.16
761.04	3370.96
761.22	3393.48
761.39	3278.80
761.57	3190.74
761.75	3028.95
761.93	3364.81
762.11	3237.84
762.28	3160.02
762.46	3016.66
762.64	3502.03
762.82	2996.18
763.00	3024.85
763.18	3352.52
763.35	3094.48
763.53	3385.29
763.71	3182.54
763.89	3043.28
764.07	3227.60
764.24	3344.33
764.42	3233.74
764.60	3088.34
764.78	3381.20
764.96	3471.31
765.13	3229.65
765.31	3000.27
765.49	3411.92
765.67	3125.20
765.84	3045.33
766.02	3063.76
766.20	2947.03
766.38	3438.54
766.56	3213.26
766.73	3196.88
766.91	3229.65
767.09	3260.37
767.27	3151.82
767.44	2881.49
767.62	3313.61
767.80	3284.94
767.98	2983.89
768.15	3033.04
768.33	3508.17
768.51	3397.58
768.69	3194.83
768.87	3053.52
769.04	3327.95
769.22	3819.46
769.40	3276.75
769.58	3184.59
769.75	3385.29
769.93	3536.84
770.11	3147.73
770.28	3010.51
770.46	3348.43
770.64	3280.85
770.82	3100.62
770.99	3049.43
771.17	3385.29
771.35	3186.64
771.53	3149.78
771.70	2983.89
771.88	3413.96
772.06	3311.57
772.23	3069.91
772.41	3131.34
772.59	3219.41
772.77	3117.01
772.94	3037.14
773.12	3043.28
773.30	3149.78
773.47	3336.14
773.65	3037.14
773.83	3241.93
774.01	3387.34
774.18	2961.36
774.36	3071.95
774.54	2906.07
774.71	3305.42
774.89	3033.04
775.07	2951.12
775.24	3041.23
775.42	3162.06
775.60	3721.16
775.78	2990.03
775.95	2951.12
776.13	2940.88
776.31	3008.47
776.48	3278.80
776.66	3317.71
776.84	3168.21
777.01	3098.58
777.19	3033.04
777.37	2990.03
777.54	3401.68
777.72	3633.10
777.90	3227.60
778.07	2981.84
778.25	3882.95
778.43	3428.30
778.60	3037.14
778.78	3139.54
778.96	3602.38
779.13	3033.04
779.31	3053.52
779.49	3106.77
779.66	3360.72
779.84	3237.84
780.01	3059.67
780.19	3004.37
780.37	3518.41
780.54	3362.76
780.72	2934.74
780.90	3176.40
781.07	3139.54
781.25	3157.97
781.43	3309.52
781.60	3076.05
781.78	3434.44
781.95	3354.57
782.13	3045.33
782.31	3096.53
782.48	2930.64
782.66	3252.17
782.83	3291.09
783.01	3186.64
783.19	3379.15
783.36	3258.32
783.54	3006.42
783.72	3102.67
783.89	3164.11
784.07	3311.57
784.24	3211.22
784.42	3297.23
784.60	3348.43
784.77	3362.76
784.95	2873.30
785.12	3076.05
785.30	3413.96
785.47	3024.85
785.65	3049.43
785.83	3157.97
786.00	3186.64
786.18	3239.89
786.35	2879.44
786.53	2944.98
786.71	3526.60
786.88	3346.38
787.06	3215.31
787.23	3207.12
787.41	3010.51
787.58	3282.89
787.76	2977.75
787.94	3039.19
788.11	3338.19
788.29	3090.38
788.46	3106.77
788.64	2858.96
788.81	3143.63
788.99	3086.29
789.16	3094.48
789.34	3102.67
789.52	3235.79
789.69	3200.98
789.87	2832.34
790.04	3041.23
790.22	3307.47
790.39	3571.66
790.57	3028.95
790.74	2930.64
790.92	3502.03
791.09	3006.42
791.27	3127.25
791.44	3139.54
791.62	3239.89
791.79	3432.40
791.97	3172.30
792.15	3430.35
792.32	3356.62
792.50	3393.48
792.67	3284.94
792.85	3336.14
793.02	3362.76
793.20	3170.26
793.37	2955.22
793.55	2983.89
793.72	2938.84
793.90	3411.92
794.07	3030.99
794.25	3033.04
794.42	3321.81
794.60	3166.16
794.77	3088.34
794.95	3186.64
795.12	3399.63
795.30	3248.08
795.47	2887.64
795.65	3368.91
795.82	3317.71
796.00	3162.06
796.17	3196.88
796.34	2944.98
796.52	3323.85
796.69	3508.17
796.87	3153.87
797.04	3215.31
797.22	3467.21
797.39	3325.90
797.57	3272.65
797.74	3129.30
797.92	3358.67
798.09	3176.40
798.27	3360.72
798.44	3018.71
798.62	3106.77
798.79	3272.65
798.96	3217.36
799.14	3098.58
799.31	3741.64
799.49	3219.41
799.66	3037.14
799.84	3012.56
800.01	3057.62
800.19	3319.76
800.36	2836.44
800.53	3114.96
800.71	3420.11
800.88	3585.99
801.06	2965.46
801.23	3098.58
801.41	3114.96
801.58	3188.69
801.75	3074.00
801.93	3074.00
802.10	3397.58
802.28	3205.07
802.45	3147.73
802.63	3176.40
802.80	3590.09
802.97	3131.34
803.15	3121.10
803.32	3061.71
803.50	3061.71
803.67	3119.06
803.84	3071.95
804.02	3125.20
804.19	3221.45
804.37	2893.78
804.54	2994.13
804.71	3008.47
804.89	3268.56
805.06	3104.72
805.24	2973.65
805.41	2885.59
805.58	3133.39
805.76	3811.27
805.93	3082.19
806.10	3215.31
806.28	3432.40
806.45	3221.45
806.63	3250.13
806.80	3164.11
806.97	3272.65
807.15	3334.09
807.32	3176.40
807.49	3043.28
807.67	3020.75
807.84	3325.90
808.01	2893.78
808.19	3313.61
808.36	3708.87
808.54	3213.26
808.71	2977.75
808.88	3143.63
809.06	3518.41
809.23	3590.09
809.40	3188.69
809.58	2983.89
809.75	3325.90
809.92	3049.43
810.10	3315.66
810.27	3024.85
810.44	3385.29
810.62	3526.60
810.79	3092.43
810.96	3104.72
811.14	3254.22
811.31	3370.96
811.48	3221.45
811.66	3137.49
811.83	3461.07
812.00	3323.85
812.18	3176.40
812.35	3336.14
812.52	3250.13
812.69	3211.22
812.87	3053.52
813.04	2940.88
813.21	3330.00
813.39	3139.54
813.56	3002.32
813.73	3301.33
813.91	2944.98
814.08	3209.17
814.25	3033.04
814.42	2873.30
814.60	3293.13
814.77	3350.48
814.94	2992.08
815.12	3229.65
815.29	3569.61
815.46	3174.35
815.63	3024.85
815.81	2942.93
815.98	3219.41
816.15	3336.14
816.33	3092.43
816.50	3088.34
816.67	3274.70
816.84	3190.74
817.02	2992.08
817.19	3090.38
817.36	3311.57
817.53	3311.57
817.71	2928.60
817.88	3135.44
818.05	3233.74
818.22	3246.03
818.40	3266.51
818.57	3022.80
818.74	3188.69
818.91	3272.65
819.09	3297.23
819.26	3178.45
819.43	3112.91
819.60	3082.19
819.78	3256.27
819.95	3114.96
820.12	3043.28
820.29	3565.51
820.47	3321.81
820.64	3086.29
820.81	2994.13
820.98	3102.67
821.15	3139.54
821.33	3291.09
821.50	2994.13
821.67	3399.63
821.84	3035.09
822.02	3057.62
822.19	3411.92
822.36	3141.58
822.53	2975.70
822.70	2949.08
822.88	3182.54
823.05	3479.50
823.22	3112.91
823.39	3092.43
823.56	3219.41
823.74	3542.99
823.91	2910.16
824.08	2951.12
824.25	3121.10
824.42	3600.33
824.60	2885.59
824.77	3215.31
824.94	3241.93
825.11	3323.85
825.28	2953.17
825.45	3182.54
825.63	3295.18
825.80	3098.58
825.97	3190.74
826.14	3090.38
826.31	2854.87
826.48	3348.43
826.66	3065.81
826.83	3033.04
827.00	3248.08
827.17	3080.14
827.34	3090.38
827.51	2959.31
827.69	3295.18
827.86	2981.84
828.03	3151.82
828.20	3147.73
828.37	3182.54
828.54	3438.54
828.71	3069.91
828.89	3180.50
829.06	3301.33
829.23	3600.33
829.40	3074.00
829.57	3057.62
829.74	3426.25
829.91	3080.14
830.09	2977.75
830.26	3166.16
830.43	3612.62
830.60	3248.08
830.77	3166.16
830.94	3280.85
831.11	3520.46
831.28	3114.96
831.46	3213.26
831.63	3010.51
831.80	3385.29
831.97	3090.38
832.14	3121.10
832.31	3108.82
832.48	3217.36
832.65	3438.54
832.82	3184.59
832.99	3155.92
833.17	3039.19
833.34	3571.66
833.51	3098.58
833.68	2854.87
833.85	3581.90
834.02	3106.77
834.19	3004.37
834.36	2981.84
834.53	3235.79
834.70	3409.87
834.87	3024.85
835.04	2807.77
835.22	3137.49
835.39	3172.30
835.56	2895.83
835.73	2920.40
835.90	3377.10
836.07	3076.05
836.24	3039.19
836.41	2912.21
836.58	3145.68
836.75	3413.96
836.92	2936.79
837.09	2893.78
837.26	3420.11
837.43	3313.61
837.60	3004.37
837.77	2985.94
837.94	3377.10
838.12	3528.65
838.29	2885.59
838.46	2844.63
838.63	3061.71
838.80	3526.60
838.97	3002.32
839.14	2873.30
839.31	3323.85
839.48	3334.09
839.65	2901.97
839.82	3071.95
839.99	3248.08
840.16	3303.37
840.33	2842.58
840.50	2936.79
840.67	3147.73
840.84	2830.29
841.01	2867.16
841.18	2856.92
841.35	3117.01
841.52	3334.09
841.69	3311.57
841.86	2920.40
842.03	3313.61
842.20	3461.07
842.37	3012.56
842.54	3037.14
842.71	3266.51
842.88	2936.79
843.05	2889.68
843.22	2899.92
843.39	3475.40
843.56	3196.88
843.73	2908.12
843.90	2987.99
844.07	3180.50
844.24	3373.00
844.41	3074.00
844.58	2918.36
844.75	3278.80
844.92	3373.00
845.09	2951.12
845.26	2936.79
845.43	3377.10
845.60	3164.11
845.77	3069.91
845.94	3012.56
846.10	3438.54
846.27	3004.37
846.44	2856.92
846.61	2787.29
846.78	3305.42
846.95	3336.14
847.12	2863.06
847.29	2963.41
847.46	2998.23
847.63	3354.57
847.80	2797.53
847.97	2992.08
848.14	3688.39
848.31	3217.36
848.48	2803.67
848.65	2891.73
848.82	3157.97
848.98	3749.83
849.15	3102.67
849.32	3108.82
849.49	3463.12
849.66	3211.22
849.83	2938.84
850.00	2885.59
850.17	3426.25
850.34	3174.35
850.51	2893.78
850.68	2949.08
850.85	3624.90
851.01	3362.76
851.18	2979.79
851.35	3035.09
851.52	3352.52
851.69	3565.51
851.86	2887.64
852.03	2885.59
852.20	3325.90
852.37	3274.70
852.53	2838.48
852.70	2820.05
852.87	3319.76
853.04	3385.29
853.21	2820.05
853.38	3196.88
853.55	3542.99
853.72	3487.69
853.89	2889.68
854.05	2934.74
854.22	3209.17
854.39	3286.99
854.56	2932.69
854.73	3028.95
854.90	3086.29
855.07	3241.93
855.23	2928.60
855.40	2858.96
855.57	3237.84
855.74	2766.81
855.91	3157.97
856.08	2779.09
856.25	2904.02
856.41	3129.30
856.58	2942.93
856.75	2881.49
856.92	3008.47
857.09	3499.98
857.26	2729.94
857.42	2981.84
857.59	3413.96
857.76	3227.60
857.93	2934.74
858.10	2961.36
858.27	2996.18
858.43	3217.36
858.60	2969.55
858.77	2805.72
858.94	3164.11
859.11	3442.64
859.27	2985.94
859.44	2895.83
859.61	3643.34
859.78	3436.49
859.95	2856.92
860.12	2738.13
860.28	3647.43
860.45	3665.86
860.62	2930.64
860.79	2994.13
860.95	3272.65
861.12	3098.58
861.29	2805.72
861.46	2910.16
861.63	3237.84
861.79	3248.08
861.96	2815.96
862.13	2908.12
862.30	3534.79
862.47	3104.72
862.63	2805.72
862.80	2932.69
862.97	3440.59
863.14	3342.28
863.30	2891.73
863.47	2838.48
863.64	3518.41
863.81	3323.85
863.97	2795.48
864.14	2899.92
864.31	3192.78
864.48	3360.72
864.65	2869.20
864.81	2996.18
864.98	3379.15
865.15	3430.35
865.32	3002.32
865.48	2961.36
865.65	3602.38
865.82	3074.00
865.98	3008.47
866.15	2932.69
866.32	3231.69
866.49	3157.97
866.65	3049.43
866.82	2967.51
866.99	3200.98
867.16	3174.35
867.32	2959.31
867.49	2809.81
867.66	3151.82
867.83	3135.44
867.99	2818.00
868.16	3008.47
868.33	3078.10
868.49	3295.18
868.66	2912.21
868.83	2994.13
868.99	3237.84
869.16	3248.08
869.33	3082.19
869.50	2934.74
869.66	3200.98
869.83	3217.36
870.00	2873.30
870.16	3024.85
870.33	3166.16
870.50	3489.74
870.66	3000.27
870.83	2869.20
871.00	3262.41
871.17	3405.77
871.33	2922.45
871.50	2897.88
871.67	3291.09
871.83	2998.23
872.00	2963.41
872.17	2897.88
872.33	3631.05
872.50	3493.83
872.67	2910.16
872.83	3002.32
873.00	3289.04
873.17	3262.41
873.33	2994.13
873.50	2975.70
873.67	3110.86
873.83	3176.40
874.00	2992.08
874.16	3098.58
874.33	3303.37
874.50	3092.43
874.66	2815.96
874.83	3084.24
875.00	3452.88
875.16	3471.31
875.33	3024.85
875.50	2648.02
875.66	3246.03
875.83	3280.85
875.99	3022.80
876.16	3090.38
876.33	2975.70
876.49	3219.41
876.66	2944.98
876.83	2910.16
876.99	2955.22
877.16	3311.57
877.32	2820.05
877.49	3082.19
877.66	3385.29
877.82	3452.88
877.99	3041.23
878.15	3178.45
878.32	3305.42
878.49	3336.14
878.65	3059.67
878.82	3192.78
878.98	3086.29
879.15	3469.26
879.32	3151.82
879.48	3110.86
879.65	3233.74
879.81	3225.55
879.98	3004.37
880.15	2955.22
880.31	3360.72
880.48	3141.58
880.64	3000.27
880.81	3026.90
880.97	3542.99
881.14	3508.17
881.31	2873.30
881.47	3123.15
881.64	3139.54
881.80	2912.21
881.97	3137.49
882.13	2975.70
882.30	3071.95
882.47	3155.92
882.63	2947.03
882.80	2881.49
882.96	3215.31
883.13	3409.87
883.29	2951.12
883.46	2910.16
883.62	3678.15
883.79	3239.89
883.95	3155.92
884.12	2807.77
884.29	3493.83
884.45	3274.70
884.62	2959.31
884.78	2848.72
884.95	3555.27
885.11	3094.48
885.28	3026.90
885.44	2926.55
885.61	3393.48
885.77	3467.21
885.94	3041.23
886.10	2975.70
886.27	3231.69
886.43	3663.82
886.60	3098.58
886.76	2955.22
886.93	3196.88
887.09	3246.03
887.26	2793.43
887.42	3067.86
887.59	3526.60
887.75	3778.50
887.92	3203.02
888.08	3098.58
888.25	3557.32
888.41	3424.20
888.58	2914.26
888.74	2818.00
888.91	3137.49
>>>>>End Processed Spectral Data<<<<<
