SpectraSuite Data File
++++++++++++++++++++++++++++++++++++
Date: Fri May 06 08:14:30 CEST 2016
User: root
Dark Spectrum Present: No
Reference Spectrum Present: No
Number of Sampled Component Spectra: 1
Spectrometers: USB4C02835
Integration Time (usec): 100000 (USB4C02835)
Spectra Averaged: 1 (USB4C02835)
Boxcar Smoothing: 0 (USB4C02835)
Correct for Electrical Dark: No (USB4C02835)
Strobe/Lamp Enabled: No (USB4C02835)
Correct for Detector Non-linearity: No (USB4C02835)
Correct for Stray Light: No (USB4C02835)
Number of Pixels in Processed Spectrum: 3648
>>>>>Begin Processed Spectral Data<<<<<
177.47	2271.20
177.69	2271.20
177.91	2271.20
178.13	2318.30
178.36	2197.47
178.58	3041.23
178.80	3182.54
179.02	2930.64
179.24	3102.67
179.46	2787.29
179.68	2834.39
179.90	3250.13
180.13	3307.47
180.35	2717.65
180.57	2789.33
180.79	3332.05
181.01	3188.69
181.23	2869.20
181.45	2979.79
181.67	3401.68
181.90	3430.35
182.12	2877.40
182.34	2711.51
182.56	3510.22
182.78	3342.28
183.00	2895.83
183.22	2877.40
183.44	2951.12
183.66	3901.38
183.89	3063.76
184.11	2867.16
184.33	3440.59
184.55	3565.51
184.77	2846.68
184.99	2807.77
185.21	3235.79
185.43	3811.27
185.65	2928.60
185.87	2852.82
186.10	3717.06
186.32	3878.85
186.54	3049.43
186.76	2985.94
186.98	3540.94
187.20	3225.55
187.42	2883.54
187.64	2895.83
187.86	3340.24
188.08	3440.59
188.30	2738.13
188.52	2904.02
188.75	3622.86
188.97	3524.55
189.19	2848.72
189.41	2770.90
189.63	3401.68
189.85	3168.21
190.07	2840.53
190.29	2766.81
190.51	3305.42
190.73	3047.38
190.95	3139.54
191.17	2877.40
191.39	2992.08
191.61	3133.39
191.84	2854.87
192.06	3008.47
192.28	3000.27
192.50	3868.61
192.72	3041.23
192.94	2899.92
193.16	3549.13
193.38	3323.85
193.60	2813.91
193.82	3057.62
194.04	3497.93
194.26	3491.79
194.48	2844.63
194.70	2893.78
194.92	3299.28
195.14	3401.68
195.36	2795.48
195.58	2926.55
195.80	3272.65
196.02	3143.63
196.24	2914.26
196.46	2918.36
196.69	3256.27
196.91	3776.45
197.13	2895.83
197.35	2969.55
197.57	3616.71
197.79	3311.57
198.01	2904.02
198.23	2873.30
198.45	3395.53
198.67	2953.17
198.89	2723.80
199.11	2959.31
199.33	3143.63
199.55	2889.68
199.77	2867.16
199.99	3053.52
200.21	3237.84
200.43	3420.11
200.65	2727.89
200.87	2807.77
201.09	3235.79
201.31	3246.03
201.53	2826.20
201.75	2942.93
201.97	3340.24
202.19	3284.94
202.41	2973.65
202.63	2959.31
202.85	3307.47
203.07	3362.76
203.29	2936.79
203.51	2828.24
203.73	3063.76
203.95	3794.89
204.17	2783.19
204.39	2969.55
204.61	3266.51
204.83	3209.17
205.05	2985.94
205.27	2875.35
205.49	3663.82
205.71	3266.51
205.93	2811.86
206.15	2742.23
206.37	3338.19
206.59	3182.54
206.81	2711.51
207.03	2725.85
207.25	3026.90
207.47	3364.81
207.69	2850.77
207.91	3078.10
208.13	3559.37
208.34	3172.30
208.56	2777.05
208.78	2863.06
209.00	3178.45
209.22	3215.31
209.44	2873.30
209.66	2811.86
209.88	3315.66
210.10	3248.08
210.32	2920.40
210.54	2934.74
210.76	3235.79
210.98	3549.13
211.20	2775.00
211.42	2955.22
211.64	3436.49
211.86	3495.88
212.08	2928.60
212.30	2787.29
212.52	3205.07
212.74	3440.59
212.96	2998.23
213.17	2901.97
213.39	3424.20
213.61	3637.19
213.83	2944.98
214.05	2744.28
214.27	3446.73
214.49	3067.86
214.71	2863.06
214.93	2979.79
215.15	3229.65
215.37	3381.20
215.59	2758.61
215.81	2949.08
216.03	3614.66
216.24	3229.65
216.46	2871.25
216.68	2932.69
216.90	3454.92
217.12	3475.40
217.34	2830.29
217.56	3069.91
217.78	3588.04
218.00	3399.63
218.22	2947.03
218.44	2953.17
218.66	3270.61
218.87	3672.01
219.09	2897.88
219.31	2828.24
219.53	3395.53
219.75	3166.16
219.97	2873.30
220.19	2893.78
220.41	3260.37
220.63	3655.62
220.85	2891.73
221.06	2893.78
221.28	3571.66
221.50	3428.30
221.72	2801.62
221.94	2678.74
222.16	3233.74
222.38	3452.88
222.60	2820.05
222.82	2893.78
223.03	3456.97
223.25	3125.20
223.47	2815.96
223.69	3121.10
223.91	3336.14
224.13	3280.85
224.35	2742.23
224.57	3016.66
224.78	3444.68
225.00	3125.20
225.22	3020.75
225.44	2758.61
225.66	3393.48
225.88	3192.78
226.10	2981.84
226.32	2824.15
226.53	3530.70
226.75	3229.65
226.97	3000.27
227.19	2934.74
227.41	3153.87
227.63	3235.79
227.85	2666.46
228.06	2940.88
228.28	3436.49
228.50	3516.36
228.72	2680.79
228.94	2762.71
229.16	2934.74
229.37	3067.86
229.59	2779.09
229.81	3080.14
230.03	3182.54
230.25	3030.99
230.47	2701.27
230.69	2803.67
230.90	3483.59
231.12	3182.54
231.34	3028.95
231.56	2883.54
231.78	3016.66
232.00	3332.05
232.21	2971.60
232.43	2910.16
232.65	2889.68
232.87	3366.86
233.09	2703.32
233.30	2811.86
233.52	3485.64
233.74	3194.83
233.96	2736.09
234.18	3106.77
234.40	3364.81
234.61	3792.84
234.83	2686.94
235.05	2809.81
235.27	3803.08
235.49	3565.51
235.70	2801.62
235.92	2918.36
236.14	3385.29
236.36	3860.42
236.58	2762.71
236.79	2963.41
237.01	3254.22
237.23	3196.88
237.45	3086.29
237.67	2840.53
237.88	3336.14
238.10	3624.90
238.32	2772.95
238.54	2781.14
238.76	3260.37
238.97	3123.15
239.19	2742.23
239.41	2852.82
239.63	3553.23
239.85	3207.12
240.06	2906.07
240.28	2838.48
240.50	3411.92
240.72	3211.22
240.93	2772.95
241.15	2951.12
241.37	3196.88
241.59	3551.18
241.81	2881.49
242.02	2969.55
242.24	3334.09
242.46	3432.40
242.68	2783.19
242.89	2893.78
243.11	3483.59
243.33	3307.47
243.55	2805.72
243.76	2967.51
243.98	3119.06
244.20	3280.85
244.42	2826.20
244.64	2803.67
244.85	3006.42
245.07	2971.60
245.29	2785.24
245.51	2877.40
245.72	3295.18
245.94	3450.83
246.16	2762.71
246.38	2990.03
246.59	3155.92
246.81	3094.48
247.03	2818.00
247.24	2768.85
247.46	3207.12
247.68	3344.33
247.90	2801.62
248.11	2904.02
248.33	3454.92
248.55	3260.37
248.77	2889.68
248.98	2938.84
249.20	3592.14
249.42	3385.29
249.64	2895.83
249.85	2820.05
250.07	3139.54
250.29	3456.97
250.50	2875.35
250.72	2762.71
250.94	3309.52
251.16	3719.11
251.37	2844.63
251.59	2965.46
251.81	3362.76
252.02	3641.29
252.24	2762.71
252.46	3071.95
252.68	3155.92
252.89	3125.20
253.11	2721.75
253.33	3024.85
253.54	3538.89
253.76	3012.56
253.98	2897.88
254.20	2828.24
254.41	3014.61
254.63	3237.84
254.85	2820.05
255.06	2998.23
255.28	3368.91
255.50	3178.45
255.71	2826.20
255.93	2688.98
256.15	3280.85
256.36	3395.53
256.58	2715.61
256.80	2797.53
257.02	3229.65
257.23	3211.22
257.45	2908.12
257.67	2928.60
257.88	3141.58
258.10	3377.10
258.32	2918.36
258.53	2908.12
258.75	3696.58
258.97	3117.01
259.18	2779.09
259.40	2830.29
259.62	3573.71
259.83	3567.56
260.05	2910.16
260.27	3747.78
260.48	3592.14
260.70	3016.66
260.92	2734.04
261.13	2897.88
261.35	3295.18
261.57	3295.18
261.78	2738.13
262.00	2813.91
262.22	3346.38
262.43	3102.67
262.65	2871.25
262.86	2885.59
263.08	3796.93
263.30	3366.86
263.51	2635.74
263.73	2803.67
263.95	3647.43
264.16	3074.00
264.38	2727.89
264.60	2811.86
264.81	3196.88
265.03	3549.13
265.25	3241.93
265.46	2813.91
265.68	3446.73
265.89	3393.48
266.11	2781.14
266.33	2752.47
266.54	3559.37
266.76	3348.43
266.98	2957.27
267.19	3018.71
267.41	3450.83
267.62	3239.89
267.84	2666.46
268.06	2969.55
268.27	3373.00
268.49	3438.54
268.70	2949.08
268.92	2914.26
269.14	3170.26
269.35	3086.29
269.57	2994.13
269.79	2883.54
270.00	3178.45
270.22	3614.66
270.43	2740.18
270.65	2703.32
270.87	3278.80
271.08	3426.25
271.30	2990.03
271.51	2828.24
271.73	3450.83
271.95	3653.58
272.16	2863.06
272.38	3051.47
272.59	3237.84
272.81	3422.16
273.02	2813.91
273.24	2879.44
273.46	3573.71
273.67	3024.85
273.89	2770.90
274.10	2852.82
274.32	3504.07
274.54	3411.92
274.75	2881.49
274.97	2926.55
275.18	3454.92
275.40	3373.00
275.61	2852.82
275.83	3043.28
276.05	3139.54
276.26	3225.55
276.48	2967.51
276.69	3028.95
276.91	3190.74
277.12	3598.28
277.34	3026.90
277.55	3125.20
277.77	3270.61
277.99	3153.87
278.20	3018.71
278.42	2893.78
278.63	3168.21
278.85	3131.34
279.06	2983.89
279.28	3082.19
279.49	3475.40
279.71	3461.07
279.93	3020.75
280.14	3127.25
280.36	3106.77
280.57	3473.36
280.79	3123.15
281.00	2885.59
281.22	3174.35
281.43	3467.21
281.65	2852.82
281.86	2879.44
282.08	3346.38
282.29	3590.09
282.51	2885.59
282.73	2893.78
282.94	2971.60
283.16	3483.59
283.37	3114.96
283.59	3033.04
283.80	3393.48
284.02	3286.99
284.23	3024.85
284.45	2987.99
284.66	3180.50
284.88	3098.58
285.09	3008.47
285.31	3168.21
285.52	3368.91
285.74	2987.99
285.95	3145.68
286.17	3088.34
286.38	3555.27
286.60	3170.26
286.81	2942.93
287.03	2996.18
287.24	3264.46
287.46	3403.72
287.67	3143.63
287.89	3200.98
288.10	3289.04
288.32	3286.99
288.53	3100.62
288.75	3055.57
288.96	3426.25
289.18	3198.93
289.39	2971.60
289.61	3022.80
289.82	3737.54
290.04	3719.11
290.25	2901.97
290.47	3061.71
290.68	3160.02
290.90	3395.53
291.11	2787.29
291.33	3106.77
291.54	3102.67
291.76	3164.11
291.97	3127.25
292.18	3059.67
292.40	3198.93
292.61	3166.16
292.83	3311.57
293.04	3041.23
293.26	3366.86
293.47	3192.78
293.69	2891.73
293.90	2920.40
294.12	3553.23
294.33	3229.65
294.55	3106.77
294.76	3172.30
294.97	3608.52
295.19	3737.54
295.40	2955.22
295.62	3035.09
295.83	3401.68
296.05	3028.95
296.26	3213.26
296.48	2981.84
296.69	3256.27
296.90	3174.35
297.12	3121.10
297.33	3139.54
297.55	3280.85
297.76	3352.52
297.98	3037.14
298.19	3098.58
298.41	3317.71
298.62	3061.71
298.83	3174.35
299.05	3174.35
299.26	3125.20
299.48	3088.34
299.69	3090.38
299.90	2969.55
300.12	3082.19
300.33	3375.05
300.55	3051.47
300.76	3088.34
300.98	2998.23
301.19	3467.21
301.40	2985.94
301.62	2998.23
301.83	3405.77
302.05	3278.80
302.26	2969.55
302.47	3045.33
302.69	3114.96
302.90	3229.65
303.12	2930.64
303.33	3123.15
303.54	3682.25
303.76	3176.40
303.97	2914.26
304.19	3182.54
304.40	3129.30
304.61	3375.05
304.83	3114.96
305.04	3082.19
305.26	3479.50
305.47	3160.02
305.68	3006.42
305.90	2918.36
306.11	3495.88
306.33	3190.74
306.54	2852.82
306.75	2885.59
306.97	2985.94
307.18	3100.62
307.39	2951.12
307.61	3102.67
307.82	3198.93
308.04	3301.33
308.25	2828.24
308.46	3084.24
308.68	3321.81
308.89	3250.13
309.10	3125.20
309.32	2994.13
309.53	3262.41
309.74	3426.25
309.96	2947.03
310.17	3092.43
310.39	3217.36
310.60	3405.77
310.81	3055.57
311.03	2887.64
311.24	3422.16
311.45	3254.22
311.67	3305.42
311.88	3090.38
312.09	3168.21
312.31	3166.16
312.52	3092.43
312.73	3016.66
312.95	3067.86
313.16	3078.10
313.37	3217.36
313.59	3172.30
313.80	3461.07
314.01	3491.79
314.23	3004.37
314.44	2924.50
314.65	3112.91
314.87	3166.16
315.08	2955.22
315.29	3047.38
315.51	3076.05
315.72	2983.89
315.93	3129.30
316.15	3061.71
316.36	3123.15
316.57	3330.00
316.79	3018.71
317.00	2922.45
317.21	3344.33
317.43	3096.53
317.64	3076.05
317.85	2904.02
318.07	3147.73
318.28	3172.30
318.49	3086.29
318.70	3188.69
318.92	3278.80
319.13	3440.59
319.34	3223.50
319.56	2983.89
319.77	3370.96
319.98	3409.87
320.20	3301.33
320.41	3198.93
320.62	3377.10
320.83	3059.67
321.05	3233.74
321.26	3049.43
321.47	3327.95
321.69	3549.13
321.90	2910.16
322.11	2947.03
322.32	3254.22
322.54	3512.27
322.75	3041.23
322.96	3991.49
323.18	3006.42
323.39	2969.55
323.60	2871.25
323.81	3121.10
324.03	3160.02
324.24	3289.04
324.45	3117.01
324.66	2910.16
324.88	3524.55
325.09	3626.95
325.30	2959.31
325.52	2914.26
325.73	3354.57
325.94	3039.19
326.15	2916.31
326.37	2901.97
326.58	3426.25
326.79	3557.32
327.00	2832.34
327.22	3028.95
327.43	3241.93
327.64	3049.43
327.85	3145.68
328.07	3065.81
328.28	3731.40
328.49	3258.32
328.70	3026.90
328.92	2922.45
329.13	3270.61
329.34	3352.52
329.55	3237.84
329.76	3196.88
329.98	3172.30
330.19	3540.94
330.40	3090.38
330.61	3104.72
330.83	3481.55
331.04	3041.23
331.25	3061.71
331.46	3084.24
331.68	3055.57
331.89	3502.03
332.10	3057.62
332.31	2828.24
332.52	3250.13
332.74	3547.08
332.95	2811.86
333.16	3024.85
333.37	3465.16
333.58	3205.07
333.80	3076.05
334.01	2789.33
334.22	3272.65
334.43	3098.58
334.64	2992.08
334.86	2985.94
335.07	3112.91
335.28	3553.23
335.49	2873.30
335.70	3071.95
335.92	3569.61
336.13	3751.88
336.34	3100.62
336.55	3033.04
336.76	3278.80
336.98	2887.64
337.19	3084.24
337.40	3153.87
337.61	3839.94
337.82	3270.61
338.04	3157.97
338.25	2820.05
338.46	3260.37
338.67	3207.12
338.88	2983.89
339.09	2887.64
339.31	3182.54
339.52	2963.41
339.73	3016.66
339.94	2969.55
340.15	3375.05
340.36	3141.58
340.58	3061.71
340.79	2858.96
341.00	3420.11
341.21	3051.47
341.42	3223.50
341.63	2959.31
341.85	3407.82
342.06	3262.41
342.27	2992.08
342.48	3170.26
342.69	2916.31
342.90	3340.24
343.12	3399.63
343.33	2938.84
343.54	3563.47
343.75	3528.65
343.96	3119.06
344.17	2871.25
344.38	3295.18
344.60	3180.50
344.81	2965.46
345.02	3028.95
345.23	3549.13
345.44	3753.93
345.65	3041.23
345.86	3057.62
346.07	3272.65
346.29	3157.97
346.50	3229.65
346.71	3076.05
346.92	3524.55
347.13	3735.50
347.34	3151.82
347.55	2838.48
347.76	3327.95
347.98	3035.09
348.19	2959.31
348.40	3192.78
348.61	3106.77
348.82	3635.14
349.03	3119.06
349.24	2883.54
349.45	3678.15
349.66	2867.16
349.88	2994.13
350.09	2934.74
350.30	3573.71
350.51	3532.75
350.72	3196.88
350.93	2936.79
351.14	3260.37
351.35	3420.11
351.56	3004.37
351.77	3102.67
351.99	3395.53
352.20	3577.80
352.41	3127.25
352.62	2828.24
352.83	3190.74
353.04	3209.17
353.25	3002.32
353.46	2961.36
353.67	3463.12
353.88	2932.69
354.09	2951.12
354.30	3090.38
354.52	3469.26
354.73	3248.08
354.94	2996.18
355.15	2994.13
355.36	3629.00
355.57	3100.62
355.78	2953.17
355.99	2926.55
356.20	3213.26
356.41	3557.32
356.62	3041.23
356.83	3080.14
357.04	3524.55
357.25	2975.70
357.46	2987.99
357.68	2887.64
357.89	3147.73
358.10	3213.26
358.31	2985.94
358.52	3086.29
358.73	3063.76
358.94	3086.29
359.15	2981.84
359.36	3098.58
359.57	3282.89
359.78	3205.07
359.99	3180.50
360.20	2871.25
360.41	3225.55
360.62	3407.82
360.83	3139.54
361.04	3000.27
361.25	3338.19
361.46	3608.52
361.67	3119.06
361.88	2967.51
362.09	3495.88
362.30	3274.70
362.51	2944.98
362.72	3039.19
362.93	3471.31
363.14	3401.68
363.35	3043.28
363.56	2813.91
363.78	3524.55
363.99	3401.68
364.20	3028.95
364.41	3053.52
364.62	3672.01
364.83	3330.00
365.04	2987.99
365.25	3024.85
365.46	3669.96
365.67	3139.54
365.88	3155.92
366.09	3016.66
366.30	3284.94
366.51	3346.38
366.72	2885.59
366.93	2889.68
367.14	3258.32
367.35	3502.03
367.56	2891.73
367.77	3157.97
367.98	3291.09
368.18	3389.39
368.39	3155.92
368.60	2992.08
368.81	3444.68
369.02	3319.76
369.23	2983.89
369.44	2887.64
369.65	3246.03
369.86	3436.49
370.07	3192.78
370.28	2908.12
370.49	3362.76
370.70	3393.48
370.91	2863.06
371.12	2799.57
371.33	3518.41
371.54	3176.40
371.75	3166.16
371.96	2678.74
372.17	3368.91
372.38	3262.41
372.59	3098.58
372.80	2926.55
373.01	3250.13
373.22	3327.95
373.43	3026.90
373.64	2969.55
373.85	3491.79
374.06	3682.25
374.26	3094.48
374.47	3082.19
374.68	3506.12
374.89	3305.42
375.10	2885.59
375.31	3047.38
375.52	3223.50
375.73	3213.26
375.94	2889.68
376.15	3092.43
376.36	3037.14
376.57	3196.88
376.78	3098.58
376.99	3065.81
377.20	3495.88
377.40	3139.54
377.61	3272.65
377.82	2969.55
378.03	3569.61
378.24	3463.12
378.45	3059.67
378.66	3100.62
378.87	2987.99
379.08	2975.70
379.29	2992.08
379.50	3209.17
379.71	3286.99
379.91	3418.06
380.12	2961.36
380.33	3147.73
380.54	3241.93
380.75	3332.05
380.96	3006.42
381.17	3061.71
381.38	3295.18
381.59	3225.55
381.80	2987.99
382.00	3188.69
382.21	3299.28
382.42	3692.49
382.63	3352.52
382.84	3086.29
383.05	3485.64
383.26	3567.56
383.47	3151.82
383.68	2910.16
383.88	3424.20
384.09	3291.09
384.30	3262.41
384.51	3135.44
384.72	3246.03
384.93	3020.75
385.14	3076.05
385.35	3262.41
385.55	3074.00
385.76	3528.65
385.97	3026.90
386.18	2926.55
386.39	3055.57
386.60	3117.01
386.81	2981.84
387.02	2944.98
387.22	3006.42
387.43	3393.48
387.64	3090.38
387.85	3303.37
388.06	3280.85
388.27	4313.02
388.48	7794.57
388.68	11913.03
388.89	15079.19
389.10	16254.73
389.31	16156.43
389.52	13002.55
389.73	11241.30
389.93	10260.32
390.14	9248.63
390.35	8435.58
390.56	7628.68
390.77	6561.69
390.98	5044.15
391.18	4208.58
391.39	3862.47
391.60	3373.00
391.81	3248.08
392.02	3018.71
392.23	3753.93
392.43	3291.09
392.64	3176.40
392.85	3078.10
393.06	3585.99
393.27	3319.76
393.47	2959.31
393.68	3164.11
393.89	3190.74
394.10	3518.41
394.31	3000.27
394.52	3006.42
394.72	3155.92
394.93	3530.70
395.14	3028.95
395.35	3160.02
395.56	3168.21
395.76	3229.65
395.97	2977.75
396.18	3160.02
396.39	3297.23
396.60	3876.80
396.80	3340.24
397.01	3375.05
397.22	3426.25
397.43	3459.02
397.64	2977.75
397.84	3082.19
398.05	3692.49
398.26	3227.60
398.47	3143.63
398.67	3268.56
398.88	3225.55
399.09	3391.44
399.30	3012.56
399.51	3094.48
399.71	3106.77
399.92	3299.28
400.13	3123.15
400.34	2992.08
400.54	3319.76
400.75	3614.66
400.96	3252.17
401.17	3366.86
401.37	3401.68
401.58	3221.45
401.79	2996.18
402.00	3151.82
402.21	3794.89
402.41	3420.11
402.62	3348.43
402.83	3473.36
403.04	3700.68
403.24	4136.90
403.45	3178.45
403.66	3364.81
403.87	3600.33
404.07	3540.94
404.28	3344.33
404.49	3373.00
404.70	3373.00
404.90	3428.30
405.11	3055.57
405.32	3104.72
405.52	3166.16
405.73	3178.45
405.94	2990.03
406.15	3045.33
406.35	3405.77
406.56	3389.39
406.77	3106.77
406.98	3045.33
407.18	3162.06
407.39	3647.43
407.60	3057.62
407.80	3037.14
408.01	3176.40
408.22	3444.68
408.43	2942.93
408.63	3223.50
408.84	3465.16
409.05	3553.23
409.25	2983.89
409.46	2955.22
409.67	3182.54
409.88	3160.02
410.08	3119.06
410.29	3067.86
410.50	3491.79
410.70	3354.57
410.91	2969.55
411.12	3045.33
411.32	3317.71
411.53	3100.62
411.74	3033.04
411.95	3092.43
412.15	3301.33
412.36	3420.11
412.57	3194.83
412.77	3221.45
412.98	3215.31
413.19	3213.26
413.39	3127.25
413.60	3084.24
413.81	3594.19
414.01	3117.01
414.22	3137.49
414.43	3239.89
414.63	3243.98
414.84	3487.69
415.05	3114.96
415.25	2959.31
415.46	3356.62
415.67	3108.82
415.87	3035.09
416.08	2992.08
416.29	3213.26
416.49	3401.68
416.70	3004.37
416.91	3098.58
417.11	3198.93
417.32	3487.69
417.53	3172.30
417.73	3084.24
417.94	3352.52
418.15	3352.52
418.35	3096.53
418.56	3067.86
418.77	3774.41
418.97	3303.37
419.18	3057.62
419.38	2748.37
419.59	3223.50
419.80	3612.62
420.00	3004.37
420.21	3008.47
420.42	3542.99
420.62	3350.48
420.83	2987.99
421.04	2959.31
421.24	3239.89
421.45	3450.83
421.65	3055.57
421.86	3147.73
422.07	3573.71
422.27	3405.77
422.48	2969.55
422.69	2893.78
422.89	3252.17
423.10	3119.06
423.30	3055.57
423.51	3141.58
423.72	3403.72
423.92	3393.48
424.13	2938.84
424.33	3074.00
424.54	3508.17
424.75	3254.22
424.95	3237.84
425.16	2961.36
425.36	3184.59
425.57	3426.25
425.78	3135.44
425.98	3221.45
426.19	3205.07
426.39	3096.53
426.60	3137.49
426.81	3192.78
427.01	3373.00
427.22	3117.01
427.42	2854.87
427.63	2998.23
427.83	3442.64
428.04	3596.23
428.25	3055.57
428.45	3198.93
428.66	3442.64
428.86	3239.89
429.07	3061.71
429.28	3119.06
429.48	3286.99
429.69	3160.02
429.89	3149.78
430.10	3020.75
430.30	3434.44
430.51	3450.83
430.71	2977.75
430.92	3078.10
431.13	3250.13
431.33	3395.53
431.54	3143.63
431.74	3205.07
431.95	3735.50
432.15	3069.91
432.36	3053.52
432.56	3174.35
432.77	3719.11
432.98	3676.10
433.18	3090.38
433.39	2959.31
433.59	3274.70
433.80	3762.12
434.00	3178.45
434.21	3055.57
434.41	3215.31
434.62	3760.07
434.82	2963.41
435.03	3028.95
435.23	3364.81
435.44	2926.55
435.64	2987.99
435.85	3090.38
436.06	3481.55
436.26	3467.21
436.47	3043.28
436.67	3049.43
436.88	3280.85
437.08	3409.87
437.29	3112.91
437.49	3200.98
437.70	3540.94
437.90	3254.22
438.11	3270.61
438.31	3135.44
438.52	3549.13
438.72	3504.07
438.93	3442.64
439.13	3200.98
439.34	3428.30
439.54	3221.45
439.75	3223.50
439.95	3147.73
440.16	3094.48
440.36	3254.22
440.57	3033.04
440.77	3033.04
440.98	3309.52
441.18	3352.52
441.39	2928.60
441.59	2863.06
441.80	3745.73
442.00	3219.41
442.21	3137.49
442.41	2910.16
442.62	3495.88
442.82	3184.59
443.02	3049.43
443.23	3035.09
443.43	3286.99
443.64	3483.59
443.84	2904.02
444.05	3147.73
444.25	3309.52
444.46	3207.12
444.66	3129.30
444.87	3266.51
445.07	3012.56
445.28	3231.69
445.48	3203.02
445.69	3162.06
445.89	3860.42
446.09	3160.02
446.30	3370.96
446.50	3495.88
446.71	4984.76
446.91	6197.15
447.12	6969.24
447.32	7600.01
447.53	7675.79
447.73	6440.86
447.93	5560.24
448.14	5216.18
448.34	5394.35
448.55	4456.38
448.75	4528.06
448.96	4151.23
449.16	3985.35
449.36	3889.09
449.57	3381.20
449.77	3147.73
449.98	3135.44
450.18	3360.72
450.39	3018.71
450.59	3342.28
450.79	3246.03
451.00	3139.54
451.20	3235.79
451.41	3074.00
451.61	3393.48
451.81	3248.08
452.02	3035.09
452.22	3121.10
452.43	3108.82
452.63	3074.00
452.84	3108.82
453.04	2994.13
453.24	3264.46
453.45	3141.58
453.65	3123.15
453.86	3041.23
454.06	3262.41
454.26	3272.65
454.47	2979.79
454.67	3213.26
454.87	3346.38
455.08	3246.03
455.28	3188.69
455.49	3190.74
455.69	3100.62
455.89	3698.63
456.10	3194.83
456.30	2992.08
456.51	3502.03
456.71	3375.05
456.91	3092.43
457.12	3049.43
457.32	3430.35
457.52	3082.19
457.73	3237.84
457.93	3274.70
458.14	3168.21
458.34	2947.03
458.54	3166.16
458.75	3059.67
458.95	3534.79
459.15	3471.31
459.36	3131.34
459.56	2985.94
459.76	3821.51
459.97	3205.07
460.17	3010.51
460.37	3164.11
460.58	3330.00
460.78	3387.34
460.99	3106.77
461.19	3080.14
461.39	3157.97
461.60	3209.17
461.80	3086.29
462.00	2938.84
462.21	3258.32
462.41	3098.58
462.61	2924.50
462.82	2832.34
463.02	3348.43
463.22	3270.61
463.43	3121.10
463.63	2920.40
463.83	3563.47
464.04	3434.44
464.24	3008.47
464.44	3069.91
464.64	3258.32
464.85	3403.72
465.05	3123.15
465.25	3043.28
465.46	3106.77
465.66	3338.19
465.86	3028.95
466.07	3016.66
466.27	3205.07
466.47	2910.16
466.68	2944.98
466.88	3229.65
467.08	3452.88
467.29	3495.88
467.49	3086.29
467.69	3168.21
467.89	3352.52
468.10	3250.13
468.30	3108.82
468.50	3205.07
468.71	3420.11
468.91	2965.46
469.11	3311.57
469.31	3178.45
469.52	3053.52
469.72	3669.96
469.92	3356.62
470.13	3008.47
470.33	3254.22
470.53	3377.10
470.73	3448.78
470.94	3889.09
471.14	4138.94
471.34	4704.18
471.54	4351.93
471.75	4089.79
471.95	3794.89
472.15	3930.05
472.36	3571.66
472.56	3413.96
472.76	3790.79
472.96	3760.07
473.17	3397.58
473.37	3262.41
473.57	3217.36
473.77	3442.64
473.98	3252.17
474.18	2920.40
474.38	4018.11
474.58	3262.41
474.79	2914.26
474.99	3170.26
475.19	3467.21
475.39	3074.00
475.60	3147.73
475.80	2975.70
476.00	3381.20
476.20	3198.93
476.41	3125.20
476.61	3155.92
476.81	3577.80
477.01	3129.30
477.21	3350.48
477.42	3106.77
477.62	3147.73
477.82	3454.92
478.02	2979.79
478.23	3117.01
478.43	3028.95
478.63	3239.89
478.83	3059.67
479.03	3108.82
479.24	3612.62
479.44	3704.78
479.64	2977.75
479.84	2779.09
480.04	3153.87
480.25	3436.49
480.45	2987.99
480.65	3045.33
480.85	3590.09
481.06	3192.78
481.26	3209.17
481.46	3049.43
481.66	3442.64
481.86	3133.39
482.06	3348.43
482.27	3098.58
482.47	3071.95
482.67	3397.58
482.87	3045.33
483.07	3172.30
483.28	3235.79
483.48	3057.62
483.68	3047.38
483.88	2944.98
484.08	2840.53
484.29	3004.37
484.49	3020.75
484.69	2904.02
484.89	3598.28
485.09	3485.64
485.29	3084.24
485.50	3225.55
485.70	3182.54
485.90	3516.36
486.10	3178.45
486.30	3014.61
486.50	3516.36
486.71	3250.13
486.91	3131.34
487.11	3141.58
487.31	2967.51
487.51	3397.58
487.71	3014.61
487.91	3039.19
488.12	3106.77
488.32	2803.67
488.52	3024.85
488.72	2844.63
488.92	3334.09
489.12	3506.12
489.32	3151.82
489.53	3012.56
489.73	2994.13
489.93	3674.06
490.13	3012.56
490.33	2934.74
490.53	3278.80
490.73	3608.52
490.94	2936.79
491.14	3123.15
491.34	3426.25
491.54	3461.07
491.74	4011.97
491.94	4626.36
492.14	5054.39
492.34	5177.26
492.54	4802.49
492.75	4104.13
492.95	4429.76
493.15	4009.92
493.35	3829.70
493.55	3721.16
493.75	3647.43
493.95	3909.57
494.15	3317.71
494.35	3192.78
494.56	3295.18
494.76	3149.78
494.96	3211.22
495.16	3004.37
495.36	3280.85
495.56	3313.61
495.76	3127.25
495.96	3010.51
496.16	3104.72
496.36	3665.86
496.56	3069.91
496.77	3047.38
496.97	3334.09
497.17	3555.27
497.37	2906.07
497.57	3164.11
497.77	3260.37
497.97	3102.67
498.17	3114.96
498.37	3071.95
498.57	3420.11
498.77	3309.52
498.97	3190.74
499.17	3379.15
499.38	3207.12
499.58	3373.00
499.78	3205.07
499.98	3184.59
500.18	3213.26
500.38	3026.90
500.58	3286.99
500.78	3680.20
500.98	6090.66
501.18	8228.74
501.38	9738.09
501.58	10741.60
501.78	10858.33
501.98	9097.08
502.18	7567.24
502.38	6616.99
502.58	6428.57
502.78	5644.20
502.98	5380.01
503.18	5091.25
503.38	4915.12
503.59	4192.19
503.79	4038.59
503.99	3706.82
504.19	3934.15
504.39	3995.59
504.59	3657.67
504.79	3559.37
504.99	3930.05
505.19	3526.60
505.39	3286.99
505.59	3463.12
505.79	3686.34
505.99	3618.76
506.19	3155.92
506.39	3366.86
506.59	3166.16
506.79	3205.07
506.99	3325.90
507.19	3057.62
507.39	3375.05
507.59	2983.89
507.79	3086.29
507.99	3051.47
508.19	3264.46
508.39	3157.97
508.59	3088.34
508.79	3190.74
508.99	3594.19
509.19	3082.19
509.39	3127.25
509.59	2916.31
509.79	3082.19
509.99	3235.79
510.19	3180.50
510.39	3207.12
510.59	3342.28
510.79	3188.69
510.99	2934.74
511.19	3008.47
511.39	3674.06
511.59	3504.07
511.79	3229.65
511.99	3057.62
512.19	3573.71
512.38	3235.79
512.58	3010.51
512.78	2920.40
512.98	3602.38
513.18	3631.05
513.38	3051.47
513.58	3067.86
513.78	3211.22
513.98	3237.84
514.18	3035.09
514.38	3094.48
514.58	3342.28
514.78	3137.49
514.98	2863.06
515.18	3082.19
515.38	3049.43
515.58	3579.85
515.78	2977.75
515.98	2990.03
516.18	3330.00
516.38	3211.22
516.57	3033.04
516.77	3010.51
516.97	3473.36
517.17	3112.91
517.37	2832.34
517.57	3106.77
517.77	3262.41
517.97	3114.96
518.17	3106.77
518.37	2994.13
518.57	3153.87
518.77	3172.30
518.97	3078.10
519.16	3106.77
519.36	3549.13
519.56	3127.25
519.76	3078.10
519.96	3139.54
520.16	3510.22
520.36	3080.14
520.56	3270.61
520.76	2983.89
520.96	3219.41
521.16	3461.07
521.35	3282.89
521.55	3108.82
521.75	3278.80
521.95	3176.40
522.15	3030.99
522.35	2942.93
522.55	3143.63
522.75	3360.72
522.95	2961.36
523.14	2885.59
523.34	3221.45
523.54	3155.92
523.74	3231.69
523.94	3149.78
524.14	3022.80
524.34	3344.33
524.54	3262.41
524.73	3117.01
524.93	3393.48
525.13	3311.57
525.33	2881.49
525.53	3248.08
525.73	3370.96
525.93	3274.70
526.13	3028.95
526.32	2975.70
526.52	3512.27
526.72	3446.73
526.92	3119.06
527.12	3024.85
527.32	2973.65
527.52	3338.19
527.71	3039.19
527.91	3004.37
528.11	3147.73
528.31	3194.83
528.51	2924.50
528.71	3200.98
528.90	3401.68
529.10	3467.21
529.30	3063.76
529.50	2861.01
529.70	3330.00
529.90	3190.74
530.09	3223.50
530.29	2934.74
530.49	3135.44
530.69	3846.09
530.89	3180.50
531.09	3291.09
531.28	3182.54
531.48	3563.47
531.68	3033.04
531.88	3135.44
532.08	3442.64
532.28	3221.45
532.47	3166.16
532.67	3102.67
532.87	3346.38
533.07	3059.67
533.27	3117.01
533.46	3137.49
533.66	3243.98
533.86	3278.80
534.06	3106.77
534.26	3059.67
534.45	3256.27
534.65	3510.22
534.85	3180.50
535.05	2992.08
535.25	3448.78
535.44	3010.51
535.64	3196.88
535.84	3098.58
536.04	3176.40
536.24	3215.31
536.43	3028.95
536.63	3055.57
536.83	3254.22
537.03	3266.51
537.22	2934.74
537.42	2885.59
537.62	3370.96
537.82	3078.10
538.02	3282.89
538.21	3041.23
538.41	3901.38
538.61	3444.68
538.81	3074.00
539.00	3207.12
539.20	2967.51
539.40	3141.58
539.60	3049.43
539.79	3254.22
539.99	3243.98
540.19	3106.77
540.39	3043.28
540.58	3141.58
540.78	3467.21
540.98	3262.41
541.18	3203.02
541.37	3049.43
541.57	3256.27
541.77	3305.42
541.97	3004.37
542.16	2920.40
542.36	3252.17
542.56	3233.74
542.76	3205.07
542.95	3131.34
543.15	3413.96
543.35	3522.51
543.54	3037.14
543.74	2967.51
543.94	3553.23
544.14	3143.63
544.33	3114.96
544.53	3037.14
544.73	3192.78
544.93	3223.50
545.12	3053.52
545.32	3084.24
545.52	3274.70
545.71	3049.43
545.91	3022.80
546.11	3033.04
546.30	3074.00
546.50	3254.22
546.70	3268.56
546.90	3049.43
547.09	3012.56
547.29	3348.43
547.49	3151.82
547.68	3033.04
547.88	3186.64
548.08	3424.20
548.27	3432.40
548.47	2979.79
548.67	3114.96
548.87	3362.76
549.06	3100.62
549.26	3030.99
549.46	3295.18
549.65	3194.83
549.85	3084.24
550.05	3000.27
550.24	3006.42
550.44	3295.18
550.64	3170.26
550.83	3094.48
551.03	3575.75
551.23	3489.74
551.42	3051.47
551.62	3145.68
551.82	3305.42
552.01	3217.36
552.21	3327.95
552.41	3194.83
552.60	3514.31
552.80	3225.55
553.00	3006.42
553.19	3155.92
553.39	3592.14
553.59	3049.43
553.78	3205.07
553.98	3010.51
554.17	3004.37
554.37	3327.95
554.57	3100.62
554.76	2904.02
554.96	3188.69
555.16	3270.61
555.35	3262.41
555.55	3307.47
555.75	3379.15
555.94	3461.07
556.14	2897.88
556.33	3094.48
556.53	3293.13
556.73	3291.09
556.92	3057.62
557.12	2889.68
557.32	3717.06
557.51	3520.46
557.71	3125.20
557.90	3233.74
558.10	3567.56
558.30	3145.68
558.49	3069.91
558.69	3059.67
558.88	3477.45
559.08	3387.34
559.28	3129.30
559.47	3155.92
559.67	3432.40
559.86	3712.97
560.06	3059.67
560.26	3096.53
560.45	3354.57
560.65	3291.09
560.84	3413.96
561.04	2959.31
561.24	3370.96
561.43	3078.10
561.63	3250.13
561.82	3141.58
562.02	3391.44
562.22	3069.91
562.41	2981.84
562.61	3047.38
562.80	3102.67
563.00	3717.06
563.19	3153.87
563.39	3063.76
563.59	3418.06
563.78	3035.09
563.98	2871.25
564.17	3088.34
564.37	2944.98
564.56	3176.40
564.76	3008.47
564.96	3207.12
565.15	3362.76
565.35	3831.75
565.54	3080.14
565.74	3090.38
565.93	3340.24
566.13	3264.46
566.32	3166.16
566.52	3200.98
566.71	3203.02
566.91	3499.98
567.11	3239.89
567.30	3020.75
567.50	3409.87
567.69	3373.00
567.89	3010.51
568.08	2842.58
568.28	3246.03
568.47	3057.62
568.67	3215.31
568.86	3141.58
569.06	3450.83
569.25	3229.65
569.45	2998.23
569.64	3139.54
569.84	3246.03
570.04	3250.13
570.23	3108.82
570.43	3108.82
570.62	3248.08
570.82	3612.62
571.01	3020.75
571.21	3078.10
571.40	3147.73
571.60	3432.40
571.79	3170.26
571.99	3147.73
572.18	3119.06
572.38	3323.85
572.57	3151.82
572.77	3143.63
572.96	3741.64
573.16	3286.99
573.35	3071.95
573.55	3248.08
573.74	3418.06
573.94	3200.98
574.13	3030.99
574.33	3237.84
574.52	3485.64
574.71	3250.13
574.91	3207.12
575.10	2914.26
575.30	3114.96
575.49	3094.48
575.69	3033.04
575.88	3022.80
576.08	3248.08
576.27	3510.22
576.47	3008.47
576.66	3119.06
576.86	3626.95
577.05	3373.00
577.25	3035.09
577.44	3299.28
577.64	3153.87
577.83	3446.73
578.02	3039.19
578.22	3237.84
578.41	3614.66
578.61	3151.82
578.80	2914.26
579.00	3172.30
579.19	3289.04
579.39	3334.09
579.58	3192.78
579.77	3084.24
579.97	3581.90
580.16	3583.95
580.36	3252.17
580.55	3137.49
580.75	3448.78
580.94	3256.27
581.13	3286.99
581.33	3278.80
581.52	3229.65
581.72	3622.86
581.91	3168.21
582.11	3061.71
582.30	3454.92
582.49	3436.49
582.69	3403.72
582.88	3102.67
583.08	3327.95
583.27	3524.55
583.47	3231.69
583.66	3041.23
583.85	3188.69
584.05	3213.26
584.24	3200.98
584.44	3067.86
584.63	3514.31
584.82	3504.07
585.02	3348.43
585.21	3186.64
585.41	3332.05
585.60	3317.71
585.79	3274.70
585.99	3332.05
586.18	3327.95
586.37	4259.78
586.57	6344.61
586.76	17817.33
586.96	37328.33
587.15	50517.25
587.34	59122.81
587.54	62952.51
587.73	55780.52
587.93	40770.96
588.12	31301.15
588.31	25089.67
588.51	22587.05
588.70	21016.26
588.89	18489.06
589.09	15863.57
589.28	13684.53
589.47	10854.23
589.67	8281.99
589.86	6530.97
590.06	5089.20
590.25	4605.88
590.44	3880.90
590.64	3551.18
590.83	3594.19
591.02	3575.75
591.22	3049.43
591.41	3225.55
591.60	3209.17
591.80	3815.37
591.99	2934.74
592.18	3166.16
592.38	3504.07
592.57	3194.83
592.76	3098.58
592.96	3166.16
593.15	3192.78
593.34	3471.31
593.54	3065.81
593.73	3176.40
593.92	3456.97
594.12	3436.49
594.31	3123.15
594.50	3313.61
594.70	3336.14
594.89	3778.50
595.08	2947.03
595.28	3217.36
595.47	3909.57
595.66	3540.94
595.86	2932.69
596.05	2936.79
596.24	3170.26
596.43	3631.05
596.63	3098.58
596.82	3254.22
597.01	3385.29
597.21	3540.94
597.40	3104.72
597.59	3145.68
597.79	3198.93
597.98	3387.34
598.17	3151.82
598.36	3143.63
598.56	3454.92
598.75	3176.40
598.94	3164.11
599.14	3108.82
599.33	3192.78
599.52	3459.02
599.71	3133.39
599.91	3090.38
600.10	3319.76
600.29	3274.70
600.48	3178.45
600.68	3186.64
600.87	3319.76
601.06	3188.69
601.26	3182.54
601.45	3194.83
601.64	3209.17
601.83	3641.29
602.03	3059.67
602.22	2996.18
602.41	3467.21
602.60	3788.74
602.80	3147.73
602.99	3227.60
603.18	3125.20
603.37	3313.61
603.57	3008.47
603.76	3106.77
603.95	3510.22
604.14	3299.28
604.34	2985.94
604.53	3024.85
604.72	3356.62
604.91	3436.49
605.10	3131.34
605.30	2883.54
605.49	3692.49
605.68	3434.44
605.87	3080.14
606.07	3035.09
606.26	3389.39
606.45	3454.92
606.64	3022.80
606.84	2953.17
607.03	3295.18
607.22	3469.26
607.41	3141.58
607.60	2975.70
607.80	3522.51
607.99	3338.19
608.18	3143.63
608.37	3139.54
608.56	3100.62
608.76	3502.03
608.95	3254.22
609.14	3082.19
609.33	3461.07
609.52	3526.60
609.72	3215.31
609.91	3207.12
610.10	3338.19
610.29	3583.95
610.48	3155.92
610.68	3184.59
610.87	3325.90
611.06	3397.58
611.25	3037.14
611.44	3207.12
611.63	3192.78
611.83	3483.59
612.02	2887.64
612.21	3114.96
612.40	2922.45
612.59	3082.19
612.79	2955.22
612.98	3106.77
613.17	3577.80
613.36	3278.80
613.55	3196.88
613.74	3157.97
613.93	3266.51
614.13	3336.14
614.32	3291.09
614.51	3094.48
614.70	3272.65
614.89	3307.47
615.08	3223.50
615.28	3426.25
615.47	3098.58
615.66	3413.96
615.85	3149.78
616.04	3100.62
616.23	3348.43
616.42	3278.80
616.62	3002.32
616.81	3112.91
617.00	3317.71
617.19	3336.14
617.38	3094.48
617.57	3196.88
617.76	3418.06
617.95	3393.48
618.15	3164.11
618.34	3278.80
618.53	3024.85
618.72	3542.99
618.91	3205.07
619.10	3166.16
619.29	3268.56
619.48	3291.09
619.68	2922.45
619.87	3078.10
620.06	3008.47
620.25	3426.25
620.44	3092.43
620.63	3053.52
620.82	3360.72
621.01	3264.46
621.20	3102.67
621.39	3145.68
621.59	3252.17
621.78	3227.60
621.97	3043.28
622.16	3194.83
622.35	3407.82
622.54	3436.49
622.73	3225.55
622.92	2869.20
623.11	3469.26
623.30	3139.54
623.49	3254.22
623.68	2961.36
623.88	3489.74
624.07	3147.73
624.26	3125.20
624.45	2969.55
624.64	3286.99
624.83	3321.81
625.02	3078.10
625.21	3166.16
625.40	3332.05
625.59	3588.04
625.78	3139.54
625.97	3184.59
626.16	3532.75
626.35	3495.88
626.54	3059.67
626.74	3332.05
626.93	3215.31
627.12	3164.11
627.31	3157.97
627.50	3082.19
627.69	3493.83
627.88	3071.95
628.07	3057.62
628.26	2930.64
628.45	3190.74
628.64	3123.15
628.83	3016.66
629.02	2994.13
629.21	3403.72
629.40	3379.15
629.59	2979.79
629.78	2996.18
629.97	3375.05
630.16	3315.66
630.35	3028.95
630.54	3139.54
630.73	3180.50
630.92	3225.55
631.11	2922.45
631.30	3170.26
631.49	3504.07
631.68	3237.84
631.87	3069.91
632.06	2994.13
632.25	3792.84
632.44	3213.26
632.63	3151.82
632.82	3147.73
633.01	3237.84
633.20	3264.46
633.39	3071.95
633.58	2940.88
633.77	3401.68
633.96	3422.16
634.15	3241.93
634.34	3174.35
634.53	3241.93
634.72	3129.30
634.91	2920.40
635.10	3137.49
635.29	3479.50
635.48	3313.61
635.67	2969.55
635.86	2959.31
636.05	3504.07
636.24	3280.85
636.43	3102.67
636.62	3207.12
636.81	2854.87
637.00	3182.54
637.19	3082.19
637.38	3057.62
637.57	3194.83
637.76	3319.76
637.95	3250.13
638.14	3213.26
638.33	3413.96
638.52	3370.96
638.71	2969.55
638.89	3008.47
639.08	3876.80
639.27	3491.79
639.46	3366.86
639.65	3631.05
639.84	3856.33
640.03	4048.83
640.22	3688.39
640.41	3489.74
640.60	3491.79
640.79	3510.22
640.98	3305.42
641.17	3366.86
641.36	3592.14
641.55	3487.69
641.74	2957.27
641.92	3030.99
642.11	3117.01
642.30	3141.58
642.49	2971.60
642.68	3100.62
642.87	3284.94
643.06	3424.20
643.25	2906.07
643.44	2992.08
643.63	3237.84
643.82	3360.72
644.00	3026.90
644.19	3065.81
644.38	3051.47
644.57	3379.15
644.76	3141.58
644.95	3125.20
645.14	3395.53
645.33	3248.08
645.52	3192.78
645.71	2824.15
645.89	3080.14
646.08	3297.23
646.27	3082.19
646.46	3319.76
646.65	3084.24
646.84	3327.95
647.03	3033.04
647.22	3178.45
647.40	3309.52
647.59	3225.55
647.78	2947.03
647.97	3006.42
648.16	3151.82
648.35	3487.69
648.54	3301.33
648.73	3121.10
648.91	3387.34
649.10	3262.41
649.29	2955.22
649.48	3078.10
649.67	3397.58
649.86	3254.22
650.05	3133.39
650.23	3336.14
650.42	3110.86
650.61	3608.52
650.80	3291.09
650.99	3334.09
651.18	3516.36
651.36	3631.05
651.55	3074.00
651.74	3262.41
651.93	3198.93
652.12	3166.16
652.31	3106.77
652.49	3055.57
652.68	3098.58
652.87	3581.90
653.06	3168.21
653.25	3327.95
653.44	3276.75
653.62	3567.56
653.81	3137.49
654.00	2994.13
654.19	3358.67
654.38	3956.68
654.56	3168.21
654.75	2930.64
654.94	3387.34
655.13	3270.61
655.32	3053.52
655.51	3149.78
655.69	3166.16
655.88	3338.19
656.07	2834.39
656.26	3112.91
656.45	3051.47
656.63	3256.27
656.82	3088.34
657.01	3450.83
657.20	3209.17
657.38	3596.23
657.57	2940.88
657.76	2836.44
657.95	3391.44
658.14	3141.58
658.32	3176.40
658.51	2918.36
658.70	3313.61
658.89	3315.66
659.08	3190.74
659.26	3252.17
659.45	3155.92
659.64	3387.34
659.83	3071.95
660.01	3506.12
660.20	3336.14
660.39	3561.42
660.58	2789.33
660.76	3151.82
660.95	2985.94
661.14	3307.47
661.33	2944.98
661.51	3100.62
661.70	3254.22
661.89	3393.48
662.08	3143.63
662.26	2908.12
662.45	3035.09
662.64	3575.75
662.83	3176.40
663.01	2922.45
663.20	3117.01
663.39	3475.40
663.58	3098.58
663.76	2959.31
663.95	3405.77
664.14	3041.23
664.32	3133.39
664.51	2934.74
664.70	2938.84
664.89	3241.93
665.07	2920.40
665.26	3264.46
665.45	2912.21
665.64	3373.00
665.82	3057.62
666.01	3184.59
666.20	2985.94
666.38	3456.97
666.57	3375.05
666.76	5556.14
666.95	13000.51
667.13	20315.85
667.32	24809.09
667.51	27821.66
667.69	28857.93
667.88	24008.34
668.07	17293.05
668.25	14794.53
668.44	12910.40
668.63	10989.40
668.81	9877.35
669.00	8419.20
669.19	7643.02
669.38	6784.92
669.56	5636.01
669.75	4902.84
669.94	4478.91
670.12	3809.22
670.31	3463.12
670.50	3430.35
670.68	3489.74
670.87	3334.09
671.06	3024.85
671.24	3194.83
671.43	3600.33
671.62	3260.37
671.80	3123.15
671.99	3231.69
672.18	3323.85
672.36	3442.64
672.55	3180.50
672.74	3203.02
672.92	3295.18
673.11	3377.10
673.29	2869.20
673.48	3305.42
673.67	3114.96
673.85	3524.55
674.04	3022.80
674.23	3127.25
674.41	3659.72
674.60	3039.19
674.79	2906.07
674.97	2969.55
675.16	3426.25
675.34	3485.64
675.53	3067.86
675.72	3108.82
675.90	3702.73
676.09	3217.36
676.28	3231.69
676.46	2850.77
676.65	3469.26
676.83	3106.77
677.02	3198.93
677.21	3188.69
677.39	3330.00
677.58	3182.54
677.77	3039.19
677.95	3024.85
678.14	3186.64
678.32	3176.40
678.51	3022.80
678.70	3432.40
678.88	3172.30
679.07	3334.09
679.25	3071.95
679.44	3135.44
679.63	3121.10
679.81	3305.42
680.00	3397.58
680.18	3188.69
680.37	3649.48
680.55	3295.18
680.74	2930.64
680.93	2818.00
681.11	3409.87
681.30	3297.23
681.48	3100.62
681.67	3117.01
681.85	3246.03
682.04	3112.91
682.23	3155.92
682.41	3248.08
682.60	3295.18
682.78	3174.35
682.97	2979.79
683.15	3139.54
683.34	3319.76
683.53	3534.79
683.71	2924.50
683.90	3102.67
684.08	3633.10
684.27	3178.45
684.45	3153.87
684.64	3291.09
684.82	3243.98
685.01	3377.10
685.19	3082.19
685.38	3368.91
685.57	3248.08
685.75	3149.78
685.94	3069.91
686.12	2969.55
686.31	3241.93
686.49	3524.55
686.68	2879.44
686.86	3057.62
687.05	3246.03
687.23	3565.51
687.42	3143.63
687.60	2895.83
687.79	3475.40
687.97	3565.51
688.16	3270.61
688.34	3239.89
688.53	3000.27
688.71	3346.38
688.90	3385.29
689.08	3098.58
689.27	2967.51
689.45	3461.07
689.64	3205.07
689.82	3133.39
690.01	3307.47
690.19	3291.09
690.38	3114.96
690.56	3149.78
690.75	3137.49
690.93	3057.62
691.12	3188.69
691.30	3086.29
691.49	3164.11
691.67	3272.65
691.86	3291.09
692.04	2975.70
692.23	3196.88
692.41	3299.28
692.60	3434.44
692.78	3360.72
692.97	3309.52
693.15	3395.53
693.34	3276.75
693.52	3344.33
693.71	3190.74
693.89	3272.65
694.08	2879.44
694.26	3139.54
694.44	3430.35
694.63	3362.76
694.81	3055.57
695.00	3041.23
695.18	3508.17
695.37	3770.31
695.55	3235.79
695.74	3149.78
695.92	3108.82
696.10	3502.03
696.29	2963.41
696.47	3188.69
696.66	3086.29
696.84	3039.19
697.03	3188.69
697.21	3409.87
697.40	4585.40
697.58	3518.41
697.76	3006.42
697.95	3051.47
698.13	3051.47
698.32	3131.34
698.50	3037.14
698.68	3174.35
698.87	3295.18
699.05	3663.82
699.24	3133.39
699.42	3086.29
699.61	3348.43
699.79	3352.52
699.97	3110.86
700.16	3020.75
700.34	3043.28
700.53	3280.85
700.71	3321.81
700.89	3215.31
701.08	3243.98
701.26	3172.30
701.45	3487.69
701.63	3055.57
701.81	3141.58
702.00	3143.63
702.18	3184.59
702.37	3100.62
702.55	3563.47
702.73	3383.24
702.92	3143.63
703.10	3444.68
703.28	3473.36
703.47	3131.34
703.65	3309.52
703.84	3227.60
704.02	3151.82
704.20	3598.28
704.39	3061.71
704.57	3102.67
704.75	3391.44
704.94	3403.72
705.12	3276.75
705.30	3919.81
705.49	8437.63
705.67	16781.06
705.86	23398.04
706.04	26371.69
706.22	29333.06
706.41	28270.16
706.59	21292.73
706.77	16817.92
706.96	14298.92
707.14	12984.12
707.32	10968.92
707.51	9650.03
707.69	7939.97
707.87	6643.61
708.06	5210.03
708.24	4474.81
708.42	4126.66
708.61	4157.38
708.79	3217.36
708.97	3336.14
709.16	3350.48
709.34	3319.76
709.52	3164.11
709.71	3131.34
709.89	3360.72
710.07	3114.96
710.26	3067.86
710.44	3143.63
710.62	3336.14
710.80	3311.57
710.99	3145.68
711.17	3213.26
711.35	3264.46
711.54	3119.06
711.72	3307.47
711.90	3114.96
712.09	3327.95
712.27	3147.73
712.45	3256.27
712.63	3076.05
712.82	3276.75
713.00	3291.09
713.18	3217.36
713.37	3311.57
713.55	3391.44
713.73	3508.17
713.91	3176.40
714.10	3151.82
714.28	3239.89
714.46	3233.74
714.65	3284.94
714.83	3102.67
715.01	3317.71
715.19	3239.89
715.38	2951.12
715.56	3219.41
715.74	3086.29
715.92	3188.69
716.11	3389.39
716.29	2852.82
716.47	3327.95
716.65	3303.37
716.84	2934.74
717.02	3137.49
717.20	2924.50
717.38	3172.30
717.57	3157.97
717.75	3246.03
717.93	3198.93
718.11	3420.11
718.30	3000.27
718.48	3010.51
718.66	3491.79
718.84	3428.30
719.03	3139.54
719.21	2985.94
719.39	3614.66
719.57	3411.92
719.75	3284.94
719.94	2985.94
720.12	3203.02
720.30	3286.99
720.48	3215.31
720.67	3129.30
720.85	3096.53
721.03	3198.93
721.21	3055.57
721.39	3192.78
721.58	3373.00
721.76	3250.13
721.94	3117.01
722.12	3190.74
722.30	3606.47
722.49	3131.34
722.67	3014.61
722.85	3076.05
723.03	2983.89
723.21	3166.16
723.40	3123.15
723.58	3229.65
723.76	3420.11
723.94	3653.58
724.12	3086.29
724.30	3276.75
724.49	3542.99
724.67	3149.78
724.85	3221.45
725.03	2971.60
725.21	3440.59
725.40	3532.75
725.58	3071.95
725.76	3254.22
725.94	3356.62
726.12	3086.29
726.30	3143.63
726.49	3051.47
726.67	3178.45
726.85	3452.88
727.03	3930.05
727.21	5523.37
727.39	7155.60
727.57	7704.46
727.76	8253.31
727.94	8234.88
728.12	7233.43
728.30	5965.73
728.48	5500.84
728.66	5087.15
728.84	4777.91
729.03	4241.34
729.21	3819.46
729.39	3592.14
729.57	3418.06
729.75	3385.29
729.93	3401.68
730.11	2992.08
730.30	3223.50
730.48	3184.59
730.66	3231.69
730.84	3213.26
731.02	3352.52
731.20	3102.67
731.38	3088.34
731.56	2949.08
731.74	3069.91
731.93	3346.38
732.11	3207.12
732.29	2996.18
732.47	3387.34
732.65	3221.45
732.83	3340.24
733.01	3243.98
733.19	3192.78
733.37	3483.59
733.56	3129.30
733.74	2938.84
733.92	3534.79
734.10	3172.30
734.28	3317.71
734.46	2863.06
734.64	3227.60
734.82	3174.35
735.00	3041.23
735.18	3119.06
735.36	3276.75
735.54	3213.26
735.73	3035.09
735.91	3272.65
736.09	3620.81
736.27	3254.22
736.45	3143.63
736.63	2863.06
736.81	3219.41
736.99	3469.26
737.17	3360.72
737.35	2992.08
737.53	3420.11
737.71	3203.02
737.89	3286.99
738.07	3008.47
738.25	3155.92
738.43	2987.99
738.61	3078.10
738.80	2924.50
738.98	3110.86
739.16	3227.60
739.34	2959.31
739.52	3475.40
739.70	3192.78
739.88	3395.53
740.06	3237.84
740.24	2871.25
740.42	3508.17
740.60	2926.55
740.78	2969.55
740.96	2930.64
741.14	3145.68
741.32	3274.70
741.50	2897.88
741.68	3391.44
741.86	3540.94
742.04	3106.77
742.22	2979.79
742.40	3065.81
742.58	3405.77
742.76	3108.82
742.94	3241.93
743.12	2869.20
743.30	3254.22
743.48	3348.43
743.66	3012.56
743.84	3151.82
744.02	3200.98
744.20	3221.45
744.38	2987.99
744.56	3024.85
744.74	3594.19
744.92	3291.09
745.10	3370.96
745.28	3145.68
745.46	3575.75
745.64	3237.84
745.82	3178.45
746.00	3080.14
746.18	3373.00
746.36	3078.10
746.54	3149.78
746.72	3114.96
746.90	3071.95
747.08	3444.68
747.26	3090.38
747.44	3200.98
747.62	3334.09
747.80	3352.52
747.98	3203.02
748.15	3100.62
748.33	3563.47
748.51	3211.22
748.69	3174.35
748.87	2981.84
749.05	3198.93
749.23	3266.51
749.41	3026.90
749.59	3127.25
749.77	3518.41
749.95	3272.65
750.13	2983.89
750.31	3239.89
750.49	3233.74
750.67	3430.35
750.85	3176.40
751.03	3125.20
751.20	3682.25
751.38	3274.70
751.56	3139.54
751.74	3147.73
751.92	3162.06
752.10	3065.81
752.28	3252.17
752.46	3082.19
752.64	3213.26
752.82	3252.17
753.00	3211.22
753.18	3010.51
753.35	3241.93
753.53	3235.79
753.71	3022.80
753.89	3149.78
754.07	3352.52
754.25	3475.40
754.43	3135.44
754.61	2934.74
754.79	3340.24
754.97	3162.06
755.14	3313.61
755.32	2920.40
755.50	3301.33
755.68	3184.59
755.86	2983.89
756.04	3024.85
756.22	2883.54
756.40	3563.47
756.57	3299.28
756.75	3057.62
756.93	3465.16
757.11	3413.96
757.29	3018.71
757.47	2983.89
757.65	2967.51
757.82	2775.00
758.00	2951.12
758.18	3020.75
758.36	3033.04
758.54	3629.00
758.72	2871.25
758.90	3188.69
759.07	3336.14
759.25	3102.67
759.43	3141.58
759.61	2928.60
759.79	4566.97
759.97	3508.17
760.15	3078.10
760.32	3065.81
760.50	3403.72
760.68	3553.23
760.86	2955.22
761.04	3229.65
761.22	3459.02
761.39	3274.70
761.57	3227.60
761.75	3033.04
761.93	3399.63
762.11	3231.69
762.28	3207.12
762.46	3119.06
762.64	3536.84
762.82	3002.32
763.00	3061.71
763.18	3317.71
763.35	3051.47
763.53	3463.12
763.71	3166.16
763.89	3045.33
764.07	3274.70
764.24	3254.22
764.42	3194.83
764.60	3139.54
764.78	3356.62
764.96	3454.92
765.13	3246.03
765.31	2910.16
765.49	3432.40
765.67	3112.91
765.84	2928.60
766.02	3059.67
766.20	2983.89
766.38	3373.00
766.56	3190.74
766.73	3151.82
766.91	3319.76
767.09	3229.65
767.27	3139.54
767.44	3020.75
767.62	3375.05
767.80	3278.80
767.98	3047.38
768.15	3094.48
768.33	3416.01
768.51	3502.03
768.69	3231.69
768.87	3020.75
769.04	3278.80
769.22	3749.83
769.40	3237.84
769.58	3200.98
769.75	3368.91
769.93	3518.41
770.11	3141.58
770.28	3014.61
770.46	3450.83
770.64	3387.34
770.82	3125.20
770.99	2996.18
771.17	3442.64
771.35	3143.63
771.53	3133.39
771.70	3053.52
771.88	3409.87
772.06	3274.70
772.23	3104.72
772.41	3049.43
772.59	3231.69
772.77	3172.30
772.94	3047.38
773.12	3188.69
773.30	3200.98
773.47	3225.55
773.65	3000.27
773.83	3166.16
774.01	3317.71
774.18	2928.60
774.36	3082.19
774.54	2897.88
774.71	3356.62
774.89	2879.44
775.07	2914.26
775.24	2992.08
775.42	3221.45
775.60	3655.62
775.78	3008.47
775.95	2871.25
776.13	2979.79
776.31	2922.45
776.48	3110.86
776.66	3282.89
776.84	3213.26
777.01	3059.67
777.19	3043.28
777.37	2938.84
777.54	3430.35
777.72	3753.93
777.90	3117.01
778.07	3084.24
778.25	3831.75
778.43	3477.45
778.60	2975.70
778.78	3151.82
778.96	3512.27
779.13	2977.75
779.31	3186.64
779.49	3160.02
779.66	3303.37
779.84	3207.12
780.01	3065.81
780.19	2936.79
780.37	3442.64
780.54	3385.29
780.72	2992.08
780.90	3074.00
781.07	3190.74
781.25	3172.30
781.43	3297.23
781.60	3065.81
781.78	3528.65
781.95	3399.63
782.13	3020.75
782.31	3035.09
782.48	2815.96
782.66	3252.17
782.83	3319.76
783.01	3160.02
783.19	3428.30
783.36	3301.33
783.54	3082.19
783.72	3137.49
783.89	3174.35
784.07	3252.17
784.24	3203.02
784.42	3108.82
784.60	3336.14
784.77	3319.76
784.95	2869.20
785.12	3092.43
785.30	3295.18
785.47	3086.29
785.65	2955.22
785.83	3137.49
786.00	3190.74
786.18	3239.89
786.35	3121.10
786.53	2985.94
786.71	3438.54
786.88	3332.05
787.06	3180.50
787.23	3086.29
787.41	3092.43
787.58	3235.79
787.76	3022.80
787.94	3076.05
788.11	3317.71
788.29	3069.91
788.46	2987.99
788.64	2852.82
788.81	3141.58
788.99	3143.63
789.16	3049.43
789.34	3108.82
789.52	3282.89
789.69	3155.92
789.87	2854.87
790.04	3090.38
790.22	3207.12
790.39	3610.57
790.57	2990.03
790.74	3024.85
790.92	3450.83
791.09	2871.25
791.27	3004.37
791.44	3182.54
791.62	3221.45
791.79	3397.58
791.97	3121.10
792.15	3409.87
792.32	3370.96
792.50	3434.44
792.67	3274.70
792.85	3313.61
793.02	3348.43
793.20	3174.35
793.37	2979.79
793.55	3008.47
793.72	3100.62
793.90	3385.29
794.07	3016.66
794.25	3074.00
794.42	3317.71
794.60	3188.69
794.77	3180.50
794.95	3237.84
795.12	3418.06
795.30	3278.80
795.47	2926.55
795.65	3446.73
795.82	3344.33
796.00	3121.10
796.17	3239.89
796.34	3074.00
796.52	3258.32
796.69	3352.52
796.87	3141.58
797.04	3200.98
797.22	3489.74
797.39	3196.88
797.57	3280.85
797.74	3188.69
797.92	3258.32
798.09	3125.20
798.27	3401.68
798.44	3041.23
798.62	3194.83
798.79	3198.93
798.96	3221.45
799.14	3119.06
799.31	3852.23
799.49	3213.26
799.66	3086.29
799.84	3147.73
800.01	3020.75
800.19	3325.90
800.36	2906.07
800.53	3086.29
800.71	3319.76
800.88	3573.71
801.06	2924.50
801.23	2983.89
801.41	3178.45
801.58	3172.30
801.75	3074.00
801.93	3123.15
802.10	3438.54
802.28	3172.30
802.45	3012.56
802.63	3157.97
802.80	3542.99
802.97	3188.69
803.15	3149.78
803.32	3002.32
803.50	3057.62
803.67	3160.02
803.84	3012.56
804.02	3219.41
804.19	3215.31
804.37	2848.72
804.54	2846.68
804.71	3123.15
804.89	3223.50
805.06	3117.01
805.24	2969.55
805.41	2928.60
805.58	3151.82
805.76	3684.30
805.93	3035.09
806.10	3157.97
806.28	3362.76
806.45	3301.33
806.63	3241.93
806.80	3223.50
806.97	3311.57
807.15	3383.24
807.32	3147.73
807.49	3020.75
807.67	3088.34
807.84	3327.95
808.01	2908.12
808.19	3123.15
808.36	3706.82
808.54	3196.88
808.71	3057.62
808.88	3000.27
809.06	3430.35
809.23	3569.61
809.40	3143.63
809.58	3076.05
809.75	3205.07
809.92	3067.86
810.10	3411.92
810.27	3110.86
810.44	3313.61
810.62	3379.15
810.79	3051.47
810.96	3172.30
811.14	3170.26
811.31	3428.30
811.48	3198.93
811.66	3082.19
811.83	3512.27
812.00	3354.57
812.18	3170.26
812.35	3461.07
812.52	3164.11
812.69	3170.26
812.87	3071.95
813.04	2949.08
813.21	3289.04
813.39	3063.76
813.56	2957.27
813.73	3360.72
813.91	2985.94
814.08	3203.02
814.25	3112.91
814.42	2867.16
814.60	3192.78
814.77	3221.45
814.94	3057.62
815.12	3139.54
815.29	3602.38
815.46	3213.26
815.63	3098.58
815.81	3024.85
815.98	3182.54
816.15	3217.36
816.33	3170.26
816.50	3028.95
816.67	3223.50
816.84	3297.23
817.02	2897.88
817.19	3084.24
817.36	3309.52
817.53	3344.33
817.71	2922.45
817.88	3160.02
818.05	3203.02
818.22	3237.84
818.40	3266.51
818.57	3043.28
818.74	3387.34
818.91	3299.28
819.09	3246.03
819.26	3217.36
819.43	3162.06
819.60	3139.54
819.78	3270.61
819.95	3108.82
820.12	3129.30
820.29	3520.46
820.47	3397.58
820.64	2934.74
820.81	3065.81
820.98	3104.72
821.15	3065.81
821.33	3213.26
821.50	2969.55
821.67	3313.61
821.84	3024.85
822.02	3043.28
822.19	3432.40
822.36	3090.38
822.53	2998.23
822.70	2996.18
822.88	3157.97
823.05	3571.66
823.22	3102.67
823.39	3170.26
823.56	3258.32
823.74	3665.86
823.91	2951.12
824.08	2967.51
824.25	3018.71
824.42	3594.19
824.60	2863.06
824.77	3172.30
824.94	3264.46
825.11	3467.21
825.28	2949.08
825.45	3155.92
825.63	3332.05
825.80	3131.34
825.97	3188.69
826.14	3057.62
826.31	2951.12
826.48	3362.76
826.66	3049.43
826.83	2979.79
827.00	3178.45
827.17	3067.86
827.34	3008.47
827.51	3000.27
827.69	3250.13
827.86	3057.62
828.03	3155.92
828.20	3121.10
828.37	3147.73
828.54	3395.53
828.71	3008.47
828.89	3198.93
829.06	3248.08
829.23	3448.78
829.40	3045.33
829.57	3041.23
829.74	3454.92
829.91	3125.20
830.09	3012.56
830.26	3227.60
830.43	3606.47
830.60	3164.11
830.77	3147.73
830.94	3325.90
831.11	3401.68
831.28	3114.96
831.46	3137.49
831.63	3129.30
831.80	3379.15
831.97	3131.34
832.14	3082.19
832.31	3096.53
832.48	3225.55
832.65	3491.79
832.82	3274.70
832.99	3192.78
833.17	3057.62
833.34	3585.99
833.51	3067.86
833.68	2830.29
833.85	3522.51
834.02	3153.87
834.19	2985.94
834.36	3033.04
834.53	3309.52
834.70	3459.02
834.87	3047.38
835.04	2877.40
835.22	3108.82
835.39	3180.50
835.56	2967.51
835.73	2983.89
835.90	3506.12
836.07	3133.39
836.24	3049.43
836.41	2944.98
836.58	3137.49
836.75	3448.78
836.92	2914.26
837.09	2885.59
837.26	3424.20
837.43	3330.00
837.60	2895.83
837.77	2881.49
837.94	3413.96
838.12	3403.72
838.29	2863.06
838.46	2807.77
838.63	3053.52
838.80	3510.22
838.97	2955.22
839.14	2848.72
839.31	3389.39
839.48	3389.39
839.65	2887.64
839.82	2953.17
839.99	3336.14
840.16	3278.80
840.33	2951.12
840.50	2965.46
840.67	3127.25
840.84	2803.67
841.01	2871.25
841.18	2922.45
841.35	3160.02
841.52	3346.38
841.69	3176.40
841.86	2924.50
842.03	3215.31
842.20	3387.34
842.37	2889.68
842.54	3004.37
842.71	3278.80
842.88	2971.60
843.05	2922.45
843.22	2865.11
843.39	3459.02
843.56	3145.68
843.73	2871.25
843.90	2977.75
844.07	3311.57
844.24	3526.60
844.41	2994.13
844.58	2967.51
844.75	3254.22
844.92	3325.90
845.09	2951.12
845.26	2879.44
845.43	3393.48
845.60	3114.96
845.77	3037.14
845.94	3028.95
846.10	3409.87
846.27	3104.72
846.44	2762.71
846.61	2852.82
846.78	3362.76
846.95	3467.21
847.12	2852.82
847.29	2920.40
847.46	3090.38
847.63	3463.12
847.80	2846.68
847.97	2926.55
848.14	3796.93
848.31	3237.84
848.48	2793.43
848.65	2922.45
848.82	3098.58
848.98	3758.02
849.15	3024.85
849.32	3037.14
849.49	3393.48
849.66	3233.74
849.83	2942.93
850.00	2971.60
850.17	3473.36
850.34	3151.82
850.51	2928.60
850.68	2985.94
850.85	3733.45
851.01	3243.98
851.18	2885.59
851.35	3059.67
851.52	3362.76
851.69	3618.76
851.86	2836.44
852.03	2887.64
852.20	3317.71
852.37	3356.62
852.53	2840.53
852.70	2772.95
852.87	3387.34
853.04	3502.03
853.21	2852.82
853.38	3219.41
853.55	3504.07
853.72	3618.76
853.89	2811.86
854.05	2865.11
854.22	3153.87
854.39	3151.82
854.56	2885.59
854.73	3002.32
854.90	3151.82
855.07	3229.65
855.23	2830.29
855.40	2818.00
855.57	3293.13
855.74	2834.39
855.91	3137.49
856.08	2781.14
856.25	2996.18
856.41	3155.92
856.58	2961.36
856.75	2928.60
856.92	3014.61
857.09	3393.48
857.26	2754.52
857.42	2934.74
857.59	3354.57
857.76	3182.54
857.93	2942.93
858.10	2951.12
858.27	3024.85
858.43	3262.41
858.60	2879.44
858.77	2813.91
858.94	3180.50
859.11	3442.64
859.27	3047.38
859.44	2869.20
859.61	3667.91
859.78	3358.67
859.95	2895.83
860.12	2887.64
860.28	3692.49
860.45	3667.91
860.62	2844.63
860.79	3049.43
860.95	3170.26
861.12	3160.02
861.29	2766.81
861.46	2920.40
861.63	3213.26
861.79	3368.91
861.96	2815.96
862.13	2883.54
862.30	3532.75
862.47	3205.07
862.63	2750.42
862.80	2942.93
862.97	3471.31
863.14	3270.61
863.30	2918.36
863.47	2912.21
863.64	3585.99
863.81	3305.42
863.97	2811.86
864.14	2908.12
864.31	3196.88
864.48	3289.04
864.65	2836.44
864.81	2992.08
864.98	3362.76
865.15	3530.70
865.32	3016.66
865.48	3000.27
865.65	3645.38
865.82	3205.07
865.98	2942.93
866.15	2854.87
866.32	3239.89
866.49	3168.21
866.65	3096.53
866.82	2928.60
866.99	3192.78
867.16	3264.46
867.32	2975.70
867.49	2828.24
867.66	3256.27
867.83	3114.96
867.99	2854.87
868.16	2861.01
868.33	3030.99
868.49	3241.93
868.66	2955.22
868.83	2973.65
868.99	3366.86
869.16	3309.52
869.33	3110.86
869.50	3030.99
869.66	3350.48
869.83	3233.74
870.00	2854.87
870.16	3033.04
870.33	3229.65
870.50	3467.21
870.66	2992.08
870.83	2990.03
871.00	3198.93
871.17	3295.18
871.33	2928.60
871.50	2873.30
871.67	3289.04
871.83	2959.31
872.00	2985.94
872.17	2936.79
872.33	3635.14
872.50	3499.98
872.67	2963.41
872.83	2881.49
873.00	3327.95
873.17	3289.04
873.33	2990.03
873.50	2928.60
873.67	3082.19
873.83	3094.48
874.00	2959.31
874.16	3008.47
874.33	3192.78
874.50	3067.86
874.66	2901.97
874.83	3069.91
875.00	3479.50
875.16	3493.83
875.33	3020.75
875.50	2668.50
875.66	3110.86
875.83	3278.80
875.99	3016.66
876.16	3106.77
876.33	3084.24
876.49	3209.17
876.66	2983.89
876.83	2983.89
876.99	2928.60
877.16	3213.26
877.32	2852.82
877.49	2940.88
877.66	3368.91
877.82	3524.55
877.99	3000.27
878.15	3155.92
878.32	3286.99
878.49	3356.62
878.65	2963.41
878.82	3192.78
878.98	3143.63
879.15	3385.29
879.32	3082.19
879.48	3145.68
879.65	3207.12
879.81	3174.35
879.98	3026.90
880.15	2951.12
880.31	3432.40
880.48	3084.24
880.64	3049.43
880.81	3090.38
880.97	3540.94
881.14	3450.83
881.31	2947.03
881.47	3135.44
881.64	3192.78
881.80	3010.51
881.97	3065.81
882.13	2947.03
882.30	3035.09
882.47	3051.47
882.63	2899.92
882.80	2910.16
882.96	3088.34
883.13	3555.27
883.29	2969.55
883.46	2955.22
883.62	3737.54
883.79	3311.57
883.95	3100.62
884.12	2938.84
884.29	3477.45
884.45	3246.03
884.62	3006.42
884.78	2875.35
884.95	3542.99
885.11	3035.09
885.28	3043.28
885.44	3008.47
885.61	3338.19
885.77	3561.42
885.94	3110.86
886.10	3041.23
886.27	3309.52
886.43	3641.29
886.60	3139.54
886.76	2912.21
886.93	3160.02
887.09	3213.26
887.26	2830.29
887.42	3065.81
887.59	3438.54
887.75	3688.39
887.92	3164.11
888.08	3043.28
888.25	3633.10
888.41	3475.40
888.58	2998.23
888.74	2908.12
888.91	3141.58
>>>>>End Processed Spectral Data<<<<<
