SpectraSuite Data File
++++++++++++++++++++++++++++++++++++
Date: Fri May 06 08:13:48 CEST 2016
User: root
Dark Spectrum Present: No
Reference Spectrum Present: No
Number of Sampled Component Spectra: 1
Spectrometers: USB4C02835
Integration Time (usec): 100000 (USB4C02835)
Spectra Averaged: 1 (USB4C02835)
Boxcar Smoothing: 0 (USB4C02835)
Correct for Electrical Dark: No (USB4C02835)
Strobe/Lamp Enabled: No (USB4C02835)
Correct for Detector Non-linearity: No (USB4C02835)
Correct for Stray Light: No (USB4C02835)
Number of Pixels in Processed Spectrum: 3648
>>>>>Begin Processed Spectral Data<<<<<
177.47	2289.63
177.69	2289.63
177.91	2289.63
178.13	2238.43
178.36	2244.57
178.58	3041.23
178.80	3182.54
179.02	2953.17
179.24	2987.99
179.46	2693.08
179.68	2836.44
179.90	3280.85
180.13	3272.65
180.35	2613.21
180.57	2756.57
180.79	3368.91
181.01	3286.99
181.23	2834.39
181.45	2955.22
181.67	3422.16
181.90	3393.48
182.12	2942.93
182.34	2688.98
182.56	3352.52
182.78	3409.87
183.00	2795.48
183.22	2861.01
183.44	2883.54
183.66	3917.76
183.89	2955.22
184.11	2918.36
184.33	3467.21
184.55	3485.64
184.77	2871.25
184.99	2871.25
185.21	3250.13
185.43	3848.13
185.65	2934.74
185.87	2836.44
186.10	3798.98
186.32	3796.93
186.54	2951.12
186.76	2994.13
186.98	3389.39
187.20	3213.26
187.42	2858.96
187.64	2813.91
187.86	3409.87
188.08	3563.47
188.30	2731.99
188.52	2961.36
188.75	3459.02
188.97	3487.69
189.19	2787.29
189.41	2789.33
189.63	3360.72
189.85	3131.34
190.07	2682.84
190.29	2719.70
190.51	3348.43
190.73	3043.28
190.95	3094.48
191.17	2916.31
191.39	2893.78
191.61	3233.74
191.84	2848.72
192.06	3012.56
192.28	2918.36
192.50	3936.20
192.72	3049.43
192.94	2861.01
193.16	3524.55
193.38	3397.58
193.60	2668.50
193.82	2967.51
194.04	3467.21
194.26	3381.20
194.48	2885.59
194.70	2877.40
194.92	3229.65
195.14	3397.58
195.36	2844.63
195.58	2934.74
195.80	3323.85
196.02	3178.45
196.24	2807.77
196.46	2963.41
196.69	3252.17
196.91	3786.69
197.13	2856.92
197.35	2854.87
197.57	3710.92
197.79	3534.79
198.01	2992.08
198.23	2893.78
198.45	3358.67
198.67	3000.27
198.89	2693.08
199.11	2961.36
199.33	3049.43
199.55	2836.44
199.77	2805.72
199.99	3004.37
200.21	3178.45
200.43	3297.23
200.65	2740.18
200.87	2711.51
201.09	3217.36
201.31	3227.60
201.53	2910.16
201.75	2957.27
201.97	3317.71
202.19	3229.65
202.41	2944.98
202.63	3018.71
202.85	3436.49
203.07	3336.14
203.29	2985.94
203.51	2803.67
203.73	3143.63
203.95	3864.52
204.17	2861.01
204.39	2938.84
204.61	3211.22
204.83	3162.06
205.05	3055.57
205.27	2893.78
205.49	3854.28
205.71	3264.46
205.93	2697.17
206.15	2799.57
206.37	3397.58
206.59	3235.79
206.81	2648.02
207.03	2781.14
207.25	3127.25
207.47	3434.44
207.69	2975.70
207.91	3133.39
208.13	3618.76
208.34	3180.50
208.56	2908.12
208.78	2848.72
209.00	3213.26
209.22	3106.77
209.44	2848.72
209.66	2871.25
209.88	3334.09
210.10	3203.02
210.32	2877.40
210.54	3065.81
210.76	3231.69
210.98	3526.60
211.20	2758.61
211.42	2985.94
211.64	3569.61
211.86	3411.92
212.08	2977.75
212.30	2983.89
212.52	3297.23
212.74	3375.05
212.96	2953.17
213.17	2947.03
213.39	3411.92
213.61	3737.54
213.83	2811.86
214.05	2795.48
214.27	3551.18
214.49	3106.77
214.71	2838.48
214.93	2983.89
215.15	3323.85
215.37	3426.25
215.59	2764.76
215.81	2992.08
216.03	3612.62
216.24	3303.37
216.46	2893.78
216.68	2916.31
216.90	3418.06
217.12	3450.83
217.34	2805.72
217.56	3059.67
217.78	3526.60
218.00	3393.48
218.22	3028.95
218.44	3067.86
218.66	3342.28
218.87	3596.23
219.09	2936.79
219.31	2861.01
219.53	3399.63
219.75	3229.65
219.97	2901.97
220.19	2846.68
220.41	3340.24
220.63	3483.59
220.85	2904.02
221.06	2901.97
221.28	3622.86
221.50	3436.49
221.72	2914.26
221.94	2756.57
222.16	3293.13
222.38	3557.32
222.60	2832.34
222.82	2947.03
223.03	3483.59
223.25	3147.73
223.47	2828.24
223.69	3139.54
223.91	3463.12
224.13	3254.22
224.35	2779.09
224.57	3074.00
224.78	3420.11
225.00	3096.53
225.22	2987.99
225.44	2863.06
225.66	3436.49
225.88	3123.15
226.10	2971.60
226.32	2871.25
226.53	3594.19
226.75	3229.65
226.97	2899.92
227.19	2904.02
227.41	3151.82
227.63	3137.49
227.85	2756.57
228.06	2979.79
228.28	3301.33
228.50	3514.31
228.72	2713.56
228.94	2828.24
229.16	2840.53
229.37	3024.85
229.59	2789.33
229.81	3076.05
230.03	3246.03
230.25	3024.85
230.47	2680.79
230.69	2879.44
230.90	3452.88
231.12	3180.50
231.34	2881.49
231.56	2852.82
231.78	3076.05
232.00	3346.38
232.21	2916.31
232.43	2877.40
232.65	2856.92
232.87	3379.15
233.09	2809.81
233.30	2795.48
233.52	3530.70
233.74	3239.89
233.96	2787.29
234.18	3065.81
234.40	3250.13
234.61	3739.59
234.83	2717.65
235.05	2877.40
235.27	3755.97
235.49	3504.07
235.70	2729.94
235.92	2887.64
236.14	3405.77
236.36	3747.78
236.58	2742.23
236.79	2981.84
237.01	3260.37
237.23	3194.83
237.45	2983.89
237.67	2936.79
237.88	3448.78
238.10	3686.34
238.32	2850.77
238.54	2811.86
238.76	3311.57
238.97	3098.58
239.19	2754.52
239.41	2926.55
239.63	3581.90
239.85	3248.08
240.06	2865.11
240.28	2885.59
240.50	3563.47
240.72	3289.04
240.93	2856.92
241.15	2951.12
241.37	3280.85
241.59	3575.75
241.81	2797.53
242.02	2885.59
242.24	3330.00
242.46	3360.72
242.68	2684.89
242.89	2846.68
243.11	3473.36
243.33	3262.41
243.55	2852.82
243.76	2836.44
243.98	3129.30
244.20	3233.74
244.42	2924.50
244.64	2848.72
244.85	2994.13
245.07	3129.30
245.29	2779.09
245.51	2918.36
245.72	3266.51
245.94	3555.27
246.16	2877.40
246.38	2887.64
246.59	3155.92
246.81	3102.67
247.03	2744.28
247.24	2625.50
247.46	3123.15
247.68	3323.85
247.90	2762.71
248.11	2846.68
248.33	3344.33
248.55	3254.22
248.77	2938.84
248.98	2957.27
249.20	3622.86
249.42	3366.86
249.64	2889.68
249.85	2752.47
250.07	3164.11
250.29	3522.51
250.50	2918.36
250.72	2770.90
250.94	3323.85
251.16	3778.50
251.37	2877.40
251.59	2953.17
251.81	3334.09
252.02	3581.90
252.24	2781.14
252.46	3014.61
252.68	3147.73
252.89	3192.78
253.11	2717.65
253.33	3082.19
253.54	3557.32
253.76	3131.34
253.98	2834.39
254.20	2803.67
254.41	3033.04
254.63	3315.66
254.85	2729.94
255.06	2983.89
255.28	3450.83
255.50	3209.17
255.71	2832.34
255.93	2600.92
256.15	3182.54
256.36	3368.91
256.58	2760.66
256.80	2836.44
257.02	3264.46
257.23	3229.65
257.45	2879.44
257.67	2924.50
257.88	3114.96
258.10	3248.08
258.32	2863.06
258.53	2920.40
258.75	3698.63
258.97	3129.30
259.18	2713.56
259.40	2746.33
259.62	3602.38
259.83	3602.38
260.05	2871.25
260.27	3844.04
260.48	3512.27
260.70	3028.95
260.92	2781.14
261.13	2883.54
261.35	3299.28
261.57	3395.53
261.78	2731.99
262.00	2805.72
262.22	3428.30
262.43	3151.82
262.65	2904.02
262.86	2961.36
263.08	3807.17
263.30	3358.67
263.51	2674.65
263.73	2832.34
263.95	3594.19
264.16	3069.91
264.38	2697.17
264.60	2807.77
264.81	3239.89
265.03	3590.09
265.25	3307.47
265.46	2795.48
265.68	3559.37
265.89	3428.30
266.11	2772.95
266.33	2838.48
266.54	3495.88
266.76	3377.10
266.98	3033.04
267.19	2979.79
267.41	3483.59
267.62	3286.99
267.84	2729.94
268.06	3030.99
268.27	3336.14
268.49	3477.45
268.70	3010.51
268.92	2889.68
269.14	3094.48
269.35	3006.42
269.57	3028.95
269.79	2955.22
270.00	3137.49
270.22	3598.28
270.43	2750.42
270.65	2664.41
270.87	3291.09
271.08	3516.36
271.30	3057.62
271.51	2846.68
271.73	3377.10
271.95	3573.71
272.16	2830.29
272.38	3041.23
272.59	3192.78
272.81	3395.53
273.02	2924.50
273.24	2891.73
273.46	3512.27
273.67	3055.57
273.89	2791.38
274.10	2879.44
274.32	3573.71
274.54	3327.95
274.75	2965.46
274.97	2949.08
275.18	3461.07
275.40	3432.40
275.61	2891.73
275.83	2985.94
276.05	3041.23
276.26	3358.67
276.48	2981.84
276.69	2944.98
276.91	3205.07
277.12	3585.99
277.34	3041.23
277.55	3174.35
277.77	3377.10
277.99	3186.64
278.20	2965.46
278.42	2901.97
278.63	3157.97
278.85	3067.86
279.06	2975.70
279.28	3016.66
279.49	3569.61
279.71	3475.40
279.93	3053.52
280.14	3028.95
280.36	3051.47
280.57	3450.83
280.79	3026.90
281.00	2938.84
281.22	3246.03
281.43	3545.03
281.65	2766.81
281.86	2844.63
282.08	3385.29
282.29	3680.20
282.51	2869.20
282.73	2852.82
282.94	2959.31
283.16	3424.20
283.37	3086.29
283.59	3026.90
283.80	3293.13
284.02	3278.80
284.23	3071.95
284.45	3026.90
284.66	3088.34
284.88	3074.00
285.09	2912.21
285.31	3127.25
285.52	3381.20
285.74	2955.22
285.95	3213.26
286.17	3069.91
286.38	3516.36
286.60	3112.91
286.81	2879.44
287.03	2967.51
287.24	3276.75
287.46	3430.35
287.67	3024.85
287.89	3254.22
288.10	3258.32
288.32	3381.20
288.53	3168.21
288.75	2975.70
288.96	3434.44
289.18	3112.91
289.39	2885.59
289.61	3002.32
289.82	3633.10
290.04	3608.52
290.25	2883.54
290.47	3137.49
290.68	3233.74
290.90	3545.03
291.11	2836.44
291.33	3174.35
291.54	3096.53
291.76	3164.11
291.97	3133.39
292.18	3069.91
292.40	3190.74
292.61	3207.12
292.83	3315.66
293.04	3051.47
293.26	3266.51
293.47	3153.87
293.69	2953.17
293.90	2852.82
294.12	3676.10
294.33	3276.75
294.55	3026.90
294.76	3174.35
294.97	3547.08
295.19	3758.02
295.40	3028.95
295.62	3104.72
295.83	3450.83
296.05	3100.62
296.26	3192.78
296.48	3002.32
296.69	3233.74
296.90	3209.17
297.12	3172.30
297.33	3182.54
297.55	3330.00
297.76	3381.20
297.98	3041.23
298.19	3207.12
298.41	3190.74
298.62	3067.86
298.83	3196.88
299.05	3059.67
299.26	3143.63
299.48	3057.62
299.69	3049.43
299.90	2951.12
300.12	3168.21
300.33	3495.88
300.55	3074.00
300.76	3049.43
300.98	3043.28
301.19	3426.25
301.40	3026.90
301.62	3078.10
301.83	3389.39
302.05	3258.32
302.26	2967.51
302.47	3041.23
302.69	3057.62
302.90	3260.37
303.12	2852.82
303.33	3067.86
303.54	3626.95
303.76	3217.36
303.97	3000.27
304.19	3225.55
304.40	3049.43
304.61	3418.06
304.83	3037.14
305.04	3028.95
305.26	3495.88
305.47	3160.02
305.68	2969.55
305.90	2811.86
306.11	3467.21
306.33	3264.46
306.54	2881.49
306.75	2942.93
306.97	3002.32
307.18	3092.43
307.39	3092.43
307.61	3065.81
307.82	3237.84
308.04	3393.48
308.25	2758.61
308.46	3108.82
308.68	3246.03
308.89	3297.23
309.10	3117.01
309.32	3041.23
309.53	3233.74
309.74	3323.85
309.96	2834.39
310.17	3061.71
310.39	3215.31
310.60	3405.77
310.81	3051.47
311.03	2965.46
311.24	3405.77
311.45	3260.37
311.67	3221.45
311.88	3106.77
312.09	3172.30
312.31	3184.59
312.52	2852.82
312.73	2953.17
312.95	3014.61
313.16	3090.38
313.37	3155.92
313.59	3207.12
313.80	3418.06
314.01	3575.75
314.23	3049.43
314.44	2865.11
314.65	3002.32
314.87	3076.05
315.08	3033.04
315.29	3008.47
315.51	3135.44
315.72	2961.36
315.93	3069.91
316.15	3018.71
316.36	3219.41
316.57	3381.20
316.79	3033.04
317.00	2934.74
317.21	3426.25
317.43	3112.91
317.64	2992.08
317.85	2854.87
318.07	3114.96
318.28	3129.30
318.49	3131.34
318.70	3266.51
318.92	3364.81
319.13	3305.42
319.34	3256.27
319.56	3018.71
319.77	3418.06
319.98	3463.12
320.20	3289.04
320.41	3182.54
320.62	3387.34
320.83	3203.02
321.05	3198.93
321.26	3086.29
321.47	3299.28
321.69	3471.31
321.90	2967.51
322.11	2953.17
322.32	3381.20
322.54	3542.99
322.75	2951.12
322.96	4089.79
323.18	3004.37
323.39	2924.50
323.60	2889.68
323.81	3147.73
324.03	3104.72
324.24	3254.22
324.45	3080.14
324.66	2924.50
324.88	3559.37
325.09	3573.71
325.30	3018.71
325.52	2893.78
325.73	3280.85
325.94	3086.29
326.15	2869.20
326.37	2949.08
326.58	3438.54
326.79	3618.76
327.00	2906.07
327.22	3014.61
327.43	3243.98
327.64	3043.28
327.85	3151.82
328.07	3026.90
328.28	3751.88
328.49	3241.93
328.70	2961.36
328.92	3053.52
329.13	3334.09
329.34	3356.62
329.55	3262.41
329.76	3147.73
329.98	3260.37
330.19	3506.12
330.40	3117.01
330.61	3131.34
330.83	3413.96
331.04	3084.24
331.25	3139.54
331.46	3080.14
331.68	3041.23
331.89	3491.79
332.10	2944.98
332.31	2889.68
332.52	3286.99
332.74	3508.17
332.95	2793.43
333.16	2947.03
333.37	3430.35
333.58	3157.97
333.80	3076.05
334.01	2754.52
334.22	3315.66
334.43	3174.35
334.64	2924.50
334.86	2869.20
335.07	3084.24
335.28	3549.13
335.49	2887.64
335.70	3010.51
335.92	3549.13
336.13	3780.55
336.34	3139.54
336.55	3016.66
336.76	3348.43
336.98	2867.16
337.19	3018.71
337.40	3106.77
337.61	3684.30
337.82	3260.37
338.04	3180.50
338.25	2871.25
338.46	3256.27
338.67	3231.69
338.88	2918.36
339.09	2914.26
339.31	3121.10
339.52	3030.99
339.73	2926.55
339.94	3012.56
340.15	3444.68
340.36	3188.69
340.58	3123.15
340.79	2930.64
341.00	3520.46
341.21	3074.00
341.42	3258.32
341.63	3004.37
341.85	3495.88
342.06	3305.42
342.27	3004.37
342.48	3155.92
342.69	3055.57
342.90	3387.34
343.12	3446.73
343.33	2947.03
343.54	3393.48
343.75	3575.75
343.96	3180.50
344.17	2918.36
344.38	3188.69
344.60	3131.34
344.81	2942.93
345.02	3037.14
345.23	3532.75
345.44	3860.42
345.65	3106.77
345.86	3117.01
346.07	3332.05
346.29	3231.69
346.50	3196.88
346.71	3024.85
346.92	3426.25
347.13	3762.12
347.34	3096.53
347.55	2832.34
347.76	3360.72
347.98	2922.45
348.19	3024.85
348.40	3192.78
348.61	3258.32
348.82	3565.51
349.03	2992.08
349.24	2953.17
349.45	3608.52
349.66	2883.54
349.88	3006.42
350.09	2901.97
350.30	3549.13
350.51	3596.23
350.72	3211.22
350.93	2981.84
351.14	3205.07
351.35	3383.24
351.56	2985.94
351.77	2992.08
351.99	3377.10
352.20	3608.52
352.41	3112.91
352.62	2840.53
352.83	3278.80
353.04	3250.13
353.25	3078.10
353.46	3026.90
353.67	3536.84
353.88	2951.12
354.09	2942.93
354.30	3033.04
354.52	3362.76
354.73	3270.61
354.94	3041.23
355.15	3069.91
355.36	3641.29
355.57	3252.17
355.78	2863.06
355.99	3055.57
356.20	3264.46
356.41	3510.22
356.62	3063.76
356.83	3047.38
357.04	3510.22
357.25	3020.75
357.46	2975.70
357.68	2840.53
357.89	3078.10
358.10	3131.34
358.31	2959.31
358.52	3000.27
358.73	3110.86
358.94	3037.14
359.15	3088.34
359.36	3012.56
359.57	3373.00
359.78	3266.51
359.99	3239.89
360.20	2887.64
360.41	3272.65
360.62	3336.14
360.83	3110.86
361.04	3026.90
361.25	3348.43
361.46	3637.19
361.67	3088.34
361.88	3045.33
362.09	3418.06
362.30	3377.10
362.51	2924.50
362.72	3092.43
362.93	3395.53
363.14	3362.76
363.35	3057.62
363.56	2981.84
363.78	3526.60
363.99	3489.74
364.20	2955.22
364.41	3149.78
364.62	3606.47
364.83	3327.95
365.04	3035.09
365.25	3043.28
365.46	3821.51
365.67	3123.15
365.88	3207.12
366.09	2990.03
366.30	3182.54
366.51	3321.81
366.72	3000.27
366.93	2983.89
367.14	3289.04
367.35	3596.23
367.56	2942.93
367.77	3129.30
367.98	3332.05
368.18	3344.33
368.39	3151.82
368.60	2928.60
368.81	3479.50
369.02	3321.81
369.23	2979.79
369.44	2795.48
369.65	3248.08
369.86	3391.44
370.07	3114.96
370.28	2901.97
370.49	3352.52
370.70	3303.37
370.91	2918.36
371.12	2928.60
371.33	3479.50
371.54	3188.69
371.75	3176.40
371.96	2885.59
372.17	3299.28
372.38	3250.13
372.59	3037.14
372.80	3055.57
373.01	3106.77
373.22	3344.33
373.43	2971.60
373.64	2838.48
373.85	3530.70
374.06	3626.95
374.26	3196.88
374.47	3194.83
374.68	3680.20
374.89	3299.28
375.10	2983.89
375.31	3086.29
375.52	3233.74
375.73	3248.08
375.94	2842.58
376.15	3129.30
376.36	3168.21
376.57	3141.58
376.78	3030.99
376.99	3033.04
377.20	3569.61
377.40	3231.69
377.61	3327.95
377.82	3020.75
378.03	3491.79
378.24	3397.58
378.45	3049.43
378.66	3143.63
378.87	2953.17
379.08	3049.43
379.29	3016.66
379.50	3192.78
379.71	3276.75
379.91	3399.63
380.12	2996.18
380.33	3086.29
380.54	3149.78
380.75	3278.80
380.96	3043.28
381.17	2969.55
381.38	3233.74
381.59	3250.13
381.80	3035.09
382.00	3205.07
382.21	3356.62
382.42	3516.36
382.63	3350.48
382.84	3131.34
383.05	3559.37
383.26	3606.47
383.47	3131.34
383.68	2942.93
383.88	3424.20
384.09	3258.32
384.30	3303.37
384.51	3194.83
384.72	3219.41
384.93	3026.90
385.14	3088.34
385.35	3278.80
385.55	2971.60
385.76	3479.50
385.97	3045.33
386.18	2895.83
386.39	3166.16
386.60	3248.08
386.81	2981.84
387.02	2983.89
387.22	2973.65
387.43	3403.72
387.64	3196.88
387.85	3401.68
388.06	3311.57
388.27	4261.82
388.48	7888.78
388.68	12275.52
388.89	15144.73
389.10	16807.68
389.31	16598.79
389.52	13293.37
389.73	11558.74
389.93	10446.69
390.14	9430.90
390.35	8494.97
390.56	7960.45
390.77	6623.13
390.98	4972.47
391.18	4163.52
391.39	3909.57
391.60	3327.95
391.81	3286.99
392.02	3069.91
392.23	3850.18
392.43	3344.33
392.64	3170.26
392.85	3137.49
393.06	3528.65
393.27	3209.17
393.47	2893.78
393.68	3160.02
393.89	3133.39
394.10	3575.75
394.31	2996.18
394.52	3018.71
394.72	3170.26
394.93	3524.55
395.14	2963.41
395.35	3143.63
395.56	3164.11
395.76	3235.79
395.97	2987.99
396.18	3233.74
396.39	3381.20
396.60	3999.68
396.80	3409.87
397.01	3295.18
397.22	3422.16
397.43	3403.72
397.64	3008.47
397.84	3117.01
398.05	3667.91
398.26	3289.04
398.47	3141.58
398.67	3305.42
398.88	3260.37
399.09	3434.44
399.30	3035.09
399.51	3102.67
399.71	3139.54
399.92	3323.85
400.13	3102.67
400.34	2965.46
400.54	3350.48
400.75	3585.99
400.96	3223.50
401.17	3377.10
401.37	3432.40
401.58	3239.89
401.79	2938.84
402.00	3131.34
402.21	3776.45
402.41	3442.64
402.62	3393.48
402.83	3575.75
403.04	3698.63
403.24	4044.74
403.45	3227.60
403.66	3422.16
403.87	3575.75
404.07	3633.10
404.28	3299.28
404.49	3381.20
404.70	3416.01
404.90	3454.92
405.11	3000.27
405.32	3190.74
405.52	3172.30
405.73	3112.91
405.94	2922.45
406.15	3055.57
406.35	3401.68
406.56	3485.64
406.77	3080.14
406.98	3045.33
407.18	3176.40
407.39	3520.46
407.60	3008.47
407.80	3110.86
408.01	3289.04
408.22	3426.25
408.43	2916.31
408.63	3160.02
408.84	3532.75
409.05	3467.21
409.25	3008.47
409.46	3037.14
409.67	3221.45
409.88	3172.30
410.08	3037.14
410.29	2994.13
410.50	3530.70
410.70	3379.15
410.91	2906.07
411.12	3092.43
411.32	3350.48
411.53	3098.58
411.74	3086.29
411.95	3123.15
412.15	3344.33
412.36	3399.63
412.57	3198.93
412.77	3174.35
412.98	3274.70
413.19	3256.27
413.39	3084.24
413.60	3121.10
413.81	3585.99
414.01	3039.19
414.22	3045.33
414.43	3350.48
414.63	3196.88
414.84	3469.26
415.05	3086.29
415.25	2852.82
415.46	3358.67
415.67	3241.93
415.87	3035.09
416.08	3041.23
416.29	3188.69
416.49	3416.01
416.70	3108.82
416.91	3004.37
417.11	3225.55
417.32	3463.12
417.53	3092.43
417.73	3196.88
417.94	3219.41
418.15	3336.14
418.35	3045.33
418.56	3106.77
418.77	3788.74
418.97	3274.70
419.18	3174.35
419.38	2748.37
419.59	3209.17
419.80	3551.18
420.00	2955.22
420.21	3047.38
420.42	3534.79
420.62	3301.33
420.83	3022.80
421.04	3039.19
421.24	3243.98
421.45	3477.45
421.65	3035.09
421.86	3071.95
422.07	3446.73
422.27	3432.40
422.48	2926.55
422.69	2912.21
422.89	3237.84
423.10	3182.54
423.30	2987.99
423.51	3082.19
423.72	3338.19
423.92	3430.35
424.13	2918.36
424.33	3057.62
424.54	3487.69
424.75	3264.46
424.95	3309.52
425.16	3018.71
425.36	3231.69
425.57	3538.89
425.78	3278.80
425.98	3153.87
426.19	3248.08
426.39	3127.25
426.60	3151.82
426.81	3151.82
427.01	3377.10
427.22	3084.24
427.42	2922.45
427.63	3010.51
427.83	3485.64
428.04	3700.68
428.25	3104.72
428.45	3143.63
428.66	3504.07
428.86	3262.41
429.07	3078.10
429.28	3061.71
429.48	3274.70
429.69	3143.63
429.89	3190.74
430.10	2961.36
430.30	3405.77
430.51	3428.30
430.71	3000.27
430.92	3162.06
431.13	3127.25
431.33	3356.62
431.54	3164.11
431.74	3299.28
431.95	3788.74
432.15	3047.38
432.36	3059.67
432.56	3047.38
432.77	3669.96
432.98	3651.53
433.18	3143.63
433.39	2889.68
433.59	3266.51
433.80	3688.39
434.00	3182.54
434.21	3096.53
434.41	3160.02
434.62	3729.35
434.82	2944.98
435.03	3037.14
435.23	3360.72
435.44	2930.64
435.64	3000.27
435.85	3186.64
436.06	3360.72
436.26	3540.94
436.47	2990.03
436.67	3117.01
436.88	3170.26
437.08	3461.07
437.29	3235.79
437.49	3200.98
437.70	3649.48
437.90	3114.96
438.11	3219.41
438.31	3137.49
438.52	3538.89
438.72	3469.26
438.93	3387.34
439.13	3147.73
439.34	3477.45
439.54	3186.64
439.75	3205.07
439.95	3114.96
440.16	3100.62
440.36	3315.66
440.57	3092.43
440.77	3106.77
440.98	3311.57
441.18	3416.01
441.39	2967.51
441.59	2969.55
441.80	3706.82
442.00	3321.81
442.21	3080.14
442.41	2914.26
442.62	3528.65
442.82	3194.83
443.02	2985.94
443.23	3028.95
443.43	3243.98
443.64	3538.89
443.84	3047.38
444.05	3127.25
444.25	3303.37
444.46	3139.54
444.66	3026.90
444.87	3373.00
445.07	2932.69
445.28	3205.07
445.48	3270.61
445.69	3151.82
445.89	3870.66
446.09	3254.22
446.30	3360.72
446.50	3446.73
446.71	5156.79
446.91	6393.76
447.12	7210.90
447.32	7753.61
447.53	7561.10
447.73	6485.92
447.93	5638.06
448.14	5373.87
448.34	5535.66
448.55	4558.78
448.75	4534.20
448.96	4270.01
449.16	4024.26
449.36	3876.80
449.57	3381.20
449.77	3213.26
449.98	3200.98
450.18	3391.44
450.39	3037.14
450.59	3311.57
450.79	3229.65
451.00	3098.58
451.20	3239.89
451.41	3065.81
451.61	3379.15
451.81	3262.41
452.02	3024.85
452.22	3045.33
452.43	3155.92
452.63	3069.91
452.84	3209.17
453.04	3008.47
453.24	3278.80
453.45	3133.39
453.65	3160.02
453.86	3104.72
454.06	3379.15
454.26	3332.05
454.47	3016.66
454.67	3243.98
454.87	3379.15
455.08	3196.88
455.28	3176.40
455.49	3209.17
455.69	3190.74
455.89	3649.48
456.10	3162.06
456.30	3022.80
456.51	3391.44
456.71	3311.57
456.91	3215.31
457.12	3057.62
457.32	3364.81
457.52	3057.62
457.73	3203.02
457.93	3274.70
458.14	3100.62
458.34	2961.36
458.54	3074.00
458.75	3000.27
458.95	3506.12
459.15	3444.68
459.36	3098.58
459.56	3053.52
459.76	3747.78
459.97	3362.76
460.17	3102.67
460.37	3170.26
460.58	3321.81
460.78	3377.10
460.99	3178.45
461.19	2994.13
461.39	3172.30
461.60	3225.55
461.80	3098.58
462.00	2947.03
462.21	3319.76
462.41	3094.48
462.61	2975.70
462.82	2869.20
463.02	3377.10
463.22	3305.42
463.43	3164.11
463.63	2971.60
463.83	3471.31
464.04	3379.15
464.24	3014.61
464.44	3051.47
464.64	3362.76
464.85	3377.10
465.05	3067.86
465.25	2987.99
465.46	3125.20
465.66	3389.39
465.86	3149.78
466.07	3008.47
466.27	3243.98
466.47	2936.79
466.68	2885.59
466.88	3221.45
467.08	3395.53
467.29	3493.83
467.49	3104.72
467.69	3078.10
467.89	3319.76
468.10	3200.98
468.30	3151.82
468.50	3137.49
468.71	3327.95
468.91	2910.16
469.11	3282.89
469.31	3235.79
469.52	3114.96
469.72	3655.62
469.92	3225.55
470.13	3147.73
470.33	3282.89
470.53	3321.81
470.73	3596.23
470.94	3901.38
471.14	4124.61
471.34	4800.44
471.54	4470.72
471.75	4140.99
471.95	3735.50
472.15	3801.03
472.36	3803.08
472.56	3598.28
472.76	3846.09
472.96	3745.73
473.17	3307.47
473.37	3233.74
473.57	3205.07
473.77	3389.39
473.98	3264.46
474.18	2992.08
474.38	3913.67
474.58	3252.17
474.79	2924.50
474.99	3321.81
475.19	3487.69
475.39	3018.71
475.60	3178.45
475.80	2979.79
476.00	3407.82
476.20	3157.97
476.41	3102.67
476.61	3090.38
476.81	3600.33
477.01	3090.38
477.21	3377.10
477.42	3180.50
477.62	3162.06
477.82	3430.35
478.02	2985.94
478.23	3102.67
478.43	3141.58
478.63	3252.17
478.83	3041.23
479.03	3084.24
479.24	3637.19
479.44	3721.16
479.64	2983.89
479.84	2854.87
480.04	3092.43
480.25	3518.41
480.45	2955.22
480.65	2998.23
480.85	3571.66
481.06	3180.50
481.26	3125.20
481.46	2983.89
481.66	3375.05
481.86	3100.62
482.06	3200.98
482.27	3119.06
482.47	3198.93
482.67	3319.76
482.87	3086.29
483.07	3196.88
483.28	3172.30
483.48	3076.05
483.68	3014.61
483.88	2996.18
484.08	2930.64
484.29	3098.58
484.49	3203.02
484.69	2893.78
484.89	3536.84
485.09	3549.13
485.29	3082.19
485.50	3213.26
485.70	3157.97
485.90	3563.47
486.10	3194.83
486.30	3084.24
486.50	3579.85
486.71	3301.33
486.91	3133.39
487.11	3080.14
487.31	2973.65
487.51	3342.28
487.71	3043.28
487.91	2910.16
488.12	3086.29
488.32	2893.78
488.52	3067.86
488.72	2836.44
488.92	3330.00
489.12	3487.69
489.32	3147.73
489.53	3020.75
489.73	2973.65
489.93	3559.37
490.13	3088.34
490.33	2961.36
490.53	3307.47
490.73	3508.17
490.94	2942.93
491.14	3221.45
491.34	3438.54
491.54	3405.77
491.74	4077.51
491.94	4589.50
492.14	5107.63
492.34	5212.08
492.54	4831.16
492.75	4126.66
492.95	4413.37
493.15	4007.87
493.35	3848.13
493.55	3692.49
493.75	3684.30
493.95	3868.61
494.15	3315.66
494.35	3286.99
494.56	3243.98
494.76	3200.98
494.96	3215.31
495.16	3043.28
495.36	3344.33
495.56	3321.81
495.76	3172.30
495.96	3000.27
496.16	3074.00
496.36	3608.52
496.56	3004.37
496.77	3235.79
496.97	3270.61
497.17	3555.27
497.37	2848.72
497.57	3225.55
497.77	3278.80
497.97	3098.58
498.17	3041.23
498.37	3108.82
498.57	3446.73
498.77	3100.62
498.97	3311.57
499.17	3393.48
499.38	3217.36
499.58	3338.19
499.78	3262.41
499.98	3297.23
500.18	3293.13
500.38	3080.14
500.58	3260.37
500.78	3653.58
500.98	6219.68
501.18	8267.65
501.38	10067.81
501.58	11003.74
501.78	11013.98
501.98	9242.48
502.18	7593.87
502.38	6619.04
502.58	6326.18
502.78	5760.94
502.98	5404.59
503.18	5306.29
503.38	4937.65
503.59	4235.20
503.79	4104.13
503.99	3852.23
504.19	3844.04
504.39	3991.49
504.59	3700.68
504.79	3645.38
504.99	3995.59
505.19	3651.53
505.39	3342.28
505.59	3551.18
505.79	3753.93
505.99	3600.33
506.19	3143.63
506.39	3373.00
506.59	3248.08
506.79	3207.12
506.99	3315.66
507.19	2971.60
507.39	3262.41
507.59	2977.75
507.79	2977.75
507.99	3084.24
508.19	3311.57
508.39	3227.60
508.59	3086.29
508.79	3149.78
508.99	3751.88
509.19	3098.58
509.39	3061.71
509.59	2965.46
509.79	3162.06
509.99	3401.68
510.19	3211.22
510.39	3196.88
510.59	3299.28
510.79	3174.35
510.99	2944.98
511.19	3069.91
511.39	3553.23
511.59	3522.51
511.79	3254.22
511.99	3078.10
512.19	3725.26
512.38	3278.80
512.58	2987.99
512.78	2965.46
512.98	3567.56
513.18	3575.75
513.38	2944.98
513.58	3180.50
513.78	3205.07
513.98	3227.60
514.18	3026.90
514.38	3127.25
514.58	3340.24
514.78	3127.25
514.98	2883.54
515.18	3135.44
515.38	3000.27
515.58	3639.24
515.78	3096.53
515.98	3088.34
516.18	3459.02
516.38	3221.45
516.57	3014.61
516.77	2981.84
516.97	3444.68
517.17	3090.38
517.37	2879.44
517.57	3139.54
517.77	3364.81
517.97	3114.96
518.17	3164.11
518.37	2990.03
518.57	3078.10
518.77	3192.78
518.97	3102.67
519.16	3065.81
519.36	3475.40
519.56	3127.25
519.76	2936.79
519.96	3065.81
520.16	3590.09
520.36	3096.53
520.56	3196.88
520.76	3012.56
520.96	3207.12
521.16	3530.70
521.35	3260.37
521.55	3151.82
521.75	3252.17
521.95	3176.40
522.15	3010.51
522.35	2938.84
522.55	3219.41
522.75	3450.83
522.95	3012.56
523.14	2910.16
523.34	3327.95
523.54	3225.55
523.74	3106.77
523.94	3078.10
524.14	2969.55
524.34	3348.43
524.54	3272.65
524.73	3080.14
524.93	3426.25
525.13	3317.71
525.33	2949.08
525.53	3286.99
525.73	3461.07
525.93	3342.28
526.13	3063.76
526.32	2959.31
526.52	3524.55
526.72	3377.10
526.92	3082.19
527.12	3008.47
527.32	3063.76
527.52	3373.00
527.71	3055.57
527.91	3139.54
528.11	3192.78
528.31	3221.45
528.51	3078.10
528.71	3190.74
528.90	3497.93
529.10	3510.22
529.30	3096.53
529.50	2811.86
529.70	3360.72
529.90	3164.11
530.09	3055.57
530.29	2879.44
530.49	3123.15
530.69	3817.41
530.89	3151.82
531.09	3196.88
531.28	3180.50
531.48	3545.03
531.68	3033.04
531.88	3053.52
532.08	3395.53
532.28	3231.69
532.47	3096.53
532.67	3172.30
532.87	3434.44
533.07	3049.43
533.27	3104.72
533.46	3207.12
533.66	3327.95
533.86	3157.97
534.06	3180.50
534.26	3026.90
534.45	3266.51
534.65	3432.40
534.85	3110.86
535.05	3033.04
535.25	3377.10
535.44	2951.12
535.64	3074.00
535.84	3086.29
536.04	3139.54
536.24	3155.92
536.43	3002.32
536.63	3016.66
536.83	3221.45
537.03	3286.99
537.22	2867.16
537.42	2891.73
537.62	3315.66
537.82	3162.06
538.02	3209.17
538.21	3102.67
538.41	3901.38
538.61	3348.43
538.81	3110.86
539.00	3180.50
539.20	3030.99
539.40	3188.69
539.60	3069.91
539.79	3256.27
539.99	3217.36
540.19	3074.00
540.39	3057.62
540.58	3127.25
540.78	3454.92
540.98	3272.65
541.18	3274.70
541.37	3057.62
541.57	3280.85
541.77	3340.24
541.97	2965.46
542.16	2897.88
542.36	3233.74
542.56	3098.58
542.76	3190.74
542.95	3180.50
543.15	3395.53
543.35	3325.90
543.54	2947.03
543.74	2975.70
543.94	3571.66
544.14	3133.39
544.33	3215.31
544.53	2996.18
544.73	3117.01
544.93	3235.79
545.12	3143.63
545.32	3016.66
545.52	3225.55
545.71	3063.76
545.91	3012.56
546.11	3026.90
546.30	3082.19
546.50	3315.66
546.70	3151.82
546.90	3055.57
547.09	2869.20
547.29	3190.74
547.49	3168.21
547.68	3094.48
547.88	3119.06
548.08	3420.11
548.27	3381.20
548.47	3049.43
548.67	3174.35
548.87	3336.14
549.06	2926.55
549.26	3010.51
549.46	3293.13
549.65	3096.53
549.85	3092.43
550.05	3094.48
550.24	3008.47
550.44	3319.76
550.64	3117.01
550.83	3092.43
551.03	3571.66
551.23	3479.50
551.42	3149.78
551.62	3192.78
551.82	3303.37
552.01	3157.97
552.21	3385.29
552.41	3119.06
552.60	3504.07
552.80	3254.22
553.00	3028.95
553.19	3090.38
553.39	3616.71
553.59	3127.25
553.78	3141.58
553.98	3039.19
554.17	3114.96
554.37	3399.63
554.57	3121.10
554.76	2977.75
554.96	3211.22
555.16	3235.79
555.35	3176.40
555.55	3192.78
555.75	3358.67
555.94	3444.68
556.14	2848.72
556.33	3086.29
556.53	3213.26
556.73	3182.54
556.92	3160.02
557.12	3016.66
557.32	3717.06
557.51	3598.28
557.71	3071.95
557.90	3311.57
558.10	3522.51
558.30	3278.80
558.49	3098.58
558.69	3051.47
558.88	3418.06
559.08	3319.76
559.28	3096.53
559.47	3221.45
559.67	3360.72
559.86	3686.34
560.06	3041.23
560.26	3172.30
560.45	3442.64
560.65	3188.69
560.84	3352.52
561.04	2983.89
561.24	3385.29
561.43	3096.53
561.63	3356.62
561.82	3172.30
562.02	3475.40
562.22	3164.11
562.41	2985.94
562.61	3004.37
562.80	3149.78
563.00	3758.02
563.19	3102.67
563.39	3188.69
563.59	3391.44
563.78	3035.09
563.98	2797.53
564.17	2992.08
564.37	2910.16
564.56	3291.09
564.76	2936.79
564.96	3176.40
565.15	3299.28
565.35	3760.07
565.54	3106.77
565.74	3182.54
565.93	3334.09
566.13	3227.60
566.32	3098.58
566.52	3139.54
566.71	3231.69
566.91	3467.21
567.11	3219.41
567.30	2979.79
567.50	3399.63
567.69	3336.14
567.89	3026.90
568.08	2977.75
568.28	3340.24
568.47	2998.23
568.67	3035.09
568.86	3024.85
569.06	3385.29
569.25	3254.22
569.45	3014.61
569.64	3102.67
569.84	3268.56
570.04	3303.37
570.23	3035.09
570.43	3153.87
570.62	3338.19
570.82	3567.56
571.01	2965.46
571.21	3028.95
571.40	3041.23
571.60	3413.96
571.79	3078.10
571.99	3121.10
572.18	3026.90
572.38	3274.70
572.57	3133.39
572.77	3168.21
572.96	3911.62
573.16	3262.41
573.35	3074.00
573.55	3301.33
573.74	3493.83
573.94	3198.93
574.13	2987.99
574.33	3168.21
574.52	3495.88
574.71	3221.45
574.91	3098.58
575.10	2987.99
575.30	3129.30
575.49	3131.34
575.69	3014.61
575.88	2996.18
576.08	3282.89
576.27	3461.07
576.47	3037.14
576.66	3315.66
576.86	3581.90
577.05	3323.85
577.25	3164.11
577.44	3211.22
577.64	3237.84
577.83	3375.05
578.02	3012.56
578.22	3217.36
578.41	3602.38
578.61	3157.97
578.80	3020.75
579.00	3151.82
579.19	3227.60
579.39	3377.10
579.58	3200.98
579.77	3117.01
579.97	3442.64
580.16	3461.07
580.36	3297.23
580.55	3139.54
580.75	3360.72
580.94	3200.98
581.13	3227.60
581.33	3370.96
581.52	3239.89
581.72	3647.43
581.91	3213.26
582.11	3043.28
582.30	3502.03
582.49	3313.61
582.69	3352.52
582.88	3149.78
583.08	3301.33
583.27	3403.72
583.47	3174.35
583.66	2994.13
583.85	3065.81
584.05	3239.89
584.24	3178.45
584.44	3098.58
584.63	3497.93
584.82	3538.89
585.02	3323.85
585.21	3248.08
585.41	3373.00
585.60	3393.48
585.79	3332.05
585.99	3327.95
586.18	3286.99
586.37	4286.40
586.57	6332.32
586.76	18130.67
586.96	38012.35
587.15	51494.13
587.34	59538.55
587.54	63919.15
587.73	56816.80
587.93	41303.43
588.12	31874.59
588.31	25923.19
588.51	22814.37
588.70	21126.85
588.89	18714.34
589.09	15812.37
589.28	13629.23
589.47	10868.57
589.67	8114.05
589.86	6455.20
590.06	5142.45
590.25	4501.44
590.44	3928.00
590.64	3526.60
590.83	3545.03
591.02	3561.42
591.22	3129.30
591.41	3155.92
591.60	3188.69
591.80	3768.26
591.99	2899.92
592.18	3082.19
592.38	3461.07
592.57	3243.98
592.76	3078.10
592.96	3205.07
593.15	3278.80
593.34	3475.40
593.54	3067.86
593.73	3221.45
593.92	3428.30
594.12	3461.07
594.31	3162.06
594.50	3325.90
594.70	3442.64
594.89	3796.93
595.08	3016.66
595.28	3174.35
595.47	3944.39
595.66	3524.55
595.86	2987.99
596.05	3000.27
596.24	3284.94
596.43	3655.62
596.63	3217.36
596.82	3289.04
597.01	3319.76
597.21	3604.42
597.40	3014.61
597.59	3155.92
597.79	3229.65
597.98	3479.50
598.17	3233.74
598.36	3110.86
598.56	3481.55
598.75	3172.30
598.94	3188.69
599.14	3139.54
599.33	3164.11
599.52	3418.06
599.71	3131.34
599.91	3067.86
600.10	3381.20
600.29	3319.76
600.48	3147.73
600.68	3164.11
600.87	3373.00
601.06	3123.15
601.26	3186.64
601.45	3262.41
601.64	3268.56
601.83	3567.56
602.03	3000.27
602.22	2959.31
602.41	3512.27
602.60	3872.71
602.80	3174.35
602.99	3254.22
603.18	3221.45
603.37	3295.18
603.57	3033.04
603.76	3053.52
603.95	3499.98
604.14	3184.59
604.34	2994.13
604.53	3045.33
604.72	3297.23
604.91	3370.96
605.10	3104.72
605.30	2947.03
605.49	3774.41
605.68	3340.24
605.87	3039.19
606.07	3022.80
606.26	3192.78
606.45	3383.24
606.64	3053.52
606.84	2922.45
607.03	3252.17
607.22	3413.96
607.41	3137.49
607.60	3020.75
607.80	3573.71
607.99	3332.05
608.18	3160.02
608.37	3117.01
608.56	3131.34
608.76	3502.03
608.95	3217.36
609.14	3055.57
609.33	3600.33
609.52	3528.65
609.72	3284.94
609.91	3237.84
610.10	3321.81
610.29	3626.95
610.48	3219.41
610.68	3178.45
610.87	3319.76
611.06	3434.44
611.25	3071.95
611.44	3221.45
611.63	3123.15
611.83	3516.36
612.02	2985.94
612.21	3196.88
612.40	2955.22
612.59	3035.09
612.79	2990.03
612.98	3182.54
613.17	3557.32
613.36	3246.03
613.55	3164.11
613.74	3141.58
613.93	3330.00
614.13	3356.62
614.32	3301.33
614.51	3149.78
614.70	3241.93
614.89	3254.22
615.08	3217.36
615.28	3536.84
615.47	3061.71
615.66	3356.62
615.85	3137.49
616.04	3166.16
616.23	3305.42
616.42	3248.08
616.62	3047.38
616.81	3166.16
617.00	3315.66
617.19	3387.34
617.38	3119.06
617.57	3182.54
617.76	3454.92
617.95	3504.07
618.15	3180.50
618.34	3418.06
618.53	3053.52
618.72	3532.75
618.91	3258.32
619.10	3184.59
619.29	3293.13
619.48	3254.22
619.68	2951.12
619.87	3020.75
620.06	3033.04
620.25	3440.59
620.44	2987.99
620.63	3067.86
620.82	3241.93
621.01	3237.84
621.20	3149.78
621.39	3147.73
621.59	3411.92
621.78	3248.08
621.97	3114.96
622.16	3227.60
622.35	3373.00
622.54	3465.16
622.73	3104.72
622.92	2840.53
623.11	3469.26
623.30	3254.22
623.49	3246.03
623.68	2973.65
623.88	3440.59
624.07	3131.34
624.26	2987.99
624.45	3114.96
624.64	3272.65
624.83	3303.37
625.02	2992.08
625.21	3162.06
625.40	3194.83
625.59	3565.51
625.78	3182.54
625.97	3221.45
626.16	3577.80
626.35	3393.48
626.54	3106.77
626.74	3264.46
626.93	3194.83
627.12	3205.07
627.31	3180.50
627.50	3094.48
627.69	3479.50
627.88	3098.58
628.07	2975.70
628.26	2895.83
628.45	3205.07
628.64	3092.43
628.83	3088.34
629.02	2881.49
629.21	3434.44
629.40	3346.38
629.59	2967.51
629.78	3080.14
629.97	3303.37
630.16	3295.18
630.35	3090.38
630.54	3168.21
630.73	3172.30
630.92	3207.12
631.11	2934.74
631.30	3100.62
631.49	3448.78
631.68	3209.17
631.87	3125.20
632.06	3061.71
632.25	3694.54
632.44	3231.69
632.63	3221.45
632.82	3082.19
633.01	3166.16
633.20	3336.14
633.39	3149.78
633.58	2953.17
633.77	3313.61
633.96	3465.16
634.15	3233.74
634.34	3166.16
634.53	3418.06
634.72	3157.97
634.91	2918.36
635.10	3061.71
635.29	3409.87
635.48	3332.05
635.67	2934.74
635.86	2953.17
636.05	3569.61
636.24	3305.42
636.43	3119.06
636.62	3184.59
636.81	2838.48
637.00	3246.03
637.19	3002.32
637.38	3119.06
637.57	3276.75
637.76	3309.52
637.95	3291.09
638.14	3215.31
638.33	3332.05
638.52	3295.18
638.71	3074.00
638.89	3059.67
639.08	3837.89
639.27	3438.54
639.46	3409.87
639.65	3762.12
639.84	3919.81
640.03	4134.85
640.22	3635.14
640.41	3622.86
640.60	3440.59
640.79	3565.51
640.98	3327.95
641.17	3346.38
641.36	3516.36
641.55	3565.51
641.74	2971.60
641.92	3033.04
642.11	3200.98
642.30	3295.18
642.49	3039.19
642.68	3082.19
642.87	3401.68
643.06	3379.15
643.25	2967.51
643.44	3020.75
643.63	3270.61
643.82	3432.40
644.00	2975.70
644.19	3035.09
644.38	3051.47
644.57	3352.52
644.76	3000.27
644.95	3166.16
645.14	3299.28
645.33	3284.94
645.52	3162.06
645.71	2953.17
645.89	3045.33
646.08	3209.17
646.27	3129.30
646.46	3248.08
646.65	2992.08
646.84	3272.65
647.03	2969.55
647.22	3262.41
647.40	3330.00
647.59	3237.84
647.78	2840.53
647.97	3033.04
648.16	3176.40
648.35	3631.05
648.54	3319.76
648.73	3098.58
648.91	3469.26
649.10	3274.70
649.29	2983.89
649.48	2944.98
649.67	3420.11
649.86	3360.72
650.05	3131.34
650.23	3164.11
650.42	3229.65
650.61	3590.09
650.80	3336.14
650.99	3313.61
651.18	3491.79
651.36	3401.68
651.55	3065.81
651.74	3258.32
651.93	3162.06
652.12	3243.98
652.31	3147.73
652.49	3153.87
652.68	3160.02
652.87	3598.28
653.06	3223.50
653.25	3360.72
653.44	3319.76
653.62	3661.77
653.81	3067.86
654.00	3061.71
654.19	3495.88
654.38	3778.50
654.56	3123.15
654.75	2996.18
654.94	3493.83
655.13	3373.00
655.32	3055.57
655.51	3106.77
655.69	3145.68
655.88	3426.25
656.07	2940.88
656.26	3125.20
656.45	3047.38
656.63	3225.55
656.82	2965.46
657.01	3319.76
657.20	3207.12
657.38	3567.56
657.57	3053.52
657.76	2824.15
657.95	3403.72
658.14	3188.69
658.32	3190.74
658.51	2955.22
658.70	3334.09
658.89	3385.29
659.08	3086.29
659.26	3344.33
659.45	3121.10
659.64	3411.92
659.83	3024.85
660.01	3499.98
660.20	3348.43
660.39	3667.91
660.58	2783.19
660.76	3082.19
660.95	3028.95
661.14	3344.33
661.33	2881.49
661.51	3028.95
661.70	3243.98
661.89	3377.10
662.08	3131.34
662.26	2824.15
662.45	3045.33
662.64	3651.53
662.83	3094.48
663.01	2963.41
663.20	3194.83
663.39	3622.86
663.58	3127.25
663.76	3133.39
663.95	3428.30
664.14	3102.67
664.32	3155.92
664.51	2971.60
664.70	3014.61
664.89	3370.96
665.07	2916.31
665.26	3180.50
665.45	2975.70
665.64	3450.83
665.82	3057.62
666.01	3213.26
666.20	3008.47
666.38	3444.68
666.57	3405.77
666.76	5611.43
666.95	13211.45
667.13	20696.77
667.32	25253.50
667.51	28575.31
667.69	29478.46
667.88	24581.77
668.07	17753.84
668.25	15261.46
668.44	13053.75
668.63	11317.08
668.81	10065.77
669.00	8468.35
669.19	7790.47
669.38	6846.36
669.56	5791.66
669.75	4964.28
669.94	4515.77
670.12	3712.97
670.31	3413.96
670.50	3389.39
670.68	3506.12
670.87	3391.44
671.06	3020.75
671.24	3143.63
671.43	3530.70
671.62	3356.62
671.80	3057.62
671.99	3221.45
672.18	3280.85
672.36	3428.30
672.55	3258.32
672.74	3157.97
672.92	3172.30
673.11	3377.10
673.29	2920.40
673.48	3254.22
673.67	3205.07
673.85	3483.59
674.04	2994.13
674.23	3207.12
674.41	3567.56
674.60	3082.19
674.79	2871.25
674.97	2910.16
675.16	3368.91
675.34	3524.55
675.53	3026.90
675.72	3141.58
675.90	3614.66
676.09	3209.17
676.28	3237.84
676.46	2928.60
676.65	3321.81
676.83	3030.99
677.02	3133.39
677.21	3172.30
677.39	3352.52
677.58	3162.06
677.77	3084.24
677.95	2994.13
678.14	3258.32
678.32	3207.12
678.51	3026.90
678.70	3411.92
678.88	3166.16
679.07	3237.84
679.25	3143.63
679.44	3102.67
679.63	3082.19
679.81	3280.85
680.00	3383.24
680.18	3172.30
680.37	3577.80
680.55	3336.14
680.74	2928.60
680.93	2848.72
681.11	3362.76
681.30	3338.19
681.48	3137.49
681.67	3221.45
681.85	3262.41
682.04	3051.47
682.23	3129.30
682.41	3160.02
682.60	3162.06
682.78	3270.61
682.97	2994.13
683.15	3182.54
683.34	3254.22
683.53	3639.24
683.71	2953.17
683.90	3121.10
684.08	3631.05
684.27	3248.08
684.45	3123.15
684.64	3196.88
684.82	3284.94
685.01	3409.87
685.19	3084.24
685.38	3393.48
685.57	3301.33
685.75	3065.81
685.94	3008.47
686.12	2994.13
686.31	3221.45
686.49	3641.29
686.68	2863.06
686.86	3133.39
687.05	3278.80
687.23	3524.55
687.42	3117.01
687.60	2924.50
687.79	3487.69
687.97	3604.42
688.16	3182.54
688.34	3286.99
688.53	2885.59
688.71	3354.57
688.90	3379.15
689.08	3188.69
689.27	2942.93
689.45	3467.21
689.64	3184.59
689.82	3248.08
690.01	3360.72
690.19	3268.56
690.38	3133.39
690.56	3184.59
690.75	3057.62
690.93	3168.21
691.12	3063.76
691.30	3188.69
691.49	3104.72
691.67	3209.17
691.86	3448.78
692.04	3147.73
692.23	3182.54
692.41	3286.99
692.60	3424.20
692.78	3276.75
692.97	3241.93
693.15	3424.20
693.34	3354.57
693.52	3291.09
693.71	3127.25
693.89	3276.75
694.08	2940.88
694.26	3080.14
694.44	3504.07
694.63	3319.76
694.81	2955.22
695.00	3012.56
695.18	3579.85
695.37	3786.69
695.55	3192.78
695.74	3117.01
695.92	3196.88
696.10	3493.83
696.29	3002.32
696.47	3061.71
696.66	3074.00
696.84	3020.75
697.03	3149.78
697.21	3389.39
697.40	4659.13
697.58	3485.64
697.76	3067.86
697.95	3033.04
698.13	3098.58
698.32	3127.25
698.50	3053.52
698.68	3133.39
698.87	3319.76
699.05	3559.37
699.24	3153.87
699.42	3090.38
699.61	3258.32
699.79	3217.36
699.97	3139.54
700.16	3008.47
700.34	3082.19
700.53	3327.95
700.71	3430.35
700.89	3305.42
701.08	3278.80
701.26	3203.02
701.45	3493.83
701.63	3030.99
701.81	3209.17
702.00	3225.55
702.18	3188.69
702.37	3151.82
702.55	3604.42
702.73	3319.76
702.92	3157.97
703.10	3499.98
703.28	3520.46
703.47	3071.95
703.65	3342.28
703.84	3262.41
704.02	3106.77
704.20	3602.38
704.39	2990.03
704.57	3037.14
704.75	3452.88
704.94	3379.15
705.12	3307.47
705.30	4059.07
705.49	8959.86
705.67	17757.94
705.86	24399.50
706.04	27979.35
706.22	31014.44
706.41	29457.98
706.59	22281.90
706.77	17383.16
706.96	14933.79
707.14	13590.32
707.32	11392.85
707.51	10127.21
707.69	8251.27
707.87	6711.19
708.06	5435.31
708.24	4579.26
708.42	4140.99
708.61	4171.71
708.79	3393.48
708.97	3270.61
709.16	3465.16
709.34	3293.13
709.52	3084.24
709.71	3182.54
709.89	3418.06
710.07	3057.62
710.26	2994.13
710.44	3098.58
710.62	3518.41
710.80	3237.84
710.99	3246.03
711.17	3213.26
711.35	3149.78
711.54	3176.40
711.72	3307.47
711.90	3110.86
712.09	3319.76
712.27	3231.69
712.45	3237.84
712.63	3090.38
712.82	3315.66
713.00	3276.75
713.18	3221.45
713.37	3268.56
713.55	3438.54
713.73	3395.53
713.91	3227.60
714.10	3039.19
714.28	3276.75
714.46	3434.44
714.65	3223.50
714.83	3155.92
715.01	3266.51
715.19	3319.76
715.38	3004.37
715.56	3207.12
715.74	3123.15
715.92	3086.29
716.11	3395.53
716.29	2908.12
716.47	3250.13
716.65	3258.32
716.84	3016.66
717.02	3145.68
717.20	2889.68
717.38	3190.74
717.57	3217.36
717.75	3108.82
717.93	3149.78
718.11	3375.05
718.30	2979.79
718.48	3131.34
718.66	3598.28
718.84	3561.42
719.03	3125.20
719.21	2926.55
719.39	3686.34
719.57	3342.28
719.75	3141.58
719.94	2994.13
720.12	3233.74
720.30	3282.89
720.48	3184.59
720.67	2959.31
720.85	3076.05
721.03	3114.96
721.21	2953.17
721.39	3178.45
721.58	3459.02
721.76	3252.17
721.94	3106.77
722.12	3254.22
722.30	3606.47
722.49	3229.65
722.67	3149.78
722.85	3162.06
723.03	2899.92
723.21	3182.54
723.40	3133.39
723.58	3272.65
723.76	3373.00
723.94	3588.04
724.12	3108.82
724.30	3348.43
724.49	3581.90
724.67	3106.77
724.85	3221.45
725.03	2998.23
725.21	3459.02
725.40	3463.12
725.58	3166.16
725.76	3278.80
725.94	3352.52
726.12	3074.00
726.30	3147.73
726.49	3084.24
726.67	3223.50
726.85	3405.77
727.03	3940.29
727.21	5705.64
727.39	7370.64
727.57	8195.97
727.76	8654.72
727.94	8585.08
728.12	7557.00
728.30	6137.76
728.48	5679.02
728.66	5228.46
728.84	4900.79
729.03	4255.68
729.21	3831.75
729.39	3676.10
729.57	3411.92
729.75	3459.02
729.93	3336.14
730.11	3149.78
730.30	3221.45
730.48	3241.93
730.66	3157.97
730.84	3256.27
731.02	3262.41
731.20	3078.10
731.38	3102.67
731.56	2975.70
731.74	2998.23
731.93	3426.25
732.11	3194.83
732.29	3049.43
732.47	3360.72
732.65	3330.00
732.83	3291.09
733.01	3272.65
733.19	3192.78
733.37	3350.48
733.56	3119.06
733.74	2963.41
733.92	3534.79
734.10	3168.21
734.28	3332.05
734.46	2914.26
734.64	3174.35
734.82	3104.72
735.00	3035.09
735.18	2996.18
735.36	3198.93
735.54	3223.50
735.73	3117.01
735.91	3178.45
736.09	3651.53
736.27	3307.47
736.45	3125.20
736.63	2885.59
736.81	3274.70
736.99	3510.22
737.17	3336.14
737.35	2975.70
737.53	3291.09
737.71	3198.93
737.89	3248.08
738.07	3035.09
738.25	3112.91
738.43	3016.66
738.61	3186.64
738.80	2967.51
738.98	3117.01
739.16	3151.82
739.34	2987.99
739.52	3401.68
739.70	3266.51
739.88	3373.00
740.06	3182.54
740.24	2856.92
740.42	3594.19
740.60	2918.36
740.78	3084.24
740.96	2830.29
741.14	3192.78
741.32	3231.69
741.50	2922.45
741.68	3356.62
741.86	3561.42
742.04	3155.92
742.22	2983.89
742.40	3157.97
742.58	3442.64
742.76	3131.34
742.94	3356.62
743.12	2928.60
743.30	3301.33
743.48	3393.48
743.66	3082.19
743.84	3106.77
744.02	3102.67
744.20	3213.26
744.38	2955.22
744.56	3117.01
744.74	3637.19
744.92	3395.53
745.10	3319.76
745.28	3084.24
745.46	3557.32
745.64	3309.52
745.82	3135.44
746.00	3049.43
746.18	3375.05
746.36	3074.00
746.54	3102.67
746.72	3076.05
746.90	3065.81
747.08	3528.65
747.26	3051.47
747.44	3272.65
747.62	3362.76
747.80	3426.25
747.98	3155.92
748.15	3045.33
748.33	3631.05
748.51	3330.00
748.69	3160.02
748.87	2942.93
749.05	3321.81
749.23	3203.02
749.41	3041.23
749.59	3088.34
749.77	3444.68
749.95	3184.59
750.13	3035.09
750.31	3227.60
750.49	3297.23
750.67	3344.33
750.85	3315.66
751.03	3065.81
751.20	3737.54
751.38	3297.23
751.56	3157.97
751.74	3108.82
751.92	3200.98
752.10	3004.37
752.28	3274.70
752.46	3084.24
752.64	3198.93
752.82	3262.41
753.00	3106.77
753.18	3033.04
753.35	3166.16
753.53	3217.36
753.71	3041.23
753.89	3196.88
754.07	3315.66
754.25	3471.31
754.43	3188.69
754.61	3002.32
754.79	3370.96
754.97	3149.78
755.14	3303.37
755.32	3024.85
755.50	3393.48
755.68	3272.65
755.86	3041.23
756.04	3033.04
756.22	2922.45
756.40	3459.02
756.57	3327.95
756.75	3016.66
756.93	3444.68
757.11	3454.92
757.29	2971.60
757.47	2985.94
757.65	2920.40
757.82	2844.63
758.00	2979.79
758.18	3078.10
758.36	3076.05
758.54	3620.81
758.72	2899.92
758.90	3141.58
759.07	3319.76
759.25	3211.22
759.43	3229.65
759.61	2922.45
759.79	4487.10
759.97	3479.50
760.15	3123.15
760.32	3094.48
760.50	3413.96
760.68	3557.32
760.86	2953.17
761.04	3336.14
761.22	3407.82
761.39	3295.18
761.57	3143.63
761.75	3082.19
761.93	3356.62
762.11	3254.22
762.28	3231.69
762.46	2979.79
762.64	3409.87
762.82	3067.86
763.00	2975.70
763.18	3319.76
763.35	3037.14
763.53	3409.87
763.71	3141.58
763.89	3041.23
764.07	3309.52
764.24	3315.66
764.42	3178.45
764.60	3129.30
764.78	3395.53
764.96	3411.92
765.13	3209.17
765.31	2961.36
765.49	3399.63
765.67	3018.71
765.84	3014.61
766.02	2975.70
766.20	2971.60
766.38	3268.56
766.56	3153.87
766.73	3190.74
766.91	3246.03
767.09	3325.90
767.27	3198.93
767.44	3002.32
767.62	3434.44
767.80	3252.17
767.98	3016.66
768.15	3127.25
768.33	3385.29
768.51	3444.68
768.69	3194.83
768.87	3051.47
769.04	3299.28
769.22	3880.90
769.40	3225.55
769.58	3243.98
769.75	3246.03
769.93	3467.21
770.11	3129.30
770.28	2987.99
770.46	3434.44
770.64	3360.72
770.82	3119.06
770.99	3016.66
771.17	3356.62
771.35	3141.58
771.53	3119.06
771.70	3000.27
771.88	3420.11
772.06	3229.65
772.23	2992.08
772.41	3102.67
772.59	3207.12
772.77	3131.34
772.94	3100.62
773.12	3172.30
773.30	3164.11
773.47	3297.23
773.65	2992.08
773.83	3276.75
774.01	3325.90
774.18	2942.93
774.36	3049.43
774.54	2987.99
774.71	3373.00
774.89	2928.60
775.07	2992.08
775.24	3117.01
775.42	3221.45
775.60	3631.05
775.78	3006.42
775.95	2906.07
776.13	2883.54
776.31	2906.07
776.48	3223.50
776.66	3241.93
776.84	3205.07
777.01	3188.69
777.19	2983.89
777.37	3045.33
777.54	3389.39
777.72	3749.83
777.90	3088.34
778.07	3114.96
778.25	4011.97
778.43	3436.49
778.60	3100.62
778.78	3172.30
778.96	3516.36
779.13	3071.95
779.31	3082.19
779.49	3174.35
779.66	3321.81
779.84	3200.98
780.01	3057.62
780.19	2914.26
780.37	3504.07
780.54	3418.06
780.72	2971.60
780.90	3129.30
781.07	3241.93
781.25	3180.50
781.43	3237.84
781.60	3082.19
781.78	3594.19
781.95	3280.85
782.13	3102.67
782.31	3090.38
782.48	2959.31
782.66	3282.89
782.83	3330.00
783.01	3110.86
783.19	3434.44
783.36	3162.06
783.54	2992.08
783.72	3254.22
783.89	3239.89
784.07	3246.03
784.24	3248.08
784.42	3211.22
784.60	3260.37
784.77	3305.42
784.95	2787.29
785.12	3082.19
785.30	3319.76
785.47	3121.10
785.65	2926.55
785.83	3119.06
786.00	3131.34
786.18	3254.22
786.35	2973.65
786.53	3010.51
786.71	3471.31
786.88	3256.27
787.06	3213.26
787.23	3135.44
787.41	3086.29
787.58	3274.70
787.76	2983.89
787.94	3024.85
788.11	3305.42
788.29	3026.90
788.46	3022.80
788.64	2944.98
788.81	3241.93
788.99	3110.86
789.16	3028.95
789.34	3071.95
789.52	3170.26
789.69	3123.15
789.87	2811.86
790.04	3065.81
790.22	3239.89
790.39	3688.39
790.57	2961.36
790.74	3024.85
790.92	3545.03
791.09	2895.83
791.27	3119.06
791.44	3143.63
791.62	3209.17
791.79	3473.36
791.97	3104.72
792.15	3409.87
792.32	3381.20
792.50	3438.54
792.67	3268.56
792.85	3377.10
793.02	3299.28
793.20	3172.30
793.37	2942.93
793.55	3024.85
793.72	3059.67
793.90	3358.67
794.07	3049.43
794.25	3041.23
794.42	3350.48
794.60	3174.35
794.77	3119.06
794.95	3219.41
795.12	3446.73
795.30	3291.09
795.47	2815.96
795.65	3432.40
795.82	3471.31
796.00	3147.73
796.17	3100.62
796.34	2965.46
796.52	3303.37
796.69	3499.98
796.87	3184.59
797.04	3190.74
797.22	3403.72
797.39	3362.76
797.57	3241.93
797.74	3176.40
797.92	3317.71
798.09	3248.08
798.27	3377.10
798.44	3092.43
798.62	3135.44
798.79	3303.37
798.96	3190.74
799.14	3059.67
799.31	3770.31
799.49	3237.84
799.66	3090.38
799.84	3147.73
800.01	2996.18
800.19	3246.03
800.36	2856.92
800.53	3094.48
800.71	3362.76
800.88	3641.29
801.06	3045.33
801.23	3000.27
801.41	3229.65
801.58	3180.50
801.75	3049.43
801.93	3151.82
802.10	3491.79
802.28	3227.60
802.45	3133.39
802.63	3190.74
802.80	3581.90
802.97	3233.74
803.15	3084.24
803.32	3035.09
803.50	3166.16
803.67	3127.25
803.84	2959.31
804.02	3102.67
804.19	3196.88
804.37	2815.96
804.54	2916.31
804.71	3010.51
804.89	3330.00
805.06	3043.28
805.24	3080.14
805.41	2930.64
805.58	3063.76
805.76	3778.50
805.93	3035.09
806.10	3274.70
806.28	3379.15
806.45	3246.03
806.63	3270.61
806.80	3200.98
806.97	3373.00
807.15	3295.18
807.32	3157.97
807.49	3065.81
807.67	3061.71
807.84	3327.95
808.01	2944.98
808.19	3223.50
808.36	3643.34
808.54	3215.31
808.71	3000.27
808.88	3053.52
809.06	3440.59
809.23	3577.80
809.40	3090.38
809.58	3065.81
809.75	3207.12
809.92	3098.58
810.10	3327.95
810.27	3086.29
810.44	3387.34
810.62	3356.62
810.79	3147.73
810.96	3151.82
811.14	3102.67
811.31	3358.67
811.48	3311.57
811.66	3205.07
811.83	3454.92
812.00	3379.15
812.18	3180.50
812.35	3360.72
812.52	3164.11
812.69	3184.59
812.87	3106.77
813.04	3018.71
813.21	3274.70
813.39	3121.10
813.56	3045.33
813.73	3387.34
813.91	2983.89
814.08	3280.85
814.25	3084.24
814.42	2856.92
814.60	3262.41
814.77	3356.62
814.94	2994.13
815.12	3100.62
815.29	3643.34
815.46	3098.58
815.63	3098.58
815.81	3033.04
815.98	3237.84
816.15	3155.92
816.33	3223.50
816.50	3026.90
816.67	3344.33
816.84	3176.40
817.02	2922.45
817.19	3049.43
817.36	3389.39
817.53	3444.68
817.71	3006.42
817.88	3071.95
818.05	3246.03
818.22	3172.30
818.40	3241.93
818.57	3086.29
818.74	3319.76
818.91	3246.03
819.09	3219.41
819.26	3190.74
819.43	3117.01
819.60	3139.54
819.78	3254.22
819.95	3162.06
820.12	3102.67
820.29	3608.52
820.47	3321.81
820.64	2959.31
820.81	3061.71
820.98	3061.71
821.15	3033.04
821.33	3211.22
821.50	2893.78
821.67	3311.57
821.84	3000.27
822.02	3059.67
822.19	3377.10
822.36	3254.22
822.53	3041.23
822.70	3028.95
822.88	3135.44
823.05	3430.35
823.22	3145.68
823.39	3137.49
823.56	3299.28
823.74	3643.34
823.91	2887.64
824.08	2992.08
824.25	2998.23
824.42	3542.99
824.60	3020.75
824.77	3174.35
824.94	3190.74
825.11	3461.07
825.28	2885.59
825.45	3176.40
825.63	3336.14
825.80	3076.05
825.97	3172.30
826.14	3186.64
826.31	2951.12
826.48	3373.00
826.66	3053.52
826.83	3071.95
827.00	3278.80
827.17	3123.15
827.34	3135.44
827.51	3037.14
827.69	3241.93
827.86	2951.12
828.03	3151.82
828.20	3057.62
828.37	3162.06
828.54	3436.49
828.71	2973.65
828.89	3168.21
829.06	3258.32
829.23	3563.47
829.40	3104.72
829.57	3047.38
829.74	3358.67
829.91	3141.58
830.09	2957.27
830.26	3254.22
830.43	3581.90
830.60	3221.45
830.77	3168.21
830.94	3246.03
831.11	3485.64
831.28	3219.41
831.46	3162.06
831.63	3002.32
831.80	3422.16
831.97	3076.05
832.14	3065.81
832.31	3053.52
832.48	3313.61
832.65	3426.25
832.82	3217.36
832.99	3254.22
833.17	3059.67
833.34	3540.94
833.51	3069.91
833.68	2858.96
833.85	3432.40
834.02	3045.33
834.19	3002.32
834.36	3076.05
834.53	3336.14
834.70	3430.35
834.87	3104.72
835.04	2865.11
835.22	3108.82
835.39	3305.42
835.56	2973.65
835.73	2936.79
835.90	3430.35
836.07	3049.43
836.24	3086.29
836.41	2961.36
836.58	3051.47
836.75	3428.30
836.92	2949.08
837.09	2869.20
837.26	3438.54
837.43	3373.00
837.60	3065.81
837.77	2889.68
837.94	3510.22
838.12	3569.61
838.29	2807.77
838.46	2836.44
838.63	2992.08
838.80	3592.14
838.97	3000.27
839.14	2889.68
839.31	3264.46
839.48	3377.10
839.65	2967.51
839.82	3043.28
839.99	3342.28
840.16	3194.83
840.33	2840.53
840.50	2957.27
840.67	3059.67
840.84	2738.13
841.01	2889.68
841.18	2940.88
841.35	3217.36
841.52	3446.73
841.69	3229.65
841.86	3010.51
842.03	3131.34
842.20	3405.77
842.37	2885.59
842.54	2951.12
842.71	3377.10
842.88	2955.22
843.05	2953.17
843.22	2975.70
843.39	3393.48
843.56	3108.82
843.73	2836.44
843.90	3059.67
844.07	3241.93
844.24	3420.11
844.41	2990.03
844.58	2959.31
844.75	3278.80
844.92	3330.00
845.09	2965.46
845.26	2924.50
845.43	3383.24
845.60	3223.50
845.77	3065.81
845.94	3053.52
846.10	3434.44
846.27	2965.46
846.44	2871.25
846.61	2785.24
846.78	3274.70
846.95	3467.21
847.12	2885.59
847.29	2877.40
847.46	3035.09
847.63	3463.12
847.80	2889.68
847.97	2951.12
848.14	3700.68
848.31	3184.59
848.48	2793.43
848.65	2861.01
848.82	3164.11
848.98	3811.27
849.15	3084.24
849.32	3049.43
849.49	3479.50
849.66	3233.74
849.83	2985.94
850.00	2805.72
850.17	3379.15
850.34	3160.02
850.51	2901.97
850.68	2973.65
850.85	3667.91
851.01	3344.33
851.18	2906.07
851.35	2920.40
851.52	3420.11
851.69	3491.79
851.86	2865.11
852.03	2885.59
852.20	3385.29
852.37	3205.07
852.53	2811.86
852.70	2877.40
852.87	3356.62
853.04	3459.02
853.21	2895.83
853.38	3286.99
853.55	3561.42
853.72	3534.79
853.89	2844.63
854.05	2873.30
854.22	3274.70
854.39	3227.60
854.56	2975.70
854.73	3039.19
854.90	3143.63
855.07	3225.55
855.23	2848.72
855.40	2815.96
855.57	3192.78
855.74	2897.88
855.91	3133.39
856.08	2746.33
856.25	2957.27
856.41	3143.63
856.58	2844.63
856.75	2912.21
856.92	2979.79
857.09	3459.02
857.26	2805.72
857.42	2996.18
857.59	3446.73
857.76	3149.78
857.93	2930.64
858.10	3008.47
858.27	3076.05
858.43	3286.99
858.60	2908.12
858.77	2840.53
858.94	3256.27
859.11	3483.59
859.27	3045.33
859.44	2803.67
859.61	3620.81
859.78	3368.91
859.95	2967.51
860.12	2897.88
860.28	3712.97
860.45	3598.28
860.62	2887.64
860.79	3100.62
860.95	3135.44
861.12	3102.67
861.29	2822.10
861.46	2848.72
861.63	3233.74
861.79	3315.66
861.96	2805.72
862.13	2889.68
862.30	3567.56
862.47	3155.92
862.63	2760.66
862.80	2932.69
862.97	3354.57
863.14	3336.14
863.30	2889.68
863.47	2854.87
863.64	3581.90
863.81	3188.69
863.97	2748.37
864.14	2930.64
864.31	3260.37
864.48	3325.90
864.65	2969.55
864.81	3024.85
864.98	3387.34
865.15	3344.33
865.32	3108.82
865.48	3000.27
865.65	3616.71
865.82	3155.92
865.98	3037.14
866.15	3028.95
866.32	3276.75
866.49	3237.84
866.65	3078.10
866.82	2942.93
866.99	3284.94
867.16	3051.47
867.32	2893.78
867.49	2826.20
867.66	3151.82
867.83	3127.25
867.99	2842.58
868.16	2949.08
868.33	2994.13
868.49	3260.37
868.66	2901.97
868.83	3053.52
868.99	3248.08
869.16	3221.45
869.33	3006.42
869.50	3010.51
869.66	3286.99
869.83	3231.69
870.00	2877.40
870.16	3035.09
870.33	3250.13
870.50	3403.72
870.66	3059.67
870.83	2885.59
871.00	3264.46
871.17	3348.43
871.33	2979.79
871.50	2977.75
871.67	3250.13
871.83	3139.54
872.00	2981.84
872.17	2858.96
872.33	3596.23
872.50	3475.40
872.67	2901.97
872.83	2951.12
873.00	3299.28
873.17	3186.64
873.33	2979.79
873.50	3002.32
873.67	3102.67
873.83	3033.04
874.00	2906.07
874.16	3002.32
874.33	3350.48
874.50	3012.56
874.66	2854.87
874.83	3043.28
875.00	3450.83
875.16	3434.44
875.33	3016.66
875.50	2727.89
875.66	3139.54
875.83	3223.50
875.99	3090.38
876.16	3047.38
876.33	3037.14
876.49	3164.11
876.66	2955.22
876.83	2938.84
876.99	3045.33
877.16	3301.33
877.32	2908.12
877.49	3000.27
877.66	3389.39
877.82	3524.55
877.99	2981.84
878.15	3188.69
878.32	3239.89
878.49	3352.52
878.65	3065.81
878.82	3205.07
878.98	3153.87
879.15	3471.31
879.32	3028.95
879.48	3157.97
879.65	3225.55
879.81	3211.22
879.98	2998.23
880.15	3041.23
880.31	3452.88
880.48	3078.10
880.64	3100.62
880.81	3092.43
880.97	3614.66
881.14	3483.59
881.31	2914.26
881.47	3076.05
881.64	3370.96
881.80	2918.36
881.97	3170.26
882.13	2918.36
882.30	3071.95
882.47	3074.00
882.63	2928.60
882.80	2912.21
882.96	3174.35
883.13	3409.87
883.29	2922.45
883.46	2930.64
883.62	3768.26
883.79	3266.51
883.95	3194.83
884.12	2871.25
884.29	3520.46
884.45	3286.99
884.62	2938.84
884.78	2830.29
884.95	3581.90
885.11	3061.71
885.28	3012.56
885.44	3014.61
885.61	3391.44
885.77	3477.45
885.94	3006.42
886.10	3008.47
886.27	3188.69
886.43	3690.44
886.60	3119.06
886.76	2996.18
886.93	3131.34
887.09	3260.37
887.26	2777.05
887.42	3043.28
887.59	3526.60
887.75	3696.58
887.92	3147.73
888.08	3028.95
888.25	3579.85
888.41	3411.92
888.58	3035.09
888.74	2783.19
888.91	3153.87
>>>>>End Processed Spectral Data<<<<<
