SpectraSuite Data File
++++++++++++++++++++++++++++++++++++
Date: Fri May 06 08:14:09 CEST 2016
User: root
Dark Spectrum Present: No
Reference Spectrum Present: No
Number of Sampled Component Spectra: 1
Spectrometers: USB4C02835
Integration Time (usec): 100000 (USB4C02835)
Spectra Averaged: 1 (USB4C02835)
Boxcar Smoothing: 0 (USB4C02835)
Correct for Electrical Dark: No (USB4C02835)
Strobe/Lamp Enabled: No (USB4C02835)
Correct for Detector Non-linearity: No (USB4C02835)
Correct for Stray Light: No (USB4C02835)
Number of Pixels in Processed Spectrum: 3648
>>>>>Begin Processed Spectral Data<<<<<
177.47	2246.62
177.69	2246.62
177.91	2246.62
178.13	2267.10
178.36	2238.43
178.58	3026.90
178.80	3147.73
179.02	2990.03
179.24	3016.66
179.46	2783.19
179.68	2852.82
179.90	3286.99
180.13	3270.61
180.35	2635.74
180.57	2865.11
180.79	3516.36
181.01	3246.03
181.23	2930.64
181.45	3012.56
181.67	3411.92
181.90	3397.58
182.12	2920.40
182.34	2729.94
182.56	3385.29
182.78	3405.77
183.00	2844.63
183.22	2957.27
183.44	2910.16
183.66	3874.76
183.89	2967.51
184.11	2869.20
184.33	3360.72
184.55	3510.22
184.77	2820.05
184.99	2938.84
185.21	3135.44
185.43	3870.66
185.65	2856.92
185.87	2791.38
186.10	3741.64
186.32	3889.09
186.54	3033.04
186.76	3000.27
186.98	3571.66
187.20	3299.28
187.42	2938.84
187.64	2797.53
187.86	3344.33
188.08	3530.70
188.30	2770.90
188.52	2832.34
188.75	3545.03
188.97	3512.27
189.19	2891.73
189.41	2869.20
189.63	3366.86
189.85	3239.89
190.07	2719.70
190.29	2805.72
190.51	3395.53
190.73	2926.55
190.95	2983.89
191.17	2914.26
191.39	3020.75
191.61	3221.45
191.84	2875.35
192.06	2983.89
192.28	3033.04
192.50	3950.53
192.72	3039.19
192.94	2951.12
193.16	3499.98
193.38	3346.38
193.60	2840.53
193.82	3096.53
194.04	3545.03
194.26	3299.28
194.48	2910.16
194.70	2813.91
194.92	3274.70
195.14	3485.64
195.36	2865.11
195.58	2912.21
195.80	3280.85
196.02	3231.69
196.24	2852.82
196.46	2852.82
196.69	3125.20
196.91	3786.69
197.13	2881.49
197.35	3026.90
197.57	3616.71
197.79	3471.31
198.01	2938.84
198.23	2967.51
198.45	3393.48
198.67	3057.62
198.89	2740.18
199.11	2969.55
199.33	3129.30
199.55	2789.33
199.77	2838.48
199.99	3035.09
200.21	3207.12
200.43	3387.34
200.65	2779.09
200.87	2723.80
201.09	3264.46
201.31	3207.12
201.53	2848.72
201.75	2961.36
201.97	3274.70
202.19	3286.99
202.41	2910.16
202.63	2969.55
202.85	3364.81
203.07	3346.38
203.29	2891.73
203.51	2781.14
203.73	3209.17
203.95	3805.13
204.17	2901.97
204.39	3037.14
204.61	3313.61
204.83	3094.48
205.05	3078.10
205.27	2940.88
205.49	3708.87
205.71	3295.18
205.93	2725.85
206.15	2723.80
206.37	3309.52
206.59	3217.36
206.81	2697.17
207.03	2791.38
207.25	3100.62
207.47	3344.33
207.69	2867.16
207.91	3010.51
208.13	3590.09
208.34	3188.69
208.56	2871.25
208.78	2883.54
209.00	3114.96
209.22	3176.40
209.44	2881.49
209.66	2834.39
209.88	3362.76
210.10	3272.65
210.32	2820.05
210.54	2910.16
210.76	3166.16
210.98	3491.79
211.20	2664.41
211.42	2969.55
211.64	3528.65
211.86	3393.48
212.08	2942.93
212.30	2795.48
212.52	3225.55
212.74	3368.91
212.96	2963.41
213.17	2992.08
213.39	3477.45
213.61	3626.95
213.83	2883.54
214.05	2699.22
214.27	3598.28
214.49	3123.15
214.71	2838.48
214.93	2967.51
215.15	3295.18
215.37	3495.88
215.59	2777.05
215.81	2873.30
216.03	3606.47
216.24	3231.69
216.46	2852.82
216.68	2961.36
216.90	3381.20
217.12	3512.27
217.34	2826.20
217.56	3051.47
217.78	3651.53
218.00	3364.81
218.22	2949.08
218.44	2918.36
218.66	3321.81
218.87	3665.86
219.09	2879.44
219.31	2863.06
219.53	3313.61
219.75	3147.73
219.97	2848.72
220.19	2887.64
220.41	3262.41
220.63	3516.36
220.85	2891.73
221.06	2934.74
221.28	3528.65
221.50	3350.48
221.72	2949.08
221.94	2770.90
222.16	3346.38
222.38	3479.50
222.60	2861.01
222.82	2897.88
223.03	3448.78
223.25	3045.33
223.47	2813.91
223.69	3092.43
223.91	3506.12
224.13	3229.65
224.35	2852.82
224.57	3033.04
224.78	3459.02
225.00	3092.43
225.22	3037.14
225.44	2867.16
225.66	3385.29
225.88	3221.45
226.10	3024.85
226.32	2807.77
226.53	3612.62
226.75	3151.82
226.97	2934.74
227.19	2875.35
227.41	3190.74
227.63	3114.96
227.85	2631.64
228.06	2957.27
228.28	3395.53
228.50	3583.95
228.72	2719.70
228.94	2830.29
229.16	2922.45
229.37	2967.51
229.59	2789.33
229.81	3143.63
230.03	3172.30
230.25	2963.41
230.47	2752.47
230.69	2879.44
230.90	3454.92
231.12	3106.77
231.34	2979.79
231.56	2916.31
231.78	3000.27
232.00	3297.23
232.21	2844.63
232.43	2840.53
232.65	2891.73
232.87	3272.65
233.09	2711.51
233.30	2869.20
233.52	3506.12
233.74	3196.88
233.96	2834.39
234.18	3067.86
234.40	3289.04
234.61	3741.64
234.83	2744.28
235.05	2848.72
235.27	3753.93
235.49	3557.32
235.70	2754.52
235.92	2904.02
236.14	3387.34
236.36	3792.84
236.58	2766.81
236.79	2983.89
237.01	3239.89
237.23	3198.93
237.45	3061.71
237.67	2893.78
237.88	3319.76
238.10	3618.76
238.32	2797.53
238.54	2867.16
238.76	3299.28
238.97	3084.24
239.19	2764.76
239.41	2899.92
239.63	3604.42
239.85	3117.01
240.06	2914.26
240.28	2807.77
240.50	3463.12
240.72	3293.13
240.93	2756.57
241.15	2928.60
241.37	3219.41
241.59	3573.71
241.81	2787.29
242.02	2971.60
242.24	3307.47
242.46	3385.29
242.68	2676.70
242.89	2795.48
243.11	3479.50
243.33	3207.12
243.55	2930.64
243.76	2766.81
243.98	3164.11
244.20	3336.14
244.42	2852.82
244.64	2746.33
244.85	3039.19
245.07	3108.82
245.29	2871.25
245.51	2934.74
245.72	3332.05
245.94	3508.17
246.16	2820.05
246.38	2887.64
246.59	3200.98
246.81	3147.73
247.03	2762.71
247.24	2766.81
247.46	3194.83
247.68	3368.91
247.90	2772.95
248.11	2852.82
248.33	3370.96
248.55	3225.55
248.77	2856.92
248.98	2901.97
249.20	3545.03
249.42	3383.24
249.64	2832.34
249.85	2809.81
250.07	3061.71
250.29	3518.41
250.50	2867.16
250.72	2799.57
250.94	3389.39
251.16	3676.10
251.37	2811.86
251.59	2930.64
251.81	3362.76
252.02	3577.80
252.24	2766.81
252.46	3022.80
252.68	3114.96
252.89	3143.63
253.11	2713.56
253.33	3033.04
253.54	3545.03
253.76	3039.19
253.98	2885.59
254.20	2953.17
254.41	3114.96
254.63	3235.79
254.85	2699.22
255.06	3041.23
255.28	3344.33
255.50	3188.69
255.71	2834.39
255.93	2725.85
256.15	3317.71
256.36	3479.50
256.58	2729.94
256.80	2815.96
257.02	3309.52
257.23	3098.58
257.45	2942.93
257.67	2977.75
257.88	3176.40
258.10	3348.43
258.32	2856.92
258.53	2965.46
258.75	3610.57
258.97	3170.26
259.18	2756.57
259.40	2789.33
259.62	3567.56
259.83	3647.43
260.05	2879.44
260.27	3758.02
260.48	3485.64
260.70	3026.90
260.92	2811.86
261.13	2846.68
261.35	3303.37
261.57	3311.57
261.78	2772.95
262.00	2731.99
262.22	3440.59
262.43	3086.29
262.65	2861.01
262.86	2850.77
263.08	3823.56
263.30	3280.85
263.51	2725.85
263.73	2820.05
263.95	3661.77
264.16	3022.80
264.38	2738.13
264.60	2783.19
264.81	3272.65
265.03	3497.93
265.25	3282.89
265.46	2838.48
265.68	3565.51
265.89	3444.68
266.11	2688.98
266.33	2805.72
266.54	3577.80
266.76	3352.52
266.98	2959.31
267.19	3043.28
267.41	3502.03
267.62	3184.59
267.84	2693.08
268.06	2987.99
268.27	3444.68
268.49	3479.50
268.70	2947.03
268.92	2895.83
269.14	3059.67
269.35	3018.71
269.57	3008.47
269.79	2930.64
270.00	3182.54
270.22	3622.86
270.43	2805.72
270.65	2715.61
270.87	3379.15
271.08	3520.46
271.30	2920.40
271.51	2949.08
271.73	3438.54
271.95	3583.95
272.16	2828.24
272.38	3055.57
272.59	3172.30
272.81	3303.37
273.02	2789.33
273.24	2846.68
273.46	3448.78
273.67	3018.71
273.89	2723.80
274.10	2850.77
274.32	3536.84
274.54	3340.24
274.75	2959.31
274.97	2926.55
275.18	3448.78
275.40	3344.33
275.61	2840.53
275.83	3078.10
276.05	3121.10
276.26	3225.55
276.48	2957.27
276.69	2975.70
276.91	3139.54
277.12	3645.38
277.34	3125.20
277.55	3141.58
277.77	3377.10
277.99	3188.69
278.20	2957.27
278.42	2893.78
278.63	3178.45
278.85	3196.88
279.06	2975.70
279.28	3045.33
279.49	3483.59
279.71	3348.43
279.93	3010.51
280.14	2973.65
280.36	3117.01
280.57	3440.59
280.79	3090.38
281.00	2975.70
281.22	3172.30
281.43	3459.02
281.65	2783.19
281.86	2916.31
282.08	3368.91
282.29	3741.64
282.51	2918.36
282.73	2869.20
282.94	2944.98
283.16	3475.40
283.37	3074.00
283.59	3000.27
283.80	3323.85
284.02	3250.13
284.23	3049.43
284.45	3071.95
284.66	3090.38
284.88	3127.25
285.09	2836.44
285.31	3114.96
285.52	3270.61
285.74	2955.22
285.95	3160.02
286.17	3057.62
286.38	3344.33
286.60	3178.45
286.81	2928.60
287.03	2897.88
287.24	3286.99
287.46	3389.39
287.67	3112.91
287.89	3170.26
288.10	3262.41
288.32	3297.23
288.53	3125.20
288.75	3049.43
288.96	3471.31
289.18	3090.38
289.39	2990.03
289.61	3078.10
289.82	3741.64
290.04	3678.15
290.25	2840.53
290.47	3053.52
290.68	3192.78
290.90	3424.20
291.11	2801.62
291.33	3145.68
291.54	3106.77
291.76	3176.40
291.97	3164.11
292.18	3129.30
292.40	3139.54
292.61	3147.73
292.83	3213.26
293.04	2963.41
293.26	3256.27
293.47	3205.07
293.69	2873.30
293.90	2910.16
294.12	3581.90
294.33	3405.77
294.55	3041.23
294.76	3196.88
294.97	3569.61
295.19	3614.66
295.40	2975.70
295.62	3059.67
295.83	3471.31
296.05	3121.10
296.26	3114.96
296.48	2998.23
296.69	3243.98
296.90	3241.93
297.12	3117.01
297.33	3176.40
297.55	3313.61
297.76	3383.24
297.98	3008.47
298.19	3119.06
298.41	3264.46
298.62	3061.71
298.83	3229.65
299.05	3131.34
299.26	3260.37
299.48	3041.23
299.69	3069.91
299.90	2969.55
300.12	3061.71
300.33	3444.68
300.55	3102.67
300.76	2975.70
300.98	3160.02
301.19	3358.67
301.40	3016.66
301.62	3002.32
301.83	3413.96
302.05	3280.85
302.26	2932.69
302.47	3123.15
302.69	3051.47
302.90	3297.23
303.12	2779.09
303.33	2985.94
303.54	3721.16
303.76	3241.93
303.97	2912.21
304.19	3174.35
304.40	3164.11
304.61	3358.67
304.83	3057.62
305.04	2996.18
305.26	3407.82
305.47	3160.02
305.68	3004.37
305.90	2914.26
306.11	3594.19
306.33	3119.06
306.54	2844.63
306.75	2975.70
306.97	2983.89
307.18	3110.86
307.39	3024.85
307.61	3074.00
307.82	3198.93
308.04	3395.53
308.25	2901.97
308.46	3131.34
308.68	3266.51
308.89	3282.89
309.10	3104.72
309.32	3030.99
309.53	3286.99
309.74	3399.63
309.96	2920.40
310.17	3098.58
310.39	3170.26
310.60	3416.01
310.81	3047.38
311.03	2904.02
311.24	3422.16
311.45	3280.85
311.67	3364.81
311.88	3117.01
312.09	3200.98
312.31	3164.11
312.52	2901.97
312.73	2928.60
312.95	2983.89
313.16	3037.14
313.37	3196.88
313.59	3155.92
313.80	3401.68
314.01	3534.79
314.23	3039.19
314.44	2877.40
314.65	3014.61
314.87	3028.95
315.08	2981.84
315.29	2994.13
315.51	3016.66
315.72	2967.51
315.93	3069.91
316.15	3016.66
316.36	3213.26
316.57	3311.57
316.79	3008.47
317.00	2885.59
317.21	3389.39
317.43	3131.34
317.64	3004.37
317.85	2893.78
318.07	3145.68
318.28	3229.65
318.49	3207.12
318.70	3243.98
318.92	3389.39
319.13	3284.94
319.34	3196.88
319.56	2979.79
319.77	3418.06
319.98	3497.93
320.20	3260.37
320.41	3114.96
320.62	3368.91
320.83	3047.38
321.05	3225.55
321.26	2983.89
321.47	3313.61
321.69	3502.03
321.90	2918.36
322.11	2985.94
322.32	3301.33
322.54	3540.94
322.75	2992.08
322.96	3987.40
323.18	3030.99
323.39	2912.21
323.60	2897.88
323.81	3057.62
324.03	3188.69
324.24	3321.81
324.45	3051.47
324.66	2856.92
324.88	3563.47
325.09	3643.34
325.30	2926.55
325.52	2985.94
325.73	3422.16
325.94	3198.93
326.15	2934.74
326.37	2875.35
326.58	3438.54
326.79	3567.56
327.00	2971.60
327.22	2936.79
327.43	3209.17
327.64	2975.70
327.85	3123.15
328.07	3055.57
328.28	3583.95
328.49	3067.86
328.70	3043.28
328.92	2977.75
329.13	3227.60
329.34	3401.68
329.55	3200.98
329.76	3123.15
329.98	3225.55
330.19	3471.31
330.40	3065.81
330.61	3078.10
330.83	3477.45
331.04	3133.39
331.25	3112.91
331.46	3026.90
331.68	3129.30
331.89	3504.07
332.10	3090.38
332.31	2951.12
332.52	3352.52
332.74	3467.21
332.95	2801.62
333.16	3006.42
333.37	3461.07
333.58	3194.83
333.80	3137.49
334.01	2820.05
334.22	3196.88
334.43	3243.98
334.64	3006.42
334.86	2951.12
335.07	2987.99
335.28	3565.51
335.49	2877.40
335.70	3067.86
335.92	3557.32
336.13	3698.63
336.34	3039.19
336.55	2961.36
336.76	3352.52
336.98	2877.40
337.19	2965.46
337.40	3071.95
337.61	3796.93
337.82	3248.08
338.04	3166.16
338.25	2877.40
338.46	3246.03
338.67	3215.31
338.88	2869.20
339.09	2828.24
339.31	3157.97
339.52	3018.71
339.73	2924.50
339.94	3010.51
340.15	3319.76
340.36	3174.35
340.58	3098.58
340.79	2885.59
341.00	3424.20
341.21	3041.23
341.42	3272.65
341.63	3000.27
341.85	3434.44
342.06	3325.90
342.27	2883.54
342.48	3209.17
342.69	2967.51
342.90	3344.33
343.12	3379.15
343.33	2910.16
343.54	3434.44
343.75	3583.95
343.96	3086.29
344.17	2901.97
344.38	3180.50
344.60	3055.57
344.81	2965.46
345.02	3016.66
345.23	3528.65
345.44	3690.44
345.65	3000.27
345.86	3053.52
346.07	3286.99
346.29	3145.68
346.50	3155.92
346.71	3123.15
346.92	3524.55
347.13	3770.31
347.34	3049.43
347.55	2815.96
347.76	3456.97
347.98	3026.90
348.19	3049.43
348.40	3123.15
348.61	3207.12
348.82	3598.28
349.03	3065.81
349.24	2871.25
349.45	3606.47
349.66	2873.30
349.88	2938.84
350.09	2897.88
350.30	3542.99
350.51	3534.79
350.72	3131.34
350.93	3020.75
351.14	3221.45
351.35	3325.90
351.56	3004.37
351.77	3043.28
351.99	3364.81
352.20	3557.32
352.41	3123.15
352.62	2785.24
352.83	3315.66
353.04	3209.17
353.25	3041.23
353.46	3039.19
353.67	3502.03
353.88	2910.16
354.09	2957.27
354.30	3000.27
354.52	3444.68
354.73	3243.98
354.94	2932.69
355.15	3078.10
355.36	3649.48
355.57	3139.54
355.78	2963.41
355.99	3008.47
356.20	3241.93
356.41	3491.79
356.62	3090.38
356.83	3114.96
357.04	3491.79
357.25	2918.36
357.46	2951.12
357.68	2842.58
357.89	3117.01
358.10	3188.69
358.31	3020.75
358.52	3094.48
358.73	3059.67
358.94	3102.67
359.15	2975.70
359.36	3045.33
359.57	3354.57
359.78	3295.18
359.99	3217.36
360.20	2934.74
360.41	3274.70
360.62	3459.02
360.83	3160.02
361.04	3016.66
361.25	3338.19
361.46	3575.75
361.67	3106.77
361.88	3002.32
362.09	3430.35
362.30	3352.52
362.51	2897.88
362.72	3082.19
362.93	3395.53
363.14	3430.35
363.35	3114.96
363.56	2949.08
363.78	3493.83
363.99	3448.78
364.20	3010.51
364.41	3055.57
364.62	3723.21
364.83	3434.44
365.04	3020.75
365.25	3065.81
365.46	3614.66
365.67	3166.16
365.88	3123.15
366.09	2963.41
366.30	3250.13
366.51	3274.70
366.72	2918.36
366.93	3026.90
367.14	3297.23
367.35	3590.09
367.56	2936.79
367.77	3133.39
367.98	3225.55
368.18	3409.87
368.39	3203.02
368.60	2930.64
368.81	3383.24
369.02	3340.24
369.23	2994.13
369.44	2904.02
369.65	3196.88
369.86	3348.43
370.07	3141.58
370.28	2846.68
370.49	3397.58
370.70	3385.29
370.91	2942.93
371.12	2961.36
371.33	3555.27
371.54	3174.35
371.75	3123.15
371.96	2795.48
372.17	3311.57
372.38	3319.76
372.59	3024.85
372.80	2955.22
373.01	3258.32
373.22	3348.43
373.43	3026.90
373.64	2867.16
373.85	3573.71
374.06	3631.05
374.26	3178.45
374.47	3114.96
374.68	3610.57
374.89	3305.42
375.10	2949.08
375.31	3047.38
375.52	3311.57
375.73	3323.85
375.94	2889.68
376.15	3092.43
376.36	3139.54
376.57	3188.69
376.78	3069.91
376.99	3092.43
377.20	3542.99
377.40	3274.70
377.61	3286.99
377.82	2912.21
378.03	3502.03
378.24	3364.81
378.45	3004.37
378.66	3100.62
378.87	2914.26
379.08	3057.62
379.29	2998.23
379.50	3139.54
379.71	3297.23
379.91	3332.05
380.12	2959.31
380.33	3067.86
380.54	3196.88
380.75	3276.75
380.96	2977.75
381.17	3131.34
381.38	3260.37
381.59	3293.13
381.80	3098.58
382.00	3147.73
382.21	3264.46
382.42	3583.95
382.63	3319.76
382.84	3125.20
383.05	3502.03
383.26	3489.74
383.47	3192.78
383.68	2926.55
383.88	3416.01
384.09	3262.41
384.30	3241.93
384.51	3114.96
384.72	3172.30
384.93	3045.33
385.14	3082.19
385.35	3313.61
385.55	2985.94
385.76	3446.73
385.97	3041.23
386.18	2895.83
386.39	3092.43
386.60	3196.88
386.81	2977.75
387.02	2953.17
387.22	3022.80
387.43	3401.68
387.64	3082.19
387.85	3319.76
388.06	3379.15
388.27	4403.13
388.48	7917.45
388.68	12099.40
388.89	15025.95
389.10	16615.17
389.31	16228.10
389.52	13305.65
389.73	11372.37
389.93	10504.03
390.14	9144.18
390.35	8642.43
390.56	7894.92
390.77	6629.27
390.98	5025.72
391.18	4159.42
391.39	3909.57
391.60	3313.61
391.81	3254.22
392.02	3010.51
392.23	3749.83
392.43	3391.44
392.64	3164.11
392.85	3100.62
393.06	3622.86
393.27	3252.17
393.47	2998.23
393.68	3082.19
393.89	3080.14
394.10	3540.94
394.31	3059.67
394.52	3037.14
394.72	3119.06
394.93	3583.95
395.14	2922.45
395.35	3153.87
395.56	3176.40
395.76	3227.60
395.97	3059.67
396.18	3141.58
396.39	3327.95
396.60	3889.09
396.80	3426.25
397.01	3254.22
397.22	3442.64
397.43	3502.03
397.64	3041.23
397.84	3117.01
398.05	3715.02
398.26	3221.45
398.47	3139.54
398.67	3280.85
398.88	3286.99
399.09	3448.78
399.30	3100.62
399.51	3043.28
399.71	3139.54
399.92	3266.51
400.13	3149.78
400.34	3045.33
400.54	3340.24
400.75	3528.65
400.96	3176.40
401.17	3332.05
401.37	3401.68
401.58	3203.02
401.79	3020.75
402.00	3180.50
402.21	3807.17
402.41	3418.06
402.62	3309.52
402.83	3442.64
403.04	3774.41
403.24	4114.37
403.45	3225.55
403.66	3336.14
403.87	3504.07
404.07	3692.49
404.28	3366.86
404.49	3393.48
404.70	3393.48
404.90	3401.68
405.11	3078.10
405.32	3213.26
405.52	3205.07
405.73	3090.38
405.94	2926.55
406.15	3049.43
406.35	3434.44
406.56	3450.83
406.77	3028.95
406.98	3086.29
407.18	3114.96
407.39	3579.85
407.60	3026.90
407.80	3110.86
408.01	3229.65
408.22	3413.96
408.43	2957.27
408.63	3110.86
408.84	3477.45
409.05	3416.01
409.25	2969.55
409.46	3096.53
409.67	3237.84
409.88	3141.58
410.08	3061.71
410.29	2920.40
410.50	3481.55
410.70	3418.06
410.91	3008.47
411.12	3098.58
411.32	3295.18
411.53	3143.63
411.74	3043.28
411.95	3139.54
412.15	3383.24
412.36	3418.06
412.57	3241.93
412.77	3221.45
412.98	3178.45
413.19	3180.50
413.39	3090.38
413.60	3065.81
413.81	3534.79
414.01	3104.72
414.22	3018.71
414.43	3207.12
414.63	3137.49
414.84	3477.45
415.05	3028.95
415.25	2899.92
415.46	3413.96
415.67	3190.74
415.87	3024.85
416.08	3020.75
416.29	3190.74
416.49	3336.14
416.70	3076.05
416.91	3098.58
417.11	3340.24
417.32	3567.56
417.53	3123.15
417.73	3157.97
417.94	3262.41
418.15	3360.72
418.35	3104.72
418.56	3069.91
418.77	3798.98
418.97	3305.42
419.18	3194.83
419.38	2805.72
419.59	3260.37
419.80	3532.75
420.00	2906.07
420.21	2992.08
420.42	3477.45
420.62	3356.62
420.83	3057.62
421.04	3082.19
421.24	3315.66
421.45	3395.53
421.65	3090.38
421.86	2985.94
422.07	3526.60
422.27	3364.81
422.48	2985.94
422.69	2904.02
422.89	3254.22
423.10	3235.79
423.30	3033.04
423.51	3065.81
423.72	3305.42
423.92	3366.86
424.13	2885.59
424.33	3065.81
424.54	3416.01
424.75	3321.81
424.95	3280.85
425.16	3020.75
425.36	3190.74
425.57	3504.07
425.78	3211.22
425.98	3121.10
426.19	3194.83
426.39	3098.58
426.60	3074.00
426.81	3182.54
427.01	3403.72
427.22	3080.14
427.42	2906.07
427.63	3057.62
427.83	3469.26
428.04	3729.35
428.25	3051.47
428.45	3205.07
428.66	3540.94
428.86	3188.69
429.07	3090.38
429.28	3026.90
429.48	3213.26
429.69	3188.69
429.89	3127.25
430.10	2977.75
430.30	3450.83
430.51	3407.82
430.71	2959.31
430.92	3086.29
431.13	3153.87
431.33	3301.33
431.54	3215.31
431.74	3262.41
431.95	3694.54
432.15	3063.76
432.36	2955.22
432.56	3139.54
432.77	3669.96
432.98	3637.19
433.18	3176.40
433.39	2887.64
433.59	3270.61
433.80	3749.83
434.00	3246.03
434.21	3086.29
434.41	3145.68
434.62	3696.58
434.82	2901.97
435.03	3053.52
435.23	3401.68
435.44	3057.62
435.64	2961.36
435.85	3114.96
436.06	3434.44
436.26	3473.36
436.47	3063.76
436.67	2998.23
436.88	3192.78
437.08	3450.83
437.29	3168.21
437.49	3207.12
437.70	3528.65
437.90	3309.52
438.11	3307.47
438.31	3094.48
438.52	3522.51
438.72	3456.97
438.93	3346.38
439.13	3227.60
439.34	3514.31
439.54	3192.78
439.75	3184.59
439.95	3135.44
440.16	3178.45
440.36	3317.71
440.57	3071.95
440.77	3094.48
440.98	3307.47
441.18	3430.35
441.39	2985.94
441.59	2840.53
441.80	3649.48
442.00	3319.76
442.21	3178.45
442.41	2899.92
442.62	3540.94
442.82	3127.25
443.02	3059.67
443.23	3114.96
443.43	3233.74
443.64	3454.92
443.84	2953.17
444.05	3133.39
444.25	3309.52
444.46	3254.22
444.66	3037.14
444.87	3305.42
445.07	2963.41
445.28	3229.65
445.48	3268.56
445.69	3117.01
445.89	3819.46
446.09	3207.12
446.30	3330.00
446.50	3434.44
446.71	5023.67
446.91	6270.88
447.12	7180.18
447.32	7622.54
447.53	7649.16
447.73	6418.33
447.93	5552.04
448.14	5285.81
448.34	5558.19
448.55	4544.44
448.75	4499.39
448.96	4302.78
449.16	4095.94
449.36	3938.24
449.57	3409.87
449.77	3117.01
449.98	3330.00
450.18	3426.25
450.39	2936.79
450.59	3258.32
450.79	3284.94
451.00	3139.54
451.20	3246.03
451.41	3112.91
451.61	3405.77
451.81	3274.70
452.02	3033.04
452.22	3063.76
452.43	3239.89
452.63	3053.52
452.84	3194.83
453.04	3053.52
453.24	3303.37
453.45	3145.68
453.65	3145.68
453.86	3160.02
454.06	3405.77
454.26	3352.52
454.47	3004.37
454.67	3246.03
454.87	3327.95
455.08	3268.56
455.28	3151.82
455.49	3188.69
455.69	3114.96
455.89	3674.06
456.10	3248.08
456.30	3026.90
456.51	3379.15
456.71	3409.87
456.91	3196.88
457.12	3090.38
457.32	3366.86
457.52	3082.19
457.73	3256.27
457.93	3192.78
458.14	3205.07
458.34	2924.50
458.54	3114.96
458.75	2951.12
458.95	3549.13
459.15	3438.54
459.36	3047.38
459.56	3084.24
459.76	3684.30
459.97	3233.74
460.17	2979.79
460.37	3086.29
460.58	3344.33
460.78	3379.15
460.99	3096.53
461.19	3059.67
461.39	3151.82
461.60	3207.12
461.80	3057.62
462.00	2916.31
462.21	3260.37
462.41	3188.69
462.61	2920.40
462.82	2793.43
463.02	3395.53
463.22	3260.37
463.43	3131.34
463.63	3057.62
463.83	3538.89
464.04	3379.15
464.24	3059.67
464.44	3059.67
464.64	3270.61
464.85	3432.40
465.05	3172.30
465.25	3045.33
465.46	3125.20
465.66	3393.48
465.86	3119.06
466.07	3008.47
466.27	3252.17
466.47	3028.95
466.68	2850.77
466.88	3215.31
467.08	3444.68
467.29	3524.55
467.49	3002.32
467.69	3180.50
467.89	3418.06
468.10	3250.13
468.30	3096.53
468.50	3307.47
468.71	3325.90
468.91	2967.51
469.11	3209.17
469.31	3180.50
469.52	3110.86
469.72	3651.53
469.92	3295.18
470.13	3076.05
470.33	3293.13
470.53	3256.27
470.73	3499.98
470.94	3852.23
471.14	4126.66
471.34	4841.40
471.54	4368.32
471.75	3983.30
471.95	3837.89
472.15	3882.95
472.36	3698.63
472.56	3549.13
472.76	3796.93
472.96	3776.45
473.17	3368.91
473.37	3289.04
473.57	3250.13
473.77	3489.74
473.98	3198.93
474.18	2990.03
474.38	3987.40
474.58	3190.74
474.79	2885.59
474.99	3198.93
475.19	3520.46
475.39	3088.34
475.60	3172.30
475.80	2963.41
476.00	3262.41
476.20	3174.35
476.41	3217.36
476.61	3129.30
476.81	3565.51
477.01	3069.91
477.21	3389.39
477.42	3213.26
477.62	3112.91
477.82	3409.87
478.02	3065.81
478.23	3090.38
478.43	3114.96
478.63	3166.16
478.83	3080.14
479.03	3114.96
479.24	3612.62
479.44	3684.30
479.64	3002.32
479.84	2830.29
480.04	3147.73
480.25	3516.36
480.45	3002.32
480.65	3030.99
480.85	3598.28
481.06	3215.31
481.26	3076.05
481.46	3035.09
481.66	3397.58
481.86	3016.66
482.06	3256.27
482.27	3127.25
482.47	3272.65
482.67	3291.09
482.87	3071.95
483.07	3147.73
483.28	3153.87
483.48	3010.51
483.68	3024.85
483.88	2959.31
484.08	2869.20
484.29	3067.86
484.49	3127.25
484.69	2869.20
484.89	3467.21
485.09	3461.07
485.29	3119.06
485.50	3256.27
485.70	3190.74
485.90	3409.87
486.10	3184.59
486.30	2985.94
486.50	3499.98
486.71	3366.86
486.91	3145.68
487.11	3151.82
487.31	2944.98
487.51	3397.58
487.71	3024.85
487.91	3071.95
488.12	3024.85
488.32	2781.14
488.52	3069.91
488.72	2793.43
488.92	3307.47
489.12	3540.94
489.32	3176.40
489.53	3000.27
489.73	2949.08
489.93	3655.62
490.13	3045.33
490.33	2897.88
490.53	3368.91
490.73	3469.26
490.94	2969.55
491.14	3135.44
491.34	3399.63
491.54	3420.11
491.74	3950.53
491.94	4497.34
492.14	5181.36
492.34	5310.38
492.54	4839.35
492.75	4222.91
492.95	4329.41
493.15	4130.75
493.35	3794.89
493.55	3739.59
493.75	3663.82
493.95	3852.23
494.15	3373.00
494.35	3221.45
494.56	3211.22
494.76	3166.16
494.96	3258.32
495.16	2951.12
495.36	3280.85
495.56	3278.80
495.76	3192.78
495.96	2992.08
496.16	3129.30
496.36	3698.63
496.56	2967.51
496.77	3121.10
496.97	3250.13
497.17	3536.84
497.37	2957.27
497.57	3131.34
497.77	3258.32
497.97	3026.90
498.17	3057.62
498.37	3065.81
498.57	3461.07
498.77	3166.16
498.97	3241.93
499.17	3418.06
499.38	3356.62
499.58	3336.14
499.78	3221.45
499.98	3178.45
500.18	3123.15
500.38	3180.50
500.58	3319.76
500.78	3725.26
500.98	6207.39
501.18	8253.31
501.38	9867.11
501.58	10737.50
501.78	10979.16
501.98	9129.84
502.18	7563.15
502.38	6559.64
502.58	6412.19
502.78	5670.83
502.98	5533.61
503.18	5236.66
503.38	4954.04
503.59	4253.63
503.79	3981.25
503.99	3794.89
504.19	3827.65
504.39	3983.30
504.59	3688.39
504.79	3631.05
504.99	4003.78
505.19	3626.95
505.39	3420.11
505.59	3510.22
505.79	3753.93
505.99	3526.60
506.19	3076.05
506.39	3393.48
506.59	3229.65
506.79	3250.13
506.99	3307.47
507.19	3053.52
507.39	3370.96
507.59	3055.57
507.79	3053.52
507.99	2996.18
508.19	3323.85
508.39	3209.17
508.59	3100.62
508.79	3092.43
508.99	3702.73
509.19	3114.96
509.39	3188.69
509.59	3049.43
509.79	3227.60
509.99	3303.37
510.19	3200.98
510.39	3180.50
510.59	3286.99
510.79	3200.98
510.99	2953.17
511.19	3047.38
511.39	3737.54
511.59	3555.27
511.79	3180.50
511.99	3022.80
512.19	3682.25
512.38	3276.75
512.58	3131.34
512.78	2985.94
512.98	3442.64
513.18	3631.05
513.38	2987.99
513.58	3123.15
513.78	3221.45
513.98	3229.65
514.18	3037.14
514.38	2994.13
514.58	3330.00
514.78	3166.16
514.98	3067.86
515.18	3131.34
515.38	2920.40
515.58	3553.23
515.78	3080.14
515.98	3078.10
516.18	3375.05
516.38	3246.03
516.57	3012.56
516.77	3024.85
516.97	3459.02
517.17	3157.97
517.37	2858.96
517.57	3106.77
517.77	3321.81
517.97	3106.77
518.17	3162.06
518.37	3010.51
518.57	3110.86
518.77	3213.26
518.97	3065.81
519.16	3071.95
519.36	3426.25
519.56	3123.15
519.76	2959.31
519.96	3141.58
520.16	3528.65
520.36	3088.34
520.56	3266.51
520.76	2932.69
520.96	3221.45
521.16	3454.92
521.35	3305.42
521.55	3096.53
521.75	3299.28
521.95	3151.82
522.15	3008.47
522.35	2916.31
522.55	3205.07
522.75	3436.49
522.95	2994.13
523.14	2961.36
523.34	3291.09
523.54	3125.20
523.74	3229.65
523.94	3125.20
524.14	3006.42
524.34	3393.48
524.54	3217.36
524.73	3139.54
524.93	3391.44
525.13	3235.79
525.33	2920.40
525.53	3299.28
525.73	3432.40
525.93	3348.43
526.13	3024.85
526.32	2934.74
526.52	3444.68
526.72	3542.99
526.92	3114.96
527.12	3004.37
527.32	3033.04
527.52	3315.66
527.71	3100.62
527.91	3030.99
528.11	3190.74
528.31	3270.61
528.51	3026.90
528.71	3213.26
528.90	3319.76
529.10	3534.79
529.30	3053.52
529.50	2787.29
529.70	3293.13
529.90	3200.98
530.09	3084.24
530.29	2973.65
530.49	3028.95
530.69	3854.28
530.89	3170.26
531.09	3155.92
531.28	3223.50
531.48	3487.69
531.68	3051.47
531.88	3069.91
532.08	3352.52
532.28	3172.30
532.47	3143.63
532.67	3196.88
532.87	3418.06
533.07	3030.99
533.27	3131.34
533.46	3106.77
533.66	3375.05
533.86	3235.79
534.06	3078.10
534.26	3045.33
534.45	3215.31
534.65	3514.31
534.85	3184.59
535.05	2979.79
535.25	3416.01
535.44	2957.27
535.64	3145.68
535.84	3008.47
536.04	3129.30
536.24	3203.02
536.43	3041.23
536.63	3024.85
536.83	3317.71
537.03	3248.08
537.22	2869.20
537.42	2901.97
537.62	3381.20
537.82	3143.63
538.02	3205.07
538.21	3119.06
538.41	3823.56
538.61	3346.38
538.81	3176.40
539.00	3164.11
539.20	2992.08
539.40	3248.08
539.60	3028.95
539.79	3305.42
539.99	3256.27
540.19	3106.77
540.39	2961.36
540.58	3100.62
540.78	3510.22
540.98	3305.42
541.18	3424.20
541.37	3137.49
541.57	3286.99
541.77	3370.96
541.97	2971.60
542.16	2951.12
542.36	3153.87
542.56	3352.52
542.76	3260.37
542.95	3151.82
543.15	3450.83
543.35	3442.64
543.54	2983.89
543.74	3051.47
543.94	3569.61
544.14	3137.49
544.33	3221.45
544.53	3043.28
544.73	3225.55
544.93	3172.30
545.12	3078.10
545.32	3127.25
545.52	3213.26
545.71	3000.27
545.91	3094.48
546.11	2973.65
546.30	3133.39
546.50	3227.60
546.70	3160.02
546.90	3074.00
547.09	2926.55
547.29	3213.26
547.49	3170.26
547.68	3114.96
547.88	3114.96
548.08	3395.53
548.27	3315.66
548.47	3030.99
548.67	3198.93
548.87	3389.39
549.06	3018.71
549.26	3006.42
549.46	3370.96
549.65	3215.31
549.85	3086.29
550.05	3065.81
550.24	3090.38
550.44	3327.95
550.64	3114.96
550.83	3096.53
551.03	3426.25
551.23	3559.37
551.42	3147.73
551.62	3125.20
551.82	3205.07
552.01	3155.92
552.21	3397.58
552.41	3063.76
552.60	3563.47
552.80	3254.22
553.00	3047.38
553.19	2996.18
553.39	3680.20
553.59	3086.29
553.78	3184.59
553.98	3041.23
554.17	2973.65
554.37	3332.05
554.57	3123.15
554.76	2891.73
554.96	3117.01
555.16	3229.65
555.35	3168.21
555.55	3209.17
555.75	3348.43
555.94	3547.08
556.14	2875.35
556.33	3243.98
556.53	3262.41
556.73	3225.55
556.92	3078.10
557.12	3030.99
557.32	3735.50
557.51	3594.19
557.71	3147.73
557.90	3207.12
558.10	3508.17
558.30	3239.89
558.49	3090.38
558.69	3090.38
558.88	3346.38
559.08	3340.24
559.28	3080.14
559.47	3114.96
559.67	3350.48
559.86	3684.30
560.06	2994.13
560.26	3014.61
560.45	3409.87
560.65	3237.84
560.84	3373.00
561.04	2963.41
561.24	3385.29
561.43	3024.85
561.63	3340.24
561.82	3174.35
562.02	3405.77
562.22	3076.05
562.41	3008.47
562.61	3014.61
562.80	3065.81
563.00	3776.45
563.19	3092.43
563.39	3104.72
563.59	3420.11
563.78	3100.62
563.98	2848.72
564.17	3045.33
564.37	2998.23
564.56	3172.30
564.76	2979.79
564.96	3209.17
565.15	3254.22
565.35	3770.31
565.54	3114.96
565.74	3071.95
565.93	3309.52
566.13	3260.37
566.32	3182.54
566.52	3108.82
566.71	3303.37
566.91	3454.92
567.11	3262.41
567.30	3000.27
567.50	3379.15
567.69	3266.51
567.89	3057.62
568.08	2975.70
568.28	3409.87
568.47	3010.51
568.67	3112.91
568.86	3022.80
569.06	3373.00
569.25	3174.35
569.45	2942.93
569.64	3123.15
569.84	3235.79
570.04	3344.33
570.23	3069.91
570.43	3151.82
570.62	3256.27
570.82	3655.62
571.01	2959.31
571.21	3024.85
571.40	3117.01
571.60	3413.96
571.79	3190.74
571.99	3074.00
572.18	3074.00
572.38	3327.95
572.57	3143.63
572.77	3090.38
572.96	3891.14
573.16	3289.04
573.35	3110.86
573.55	3248.08
573.74	3401.68
573.94	3256.27
574.13	3102.67
574.33	3194.83
574.52	3542.99
574.71	3272.65
574.91	3123.15
575.10	3020.75
575.30	3135.44
575.49	3084.24
575.69	3037.14
575.88	3041.23
576.08	3237.84
576.27	3491.79
576.47	2942.93
576.66	3246.03
576.86	3526.60
577.05	3366.86
577.25	3155.92
577.44	3207.12
577.64	3151.82
577.83	3436.49
578.02	3090.38
578.22	3243.98
578.41	3606.47
578.61	3200.98
578.80	2873.30
579.00	3076.05
579.19	3332.05
579.39	3358.67
579.58	3180.50
579.77	3098.58
579.97	3512.27
580.16	3452.88
580.36	3250.13
580.55	3162.06
580.75	3305.42
580.94	3299.28
581.13	3291.09
581.33	3241.93
581.52	3264.46
581.72	3731.40
581.91	3160.02
582.11	3053.52
582.30	3471.31
582.49	3358.67
582.69	3448.78
582.88	3180.50
583.08	3401.68
583.27	3512.27
583.47	3266.51
583.66	3055.57
583.85	3074.00
584.05	3272.65
584.24	3223.50
584.44	3090.38
584.63	3459.02
584.82	3575.75
585.02	3291.09
585.21	3239.89
585.41	3375.05
585.60	3260.37
585.79	3313.61
585.99	3379.15
586.18	3332.05
586.37	4233.15
586.57	6356.90
586.76	17833.71
586.96	37547.46
587.15	50722.04
587.34	59546.74
587.54	63521.85
587.73	57054.36
587.93	40510.87
588.12	31567.39
588.31	25775.73
588.51	22865.57
588.70	21452.47
588.89	18765.54
589.09	15988.49
589.28	13702.96
589.47	10794.84
589.67	8208.26
589.86	6453.15
590.06	5038.00
590.25	4456.38
590.44	3925.96
590.64	3467.21
590.83	3602.38
591.02	3569.61
591.22	3153.87
591.41	3114.96
591.60	3143.63
591.80	3760.07
591.99	2951.12
592.18	3035.09
592.38	3475.40
592.57	3198.93
592.76	3041.23
592.96	3246.03
593.15	3188.69
593.34	3481.55
593.54	3102.67
593.73	3166.16
593.92	3420.11
594.12	3407.82
594.31	3098.58
594.50	3266.51
594.70	3389.39
594.89	3844.04
595.08	2977.75
595.28	3186.64
595.47	3925.96
595.66	3614.66
595.86	2977.75
596.05	2944.98
596.24	3291.09
596.43	3657.67
596.63	3235.79
596.82	3258.32
597.01	3313.61
597.21	3594.19
597.40	3041.23
597.59	3100.62
597.79	3256.27
597.98	3274.70
598.17	3231.69
598.36	3114.96
598.56	3491.79
598.75	3227.60
598.94	3119.06
599.14	3174.35
599.33	3262.41
599.52	3506.12
599.71	3082.19
599.91	3110.86
600.10	3385.29
600.29	3332.05
600.48	3164.11
600.68	3293.13
600.87	3360.72
601.06	3170.26
601.26	3276.75
601.45	3262.41
601.64	3297.23
601.83	3563.47
602.03	2912.21
602.22	2987.99
602.41	3532.75
602.60	3755.97
602.80	3186.64
602.99	3209.17
603.18	3168.21
603.37	3311.57
603.57	3008.47
603.76	3114.96
603.95	3542.99
604.14	3166.16
604.34	2936.79
604.53	3026.90
604.72	3309.52
604.91	3405.77
605.10	3098.58
605.30	2924.50
605.49	3737.54
605.68	3475.40
605.87	3024.85
606.07	2953.17
606.26	3278.80
606.45	3360.72
606.64	3110.86
606.84	3059.67
607.03	3307.47
607.22	3495.88
607.41	3133.39
607.60	3053.52
607.80	3506.12
607.99	3301.33
608.18	3061.71
608.37	3088.34
608.56	3092.43
608.76	3467.21
608.95	3270.61
609.14	3047.38
609.33	3489.74
609.52	3592.14
609.72	3272.65
609.91	3141.58
610.10	3309.52
610.29	3641.29
610.48	3131.34
610.68	3190.74
610.87	3235.79
611.06	3465.16
611.25	3082.19
611.44	3209.17
611.63	3200.98
611.83	3532.75
612.02	3030.99
612.21	3125.20
612.40	2961.36
612.59	3033.04
612.79	3026.90
612.98	3149.78
613.17	3692.49
613.36	3266.51
613.55	3211.22
613.74	3106.77
613.93	3352.52
614.13	3452.88
614.32	3280.85
614.51	3076.05
614.70	3286.99
614.89	3250.13
615.08	3225.55
615.28	3411.92
615.47	3090.38
615.66	3385.29
615.85	3143.63
616.04	3200.98
616.23	3342.28
616.42	3295.18
616.62	3100.62
616.81	3147.73
617.00	3252.17
617.19	3368.91
617.38	3045.33
617.57	3170.26
617.76	3430.35
617.95	3416.01
618.15	3157.97
618.34	3381.20
618.53	3028.95
618.72	3454.92
618.91	3207.12
619.10	3149.78
619.29	3338.19
619.48	3291.09
619.68	2969.55
619.87	2969.55
620.06	2969.55
620.25	3340.24
620.44	3065.81
620.63	3057.62
620.82	3360.72
621.01	3256.27
621.20	3086.29
621.39	3137.49
621.59	3311.57
621.78	3327.95
621.97	3108.82
622.16	3176.40
622.35	3354.57
622.54	3428.30
622.73	3174.35
622.92	2967.51
623.11	3471.31
623.30	3215.31
623.49	3139.54
623.68	2994.13
623.88	3532.75
624.07	3205.07
624.26	3114.96
624.45	3088.34
624.64	3319.76
624.83	3295.18
625.02	2975.70
625.21	3057.62
625.40	3352.52
625.59	3452.88
625.78	3117.01
625.97	3147.73
626.16	3618.76
626.35	3547.08
626.54	3078.10
626.74	3364.81
626.93	3291.09
627.12	3311.57
627.31	3123.15
627.50	3114.96
627.69	3405.77
627.88	3094.48
628.07	3016.66
628.26	2848.72
628.45	3147.73
628.64	3102.67
628.83	3020.75
629.02	2916.31
629.21	3399.63
629.40	3323.85
629.59	2963.41
629.78	3078.10
629.97	3282.89
630.16	3217.36
630.35	3084.24
630.54	3207.12
630.73	3155.92
630.92	3280.85
631.11	2949.08
631.30	3114.96
631.49	3422.16
631.68	3258.32
631.87	3127.25
632.06	3000.27
632.25	3758.02
632.44	3295.18
632.63	3141.58
632.82	3092.43
633.01	3182.54
633.20	3381.20
633.39	3102.67
633.58	2861.01
633.77	3364.81
633.96	3403.72
634.15	3250.13
634.34	3123.15
634.53	3426.25
634.72	3192.78
634.91	2879.44
635.10	3014.61
635.29	3448.78
635.48	3250.13
635.67	2955.22
635.86	2983.89
636.05	3573.71
636.24	3278.80
636.43	3098.58
636.62	3098.58
636.81	2754.52
637.00	3379.15
637.19	3074.00
637.38	3119.06
637.57	3139.54
637.76	3286.99
637.95	3258.32
638.14	3151.82
638.33	3413.96
638.52	3303.37
638.71	2996.18
638.89	2916.31
639.08	3856.33
639.27	3467.21
639.46	3289.04
639.65	3682.25
639.84	3860.42
640.03	3975.11
640.22	3680.20
640.41	3590.09
640.60	3467.21
640.79	3506.12
640.98	3370.96
641.17	3368.91
641.36	3536.84
641.55	3434.44
641.74	3061.71
641.92	2975.70
642.11	3108.82
642.30	3178.45
642.49	2979.79
642.68	3102.67
642.87	3342.28
643.06	3411.92
643.25	2904.02
643.44	2985.94
643.63	3221.45
643.82	3368.91
644.00	3010.51
644.19	3174.35
644.38	3106.77
644.57	3301.33
644.76	3059.67
644.95	3127.25
645.14	3309.52
645.33	3293.13
645.52	3198.93
645.71	2992.08
645.89	3106.77
646.08	3229.65
646.27	3086.29
646.46	3272.65
646.65	2967.51
646.84	3307.47
647.03	2983.89
647.22	3213.26
647.40	3385.29
647.59	3235.79
647.78	2856.92
647.97	3047.38
648.16	2953.17
648.35	3545.03
648.54	3375.05
648.73	3100.62
648.91	3473.36
649.10	3368.91
649.29	2967.51
649.48	2942.93
649.67	3405.77
649.86	3420.11
650.05	3129.30
650.23	3338.19
650.42	3174.35
650.61	3559.37
650.80	3239.89
650.99	3307.47
651.18	3553.23
651.36	3461.07
651.55	3018.71
651.74	3170.26
651.93	3217.36
652.12	3180.50
652.31	3084.24
652.49	3143.63
652.68	3215.31
652.87	3542.99
653.06	3139.54
653.25	3391.44
653.44	3330.00
653.62	3618.76
653.81	3139.54
654.00	3090.38
654.19	3454.92
654.38	3811.27
654.56	3160.02
654.75	3008.47
654.94	3409.87
655.13	3344.33
655.32	2992.08
655.51	3160.02
655.69	3098.58
655.88	3459.02
656.07	2875.35
656.26	3098.58
656.45	3000.27
656.63	3301.33
656.82	3049.43
657.01	3354.57
657.20	3100.62
657.38	3585.99
657.57	3047.38
657.76	2889.68
657.95	3442.64
658.14	3071.95
658.32	3153.87
658.51	2951.12
658.70	3270.61
658.89	3307.47
659.08	3135.44
659.26	3311.57
659.45	3063.76
659.64	3426.25
659.83	3069.91
660.01	3559.37
660.20	3248.08
660.39	3694.54
660.58	2801.62
660.76	3170.26
660.95	3053.52
661.14	3264.46
661.33	2930.64
661.51	3117.01
661.70	3129.30
661.89	3289.04
662.08	3065.81
662.26	2910.16
662.45	3088.34
662.64	3624.90
662.83	3258.32
663.01	2930.64
663.20	3168.21
663.39	3526.60
663.58	3129.30
663.76	3000.27
663.95	3393.48
664.14	3039.19
664.32	3121.10
664.51	2899.92
664.70	2883.54
664.89	3332.05
665.07	3024.85
665.26	3260.37
665.45	3000.27
665.64	3366.86
665.82	3065.81
666.01	3205.07
666.20	3082.19
666.38	3510.22
666.57	3360.72
666.76	5621.67
666.95	12965.69
667.13	20721.35
667.32	24860.29
667.51	28044.88
667.69	29242.95
667.88	24516.23
668.07	17530.61
668.25	14849.82
668.44	12810.04
668.63	11132.76
668.81	9846.63
669.00	8372.10
669.19	7661.45
669.38	6719.39
669.56	5648.30
669.75	5038.00
669.94	4532.15
670.12	3809.22
670.31	3438.54
670.50	3403.72
670.68	3383.24
670.87	3397.58
671.06	3043.28
671.24	3192.78
671.43	3563.47
671.62	3356.62
671.80	3100.62
671.99	3272.65
672.18	3403.72
672.36	3430.35
672.55	3233.74
672.74	3188.69
672.92	3166.16
673.11	3360.72
673.29	2910.16
673.48	3309.52
673.67	3127.25
673.85	3430.35
674.04	2998.23
674.23	3188.69
674.41	3690.44
674.60	3090.38
674.79	2910.16
674.97	2955.22
675.16	3452.88
675.34	3475.40
675.53	3121.10
675.72	3084.24
675.90	3633.10
676.09	3180.50
676.28	3170.26
676.46	2904.02
676.65	3434.44
676.83	3194.83
677.02	3196.88
677.21	3215.31
677.39	3315.66
677.58	3110.86
677.77	3108.82
677.95	3053.52
678.14	3178.45
678.32	3229.65
678.51	2959.31
678.70	3450.83
678.88	3205.07
679.07	3313.61
679.25	3141.58
679.44	3160.02
679.63	3041.23
679.81	3260.37
680.00	3342.28
680.18	3176.40
680.37	3604.42
680.55	3305.42
680.74	2947.03
680.93	2838.48
681.11	3303.37
681.30	3319.76
681.48	3069.91
681.67	3049.43
681.85	3284.94
682.04	3151.82
682.23	3200.98
682.41	3192.78
682.60	3258.32
682.78	3200.98
682.97	2930.64
683.15	3112.91
683.34	3307.47
683.53	3588.04
683.71	2881.49
683.90	3141.58
684.08	3649.48
684.27	3137.49
684.45	3137.49
684.64	3172.30
684.82	3270.61
685.01	3360.72
685.19	3074.00
685.38	3379.15
685.57	3246.03
685.75	3164.11
685.94	3037.14
686.12	2922.45
686.31	3205.07
686.49	3585.99
686.68	2822.10
686.86	3092.43
687.05	3252.17
687.23	3610.57
687.42	3010.51
687.60	2897.88
687.79	3504.07
687.97	3592.14
688.16	3284.94
688.34	3311.57
688.53	2951.12
688.71	3317.71
688.90	3323.85
689.08	3102.67
689.27	2975.70
689.45	3373.00
689.64	3268.56
689.82	3178.45
690.01	3479.50
690.19	3362.76
690.38	3168.21
690.56	3217.36
690.75	3119.06
690.93	3168.21
691.12	3080.14
691.30	3157.97
691.49	3135.44
691.67	3248.08
691.86	3420.11
692.04	3139.54
692.23	3166.16
692.41	3336.14
692.60	3454.92
692.78	3289.04
692.97	3286.99
693.15	3391.44
693.34	3262.41
693.52	3289.04
693.71	3143.63
693.89	3241.93
694.08	2844.63
694.26	3071.95
694.44	3346.38
694.63	3442.64
694.81	3002.32
695.00	3084.24
695.18	3440.59
695.37	3829.70
695.55	3215.31
695.74	3110.86
695.92	3229.65
696.10	3526.60
696.29	2977.75
696.47	3096.53
696.66	3037.14
696.84	3084.24
697.03	3160.02
697.21	3387.34
697.40	4677.56
697.58	3502.03
697.76	3147.73
697.95	3014.61
698.13	3067.86
698.32	3117.01
698.50	3045.33
698.68	3112.91
698.87	3385.29
699.05	3573.71
699.24	3086.29
699.42	3014.61
699.61	3299.28
699.79	3243.98
699.97	3139.54
700.16	2867.16
700.34	3090.38
700.53	3330.00
700.71	3256.27
700.89	3205.07
701.08	3203.02
701.26	3207.12
701.45	3471.31
701.63	3071.95
701.81	3102.67
702.00	3149.78
702.18	3215.31
702.37	3108.82
702.55	3585.99
702.73	3401.68
702.92	3098.58
703.10	3553.23
703.28	3479.50
703.47	3084.24
703.65	3330.00
703.84	3188.69
704.02	3174.35
704.20	3600.33
704.39	3076.05
704.57	3119.06
704.75	3409.87
704.94	3297.23
705.12	3260.37
705.30	4024.26
705.49	8716.16
705.67	17098.49
705.86	23795.35
706.04	27088.48
706.22	30449.20
706.41	28493.39
706.59	21835.44
706.77	16942.85
706.96	14714.66
707.14	13287.22
707.32	11259.73
707.51	9881.45
707.69	8060.80
707.87	6682.52
708.06	5468.08
708.24	4546.49
708.42	4067.27
708.61	4138.94
708.79	3213.26
708.97	3282.89
709.16	3442.64
709.34	3340.24
709.52	3131.34
709.71	3188.69
709.89	3375.05
710.07	3147.73
710.26	3024.85
710.44	3074.00
710.62	3432.40
710.80	3323.85
710.99	3268.56
711.17	3354.57
711.35	3200.98
711.54	3164.11
711.72	3270.61
711.90	3139.54
712.09	3409.87
712.27	3174.35
712.45	3147.73
712.63	3092.43
712.82	3434.44
713.00	3235.79
713.18	3239.89
713.37	3239.89
713.55	3434.44
713.73	3401.68
713.91	3229.65
714.10	3074.00
714.28	3196.88
714.46	3364.81
714.65	3194.83
714.83	3131.34
715.01	3340.24
715.19	3280.85
715.38	3008.47
715.56	3284.94
715.74	3160.02
715.92	3196.88
716.11	3416.01
716.29	2844.63
716.47	3280.85
716.65	3229.65
716.84	2955.22
717.02	3125.20
717.20	2916.31
717.38	3065.81
717.57	3172.30
717.75	3131.34
717.93	3229.65
718.11	3409.87
718.30	2990.03
718.48	3090.38
718.66	3452.88
718.84	3526.60
719.03	3106.77
719.21	2959.31
719.39	3614.66
719.57	3418.06
719.75	3184.59
719.94	2963.41
720.12	3299.28
720.30	3276.75
720.48	3182.54
720.67	3114.96
720.85	3024.85
721.03	3143.63
721.21	3024.85
721.39	3250.13
721.58	3434.44
721.76	3215.31
721.94	3157.97
722.12	3139.54
722.30	3600.33
722.49	3213.26
722.67	3078.10
722.85	3137.49
723.03	3100.62
723.21	3141.58
723.40	3106.77
723.58	3276.75
723.76	3483.59
723.94	3540.94
724.12	3119.06
724.30	3336.14
724.49	3454.92
724.67	3127.25
724.85	3241.93
725.03	2994.13
725.21	3450.83
725.40	3575.75
725.58	3139.54
725.76	3274.70
725.94	3418.06
726.12	3076.05
726.30	3172.30
726.49	3059.67
726.67	3127.25
726.85	3393.48
727.03	4014.02
727.21	5593.00
727.39	7034.77
727.57	7991.17
727.76	8198.02
727.94	8365.95
728.12	7268.24
728.30	5932.97
728.48	5664.68
728.66	5197.74
728.84	4874.17
729.03	4149.18
729.21	3878.85
729.39	3567.56
729.57	3407.82
729.75	3450.83
729.93	3411.92
730.11	3092.43
730.30	3237.84
730.48	3278.80
730.66	3200.98
730.84	3147.73
731.02	3254.22
731.20	3135.44
731.38	3131.34
731.56	2992.08
731.74	3037.14
731.93	3368.91
732.11	3278.80
732.29	3082.19
732.47	3373.00
732.65	3336.14
732.83	3393.48
733.01	3231.69
733.19	3074.00
733.37	3350.48
733.56	3092.43
733.74	2996.18
733.92	3639.24
734.10	3200.98
734.28	3299.28
734.46	2858.96
734.64	3274.70
734.82	3225.55
735.00	3012.56
735.18	2963.41
735.36	3278.80
735.54	3334.09
735.73	3053.52
735.91	3221.45
736.09	3561.42
736.27	3237.84
736.45	3186.64
736.63	2918.36
736.81	3186.64
736.99	3618.76
737.17	3274.70
737.35	2998.23
737.53	3237.84
737.71	3252.17
737.89	3338.19
738.07	3074.00
738.25	3082.19
738.43	3002.32
738.61	3030.99
738.80	2959.31
738.98	3000.27
739.16	3164.11
739.34	2994.13
739.52	3321.81
739.70	3256.27
739.88	3438.54
740.06	3241.93
740.24	2809.81
740.42	3424.20
740.60	2967.51
740.78	3028.95
740.96	2889.68
741.14	3168.21
741.32	3278.80
741.50	2918.36
741.68	3383.24
741.86	3577.80
742.04	3049.43
742.22	2967.51
742.40	3086.29
742.58	3377.10
742.76	3074.00
742.94	3393.48
743.12	2910.16
743.30	3258.32
743.48	3401.68
743.66	3041.23
743.84	3114.96
744.02	3250.13
744.20	3213.26
744.38	3026.90
744.56	3088.34
744.74	3631.05
744.92	3327.95
745.10	3342.28
745.28	3088.34
745.46	3608.52
745.64	3211.22
745.82	3209.17
746.00	3020.75
746.18	3327.95
746.36	3121.10
746.54	3178.45
746.72	3059.67
746.90	3117.01
747.08	3450.83
747.26	2994.13
747.44	3198.93
747.62	3309.52
747.80	3375.05
747.98	3170.26
748.15	3106.77
748.33	3598.28
748.51	3352.52
748.69	3231.69
748.87	2934.74
749.05	3203.02
749.23	3264.46
749.41	3069.91
749.59	3006.42
749.77	3395.53
749.95	3192.78
750.13	3014.61
750.31	3215.31
750.49	3217.36
750.67	3434.44
750.85	3227.60
751.03	3041.23
751.20	3702.73
751.38	3254.22
751.56	3110.86
751.74	3151.82
751.92	3174.35
752.10	2985.94
752.28	3184.59
752.46	3002.32
752.64	3272.65
752.82	3299.28
753.00	3110.86
753.18	3020.75
753.35	3174.35
753.53	3231.69
753.71	3047.38
753.89	3172.30
754.07	3385.29
754.25	3510.22
754.43	3151.82
754.61	2942.93
754.79	3463.12
754.97	3278.80
755.14	3303.37
755.32	2940.88
755.50	3332.05
755.68	3311.57
755.86	2985.94
756.04	2992.08
756.22	2904.02
756.40	3442.64
756.57	3297.23
756.75	3018.71
756.93	3514.31
757.11	3442.64
757.29	2979.79
757.47	3026.90
757.65	2940.88
757.82	2871.25
758.00	2961.36
758.18	3028.95
758.36	3104.72
758.54	3659.72
758.72	2936.79
758.90	3194.83
759.07	3305.42
759.25	3020.75
759.43	3203.02
759.61	2906.07
759.79	4523.96
759.97	3430.35
760.15	3067.86
760.32	3049.43
760.50	3379.15
760.68	3545.03
760.86	2914.26
761.04	3268.56
761.22	3463.12
761.39	3327.95
761.57	3260.37
761.75	3082.19
761.93	3358.67
762.11	3241.93
762.28	3227.60
762.46	3045.33
762.64	3426.25
762.82	3016.66
763.00	2967.51
763.18	3317.71
763.35	3088.34
763.53	3397.58
763.71	3153.87
763.89	3053.52
764.07	3178.45
764.24	3368.91
764.42	3258.32
764.60	3123.15
764.78	3397.58
764.96	3401.68
765.13	3311.57
765.31	3010.51
765.49	3454.92
765.67	3033.04
765.84	3078.10
766.02	3108.82
766.20	2998.23
766.38	3305.42
766.56	3139.54
766.73	3172.30
766.91	3338.19
767.09	3299.28
767.27	3211.22
767.44	3033.04
767.62	3352.52
767.80	3383.24
767.98	2996.18
768.15	3141.58
768.33	3430.35
768.51	3545.03
768.69	3145.68
768.87	3026.90
769.04	3368.91
769.22	3778.50
769.40	3246.03
769.58	3147.73
769.75	3368.91
769.93	3542.99
770.11	3035.09
770.28	2996.18
770.46	3442.64
770.64	3330.00
770.82	3114.96
770.99	3018.71
771.17	3411.92
771.35	3221.45
771.53	3176.40
771.70	3030.99
771.88	3354.57
772.06	3258.32
772.23	3014.61
772.41	3149.78
772.59	3264.46
772.77	3045.33
772.94	3137.49
773.12	3059.67
773.30	3141.58
773.47	3330.00
773.65	2973.65
773.83	3160.02
774.01	3252.17
774.18	3012.56
774.36	3067.86
774.54	2912.21
774.71	3356.62
774.89	2975.70
775.07	2955.22
775.24	3092.43
775.42	3168.21
775.60	3643.34
775.78	3004.37
775.95	2928.60
776.13	2967.51
776.31	3033.04
776.48	3223.50
776.66	3252.17
776.84	3215.31
777.01	3049.43
777.19	3026.90
777.37	3035.09
777.54	3444.68
777.72	3614.66
777.90	3190.74
778.07	3114.96
778.25	3925.96
778.43	3502.03
778.60	3008.47
778.78	3192.78
778.96	3540.94
779.13	3018.71
779.31	3164.11
779.49	3188.69
779.66	3313.61
779.84	3160.02
780.01	2994.13
780.19	2918.36
780.37	3516.36
780.54	3377.10
780.72	2938.84
780.90	3076.05
781.07	3223.50
781.25	3160.02
781.43	3289.04
781.60	3100.62
781.78	3508.17
781.95	3330.00
782.13	3063.76
782.31	3059.67
782.48	2910.16
782.66	3235.79
782.83	3299.28
783.01	3241.93
783.19	3475.40
783.36	3164.11
783.54	3069.91
783.72	3110.86
783.89	3119.06
784.07	3346.38
784.24	3205.07
784.42	3211.22
784.60	3319.76
784.77	3278.80
784.95	2803.67
785.12	3043.28
785.30	3286.99
785.47	3026.90
785.65	3018.71
785.83	3084.24
786.00	3147.73
786.18	3276.75
786.35	3016.66
786.53	2977.75
786.71	3452.88
786.88	3305.42
787.06	3213.26
787.23	3213.26
787.41	3018.71
787.58	3153.87
787.76	2994.13
787.94	3092.43
788.11	3266.51
788.29	2983.89
788.46	3024.85
788.64	2942.93
788.81	3112.91
788.99	2992.08
789.16	3006.42
789.34	3082.19
789.52	3143.63
789.69	3164.11
789.87	2951.12
790.04	3071.95
790.22	3248.08
790.39	3606.47
790.57	2959.31
790.74	2944.98
790.92	3571.66
791.09	2926.55
791.27	3196.88
791.44	3153.87
791.62	3291.09
791.79	3426.25
791.97	3065.81
792.15	3393.48
792.32	3364.81
792.50	3452.88
792.67	3178.45
792.85	3379.15
793.02	3293.13
793.20	3203.02
793.37	2981.84
793.55	2985.94
793.72	3033.04
793.90	3366.86
794.07	3069.91
794.25	3078.10
794.42	3360.72
794.60	3256.27
794.77	3149.78
794.95	3145.68
795.12	3440.59
795.30	3233.74
795.47	2848.72
795.65	3471.31
795.82	3297.23
796.00	3186.64
796.17	3155.92
796.34	2959.31
796.52	3379.15
796.69	3452.88
796.87	3219.41
797.04	3229.65
797.22	3405.77
797.39	3233.74
797.57	3321.81
797.74	3184.59
797.92	3289.04
798.09	3176.40
798.27	3383.24
798.44	3076.05
798.62	3190.74
798.79	3342.28
798.96	3246.03
799.14	3076.05
799.31	3825.61
799.49	3264.46
799.66	3078.10
799.84	3229.65
800.01	2981.84
800.19	3332.05
800.36	2799.57
800.53	3131.34
800.71	3342.28
800.88	3532.75
801.06	2955.22
801.23	3047.38
801.41	3143.63
801.58	3223.50
801.75	3022.80
801.93	3188.69
802.10	3434.44
802.28	3229.65
802.45	3100.62
802.63	3168.21
802.80	3547.08
802.97	3147.73
803.15	3061.71
803.32	3112.91
803.50	3168.21
803.67	3147.73
803.84	3008.47
804.02	3149.78
804.19	3127.25
804.37	2858.96
804.54	2897.88
804.71	3069.91
804.89	3256.27
805.06	3061.71
805.24	3006.42
805.41	2893.78
805.58	3166.16
805.76	3778.50
805.93	2990.03
806.10	3219.41
806.28	3424.20
806.45	3270.61
806.63	3231.69
806.80	3139.54
806.97	3356.62
807.15	3289.04
807.32	3192.78
807.49	3049.43
807.67	2996.18
807.84	3280.85
808.01	2893.78
808.19	3246.03
808.36	3772.36
808.54	3157.97
808.71	3127.25
808.88	3080.14
809.06	3495.88
809.23	3542.99
809.40	3119.06
809.58	3051.47
809.75	3215.31
809.92	3082.19
810.10	3405.77
810.27	3037.14
810.44	3352.52
810.62	3430.35
810.79	3041.23
810.96	3131.34
811.14	3114.96
811.31	3401.68
811.48	3293.13
811.66	3131.34
811.83	3553.23
812.00	3381.20
812.18	3178.45
812.35	3401.68
812.52	3168.21
812.69	3172.30
812.87	3030.99
813.04	3000.27
813.21	3274.70
813.39	3198.93
813.56	3037.14
813.73	3346.38
813.91	2906.07
814.08	3280.85
814.25	3049.43
814.42	2910.16
814.60	3153.87
814.77	3233.74
814.94	3084.24
815.12	3182.54
815.29	3569.61
815.46	3127.25
815.63	3135.44
815.81	3123.15
815.98	3200.98
816.15	3272.65
816.33	3147.73
816.50	3123.15
816.67	3270.61
816.84	3205.07
817.02	3069.91
817.19	3035.09
817.36	3354.57
817.53	3268.56
817.71	2957.27
817.88	3069.91
818.05	3219.41
818.22	3217.36
818.40	3254.22
818.57	3086.29
818.74	3381.20
818.91	3293.13
819.09	3254.22
819.26	3168.21
819.43	3104.72
819.60	3127.25
819.78	3213.26
819.95	3164.11
820.12	3090.38
820.29	3518.41
820.47	3407.82
820.64	3012.56
820.81	3037.14
820.98	3098.58
821.15	3043.28
821.33	3196.88
821.50	2953.17
821.67	3375.05
821.84	3053.52
822.02	3162.06
822.19	3438.54
822.36	3221.45
822.53	2996.18
822.70	2924.50
822.88	3209.17
823.05	3577.80
823.22	3074.00
823.39	3114.96
823.56	3221.45
823.74	3637.19
823.91	2940.88
824.08	2979.79
824.25	3069.91
824.42	3549.13
824.60	2852.82
824.77	3170.26
824.94	3166.16
825.11	3313.61
825.28	3004.37
825.45	3166.16
825.63	3297.23
825.80	3012.56
825.97	3227.60
826.14	3143.63
826.31	2987.99
826.48	3375.05
826.66	3020.75
826.83	2987.99
827.00	3166.16
827.17	3018.71
827.34	3088.34
827.51	2959.31
827.69	3141.58
827.86	3026.90
828.03	3114.96
828.20	3123.15
828.37	3147.73
828.54	3379.15
828.71	3033.04
828.89	3196.88
829.06	3356.62
829.23	3510.22
829.40	3022.80
829.57	2979.79
829.74	3373.00
829.91	3207.12
830.09	3008.47
830.26	3151.82
830.43	3563.47
830.60	3176.40
830.77	3188.69
830.94	3276.75
831.11	3381.20
831.28	3131.34
831.46	3188.69
831.63	3002.32
831.80	3477.45
831.97	3170.26
832.14	3108.82
832.31	3078.10
832.48	3303.37
832.65	3401.68
832.82	3194.83
832.99	3119.06
833.17	3014.61
833.34	3590.09
833.51	3074.00
833.68	2861.01
833.85	3418.06
834.02	3033.04
834.19	3071.95
834.36	3010.51
834.53	3260.37
834.70	3540.94
834.87	3067.86
835.04	2844.63
835.22	3049.43
835.39	3319.76
835.56	2883.54
835.73	2922.45
835.90	3444.68
836.07	3082.19
836.24	3010.51
836.41	2990.03
836.58	3117.01
836.75	3463.12
836.92	2996.18
837.09	2867.16
837.26	3469.26
837.43	3325.90
837.60	2967.51
837.77	2934.74
837.94	3407.82
838.12	3459.02
838.29	2813.91
838.46	2779.09
838.63	3008.47
838.80	3567.56
838.97	2979.79
839.14	2838.48
839.31	3293.13
839.48	3413.96
839.65	2967.51
839.82	3018.71
839.99	3379.15
840.16	3237.84
840.33	2910.16
840.50	3018.71
840.67	3119.06
840.84	2871.25
841.01	2852.82
841.18	2936.79
841.35	3192.78
841.52	3387.34
841.69	3227.60
841.86	3012.56
842.03	3268.56
842.20	3446.73
842.37	2981.84
842.54	2920.40
842.71	3162.06
842.88	2930.64
843.05	2953.17
843.22	2983.89
843.39	3381.20
843.56	3106.77
843.73	2854.87
843.90	2914.26
844.07	3291.09
844.24	3461.07
844.41	3018.71
844.58	2926.55
844.75	3319.76
844.92	3307.47
845.09	3022.80
845.26	2885.59
845.43	3317.71
845.60	3207.12
845.77	3043.28
845.94	3033.04
846.10	3440.59
846.27	2967.51
846.44	2768.85
846.61	2822.10
846.78	3426.25
846.95	3405.77
847.12	2924.50
847.29	2975.70
847.46	3053.52
847.63	3393.48
847.80	2775.00
847.97	2918.36
848.14	3723.21
848.31	3274.70
848.48	2766.81
848.65	2971.60
848.82	3178.45
848.98	3805.13
849.15	3037.14
849.32	3076.05
849.49	3475.40
849.66	3264.46
849.83	2942.93
850.00	2895.83
850.17	3399.63
850.34	3147.73
850.51	2830.29
850.68	2918.36
850.85	3747.78
851.01	3274.70
851.18	2912.21
851.35	2934.74
851.52	3325.90
851.69	3565.51
851.86	2869.20
852.03	2875.35
852.20	3416.01
852.37	3276.75
852.53	2818.00
852.70	2832.34
852.87	3309.52
853.04	3368.91
853.21	2901.97
853.38	3205.07
853.55	3555.27
853.72	3442.64
853.89	2754.52
854.05	2887.64
854.22	3184.59
854.39	3106.77
854.56	2881.49
854.73	3033.04
854.90	3082.19
855.07	3176.40
855.23	2944.98
855.40	2791.38
855.57	3178.45
855.74	2854.87
855.91	3151.82
856.08	2785.24
856.25	3020.75
856.41	3141.58
856.58	2918.36
856.75	2953.17
856.92	2979.79
857.09	3473.36
857.26	2813.91
857.42	2967.51
857.59	3344.33
857.76	3141.58
857.93	2916.31
858.10	2955.22
858.27	2961.36
858.43	3241.93
858.60	2953.17
858.77	2791.38
858.94	3188.69
859.11	3467.21
859.27	3053.52
859.44	2856.92
859.61	3608.52
859.78	3346.38
859.95	2951.12
860.12	2881.49
860.28	3725.26
860.45	3598.28
860.62	2854.87
860.79	3008.47
860.95	3121.10
861.12	3065.81
861.29	2877.40
861.46	2877.40
861.63	3229.65
861.79	3248.08
861.96	2758.61
862.13	2930.64
862.30	3545.03
862.47	3196.88
862.63	2871.25
862.80	2942.93
862.97	3442.64
863.14	3336.14
863.30	2942.93
863.47	2893.78
863.64	3573.71
863.81	3254.22
863.97	2844.63
864.14	2953.17
864.31	3178.45
864.48	3313.61
864.65	2904.02
864.81	3053.52
864.98	3338.19
865.15	3377.10
865.32	3067.86
865.48	3008.47
865.65	3639.24
865.82	3104.72
865.98	3043.28
866.15	3018.71
866.32	3229.65
866.49	3135.44
866.65	3071.95
866.82	2848.72
866.99	3254.22
867.16	3133.39
867.32	2885.59
867.49	2861.01
867.66	3241.93
867.83	3166.16
867.99	2854.87
868.16	2942.93
868.33	3092.43
868.49	3311.57
868.66	2877.40
868.83	2983.89
868.99	3280.85
869.16	3262.41
869.33	3026.90
869.50	2977.75
869.66	3231.69
869.83	3203.02
870.00	2854.87
870.16	2971.60
870.33	3186.64
870.50	3393.48
870.66	2969.55
870.83	2916.31
871.00	3176.40
871.17	3241.93
871.33	2944.98
871.50	2832.34
871.67	3276.75
871.83	3192.78
872.00	2985.94
872.17	2944.98
872.33	3672.01
872.50	3491.79
872.67	2914.26
872.83	2926.55
873.00	3356.62
873.17	3248.08
873.33	2983.89
873.50	2928.60
873.67	3096.53
873.83	3084.24
874.00	2865.11
874.16	3055.57
874.33	3311.57
874.50	3018.71
874.66	2858.96
874.83	3024.85
875.00	3444.68
875.16	3448.78
875.33	3037.14
875.50	2699.22
875.66	3153.87
875.83	3297.23
875.99	3059.67
876.16	2973.65
876.33	3024.85
876.49	3196.88
876.66	3024.85
876.83	2932.69
876.99	3012.56
877.16	3264.46
877.32	2805.72
877.49	3053.52
877.66	3373.00
877.82	3606.47
877.99	2985.94
878.15	3213.26
878.32	3385.29
878.49	3346.38
878.65	3002.32
878.82	3217.36
878.98	3147.73
879.15	3532.75
879.32	3084.24
879.48	3119.06
879.65	3209.17
879.81	3162.06
879.98	2895.83
880.15	3065.81
880.31	3295.18
880.48	3037.14
880.64	2996.18
880.81	2987.99
880.97	3491.79
881.14	3504.07
881.31	2865.11
881.47	3100.62
881.64	3209.17
881.80	2944.98
881.97	3121.10
882.13	2953.17
882.30	3010.51
882.47	3139.54
882.63	2883.54
882.80	2877.40
882.96	3262.41
883.13	3428.30
883.29	2848.72
883.46	2955.22
883.62	3762.12
883.79	3295.18
883.95	3102.67
884.12	2908.12
884.29	3401.68
884.45	3321.81
884.62	2904.02
884.78	2783.19
884.95	3661.77
885.11	3080.14
885.28	2985.94
885.44	2953.17
885.61	3395.53
885.77	3518.41
885.94	3030.99
886.10	2990.03
886.27	3217.36
886.43	3641.29
886.60	3176.40
886.76	2969.55
886.93	3102.67
887.09	3317.71
887.26	2824.15
887.42	3037.14
887.59	3506.12
887.75	3727.30
887.92	3112.91
888.08	3084.24
888.25	3622.86
888.41	3354.57
888.58	2961.36
888.74	2897.88
888.91	3076.05
>>>>>End Processed Spectral Data<<<<<
