SpectraSuite Data File
++++++++++++++++++++++++++++++++++++
Date: Fri May 06 08:13:55 CEST 2016
User: root
Dark Spectrum Present: No
Reference Spectrum Present: No
Number of Sampled Component Spectra: 1
Spectrometers: USB4C02835
Integration Time (usec): 100000 (USB4C02835)
Spectra Averaged: 1 (USB4C02835)
Boxcar Smoothing: 0 (USB4C02835)
Correct for Electrical Dark: No (USB4C02835)
Strobe/Lamp Enabled: No (USB4C02835)
Correct for Detector Non-linearity: No (USB4C02835)
Correct for Stray Light: No (USB4C02835)
Number of Pixels in Processed Spectrum: 3648
>>>>>Begin Processed Spectral Data<<<<<
177.47	2277.34
177.69	2277.34
177.91	2277.34
178.13	2220.00
178.36	2252.77
178.58	3039.19
178.80	3164.11
179.02	2938.84
179.24	3106.77
179.46	2772.95
179.68	2836.44
179.90	3190.74
180.13	3340.24
180.35	2697.17
180.57	2871.25
180.79	3422.16
181.01	3274.70
181.23	2924.50
181.45	3008.47
181.67	3399.63
181.90	3475.40
182.12	2928.60
182.34	2750.42
182.56	3385.29
182.78	3393.48
183.00	2854.87
183.22	2910.16
183.44	2934.74
183.66	3889.09
183.89	2979.79
184.11	2942.93
184.33	3405.77
184.55	3508.17
184.77	2836.44
184.99	2777.05
185.21	3209.17
185.43	3792.84
185.65	2787.29
185.87	2787.29
186.10	3798.98
186.32	3821.51
186.54	3041.23
186.76	2932.69
186.98	3493.83
187.20	3188.69
187.42	2926.55
187.64	2959.31
187.86	3368.91
188.08	3502.03
188.30	2811.86
188.52	3014.61
188.75	3579.85
188.97	3622.86
189.19	2809.81
189.41	2766.81
189.63	3373.00
189.85	3106.77
190.07	2742.23
190.29	2734.04
190.51	3416.01
190.73	3059.67
190.95	3022.80
191.17	2887.64
191.39	2947.03
191.61	3227.60
191.84	2844.63
192.06	3065.81
192.28	2920.40
192.50	4016.07
192.72	3059.67
192.94	2904.02
193.16	3461.07
193.38	3440.59
193.60	2805.72
193.82	3080.14
194.04	3477.45
194.26	3311.57
194.48	2822.10
194.70	2850.77
194.92	3274.70
195.14	3436.49
195.36	2840.53
195.58	3012.56
195.80	3246.03
196.02	3184.59
196.24	2795.48
196.46	2963.41
196.69	3151.82
196.91	3737.54
197.13	2881.49
197.35	2977.75
197.57	3542.99
197.79	3397.58
198.01	2953.17
198.23	2836.44
198.45	3456.97
198.67	3055.57
198.89	2738.13
199.11	3008.47
199.33	3215.31
199.55	2881.49
199.77	2775.00
199.99	2967.51
200.21	3149.78
200.43	3430.35
200.65	2717.65
200.87	2721.75
201.09	3319.76
201.31	3237.84
201.53	2842.58
201.75	2953.17
201.97	3356.62
202.19	3307.47
202.41	2899.92
202.63	2979.79
202.85	3387.34
203.07	3360.72
203.29	3010.51
203.51	2772.95
203.73	3192.78
203.95	3862.47
204.17	2842.58
204.39	3039.19
204.61	3313.61
204.83	3188.69
205.05	3000.27
205.27	2877.40
205.49	3848.13
205.71	3274.70
205.93	2777.05
206.15	2793.43
206.37	3366.86
206.59	3297.23
206.81	2791.38
207.03	2783.19
207.25	3065.81
207.47	3413.96
207.69	2973.65
207.91	3082.19
208.13	3659.72
208.34	3147.73
208.56	2783.19
208.78	2875.35
209.00	3174.35
209.22	3188.69
209.44	2889.68
209.66	2881.49
209.88	3295.18
210.10	3149.78
210.32	2930.64
210.54	3004.37
210.76	3286.99
210.98	3493.83
211.20	2699.22
211.42	2938.84
211.64	3600.33
211.86	3383.24
212.08	2877.40
212.30	2940.88
212.52	3209.17
212.74	3391.44
212.96	3012.56
213.17	2983.89
213.39	3452.88
213.61	3672.01
213.83	2740.18
214.05	2772.95
214.27	3450.83
214.49	3004.37
214.71	2799.57
214.93	3006.42
215.15	3291.09
215.37	3459.02
215.59	2805.72
215.81	2885.59
216.03	3536.84
216.24	3356.62
216.46	2877.40
216.68	2971.60
216.90	3442.64
217.12	3473.36
217.34	2836.44
217.56	2992.08
217.78	3618.76
218.00	3444.68
218.22	2951.12
218.44	2961.36
218.66	3332.05
218.87	3626.95
219.09	2897.88
219.31	2885.59
219.53	3332.05
219.75	3239.89
219.97	2899.92
220.19	2998.23
220.41	3176.40
220.63	3594.19
220.85	2895.83
221.06	2895.83
221.28	3540.94
221.50	3334.09
221.72	2881.49
221.94	2744.28
222.16	3327.95
222.38	3395.53
222.60	2885.59
222.82	2899.92
223.03	3409.87
223.25	3086.29
223.47	2836.44
223.69	3035.09
223.91	3551.18
224.13	3383.24
224.35	2789.33
224.57	3063.76
224.78	3465.16
225.00	3174.35
225.22	2957.27
225.44	2848.72
225.66	3452.88
225.88	3178.45
226.10	3012.56
226.32	2885.59
226.53	3600.33
226.75	3254.22
226.97	2959.31
227.19	2965.46
227.41	3090.38
227.63	3119.06
227.85	2658.26
228.06	2942.93
228.28	3307.47
228.50	3499.98
228.72	2736.09
228.94	2813.91
229.16	2942.93
229.37	3112.91
229.59	2801.62
229.81	3092.43
230.03	3200.98
230.25	3026.90
230.47	2746.33
230.69	2895.83
230.90	3426.25
231.12	3141.58
231.34	2942.93
231.56	2897.88
231.78	2973.65
232.00	3315.66
232.21	2873.30
232.43	2926.55
232.65	2897.88
232.87	3383.24
233.09	2727.89
233.30	2764.76
233.52	3504.07
233.74	3248.08
233.96	2832.34
234.18	3037.14
234.40	3182.54
234.61	3741.64
234.83	2772.95
235.05	2787.29
235.27	3798.98
235.49	3504.07
235.70	2693.08
235.92	2844.63
236.14	3477.45
236.36	3758.02
236.58	2699.22
236.79	2987.99
237.01	3225.55
237.23	3164.11
237.45	3096.53
237.67	3010.51
237.88	3284.94
238.10	3704.78
238.32	2762.71
238.54	2858.96
238.76	3319.76
238.97	3160.02
239.19	2840.53
239.41	2916.31
239.63	3473.36
239.85	3157.97
240.06	2899.92
240.28	2885.59
240.50	3536.84
240.72	3213.26
240.93	2701.27
241.15	2987.99
241.37	3340.24
241.59	3573.71
241.81	2772.95
242.02	2969.55
242.24	3387.34
242.46	3450.83
242.68	2709.46
242.89	2783.19
243.11	3444.68
243.33	3266.51
243.55	2873.30
243.76	2912.21
243.98	3215.31
244.20	3272.65
244.42	2897.88
244.64	2781.14
244.85	2996.18
245.07	2985.94
245.29	2865.11
245.51	2828.24
245.72	3321.81
245.94	3418.06
246.16	2869.20
246.38	2869.20
246.59	3160.02
246.81	3133.39
247.03	2789.33
247.24	2674.65
247.46	3164.11
247.68	3401.68
247.90	2861.01
248.11	2928.60
248.33	3422.16
248.55	3295.18
248.77	2965.46
248.98	3008.47
249.20	3647.43
249.42	3289.04
249.64	2820.05
249.85	2822.10
250.07	3168.21
250.29	3452.88
250.50	2996.18
250.72	2719.70
250.94	3393.48
251.16	3725.26
251.37	2820.05
251.59	2877.40
251.81	3403.72
252.02	3606.47
252.24	2795.48
252.46	2987.99
252.68	3053.52
252.89	3182.54
253.11	2779.09
253.33	3061.71
253.54	3631.05
253.76	3045.33
253.98	2787.29
254.20	2856.92
254.41	3067.86
254.63	3172.30
254.85	2748.37
255.06	2998.23
255.28	3434.44
255.50	3272.65
255.71	2811.86
255.93	2717.65
256.15	3221.45
256.36	3416.01
256.58	2725.85
256.80	2815.96
257.02	3264.46
257.23	3262.41
257.45	2840.53
257.67	3024.85
257.88	3184.59
258.10	3385.29
258.32	2787.29
258.53	2916.31
258.75	3602.38
258.97	3059.67
259.18	2777.05
259.40	2807.77
259.62	3657.67
259.83	3594.19
260.05	2799.57
260.27	3745.73
260.48	3491.79
260.70	3104.72
260.92	2758.61
261.13	2858.96
261.35	3330.00
261.57	3344.33
261.78	2738.13
262.00	2834.39
262.22	3473.36
262.43	3057.62
262.65	2861.01
262.86	2861.01
263.08	3829.70
263.30	3332.05
263.51	2713.56
263.73	2795.48
263.95	3694.54
264.16	3108.82
264.38	2742.23
264.60	2799.57
264.81	3276.75
265.03	3475.40
265.25	3299.28
265.46	2795.48
265.68	3436.49
265.89	3426.25
266.11	2707.41
266.33	2809.81
266.54	3504.07
266.76	3403.72
266.98	2959.31
267.19	3053.52
267.41	3559.37
267.62	3272.65
267.84	2664.41
268.06	2879.44
268.27	3344.33
268.49	3467.21
268.70	2944.98
268.92	2844.63
269.14	3104.72
269.35	3028.95
269.57	2998.23
269.79	2893.78
270.00	3131.34
270.22	3694.54
270.43	2803.67
270.65	2715.61
270.87	3321.81
271.08	3465.16
271.30	2987.99
271.51	2926.55
271.73	3471.31
271.95	3645.38
272.16	2820.05
272.38	3039.19
272.59	3233.74
272.81	3391.44
273.02	2793.43
273.24	2924.50
273.46	3524.55
273.67	3041.23
273.89	2748.37
274.10	2885.59
274.32	3520.46
274.54	3229.65
274.75	2992.08
274.97	2994.13
275.18	3491.79
275.40	3330.00
275.61	2844.63
275.83	3012.56
276.05	3133.39
276.26	3327.95
276.48	2979.79
276.69	2987.99
276.91	3164.11
277.12	3571.66
277.34	3028.95
277.55	3162.06
277.77	3411.92
277.99	3188.69
278.20	2981.84
278.42	2850.77
278.63	3221.45
278.85	3065.81
279.06	3057.62
279.28	3145.68
279.49	3477.45
279.71	3481.55
279.93	3043.28
280.14	2987.99
280.36	3170.26
280.57	3420.11
280.79	3051.47
281.00	2826.20
281.22	3166.16
281.43	3469.26
281.65	2768.85
281.86	2916.31
282.08	3340.24
282.29	3661.77
282.51	2834.39
282.73	2879.44
282.94	2992.08
283.16	3454.92
283.37	3121.10
283.59	3112.91
283.80	3442.64
284.02	3213.26
284.23	3014.61
284.45	3016.66
284.66	3131.34
284.88	3188.69
285.09	2918.36
285.31	3137.49
285.52	3340.24
285.74	2981.84
285.95	3231.69
286.17	3000.27
286.38	3491.79
286.60	3121.10
286.81	2914.26
287.03	2934.74
287.24	3276.75
287.46	3411.92
287.67	3102.67
287.89	3225.55
288.10	3334.09
288.32	3327.95
288.53	3203.02
288.75	3061.71
288.96	3463.12
289.18	3114.96
289.39	2938.84
289.61	3086.29
289.82	3688.39
290.04	3674.06
290.25	2867.16
290.47	2985.94
290.68	3231.69
290.90	3446.73
291.11	2756.57
291.33	3094.48
291.54	3137.49
291.76	3086.29
291.97	3137.49
292.18	3074.00
292.40	3282.89
292.61	3125.20
292.83	3213.26
293.04	3010.51
293.26	3364.81
293.47	3282.89
293.69	2957.27
293.90	2877.40
294.12	3524.55
294.33	3239.89
294.55	3026.90
294.76	3239.89
294.97	3532.75
295.19	3700.68
295.40	3006.42
295.62	3078.10
295.83	3438.54
296.05	3149.78
296.26	3196.88
296.48	3014.61
296.69	3299.28
296.90	3270.61
297.12	3067.86
297.33	3205.07
297.55	3291.09
297.76	3407.82
297.98	3139.54
298.19	3200.98
298.41	3332.05
298.62	3061.71
298.83	3205.07
299.05	3100.62
299.26	3196.88
299.48	3092.43
299.69	3074.00
299.90	3041.23
300.12	3053.52
300.33	3385.29
300.55	2957.27
300.76	3041.23
300.98	3086.29
301.19	3389.39
301.40	3020.75
301.62	2977.75
301.83	3418.06
302.05	3291.09
302.26	2969.55
302.47	3131.34
302.69	3000.27
302.90	3295.18
303.12	2852.82
303.33	3188.69
303.54	3674.06
303.76	3184.59
303.97	2918.36
304.19	3207.12
304.40	3106.77
304.61	3434.44
304.83	3155.92
305.04	3049.43
305.26	3411.92
305.47	3213.26
305.68	3039.19
305.90	2861.01
306.11	3606.47
306.33	3241.93
306.54	2889.68
306.75	2934.74
306.97	3069.91
307.18	3047.38
307.39	2914.26
307.61	2985.94
307.82	3151.82
308.04	3391.44
308.25	2844.63
308.46	3110.86
308.68	3256.27
308.89	3282.89
309.10	3139.54
309.32	3080.14
309.53	3256.27
309.74	3325.90
309.96	2957.27
310.17	3082.19
310.39	3178.45
310.60	3395.53
310.81	3094.48
311.03	2944.98
311.24	3338.19
311.45	3221.45
311.67	3313.61
311.88	3143.63
312.09	3229.65
312.31	3102.67
312.52	2930.64
312.73	2949.08
312.95	2996.18
313.16	3053.52
313.37	3182.54
313.59	3270.61
313.80	3401.68
314.01	3565.51
314.23	3067.86
314.44	2955.22
314.65	3006.42
314.87	3147.73
315.08	3024.85
315.29	2967.51
315.51	3041.23
315.72	2965.46
315.93	3065.81
316.15	2987.99
316.36	3112.91
316.57	3278.80
316.79	3063.76
317.00	2889.68
317.21	3387.34
317.43	3133.39
317.64	3100.62
317.85	2977.75
318.07	3147.73
318.28	3192.78
318.49	3084.24
318.70	3289.04
318.92	3350.48
319.13	3401.68
319.34	3194.83
319.56	3059.67
319.77	3368.91
319.98	3467.21
320.20	3262.41
320.41	3147.73
320.62	3356.62
320.83	3026.90
321.05	3172.30
321.26	2928.60
321.47	3327.95
321.69	3524.55
321.90	2779.09
322.11	2922.45
322.32	3356.62
322.54	3534.79
322.75	3045.33
322.96	4011.97
323.18	2928.60
323.39	2897.88
323.60	2873.30
323.81	3131.34
324.03	3223.50
324.24	3266.51
324.45	3114.96
324.66	2953.17
324.88	3563.47
325.09	3577.80
325.30	2971.60
325.52	2922.45
325.73	3391.44
325.94	3155.92
326.15	2885.59
326.37	2785.24
326.58	3428.30
326.79	3598.28
327.00	2928.60
327.22	2990.03
327.43	3266.51
327.64	3155.92
327.85	3125.20
328.07	3080.14
328.28	3602.38
328.49	3074.00
328.70	2994.13
328.92	2930.64
329.13	3278.80
329.34	3332.05
329.55	3209.17
329.76	3198.93
329.98	3280.85
330.19	3524.55
330.40	3069.91
330.61	3071.95
330.83	3434.44
331.04	3092.43
331.25	3149.78
331.46	3100.62
331.68	3012.56
331.89	3422.16
332.10	2959.31
332.31	2815.96
332.52	3254.22
332.74	3463.12
332.95	2883.54
333.16	3030.99
333.37	3489.74
333.58	3184.59
333.80	3041.23
334.01	2932.69
334.22	3172.30
334.43	3057.62
334.64	2932.69
334.86	2904.02
335.07	3090.38
335.28	3596.23
335.49	2899.92
335.70	3024.85
335.92	3618.76
336.13	3739.59
336.34	3059.67
336.55	2885.59
336.76	3348.43
336.98	2920.40
337.19	2983.89
337.40	3106.77
337.61	3848.13
337.82	3082.19
338.04	3125.20
338.25	2865.11
338.46	3305.42
338.67	3241.93
338.88	2893.78
339.09	2867.16
339.31	3237.84
339.52	3041.23
339.73	2987.99
339.94	2996.18
340.15	3481.55
340.36	3200.98
340.58	3035.09
340.79	2963.41
341.00	3325.90
341.21	3082.19
341.42	3282.89
341.63	3024.85
341.85	3512.27
342.06	3282.89
342.27	2932.69
342.48	3200.98
342.69	2957.27
342.90	3375.05
343.12	3344.33
343.33	2926.55
343.54	3526.60
343.75	3606.47
343.96	3119.06
344.17	2953.17
344.38	3252.17
344.60	3143.63
344.81	3010.51
345.02	3067.86
345.23	3403.72
345.44	3758.02
345.65	3080.14
345.86	3114.96
346.07	3348.43
346.29	3104.72
346.50	3192.78
346.71	3153.87
346.92	3577.80
347.13	3700.68
347.34	3157.97
347.55	2863.06
347.76	3409.87
347.98	2899.92
348.19	3141.58
348.40	3155.92
348.61	3211.22
348.82	3688.39
349.03	3037.14
349.24	2918.36
349.45	3688.39
349.66	2910.16
349.88	2938.84
350.09	3035.09
350.30	3565.51
350.51	3469.26
350.72	3223.50
350.93	2983.89
351.14	3282.89
351.35	3442.64
351.56	3096.53
351.77	3088.34
351.99	3344.33
352.20	3592.14
352.41	3164.11
352.62	2768.85
352.83	3303.37
353.04	3198.93
353.25	3012.56
353.46	2992.08
353.67	3426.25
353.88	2924.50
354.09	2901.97
354.30	3143.63
354.52	3497.93
354.73	3176.40
354.94	3049.43
355.15	3018.71
355.36	3680.20
355.57	3149.78
355.78	2889.68
355.99	3002.32
356.20	3129.30
356.41	3487.69
356.62	3008.47
356.83	3018.71
357.04	3573.71
357.25	2934.74
357.46	2979.79
357.68	2863.06
357.89	3008.47
358.10	3233.74
358.31	2949.08
358.52	3000.27
358.73	3061.71
358.94	3092.43
359.15	3030.99
359.36	2940.88
359.57	3268.56
359.78	3211.22
359.99	3200.98
360.20	2981.84
360.41	3213.26
360.62	3377.10
360.83	3117.01
361.04	3061.71
361.25	3352.52
361.46	3528.65
361.67	3112.91
361.88	3051.47
362.09	3526.60
362.30	3393.48
362.51	2832.34
362.72	3039.19
362.93	3420.11
363.14	3399.63
363.35	3074.00
363.56	2914.26
363.78	3514.31
363.99	3385.29
364.20	3051.47
364.41	2985.94
364.62	3688.39
364.83	3379.15
365.04	2994.13
365.25	3123.15
365.46	3737.54
365.67	3172.30
365.88	3219.41
366.09	3016.66
366.30	3231.69
366.51	3295.18
366.72	2928.60
366.93	2973.65
367.14	3315.66
367.35	3530.70
367.56	2901.97
367.77	3078.10
367.98	3317.71
368.18	3389.39
368.39	3164.11
368.60	2953.17
368.81	3373.00
369.02	3348.43
369.23	2912.21
369.44	2844.63
369.65	3186.64
369.86	3334.09
370.07	3133.39
370.28	2979.79
370.49	3385.29
370.70	3379.15
370.91	2963.41
371.12	2846.68
371.33	3493.83
371.54	3170.26
371.75	3114.96
371.96	2760.66
372.17	3303.37
372.38	3284.94
372.59	3014.61
372.80	2975.70
373.01	3157.97
373.22	3315.66
373.43	2987.99
373.64	2922.45
373.85	3502.03
374.06	3567.56
374.26	3160.02
374.47	3100.62
374.68	3540.94
374.89	3311.57
375.10	2959.31
375.31	3016.66
375.52	3332.05
375.73	3338.19
375.94	2873.30
376.15	3129.30
376.36	3090.38
376.57	3180.50
376.78	3041.23
376.99	3024.85
377.20	3499.98
377.40	3307.47
377.61	3282.89
377.82	2934.74
378.03	3534.79
378.24	3416.01
378.45	3084.24
378.66	3100.62
378.87	2998.23
379.08	3033.04
379.29	3008.47
379.50	3157.97
379.71	3209.17
379.91	3420.11
380.12	2981.84
380.33	3090.38
380.54	3395.53
380.75	3209.17
380.96	3069.91
381.17	3084.24
381.38	3256.27
381.59	3305.42
381.80	3065.81
382.00	3166.16
382.21	3366.86
382.42	3588.04
382.63	3389.39
382.84	3174.35
383.05	3475.40
383.26	3569.61
383.47	3233.74
383.68	2992.08
383.88	3293.13
384.09	3297.23
384.30	3239.89
384.51	3184.59
384.72	3133.39
384.93	3018.71
385.14	3125.20
385.35	3309.52
385.55	2932.69
385.76	3508.17
385.97	3020.75
386.18	2848.72
386.39	3168.21
386.60	3117.01
386.81	3006.42
387.02	2957.27
387.22	3000.27
387.43	3397.58
387.64	3172.30
387.85	3297.23
388.06	3360.72
388.27	4427.71
388.48	7853.96
388.68	12021.58
388.89	15159.06
389.10	16541.44
389.31	16336.65
389.52	13012.79
389.73	11169.62
389.93	10495.84
390.14	9201.52
390.35	8578.94
390.56	7884.68
390.77	6475.68
390.98	5130.16
391.18	4114.37
391.39	3903.43
391.60	3305.42
391.81	3327.95
392.02	3041.23
392.23	3803.08
392.43	3315.66
392.64	3170.26
392.85	3053.52
393.06	3639.24
393.27	3248.08
393.47	2971.60
393.68	3082.19
393.89	3211.22
394.10	3516.36
394.31	3059.67
394.52	2996.18
394.72	3127.25
394.93	3575.75
395.14	2889.68
395.35	3131.34
395.56	3180.50
395.76	3250.13
395.97	3014.61
396.18	3184.59
396.39	3205.07
396.60	3903.43
396.80	3342.28
397.01	3284.94
397.22	3436.49
397.43	3452.88
397.64	3082.19
397.84	3176.40
398.05	3667.91
398.26	3170.26
398.47	3178.45
398.67	3340.24
398.88	3286.99
399.09	3549.13
399.30	3004.37
399.51	3106.77
399.71	3114.96
399.92	3289.04
400.13	3133.39
400.34	2987.99
400.54	3303.37
400.75	3526.60
400.96	3291.09
401.17	3338.19
401.37	3440.59
401.58	3166.16
401.79	3108.82
402.00	3108.82
402.21	3794.89
402.41	3575.75
402.62	3342.28
402.83	3448.78
403.04	3725.26
403.24	4091.84
403.45	3164.11
403.66	3323.85
403.87	3571.66
404.07	3602.38
404.28	3301.33
404.49	3397.58
404.70	3366.86
404.90	3456.97
405.11	3059.67
405.32	3117.01
405.52	3131.34
405.73	3289.04
405.94	2973.65
406.15	3114.96
406.35	3481.55
406.56	3465.16
406.77	3012.56
406.98	3074.00
407.18	3110.86
407.39	3614.66
407.60	3037.14
407.80	3172.30
408.01	3258.32
408.22	3401.68
408.43	2906.07
408.63	3145.68
408.84	3407.82
409.05	3485.64
409.25	2955.22
409.46	3020.75
409.67	3260.37
409.88	3094.48
410.08	3157.97
410.29	3028.95
410.50	3428.30
410.70	3383.24
410.91	2949.08
411.12	3090.38
411.32	3364.81
411.53	3026.90
411.74	3108.82
411.95	3106.77
412.15	3352.52
412.36	3373.00
412.57	3180.50
412.77	3313.61
412.98	3239.89
413.19	3262.41
413.39	3172.30
413.60	3041.23
413.81	3506.12
414.01	3080.14
414.22	3071.95
414.43	3266.51
414.63	3160.02
414.84	3461.07
415.05	3069.91
415.25	2836.44
415.46	3450.83
415.67	3196.88
415.87	3135.44
416.08	3002.32
416.29	3176.40
416.49	3450.83
416.70	3080.14
416.91	3043.28
417.11	3207.12
417.32	3469.26
417.53	3147.73
417.73	3137.49
417.94	3295.18
418.15	3295.18
418.35	3086.29
418.56	3131.34
418.77	3745.73
418.97	3280.85
419.18	3155.92
419.38	2770.90
419.59	3291.09
419.80	3559.37
420.00	3028.95
420.21	2938.84
420.42	3526.60
420.62	3401.68
420.83	3000.27
421.04	2994.13
421.24	3342.28
421.45	3481.55
421.65	3084.24
421.86	3071.95
422.07	3471.31
422.27	3456.97
422.48	2987.99
422.69	2916.31
422.89	3301.33
423.10	3213.26
423.30	3059.67
423.51	3033.04
423.72	3342.28
423.92	3428.30
424.13	2942.93
424.33	3190.74
424.54	3491.79
424.75	3325.90
424.95	3250.13
425.16	3008.47
425.36	3317.71
425.57	3411.92
425.78	3211.22
425.98	3188.69
426.19	3250.13
426.39	3127.25
426.60	3135.44
426.81	3246.03
427.01	3395.53
427.22	3082.19
427.42	2918.36
427.63	2979.79
427.83	3532.75
428.04	3700.68
428.25	3139.54
428.45	3133.39
428.66	3508.17
428.86	3229.65
429.07	2987.99
429.28	3114.96
429.48	3319.76
429.69	3063.76
429.89	3160.02
430.10	3000.27
430.30	3397.58
430.51	3491.79
430.71	2965.46
430.92	3096.53
431.13	3139.54
431.33	3446.73
431.54	3114.96
431.74	3207.12
431.95	3729.35
432.15	3074.00
432.36	2957.27
432.56	3100.62
432.77	3766.21
432.98	3604.42
433.18	3139.54
433.39	2910.16
433.59	3176.40
433.80	3704.78
434.00	3198.93
434.21	3059.67
434.41	3057.62
434.62	3700.68
434.82	2871.25
435.03	2928.60
435.23	3340.24
435.44	3035.09
435.64	3016.66
435.85	3137.49
436.06	3403.72
436.26	3438.54
436.47	3080.14
436.67	2981.84
436.88	3254.22
437.08	3530.70
437.29	3225.55
437.49	3198.93
437.70	3565.51
437.90	3223.50
438.11	3252.17
438.31	3176.40
438.52	3520.46
438.72	3463.12
438.93	3397.58
439.13	3207.12
439.34	3467.21
439.54	3174.35
439.75	3114.96
439.95	3137.49
440.16	3055.57
440.36	3270.61
440.57	3067.86
440.77	3082.19
440.98	3190.74
441.18	3344.33
441.39	2951.12
441.59	2879.44
441.80	3680.20
442.00	3258.32
442.21	3205.07
442.41	2918.36
442.62	3487.69
442.82	3151.82
443.02	3065.81
443.23	3102.67
443.43	3200.98
443.64	3542.99
443.84	2875.35
444.05	3123.15
444.25	3387.34
444.46	3213.26
444.66	2951.12
444.87	3305.42
445.07	2930.64
445.28	3250.13
445.48	3254.22
445.69	3143.63
445.89	3909.57
446.09	3205.07
446.30	3387.34
446.50	3403.72
446.71	5175.22
446.91	6330.27
447.12	7352.21
447.32	7745.42
447.53	7720.84
447.73	6551.45
447.93	5631.91
448.14	5408.69
448.34	5412.78
448.55	4495.29
448.75	4515.77
448.96	4274.11
449.16	4095.94
449.36	3991.49
449.57	3332.05
449.77	3098.58
449.98	3211.22
450.18	3420.11
450.39	2971.60
450.59	3270.61
450.79	3342.28
451.00	3160.02
451.20	3282.89
451.41	3045.33
451.61	3379.15
451.81	3196.88
452.02	2983.89
452.22	3067.86
452.43	3198.93
452.63	3092.43
452.84	3026.90
453.04	2949.08
453.24	3264.46
453.45	3096.53
453.65	3045.33
453.86	3108.82
454.06	3311.57
454.26	3286.99
454.47	2969.55
454.67	3205.07
454.87	3366.86
455.08	3211.22
455.28	3194.83
455.49	3194.83
455.69	3108.82
455.89	3749.83
456.10	3168.21
456.30	2947.03
456.51	3422.16
456.71	3344.33
456.91	3110.86
457.12	3123.15
457.32	3293.13
457.52	3057.62
457.73	3299.28
457.93	3295.18
458.14	3141.58
458.34	2953.17
458.54	3069.91
458.75	2971.60
458.95	3497.93
459.15	3446.73
459.36	3131.34
459.56	3133.39
459.76	3766.21
459.97	3200.98
460.17	3028.95
460.37	3114.96
460.58	3317.71
460.78	3403.72
460.99	3078.10
461.19	3082.19
461.39	3188.69
461.60	3162.06
461.80	3067.86
462.00	2983.89
462.21	3332.05
462.41	3166.16
462.61	2875.35
462.82	2852.82
463.02	3360.72
463.22	3262.41
463.43	3061.71
463.63	2936.79
463.83	3440.59
464.04	3403.72
464.24	3033.04
464.44	3008.47
464.64	3307.47
464.85	3471.31
465.05	3082.19
465.25	3057.62
465.46	3239.89
465.66	3450.83
465.86	3153.87
466.07	3086.29
466.27	3205.07
466.47	3082.19
466.68	2947.03
466.88	3123.15
467.08	3413.96
467.29	3532.75
467.49	3035.09
467.69	3184.59
467.89	3381.20
468.10	3209.17
468.30	3164.11
468.50	3207.12
468.71	3442.64
468.91	2961.36
469.11	3225.55
469.31	3100.62
469.52	3074.00
469.72	3635.14
469.92	3311.57
470.13	3053.52
470.33	3307.47
470.53	3327.95
470.73	3491.79
470.94	3870.66
471.14	4155.33
471.34	4810.68
471.54	4345.79
471.75	3995.59
471.95	3811.27
472.15	3731.40
472.36	3766.21
472.56	3506.12
472.76	3882.95
472.96	3665.86
473.17	3401.68
473.37	3241.93
473.57	3313.61
473.77	3446.73
473.98	3205.07
474.18	2897.88
474.38	4026.31
474.58	3182.54
474.79	2830.29
474.99	3172.30
475.19	3512.27
475.39	3147.73
475.60	3180.50
475.80	3084.24
476.00	3323.85
476.20	3223.50
476.41	3112.91
476.61	3190.74
476.81	3606.47
477.01	3108.82
477.21	3350.48
477.42	3246.03
477.62	3133.39
477.82	3569.61
478.02	3059.67
478.23	3088.34
478.43	3090.38
478.63	3174.35
478.83	3129.30
479.03	3176.40
479.24	3598.28
479.44	3678.15
479.64	2955.22
479.84	2947.03
480.04	3131.34
480.25	3438.54
480.45	2996.18
480.65	2973.65
480.85	3616.71
481.06	3131.34
481.26	3121.10
481.46	3016.66
481.66	3342.28
481.86	3157.97
482.06	3268.56
482.27	3135.44
482.47	3221.45
482.67	3418.06
482.87	3098.58
483.07	3170.26
483.28	3194.83
483.48	2996.18
483.68	3078.10
483.88	3006.42
484.08	2867.16
484.29	3035.09
484.49	3086.29
484.69	2818.00
484.89	3604.42
485.09	3418.06
485.29	3024.85
485.50	3229.65
485.70	3145.68
485.90	3479.50
486.10	3248.08
486.30	3008.47
486.50	3514.31
486.71	3368.91
486.91	3082.19
487.11	3188.69
487.31	2994.13
487.51	3413.96
487.71	3059.67
487.91	2977.75
488.12	3086.29
488.32	2854.87
488.52	3063.76
488.72	2795.48
488.92	3330.00
489.12	3506.12
489.32	3182.54
489.53	3063.76
489.73	2983.89
489.93	3577.80
490.13	2985.94
490.33	2928.60
490.53	3278.80
490.73	3497.93
490.94	2912.21
491.14	3160.02
491.34	3407.82
491.54	3467.21
491.74	3977.16
491.94	4589.50
492.14	5164.98
492.34	5121.97
492.54	4792.25
492.75	4122.56
492.95	4364.22
493.15	3983.30
493.35	3831.75
493.55	3725.26
493.75	3682.25
493.95	3821.51
494.15	3327.95
494.35	3139.54
494.56	3321.81
494.76	3098.58
494.96	3223.50
495.16	3092.43
495.36	3321.81
495.56	3307.47
495.76	3112.91
495.96	3004.37
496.16	3074.00
496.36	3641.29
496.56	3037.14
496.77	3151.82
496.97	3278.80
497.17	3598.28
497.37	2977.75
497.57	3162.06
497.77	3272.65
497.97	3016.66
498.17	3119.06
498.37	3080.14
498.57	3413.96
498.77	3200.98
498.97	3157.97
499.17	3336.14
499.38	3262.41
499.58	3354.57
499.78	3291.09
499.98	3260.37
500.18	3123.15
500.38	3119.06
500.58	3297.23
500.78	3682.25
500.98	6227.87
501.18	8265.60
501.38	9727.85
501.58	10930.01
501.78	10925.91
501.98	8963.96
502.18	7595.92
502.38	6518.68
502.58	6459.29
502.78	5758.89
502.98	5445.55
503.18	5164.98
503.38	4886.45
503.59	4188.10
503.79	4097.99
503.99	3760.07
504.19	3971.01
504.39	3903.43
504.59	3762.12
504.79	3608.52
504.99	4024.26
505.19	3565.51
505.39	3313.61
505.59	3499.98
505.79	3700.68
505.99	3481.55
506.19	3106.77
506.39	3473.36
506.59	3190.74
506.79	3221.45
506.99	3346.38
507.19	3059.67
507.39	3262.41
507.59	2957.27
507.79	3125.20
507.99	2977.75
508.19	3321.81
508.39	3174.35
508.59	3117.01
508.79	3180.50
508.99	3686.34
509.19	3106.77
509.39	3200.98
509.59	2953.17
509.79	3155.92
509.99	3325.90
510.19	3227.60
510.39	3137.49
510.59	3309.52
510.79	3176.40
510.99	2914.26
511.19	2992.08
511.39	3649.48
511.59	3506.12
511.79	3205.07
511.99	3057.62
512.19	3678.15
512.38	3262.41
512.58	3067.86
512.78	3002.32
512.98	3461.07
513.18	3653.58
513.38	2953.17
513.58	3160.02
513.78	3260.37
513.98	3289.04
514.18	3059.67
514.38	3094.48
514.58	3364.81
514.78	3170.26
514.98	3033.04
515.18	3002.32
515.38	3041.23
515.58	3596.23
515.78	3049.43
515.98	3145.68
516.18	3352.52
516.38	3252.17
516.57	2981.84
516.77	2965.46
516.97	3426.25
517.17	3176.40
517.37	2777.05
517.57	3162.06
517.77	3223.50
517.97	3127.25
518.17	3059.67
518.37	2936.79
518.57	3141.58
518.77	3209.17
518.97	3110.86
519.16	3139.54
519.36	3545.03
519.56	3110.86
519.76	2990.03
519.96	3135.44
520.16	3522.51
520.36	3069.91
520.56	3299.28
520.76	2942.93
520.96	3250.13
521.16	3420.11
521.35	3239.89
521.55	3174.35
521.75	3311.57
521.95	3190.74
522.15	3022.80
522.35	2942.93
522.55	3102.67
522.75	3459.02
522.95	2990.03
523.14	2871.25
523.34	3389.39
523.54	3108.82
523.74	3088.34
523.94	3127.25
524.14	3004.37
524.34	3317.71
524.54	3250.13
524.73	3098.58
524.93	3297.23
525.13	3389.39
525.33	2910.16
525.53	3264.46
525.73	3403.72
525.93	3270.61
526.13	3039.19
526.32	3033.04
526.52	3506.12
526.72	3399.63
526.92	3037.14
527.12	2928.60
527.32	3010.51
527.52	3373.00
527.71	3131.34
527.91	3065.81
528.11	3227.60
528.31	3215.31
528.51	3010.51
528.71	3157.97
528.90	3346.38
529.10	3463.12
529.30	3114.96
529.50	2832.34
529.70	3258.32
529.90	3260.37
530.09	3123.15
530.29	2922.45
530.49	3137.49
530.69	3936.20
530.89	3266.51
531.09	3153.87
531.28	3219.41
531.48	3516.36
531.68	3086.29
531.88	3080.14
532.08	3405.77
532.28	3133.39
532.47	3110.86
532.67	3135.44
532.87	3506.12
533.07	3039.19
533.27	3137.49
533.46	3131.34
533.66	3356.62
533.86	3248.08
534.06	3084.24
534.26	2996.18
534.45	3256.27
534.65	3497.93
534.85	3209.17
535.05	3024.85
535.25	3418.06
535.44	2930.64
535.64	3102.67
535.84	3094.48
536.04	3139.54
536.24	3139.54
536.43	2961.36
536.63	2983.89
536.83	3289.04
537.03	3264.46
537.22	2803.67
537.42	2813.91
537.62	3379.15
537.82	3133.39
538.02	3254.22
538.21	3168.21
538.41	3835.85
538.61	3389.39
538.81	3071.95
539.00	3131.34
539.20	2928.60
539.40	3141.58
539.60	2979.79
539.79	3274.70
539.99	3330.00
540.19	3143.63
540.39	2994.13
540.58	3090.38
540.78	3532.75
540.98	3215.31
541.18	3239.89
541.37	3155.92
541.57	3299.28
541.77	3352.52
541.97	3033.04
542.16	2947.03
542.36	3168.21
542.56	3200.98
542.76	3280.85
542.95	3149.78
543.15	3325.90
543.35	3444.68
543.54	2942.93
543.74	3004.37
543.94	3606.47
544.14	3192.78
544.33	3151.82
544.53	3092.43
544.73	3262.41
544.93	3170.26
545.12	3024.85
545.32	3059.67
545.52	3272.65
545.71	3012.56
545.91	3006.42
546.11	3043.28
546.30	3016.66
546.50	3250.13
546.70	3043.28
546.90	3053.52
547.09	2932.69
547.29	3241.93
547.49	3260.37
547.68	3043.28
547.88	3086.29
548.08	3344.33
548.27	3360.72
548.47	3016.66
548.67	3137.49
548.87	3366.86
549.06	3014.61
549.26	2969.55
549.46	3317.71
549.65	3176.40
549.85	3104.72
550.05	3057.62
550.24	2973.65
550.44	3293.13
550.64	3104.72
550.83	3131.34
551.03	3581.90
551.23	3538.89
551.42	3166.16
551.62	3151.82
551.82	3291.09
552.01	3254.22
552.21	3315.66
552.41	3135.44
552.60	3540.94
552.80	3313.61
553.00	3078.10
553.19	3108.82
553.39	3592.14
553.59	2994.13
553.78	3207.12
553.98	2975.70
554.17	3098.58
554.37	3426.25
554.57	3127.25
554.76	2893.78
554.96	3182.54
555.16	3362.76
555.35	3168.21
555.55	3246.03
555.75	3338.19
555.94	3424.20
556.14	2838.48
556.33	3053.52
556.53	3237.84
556.73	3252.17
556.92	3033.04
557.12	3035.09
557.32	3655.62
557.51	3528.65
557.71	3090.38
557.90	3256.27
558.10	3497.93
558.30	3266.51
558.49	3090.38
558.69	3008.47
558.88	3397.58
559.08	3346.38
559.28	3155.92
559.47	3092.43
559.67	3424.20
559.86	3676.10
560.06	3039.19
560.26	3104.72
560.45	3340.24
560.65	3260.37
560.84	3397.58
561.04	2983.89
561.24	3291.09
561.43	3004.37
561.63	3190.74
561.82	3188.69
562.02	3327.95
562.22	3016.66
562.41	3028.95
562.61	3043.28
562.80	3112.91
563.00	3860.42
563.19	3143.63
563.39	3100.62
563.59	3409.87
563.78	3002.32
563.98	2795.48
564.17	3016.66
564.37	2975.70
564.56	3278.80
564.76	2955.22
564.96	3172.30
565.15	3420.11
565.35	3780.55
565.54	3045.33
565.74	3065.81
565.93	3411.92
566.13	3286.99
566.32	3135.44
566.52	3176.40
566.71	3323.85
566.91	3469.26
567.11	3174.35
567.30	2979.79
567.50	3411.92
567.69	3362.76
567.89	3074.00
568.08	2934.74
568.28	3321.81
568.47	3086.29
568.67	3049.43
568.86	3061.71
569.06	3426.25
569.25	3209.17
569.45	2852.82
569.64	3117.01
569.84	3184.59
570.04	3319.76
570.23	3069.91
570.43	3108.82
570.62	3266.51
570.82	3536.84
571.01	2994.13
571.21	3024.85
571.40	3125.20
571.60	3416.01
571.79	3119.06
571.99	3024.85
572.18	3117.01
572.38	3358.67
572.57	3141.58
572.77	3074.00
572.96	3739.59
573.16	3305.42
573.35	3061.71
573.55	3205.07
573.74	3266.51
573.94	3129.30
574.13	3065.81
574.33	3246.03
574.52	3549.13
574.71	3237.84
574.91	3108.82
575.10	2906.07
575.30	3094.48
575.49	3157.97
575.69	3037.14
575.88	3076.05
576.08	3254.22
576.27	3522.51
576.47	3063.76
576.66	3284.94
576.86	3557.32
577.05	3307.47
577.25	3125.20
577.44	3301.33
577.64	3157.97
577.83	3459.02
578.02	3057.62
578.22	3205.07
578.41	3637.19
578.61	3299.28
578.80	2869.20
579.00	3096.53
579.19	3313.61
579.39	3387.34
579.58	3190.74
579.77	3133.39
579.97	3538.89
580.16	3497.93
580.36	3254.22
580.55	3215.31
580.75	3393.48
580.94	3241.93
581.13	3227.60
581.33	3272.65
581.52	3221.45
581.72	3624.90
581.91	3184.59
582.11	3069.91
582.30	3475.40
582.49	3280.85
582.69	3340.24
582.88	3133.39
583.08	3264.46
583.27	3416.01
583.47	3209.17
583.66	3067.86
583.85	3092.43
584.05	3227.60
584.24	3184.59
584.44	3061.71
584.63	3418.06
584.82	3538.89
585.02	3344.33
585.21	3147.73
585.41	3463.12
585.60	3381.20
585.79	3330.00
585.99	3340.24
586.18	3338.19
586.37	4337.60
586.57	6311.84
586.76	18083.56
586.96	37621.19
587.15	51131.64
587.34	59767.92
587.54	63407.16
587.73	57040.03
587.93	40590.74
588.12	31397.41
588.31	25841.27
588.51	22576.81
588.70	21141.18
588.89	18409.19
589.09	15855.37
589.28	13504.31
589.47	10848.09
589.67	8173.44
589.86	6463.39
590.06	5072.82
590.25	4448.19
590.44	3911.62
590.64	3518.41
590.83	3542.99
591.02	3524.55
591.22	3041.23
591.41	3221.45
591.60	3268.56
591.80	3794.89
591.99	2899.92
592.18	3033.04
592.38	3399.63
592.57	3125.20
592.76	2983.89
592.96	3094.48
593.15	3305.42
593.34	3508.17
593.54	3080.14
593.73	3172.30
593.92	3475.40
594.12	3491.79
594.31	3184.59
594.50	3192.78
594.70	3385.29
594.89	3852.23
595.08	2895.83
595.28	3155.92
595.47	3966.92
595.66	3516.36
595.86	2973.65
596.05	2889.68
596.24	3176.40
596.43	3540.94
596.63	3184.59
596.82	3289.04
597.01	3350.48
597.21	3641.29
597.40	3098.58
597.59	3160.02
597.79	3258.32
597.98	3456.97
598.17	3096.53
598.36	3049.43
598.56	3475.40
598.75	3268.56
598.94	3155.92
599.14	3106.77
599.33	3221.45
599.52	3448.78
599.71	3131.34
599.91	3028.95
600.10	3485.64
600.29	3291.09
600.48	3125.20
600.68	3147.73
600.87	3405.77
601.06	3114.96
601.26	3190.74
601.45	3178.45
601.64	3157.97
601.83	3553.23
602.03	3000.27
602.22	2994.13
602.41	3481.55
602.60	3811.27
602.80	3209.17
602.99	3248.08
603.18	3205.07
603.37	3291.09
603.57	3041.23
603.76	3037.14
603.95	3461.07
604.14	3239.89
604.34	3043.28
604.53	3024.85
604.72	3286.99
604.91	3409.87
605.10	3117.01
605.30	2942.93
605.49	3780.55
605.68	3504.07
605.87	3059.67
606.07	2987.99
606.26	3213.26
606.45	3395.53
606.64	3147.73
606.84	3020.75
607.03	3270.61
607.22	3473.36
607.41	3160.02
607.60	3012.56
607.80	3561.42
607.99	3270.61
608.18	3125.20
608.37	3139.54
608.56	3147.73
608.76	3534.79
608.95	3237.84
609.14	3078.10
609.33	3475.40
609.52	3559.37
609.72	3217.36
609.91	3205.07
610.10	3317.71
610.29	3604.42
610.48	3153.87
610.68	3188.69
610.87	3262.41
611.06	3493.83
611.25	3100.62
611.44	3192.78
611.63	3186.64
611.83	3561.42
612.02	2987.99
612.21	3184.59
612.40	2897.88
612.59	2992.08
612.79	2951.12
612.98	3205.07
613.17	3608.52
613.36	3211.22
613.55	3205.07
613.74	3213.26
613.93	3344.33
614.13	3420.11
614.32	3342.28
614.51	3180.50
614.70	3295.18
614.89	3278.80
615.08	3133.39
615.28	3526.60
615.47	3098.58
615.66	3409.87
615.85	3139.54
616.04	3166.16
616.23	3280.85
616.42	3260.37
616.62	3110.86
616.81	3117.01
617.00	3319.76
617.19	3377.10
617.38	3112.91
617.57	3108.82
617.76	3364.81
617.95	3416.01
618.15	3215.31
618.34	3309.52
618.53	3088.34
618.72	3491.79
618.91	3180.50
619.10	3084.24
619.29	3227.60
619.48	3342.28
619.68	3016.66
619.87	3028.95
620.06	2938.84
620.25	3516.36
620.44	2992.08
620.63	3065.81
620.82	3305.42
621.01	3301.33
621.20	3153.87
621.39	3141.58
621.59	3311.57
621.78	3311.57
621.97	3135.44
622.16	3311.57
622.35	3307.47
622.54	3524.55
622.73	3190.74
622.92	2947.03
623.11	3590.09
623.30	3233.74
623.49	3182.54
623.68	2981.84
623.88	3565.51
624.07	3203.02
624.26	2996.18
624.45	3041.23
624.64	3147.73
624.83	3385.29
625.02	3123.15
625.21	3155.92
625.40	3235.79
625.59	3600.33
625.78	3194.83
625.97	3260.37
626.16	3467.21
626.35	3487.69
626.54	3131.34
626.74	3315.66
626.93	3291.09
627.12	3231.69
627.31	3188.69
627.50	3043.28
627.69	3512.27
627.88	3102.67
628.07	2998.23
628.26	2871.25
628.45	3182.54
628.64	3160.02
628.83	3004.37
629.02	2883.54
629.21	3340.24
629.40	3354.57
629.59	3012.56
629.78	3047.38
629.97	3305.42
630.16	3276.75
630.35	3000.27
630.54	3192.78
630.73	3151.82
630.92	3280.85
631.11	3088.34
631.30	3141.58
631.49	3495.88
631.68	3286.99
631.87	3170.26
632.06	2996.18
632.25	3827.65
632.44	3241.93
632.63	3104.72
632.82	3096.53
633.01	3196.88
633.20	3303.37
633.39	3123.15
633.58	2994.13
633.77	3358.67
633.96	3360.72
634.15	3239.89
634.34	3176.40
634.53	3405.77
634.72	3117.01
634.91	2969.55
635.10	3114.96
635.29	3528.65
635.48	3360.72
635.67	2883.54
635.86	3080.14
636.05	3555.27
636.24	3307.47
636.43	3018.71
636.62	3246.03
636.81	2811.86
637.00	3241.93
637.19	3121.10
637.38	3084.24
637.57	3143.63
637.76	3291.09
637.95	3289.04
638.14	3217.36
638.33	3354.57
638.52	3307.47
638.71	2969.55
638.89	2983.89
639.08	3727.30
639.27	3522.51
639.46	3362.76
639.65	3694.54
639.84	3901.38
640.03	4038.59
640.22	3768.26
640.41	3633.10
640.60	3440.59
640.79	3573.71
640.98	3327.95
641.17	3377.10
641.36	3512.27
641.55	3495.88
641.74	2947.03
641.92	2957.27
642.11	3274.70
642.30	3274.70
642.49	3006.42
642.68	3059.67
642.87	3295.18
643.06	3389.39
643.25	2983.89
643.44	3035.09
643.63	3278.80
643.82	3467.21
644.00	2992.08
644.19	3045.33
644.38	3143.63
644.57	3434.44
644.76	3119.06
644.95	3104.72
645.14	3393.48
645.33	3227.60
645.52	3133.39
645.71	2910.16
645.89	3051.47
646.08	3182.54
646.27	3010.51
646.46	3250.13
646.65	3108.82
646.84	3276.75
647.03	2965.46
647.22	3250.13
647.40	3354.57
647.59	3246.03
647.78	2867.16
647.97	3043.28
648.16	3078.10
648.35	3549.13
648.54	3336.14
648.73	3078.10
648.91	3426.25
649.10	3280.85
649.29	2977.75
649.48	3000.27
649.67	3432.40
649.86	3286.99
650.05	3110.86
650.23	3338.19
650.42	3149.78
650.61	3598.28
650.80	3282.89
650.99	3336.14
651.18	3502.03
651.36	3516.36
651.55	3084.24
651.74	3184.59
651.93	3186.64
652.12	3303.37
652.31	3094.48
652.49	3133.39
652.68	3221.45
652.87	3524.55
653.06	3248.08
653.25	3395.53
653.44	3284.94
653.62	3643.34
653.81	3125.20
654.00	3123.15
654.19	3383.24
654.38	3778.50
654.56	3188.69
654.75	2928.60
654.94	3479.50
655.13	3313.61
655.32	3076.05
655.51	3065.81
655.69	3194.83
655.88	3475.40
656.07	2985.94
656.26	3074.00
656.45	3037.14
656.63	3268.56
656.82	3051.47
657.01	3286.99
657.20	3178.45
657.38	3542.99
657.57	2977.75
657.76	2924.50
657.95	3368.91
658.14	3139.54
658.32	3235.79
658.51	3008.47
658.70	3289.04
658.89	3377.10
659.08	3106.77
659.26	3272.65
659.45	3035.09
659.64	3389.39
659.83	3114.96
660.01	3407.82
660.20	3342.28
660.39	3545.03
660.58	2772.95
660.76	3200.98
660.95	2959.31
661.14	3348.43
661.33	2824.15
661.51	3088.34
661.70	3166.16
661.89	3385.29
662.08	3059.67
662.26	2873.30
662.45	3119.06
662.64	3594.19
662.83	3170.26
663.01	2967.51
663.20	3065.81
663.39	3540.94
663.58	3055.57
663.76	3080.14
663.95	3336.14
664.14	3084.24
664.32	3117.01
664.51	2940.88
664.70	2893.78
664.89	3383.24
665.07	2928.60
665.26	3117.01
665.45	2955.22
665.64	3383.24
665.82	3043.28
666.01	3213.26
666.20	3000.27
666.38	3422.16
666.57	3497.93
666.76	5560.24
666.95	13068.09
667.13	20719.30
667.32	25087.62
667.51	28446.29
667.69	29210.18
667.88	24608.39
668.07	17493.75
668.25	15017.75
668.44	13039.42
668.63	11192.15
668.81	9822.06
669.00	8507.26
669.19	7726.99
669.38	6848.41
669.56	5719.98
669.75	5031.86
669.94	4530.11
670.12	3860.42
670.31	3440.59
670.50	3446.73
670.68	3459.02
670.87	3397.58
671.06	3149.78
671.24	3198.93
671.43	3571.66
671.62	3348.43
671.80	3149.78
671.99	3211.22
672.18	3325.90
672.36	3432.40
672.55	3188.69
672.74	3205.07
672.92	3221.45
673.11	3432.40
673.29	2942.93
673.48	3196.88
673.67	3278.80
673.85	3446.73
674.04	2979.79
674.23	3024.85
674.41	3672.01
674.60	3057.62
674.79	2861.01
674.97	2932.69
675.16	3446.73
675.34	3545.03
675.53	2979.79
675.72	3157.97
675.90	3604.42
676.09	3264.46
676.28	3166.16
676.46	2926.55
676.65	3352.52
676.83	3196.88
677.02	3160.02
677.21	3108.82
677.39	3401.68
677.58	3190.74
677.77	3026.90
677.95	2959.31
678.14	3227.60
678.32	3139.54
678.51	3074.00
678.70	3418.06
678.88	3196.88
679.07	3330.00
679.25	3047.38
679.44	3129.30
679.63	3041.23
679.81	3340.24
680.00	3327.95
680.18	3090.38
680.37	3600.33
680.55	3286.99
680.74	2955.22
680.93	2779.09
681.11	3350.48
681.30	3276.75
681.48	3006.42
681.67	3078.10
681.85	3370.96
682.04	3108.82
682.23	3272.65
682.41	3284.94
682.60	3239.89
682.78	3229.65
682.97	2994.13
683.15	3194.83
683.34	3313.61
683.53	3504.07
683.71	2944.98
683.90	3123.15
684.08	3663.82
684.27	3260.37
684.45	3192.78
684.64	3205.07
684.82	3278.80
685.01	3436.49
685.19	3092.43
685.38	3348.43
685.57	3280.85
685.75	3131.34
685.94	3041.23
686.12	2990.03
686.31	3188.69
686.49	3626.95
686.68	2887.64
686.86	3176.40
687.05	3260.37
687.23	3610.57
687.42	2971.60
687.60	2867.16
687.79	3504.07
687.97	3643.34
688.16	3229.65
688.34	3327.95
688.53	2983.89
688.71	3409.87
688.90	3430.35
689.08	3086.29
689.27	2975.70
689.45	3411.92
689.64	3217.36
689.82	3133.39
690.01	3459.02
690.19	3366.86
690.38	3196.88
690.56	3196.88
690.75	3143.63
690.93	3239.89
691.12	2990.03
691.30	3084.24
691.49	3182.54
691.67	3264.46
691.86	3405.77
692.04	3069.91
692.23	3237.84
692.41	3282.89
692.60	3422.16
692.78	3266.51
692.97	3225.55
693.15	3434.44
693.34	3323.85
693.52	3299.28
693.71	3198.93
693.89	3139.54
694.08	2912.21
694.26	3229.65
694.44	3442.64
694.63	3416.01
694.81	3022.80
695.00	3088.34
695.18	3473.36
695.37	3766.21
695.55	3164.11
695.74	3104.72
695.92	3092.43
696.10	3526.60
696.29	2965.46
696.47	3071.95
696.66	3051.47
696.84	3045.33
697.03	3205.07
697.21	3332.05
697.40	4730.81
697.58	3540.94
697.76	3055.57
697.95	3106.77
698.13	3037.14
698.32	3119.06
698.50	3114.96
698.68	3082.19
698.87	3315.66
699.05	3637.19
699.24	3074.00
699.42	2985.94
699.61	3393.48
699.79	3330.00
699.97	3069.91
700.16	2955.22
700.34	2994.13
700.53	3377.10
700.71	3282.89
700.89	3215.31
701.08	3149.78
701.26	3303.37
701.45	3475.40
701.63	3114.96
701.81	3133.39
702.00	3090.38
702.18	3170.26
702.37	3082.19
702.55	3581.90
702.73	3354.57
702.92	3143.63
703.10	3493.83
703.28	3389.39
703.47	3092.43
703.65	3344.33
703.84	3205.07
704.02	3192.78
704.20	3610.57
704.39	3059.67
704.57	3123.15
704.75	3418.06
704.94	3493.83
705.12	3360.72
705.30	4032.45
705.49	8898.42
705.67	17737.46
705.86	24106.64
706.04	27651.67
706.22	30441.01
706.41	29081.16
706.59	21923.51
706.77	17196.79
706.96	14683.94
707.14	13483.83
707.32	11386.71
707.51	10020.71
707.69	8185.73
707.87	6686.62
708.06	5285.81
708.24	4517.82
708.42	4229.06
708.61	4222.91
708.79	3286.99
708.97	3256.27
709.16	3397.58
709.34	3332.05
709.52	3094.48
709.71	3123.15
709.89	3442.64
710.07	3155.92
710.26	2928.60
710.44	3123.15
710.62	3467.21
710.80	3241.93
710.99	3207.12
711.17	3205.07
711.35	3139.54
711.54	3223.50
711.72	3284.94
711.90	3209.17
712.09	3469.26
712.27	3172.30
712.45	3289.04
712.63	3055.57
712.82	3301.33
713.00	3258.32
713.18	3217.36
713.37	3278.80
713.55	3459.02
713.73	3467.21
713.91	3151.82
714.10	3053.52
714.28	3176.40
714.46	3282.89
714.65	3196.88
714.83	3184.59
715.01	3246.03
715.19	3289.04
715.38	3082.19
715.56	3241.93
715.74	3110.86
715.92	3088.34
716.11	3467.21
716.29	2906.07
716.47	3321.81
716.65	3233.74
716.84	2938.84
717.02	3239.89
717.20	2926.55
717.38	3153.87
717.57	3151.82
717.75	3114.96
717.93	3166.16
718.11	3411.92
718.30	2987.99
718.48	3139.54
718.66	3538.89
718.84	3483.59
719.03	3149.78
719.21	3028.95
719.39	3653.58
719.57	3428.30
719.75	3160.02
719.94	3049.43
720.12	3246.03
720.30	3295.18
720.48	3160.02
720.67	3000.27
720.85	3092.43
721.03	3151.82
721.21	3008.47
721.39	3160.02
721.58	3413.96
721.76	3278.80
721.94	3198.93
722.12	3211.22
722.30	3618.76
722.49	3117.01
722.67	3037.14
722.85	3106.77
723.03	2944.98
723.21	3139.54
723.40	3147.73
723.58	3325.90
723.76	3411.92
723.94	3549.13
724.12	3131.34
724.30	3377.10
724.49	3534.79
724.67	3016.66
724.85	3205.07
725.03	2957.27
725.21	3418.06
725.40	3502.03
725.58	3174.35
725.76	3319.76
725.94	3475.40
726.12	3082.19
726.30	3213.26
726.49	3055.57
726.67	3200.98
726.85	3440.59
727.03	3958.72
727.21	5633.96
727.39	7350.16
727.57	7958.41
727.76	8470.40
727.94	8562.56
728.12	7278.48
728.30	6076.32
728.48	5744.55
728.66	5175.22
728.84	4806.58
729.03	4163.52
729.21	3864.52
729.39	3678.15
729.57	3403.72
729.75	3434.44
729.93	3405.77
730.11	3049.43
730.30	3137.49
730.48	3219.41
730.66	3100.62
730.84	3160.02
731.02	3297.23
731.20	3149.78
731.38	3143.63
731.56	3016.66
731.74	3063.76
731.93	3381.20
732.11	3258.32
732.29	3117.01
732.47	3340.24
732.65	3352.52
732.83	3315.66
733.01	3219.41
733.19	3127.25
733.37	3416.01
733.56	3176.40
733.74	3016.66
733.92	3559.37
734.10	3198.93
734.28	3270.61
734.46	2934.74
734.64	3182.54
734.82	3147.73
735.00	3026.90
735.18	3063.76
735.36	3280.85
735.54	3219.41
735.73	3057.62
735.91	3233.74
736.09	3647.43
736.27	3272.65
736.45	3135.44
736.63	2889.68
736.81	3342.28
736.99	3387.34
737.17	3266.51
737.35	3074.00
737.53	3305.42
737.71	3215.31
737.89	3262.41
738.07	3051.47
738.25	3149.78
738.43	2981.84
738.61	3121.10
738.80	3037.14
738.98	3037.14
739.16	3133.39
739.34	2967.51
739.52	3385.29
739.70	3268.56
739.88	3370.96
740.06	3239.89
740.24	2811.86
740.42	3512.27
740.60	2985.94
740.78	3076.05
740.96	2889.68
741.14	3289.04
741.32	3338.19
741.50	2944.98
741.68	3327.95
741.86	3436.49
742.04	3127.25
742.22	2990.03
742.40	3080.14
742.58	3385.29
742.76	3121.10
742.94	3338.19
743.12	2910.16
743.30	3379.15
743.48	3325.90
743.66	2983.89
743.84	3119.06
744.02	3137.49
744.20	3229.65
744.38	3016.66
744.56	3010.51
744.74	3577.80
744.92	3364.81
745.10	3319.76
745.28	3076.05
745.46	3557.32
745.64	3264.46
745.82	3141.58
746.00	3127.25
746.18	3346.38
746.36	3063.76
746.54	3147.73
746.72	3145.68
746.90	3043.28
747.08	3506.12
747.26	3051.47
747.44	3166.16
747.62	3360.72
747.80	3336.14
747.98	3196.88
748.15	3067.86
748.33	3620.81
748.51	3250.13
748.69	3139.54
748.87	3004.37
749.05	3225.55
749.23	3225.55
749.41	3129.30
749.59	3090.38
749.77	3436.49
749.95	3112.91
750.13	2987.99
750.31	3239.89
750.49	3229.65
750.67	3450.83
750.85	3207.12
751.03	3069.91
751.20	3770.31
751.38	3358.67
751.56	3080.14
751.74	3123.15
751.92	3135.44
752.10	3063.76
752.28	3246.03
752.46	3119.06
752.64	3297.23
752.82	3243.98
753.00	3180.50
753.18	3033.04
753.35	3125.20
753.53	3196.88
753.71	3078.10
753.89	3131.34
754.07	3413.96
754.25	3393.48
754.43	3188.69
754.61	2987.99
754.79	3438.54
754.97	3278.80
755.14	3264.46
755.32	2992.08
755.50	3274.70
755.68	3330.00
755.86	3016.66
756.04	3108.82
756.22	2881.49
756.40	3475.40
756.57	3303.37
756.75	3020.75
756.93	3467.21
757.11	3456.97
757.29	2996.18
757.47	3016.66
757.65	2996.18
757.82	2865.11
758.00	3018.71
758.18	3112.91
758.36	3108.82
758.54	3622.86
758.72	2934.74
758.90	3241.93
759.07	3364.81
759.25	3092.43
759.43	3160.02
759.61	2918.36
759.79	4450.24
759.97	3452.88
760.15	3084.24
760.32	3094.48
760.50	3344.33
760.68	3542.99
760.86	2975.70
761.04	3262.41
761.22	3422.16
761.39	3252.17
761.57	3221.45
761.75	3088.34
761.93	3403.72
762.11	3250.13
762.28	3180.50
762.46	2942.93
762.64	3588.04
762.82	2912.21
763.00	2967.51
763.18	3276.75
763.35	3037.14
763.53	3364.81
763.71	3176.40
763.89	3000.27
764.07	3305.42
764.24	3252.17
764.42	3102.67
764.60	3043.28
764.78	3461.07
764.96	3393.48
765.13	3272.65
765.31	3045.33
765.49	3291.09
765.67	3096.53
765.84	3114.96
766.02	2975.70
766.20	2969.55
766.38	3389.39
766.56	3182.54
766.73	3188.69
766.91	3295.18
767.09	3250.13
767.27	3166.16
767.44	2953.17
767.62	3373.00
767.80	3278.80
767.98	3086.29
768.15	3049.43
768.33	3409.87
768.51	3416.01
768.69	3170.26
768.87	3114.96
769.04	3301.33
769.22	3864.52
769.40	3250.13
769.58	3278.80
769.75	3483.59
769.93	3450.83
770.11	3059.67
770.28	2965.46
770.46	3327.95
770.64	3348.43
770.82	3192.78
770.99	3016.66
771.17	3362.76
771.35	3200.98
771.53	3108.82
771.70	3069.91
771.88	3336.14
772.06	3295.18
772.23	2990.03
772.41	3203.02
772.59	3282.89
772.77	3129.30
772.94	3090.38
773.12	3164.11
773.30	3151.82
773.47	3370.96
773.65	2994.13
773.83	3215.31
774.01	3274.70
774.18	2885.59
774.36	3129.30
774.54	2992.08
774.71	3319.76
774.89	2944.98
775.07	2965.46
775.24	3084.24
775.42	3102.67
775.60	3655.62
775.78	2955.22
775.95	2990.03
776.13	2940.88
776.31	2936.79
776.48	3229.65
776.66	3282.89
776.84	3219.41
777.01	3006.42
777.19	3065.81
777.37	2979.79
777.54	3473.36
777.72	3717.06
777.90	3200.98
778.07	3006.42
778.25	3936.20
778.43	3520.46
778.60	2992.08
778.78	3188.69
778.96	3559.37
779.13	3041.23
779.31	3182.54
779.49	3207.12
779.66	3362.76
779.84	3188.69
780.01	3080.14
780.19	2985.94
780.37	3545.03
780.54	3481.55
780.72	2850.77
780.90	3065.81
781.07	3215.31
781.25	3076.05
781.43	3223.50
781.60	3049.43
781.78	3422.16
781.95	3313.61
782.13	3059.67
782.31	3043.28
782.48	2967.51
782.66	3215.31
782.83	3340.24
783.01	3221.45
783.19	3379.15
783.36	3196.88
783.54	2922.45
783.72	3098.58
783.89	3090.38
784.07	3321.81
784.24	3190.74
784.42	3225.55
784.60	3299.28
784.77	3336.14
784.95	2795.48
785.12	3061.71
785.30	3366.86
785.47	3092.43
785.65	2971.60
785.83	3121.10
786.00	3209.17
786.18	3375.05
786.35	2920.40
786.53	2936.79
786.71	3502.03
786.88	3301.33
787.06	3155.92
787.23	3172.30
787.41	3088.34
787.58	3225.55
787.76	2942.93
787.94	3104.72
788.11	3348.43
788.29	3035.09
788.46	3069.91
788.64	2953.17
788.81	3196.88
788.99	3096.53
789.16	3129.30
789.34	3143.63
789.52	3063.76
789.69	3207.12
789.87	2877.40
790.04	3084.24
790.22	3262.41
790.39	3796.93
790.57	2961.36
790.74	3082.19
790.92	3428.30
791.09	2955.22
791.27	3127.25
791.44	3129.30
791.62	3233.74
791.79	3348.43
791.97	3225.55
792.15	3438.54
792.32	3387.34
792.50	3436.49
792.67	3307.47
792.85	3319.76
793.02	3221.45
793.20	3227.60
793.37	2861.01
793.55	3024.85
793.72	3000.27
793.90	3461.07
794.07	3049.43
794.25	3016.66
794.42	3336.14
794.60	3151.82
794.77	3078.10
794.95	3233.74
795.12	3426.25
795.30	3309.52
795.47	2889.68
795.65	3469.26
795.82	3385.29
796.00	3155.92
796.17	3112.91
796.34	2885.59
796.52	3276.75
796.69	3395.53
796.87	3119.06
797.04	3155.92
797.22	3395.53
797.39	3237.84
797.57	3217.36
797.74	3129.30
797.92	3237.84
798.09	3174.35
798.27	3407.82
798.44	3002.32
798.62	3151.82
798.79	3385.29
798.96	3254.22
799.14	3108.82
799.31	3776.45
799.49	3327.95
799.66	3074.00
799.84	3117.01
800.01	2985.94
800.19	3270.61
800.36	2875.35
800.53	3076.05
800.71	3381.20
800.88	3669.96
801.06	3020.75
801.23	3047.38
801.41	3164.11
801.58	3176.40
801.75	3037.14
801.93	3143.63
802.10	3295.18
802.28	3172.30
802.45	3112.91
802.63	3082.19
802.80	3557.32
802.97	3248.08
803.15	3094.48
803.32	3024.85
803.50	3074.00
803.67	3055.57
803.84	2994.13
804.02	3178.45
804.19	3248.08
804.37	2820.05
804.54	2889.68
804.71	3098.58
804.89	3297.23
805.06	3090.38
805.24	2994.13
805.41	2930.64
805.58	3090.38
805.76	3817.41
805.93	3022.80
806.10	3155.92
806.28	3422.16
806.45	3233.74
806.63	3172.30
806.80	3143.63
806.97	3352.52
807.15	3276.75
807.32	3198.93
807.49	3145.68
807.67	2985.94
807.84	3426.25
808.01	2908.12
808.19	3303.37
808.36	3753.93
808.54	3170.26
808.71	2987.99
808.88	3147.73
809.06	3489.74
809.23	3497.93
809.40	3057.62
809.58	3012.56
809.75	3291.09
809.92	3069.91
810.10	3309.52
810.27	3135.44
810.44	3289.04
810.62	3440.59
810.79	3117.01
810.96	3102.67
811.14	3137.49
811.31	3377.10
811.48	3207.12
811.66	3131.34
811.83	3493.83
812.00	3456.97
812.18	3229.65
812.35	3409.87
812.52	3223.50
812.69	3174.35
812.87	3010.51
813.04	3008.47
813.21	3229.65
813.39	3086.29
813.56	3028.95
813.73	3315.66
813.91	2973.65
814.08	3223.50
814.25	3106.77
814.42	2918.36
814.60	3221.45
814.77	3299.28
814.94	3057.62
815.12	3094.48
815.29	3620.81
815.46	3143.63
815.63	3114.96
815.81	3090.38
815.98	3207.12
816.15	3311.57
816.33	3215.31
816.50	3053.52
816.67	3246.03
816.84	3264.46
817.02	3016.66
817.19	3057.62
817.36	3336.14
817.53	3348.43
817.71	3024.85
817.88	3049.43
818.05	3200.98
818.22	3174.35
818.40	3336.14
818.57	3123.15
818.74	3295.18
818.91	3237.84
819.09	3192.78
819.26	3162.06
819.43	3141.58
819.60	3049.43
819.78	3190.74
819.95	3086.29
820.12	3123.15
820.29	3465.16
820.47	3385.29
820.64	3043.28
820.81	3006.42
820.98	3119.06
821.15	3035.09
821.33	3237.84
821.50	3041.23
821.67	3436.49
821.84	3063.76
822.02	3074.00
822.19	3545.03
822.36	3141.58
822.53	2955.22
822.70	2934.74
822.88	3180.50
823.05	3540.94
823.22	3121.10
823.39	3084.24
823.56	3264.46
823.74	3614.66
823.91	2889.68
824.08	3037.14
824.25	3049.43
824.42	3581.90
824.60	2981.84
824.77	3225.55
824.94	3225.55
825.11	3360.72
825.28	2858.96
825.45	3213.26
825.63	3332.05
825.80	3043.28
825.97	3184.59
826.14	3135.44
826.31	2930.64
826.48	3352.52
826.66	2985.94
826.83	3043.28
827.00	3213.26
827.17	3086.29
827.34	3080.14
827.51	2920.40
827.69	3184.59
827.86	2975.70
828.03	3121.10
828.20	3123.15
828.37	3082.19
828.54	3379.15
828.71	3028.95
828.89	3237.84
829.06	3309.52
829.23	3549.13
829.40	3055.57
829.57	3010.51
829.74	3428.30
829.91	3200.98
830.09	2979.79
830.26	3231.69
830.43	3610.57
830.60	3223.50
830.77	3147.73
830.94	3338.19
831.11	3450.83
831.28	3157.97
831.46	3262.41
831.63	3045.33
831.80	3409.87
831.97	3049.43
832.14	3147.73
832.31	3014.61
832.48	3217.36
832.65	3377.10
832.82	3117.01
832.99	3123.15
833.17	3057.62
833.34	3647.43
833.51	3008.47
833.68	2885.59
833.85	3495.88
834.02	3139.54
834.19	3049.43
834.36	3047.38
834.53	3297.23
834.70	3409.87
834.87	3080.14
835.04	2891.73
835.22	3047.38
835.39	3203.02
835.56	2871.25
835.73	2971.60
835.90	3346.38
836.07	3035.09
836.24	2959.31
836.41	2934.74
836.58	3045.33
836.75	3461.07
836.92	2920.40
837.09	2854.87
837.26	3395.53
837.43	3327.95
837.60	2983.89
837.77	2912.21
837.94	3368.91
838.12	3542.99
838.29	2869.20
838.46	2738.13
838.63	3030.99
838.80	3520.46
838.97	2942.93
839.14	2863.06
839.31	3407.82
839.48	3385.29
839.65	2920.40
839.82	3078.10
839.99	3272.65
840.16	3297.23
840.33	2918.36
840.50	2955.22
840.67	3022.80
840.84	2838.48
841.01	2828.24
841.18	2848.72
841.35	3178.45
841.52	3364.81
841.69	3215.31
841.86	2942.93
842.03	3194.83
842.20	3475.40
842.37	2901.97
842.54	2985.94
842.71	3295.18
842.88	3045.33
843.05	2916.31
843.22	2942.93
843.39	3456.97
843.56	3239.89
843.73	2908.12
843.90	2959.31
844.07	3262.41
844.24	3432.40
844.41	3010.51
844.58	2961.36
844.75	3266.51
844.92	3311.57
845.09	3024.85
845.26	2832.34
845.43	3391.44
845.60	3164.11
845.77	3041.23
845.94	2983.89
846.10	3336.14
846.27	2983.89
846.44	2764.76
846.61	2734.04
846.78	3309.52
846.95	3465.16
847.12	2811.86
847.29	2957.27
847.46	3041.23
847.63	3444.68
847.80	2867.16
847.97	2992.08
848.14	3774.41
848.31	3229.65
848.48	2807.77
848.65	2871.25
848.82	3082.19
848.98	3815.37
849.15	3051.47
849.32	2996.18
849.49	3411.92
849.66	3194.83
849.83	2971.60
850.00	2838.48
850.17	3424.20
850.34	3221.45
850.51	2916.31
850.68	2951.12
850.85	3729.35
851.01	3381.20
851.18	2955.22
851.35	3004.37
851.52	3317.71
851.69	3614.66
851.86	2828.24
852.03	2797.53
852.20	3442.64
852.37	3174.35
852.53	2848.72
852.70	2813.91
852.87	3336.14
853.04	3401.68
853.21	2961.36
853.38	3137.49
853.55	3516.36
853.72	3528.65
853.89	2818.00
854.05	2861.01
854.22	3284.94
854.39	3172.30
854.56	2899.92
854.73	3069.91
854.90	3102.67
855.07	3272.65
855.23	2822.10
855.40	2834.39
855.57	3196.88
855.74	2844.63
855.91	3149.78
856.08	2756.57
856.25	3057.62
856.41	3198.93
856.58	2955.22
856.75	2947.03
856.92	3078.10
857.09	3418.06
857.26	2770.90
857.42	2987.99
857.59	3420.11
857.76	3155.92
857.93	2883.54
858.10	2971.60
858.27	3088.34
858.43	3356.62
858.60	2979.79
858.77	2813.91
858.94	3090.38
859.11	3344.33
859.27	2975.70
859.44	2863.06
859.61	3659.72
859.78	3330.00
859.95	2889.68
860.12	2873.30
860.28	3717.06
860.45	3647.43
860.62	2822.10
860.79	3020.75
860.95	3254.22
861.12	3104.72
861.29	2807.77
861.46	2918.36
861.63	3190.74
861.79	3231.69
861.96	2797.53
862.13	2910.16
862.30	3499.98
862.47	3243.98
862.63	2736.09
862.80	2975.70
862.97	3456.97
863.14	3315.66
863.30	2977.75
863.47	2871.25
863.64	3536.84
863.81	3256.27
863.97	2781.14
864.14	2930.64
864.31	3143.63
864.48	3344.33
864.65	2840.53
864.81	3057.62
864.98	3393.48
865.15	3360.72
865.32	2953.17
865.48	3000.27
865.65	3579.85
865.82	3184.59
865.98	2963.41
866.15	2934.74
866.32	3246.03
866.49	3157.97
866.65	3074.00
866.82	2963.41
866.99	3229.65
867.16	3098.58
867.32	2936.79
867.49	2861.01
867.66	3231.69
867.83	3149.78
867.99	2863.06
868.16	2883.54
868.33	3049.43
868.49	3205.07
868.66	2889.68
868.83	3051.47
868.99	3311.57
869.16	3231.69
869.33	3119.06
869.50	2953.17
869.66	3235.79
869.83	3270.61
870.00	2869.20
870.16	3074.00
870.33	3282.89
870.50	3401.68
870.66	2930.64
870.83	2883.54
871.00	3241.93
871.17	3379.15
871.33	3035.09
871.50	2871.25
871.67	3207.12
871.83	3133.39
872.00	3020.75
872.17	2904.02
872.33	3536.84
872.50	3452.88
872.67	2887.64
872.83	2897.88
873.00	3250.13
873.17	3239.89
873.33	2987.99
873.50	2934.74
873.67	3186.64
873.83	3129.30
874.00	2944.98
874.16	3020.75
874.33	3237.84
874.50	3080.14
874.66	2924.50
874.83	2985.94
875.00	3463.12
875.16	3477.45
875.33	3018.71
875.50	2680.79
875.66	3168.21
875.83	3319.76
875.99	2975.70
876.16	3020.75
876.33	3151.82
876.49	3188.69
876.66	2971.60
876.83	2981.84
876.99	3002.32
877.16	3297.23
877.32	2885.59
877.49	2969.55
877.66	3360.72
877.82	3624.90
877.99	2955.22
878.15	3133.39
878.32	3356.62
878.49	3250.13
878.65	2967.51
878.82	3213.26
878.98	3135.44
879.15	3497.93
879.32	3098.58
879.48	3145.68
879.65	3219.41
879.81	3178.45
879.98	2918.36
880.15	3016.66
880.31	3377.10
880.48	3074.00
880.64	3078.10
880.81	3051.47
880.97	3538.89
881.14	3420.11
881.31	2820.05
881.47	3082.19
881.64	3192.78
881.80	2949.08
881.97	3123.15
882.13	2828.24
882.30	3114.96
882.47	3182.54
882.63	2932.69
882.80	2938.84
882.96	3180.50
883.13	3418.06
883.29	2971.60
883.46	2947.03
883.62	3688.39
883.79	3293.13
883.95	3030.99
884.12	2883.54
884.29	3430.35
884.45	3178.45
884.62	2992.08
884.78	2887.64
884.95	3626.95
885.11	3059.67
885.28	3016.66
885.44	2957.27
885.61	3395.53
885.77	3508.17
885.94	3047.38
886.10	3045.33
886.27	3315.66
886.43	3706.82
886.60	3135.44
886.76	2987.99
886.93	3088.34
887.09	3260.37
887.26	2842.58
887.42	2996.18
887.59	3461.07
887.75	3698.63
887.92	3139.54
888.08	3119.06
888.25	3667.91
888.41	3422.16
888.58	2990.03
888.74	2877.40
888.91	3170.26
>>>>>End Processed Spectral Data<<<<<
