SpectraSuite Data File
++++++++++++++++++++++++++++++++++++
Date: Fri May 06 08:13:49 CEST 2016
User: root
Dark Spectrum Present: No
Reference Spectrum Present: No
Number of Sampled Component Spectra: 1
Spectrometers: USB4C02835
Integration Time (usec): 100000 (USB4C02835)
Spectra Averaged: 1 (USB4C02835)
Boxcar Smoothing: 0 (USB4C02835)
Correct for Electrical Dark: No (USB4C02835)
Strobe/Lamp Enabled: No (USB4C02835)
Correct for Detector Non-linearity: No (USB4C02835)
Correct for Stray Light: No (USB4C02835)
Number of Pixels in Processed Spectrum: 3648
>>>>>Begin Processed Spectral Data<<<<<
177.47	2258.91
177.69	2258.91
177.91	2258.91
178.13	2207.71
178.36	2254.81
178.58	2998.23
178.80	3098.58
179.02	3012.56
179.24	3045.33
179.46	2822.10
179.68	2785.24
179.90	3145.68
180.13	3317.71
180.35	2717.65
180.57	2820.05
180.79	3405.77
181.01	3321.81
181.23	2869.20
181.45	2987.99
181.67	3465.16
181.90	3483.59
182.12	2957.27
182.34	2775.00
182.56	3452.88
182.78	3368.91
183.00	2783.19
183.22	2901.97
183.44	2994.13
183.66	3917.76
183.89	3000.27
184.11	2869.20
184.33	3452.88
184.55	3528.65
184.77	2815.96
184.99	2897.88
185.21	3235.79
185.43	3872.71
185.65	2908.12
185.87	2826.20
186.10	3809.22
186.32	3774.41
186.54	3000.27
186.76	3008.47
186.98	3483.59
187.20	3309.52
187.42	2942.93
187.64	2830.29
187.86	3426.25
188.08	3450.83
188.30	2731.99
188.52	2947.03
188.75	3573.71
188.97	3547.08
189.19	2881.49
189.41	2815.96
189.63	3385.29
189.85	3246.03
190.07	2783.19
190.29	2711.51
190.51	3426.25
190.73	3033.04
190.95	3037.14
191.17	2957.27
191.39	3008.47
191.61	3182.54
191.84	2856.92
192.06	3030.99
192.28	2953.17
192.50	3934.15
192.72	2992.08
192.94	2955.22
193.16	3424.20
193.38	3381.20
193.60	2723.80
193.82	2959.31
194.04	3493.83
194.26	3362.76
194.48	2856.92
194.70	2865.11
194.92	3149.78
195.14	3463.12
195.36	2820.05
195.58	2940.88
195.80	3307.47
196.02	3176.40
196.24	2682.84
196.46	2926.55
196.69	3184.59
196.91	3831.75
197.13	2848.72
197.35	2879.44
197.57	3532.75
197.79	3444.68
198.01	3010.51
198.23	2869.20
198.45	3317.71
198.67	3080.14
198.89	2705.37
199.11	2971.60
199.33	3090.38
199.55	2920.40
199.77	2809.81
199.99	3010.51
200.21	3217.36
200.43	3477.45
200.65	2787.29
200.87	2629.59
201.09	3250.13
201.31	3321.81
201.53	2850.77
201.75	2961.36
201.97	3307.47
202.19	3188.69
202.41	2942.93
202.63	3049.43
202.85	3450.83
203.07	3352.52
203.29	2944.98
203.51	2746.33
203.73	3119.06
203.95	3917.76
204.17	2856.92
204.39	3000.27
204.61	3225.55
204.83	3194.83
205.05	3059.67
205.27	2926.55
205.49	3917.76
205.71	3250.13
205.93	2680.79
206.15	2795.48
206.37	3317.71
206.59	3278.80
206.81	2682.84
207.03	2738.13
207.25	3133.39
207.47	3434.44
207.69	2897.88
207.91	3067.86
208.13	3682.25
208.34	3239.89
208.56	2781.14
208.78	2822.10
209.00	3153.87
209.22	3172.30
209.44	2840.53
209.66	2865.11
209.88	3278.80
210.10	3225.55
210.32	2801.62
210.54	2983.89
210.76	3194.83
210.98	3456.97
211.20	2734.04
211.42	2944.98
211.64	3575.75
211.86	3346.38
212.08	2928.60
212.30	2899.92
212.52	3274.70
212.74	3426.25
212.96	2936.79
213.17	2920.40
213.39	3551.18
213.61	3626.95
213.83	2793.43
214.05	2717.65
214.27	3438.54
214.49	3024.85
214.71	2820.05
214.93	2926.55
215.15	3274.70
215.37	3418.06
215.59	2746.33
215.81	2901.97
216.03	3563.47
216.24	3305.42
216.46	2906.07
216.68	2928.60
216.90	3547.08
217.12	3518.41
217.34	2772.95
217.56	3090.38
217.78	3542.99
218.00	3397.58
218.22	2992.08
218.44	2928.60
218.66	3221.45
218.87	3637.19
219.09	2844.63
219.31	2832.34
219.53	3368.91
219.75	3250.13
219.97	2899.92
220.19	2809.81
220.41	3295.18
220.63	3565.51
220.85	2897.88
221.06	2901.97
221.28	3553.23
221.50	3395.53
221.72	2863.06
221.94	2742.23
222.16	3311.57
222.38	3438.54
222.60	2822.10
222.82	2904.02
223.03	3424.20
223.25	3121.10
223.47	2838.48
223.69	3106.77
223.91	3502.03
224.13	3270.61
224.35	2830.29
224.57	3090.38
224.78	3418.06
225.00	3055.57
225.22	2981.84
225.44	2775.00
225.66	3452.88
225.88	3178.45
226.10	2996.18
226.32	2861.01
226.53	3559.37
226.75	3213.26
226.97	2992.08
227.19	2879.44
227.41	3108.82
227.63	3227.60
227.85	2691.03
228.06	2992.08
228.28	3289.04
228.50	3545.03
228.72	2715.61
228.94	2805.72
229.16	2912.21
229.37	3045.33
229.59	2838.48
229.81	3147.73
230.03	3233.74
230.25	2977.75
230.47	2674.65
230.69	2840.53
230.90	3536.84
231.12	3139.54
231.34	2963.41
231.56	2971.60
231.78	3018.71
232.00	3334.09
232.21	2877.40
232.43	2910.16
232.65	2809.81
232.87	3413.96
233.09	2688.98
233.30	2803.67
233.52	3604.42
233.74	3221.45
233.96	2828.24
234.18	3041.23
234.40	3327.95
234.61	3684.30
234.83	2789.33
235.05	2803.67
235.27	3741.64
235.49	3459.02
235.70	2795.48
235.92	2887.64
236.14	3348.43
236.36	3790.79
236.58	2781.14
236.79	2981.84
237.01	3221.45
237.23	3147.73
237.45	3143.63
237.67	2932.69
237.88	3401.68
238.10	3669.96
238.32	2822.10
238.54	2791.38
238.76	3256.27
238.97	3055.57
239.19	2746.33
239.41	2918.36
239.63	3485.64
239.85	3217.36
240.06	2893.78
240.28	2856.92
240.50	3534.79
240.72	3301.33
240.93	2752.47
241.15	3061.71
241.37	3260.37
241.59	3557.32
241.81	2899.92
242.02	2920.40
242.24	3332.05
242.46	3438.54
242.68	2701.27
242.89	2801.62
243.11	3377.10
243.33	3217.36
243.55	2910.16
243.76	2871.25
243.98	3094.48
244.20	3330.00
244.42	2877.40
244.64	2838.48
244.85	3010.51
245.07	3217.36
245.29	2842.58
245.51	2863.06
245.72	3344.33
245.94	3434.44
246.16	2764.76
246.38	2934.74
246.59	3241.93
246.81	3026.90
247.03	2729.94
247.24	2697.17
247.46	3235.79
247.68	3289.04
247.90	2820.05
248.11	2840.53
248.33	3405.77
248.55	3229.65
248.77	2867.16
248.98	3039.19
249.20	3622.86
249.42	3368.91
249.64	2893.78
249.85	2779.09
250.07	3160.02
250.29	3411.92
250.50	2920.40
250.72	2766.81
250.94	3319.76
251.16	3702.73
251.37	2846.68
251.59	2957.27
251.81	3377.10
252.02	3624.90
252.24	2768.85
252.46	3045.33
252.68	3151.82
252.89	3096.53
253.11	2691.03
253.33	3090.38
253.54	3557.32
253.76	3055.57
253.98	2844.63
254.20	2836.44
254.41	3000.27
254.63	3319.76
254.85	2775.00
255.06	2990.03
255.28	3362.76
255.50	3182.54
255.71	2856.92
255.93	2693.08
256.15	3258.32
256.36	3330.00
256.58	2789.33
256.80	2846.68
257.02	3176.40
257.23	3254.22
257.45	2852.82
257.67	3039.19
257.88	3137.49
258.10	3325.90
258.32	2877.40
258.53	2953.17
258.75	3643.34
258.97	3205.07
259.18	2826.20
259.40	2791.38
259.62	3555.27
259.83	3565.51
260.05	2904.02
260.27	3796.93
260.48	3438.54
260.70	3112.91
260.92	2795.48
261.13	2865.11
261.35	3315.66
261.57	3344.33
261.78	2754.52
262.00	2729.94
262.22	3352.52
262.43	3141.58
262.65	2787.29
262.86	2809.81
263.08	3811.27
263.30	3330.00
263.51	2695.13
263.73	2836.44
263.95	3542.99
264.16	3049.43
264.38	2719.70
264.60	2844.63
264.81	3336.14
265.03	3520.46
265.25	3213.26
265.46	2791.38
265.68	3471.31
265.89	3467.21
266.11	2750.42
266.33	2824.15
266.54	3516.36
266.76	3430.35
266.98	2867.16
267.19	3057.62
267.41	3524.55
267.62	3213.26
267.84	2703.32
268.06	2969.55
268.27	3289.04
268.49	3461.07
268.70	2895.83
268.92	2869.20
269.14	3129.30
269.35	3002.32
269.57	3035.09
269.79	2987.99
270.00	3200.98
270.22	3665.86
270.43	2854.87
270.65	2731.99
270.87	3362.76
271.08	3436.49
271.30	2975.70
271.51	2826.20
271.73	3401.68
271.95	3561.42
272.16	2846.68
272.38	3026.90
272.59	3170.26
272.81	3481.55
273.02	2729.94
273.24	2979.79
273.46	3585.99
273.67	3022.80
273.89	2779.09
274.10	2906.07
274.32	3512.27
274.54	3411.92
274.75	2938.84
274.97	2971.60
275.18	3467.21
275.40	3336.14
275.61	2906.07
275.83	3004.37
276.05	3094.48
276.26	3254.22
276.48	3028.95
276.69	3051.47
276.91	3143.63
277.12	3633.10
277.34	3063.76
277.55	3129.30
277.77	3237.84
277.99	3182.54
278.20	2881.49
278.42	2867.16
278.63	3166.16
278.85	3106.77
279.06	2979.79
279.28	3053.52
279.49	3549.13
279.71	3381.20
279.93	3049.43
280.14	3049.43
280.36	3160.02
280.57	3538.89
280.79	3045.33
281.00	2895.83
281.22	3106.77
281.43	3499.98
281.65	2770.90
281.86	2885.59
282.08	3379.15
282.29	3672.01
282.51	2893.78
282.73	2869.20
282.94	3024.85
283.16	3434.44
283.37	3133.39
283.59	2938.84
283.80	3430.35
284.02	3297.23
284.23	3059.67
284.45	3028.95
284.66	3020.75
284.88	3090.38
285.09	2887.64
285.31	3078.10
285.52	3389.39
285.74	2936.79
285.95	3295.18
286.17	3000.27
286.38	3506.12
286.60	3096.53
286.81	2990.03
287.03	2994.13
287.24	3327.95
287.46	3467.21
287.67	3151.82
287.89	3069.91
288.10	3215.31
288.32	3286.99
288.53	3147.73
288.75	3074.00
288.96	3422.16
289.18	3229.65
289.39	2926.55
289.61	3028.95
289.82	3657.67
290.04	3655.62
290.25	2820.05
290.47	3065.81
290.68	3194.83
290.90	3491.79
291.11	2785.24
291.33	3123.15
291.54	3090.38
291.76	3074.00
291.97	3041.23
292.18	3002.32
292.40	3127.25
292.61	3151.82
292.83	3297.23
293.04	2996.18
293.26	3352.52
293.47	3186.64
293.69	2871.25
293.90	2871.25
294.12	3510.22
294.33	3274.70
294.55	3002.32
294.76	3151.82
294.97	3551.18
295.19	3641.29
295.40	2996.18
295.62	3037.14
295.83	3448.78
296.05	3139.54
296.26	3209.17
296.48	3084.24
296.69	3266.51
296.90	3293.13
297.12	3110.86
297.33	3110.86
297.55	3270.61
297.76	3418.06
297.98	3106.77
298.19	3129.30
298.41	3221.45
298.62	3160.02
298.83	3260.37
299.05	3119.06
299.26	3170.26
299.48	3098.58
299.69	3112.91
299.90	2926.55
300.12	3145.68
300.33	3393.48
300.55	3033.04
300.76	3002.32
300.98	3016.66
301.19	3385.29
301.40	2961.36
301.62	2992.08
301.83	3379.15
302.05	3233.74
302.26	2983.89
302.47	3088.34
302.69	3090.38
302.90	3260.37
303.12	2824.15
303.33	3129.30
303.54	3643.34
303.76	3153.87
303.97	2936.79
304.19	3149.78
304.40	3127.25
304.61	3389.39
304.83	3051.47
305.04	3084.24
305.26	3504.07
305.47	3088.34
305.68	3043.28
305.90	2865.11
306.11	3487.69
306.33	3231.69
306.54	2818.00
306.75	2967.51
306.97	2996.18
307.18	3141.58
307.39	3008.47
307.61	3039.19
307.82	3215.31
308.04	3395.53
308.25	2869.20
308.46	3141.58
308.68	3336.14
308.89	3239.89
309.10	3059.67
309.32	3069.91
309.53	3286.99
309.74	3469.26
309.96	2918.36
310.17	3080.14
310.39	3180.50
310.60	3373.00
310.81	3033.04
311.03	2854.87
311.24	3456.97
311.45	3327.95
311.67	3338.19
311.88	3074.00
312.09	3157.97
312.31	3200.98
312.52	2899.92
312.73	2916.31
312.95	3047.38
313.16	3055.57
313.37	3098.58
313.59	3166.16
313.80	3426.25
314.01	3573.71
314.23	2955.22
314.44	2934.74
314.65	3004.37
314.87	3149.78
315.08	3016.66
315.29	3012.56
315.51	3076.05
315.72	3004.37
315.93	3074.00
316.15	3022.80
316.36	3170.26
316.57	3264.46
316.79	2967.51
317.00	2959.31
317.21	3409.87
317.43	3166.16
317.64	3049.43
317.85	2944.98
318.07	3067.86
318.28	3198.93
318.49	3067.86
318.70	3299.28
318.92	3334.09
319.13	3393.48
319.34	3205.07
319.56	3080.14
319.77	3348.43
319.98	3366.86
320.20	3223.50
320.41	3143.63
320.62	3401.68
320.83	3018.71
321.05	3248.08
321.26	3018.71
321.47	3332.05
321.69	3487.69
321.90	2922.45
322.11	2961.36
322.32	3358.67
322.54	3690.44
322.75	2916.31
322.96	3960.77
323.18	2928.60
323.39	2947.03
323.60	2861.01
323.81	3112.91
324.03	3137.49
324.24	3323.85
324.45	3059.67
324.66	2975.70
324.88	3499.98
325.09	3594.19
325.30	2947.03
325.52	2893.78
325.73	3401.68
325.94	3119.06
326.15	2897.88
326.37	2865.11
326.58	3522.51
326.79	3643.34
327.00	2924.50
327.22	2928.60
327.43	3262.41
327.64	3018.71
327.85	3047.38
328.07	3033.04
328.28	3719.11
328.49	3188.69
328.70	3041.23
328.92	3030.99
329.13	3258.32
329.34	3434.44
329.55	3307.47
329.76	3129.30
329.98	3102.67
330.19	3522.51
330.40	3074.00
330.61	3086.29
330.83	3499.98
331.04	3082.19
331.25	3065.81
331.46	3063.76
331.68	3022.80
331.89	3475.40
332.10	2985.94
332.31	2932.69
332.52	3307.47
332.74	3463.12
332.95	2789.33
333.16	2967.51
333.37	3465.16
333.58	3137.49
333.80	3045.33
334.01	2809.81
334.22	3229.65
334.43	3155.92
334.64	2928.60
334.86	2940.88
335.07	3151.82
335.28	3573.71
335.49	2918.36
335.70	3067.86
335.92	3483.59
336.13	3676.10
336.34	3057.62
336.55	2942.93
336.76	3348.43
336.98	2930.64
337.19	3041.23
337.40	3045.33
337.61	3755.97
337.82	3205.07
338.04	3094.48
338.25	2830.29
338.46	3282.89
338.67	3284.94
338.88	2889.68
339.09	2901.97
339.31	3162.06
339.52	3051.47
339.73	2953.17
339.94	3002.32
340.15	3434.44
340.36	3239.89
340.58	3049.43
340.79	2918.36
341.00	3461.07
341.21	3129.30
341.42	3229.65
341.63	2949.08
341.85	3446.73
342.06	3344.33
342.27	2906.07
342.48	3188.69
342.69	2975.70
342.90	3399.63
343.12	3327.95
343.33	2965.46
343.54	3475.40
343.75	3555.27
343.96	3162.06
344.17	2893.78
344.38	3340.24
344.60	3145.68
344.81	2947.03
345.02	2983.89
345.23	3542.99
345.44	3747.78
345.65	3074.00
345.86	3090.38
346.07	3319.76
346.29	3149.78
346.50	3180.50
346.71	3108.82
346.92	3583.95
347.13	3745.73
347.34	3061.71
347.55	2873.30
347.76	3401.68
347.98	2959.31
348.19	3008.47
348.40	3164.11
348.61	3112.91
348.82	3557.32
349.03	3039.19
349.24	2899.92
349.45	3655.62
349.66	2883.54
349.88	2951.12
350.09	2875.35
350.30	3557.32
350.51	3555.27
350.72	3250.13
350.93	3041.23
351.14	3190.74
351.35	3426.25
351.56	3030.99
351.77	3100.62
351.99	3360.72
352.20	3524.55
352.41	3108.82
352.62	2797.53
352.83	3280.85
353.04	3270.61
353.25	3051.47
353.46	3035.09
353.67	3493.83
353.88	2910.16
354.09	2881.49
354.30	3055.57
354.52	3493.83
354.73	3192.78
354.94	3012.56
355.15	3131.34
355.36	3706.82
355.57	3200.98
355.78	2947.03
355.99	2985.94
356.20	3250.13
356.41	3475.40
356.62	3065.81
356.83	2975.70
357.04	3545.03
357.25	2940.88
357.46	3045.33
357.68	2879.44
357.89	3123.15
358.10	3233.74
358.31	2893.78
358.52	3037.14
358.73	3084.24
358.94	3053.52
359.15	2996.18
359.36	3033.04
359.57	3383.24
359.78	3168.21
359.99	3162.06
360.20	2863.06
360.41	3196.88
360.62	3428.30
360.83	3119.06
361.04	3039.19
361.25	3323.85
361.46	3659.72
361.67	3074.00
361.88	3067.86
362.09	3452.88
362.30	3362.76
362.51	2953.17
362.72	3119.06
362.93	3395.53
363.14	3422.16
363.35	3147.73
363.56	2916.31
363.78	3465.16
363.99	3436.49
364.20	3045.33
364.41	3020.75
364.62	3596.23
364.83	3256.27
365.04	2963.41
365.25	3104.72
365.46	3631.05
365.67	3094.48
365.88	3176.40
366.09	2944.98
366.30	3180.50
366.51	3262.41
366.72	2920.40
366.93	3004.37
367.14	3399.63
367.35	3585.99
367.56	2969.55
367.77	3178.45
367.98	3332.05
368.18	3366.86
368.39	3168.21
368.60	2901.97
368.81	3434.44
369.02	3332.05
369.23	3051.47
369.44	2899.92
369.65	3157.97
369.86	3327.95
370.07	3051.47
370.28	2922.45
370.49	3409.87
370.70	3375.05
370.91	2990.03
371.12	2914.26
371.33	3600.33
371.54	3164.11
371.75	3082.19
371.96	2789.33
372.17	3354.57
372.38	3327.95
372.59	2944.98
372.80	3002.32
373.01	3180.50
373.22	3319.76
373.43	2973.65
373.64	2865.11
373.85	3616.71
374.06	3547.08
374.26	3164.11
374.47	3080.14
374.68	3569.61
374.89	3321.81
375.10	2949.08
375.31	3106.77
375.52	3317.71
375.73	3303.37
375.94	2793.43
376.15	3114.96
376.36	3053.52
376.57	3135.44
376.78	3006.42
376.99	3137.49
377.20	3557.32
377.40	3248.08
377.61	3325.90
377.82	2975.70
378.03	3594.19
378.24	3448.78
378.45	3157.97
378.66	3143.63
378.87	2955.22
379.08	2975.70
379.29	3012.56
379.50	3155.92
379.71	3221.45
379.91	3348.43
380.12	2947.03
380.33	3086.29
380.54	3262.41
380.75	3280.85
380.96	3018.71
381.17	3016.66
381.38	3284.94
381.59	3227.60
381.80	3071.95
382.00	3239.89
382.21	3286.99
382.42	3565.51
382.63	3379.15
382.84	3182.54
383.05	3459.02
383.26	3477.45
383.47	3090.38
383.68	2967.51
383.88	3387.34
384.09	3336.14
384.30	3293.13
384.51	3166.16
384.72	3198.93
384.93	3078.10
385.14	3123.15
385.35	3317.71
385.55	3026.90
385.76	3524.55
385.97	3047.38
386.18	2926.55
386.39	3223.50
386.60	3149.78
386.81	3030.99
387.02	2951.12
387.22	3076.05
387.43	3444.68
387.64	3153.87
387.85	3344.33
388.06	3317.71
388.27	4351.93
388.48	7827.34
388.68	11913.03
388.89	15036.19
389.10	16305.93
389.31	16045.84
389.52	13109.05
389.73	11155.29
389.93	10262.37
390.14	9353.07
390.35	8476.54
390.56	7956.36
390.77	6533.02
390.98	4943.80
391.18	4138.94
391.39	3839.94
391.60	3246.03
391.81	3235.79
392.02	3018.71
392.23	3827.65
392.43	3375.05
392.64	3155.92
392.85	3139.54
393.06	3592.14
393.27	3260.37
393.47	3000.27
393.68	3059.67
393.89	3225.55
394.10	3528.65
394.31	2998.23
394.52	3012.56
394.72	3196.88
394.93	3534.79
395.14	2947.03
395.35	3096.53
395.56	3229.65
395.76	3225.55
395.97	3026.90
396.18	3186.64
396.39	3280.85
396.60	3934.15
396.80	3448.78
397.01	3330.00
397.22	3530.70
397.43	3508.17
397.64	3045.33
397.84	3084.24
398.05	3706.82
398.26	3246.03
398.47	3217.36
398.67	3272.65
398.88	3286.99
399.09	3442.64
399.30	3016.66
399.51	3041.23
399.71	3151.82
399.92	3254.22
400.13	3129.30
400.34	3055.57
400.54	3235.79
400.75	3557.32
400.96	3266.51
401.17	3325.90
401.37	3452.88
401.58	3180.50
401.79	3053.52
402.00	3164.11
402.21	3766.21
402.41	3426.25
402.62	3348.43
402.83	3559.37
403.04	3733.45
403.24	4077.51
403.45	3203.02
403.66	3383.24
403.87	3575.75
404.07	3626.95
404.28	3362.76
404.49	3344.33
404.70	3362.76
404.90	3428.30
405.11	3039.19
405.32	3157.97
405.52	3190.74
405.73	3147.73
405.94	2947.03
406.15	3053.52
406.35	3530.70
406.56	3375.05
406.77	3051.47
406.98	3049.43
407.18	3139.54
407.39	3655.62
407.60	3028.95
407.80	3127.25
408.01	3172.30
408.22	3446.73
408.43	2994.13
408.63	3196.88
408.84	3370.96
409.05	3540.94
409.25	3045.33
409.46	3098.58
409.67	3139.54
409.88	3069.91
410.08	3024.85
410.29	3014.61
410.50	3397.58
410.70	3413.96
410.91	2922.45
411.12	3100.62
411.32	3270.61
411.53	3205.07
411.74	3016.66
411.95	3246.03
412.15	3235.79
412.36	3428.30
412.57	3229.65
412.77	3221.45
412.98	3200.98
413.19	3194.83
413.39	3166.16
413.60	3071.95
413.81	3655.62
414.01	3090.38
414.22	3143.63
414.43	3211.22
414.63	3174.35
414.84	3411.92
415.05	3076.05
415.25	2944.98
415.46	3397.58
415.67	3139.54
415.87	3121.10
416.08	3035.09
416.29	3221.45
416.49	3387.34
416.70	3080.14
416.91	3057.62
417.11	3248.08
417.32	3436.49
417.53	3090.38
417.73	3133.39
417.94	3301.33
418.15	3295.18
418.35	3069.91
418.56	3139.54
418.77	3829.70
418.97	3321.81
419.18	3211.22
419.38	2762.71
419.59	3237.84
419.80	3534.79
420.00	3010.51
420.21	3074.00
420.42	3553.23
420.62	3317.71
420.83	3076.05
421.04	2981.84
421.24	3241.93
421.45	3387.34
421.65	3018.71
421.86	3057.62
422.07	3520.46
422.27	3432.40
422.48	3016.66
422.69	2910.16
422.89	3270.61
423.10	3129.30
423.30	3037.14
423.51	3096.53
423.72	3358.67
423.92	3471.31
424.13	2973.65
424.33	3098.58
424.54	3481.55
424.75	3289.04
424.95	3274.70
425.16	3008.47
425.36	3280.85
425.57	3411.92
425.78	3121.10
425.98	3157.97
426.19	3303.37
426.39	3022.80
426.60	3151.82
426.81	3209.17
427.01	3348.43
427.22	3065.81
427.42	2930.64
427.63	3018.71
427.83	3516.36
428.04	3622.86
428.25	3090.38
428.45	3174.35
428.66	3471.31
428.86	3321.81
429.07	3082.19
429.28	3102.67
429.48	3172.30
429.69	3045.33
429.89	3102.67
430.10	3026.90
430.30	3481.55
430.51	3571.66
430.71	2996.18
430.92	3106.77
431.13	3123.15
431.33	3434.44
431.54	3196.88
431.74	3291.09
431.95	3725.26
432.15	3061.71
432.36	3121.10
432.56	3074.00
432.77	3626.95
432.98	3647.43
433.18	3100.62
433.39	2918.36
433.59	3270.61
433.80	3653.58
434.00	3215.31
434.21	3067.86
434.41	3157.97
434.62	3848.13
434.82	2977.75
435.03	2959.31
435.23	3311.57
435.44	2994.13
435.64	2938.84
435.85	3166.16
436.06	3479.50
436.26	3504.07
436.47	3002.32
436.67	3045.33
436.88	3217.36
437.08	3465.16
437.29	3196.88
437.49	3170.26
437.70	3444.68
437.90	3241.93
438.11	3260.37
438.31	3117.01
438.52	3542.99
438.72	3446.73
438.93	3518.41
439.13	3131.34
439.34	3444.68
439.54	3223.50
439.75	3213.26
439.95	3151.82
440.16	3157.97
440.36	3213.26
440.57	3008.47
440.77	3033.04
440.98	3356.62
441.18	3426.25
441.39	2963.41
441.59	2930.64
441.80	3760.07
442.00	3293.13
442.21	3125.20
442.41	2932.69
442.62	3504.07
442.82	3174.35
443.02	3067.86
443.23	3057.62
443.43	3270.61
443.64	3524.55
443.84	2873.30
444.05	3172.30
444.25	3327.95
444.46	3176.40
444.66	3067.86
444.87	3291.09
445.07	3008.47
445.28	3205.07
445.48	3278.80
445.69	3182.54
445.89	3737.54
446.09	3221.45
446.30	3346.38
446.50	3403.72
446.71	5058.48
446.91	6180.77
447.12	7255.95
447.32	7683.98
447.53	7546.76
447.73	6277.02
447.93	5474.22
448.14	5320.62
448.34	5416.88
448.55	4540.35
448.75	4360.13
448.96	4227.01
449.16	4075.46
449.36	3954.63
449.57	3375.05
449.77	3143.63
449.98	3225.55
450.18	3401.68
450.39	3026.90
450.59	3223.50
450.79	3270.61
451.00	3149.78
451.20	3340.24
451.41	3098.58
451.61	3430.35
451.81	3268.56
452.02	2963.41
452.22	3135.44
452.43	3227.60
452.63	3149.78
452.84	3061.71
453.04	2944.98
453.24	3325.90
453.45	3172.30
453.65	3135.44
453.86	3061.71
454.06	3330.00
454.26	3358.67
454.47	3057.62
454.67	3231.69
454.87	3360.72
455.08	3229.65
455.28	3162.06
455.49	3194.83
455.69	3069.91
455.89	3639.24
456.10	3176.40
456.30	3010.51
456.51	3438.54
456.71	3272.65
456.91	3215.31
457.12	3082.19
457.32	3327.95
457.52	3004.37
457.73	3200.98
457.93	3252.17
458.14	3192.78
458.34	2994.13
458.54	3024.85
458.75	3026.90
458.95	3428.30
459.15	3268.56
459.36	3108.82
459.56	3074.00
459.76	3801.03
459.97	3256.27
460.17	3010.51
460.37	3049.43
460.58	3286.99
460.78	3450.83
460.99	3074.00
461.19	3037.14
461.39	3184.59
461.60	3143.63
461.80	2992.08
462.00	2971.60
462.21	3311.57
462.41	3117.01
462.61	2969.55
462.82	2754.52
463.02	3471.31
463.22	3227.60
463.43	3094.48
463.63	2955.22
463.83	3551.18
464.04	3340.24
464.24	2992.08
464.44	3039.19
464.64	3227.60
464.85	3434.44
465.05	2998.23
465.25	2887.64
465.46	3119.06
465.66	3332.05
465.86	3178.45
466.07	3008.47
466.27	3313.61
466.47	3041.23
466.68	2981.84
466.88	3123.15
467.08	3373.00
467.29	3428.30
467.49	3049.43
467.69	3166.16
467.89	3340.24
468.10	3237.84
468.30	3172.30
468.50	3196.88
468.71	3430.35
468.91	3008.47
469.11	3344.33
469.31	3162.06
469.52	3094.48
469.72	3626.95
469.92	3381.20
470.13	2959.31
470.33	3338.19
470.53	3338.19
470.73	3479.50
470.94	3885.00
471.14	4087.75
471.34	4708.28
471.54	4380.61
471.75	4016.07
471.95	3770.31
472.15	3809.22
472.36	3721.16
472.56	3631.05
472.76	3915.72
472.96	3717.06
473.17	3311.57
473.37	3266.51
473.57	3250.13
473.77	3442.64
473.98	3196.88
474.18	3041.23
474.38	3925.96
474.58	3127.25
474.79	2918.36
474.99	3153.87
475.19	3504.07
475.39	3135.44
475.60	3153.87
475.80	3047.38
476.00	3364.81
476.20	3213.26
476.41	3229.65
476.61	3147.73
476.81	3649.48
477.01	3106.77
477.21	3336.14
477.42	3262.41
477.62	3119.06
477.82	3469.26
478.02	3022.80
478.23	3180.50
478.43	3119.06
478.63	3243.98
478.83	3065.81
479.03	3157.97
479.24	3553.23
479.44	3731.40
479.64	3028.95
479.84	2926.55
480.04	3166.16
480.25	3469.26
480.45	3080.14
480.65	2992.08
480.85	3520.46
481.06	3188.69
481.26	3172.30
481.46	2967.51
481.66	3352.52
481.86	3149.78
482.06	3258.32
482.27	3174.35
482.47	3250.13
482.67	3381.20
482.87	3043.28
483.07	3067.86
483.28	3172.30
483.48	2936.79
483.68	3045.33
483.88	2961.36
484.08	2918.36
484.29	2947.03
484.49	3137.49
484.69	2934.74
484.89	3510.22
485.09	3491.79
485.29	3125.20
485.50	3196.88
485.70	3157.97
485.90	3420.11
486.10	3198.93
486.30	3035.09
486.50	3581.90
486.71	3413.96
486.91	3213.26
487.11	3198.93
487.31	3026.90
487.51	3383.24
487.71	3057.62
487.91	3053.52
488.12	3067.86
488.32	2805.72
488.52	3030.99
488.72	2811.86
488.92	3315.66
489.12	3461.07
489.32	3145.68
489.53	3098.58
489.73	3012.56
489.93	3712.97
490.13	3033.04
490.33	2910.16
490.53	3383.24
490.73	3428.30
490.94	2975.70
491.14	3213.26
491.34	3332.05
491.54	3358.67
491.74	3944.39
491.94	4532.15
492.14	5097.39
492.34	5126.07
492.54	4720.57
492.75	4042.69
492.95	4442.04
493.15	4061.12
493.35	3825.61
493.55	3745.73
493.75	3776.45
493.95	3973.06
494.15	3379.15
494.35	3198.93
494.56	3276.75
494.76	3209.17
494.96	3209.17
495.16	2957.27
495.36	3246.03
495.56	3336.14
495.76	3067.86
495.96	2996.18
496.16	3078.10
496.36	3637.19
496.56	2949.08
496.77	3123.15
496.97	3313.61
497.17	3487.69
497.37	2822.10
497.57	3147.73
497.77	3323.85
497.97	3076.05
498.17	3033.04
498.37	3106.77
498.57	3305.42
498.77	3211.22
498.97	3223.50
499.17	3459.02
499.38	3246.03
499.58	3461.07
499.78	3192.78
499.98	3254.22
500.18	3297.23
500.38	3205.07
500.58	3262.41
500.78	3786.69
500.98	6111.14
501.18	8175.49
501.38	9701.23
501.58	10706.78
501.78	10751.84
501.98	8923.00
502.18	7485.33
502.38	6543.26
502.58	6438.81
502.78	5683.11
502.98	5486.51
503.18	5146.55
503.38	4956.08
503.59	4306.88
503.79	4118.47
503.99	3758.02
504.19	3925.96
504.39	3803.08
504.59	3717.06
504.79	3674.06
504.99	3999.68
505.19	3561.42
505.39	3395.53
505.59	3459.02
505.79	3631.05
505.99	3461.07
506.19	3125.20
506.39	3332.05
506.59	3155.92
506.79	3205.07
506.99	3315.66
507.19	3037.14
507.39	3313.61
507.59	3057.62
507.79	3039.19
507.99	2959.31
508.19	3346.38
508.39	3268.56
508.59	3094.48
508.79	3233.74
508.99	3755.97
509.19	3133.39
509.39	3123.15
509.59	2969.55
509.79	3149.78
509.99	3274.70
510.19	3162.06
510.39	3106.77
510.59	3262.41
510.79	3147.73
510.99	2901.97
511.19	2987.99
511.39	3641.29
511.59	3581.90
511.79	3219.41
511.99	3106.77
512.19	3667.91
512.38	3317.71
512.58	2987.99
512.78	3006.42
512.98	3590.09
513.18	3631.05
513.38	2934.74
513.58	3127.25
513.78	3188.69
513.98	3217.36
514.18	3067.86
514.38	3059.67
514.58	3405.77
514.78	3246.03
514.98	3004.37
515.18	3065.81
515.38	2992.08
515.58	3516.36
515.78	2992.08
515.98	3047.38
516.18	3438.54
516.38	3348.43
516.57	3045.33
516.77	3092.43
516.97	3385.29
517.17	3061.71
517.37	2871.25
517.57	3092.43
517.77	3233.74
517.97	3051.47
518.17	3106.77
518.37	2951.12
518.57	3153.87
518.77	3127.25
518.97	3125.20
519.16	3127.25
519.36	3524.55
519.56	3110.86
519.76	3002.32
519.96	3188.69
520.16	3565.51
520.36	3041.23
520.56	3276.75
520.76	3010.51
520.96	3211.22
521.16	3446.73
521.35	3229.65
521.55	3235.79
521.75	3282.89
521.95	3200.98
522.15	2994.13
522.35	2901.97
522.55	3194.83
522.75	3442.64
522.95	2869.20
523.14	2830.29
523.34	3282.89
523.54	3094.48
523.74	3203.02
523.94	3102.67
524.14	2959.31
524.34	3344.33
524.54	3291.09
524.73	3057.62
524.93	3379.15
525.13	3336.14
525.33	2918.36
525.53	3311.57
525.73	3442.64
525.93	3176.40
526.13	3012.56
526.32	2977.75
526.52	3565.51
526.72	3495.88
526.92	3131.34
527.12	2975.70
527.32	3049.43
527.52	3401.68
527.71	3108.82
527.91	3088.34
528.11	3114.96
528.31	3278.80
528.51	3018.71
528.71	3139.54
528.90	3471.31
529.10	3551.18
529.30	3127.25
529.50	2768.85
529.70	3258.32
529.90	3209.17
530.09	3045.33
530.29	2951.12
530.49	3057.62
530.69	3887.04
530.89	3270.61
531.09	3127.25
531.28	3155.92
531.48	3528.65
531.68	3069.91
531.88	3028.95
532.08	3401.68
532.28	3182.54
532.47	3135.44
532.67	3162.06
532.87	3342.28
533.07	3092.43
533.27	3067.86
533.46	3117.01
533.66	3344.33
533.86	3174.35
534.06	3196.88
534.26	3012.56
534.45	3176.40
534.65	3514.31
534.85	3164.11
535.05	2959.31
535.25	3483.59
535.44	2975.70
535.64	3135.44
535.84	3059.67
536.04	3168.21
536.24	3141.58
536.43	2992.08
536.63	3026.90
536.83	3299.28
537.03	3237.84
537.22	2897.88
537.42	2865.11
537.62	3422.16
537.82	3098.58
538.02	3223.50
538.21	3196.88
538.41	3909.57
538.61	3342.28
538.81	3100.62
539.00	3213.26
539.20	3016.66
539.40	3213.26
539.60	3123.15
539.79	3315.66
539.99	3383.24
540.19	3139.54
540.39	3016.66
540.58	3049.43
540.78	3399.63
540.98	3282.89
541.18	3327.95
541.37	3160.02
541.57	3231.69
541.77	3286.99
541.97	2967.51
542.16	2871.25
542.36	3203.02
542.56	3182.54
542.76	3231.69
542.95	3182.54
543.15	3360.72
543.35	3452.88
543.54	2994.13
543.74	3016.66
543.94	3635.14
544.14	3137.49
544.33	3225.55
544.53	3092.43
544.73	3258.32
544.93	3133.39
545.12	3022.80
545.32	3051.47
545.52	3188.69
545.71	3112.91
545.91	3076.05
546.11	3028.95
546.30	3117.01
546.50	3256.27
546.70	3192.78
546.90	3076.05
547.09	2942.93
547.29	3274.70
547.49	3192.78
547.68	3022.80
547.88	3108.82
548.08	3418.06
548.27	3377.10
548.47	3004.37
548.67	3139.54
548.87	3362.76
549.06	3088.34
549.26	2951.12
549.46	3389.39
549.65	3123.15
549.85	3080.14
550.05	3102.67
550.24	2967.51
550.44	3235.79
550.64	3149.78
550.83	3088.34
551.03	3479.50
551.23	3434.44
551.42	3092.43
551.62	3217.36
551.82	3231.69
552.01	3153.87
552.21	3379.15
552.41	3143.63
552.60	3559.37
552.80	3336.14
553.00	3016.66
553.19	3121.10
553.39	3604.42
553.59	3086.29
553.78	3168.21
553.98	3033.04
554.17	3037.14
554.37	3340.24
554.57	3170.26
554.76	2926.55
554.96	3139.54
555.16	3248.08
555.35	3166.16
555.55	3295.18
555.75	3237.84
555.94	3430.35
556.14	2854.87
556.33	3074.00
556.53	3272.65
556.73	3278.80
556.92	3108.82
557.12	2998.23
557.32	3610.57
557.51	3624.90
557.71	3074.00
557.90	3264.46
558.10	3590.09
558.30	3225.55
558.49	3119.06
558.69	3035.09
558.88	3397.58
559.08	3266.51
559.28	3114.96
559.47	3117.01
559.67	3407.82
559.86	3712.97
560.06	3045.33
560.26	3100.62
560.45	3430.35
560.65	3168.21
560.84	3368.91
561.04	2992.08
561.24	3475.40
561.43	3028.95
561.63	3362.76
561.82	3205.07
562.02	3346.38
562.22	3078.10
562.41	2947.03
562.61	2953.17
562.80	3080.14
563.00	3737.54
563.19	3098.58
563.39	3133.39
563.59	3395.53
563.78	3121.10
563.98	2838.48
564.17	3121.10
564.37	2947.03
564.56	3209.17
564.76	2879.44
564.96	3172.30
565.15	3377.10
565.35	3737.54
565.54	3098.58
565.74	3096.53
565.93	3354.57
566.13	3233.74
566.32	3133.39
566.52	3205.07
566.71	3348.43
566.91	3477.45
567.11	3205.07
567.30	3069.91
567.50	3354.57
567.69	3438.54
567.89	3028.95
568.08	2951.12
568.28	3270.61
568.47	3049.43
568.67	3074.00
568.86	3084.24
569.06	3493.83
569.25	3188.69
569.45	3000.27
569.64	3092.43
569.84	3155.92
570.04	3317.71
570.23	3078.10
570.43	3076.05
570.62	3315.66
570.82	3567.56
571.01	2934.74
571.21	3092.43
571.40	3123.15
571.60	3360.72
571.79	3149.78
571.99	3008.47
572.18	3020.75
572.38	3336.14
572.57	3157.97
572.77	3139.54
572.96	3835.85
573.16	3330.00
573.35	3033.04
573.55	3211.22
573.74	3405.77
573.94	3192.78
574.13	2987.99
574.33	3307.47
574.52	3499.98
574.71	3274.70
574.91	3139.54
575.10	2916.31
575.30	3155.92
575.49	3129.30
575.69	2965.46
575.88	3098.58
576.08	3215.31
576.27	3430.35
576.47	3026.90
576.66	3221.45
576.86	3569.61
577.05	3332.05
577.25	3209.17
577.44	3307.47
577.64	3098.58
577.83	3563.47
578.02	3090.38
578.22	3295.18
578.41	3653.58
578.61	3229.65
578.80	2936.79
579.00	3069.91
579.19	3209.17
579.39	3350.48
579.58	3225.55
579.77	3094.48
579.97	3483.59
580.16	3559.37
580.36	3192.78
580.55	3131.34
580.75	3350.48
580.94	3338.19
581.13	3325.90
581.33	3348.43
581.52	3250.13
581.72	3686.34
581.91	3207.12
582.11	3028.95
582.30	3485.64
582.49	3370.96
582.69	3370.96
582.88	3198.93
583.08	3407.82
583.27	3444.68
583.47	3178.45
583.66	3043.28
583.85	3092.43
584.05	3270.61
584.24	3174.35
584.44	3041.23
584.63	3475.40
584.82	3510.22
585.02	3383.24
585.21	3346.38
585.41	3450.83
585.60	3268.56
585.79	3360.72
585.99	3336.14
586.18	3352.52
586.37	4200.38
586.57	6272.93
586.76	17626.87
586.96	37053.90
587.15	50271.49
587.34	58786.94
587.54	62219.34
587.73	55831.72
587.93	39789.98
588.12	31020.58
588.31	25284.22
588.51	22191.79
588.70	20475.59
588.89	18142.96
589.09	15781.65
589.28	13641.52
589.47	10708.83
589.67	8128.39
589.86	6498.20
590.06	5126.07
590.25	4491.20
590.44	3854.28
590.64	3456.97
590.83	3600.33
591.02	3585.99
591.22	3127.25
591.41	3149.78
591.60	3325.90
591.80	3788.74
591.99	2885.59
592.18	3121.10
592.38	3450.83
592.57	3141.58
592.76	3098.58
592.96	3180.50
593.15	3264.46
593.34	3440.59
593.54	3000.27
593.73	3203.02
593.92	3364.81
594.12	3397.58
594.31	3198.93
594.50	3254.22
594.70	3344.33
594.89	3925.96
595.08	2969.55
595.28	3192.78
595.47	3928.00
595.66	3518.41
595.86	3045.33
596.05	2949.08
596.24	3203.02
596.43	3680.20
596.63	3209.17
596.82	3221.45
597.01	3452.88
597.21	3639.24
597.40	3082.19
597.59	3063.76
597.79	3274.70
597.98	3409.87
598.17	3104.72
598.36	3094.48
598.56	3465.16
598.75	3223.50
598.94	3102.67
599.14	3149.78
599.33	3133.39
599.52	3516.36
599.71	3102.67
599.91	3174.35
600.10	3430.35
600.29	3295.18
600.48	3188.69
600.68	3176.40
600.87	3405.77
601.06	3168.21
601.26	3252.17
601.45	3180.50
601.64	3223.50
601.83	3557.32
602.03	3041.23
602.22	3028.95
602.41	3534.79
602.60	3833.80
602.80	3133.39
602.99	3233.74
603.18	3176.40
603.37	3250.13
603.57	3037.14
603.76	3106.77
603.95	3540.94
604.14	3164.11
604.34	3049.43
604.53	3082.19
604.72	3393.48
604.91	3385.29
605.10	3104.72
605.30	2942.93
605.49	3696.58
605.68	3360.72
605.87	3100.62
606.07	2983.89
606.26	3323.85
606.45	3393.48
606.64	3051.47
606.84	2994.13
607.03	3207.12
607.22	3491.79
607.41	3090.38
607.60	3004.37
607.80	3510.22
607.99	3141.58
608.18	3074.00
608.37	3082.19
608.56	3102.67
608.76	3499.98
608.95	3295.18
609.14	3024.85
609.33	3512.27
609.52	3637.19
609.72	3221.45
609.91	3233.74
610.10	3416.01
610.29	3526.60
610.48	3284.94
610.68	3266.51
610.87	3256.27
611.06	3459.02
611.25	3131.34
611.44	3178.45
611.63	3141.58
611.83	3461.07
612.02	3012.56
612.21	3178.45
612.40	2963.41
612.59	3057.62
612.79	2924.50
612.98	3098.58
613.17	3645.38
613.36	3262.41
613.55	3205.07
613.74	3172.30
613.93	3430.35
614.13	3399.63
614.32	3360.72
614.51	3172.30
614.70	3340.24
614.89	3280.85
615.08	3149.78
615.28	3489.74
615.47	3053.52
615.66	3391.44
615.85	3133.39
616.04	3198.93
616.23	3311.57
616.42	3344.33
616.62	3067.86
616.81	3041.23
617.00	3289.04
617.19	3373.00
617.38	3049.43
617.57	3170.26
617.76	3477.45
617.95	3428.30
618.15	3225.55
618.34	3338.19
618.53	3069.91
618.72	3577.80
618.91	3223.50
619.10	3088.34
619.29	3297.23
619.48	3246.03
619.68	2918.36
619.87	3090.38
620.06	3026.90
620.25	3375.05
620.44	2977.75
620.63	3014.61
620.82	3280.85
621.01	3280.85
621.20	3096.53
621.39	3225.55
621.59	3317.71
621.78	3315.66
621.97	3061.71
622.16	3250.13
622.35	3319.76
622.54	3411.92
622.73	3098.58
622.92	2867.16
623.11	3524.55
623.30	3182.54
623.49	3248.08
623.68	2875.35
623.88	3651.53
624.07	3110.86
624.26	2977.75
624.45	3143.63
624.64	3291.09
624.83	3364.81
625.02	3139.54
625.21	3143.63
625.40	3385.29
625.59	3565.51
625.78	3196.88
625.97	3164.11
626.16	3592.14
626.35	3440.59
626.54	3188.69
626.74	3274.70
626.93	3250.13
627.12	3172.30
627.31	3182.54
627.50	3080.14
627.69	3456.97
627.88	3117.01
628.07	2977.75
628.26	2934.74
628.45	3164.11
628.64	3104.72
628.83	3059.67
629.02	2922.45
629.21	3426.25
629.40	3346.38
629.59	2922.45
629.78	3028.95
629.97	3327.95
630.16	3327.95
630.35	3057.62
630.54	3131.34
630.73	3178.45
630.92	3319.76
631.11	2916.31
631.30	3008.47
631.49	3389.39
631.68	3321.81
631.87	3205.07
632.06	2973.65
632.25	3712.97
632.44	3229.65
632.63	3205.07
632.82	3094.48
633.01	3168.21
633.20	3317.71
633.39	3125.20
633.58	2924.50
633.77	3368.91
633.96	3389.39
634.15	3258.32
634.34	3157.97
634.53	3469.26
634.72	3160.02
634.91	2926.55
635.10	3051.47
635.29	3483.59
635.48	3313.61
635.67	2951.12
635.86	2891.73
636.05	3588.04
636.24	3241.93
636.43	3076.05
636.62	3149.78
636.81	2879.44
637.00	3368.91
637.19	3117.01
637.38	3094.48
637.57	3262.41
637.76	3313.61
637.95	3239.89
638.14	3231.69
638.33	3307.47
638.52	3311.57
638.71	2914.26
638.89	3043.28
639.08	3891.14
639.27	3516.36
639.46	3411.92
639.65	3612.62
639.84	3917.76
640.03	4052.93
640.22	3715.02
640.41	3553.23
640.60	3456.97
640.79	3573.71
640.98	3264.46
641.17	3428.30
641.36	3559.37
641.55	3522.51
641.74	2967.51
641.92	3053.52
642.11	3149.78
642.30	3231.69
642.49	3053.52
642.68	3057.62
642.87	3370.96
643.06	3325.90
643.25	2914.26
643.44	2975.70
643.63	3311.57
643.82	3393.48
644.00	2930.64
644.19	3061.71
644.38	3006.42
644.57	3428.30
644.76	3110.86
644.95	3119.06
645.14	3274.70
645.33	3315.66
645.52	3086.29
645.71	2926.55
645.89	2994.13
646.08	3344.33
646.27	3090.38
646.46	3319.76
646.65	3065.81
646.84	3393.48
647.03	3055.57
647.22	3149.78
647.40	3358.67
647.59	3223.50
647.78	2863.06
647.97	3065.81
648.16	3106.77
648.35	3502.03
648.54	3327.95
648.73	3102.67
648.91	3426.25
649.10	3274.70
649.29	3041.23
649.48	3090.38
649.67	3432.40
649.86	3340.24
650.05	3119.06
650.23	3219.41
650.42	3170.26
650.61	3522.51
650.80	3346.38
650.99	3370.96
651.18	3467.21
651.36	3631.05
651.55	3057.62
651.74	3264.46
651.93	3182.54
652.12	3215.31
652.31	3082.19
652.49	3223.50
652.68	3256.27
652.87	3573.71
653.06	3213.26
653.25	3348.43
653.44	3194.83
653.62	3567.56
653.81	3104.72
654.00	3045.33
654.19	3491.79
654.38	3844.04
654.56	3256.27
654.75	3098.58
654.94	3452.88
655.13	3297.23
655.32	3049.43
655.51	3192.78
655.69	3237.84
655.88	3334.09
656.07	2944.98
656.26	3106.77
656.45	2987.99
656.63	3270.61
656.82	3059.67
657.01	3256.27
657.20	3147.73
657.38	3618.76
657.57	2994.13
657.76	2895.83
657.95	3432.40
658.14	3205.07
658.32	3246.03
658.51	3037.14
658.70	3319.76
658.89	3336.14
659.08	3082.19
659.26	3342.28
659.45	3104.72
659.64	3366.86
659.83	3065.81
660.01	3483.59
660.20	3334.09
660.39	3534.79
660.58	2832.34
660.76	3141.58
660.95	3026.90
661.14	3250.13
661.33	2897.88
661.51	3096.53
661.70	3241.93
661.89	3385.29
662.08	3131.34
662.26	2889.68
662.45	2990.03
662.64	3721.16
662.83	3166.16
663.01	2942.93
663.20	3217.36
663.39	3516.36
663.58	3180.50
663.76	3061.71
663.95	3368.91
664.14	3063.76
664.32	3221.45
664.51	2887.64
664.70	2904.02
664.89	3327.95
665.07	2955.22
665.26	3198.93
665.45	3074.00
665.64	3381.20
665.82	3037.14
666.01	3231.69
666.20	3041.23
666.38	3450.83
666.57	3518.41
666.76	5574.57
666.95	12990.27
667.13	20479.69
667.32	24600.20
667.51	27678.30
667.69	28722.76
667.88	23807.64
668.07	17481.46
668.25	14599.97
668.44	12750.65
668.63	11071.32
668.81	9744.24
669.00	8333.18
669.19	7731.08
669.38	6705.05
669.56	5744.55
669.75	4886.45
669.94	4528.06
670.12	3749.83
670.31	3416.01
670.50	3356.62
670.68	3575.75
670.87	3442.64
671.06	2998.23
671.24	3188.69
671.43	3592.14
671.62	3311.57
671.80	3045.33
671.99	3182.54
672.18	3237.84
672.36	3487.69
672.55	3243.98
672.74	3160.02
672.92	3282.89
673.11	3428.30
673.29	2934.74
673.48	3190.74
673.67	3243.98
673.85	3389.39
674.04	2920.40
674.23	3200.98
674.41	3616.71
674.60	3080.14
674.79	2877.40
674.97	2985.94
675.16	3438.54
675.34	3559.37
675.53	3024.85
675.72	3215.31
675.90	3637.19
676.09	3108.82
676.28	3246.03
676.46	2983.89
676.65	3504.07
676.83	3139.54
677.02	3117.01
677.21	3149.78
677.39	3366.86
677.58	3080.14
677.77	3055.57
677.95	3018.71
678.14	3250.13
678.32	3139.54
678.51	3125.20
678.70	3420.11
678.88	3166.16
679.07	3286.99
679.25	3047.38
679.44	3139.54
679.63	2987.99
679.81	3243.98
680.00	3311.57
680.18	3119.06
680.37	3524.55
680.55	3299.28
680.74	2977.75
680.93	2830.29
681.11	3352.52
681.30	3272.65
681.48	3004.37
681.67	3035.09
681.85	3362.76
682.04	3108.82
682.23	3143.63
682.41	3178.45
682.60	3213.26
682.78	3254.22
682.97	3000.27
683.15	3157.97
683.34	3311.57
683.53	3536.84
683.71	2848.72
683.90	3164.11
684.08	3635.14
684.27	3160.02
684.45	3114.96
684.64	3354.57
684.82	3321.81
685.01	3391.44
685.19	3049.43
685.38	3385.29
685.57	3307.47
685.75	3059.67
685.94	3004.37
686.12	3022.80
686.31	3213.26
686.49	3594.19
686.68	2889.68
686.86	3000.27
687.05	3168.21
687.23	3442.64
687.42	3143.63
687.60	2885.59
687.79	3469.26
687.97	3612.62
688.16	3153.87
688.34	3282.89
688.53	2889.68
688.71	3377.10
688.90	3346.38
689.08	3155.92
689.27	2920.40
689.45	3395.53
689.64	3243.98
689.82	3196.88
690.01	3338.19
690.19	3256.27
690.38	3168.21
690.56	3241.93
690.75	3080.14
690.93	3198.93
691.12	3123.15
691.30	3102.67
691.49	3198.93
691.67	3203.02
691.86	3452.88
692.04	3098.58
692.23	3233.74
692.41	3289.04
692.60	3499.98
692.78	3266.51
692.97	3305.42
693.15	3452.88
693.34	3286.99
693.52	3307.47
693.71	3188.69
693.89	3248.08
694.08	2920.40
694.26	3188.69
694.44	3430.35
694.63	3442.64
694.81	3004.37
695.00	3065.81
695.18	3559.37
695.37	3737.54
695.55	3182.54
695.74	3166.16
695.92	3133.39
696.10	3491.79
696.29	3026.90
696.47	3098.58
696.66	2959.31
696.84	3074.00
697.03	3133.39
697.21	3307.47
697.40	4648.89
697.58	3528.65
697.76	3033.04
697.95	3063.76
698.13	3104.72
698.32	3180.50
698.50	3145.68
698.68	3127.25
698.87	3373.00
699.05	3594.19
699.24	3074.00
699.42	3094.48
699.61	3276.75
699.79	3346.38
699.97	3127.25
700.16	2977.75
700.34	3026.90
700.53	3278.80
700.71	3315.66
700.89	3166.16
701.08	3303.37
701.26	3254.22
701.45	3463.12
701.63	3108.82
701.81	3114.96
702.00	3059.67
702.18	3205.07
702.37	3041.23
702.55	3592.14
702.73	3338.19
702.92	3168.21
703.10	3487.69
703.28	3504.07
703.47	3047.38
703.65	3323.85
703.84	3258.32
704.02	3133.39
704.20	3573.71
704.39	3090.38
704.57	3119.06
704.75	3438.54
704.94	3344.33
705.12	3280.85
705.30	4011.97
705.49	8699.77
705.67	16932.61
705.86	23924.37
706.04	27317.86
706.22	30254.64
706.41	28935.75
706.59	21726.90
706.77	16948.99
706.96	14628.64
707.14	13258.55
707.32	11257.68
707.51	9774.95
707.69	8101.76
707.87	6608.80
708.06	5320.62
708.24	4509.63
708.42	4196.29
708.61	4136.90
708.79	3241.93
708.97	3393.48
709.16	3418.06
709.34	3284.94
709.52	3112.91
709.71	3151.82
709.89	3416.01
710.07	3123.15
710.26	2959.31
710.44	3131.34
710.62	3385.29
710.80	3256.27
710.99	3198.93
711.17	3330.00
711.35	3143.63
711.54	3157.97
711.72	3276.75
711.90	3108.82
712.09	3332.05
712.27	3129.30
712.45	3289.04
712.63	3098.58
712.82	3305.42
713.00	3282.89
713.18	3221.45
713.37	3379.15
713.55	3389.39
713.73	3330.00
713.91	3147.73
714.10	3123.15
714.28	3246.03
714.46	3348.43
714.65	3155.92
714.83	3123.15
715.01	3303.37
715.19	3246.03
715.38	3086.29
715.56	3268.56
715.74	3155.92
715.92	3119.06
716.11	3385.29
716.29	2920.40
716.47	3289.04
716.65	3227.60
716.84	2869.20
717.02	3198.93
717.20	2981.84
717.38	3145.68
717.57	3286.99
717.75	3162.06
717.93	3160.02
718.11	3393.48
718.30	2942.93
718.48	3137.49
718.66	3471.31
718.84	3471.31
719.03	3098.58
719.21	3008.47
719.39	3653.58
719.57	3413.96
719.75	3209.17
719.94	3035.09
720.12	3194.83
720.30	3303.37
720.48	3225.55
720.67	2994.13
720.85	3112.91
721.03	3164.11
721.21	3092.43
721.39	3258.32
721.58	3286.99
721.76	3243.98
721.94	3149.78
722.12	3258.32
722.30	3575.75
722.49	3094.48
722.67	3114.96
722.85	3129.30
723.03	3010.51
723.21	3180.50
723.40	3039.19
723.58	3321.81
723.76	3364.81
723.94	3573.71
724.12	3137.49
724.30	3356.62
724.49	3459.02
724.67	3049.43
724.85	3147.73
725.03	2899.92
725.21	3362.76
725.40	3497.93
725.58	3078.10
725.76	3332.05
725.94	3295.18
726.12	3096.53
726.30	3192.78
726.49	2996.18
726.67	3260.37
726.85	3387.34
727.03	4065.22
727.21	5617.58
727.39	7188.37
727.57	7827.34
727.76	8394.62
727.94	8443.78
728.12	7311.25
728.30	6074.28
728.48	5719.98
728.66	5042.10
728.84	4786.10
729.03	4204.48
729.21	3788.74
729.39	3626.95
729.57	3397.58
729.75	3520.46
729.93	3448.78
730.11	3145.68
730.30	3123.15
730.48	3237.84
730.66	3248.08
730.84	3246.03
731.02	3309.52
731.20	3131.34
731.38	3157.97
731.56	2934.74
731.74	2959.31
731.93	3352.52
732.11	3258.32
732.29	3008.47
732.47	3471.31
732.65	3289.04
732.83	3291.09
733.01	3237.84
733.19	3131.34
733.37	3534.79
733.56	3164.11
733.74	2994.13
733.92	3590.09
734.10	3184.59
734.28	3270.61
734.46	2863.06
734.64	3233.74
734.82	3180.50
735.00	3043.28
735.18	3078.10
735.36	3188.69
735.54	3198.93
735.73	3033.04
735.91	3229.65
736.09	3442.64
736.27	3270.61
736.45	3215.31
736.63	2920.40
736.81	3239.89
736.99	3565.51
737.17	3289.04
737.35	3065.81
737.53	3274.70
737.71	3205.07
737.89	3305.42
738.07	3035.09
738.25	3084.24
738.43	2904.02
738.61	3164.11
738.80	2940.88
738.98	3102.67
739.16	3233.74
739.34	3117.01
739.52	3411.92
739.70	3162.06
739.88	3409.87
740.06	3225.55
740.24	2897.88
740.42	3508.17
740.60	2963.41
740.78	3112.91
740.96	2805.72
741.14	3246.03
741.32	3297.23
741.50	2967.51
741.68	3338.19
741.86	3553.23
742.04	3035.09
742.22	3067.86
742.40	3063.76
742.58	3383.24
742.76	3131.34
742.94	3321.81
743.12	2877.40
743.30	3301.33
743.48	3418.06
743.66	3002.32
743.84	3233.74
744.02	3321.81
744.20	3170.26
744.38	3018.71
744.56	3012.56
744.74	3637.19
744.92	3416.01
745.10	3338.19
745.28	3082.19
745.46	3667.91
745.64	3200.98
745.82	3098.58
746.00	3016.66
746.18	3350.48
746.36	3145.68
746.54	3137.49
746.72	3160.02
746.90	3057.62
747.08	3432.40
747.26	3147.73
747.44	3237.84
747.62	3463.12
747.80	3377.10
747.98	3198.93
748.15	3104.72
748.33	3680.20
748.51	3286.99
748.69	3172.30
748.87	2955.22
749.05	3174.35
749.23	3221.45
749.41	3030.99
749.59	3043.28
749.77	3407.82
749.95	3194.83
750.13	3028.95
750.31	3190.74
750.49	3289.04
750.67	3416.01
750.85	3274.70
751.03	3151.82
751.20	3592.14
751.38	3330.00
751.56	3131.34
751.74	3028.95
751.92	3237.84
752.10	3026.90
752.28	3323.85
752.46	3071.95
752.64	3252.17
752.82	3297.23
753.00	3196.88
753.18	2983.89
753.35	3178.45
753.53	3239.89
753.71	3049.43
753.89	3110.86
754.07	3348.43
754.25	3428.30
754.43	3141.58
754.61	2971.60
754.79	3393.48
754.97	3139.54
755.14	3221.45
755.32	3006.42
755.50	3321.81
755.68	3243.98
755.86	3041.23
756.04	2953.17
756.22	2928.60
756.40	3499.98
756.57	3338.19
756.75	3067.86
756.93	3528.65
757.11	3483.59
757.29	2979.79
757.47	3004.37
757.65	2916.31
757.82	2836.44
758.00	2983.89
758.18	3086.29
758.36	3112.91
758.54	3606.47
758.72	3026.90
758.90	3200.98
759.07	3424.20
759.25	3061.71
759.43	3160.02
759.61	2947.03
759.79	4501.44
759.97	3461.07
760.15	3063.76
760.32	3071.95
760.50	3370.96
760.68	3672.01
760.86	2906.07
761.04	3362.76
761.22	3444.68
761.39	3338.19
761.57	3330.00
761.75	2983.89
761.93	3332.05
762.11	3231.69
762.28	3166.16
762.46	2992.08
762.64	3434.44
762.82	3061.71
763.00	3039.19
763.18	3221.45
763.35	3028.95
763.53	3364.81
763.71	3076.05
763.89	2971.60
764.07	3262.41
764.24	3362.76
764.42	3258.32
764.60	3100.62
764.78	3389.39
764.96	3473.36
765.13	3237.84
765.31	2934.74
765.49	3456.97
765.67	3164.11
765.84	3028.95
766.02	3082.19
766.20	3033.04
766.38	3356.62
766.56	3170.26
766.73	3186.64
766.91	3258.32
767.09	3289.04
767.27	3157.97
767.44	2977.75
767.62	3297.23
767.80	3254.22
767.98	2944.98
768.15	3094.48
768.33	3467.21
768.51	3416.01
768.69	3223.50
768.87	3086.29
769.04	3278.80
769.22	3766.21
769.40	3321.81
769.58	3301.33
769.75	3411.92
769.93	3532.75
770.11	3151.82
770.28	2904.02
770.46	3469.26
770.64	3336.14
770.82	3112.91
770.99	2994.13
771.17	3413.96
771.35	3235.79
771.53	3135.44
771.70	3076.05
771.88	3387.34
772.06	3289.04
772.23	3067.86
772.41	3182.54
772.59	3270.61
772.77	3014.61
772.94	3176.40
773.12	3157.97
773.30	3160.02
773.47	3348.43
773.65	2916.31
773.83	3260.37
774.01	3266.51
774.18	2887.64
774.36	3149.78
774.54	2928.60
774.71	3278.80
774.89	2979.79
775.07	2971.60
775.24	3071.95
775.42	3219.41
775.60	3672.01
775.78	2992.08
775.95	2928.60
776.13	2916.31
776.31	2959.31
776.48	3264.46
776.66	3309.52
776.84	3194.83
777.01	3000.27
777.19	3037.14
777.37	3053.52
777.54	3518.41
777.72	3602.38
777.90	3129.30
778.07	3022.80
778.25	3936.20
778.43	3454.92
778.60	3037.14
778.78	3217.36
778.96	3565.51
779.13	3057.62
779.31	3172.30
779.49	3098.58
779.66	3248.08
779.84	3207.12
780.01	3067.86
780.19	2949.08
780.37	3510.22
780.54	3434.44
780.72	2879.44
780.90	3102.67
781.07	3241.93
781.25	3133.39
781.43	3313.61
781.60	3059.67
781.78	3463.12
781.95	3307.47
782.13	3024.85
782.31	3026.90
782.48	2992.08
782.66	3258.32
782.83	3352.52
783.01	3164.11
783.19	3362.76
783.36	3186.64
783.54	2990.03
783.72	3190.74
783.89	3219.41
784.07	3330.00
784.24	3184.59
784.42	3145.68
784.60	3278.80
784.77	3401.68
784.95	2820.05
785.12	3047.38
785.30	3387.34
785.47	3143.63
785.65	2971.60
785.83	3143.63
786.00	3170.26
786.18	3319.76
786.35	2928.60
786.53	2932.69
786.71	3452.88
786.88	3360.72
787.06	3131.34
787.23	3123.15
787.41	2987.99
787.58	3258.32
787.76	3028.95
787.94	3065.81
788.11	3383.24
788.29	3078.10
788.46	3039.19
788.64	2852.82
788.81	3176.40
788.99	3151.82
789.16	2934.74
789.34	3076.05
789.52	3106.77
789.69	3207.12
789.87	2922.45
790.04	3076.05
790.22	3330.00
790.39	3624.90
790.57	2971.60
790.74	2983.89
790.92	3454.92
791.09	2996.18
791.27	3141.58
791.44	3155.92
791.62	3205.07
791.79	3438.54
791.97	3188.69
792.15	3487.69
792.32	3434.44
792.50	3463.12
792.67	3297.23
792.85	3385.29
793.02	3346.38
793.20	3186.64
793.37	2953.17
793.55	2996.18
793.72	3057.62
793.90	3338.19
794.07	3016.66
794.25	2977.75
794.42	3284.94
794.60	3291.09
794.77	3149.78
794.95	3270.61
795.12	3424.20
795.30	3215.31
795.47	2848.72
795.65	3407.82
795.82	3330.00
796.00	3223.50
796.17	3190.74
796.34	3041.23
796.52	3360.72
796.69	3450.83
796.87	3207.12
797.04	3211.22
797.22	3475.40
797.39	3327.95
797.57	3274.70
797.74	3188.69
797.92	3375.05
798.09	3088.34
798.27	3344.33
798.44	3078.10
798.62	3147.73
798.79	3336.14
798.96	3235.79
799.14	3053.52
799.31	3803.08
799.49	3092.43
799.66	3104.72
799.84	3133.39
800.01	2979.79
800.19	3297.23
800.36	2834.39
800.53	3086.29
800.71	3422.16
800.88	3594.19
801.06	2994.13
801.23	3090.38
801.41	3172.30
801.58	3174.35
801.75	2998.23
801.93	3147.73
802.10	3444.68
802.28	3147.73
802.45	3082.19
802.63	3174.35
802.80	3512.27
802.97	3166.16
803.15	3145.68
803.32	3010.51
803.50	3082.19
803.67	3098.58
803.84	3035.09
804.02	3174.35
804.19	3182.54
804.37	2809.81
804.54	2867.16
804.71	3010.51
804.89	3227.60
805.06	3035.09
805.24	3051.47
805.41	2852.82
805.58	3078.10
805.76	3770.31
805.93	3051.47
806.10	3266.51
806.28	3319.76
806.45	3340.24
806.63	3192.78
806.80	3190.74
806.97	3327.95
807.15	3250.13
807.32	3164.11
807.49	3043.28
807.67	3055.57
807.84	3280.85
808.01	2940.88
808.19	3248.08
808.36	3715.02
808.54	3176.40
808.71	3106.77
808.88	3061.71
809.06	3524.55
809.23	3602.38
809.40	3045.33
809.58	3098.58
809.75	3139.54
809.92	3041.23
810.10	3456.97
810.27	3033.04
810.44	3352.52
810.62	3430.35
810.79	3080.14
810.96	3092.43
811.14	3186.64
811.31	3411.92
811.48	3280.85
811.66	3205.07
811.83	3592.14
812.00	3307.47
812.18	3246.03
812.35	3352.52
812.52	3184.59
812.69	3182.54
812.87	3016.66
813.04	3018.71
813.21	3170.26
813.39	3082.19
813.56	3020.75
813.73	3401.68
813.91	3028.95
814.08	3194.83
814.25	3100.62
814.42	2985.94
814.60	3278.80
814.77	3297.23
814.94	3028.95
815.12	3200.98
815.29	3610.57
815.46	3188.69
815.63	3147.73
815.81	3033.04
815.98	3178.45
816.15	3248.08
816.33	3219.41
816.50	3053.52
816.67	3235.79
816.84	3233.74
817.02	3049.43
817.19	3051.47
817.36	3317.71
817.53	3352.52
817.71	2985.94
817.88	3139.54
818.05	3125.20
818.22	3151.82
818.40	3323.85
818.57	3030.99
818.74	3327.95
818.91	3198.93
819.09	3348.43
819.26	3182.54
819.43	3069.91
819.60	3180.50
819.78	3260.37
819.95	3147.73
820.12	3078.10
820.29	3454.92
820.47	3364.81
820.64	2963.41
820.81	3000.27
820.98	3151.82
821.15	3100.62
821.33	3225.55
821.50	3041.23
821.67	3389.39
821.84	3059.67
822.02	3045.33
822.19	3375.05
822.36	3147.73
822.53	2987.99
822.70	2953.17
822.88	3174.35
823.05	3504.07
823.22	3155.92
823.39	3012.56
823.56	3188.69
823.74	3698.63
823.91	2963.41
824.08	2983.89
824.25	3037.14
824.42	3602.38
824.60	2893.78
824.77	3188.69
824.94	3178.45
825.11	3375.05
825.28	2942.93
825.45	3237.84
825.63	3364.81
825.80	3057.62
825.97	3143.63
826.14	3082.19
826.31	2975.70
826.48	3368.91
826.66	3053.52
826.83	3014.61
827.00	3215.31
827.17	3061.71
827.34	3106.77
827.51	3059.67
827.69	3299.28
827.86	2973.65
828.03	3123.15
828.20	3069.91
828.37	3051.47
828.54	3330.00
828.71	3045.33
828.89	3182.54
829.06	3254.22
829.23	3538.89
829.40	3035.09
829.57	3069.91
829.74	3456.97
829.91	3221.45
830.09	2959.31
830.26	3188.69
830.43	3659.72
830.60	3198.93
830.77	3149.78
830.94	3243.98
831.11	3422.16
831.28	3180.50
831.46	3227.60
831.63	3106.77
831.80	3375.05
831.97	3090.38
832.14	3108.82
832.31	3137.49
832.48	3321.81
832.65	3485.64
832.82	3182.54
832.99	3215.31
833.17	3035.09
833.34	3549.13
833.51	3020.75
833.68	2863.06
833.85	3473.36
834.02	3002.32
834.19	3051.47
834.36	2985.94
834.53	3319.76
834.70	3422.16
834.87	3035.09
835.04	2836.44
835.22	3108.82
835.39	3188.69
835.56	2914.26
835.73	2965.46
835.90	3516.36
836.07	3041.23
836.24	3123.15
836.41	2951.12
836.58	3104.72
836.75	3512.27
836.92	2920.40
837.09	2895.83
837.26	3448.78
837.43	3360.72
837.60	2961.36
837.77	2897.88
837.94	3413.96
838.12	3475.40
838.29	2914.26
838.46	2865.11
838.63	2957.27
838.80	3551.18
838.97	2957.27
839.14	2881.49
839.31	3266.51
839.48	3309.52
839.65	2897.88
839.82	3024.85
839.99	3258.32
840.16	3233.74
840.33	2858.96
840.50	2961.36
840.67	3110.86
840.84	2766.81
841.01	2844.63
841.18	2912.21
841.35	3266.51
841.52	3430.35
841.69	3200.98
841.86	2910.16
842.03	3198.93
842.20	3452.88
842.37	2904.02
842.54	2983.89
842.71	3262.41
842.88	2918.36
843.05	2947.03
843.22	2904.02
843.39	3364.81
843.56	3164.11
843.73	2867.16
843.90	2949.08
844.07	3254.22
844.24	3516.36
844.41	3012.56
844.58	2930.64
844.75	3235.79
844.92	3407.82
845.09	3049.43
845.26	2969.55
845.43	3385.29
845.60	3133.39
845.77	2973.65
845.94	2973.65
846.10	3444.68
846.27	2977.75
846.44	2807.77
846.61	2791.38
846.78	3399.63
846.95	3475.40
847.12	2848.72
847.29	2955.22
847.46	3160.02
847.63	3446.73
847.80	2858.96
847.97	2953.17
848.14	3844.04
848.31	3207.12
848.48	2820.05
848.65	2895.83
848.82	3137.49
848.98	3661.77
849.15	3086.29
849.32	3065.81
849.49	3446.73
849.66	3243.98
849.83	2942.93
850.00	2901.97
850.17	3436.49
850.34	3133.39
850.51	2826.20
850.68	2961.36
850.85	3760.07
851.01	3330.00
851.18	2844.63
851.35	2951.12
851.52	3291.09
851.69	3565.51
851.86	2844.63
852.03	2959.31
852.20	3436.49
852.37	3246.03
852.53	2842.58
852.70	2875.35
852.87	3278.80
853.04	3315.66
853.21	2916.31
853.38	3125.20
853.55	3497.93
853.72	3499.98
853.89	2818.00
854.05	2926.55
854.22	3278.80
854.39	3182.54
854.56	2893.78
854.73	3076.05
854.90	3155.92
855.07	3160.02
855.23	2777.05
855.40	2836.44
855.57	3170.26
855.74	2783.19
855.91	3188.69
856.08	2799.57
856.25	3045.33
856.41	3157.97
856.58	2992.08
856.75	2983.89
856.92	3127.25
857.09	3418.06
857.26	2799.57
857.42	2953.17
857.59	3387.34
857.76	3149.78
857.93	2850.77
858.10	3016.66
858.27	3067.86
858.43	3125.20
858.60	2928.60
858.77	2809.81
858.94	3168.21
859.11	3530.70
859.27	3012.56
859.44	2895.83
859.61	3641.29
859.78	3344.33
859.95	2922.45
860.12	2901.97
860.28	3772.36
860.45	3735.50
860.62	2926.55
860.79	3014.61
860.95	3178.45
861.12	3086.29
861.29	2850.77
861.46	2910.16
861.63	3176.40
861.79	3307.47
861.96	2754.52
862.13	2944.98
862.30	3551.18
862.47	3151.82
862.63	2787.29
862.80	2985.94
862.97	3475.40
863.14	3278.80
863.30	2987.99
863.47	2803.67
863.64	3583.95
863.81	3235.79
863.97	2752.47
864.14	2963.41
864.31	3221.45
864.48	3157.97
864.65	2877.40
864.81	3078.10
864.98	3416.01
865.15	3442.64
865.32	2899.92
865.48	2975.70
865.65	3639.24
865.82	3139.54
865.98	3039.19
866.15	3000.27
866.32	3221.45
866.49	3200.98
866.65	3018.71
866.82	2930.64
866.99	3227.60
867.16	3155.92
867.32	2983.89
867.49	2846.68
867.66	3223.50
867.83	3155.92
867.99	2848.72
868.16	2936.79
868.33	3080.14
868.49	3323.85
868.66	2983.89
868.83	3018.71
868.99	3268.56
869.16	3282.89
869.33	3084.24
869.50	2998.23
869.66	3217.36
869.83	3264.46
870.00	2830.29
870.16	3069.91
870.33	3237.84
870.50	3401.68
870.66	2910.16
870.83	3026.90
871.00	3213.26
871.17	3282.89
871.33	2971.60
871.50	2914.26
871.67	3225.55
871.83	3180.50
872.00	3008.47
872.17	2854.87
872.33	3590.09
872.50	3506.12
872.67	2873.30
872.83	2942.93
873.00	3311.57
873.17	3205.07
873.33	2906.07
873.50	2932.69
873.67	3133.39
873.83	3069.91
874.00	2951.12
874.16	2985.94
874.33	3282.89
874.50	3000.27
874.66	2940.88
874.83	3039.19
875.00	3465.16
875.16	3473.36
875.33	2994.13
875.50	2768.85
875.66	3135.44
875.83	3233.74
875.99	2987.99
876.16	3065.81
876.33	2979.79
876.49	3211.22
876.66	3065.81
876.83	2873.30
876.99	3074.00
877.16	3268.56
877.32	2865.11
877.49	3033.04
877.66	3383.24
877.82	3569.61
877.99	2981.84
878.15	3196.88
878.32	3291.09
878.49	3270.61
878.65	3030.99
878.82	3149.78
878.98	3170.26
879.15	3446.73
879.32	3127.25
879.48	3184.59
879.65	3182.54
879.81	3254.22
879.98	2981.84
880.15	2983.89
880.31	3413.96
880.48	3082.19
880.64	3045.33
880.81	3049.43
880.97	3573.71
881.14	3512.27
881.31	2824.15
881.47	3127.25
881.64	3213.26
881.80	2904.02
881.97	3188.69
882.13	2944.98
882.30	3022.80
882.47	3102.67
882.63	2877.40
882.80	2944.98
882.96	3198.93
883.13	3512.27
883.29	2918.36
883.46	2977.75
883.62	3766.21
883.79	3319.76
883.95	3123.15
884.12	2822.10
884.29	3430.35
884.45	3174.35
884.62	2873.30
884.78	2844.63
884.95	3592.14
885.11	3049.43
885.28	3053.52
885.44	2938.84
885.61	3338.19
885.77	3508.17
885.94	3063.76
886.10	2998.23
886.27	3282.89
886.43	3637.19
886.60	3108.82
886.76	2916.31
886.93	3065.81
887.09	3258.32
887.26	2813.91
887.42	3074.00
887.59	3522.51
887.75	3723.21
887.92	3164.11
888.08	3069.91
888.25	3655.62
888.41	3491.79
888.58	2987.99
888.74	2871.25
888.91	3104.72
>>>>>End Processed Spectral Data<<<<<
